PacketCounter,Acc_X,Acc_Y,Acc_Z,FreeAcc_E,FreeAcc_N,FreeAcc_U,Gyr_X,Gyr_Y,Gyr_Z,VelInc_X,VelInc_Y,VelInc_Z,OriInc_q0,OriInc_q1,OriInc_q2,OriInc_q3,Quat_q0,Quat_q1,Quat_q2,Quat_q3,Roll,Pitch,Yaw
47601,-4.240129,4.015209,7.985514,-0.030542,0.091195,0.079723,0.030493,0.004870,0.004761,-0.042400,0.040139,0.079862,1.000000,0.000152,0.000024,0.000024,0.493270,-0.085438,0.302491,0.811100,26.862098,25.913689,123.677994
47602,-4.254167,4.048362,7.991612,-0.048761,0.074000,0.104226,0.025796,0.006483,-0.000319,-0.042539,0.040473,0.079923,1.000000,0.000129,0.000032,-0.000002,0.493245,-0.085385,0.302564,0.811094,26.873887,25.911835,123.682550
47603,-4.256649,4.034528,7.971716,-0.037458,0.066309,0.083723,0.021902,0.007105,-0.003634,-0.042563,0.040337,0.079723,1.000000,0.000110,0.000036,-0.000018,0.493230,-0.085358,0.302636,0.811079,26.883926,25.912736,123.685941
47604,-4.258905,4.020389,7.952097,-0.026160,0.058293,0.063220,0.019494,-0.000202,-0.002422,-0.042589,0.040197,0.079525,1.000000,0.000097,-0.000001,-0.000012,0.493221,-0.085296,0.302667,0.811080,26.890750,25.908009,123.687376
47605,-4.274210,4.042298,7.999534,-0.028192,0.067423,0.116877,0.021993,0.005702,-0.000524,-0.042740,0.040414,0.080001,1.000000,0.000110,0.000029,-0.000003,0.493194,-0.085258,0.302737,0.811074,26.901436,25.907386,123.692130
47606,-4.313907,4.006657,8.001929,0.024122,0.051416,0.121634,0.027394,0.004512,0.003216,-0.043138,0.040055,0.080026,1.000000,0.000137,0.000023,0.000016,0.493159,-0.085188,0.302814,0.811074,26.914791,25.903607,123.698133
47607,-4.265955,3.974437,7.993197,0.028808,0.093869,0.080547,0.035743,0.000663,0.007100,-0.042661,0.039729,0.079939,1.000000,0.000179,0.000003,0.000036,0.493115,-0.085084,0.302930,0.811068,26.934611,25.898430,123.705762
47608,-4.260567,4.019414,7.988083,-0.009908,0.080656,0.092412,0.034324,-0.000165,0.009788,-0.042608,0.040178,0.079888,1.000000,0.000172,-0.000001,0.000049,0.493063,-0.084968,0.303026,0.811076,26.952972,25.890560,123.714143
47609,-4.244658,4.007588,7.997825,-0.002946,0.102978,0.088447,0.038119,0.000624,0.009997,-0.042448,0.040059,0.079986,1.000000,0.000191,0.000003,0.000050,0.493008,-0.084854,0.303153,0.811074,26.974862,25.884605,123.723401
47610,-4.243271,4.021088,7.955341,-0.019094,0.075909,0.059284,0.030546,0.006406,0.005473,-0.042431,0.040198,0.079561,1.000000,0.000153,0.000032,0.000027,0.492962,-0.084781,0.303249,0.811074,26.990815,25.881209,123.731224
47611,-4.236526,4.080965,7.968892,-0.069084,0.069929,0.091655,0.026372,0.000960,-0.000657,-0.042365,0.040799,0.079695,1.000000,0.000132,0.000005,-0.000003,0.492945,-0.084713,0.303325,0.811063,27.003375,25.878192,123.734529
47612,-4.238663,4.066834,7.949338,-0.057780,0.061933,0.071148,0.015735,0.003448,-0.004327,-0.042384,0.040663,0.079497,1.000000,0.000079,0.000017,-0.000022,0.492936,-0.084679,0.303348,0.811063,27.008056,25.875829,123.735945
47613,-4.237393,4.083399,7.967184,-0.069041,0.068099,0.091669,0.011915,0.005579,-0.006943,-0.042370,0.040831,0.079675,1.000000,0.000060,0.000028,-0.000035,0.492932,-0.084674,0.303374,0.811056,27.011359,25.876805,123.737019
47614,-4.258728,4.057147,7.959116,-0.037223,0.056116,0.083787,0.006608,0.005364,-0.007575,-0.042584,0.040570,0.079594,1.000000,0.000033,0.000027,-0.000038,0.492930,-0.084675,0.303365,0.811061,27.010263,25.876265,123.737147
47615,-4.265943,4.005144,8.003335,0.017679,0.093528,0.101130,0.007317,0.005779,-0.008918,-0.042655,0.040050,0.080036,1.000000,0.000037,0.000029,-0.000045,0.492931,-0.084687,0.303372,0.811056,27.010467,25.877856,123.737158
47616,-4.285446,3.994756,8.013778,0.038210,0.088463,0.113766,0.015003,0.005954,-0.005391,-0.042851,0.039943,0.080142,1.000000,0.000075,0.000030,-0.000027,0.492923,-0.084666,0.303398,0.811054,27.014800,25.877050,123.738694
47617,-4.253437,3.976041,7.994485,0.035933,0.107883,0.076675,0.017973,0.000379,-0.002835,-0.042534,0.039754,0.079948,1.000000,0.000090,0.000002,-0.000014,0.492913,-0.084620,0.303438,0.811050,27.021934,25.874302,123.740594
47618,-4.234880,3.988349,7.982577,0.015441,0.110807,0.064061,0.018042,0.001896,-0.002132,-0.042348,0.039877,0.079830,1.000000,0.000090,0.000009,-0.000011,0.492898,-0.084570,0.303468,0.811052,27.028298,25.870579,123.742809
47619,-4.250677,4.004989,7.970433,0.008539,0.086988,0.068018,0.021200,0.003787,0.000122,-0.042505,0.040041,0.079709,1.000000,0.000106,0.000019,0.000001,0.492872,-0.084525,0.303531,0.811050,27.038443,25.868800,123.747371
47620,-4.281399,4.042382,8.006522,-0.000427,0.072638,0.125640,0.024077,-0.000387,-0.000432,-0.042814,0.040414,0.080070,1.000000,0.000120,-0.000002,-0.000002,0.492857,-0.084449,0.303580,0.811048,27.048392,25.863472,123.749886
47621,-4.263344,4.049686,7.934833,-0.025768,0.043009,0.063300,0.021035,0.003672,-0.003691,-0.042631,0.040489,0.079353,1.000000,0.000105,0.000018,-0.000018,0.492846,-0.084410,0.303640,0.811037,27.057483,25.862627,123.752252
47622,-4.246486,4.051772,7.963639,-0.030118,0.071907,0.079884,0.019595,0.005761,-0.003413,-0.042462,0.040511,0.079642,1.000000,0.000098,0.000029,-0.000017,0.492832,-0.084374,0.303686,0.811032,27.064912,25.861217,123.754859
47623,-4.269402,4.010818,7.936632,0.012998,0.053397,0.051468,0.019686,0.004362,-0.000301,-0.042692,0.040100,0.079371,1.000000,0.000098,0.000022,-0.000002,0.492806,-0.084336,0.303743,0.811030,27.074156,25.859839,123.759347
47624,-4.264285,4.059659,7.991303,-0.020850,0.072982,0.113043,0.022611,0.004621,-0.002562,-0.042640,0.040588,0.079919,1.000000,0.000113,0.000023,-0.000013,0.492791,-0.084287,0.303799,0.811023,27.083382,25.857629,123.762103
47625,-4.238943,3.983782,7.957236,0.026867,0.097754,0.043604,0.018698,-0.002117,-0.001762,-0.042390,0.039831,0.079576,1.000000,0.000093,-0.000011,-0.000009,0.492780,-0.084227,0.303835,0.811022,27.090879,25.853326,123.763884
47626,-4.247405,4.063339,8.019332,-0.025188,0.101119,0.129646,0.023154,0.004919,-0.007719,-0.042471,0.040626,0.080199,1.000000,0.000116,0.000025,-0.000039,0.492786,-0.084186,0.303892,0.811002,27.099184,25.852616,123.763813
47627,-4.271989,4.006893,7.973747,0.029223,0.075754,0.080701,0.026216,-0.002050,-0.002043,-0.042720,0.040059,0.079742,1.000000,0.000131,-0.000010,-0.000010,0.492780,-0.084108,0.303959,0.810989,27.110926,25.848421,123.765452
47628,-4.233374,4.040782,7.909444,-0.027913,0.056694,0.026250,0.020227,0.004663,-0.005457,-0.042331,0.040401,0.079100,1.000000,0.000101,0.000023,-0.000027,0.492776,-0.084070,0.304004,0.810978,27.118078,25.846990,123.766580
47629,-4.264522,4.077827,7.945434,-0.036863,0.042616,0.083856,0.018880,0.005354,-0.002068,-0.042643,0.040771,0.079459,1.000000,0.000094,0.000027,-0.000010,0.492755,-0.084040,0.304060,0.810973,27.126547,25.846576,123.770352
47630,-4.252613,4.038012,7.978272,-0.002519,0.083733,0.088629,0.016524,0.002476,-0.002552,-0.042525,0.040374,0.079787,1.000000,0.000083,0.000012,-0.000013,0.492741,-0.083998,0.304085,0.810976,27.132034,25.843277,123.772504
47631,-4.289119,4.027603,7.958775,0.022413,0.049048,0.084652,0.017300,0.004408,-0.003194,-0.042889,0.040270,0.079592,1.000000,0.000087,0.000022,-0.000016,0.492725,-0.083970,0.304132,0.810971,27.139200,25.842674,123.775363
47632,-4.251496,4.056376,7.995122,-0.013769,0.088780,0.109173,0.019539,0.001338,-0.001698,-0.042514,0.040556,0.079955,1.000000,0.000098,0.000007,-0.000008,0.492711,-0.083914,0.304167,0.810973,27.146479,25.838578,123.777660
47633,-4.234778,4.052639,7.964754,-0.022969,0.085157,0.076031,0.011789,-0.000366,-0.005930,-0.042347,0.040523,0.079650,1.000000,0.000059,-0.000002,-0.000030,0.492712,-0.083885,0.304179,0.810971,27.149208,25.836256,123.777583
47634,-4.219527,4.038407,7.975467,-0.016053,0.107180,0.072123,0.016290,0.000840,-0.007064,-0.042194,0.040379,0.079758,1.000000,0.000081,0.000004,-0.000035,0.492718,-0.083843,0.304197,0.810964,27.153244,25.833310,123.776702
47635,-4.233799,4.070019,7.982025,-0.034221,0.090195,0.096577,0.010395,0.006152,-0.007369,-0.042334,0.040698,0.079824,1.000000,0.000052,0.000031,-0.000037,0.492714,-0.083846,0.304219,0.810959,27.155643,25.834687,123.777703
47636,-4.268804,4.074780,7.981188,-0.020571,0.062048,0.113118,0.014049,0.003910,-0.008559,-0.042685,0.040744,0.079816,1.000000,0.000070,0.000020,-0.000043,0.492721,-0.083824,0.304235,0.810950,27.158421,25.833690,123.776868
47637,-4.273014,4.044104,7.943366,0.002046,0.047602,0.072059,0.016357,0.002360,-0.006362,-0.042728,0.040436,0.079437,1.000000,0.000082,0.000012,-0.000032,0.492721,-0.083795,0.304272,0.810940,27.164005,25.832871,123.777338
47638,-4.273033,4.050803,8.002081,0.006883,0.079339,0.121837,0.017295,0.004414,-0.003192,-0.042728,0.040502,0.080025,1.000000,0.000086,0.000022,-0.000016,0.492707,-0.083759,0.304305,0.810939,27.170033,25.830737,123.779679
47639,-4.254649,4.063047,7.990055,-0.013613,0.082572,0.109226,0.018026,0.001915,-0.002121,-0.042545,0.040624,0.079905,1.000000,0.000090,0.000010,-0.000011,0.492691,-0.083718,0.304349,0.810937,27.177563,25.828581,123.782421
47640,-4.220639,4.060211,7.989393,-0.027224,0.108582,0.092714,0.016517,0.002484,-0.002548,-0.042205,0.040596,0.079898,1.000000,0.000083,0.000012,-0.000013,0.492677,-0.083675,0.304375,0.810940,27.183071,25.825295,123.784594
47641,-4.223050,4.045261,7.970127,-0.015905,0.100996,0.072188,0.011738,0.005462,-0.010756,-0.042226,0.040450,0.079705,1.000000,0.000059,0.000027,-0.000054,0.492688,-0.083677,0.304398,0.810924,27.185317,25.827206,123.783477
47642,-4.256218,4.065724,7.987858,-0.013542,0.079685,0.109250,0.011123,0.003654,-0.006298,-0.042559,0.040654,0.079882,1.000000,0.000056,0.000018,-0.000031,0.492686,-0.083658,0.304403,0.810926,27.186952,25.825492,123.783834
47643,-4.258644,4.050628,7.968654,-0.002220,0.072104,0.088721,0.013407,0.005018,-0.006515,-0.042583,0.040502,0.079690,1.000000,0.000067,0.000025,-0.000033,0.492681,-0.083648,0.304434,0.810918,27.191144,25.826067,123.784990
47644,-4.241970,4.052018,7.997806,-0.006618,0.100967,0.105368,0.010321,0.004636,-0.008068,-0.042416,0.040518,0.079981,1.000000,0.000052,0.000023,-0.000040,0.492683,-0.083637,0.304438,0.810916,27.192020,25.825326,123.784662
47645,-4.275515,4.066790,7.956053,-0.009045,0.047192,0.092628,0.009613,0.004224,-0.006724,-0.042752,0.040666,0.079563,1.000000,0.000048,0.000021,-0.000034,0.492679,-0.083633,0.304452,0.810914,27.193887,25.825551,123.785469
47646,-4.226229,4.048189,7.966955,-0.015793,0.096310,0.072235,0.010414,0.003243,-0.004953,-0.042260,0.040479,0.079672,1.000000,0.000052,0.000016,-0.000025,0.492671,-0.083612,0.304454,0.810921,27.195411,25.823284,123.786501
47647,-4.284788,4.000499,7.981225,0.057094,0.076805,0.089544,0.017358,0.005940,-0.002490,-0.042845,0.039999,0.079817,1.000000,0.000087,0.000030,-0.000012,0.492650,-0.083590,0.304505,0.810916,27.202977,25.823275,123.790203
47648,-4.280117,4.044009,7.976178,0.018424,0.063437,0.101367,0.025058,0.003227,0.003462,-0.042801,0.040429,0.079768,1.000000,0.000125,0.000016,0.000017,0.492615,-0.083520,0.304569,0.810921,27.214941,25.818796,123.795926
47649,-4.247568,4.026354,7.956715,0.016096,0.082957,0.064333,0.026589,-0.000251,0.006306,-0.042477,0.040252,0.079572,1.000000,0.000133,-0.000001,0.000032,0.492571,-0.083436,0.304646,0.810927,27.229178,25.813326,123.802804
47650,-4.225656,4.065466,7.921862,-0.031790,0.066751,0.043002,0.024323,0.005728,0.002390,-0.042255,0.040645,0.079225,1.000000,0.000122,0.000029,0.000012,0.492535,-0.083380,0.304714,0.810929,27.240800,25.810414,123.808745
47651,-4.236176,4.129617,7.964956,-0.072539,0.063325,0.108511,0.017286,0.004423,-0.003188,-0.042359,0.041290,0.079654,1.000000,0.000086,0.000022,-0.000016,0.492520,-0.083352,0.304760,0.810924,27.247959,25.809812,123.811611
47652,-4.226485,4.067936,7.920151,-0.031741,0.064942,0.043014,0.008128,0.001879,-0.004735,-0.042263,0.040677,0.079204,1.000000,0.000041,0.000009,-0.000024,0.492512,-0.083331,0.304750,0.810935,27.248041,25.806799,123.812290
47653,-4.240842,4.098898,7.926915,-0.049881,0.047891,0.067439,0.002712,0.005953,-0.010906,-0.042404,0.040990,0.079271,1.000000,0.000014,0.000030,-0.000055,0.492520,-0.083357,0.304738,0.810932,27.245143,25.809001,123.811234
47654,-4.244968,4.072689,7.949087,-0.022468,0.065962,0.076179,0.002712,0.005953,-0.010906,-0.042445,0.040728,0.079493,1.000000,0.000014,0.000030,-0.000055,0.492528,-0.083375,0.304713,0.810934,27.241166,25.809685,123.809740
47655,-4.266268,4.045727,7.941476,0.009385,0.054440,0.068250,0.002736,0.003043,-0.008489,-0.042660,0.040458,0.079416,1.000000,0.000014,0.000015,-0.000042,0.492530,-0.083386,0.304695,0.810939,27.238508,25.809771,123.809203
47656,-4.235715,4.015688,7.963888,0.023123,0.099604,0.060513,0.005112,0.003015,-0.005591,-0.042355,0.040156,0.079641,1.000000,0.000026,0.000015,-0.000028,0.492523,-0.083378,0.304675,0.810952,27.236833,25.807575,123.809797
47657,-4.231353,4.057669,7.959409,-0.015539,0.086516,0.072326,0.007302,0.005772,-0.008923,-0.042309,0.040576,0.079597,1.000000,0.000037,0.000029,-0.000045,0.492524,-0.083389,0.304682,0.810947,27.237029,25.809164,123.809810
47658,-4.228775,4.083692,7.936504,-0.042889,0.066321,0.063594,0.004815,-0.000149,-0.010799,-0.042286,0.040837,0.079366,1.000000,0.000024,-0.000001,-0.000054,0.492542,-0.083378,0.304651,0.810949,27.233501,25.806731,123.806530
47659,-4.248067,4.072627,7.947463,-0.022340,0.061598,0.076207,0.004082,0.002350,-0.011873,-0.042477,0.040727,0.079476,1.000000,0.000020,0.000012,-0.000059,0.492560,-0.083387,0.304635,0.810943,27.230692,25.807351,123.803877
47660,-4.247250,4.088044,7.965651,-0.033616,0.067324,0.096761,-0.000399,0.008480,-0.014877,-0.042466,0.040884,0.079658,1.000000,-0.000002,0.000042,-0.000074,0.492579,-0.083429,0.304602,0.810939,27.224283,25.810370,123.800853
47661,-4.267106,4.076471,7.976563,-0.013066,0.062600,0.109373,0.000266,0.004463,-0.014501,-0.042666,0.040768,0.079767,1.000000,0.000001,0.000022,-0.000073,0.492602,-0.083461,0.304575,0.810932,27.218907,25.812755,123.797328
47662,-4.269873,4.059984,7.957877,-0.001728,0.054762,0.088832,-0.001882,0.006136,-0.012888,-0.042694,0.040603,0.079580,1.000000,-0.000009,0.000031,-0.000064,0.492617,-0.083494,0.304532,0.810936,27.211836,25.814067,123.794725
47663,-4.236564,4.055273,7.957858,-0.015389,0.081102,0.072372,0.000265,0.004465,-0.014500,-0.042361,0.040556,0.079580,1.000000,0.000001,0.000022,-0.000073,0.492640,-0.083526,0.304505,0.810929,27.206460,25.816451,123.791200
47664,-4.274850,4.033022,7.979969,0.025695,0.072103,0.097593,0.002801,0.004564,-0.007790,-0.042745,0.040331,0.079801,1.000000,0.000014,0.000023,-0.000039,0.492638,-0.083534,0.304478,0.810939,27.203136,25.815624,123.790994
47665,-4.241220,4.028977,7.979790,0.012029,0.098445,0.081140,0.007164,0.002740,-0.010316,-0.042409,0.040289,0.079800,1.000000,0.000036,0.000014,-0.000052,0.492650,-0.083535,0.304477,0.810933,27.202525,25.816033,123.789335
47666,-4.257544,4.044168,7.967923,0.005218,0.074272,0.085001,0.007364,0.007297,-0.008223,-0.042571,0.040440,0.079682,1.000000,0.000037,0.000036,-0.000041,0.492647,-0.083543,0.304475,0.810934,27.202047,25.816720,123.789687
47667,-4.273889,4.059459,7.955989,-0.001593,0.050405,0.088855,0.008098,0.004799,-0.007148,-0.042736,0.040593,0.079563,1.000000,0.000040,0.000024,-0.000036,0.492644,-0.083546,0.304484,0.810933,27.203013,25.817349,123.790420
47668,-4.255641,4.070941,7.944274,-0.022092,0.053323,0.076256,0.011848,0.001169,-0.005216,-0.042555,0.040706,0.079445,1.000000,0.000059,0.000006,-0.000026,0.492641,-0.083513,0.304487,0.810937,27.205080,25.814144,123.790647
47669,-4.254298,4.087456,7.962191,-0.033379,0.059334,0.096813,0.011113,0.003667,-0.006291,-0.042540,0.040871,0.079625,1.000000,0.000056,0.000018,-0.000031,0.492636,-0.083502,0.304505,0.810934,27.207842,25.813971,123.791536
47670,-4.241184,4.056934,7.954550,-0.015203,0.074645,0.072423,0.005721,0.004825,-0.010047,-0.042408,0.040569,0.079548,1.000000,0.000029,0.000024,-0.000050,0.492644,-0.083507,0.304491,0.810934,27.205708,25.813877,123.790269
47671,-4.255734,4.087633,7.961332,-0.033320,0.057528,0.096823,0.002572,0.002919,-0.012299,-0.042554,0.040878,0.079614,1.000000,0.000013,0.000015,-0.000061,0.492661,-0.083524,0.304470,0.810930,27.202000,25.814897,123.787540
47672,-4.242782,4.056334,7.954004,-0.015148,0.072848,0.072437,0.000263,0.004464,-0.014500,-0.042423,0.040566,0.079541,1.000000,0.000001,0.000022,-0.000072,0.492685,-0.083548,0.304431,0.810927,27.195593,25.815801,123.783597
47673,-4.279521,4.049931,7.994471,0.014622,0.070915,0.118202,0.005692,0.007738,-0.012463,-0.042790,0.040500,0.079948,1.000000,0.000028,0.000039,-0.000062,0.492697,-0.083576,0.304435,0.810916,27.194243,25.819320,123.782176
47674,-4.300758,4.023389,7.986631,0.046495,0.059150,0.110255,0.009698,0.002844,-0.003603,-0.043006,0.040231,0.079869,1.000000,0.000048,0.000014,-0.000018,0.492684,-0.083553,0.304434,0.810926,27.195702,25.816554,123.783808
47675,-4.300822,4.024478,7.986048,0.046519,0.058405,0.110260,0.019480,-0.003045,0.000047,-0.043009,0.040237,0.079864,1.000000,0.000097,-0.000015,0.000000,0.492668,-0.083485,0.304473,0.810929,27.203969,25.811301,123.786332
47676,-4.244682,4.058887,7.951687,-0.015046,0.069255,0.072463,0.020290,0.003319,-0.002319,-0.042445,0.040581,0.079522,1.000000,0.000101,0.000017,-0.000012,0.492653,-0.083436,0.304517,0.810926,27.211869,25.808444,123.788881
47677,-4.229454,4.045268,7.962200,-0.008206,0.091636,0.068640,0.016501,0.002517,-0.002531,-0.042293,0.040447,0.079626,1.000000,0.000083,0.000013,-0.000013,0.492637,-0.083402,0.304556,0.810924,27.218499,25.806700,123.791564
47678,-4.224889,4.088116,7.957372,-0.046839,0.078160,0.080434,0.014125,0.002541,-0.005430,-0.042247,0.040877,0.079577,1.000000,0.000071,0.000013,-0.000027,0.492633,-0.083370,0.304572,0.810924,27.222026,25.804265,123.792186
47679,-4.227278,4.072865,7.938246,-0.035501,0.070677,0.059881,0.009507,0.005628,-0.009833,-0.042269,0.040727,0.079386,1.000000,0.000048,0.000028,-0.000049,0.492640,-0.083377,0.304587,0.810914,27.223243,25.806020,123.791642
47680,-4.262523,4.077083,7.937432,-0.021749,0.042535,0.076309,0.007197,0.007171,-0.012035,-0.042620,0.040771,0.079377,1.000000,0.000036,0.000036,-0.000060,0.492653,-0.083391,0.304583,0.810906,27.221756,25.807680,123.789799
47681,-4.249261,4.052065,7.989399,0.001111,0.090813,0.101832,0.006292,0.002200,-0.012782,-0.042489,0.040521,0.079896,1.000000,0.000031,0.000011,-0.000064,0.492675,-0.083396,0.304576,0.810895,27.219970,25.808461,123.786588
47682,-4.250324,4.046221,7.929500,-0.003566,0.057148,0.051938,0.006358,0.003720,-0.012085,-0.042499,0.040462,0.079297,1.000000,0.000032,0.000019,-0.000060,0.492694,-0.083398,0.304560,0.810889,27.217555,25.808374,123.783704
47683,-4.252207,4.042212,8.029539,0.017182,0.114908,0.131192,0.011653,0.003960,-0.011442,-0.042518,0.040420,0.080299,1.000000,0.000058,0.000020,-0.000057,0.492710,-0.083395,0.304579,0.810872,27.219394,25.809700,123.781763
47684,-4.256562,4.005539,7.932338,0.035146,0.067818,0.040170,0.022847,-0.001095,-0.010472,-0.042564,0.040049,0.079328,1.000000,0.000114,-0.000005,-0.000052,0.492736,-0.083334,0.304620,0.810848,27.226232,25.806750,123.778493
47685,-4.238006,4.023610,7.979761,0.019333,0.103642,0.077490,0.019962,0.003073,-0.009938,-0.042377,0.040230,0.079802,1.000000,0.000100,0.000015,-0.000050,0.492751,-0.083305,0.304671,0.810822,27.233089,25.807231,123.777145
47686,-4.283125,4.091596,8.022571,-0.007663,0.072501,0.159406,0.023072,0.000556,-0.005962,-0.042830,0.040908,0.080231,1.000000,0.000115,0.000003,-0.000030,0.492756,-0.083244,0.304718,0.810808,27.241360,25.803932,123.776875
47687,-4.251365,4.067312,7.943808,-0.014751,0.059539,0.072527,0.021533,0.004031,-0.008811,-0.042510,0.040666,0.079443,1.000000,0.000108,0.000020,-0.000044,0.492765,-0.083213,0.304779,0.810782,27.249517,25.804606,123.776444
47688,-4.268995,4.073361,7.972545,-0.005506,0.061238,0.105694,0.015531,0.003377,-0.008112,-0.042687,0.040729,0.079729,1.000000,0.000078,0.000017,-0.000041,0.492772,-0.083185,0.304801,0.810772,27.253282,25.803306,123.775678
47689,-4.269638,4.074495,7.971621,-0.005483,0.060488,0.105698,0.020890,0.005140,-0.006771,-0.042693,0.040738,0.079722,1.000000,0.000104,0.000026,-0.000034,0.492771,-0.083157,0.304863,0.810753,27.261713,25.804009,123.776725
47690,-4.249828,4.102486,7.977942,-0.037312,0.070104,0.113676,0.015530,0.003378,-0.008111,-0.042495,0.041020,0.079783,1.000000,0.000078,0.000017,-0.000041,0.492779,-0.083129,0.304886,0.810743,27.265488,25.802741,123.775929
47691,-4.250553,4.097430,7.917767,-0.041973,0.036772,0.063752,0.013987,-0.000487,-0.006816,-0.042504,0.040970,0.079180,1.000000,0.000070,-0.000002,-0.000034,0.492784,-0.083095,0.304905,0.810736,27.269240,25.800589,123.775310
47692,-4.254166,4.072392,7.939705,-0.014611,0.054914,0.072554,0.016234,0.003793,-0.009453,-0.042538,0.040719,0.079401,1.000000,0.000081,0.000019,-0.000047,0.492795,-0.083069,0.304931,0.810721,27.273188,25.799874,123.774041
47693,-4.251381,4.104961,7.975842,-0.037232,0.067552,0.113694,0.011807,0.004093,-0.007629,-0.042511,0.041047,0.079762,1.000000,0.000059,0.000020,-0.000038,0.492796,-0.083060,0.304953,0.810714,27.276071,25.800269,123.774297
47694,-4.253651,4.089649,7.956804,-0.025875,0.059817,0.093132,0.011035,0.002160,-0.006981,-0.042534,0.040894,0.079571,1.000000,0.000055,0.000011,-0.000035,0.492797,-0.083037,0.304955,0.810715,27.277448,25.798077,123.774034
47695,-3.884224,4.581103,8.145974,-0.594682,0.283240,0.286655,0.029567,-0.023301,0.019647,-0.038856,0.045795,0.081462,1.000000,0.000148,-0.000117,0.000098,0.492736,-0.082832,0.304993,0.810759,27.293742,25.777358,123.781725
47696,-4.337219,3.505087,7.986038,0.519751,0.203239,-0.088364,-0.053401,0.015103,0.008391,-0.043368,0.035070,0.079854,1.000000,-0.000267,0.000076,0.000042,0.492629,-0.082996,0.304772,0.810890,27.263650,25.777674,123.793776
47697,-3.898636,4.140459,8.010635,-0.235987,0.335832,0.002839,0.038039,-0.011014,-0.000617,-0.038991,0.041389,0.080112,1.000000,0.000190,-0.000055,-0.000003,0.492635,-0.082851,0.304866,0.810866,27.281373,25.768534,123.793593
47698,-4.476032,3.953327,7.871152,0.190723,-0.114776,0.065022,0.022453,0.004466,-0.022929,-0.044754,0.039530,0.078717,1.000000,0.000112,0.000022,-0.000115,0.492704,-0.082832,0.304913,0.810808,27.285614,25.771653,123.784668
47699,-4.358566,4.223878,7.852630,-0.100477,-0.125763,0.110827,0.019691,-0.003000,-0.012712,-0.043584,0.042234,0.078530,1.000000,0.000098,-0.000015,-0.000064,0.492740,-0.082783,0.304947,0.810779,27.290865,25.769771,123.779981
47700,-4.426387,4.092125,7.875846,0.049800,-0.120313,0.104489,0.005772,-0.000994,-0.005204,-0.044263,0.040920,0.078759,1.000000,0.000029,-0.000005,-0.000026,0.492737,-0.082757,0.304921,0.810793,27.289271,25.765492,123.779694
47701,-4.378603,4.057659,7.868696,0.054169,-0.077478,0.063759,0.009590,0.004243,-0.006718,-0.043783,0.040574,0.078690,1.000000,0.000048,0.000021,-0.000034,0.492732,-0.082753,0.304934,0.810791,27.291128,25.765724,123.780510
47702,-4.328971,4.045146,7.939362,0.051877,0.004280,0.093571,0.007312,0.002873,-0.006500,-0.043287,0.040450,0.079396,1.000000,0.000037,0.000014,-0.000033,0.492729,-0.082741,0.304924,0.810798,27.290601,25.763772,123.780630
47703,-4.310147,4.062934,7.987111,0.036020,0.040018,0.130946,0.014531,0.001436,0.005315,-0.043102,0.040622,0.079874,1.000000,0.000073,0.000007,0.000027,0.492683,-0.082695,0.304955,0.810819,27.297889,25.759413,123.787430
47704,-4.211778,4.010795,7.991426,0.033361,0.132839,0.070110,0.018857,-0.004811,0.004527,-0.042121,0.040099,0.079917,1.000000,0.000094,-0.000024,0.000023,0.492653,-0.082606,0.304977,0.810838,27.305674,25.750728,123.791332
47705,-4.155624,4.045567,7.956792,-0.028246,0.143952,0.032354,0.027903,0.006490,-0.001189,-0.041553,0.040445,0.079575,1.000000,0.000140,0.000032,-0.000006,0.492631,-0.082558,0.305073,0.810821,27.319665,25.750649,123.795929
47706,-4.250805,4.133183,7.987310,-0.048172,0.062378,0.134345,0.023541,0.008312,0.001329,-0.042505,0.041322,0.079880,1.000000,0.000118,0.000042,0.000007,0.492593,-0.082517,0.305145,0.810821,27.331077,25.749443,123.802298
47707,-4.268969,4.127820,7.896752,-0.048228,-0.000702,0.067563,0.021678,0.004177,-0.004994,-0.042687,0.041271,0.078973,1.000000,0.000108,0.000021,-0.000025,0.492587,-0.082480,0.305207,0.810804,27.340273,25.749187,123.804068
47708,-4.222804,4.084326,7.930192,-0.027911,0.067732,0.056273,0.014879,0.004491,-0.006072,-0.042225,0.040839,0.079306,1.000000,0.000074,0.000022,-0.000030,0.492583,-0.082455,0.305232,0.810800,27.344388,25.747994,123.804780
47709,-4.237339,4.115737,7.936486,-0.045976,0.050476,0.080618,0.006574,0.005366,-0.007581,-0.042370,0.041156,0.079367,1.000000,0.000033,0.000027,-0.000038,0.492580,-0.082464,0.305235,0.810800,27.344447,25.749024,123.805436
47710,-4.256814,4.104861,7.947274,-0.025391,0.045489,0.093210,0.002854,0.006077,-0.007102,-0.042564,0.041049,0.079475,1.000000,0.000014,0.000030,-0.000036,0.492572,-0.082477,0.305215,0.810811,27.341654,25.748871,123.806188
47711,-4.271551,4.135408,7.953903,-0.043452,0.028223,0.117551,-0.001026,0.006652,-0.010434,-0.042711,0.041357,0.079540,1.000000,-0.000005,0.000033,-0.000052,0.492575,-0.082515,0.305189,0.810815,27.336821,25.751306,123.805608
47712,-4.238006,4.130759,7.954104,-0.057205,0.054302,0.101213,-0.006991,0.003083,-0.007314,-0.042377,0.041312,0.079540,1.000000,-0.000035,0.000015,-0.000037,0.492569,-0.082541,0.305121,0.810842,27.327967,25.749752,123.805434
47713,-4.272911,4.133927,7.953941,-0.043388,0.026438,0.117556,-0.004714,0.004456,-0.007531,-0.042726,0.041343,0.079539,1.000000,-0.000024,0.000022,-0.000038,0.492561,-0.082574,0.305077,0.810859,27.321455,25.750305,123.805852
47714,-4.240971,4.113042,7.935944,-0.045815,0.045877,0.080641,-0.012218,0.004355,-0.007267,-0.042406,0.041137,0.079358,1.000000,-0.000061,0.000022,-0.000036,0.492553,-0.082617,0.304991,0.810893,27.309749,25.749362,123.805771
47715,-4.277258,4.106037,7.977034,-0.016032,0.043862,0.126395,-0.008338,0.003780,-0.003935,-0.042770,0.041065,0.079769,1.000000,-0.000042,0.000019,-0.000020,0.492530,-0.082651,0.304932,0.810925,27.301958,25.748626,123.808024
47716,-4.261970,4.090345,7.988749,-0.009255,0.065987,0.122653,-0.007664,-0.000236,-0.003547,-0.042619,0.040907,0.079886,1.000000,-0.000038,-0.000001,-0.000018,0.492516,-0.082658,0.304854,0.810962,27.293163,25.744366,123.808590
47717,-4.248294,4.058708,7.982099,0.008846,0.081770,0.098329,-0.009749,0.002955,-0.001249,-0.042482,0.040591,0.079820,1.000000,-0.000049,0.000015,-0.000006,0.492484,-0.082688,0.304788,0.811003,27.285118,25.742505,123.812121
47718,-4.247260,4.067696,7.941267,-0.007074,0.054909,0.068913,-0.009204,0.003234,-0.006402,-0.042470,0.040682,0.079411,1.000000,-0.000046,0.000016,-0.000032,0.492472,-0.082719,0.304712,0.811036,27.275258,25.740805,123.812570
47719,-4.232166,4.051642,7.953058,-0.000310,0.077326,0.065176,-0.012989,0.002423,-0.006617,-0.042319,0.040523,0.079528,1.000000,-0.000065,0.000012,-0.000033,0.492461,-0.082763,0.304629,0.811069,27.263971,25.740083,123.812911
47720,-4.227891,4.091899,7.949298,-0.038888,0.063710,0.076926,-0.016870,0.003000,-0.009949,-0.042276,0.040928,0.079490,1.000000,-0.000084,0.000015,-0.000050,0.492460,-0.082817,0.304520,0.811105,27.248861,25.739178,123.811385
47721,-4.230243,4.074029,7.931524,-0.027530,0.056342,0.056345,-0.019308,0.001496,-0.013542,-0.042299,0.040751,0.079312,1.000000,-0.000097,0.000007,-0.000068,0.492476,-0.082884,0.304407,0.811132,27.232136,25.739801,123.807541
47722,-4.249640,4.066989,8.002791,-0.002324,0.083825,0.118952,-0.021140,0.010769,-0.008465,-0.042490,0.040680,0.080026,1.000000,-0.000106,0.000054,-0.000042,0.492454,-0.082977,0.304300,0.811175,27.215925,25.742410,123.809203
47723,-4.332740,4.104630,8.009469,0.007260,0.012291,0.175907,-0.004138,0.003469,0.007021,-0.043327,0.041046,0.080095,1.000000,-0.000021,0.000017,0.000035,0.492390,-0.082983,0.304262,0.811228,27.213192,25.738648,123.817565
47724,-4.243591,4.118000,7.957741,-0.056818,0.043598,0.101268,-0.000128,-0.001405,0.015891,-0.042440,0.041177,0.079577,1.000000,-0.000001,-0.000007,0.000079,0.492299,-0.082938,0.304220,0.811303,27.213453,25.728705,123.829248
47725,-4.082432,4.301549,7.979226,-0.289202,0.114023,0.124162,-0.020400,-0.003126,0.035475,-0.040833,0.043016,0.079787,1.000000,-0.000102,-0.000016,0.000177,0.492122,-0.082914,0.304111,0.811454,27.207552,25.714129,123.851784
47726,-4.305548,4.012407,7.959527,0.066187,0.029411,0.086100,-0.000614,0.008810,0.034873,-0.043059,0.040117,0.079597,1.000000,-0.000003,0.000044,0.000174,0.491940,-0.082882,0.304101,0.811572,27.213476,25.704428,123.876977
47727,-4.219822,3.993766,7.870991,0.024754,0.047806,-0.029709,-0.022360,0.008816,0.017736,-0.042198,0.039943,0.078707,1.000000,-0.000112,0.000044,0.000089,0.491816,-0.082938,0.304006,0.811676,27.203599,25.700584,123.892950
47728,-4.341577,3.993314,7.882047,0.086823,-0.038485,0.031778,-0.023834,0.004835,0.002444,-0.043414,0.039942,0.078817,1.000000,-0.000119,0.000024,0.000012,0.491762,-0.082997,0.303879,0.811751,27.187740,25.697365,123.898565
47729,-4.263284,4.072811,7.934598,-0.013428,0.022154,0.072683,-0.025276,-0.002054,-0.010427,-0.042632,0.040740,0.079340,1.000000,-0.000126,-0.000010,-0.000052,0.491768,-0.083059,0.303733,0.811795,27.167916,25.695359,123.895453
47730,-4.255248,4.143508,7.968678,-0.074676,0.021683,0.125601,-0.035929,-0.004063,-0.012415,-0.042552,0.041452,0.079678,1.000000,-0.000180,-0.000020,-0.000062,0.491783,-0.083134,0.303529,0.811855,27.140360,25.691530,123.889994
47731,-4.218359,4.161714,7.947960,-0.115750,0.028807,0.100448,-0.044723,0.005400,-0.012218,-0.042179,0.041637,0.079471,1.000000,-0.000224,0.000027,-0.000061,0.491777,-0.083276,0.303322,0.811921,27.109892,25.693791,123.888031
47732,-4.259858,4.109549,7.994679,-0.047333,0.039141,0.134468,-0.050728,0.004746,-0.011520,-0.042594,0.041118,0.079937,1.000000,-0.000254,0.000024,-0.000058,0.491767,-0.083423,0.303080,0.812003,27.075236,25.694201,123.885899
47733,-4.245378,4.084019,7.948566,-0.045178,0.029157,0.080707,-0.056672,0.005614,-0.010124,-0.042449,0.040865,0.079475,1.000000,-0.000283,0.000028,-0.000051,0.491747,-0.083592,0.302826,0.812092,27.038461,25.696023,123.885181
47734,-4.240980,4.126871,8.006073,-0.079150,0.047890,0.142493,-0.052281,0.000891,-0.010222,-0.042407,0.041292,0.080050,1.000000,-0.000261,0.000004,-0.000051,0.491737,-0.083724,0.302568,0.812181,27.002783,25.694128,123.882716
47735,-4.128975,4.193733,8.000914,-0.197857,0.103161,0.117099,-0.062529,0.005097,-0.005608,-0.041287,0.041963,0.079997,1.000000,-0.000313,0.000025,-0.000028,0.491696,-0.083900,0.302291,0.812290,26.963696,25.694510,123.884405
47736,-4.108319,4.371695,8.005721,-0.363560,0.058043,0.184613,-0.070634,0.009239,0.014685,-0.041083,0.043742,0.080044,1.000000,-0.000353,0.000046,0.000073,0.491565,-0.084073,0.301990,0.812464,26.924676,25.690370,123.898411
47737,-4.135866,4.126547,7.991235,-0.147842,0.107464,0.084798,-0.061018,0.012187,0.027685,-0.041360,0.041284,0.079902,1.000000,-0.000305,0.000061,0.000138,0.491379,-0.084223,0.301751,0.812650,26.895520,25.685744,123.921014
47738,-4.142857,4.064430,7.978789,-0.097850,0.112550,0.052488,-0.078821,0.026576,0.026030,-0.041423,0.040670,0.079777,1.000000,-0.000394,0.000133,0.000130,0.491173,-0.084469,0.301463,0.812855,26.856763,25.687572,123.946239
47739,-4.239425,3.982512,7.958514,0.011709,0.053168,0.044701,-0.077256,0.018606,0.014007,-0.042390,0.039853,0.079574,1.000000,-0.000386,0.000093,0.000070,0.491027,-0.084705,0.301168,0.813029,26.815742,25.689792,123.962932
47740,-4.201335,4.020104,8.016633,-0.036112,0.098987,0.090229,-0.080414,0.024070,0.007633,-0.042005,0.040232,0.080155,1.000000,-0.000402,0.000120,0.000038,0.490895,-0.084974,0.300860,0.813194,26.771302,25.695119,123.977501
47741,-4.146496,4.047272,7.985617,-0.097753,0.110046,0.052517,-0.077380,0.020033,0.010911,-0.041459,0.040501,0.079845,1.000000,-0.000387,0.000100,0.000055,0.490758,-0.085221,0.300566,0.813359,26.729626,25.698890,123.992842
47742,-4.103665,4.126541,8.039986,-0.184184,0.143141,0.109781,-0.082379,0.027407,0.013779,-0.041028,0.041296,0.080388,1.000000,-0.000412,0.000137,0.000069,0.490600,-0.085497,0.300261,0.813539,26.685927,25.704322,124.011211
47743,-3.992495,4.197659,8.094986,-0.298371,0.230719,0.134518,-0.084977,0.031828,0.021960,-0.039917,0.042007,0.080938,1.000000,-0.000425,0.000159,0.000110,0.490397,-0.085794,0.299970,0.813737,26.644082,25.711312,124.036192
47744,-3.906482,4.200511,8.146243,-0.342038,0.320220,0.139531,-0.082029,0.035189,0.037713,-0.039058,0.042031,0.081452,1.000000,-0.000410,0.000176,0.000189,0.490132,-0.086064,0.299696,0.813969,26.607441,25.714602,124.070063
47745,-3.843637,4.146298,8.152436,-0.331164,0.386390,0.095318,-0.072089,0.035394,0.060764,-0.038435,0.041481,0.081516,1.000000,-0.000360,0.000177,0.000304,0.489771,-0.086286,0.299482,0.814241,26.582994,25.713492,124.118117
47746,-3.775109,4.135382,8.154468,-0.358835,0.439588,0.062847,-0.063111,0.036468,0.078238,-0.037752,0.041365,0.081539,1.000000,-0.000316,0.000182,0.000391,0.489342,-0.086455,0.299305,0.814547,26.567451,25.706957,124.176118
47747,-3.699665,4.183214,8.170918,-0.436510,0.486900,0.062690,-0.055421,0.047105,0.095704,-0.036997,0.041837,0.081706,1.000000,-0.000277,0.000236,0.000479,0.488828,-0.086631,0.299203,0.814874,26.562609,25.702919,124.247372
47748,-3.668401,4.298671,8.231150,-0.540976,0.503229,0.144304,-0.041999,0.044942,0.113770,-0.036690,0.042983,0.082311,1.000000,-0.000210,0.000225,0.000569,0.488248,-0.086730,0.299148,0.815231,26.568995,25.691529,124.328231
47749,-3.641381,4.368875,8.234896,-0.611476,0.500195,0.164093,-0.029505,0.054090,0.140173,-0.036422,0.043675,0.082352,1.000000,-0.000148,0.000270,0.000701,0.487554,-0.086804,0.299187,0.815625,26.590796,25.679654,124.426744
47750,-3.539477,4.479862,8.294611,-0.743680,0.570708,0.213222,-0.014620,0.054434,0.176708,-0.035412,0.044773,0.082952,1.000000,-0.000073,0.000272,0.000884,0.486718,-0.086778,0.299293,0.816087,26.629462,25.656844,124.545464
47751,-3.331376,4.585108,8.254533,-0.938042,0.664730,0.134011,-0.008056,0.060190,0.210063,-0.033337,0.045819,0.082554,0.999999,-0.000040,0.000301,0.001050,0.485738,-0.086721,0.299465,0.816614,26.681397,25.630010,124.685361
47752,-3.319537,4.660937,8.386196,-0.978797,0.722048,0.266625,0.017122,0.078588,0.250164,-0.033221,0.046561,0.083879,0.999999,0.000086,0.000393,0.001251,0.484576,-0.086605,0.299790,0.817197,26.759179,25.600252,124.852913
47753,-3.151889,4.712431,8.429101,-1.088940,0.853229,0.250977,0.034912,0.081119,0.309526,-0.031558,0.047061,0.084312,0.999999,0.000175,0.000406,0.001548,0.483175,-0.086380,0.300230,0.817889,26.862458,25.558074,125.055039
47754,-2.877781,4.898776,8.509617,-1.358492,1.036347,0.275606,0.065719,0.086933,0.354170,-0.028827,0.048909,0.085125,0.999998,0.000329,0.000435,0.001771,0.481599,-0.086021,0.300818,0.818640,26.994212,25.504853,125.282957
47755,-2.555203,5.035728,8.563405,-1.612729,1.257022,0.239103,0.090246,0.099707,0.412105,-0.025613,0.050266,0.085670,0.999998,0.000451,0.000499,0.002061,0.479770,-0.085584,0.301570,0.819482,27.155936,25.444567,125.548027
47756,-2.307916,5.246603,8.658818,-1.879742,1.419407,0.300682,0.129551,0.125943,0.477393,-0.023150,0.052355,0.086637,0.999997,0.000648,0.000630,0.002387,0.477650,-0.085043,0.302563,0.820411,27.358412,25.377343,125.856686
47757,-2.098993,5.409465,8.735579,-2.083157,1.561217,0.346120,0.194908,0.146326,0.574652,-0.021081,0.053949,0.087424,0.999995,0.000975,0.000732,0.002873,0.475122,-0.084299,0.303921,0.821453,27.624143,25.296023,126.226014
47758,-1.908313,5.544320,8.840230,-2.238509,1.717940,0.413179,0.309721,0.174792,0.700786,-0.019200,0.055239,0.088505,0.999992,0.001549,0.000874,0.003504,0.472083,-0.083184,0.305858,0.822599,27.988138,25.190773,126.672241
47759,-1.804976,5.655958,9.010466,-2.302703,1.861889,0.563575,0.439627,0.189194,0.860170,-0.018207,0.056283,0.090246,0.999988,0.002198,0.000946,0.004301,0.468403,-0.081599,0.308433,0.823899,28.465067,25.049445,127.211751
47760,-1.589468,5.844904,8.976696,-2.505640,1.941155,0.542188,0.565207,0.201918,1.028983,-0.016103,0.058113,0.089948,0.999982,0.002826,0.001010,0.005145,0.464055,-0.079481,0.311604,0.825372,29.052344,24.860216,127.844597
47761,-1.403066,6.211594,8.955727,-2.819579,1.941283,0.629440,0.685395,0.245175,1.207723,-0.014294,0.061723,0.089787,0.999975,0.003427,0.001226,0.006039,0.458921,-0.077010,0.315440,0.827018,29.752103,24.639075,128.587551
47762,-1.340008,6.616901,9.080005,-3.052506,1.922693,0.911569,0.762256,0.281363,1.410477,-0.013737,0.065726,0.091070,0.999967,0.003811,0.001407,0.007052,0.452903,-0.074154,0.319724,0.828949,30.541256,24.364981,129.445645
47763,-1.238070,7.176267,9.063635,-3.428663,1.784925,1.152598,0.893048,0.304160,1.665456,-0.012837,0.071251,0.090975,0.999954,0.004465,0.001521,0.008327,0.445796,-0.070716,0.324683,0.831172,31.458003,24.019007,130.443796
47764,-1.452161,7.694632,9.103228,-3.538252,1.468941,1.567332,1.007841,0.301155,1.964424,-0.015136,0.076340,0.091440,0.999938,0.005039,0.001506,0.009822,0.437444,-0.066481,0.330170,0.833793,32.493749,23.560991,131.588957
47765,-1.168611,8.320514,8.997882,-4.017130,1.350613,1.745550,1.055263,0.272021,2.261726,-0.012500,0.082590,0.090432,0.999921,0.005276,0.001360,0.011308,0.427854,-0.061557,0.335856,0.836871,33.599274,22.980966,132.866791
47766,-0.707831,8.703608,8.635942,-4.444503,1.263507,1.566166,1.058194,0.305109,2.556689,-0.008054,0.086479,0.086830,0.999903,0.005291,0.001525,0.012783,0.416895,-0.056219,0.341644,0.840427,34.749181,22.293762,134.288434
47767,-0.718600,9.028762,8.417639,-4.480594,0.955288,1.671955,1.155607,0.476844,2.910335,-0.008292,0.089684,0.084715,0.999875,0.005778,0.002384,0.014551,0.404095,-0.050823,0.348235,0.844308,36.019130,21.546797,135.927075
47768,-2.124853,9.101980,8.599387,-3.266217,0.112469,2.460050,1.306388,0.565471,3.325187,-0.022507,0.090088,0.086647,0.999836,0.006532,0.002827,0.016625,0.389306,-0.044714,0.355634,0.848508,37.429011,20.657445,137.773398
47769,-2.726311,10.716673,8.779661,-3.560918,-0.875059,3.821874,1.300727,0.555908,3.592729,-0.028930,0.106083,0.088568,0.999814,0.006503,0.002779,0.017963,0.373266,-0.038130,0.362936,0.852934,38.837394,19.632587,139.709968
47770,-3.039714,11.632579,8.952444,-3.472378,-1.406665,4.701043,1.036687,0.620701,3.897085,-0.032371,0.115241,0.090222,0.999792,0.005183,0.003103,0.019484,0.355605,-0.031698,0.369137,0.858067,40.102050,18.477421,141.774246
47771,-3.518051,10.519598,8.678543,-2.004016,-1.390076,4.057729,0.867955,0.526954,4.280583,-0.037186,0.104036,0.087335,0.999758,0.004339,0.002635,0.021401,0.336292,-0.024492,0.374351,0.863811,41.256191,17.103272,143.936478
47772,-2.466285,9.564987,7.696843,-2.002378,-1.044489,2.503834,0.730257,0.470391,4.490031,-0.026616,0.094785,0.077377,0.999739,0.003651,0.002352,0.022448,0.315984,-0.016817,0.378703,0.869744,42.286919,15.579833,146.124192
47773,-1.211259,8.486893,6.724332,-2.224471,-0.548843,0.838668,0.627702,0.701149,4.467153,-0.013764,0.084362,0.067555,0.999739,0.003138,0.003505,0.022334,0.295175,-0.010394,0.382782,0.875353,43.214142,14.132871,148.352755
47774,-1.040512,8.272663,6.590767,-1.964840,-0.504541,0.619716,0.644663,1.100201,4.287716,-0.011808,0.082270,0.066236,0.999750,0.003223,0.005501,0.021437,0.274226,-0.005977,0.387308,0.880203,44.111727,12.881852,150.629013
47775,-2.660766,8.568492,7.483632,-0.249070,-0.832129,1.838096,0.712549,1.473171,4.189305,-0.027837,0.084843,0.075342,0.999747,0.003562,0.007365,0.020945,0.252862,-0.003350,0.392456,0.884324,45.020141,11.794257,152.987642
47776,-3.176843,9.252991,7.722200,0.264305,-1.222818,2.587617,0.747057,1.470201,4.083882,-0.033074,0.091573,0.077805,0.999758,0.003735,0.007350,0.020418,0.231833,-0.000817,0.397544,0.887813,45.890418,10.706510,155.273937
47777,-3.536765,11.266354,7.868324,0.150875,-2.355463,4.178924,0.652907,1.546593,4.044500,-0.037021,0.111668,0.079331,0.999760,0.003264,0.007732,0.020221,0.210726,0.001136,0.402121,0.891006,46.663260,9.639654,157.553491
47778,-4.676060,12.458035,8.685761,1.293438,-2.847022,5.766706,0.090993,1.377011,3.895684,-0.048575,0.123606,0.087244,0.999786,0.000455,0.006885,0.019477,0.190519,0.003003,0.403823,0.894774,47.047645,8.539841,159.682795
47779,-4.536907,11.444238,9.021108,1.924735,-1.961477,5.199775,-0.715043,1.159342,3.560102,-0.046878,0.113939,0.090072,0.999818,-0.003575,0.005796,0.017799,0.172200,0.004347,0.401567,0.899484,46.898648,7.497338,161.580361
47780,-4.887484,8.810488,9.640263,3.396658,-0.073311,3.711395,-1.280910,0.884228,3.100252,-0.049814,0.087953,0.096058,0.999850,-0.006404,0.004421,0.015500,0.156445,0.005563,0.396396,0.904635,46.356028,6.543872,163.181110
47781,-5.587671,6.591867,10.599884,4.952579,1.729649,2.817068,-1.504222,0.399950,2.590668,-0.056520,0.065985,0.105615,0.999886,-0.007521,0.002000,0.012953,0.143931,0.007736,0.389753,0.909569,45.617884,5.631082,164.385733
47782,-5.371803,5.323078,11.236996,5.261197,2.948866,2.315087,-1.463758,-0.264845,2.059879,-0.054416,0.053493,0.111907,0.999919,-0.007319,-0.001324,0.010299,0.135088,0.011966,0.382747,0.913845,44.839596,4.677009,165.112984
47783,-4.973862,4.738401,11.706248,5.203748,3.612881,2.191135,-1.316425,-0.949773,1.541751,-0.050660,0.047764,0.116510,0.999937,-0.006582,-0.004749,0.007709,0.129903,0.018391,0.375940,0.917309,44.099630,3.665429,165.364628
47784,-5.035270,4.880824,12.052344,5.453275,3.540595,2.522382,-1.136115,-1.650542,1.063271,-0.051604,0.049218,0.119822,0.999936,-0.005680,-0.008253,0.005316,0.128190,0.027279,0.369482,0.919949,43.431310,2.552601,165.151244
47785,-4.849894,5.152252,11.786569,5.407742,2.979939,2.469625,-1.080297,-2.397327,0.601530,-0.050061,0.052007,0.116992,0.999909,-0.005401,-0.011986,0.003008,0.129959,0.038747,0.362825,0.921937,42.785217,1.309890,164.465740
47786,-3.690640,4.591086,10.764061,4.502472,2.742662,1.266904,-1.031214,-3.002842,0.159665,-0.038551,0.046433,0.106831,0.999874,-0.005156,-0.015014,0.000798,0.134820,0.052253,0.355984,0.923238,42.175601,-0.028491,163.372694
47787,-2.662411,4.133968,9.560059,3.643171,2.333341,0.028324,-0.862953,-3.393427,-0.269983,-0.028183,0.041788,0.094952,0.999846,-0.004315,-0.016966,-0.001350,0.142283,0.066871,0.349692,0.923580,41.694436,-1.375886,161.960214
47788,-2.272232,4.523370,8.831642,3.270668,1.490834,-0.289385,-0.657657,-3.649768,-0.633466,-0.024183,0.045598,0.087734,0.999823,-0.003288,-0.018248,-0.003167,0.151752,0.082181,0.344143,0.922921,41.369666,-2.707942,160.302758
47789,-1.987283,5.163782,8.041522,2.877323,0.441050,-0.496049,-0.454930,-3.818127,-0.882645,-0.021173,0.051911,0.079901,0.999805,-0.002275,-0.019089,-0.004413,0.162524,0.097942,0.339405,0.921302,41.212102,-4.022372,158.478153
47790,-1.781859,6.155514,7.305031,2.430345,-0.809903,-0.439248,-0.268266,-3.910836,-0.983967,-0.018938,0.061744,0.072605,0.999796,-0.001341,-0.019553,-0.004920,0.173760,0.114088,0.335336,0.918880,41.206777,-5.343709,156.573523
47791,-1.121991,7.140776,6.444116,1.464830,-1.893919,-0.429705,-0.180247,-3.959582,-0.981441,-0.012141,0.071524,0.064142,0.999792,-0.000901,-0.019797,-0.004907,0.184948,0.130474,0.331519,0.915896,41.301423,-6.682931,154.646307
47792,0.142456,7.774216,5.348938,-0.100089,-2.519801,-0.718239,-0.243850,-3.855192,-0.963440,0.000769,0.077803,0.053414,0.999802,-0.001219,-0.019275,-0.004817,0.195841,0.146315,0.327333,0.912738,41.395713,-7.983253,152.759472
47793,0.949272,7.338809,4.274639,-1.030130,-2.483827,-1.700929,-0.379503,-3.556706,-0.939229,0.009077,0.073426,0.042771,0.999829,-0.001897,-0.017783,-0.004696,0.206168,0.160633,0.322709,0.909698,41.438002,-9.159887,150.990129
47794,1.433222,7.112945,3.536030,-1.643335,-2.507871,-2.318591,-0.471779,-3.126088,-0.942353,0.014114,0.071146,0.035414,0.999864,-0.002359,-0.015630,-0.004712,0.215819,0.172856,0.317989,0.906877,41.431618,-10.152158,149.379450
47795,1.348661,7.013842,3.226415,-1.657409,-2.654804,-2.627453,-0.610242,-2.613193,-0.936868,0.013394,0.070174,0.032225,0.999899,-0.003051,-0.013066,-0.004684,0.224704,0.182559,0.313138,0.904503,41.336665,-10.925026,147.965068
47796,1.117772,6.502004,3.247850,-1.303588,-2.428325,-2.995223,-0.726397,-2.098530,-0.888847,0.011127,0.065088,0.032359,0.999928,-0.003632,-0.010492,-0.004444,0.232627,0.189864,0.308223,0.902682,41.147497,-11.500182,146.768767
47797,1.169966,6.123939,3.377595,-1.179374,-2.102357,-3.144204,-0.777816,-1.606752,-0.792634,0.011672,0.061324,0.033631,0.999952,-0.003889,-0.008034,-0.003963,0.239385,0.194999,0.303539,0.901407,40.893506,-11.901003,145.803940
47798,1.196567,5.585926,3.553889,-0.960776,-1.660410,-3.364098,-0.774919,-1.129652,-0.644164,0.011946,0.055958,0.035390,0.999971,-0.003875,-0.005648,-0.003221,0.244723,0.198214,0.299256,0.900704,40.593612,-12.157226,145.088191
47799,1.292672,5.356838,3.948314,-0.784938,-1.301999,-3.206293,-0.731104,-0.697024,-0.489359,0.012921,0.053681,0.039332,0.999984,-0.003655,-0.003485,-0.002447,0.248668,0.199741,0.295547,0.900511,40.272585,-12.283654,144.606979
47800,0.566355,5.445745,4.570611,0.052739,-1.538089,-2.848587,-0.687483,-0.286073,-0.353062,0.005695,0.054604,0.045527,0.999992,-0.003437,-0.001430,-0.001765,0.251337,0.199686,0.292391,0.900812,39.930206,-12.285399,144.342605
47801,-1.231013,5.559051,5.663707,1.962453,-2.211386,-2.345804,-0.614636,-0.063911,-0.145124,-0.012288,0.055773,0.056462,0.999995,-0.003073,-0.000320,-0.000726,0.252674,0.199005,0.289642,0.901477,39.592583,-12.264630,144.255444
47802,-1.536731,5.308314,5.993596,2.431128,-2.111365,-2.323061,-0.558919,-0.130078,0.055837,-0.015421,0.053246,0.059777,0.999996,-0.002795,-0.000650,0.000279,0.253139,0.198998,0.286849,0.902241,39.272289,-12.348813,144.234373
47803,-0.816776,4.617897,5.750154,1.960148,-1.355817,-2.785896,-0.531647,-0.147993,0.173017,-0.008250,0.046324,0.057372,0.999996,-0.002658,-0.000740,0.000865,0.253075,0.199257,0.284046,0.903088,38.958040,-12.481382,144.260624
47804,-0.118983,3.971205,5.534402,1.512502,-0.625110,-3.199389,-0.459879,-0.121701,0.167848,-0.001257,0.039838,0.055252,0.999997,-0.002299,-0.000609,0.000839,0.252921,0.199490,0.281596,0.903846,38.682617,-12.601772,144.294812
47805,0.167195,3.912362,5.634469,1.347574,-0.409138,-3.097156,-0.386564,-0.035589,0.101043,0.001642,0.039233,0.056269,0.999998,-0.001933,-0.000178,0.000505,0.252877,0.199321,0.279659,0.904497,38.449338,-12.658024,144.330489
47806,-0.488865,4.185982,6.262353,2.077663,-0.746356,-2.594327,-0.284320,0.015742,0.056141,-0.004895,0.041947,0.062564,0.999999,-0.001422,0.000079,0.000281,0.252858,0.198994,0.278286,0.904998,38.274438,-12.676406,144.364386
47807,-2.598923,5.297593,7.792740,4.126448,-2.146519,-1.215564,-0.192897,-0.087182,0.120971,-0.026055,0.053035,0.077865,0.999999,-0.000964,-0.000436,0.000605,0.252601,0.199329,0.277139,0.905348,38.154089,-12.762733,144.390879
47808,-2.806789,6.272825,8.730620,4.436739,-2.636330,0.026757,-0.334573,-0.625880,0.229186,-0.028413,0.062842,0.087113,0.999993,-0.001673,-0.003129,0.001146,0.252737,0.202077,0.274553,0.905489,37.984269,-13.130911,144.272530
47809,0.105728,4.237846,7.031317,2.014955,-0.259075,-1.857682,-0.517435,-0.962409,0.237159,0.000669,0.042561,0.070207,0.999984,-0.002587,-0.004812,0.001186,0.253480,0.206119,0.270706,0.905528,37.738291,-13.653844,144.037289
47810,2.221863,2.136828,5.634499,0.405899,1.870294,-3.681844,-0.416825,-0.914050,0.076122,0.021953,0.021494,0.056401,0.999987,-0.002084,-0.004570,0.000381,0.254775,0.209844,0.267529,0.905253,37.564612,-14.099417,143.745975
47811,2.270451,2.292325,5.504253,0.279896,1.702062,-3.670128,-0.224171,-0.668736,-0.142365,0.022537,0.022969,0.055092,0.999994,-0.001121,-0.003344,-0.000712,0.256525,0.212410,0.265766,0.904680,37.507181,-14.357730,143.440825
47812,1.317407,3.260819,6.129592,1.031331,0.662391,-2.852950,-0.078577,-0.554815,-0.316667,0.013056,0.032612,0.061319,0.999995,-0.000393,-0.002774,-0.001583,0.258752,0.214412,0.264982,0.903803,37.543352,-14.503747,143.095053
47813,1.235752,4.370338,6.437854,0.881484,-0.087110,-1.984005,-0.056920,-0.541688,-0.425063,0.012276,0.043696,0.064399,0.999994,-0.000285,-0.002708,-0.002125,0.261427,0.216238,0.264434,0.902758,37.605394,-14.605398,142.702507
47814,1.489936,4.600254,6.307392,0.548019,-0.157734,-1.885505,-0.068535,-0.505409,-0.460775,0.014846,0.045990,0.063096,0.999994,-0.000343,-0.002527,-0.002304,0.264224,0.217833,0.263907,0.901714,37.661145,-14.677861,142.306468
47815,1.798984,4.772207,6.045228,0.120237,-0.193914,-1.906803,-0.033282,-0.440050,-0.453338,0.017965,0.047691,0.060484,0.999995,-0.000166,-0.002200,-0.002267,0.266861,0.219189,0.263624,0.900691,37.731841,-14.722717,141.937000
47816,2.012694,5.112456,5.846122,-0.266910,-0.376806,-1.803190,-0.020374,-0.327445,-0.430783,0.020141,0.051087,0.058489,0.999996,-0.000102,-0.001637,-0.002154,0.269230,0.220081,0.263514,0.899800,37.795838,-14.724171,141.619266
47817,2.230900,5.515924,5.714078,-0.653286,-0.571727,-1.609069,-0.045892,-0.178503,-0.408309,0.022371,0.055127,0.057148,0.999997,-0.000229,-0.000893,-0.002042,0.271329,0.220299,0.263471,0.899128,37.829857,-14.665730,141.365766
47818,2.346882,5.795917,5.843602,-0.787410,-0.643916,-1.314834,-0.098014,0.004111,-0.366473,0.023576,0.057945,0.058407,0.999998,-0.000490,0.000021,-0.001832,0.273055,0.219678,0.263387,0.898782,37.810874,-14.539431,141.198611
47819,2.166809,5.972105,6.204075,-0.545331,-0.740056,-0.980558,-0.121442,0.144096,-0.284293,0.021798,0.059728,0.061989,0.999999,-0.000607,0.000720,-0.001421,0.274254,0.218505,0.263306,0.898727,37.756853,-14.378568,141.120296
47820,2.251649,6.189008,6.429204,-0.597787,-0.754583,-0.659459,-0.135822,0.239607,-0.182632,0.022650,0.061913,0.064223,0.999999,-0.000679,0.001198,-0.000913,0.274883,0.217015,0.263172,0.898935,37.673254,-14.210282,141.124228
47821,2.619120,6.204120,6.593604,-0.824023,-0.477894,-0.436173,-0.146285,0.333796,-0.088938,0.026329,0.062078,0.065847,0.999998,-0.000731,0.001669,-0.000445,0.274980,0.215212,0.263025,0.899382,37.565645,-14.031870,141.205389
47822,2.717722,5.972453,6.895920,-0.684948,-0.141861,-0.319505,-0.139365,0.436785,-0.022837,0.027334,0.059769,0.068858,0.999997,-0.000697,0.002184,-0.000114,0.274633,0.213040,0.262973,0.900020,37.445286,-13.829716,141.354311
47823,2.526919,5.991560,7.257397,-0.396495,-0.137065,-0.077299,-0.132893,0.502951,0.015182,0.025447,0.059966,0.072470,0.999997,-0.000664,0.002515,0.000076,0.274022,0.210628,0.263005,0.900764,37.320176,-13.610189,141.543938
47824,2.240482,6.076429,7.726927,-0.008968,-0.196434,0.267457,-0.157192,0.528125,0.024005,0.022601,0.060828,0.077162,0.999996,-0.000786,0.002641,0.000120,0.273360,0.208080,0.262945,0.901575,37.178334,-13.382029,141.746158
47825,1.852219,5.955403,8.141644,0.502093,-0.190201,0.429160,-0.211098,0.494691,0.002649,0.018723,0.059640,0.081307,0.999996,-0.001055,0.002473,0.000013,0.272893,0.205580,0.262622,0.902384,37.012225,-13.161023,141.925477
47826,1.869868,5.771315,8.386849,0.637336,0.040119,0.518610,-0.267542,0.403515,-0.038895,0.018879,0.057822,0.083753,0.999997,-0.001338,0.002018,-0.000194,0.272789,0.203357,0.261955,0.903112,36.825672,-12.967109,142.052381
47827,2.138946,5.297959,8.330300,0.538320,0.515761,0.261110,-0.267458,0.340667,-0.103634,0.021559,0.053080,0.083195,0.999998,-0.001337,0.001703,-0.000518,0.273059,0.201333,0.261273,0.903681,36.652081,-12.779317,142.125790
47828,2.242011,5.150456,8.382088,0.500162,0.701895,0.240683,-0.205033,0.295108,-0.179512,0.022590,0.051570,0.083735,0.999998,-0.001025,0.001476,-0.000898,0.273666,0.199499,0.260881,0.904018,36.525257,-12.586491,142.147129
47829,2.220712,5.351329,8.416691,0.418076,0.565773,0.381133,-0.127579,0.255881,-0.244826,0.022380,0.053540,0.084104,0.999998,-0.000638,0.001279,-0.001224,0.274542,0.197864,0.260854,0.904119,36.453301,-12.389338,142.123385
47830,1.803732,5.583855,8.527618,0.672522,0.204613,0.514893,-0.034086,0.210431,-0.263298,0.018201,0.055829,0.085248,0.999999,-0.000170,0.001052,-0.001316,0.275467,0.196536,0.261199,0.904028,36.439249,-12.206973,142.075215
47831,1.737666,6.285943,8.808954,0.566378,-0.212393,1.131000,0.080256,0.117019,-0.219477,0.017497,0.062805,0.088105,0.999999,0.000401,0.000585,-0.001097,0.276204,0.195846,0.261895,0.903752,36.493908,-12.082445,142.015000
47832,1.399241,6.935861,9.137369,0.729462,-0.739298,1.697172,0.127587,-0.016662,-0.104695,0.014021,0.069293,0.091419,1.000000,0.000638,-0.000083,-0.000523,0.276549,0.195973,0.262501,0.903443,36.573126,-12.058572,141.962644
47833,2.241854,7.112724,8.758071,-0.165227,-0.489026,1.678791,0.099966,-0.185296,0.012613,0.022333,0.071085,0.087637,0.999999,0.000500,-0.000926,0.000063,0.276614,0.196980,0.262640,0.903163,36.638228,-12.152245,141.906286
47834,3.339010,6.626891,8.073302,-1.138718,0.262252,1.090403,0.054582,-0.180792,0.067806,0.033295,0.066258,0.080781,0.999999,0.000273,-0.000904,0.000339,0.276467,0.197973,0.262520,0.903026,36.670788,-12.262612,141.877639
47835,3.462432,6.251612,7.813108,-1.200218,0.501586,0.695577,0.043063,-0.073313,0.078065,0.034571,0.062513,0.078157,1.000000,0.000215,-0.000367,0.000390,0.276145,0.198481,0.262492,0.903021,36.688596,-12.327158,141.891126
47836,2.706142,6.422014,8.238893,-0.463830,0.075505,0.968036,0.027239,-0.000743,0.074883,0.027037,0.064219,0.082398,1.000000,0.000136,-0.000004,0.000374,0.275757,0.198634,0.262490,0.903107,36.691457,-12.357400,141.928764
47837,2.418267,6.421075,8.439672,-0.136610,-0.029948,1.063282,-0.020351,-0.023089,0.084766,0.024146,0.064230,0.084393,1.000000,-0.000102,-0.000115,0.000424,0.275401,0.198837,0.262238,0.903244,36.668463,-12.401162,141.963005
47838,2.425357,6.064196,8.541005,0.053584,0.254779,0.936164,-0.038128,-0.044773,0.096915,0.024205,0.060670,0.085404,1.000000,-0.000191,-0.000224,0.000485,0.275035,0.199128,0.261859,0.903401,36.634930,-12.459193,141.995610
47839,1.990037,5.899887,8.631660,0.507067,0.132883,0.817443,0.024176,-0.072369,0.127875,0.019831,0.059001,0.086331,1.000000,0.000121,-0.000362,0.000639,0.274505,0.199671,0.261697,0.903489,36.636708,-12.540326,142.032945
47840,1.062593,6.161941,9.082607,1.368090,-0.452290,1.119652,0.192416,-0.119558,0.255657,0.010493,0.061545,0.090892,0.999999,0.000962,-0.000598,0.001278,0.273290,0.200823,0.262097,0.903486,36.724524,-12.687048,142.114082
47841,0.121233,6.469773,9.419253,2.202123,-1.117990,1.345051,0.407502,-0.413476,0.512910,0.000852,0.064508,0.094326,0.999992,0.002038,-0.002067,0.002565,0.271080,0.203934,0.262812,0.903248,36.932164,-13.056976,142.212155
47842,1.882672,6.877770,8.458333,0.298965,-0.725537,1.222466,0.494582,-0.665290,0.718808,0.018298,0.068635,0.084815,0.999985,0.002473,-0.003326,0.003594,0.268176,0.208562,0.263358,0.902899,37.186689,-13.613344,142.316590
47843,3.626938,6.398978,7.219428,-1.399210,0.170857,0.396811,0.363527,-0.643558,0.716600,0.035807,0.063987,0.072426,0.999987,0.001818,-0.003218,0.003583,0.265382,0.212911,0.263341,0.902714,37.364840,-14.159590,142.425516
47844,4.090445,5.844128,6.626643,-1.787535,0.592445,-0.260131,0.165535,-0.390250,0.572965,0.040607,0.058503,0.066394,0.999994,0.000828,-0.001951,0.002865,0.263109,0.215658,0.262910,0.902853,37.422361,-14.540638,142.557281
47845,3.186709,5.226742,6.852848,-0.708334,0.557970,-0.668166,0.063750,-0.187787,0.445455,0.031686,0.052316,0.068575,0.999997,0.000319,-0.000939,0.002227,0.261253,0.217190,0.262426,0.903166,37.418350,-14.785352,142.701646
47846,2.471369,5.355263,7.456410,0.141598,0.240780,-0.309716,0.051242,-0.130218,0.343192,0.024573,0.053576,0.074594,0.999998,0.000256,-0.000651,0.001716,0.259794,0.218309,0.262065,0.903421,37.412961,-14.968344,142.819000
47847,2.134436,5.679451,7.865264,0.525132,-0.063619,0.106712,0.006920,-0.159180,0.263128,0.021207,0.056820,0.078672,0.999999,0.000035,-0.000796,0.001316,0.258783,0.219398,0.261557,0.903595,37.394993,-15.136541,142.888075
47848,1.943851,5.383411,8.016758,0.878357,0.075327,-0.001937,-0.023614,-0.214552,0.213042,0.019295,0.053864,0.080182,0.999999,-0.000118,-0.001073,0.001065,0.258103,0.220629,0.260889,0.903683,37.370019,-15.312551,142.913942
47849,2.046686,5.308723,7.923477,0.799912,0.134545,-0.091839,-0.022557,-0.309679,0.169448,0.020299,0.053113,0.079260,0.999998,-0.000113,-0.001548,0.000847,0.257744,0.222236,0.260156,0.903603,37.360870,-15.516662,142.884717
47850,2.078669,5.424331,7.804704,0.698540,0.005908,-0.108588,0.011272,-0.326933,0.117416,0.020627,0.054251,0.078084,0.999998,0.000056,-0.001635,0.000587,0.257602,0.223893,0.259605,0.903393,37.378688,-15.710486,142.824939
47851,0.854536,6.124431,8.518761,1.809273,-0.987532,0.510070,0.016525,-0.421448,0.117829,0.008330,0.061242,0.085210,0.999998,0.000083,-0.002107,0.000589,0.257575,0.225986,0.258960,0.903064,37.409868,-15.947499,142.730702
47852,1.256114,6.553816,8.525443,1.398282,-1.101498,0.866481,-0.095975,-0.682867,0.126863,0.012228,0.065587,0.085265,0.999994,-0.000480,-0.003414,0.000634,0.257970,0.229120,0.257453,0.902593,37.401354,-16.306363,142.546228
47853,2.484035,5.555243,7.792704,0.458124,0.045131,0.063803,-0.224219,-0.794965,0.097281,0.024503,0.055652,0.077963,0.999991,-0.001121,-0.003975,0.000486,0.258787,0.232557,0.255257,0.902103,37.336993,-16.706353,142.306541
47854,3.230315,4.713867,7.159597,-0.116635,0.838866,-0.691410,-0.215709,-0.788146,0.017965,0.032017,0.047219,0.071672,0.999992,-0.001079,-0.003941,0.000090,0.259938,0.235863,0.253192,0.901496,37.288423,-17.075497,142.031916
47855,3.456679,4.541493,6.868713,-0.344823,0.968241,-0.941588,-0.132662,-0.711578,-0.083673,0.034341,0.045446,0.068779,0.999993,-0.000663,-0.003558,-0.000418,0.261348,0.238806,0.251721,0.900725,37.296101,-17.374968,141.735829
47856,3.400127,4.882069,6.821164,-0.409248,0.648328,-0.794052,-0.065270,-0.636671,-0.188039,0.033830,0.048811,0.068304,0.999994,-0.000326,-0.003183,-0.000940,0.263050,0.241360,0.250767,0.899814,37.349660,-17.603619,141.417034
47857,3.383076,5.437525,6.902904,-0.514498,0.246140,-0.413931,-0.063583,-0.529551,-0.270373,0.033721,0.054352,0.069101,0.999996,-0.000318,-0.002648,-0.001352,0.264984,0.243334,0.250065,0.898910,37.406435,-17.754850,141.096972
47858,2.532677,5.539609,7.318630,0.339717,-0.210817,-0.299319,-0.052448,-0.470631,-0.278431,0.025232,0.055380,0.073231,0.999996,-0.000262,-0.002353,-0.001392,0.266864,0.245042,0.249492,0.898049,37.464021,-17.875998,140.794664
47859,2.634997,5.846935,7.290681,0.162831,-0.390456,-0.111922,0.001277,-0.521053,-0.231292,0.026228,0.058439,0.072976,0.999996,0.000006,-0.002605,-0.001156,0.268528,0.247109,0.249040,0.897112,37.552978,-18.036306,140.495531
47860,2.985014,5.908997,7.104465,-0.195621,-0.289514,-0.108161,0.002097,-0.492647,-0.188732,0.029731,0.059061,0.071119,0.999997,0.000010,-0.002463,-0.000944,0.269962,0.249095,0.248569,0.896262,37.632815,-18.197956,140.227112
47861,2.836835,5.926769,7.150395,-0.039844,-0.386108,-0.109511,-0.005034,-0.459323,-0.146637,0.028247,0.059249,0.071567,0.999997,-0.000025,-0.002297,-0.000733,0.271174,0.250979,0.248063,0.895510,37.700255,-18.359121,139.990160
47862,3.293765,5.862835,6.963302,-0.431918,-0.127337,-0.142813,-0.010896,-0.438165,-0.118982,0.032820,0.058613,0.069702,0.999997,-0.000054,-0.002191,-0.000595,0.272241,0.252788,0.247518,0.894828,37.757525,-18.519919,139.774271
47863,3.706726,5.582591,6.688595,-0.767036,0.239486,-0.378881,-0.003432,-0.348359,-0.121553,0.036985,0.055805,0.066949,0.999998,-0.000017,-0.001742,-0.000608,0.273198,0.254206,0.247137,0.894240,37.810394,-18.639181,139.589634
47864,3.754757,5.562243,6.643987,-0.801735,0.269664,-0.407169,0.054567,-0.244662,-0.126320,0.037501,0.055581,0.066501,0.999999,0.000273,-0.001223,-0.000632,0.273973,0.255228,0.247156,0.893706,37.884416,-18.709514,139.441359
47865,3.530540,5.671974,6.759446,-0.594601,0.093481,-0.327763,0.175167,-0.138167,-0.072615,0.035279,0.056648,0.067668,0.999999,0.000876,-0.000691,-0.000363,0.274224,0.256011,0.247796,0.893228,38.007635,-18.750551,139.357747
47866,3.252238,5.893727,6.906783,-0.363368,-0.181680,-0.176735,0.348388,-0.126228,0.046921,0.032465,0.058824,0.069191,0.999998,0.001742,-0.000631,0.000235,0.273702,0.257121,0.249068,0.892715,38.209670,-18.828215,139.335726
47867,3.615701,6.450824,6.741846,-0.889655,-0.396491,0.146735,0.419856,-0.071922,0.150850,0.036084,0.064394,0.067567,0.999997,0.002099,-0.000360,0.000754,0.272557,0.258219,0.250604,0.892319,38.431012,-18.918345,139.382791
47868,3.374475,6.631570,6.877119,-0.665827,-0.621184,0.278411,0.388077,0.008464,0.225103,0.033673,0.066220,0.068898,0.999997,0.001940,0.000042,0.001126,0.271018,0.259004,0.252005,0.892166,38.612214,-18.999105,139.495376
47869,3.130929,6.692156,7.151535,-0.319964,-0.722311,0.439531,0.263771,0.049646,0.257738,0.031241,0.066867,0.071596,0.999998,0.001319,0.000248,0.001289,0.269443,0.259479,0.252869,0.892260,38.712656,-19.073371,139.638536
47870,3.118148,5.995898,7.229876,-0.001752,-0.199428,0.082006,0.167163,0.070451,0.270865,0.031126,0.059941,0.072338,0.999999,0.000836,0.000352,0.001354,0.267906,0.259746,0.253309,0.892521,38.752439,-19.143209,139.796007
47871,2.802753,5.598916,7.512943,0.546657,-0.015908,-0.048032,0.176132,0.089253,0.289513,0.027980,0.055963,0.075166,0.999998,0.000881,0.000446,0.001448,0.266251,0.259965,0.253793,0.892815,38.792465,-19.211444,139.969213
47872,2.575570,5.849800,7.778280,0.801141,-0.255093,0.219681,0.195740,0.008079,0.304423,0.025670,0.058461,0.077839,0.999998,0.000979,0.000040,0.001522,0.264605,0.260588,0.254232,0.892997,38.850783,-19.321361,140.118869
47873,3.320968,5.918256,7.585481,0.143200,0.079102,0.364115,0.135951,-0.033037,0.283527,0.033113,0.059178,0.075901,0.999999,0.000680,-0.000165,0.001418,0.263183,0.261291,0.254381,0.893170,38.883579,-19.442268,140.242731
47874,3.575717,5.607742,7.490908,0.022653,0.420668,0.195746,0.086340,-0.010297,0.239162,0.035686,0.056088,0.074935,0.999999,0.000432,-0.000051,0.001196,0.261993,0.261767,0.254391,0.893377,38.891249,-19.537000,140.354601
47875,3.617014,5.686872,7.518793,-0.003766,0.387642,0.277172,0.098475,-0.019453,0.219959,0.036100,0.056871,0.075219,0.999999,0.000492,-0.000097,0.001100,0.260885,0.262278,0.254472,0.893529,38.910481,-19.629046,140.453644
47876,3.731608,5.911358,7.423174,-0.206738,0.253668,0.378753,0.087437,-0.000242,0.193915,0.037259,0.059117,0.074258,0.999999,0.000437,-0.000001,0.000970,0.259883,0.262652,0.254558,0.893686,38.924299,-19.703104,140.548025
47877,3.577950,6.029992,7.586136,-0.026883,0.119205,0.516739,0.048364,0.013817,0.168878,0.035734,0.060312,0.075873,1.000000,0.000242,0.000069,0.000844,0.259026,0.262883,0.254525,0.893876,38.918429,-19.761966,140.635657
47878,3.268509,5.819712,7.706179,0.347842,0.119692,0.375643,0.046287,-0.007927,0.173486,0.032632,0.058208,0.077077,1.000000,0.000231,-0.000040,0.000867,0.258178,0.263213,0.254444,0.894048,38.912708,-19.832126,140.717498
47879,3.308986,5.685506,7.624801,0.325718,0.209215,0.250219,0.094853,-0.057030,0.188974,0.033014,0.056850,0.076284,0.999999,0.000474,-0.000285,0.000945,0.257260,0.263846,0.254500,0.894110,38.939218,-19.929808,140.787611
47880,3.609457,5.708432,7.415199,-0.010098,0.297630,0.212822,0.121868,-0.073014,0.179825,0.036016,0.057072,0.074200,0.999999,0.000609,-0.000365,0.000899,0.256367,0.264570,0.254663,0.894106,38.983992,-20.031285,140.847571
47881,3.765932,5.704442,7.265143,-0.197540,0.341197,0.154747,0.111625,-0.038047,0.142306,0.037605,0.057031,0.072690,1.000000,0.000558,-0.000190,0.000712,0.255610,0.265080,0.254880,0.894110,39.025007,-20.103776,140.902792
47882,3.724976,5.775910,7.332075,-0.139567,0.283541,0.232014,0.086002,0.001635,0.097952,0.037222,0.057746,0.073345,1.000000,0.000430,0.000008,0.000490,0.255034,0.265321,0.255086,0.894144,39.052578,-20.142606,140.952552
47883,3.342681,5.969438,7.719003,0.317725,0.037640,0.496937,0.064578,0.018263,0.086602,0.033408,0.059684,0.077206,1.000000,0.000323,0.000091,0.000433,0.254517,0.265447,0.255238,0.894210,39.068207,-20.169985,141.002986
47884,3.116654,6.187136,7.966475,0.569541,-0.180830,0.727798,0.029793,-0.043234,0.090947,0.031121,0.061874,0.079681,1.000000,0.000149,-0.000216,0.000455,0.254105,0.265808,0.255145,0.894247,39.070595,-20.226273,141.032175
47885,3.447958,5.918334,7.720041,0.273702,0.125582,0.503485,-0.026557,-0.114563,0.084958,0.034410,0.059208,0.077212,1.000000,-0.000133,-0.000573,0.000425,0.253885,0.266410,0.254722,0.894251,39.051882,-20.312152,141.030743
47886,3.847430,5.462326,7.375835,-0.072513,0.577281,0.122308,-0.054441,-0.114906,0.039421,0.038421,0.054651,0.073766,1.000000,-0.000272,-0.000575,0.000197,0.253906,0.266917,0.254230,0.894234,39.023977,-20.381673,141.007977
47887,3.699891,5.406713,7.255138,-0.015744,0.484310,-0.049288,-0.059480,-0.087917,-0.027556,0.036974,0.054084,0.072552,1.000000,-0.000297,-0.000440,-0.000138,0.254199,0.267216,0.253843,0.894171,39.001429,-20.415109,140.963434
47888,3.529565,5.589559,7.316194,0.087209,0.262512,0.043842,-0.077971,-0.067918,-0.090420,0.035296,0.055908,0.073152,1.000000,-0.000390,-0.000340,-0.000452,0.254772,0.267318,0.253478,0.894081,38.975211,-20.416978,140.897116
47889,3.165019,5.564548,7.382232,0.398068,0.083340,-0.049825,-0.077181,-0.066708,-0.106953,0.031655,0.055657,0.073811,1.000000,-0.000386,-0.000334,-0.000535,0.255417,0.267398,0.253145,0.893967,38.952845,-20.412395,140.823010
47890,2.914891,5.614169,7.387994,0.567998,-0.101610,-0.103671,-0.004311,-0.092118,-0.069328,0.029134,0.056133,0.073892,1.000000,-0.000022,-0.000461,-0.000347,0.255827,0.267729,0.253050,0.893778,38.968545,-20.432664,140.757436
47891,3.025328,5.900038,7.164778,0.267691,-0.318758,-0.059543,0.048487,-0.127581,-0.030230,0.030216,0.058978,0.071681,1.000000,0.000242,-0.000638,-0.000151,0.256038,0.268338,0.253098,0.893521,39.013681,-20.482815,140.696356
47892,3.533942,5.961190,6.853755,-0.300913,-0.160993,-0.071948,0.018733,-0.101954,-0.022704,0.035311,0.059601,0.068561,1.000000,0.000094,-0.000510,-0.000114,0.256222,0.268801,0.253031,0.893349,39.036250,-20.524143,140.649109
47893,3.521201,5.786451,6.842779,-0.236757,-0.042988,-0.187326,0.014954,-0.044008,-0.031351,0.035206,0.057854,0.068440,1.000000,0.000075,-0.000220,-0.000157,0.256376,0.268992,0.253037,0.893245,39.051164,-20.536648,140.619626
47894,3.308611,6.052028,7.125610,0.006491,-0.276629,0.100521,0.010614,-0.024721,-0.027124,0.033086,0.060512,0.071263,1.000000,0.000053,-0.000124,-0.000136,0.256493,0.269094,0.253039,0.893180,39.059462,-20.542019,140.599991
47895,3.467527,5.907693,7.105567,-0.073084,-0.082210,0.056535,-0.010546,-0.024022,-0.013546,0.034671,0.059078,0.071057,1.000000,-0.000053,-0.000120,-0.000068,0.256577,0.269186,0.252933,0.893158,39.054102,-20.552053,140.586667
47896,3.373759,5.629314,7.124521,0.097164,0.072857,-0.126848,0.012512,-0.013471,-0.000846,0.033733,0.056289,0.071251,1.000000,0.000063,-0.000067,-0.000004,0.256560,0.269274,0.252923,0.893140,39.057621,-20.561892,140.583841
47897,3.326282,5.699274,7.196815,0.155225,0.015202,-0.049712,0.022213,-0.014266,0.002388,0.033257,0.056985,0.071977,1.000000,0.000111,-0.000071,0.000012,0.256516,0.269384,0.252955,0.893110,39.067054,-20.573338,140.581848
47898,3.136001,5.744373,7.271510,0.325003,-0.108727,-0.035687,-0.009397,-0.008175,-0.009678,0.031360,0.057446,0.072714,1.000000,-0.000047,-0.000041,-0.000048,0.256561,0.269409,0.252864,0.893115,39.058767,-20.577622,140.576874
47899,2.993827,5.626264,7.319642,0.495107,-0.093029,-0.120359,-0.032122,-0.033873,-0.023765,0.029933,0.056271,0.073192,1.000000,-0.000161,-0.000169,-0.000119,0.256732,0.269504,0.252664,0.893094,39.044097,-20.588352,140.554892
47900,3.084022,5.542526,7.244806,0.411729,-0.004041,-0.192476,-0.030723,-0.059787,-0.037171,0.030829,0.055431,0.072449,1.000000,-0.000154,-0.000299,-0.000186,0.256994,0.269696,0.252449,0.893022,39.035168,-20.605626,140.516972
47901,3.297754,5.565418,7.111575,0.169727,0.062130,-0.200669,-0.033902,-0.068128,-0.065436,0.032972,0.055655,0.071118,1.000000,-0.000170,-0.000341,-0.000327,0.257397,0.269890,0.252253,0.892902,39.031111,-20.616572,140.461970
47902,3.431994,5.611512,7.100587,0.051296,0.103870,-0.134229,-0.026342,-0.044747,-0.083095,0.034327,0.056110,0.071006,1.000000,-0.000132,-0.000224,-0.000415,0.257838,0.269962,0.252139,0.892785,39.030323,-20.610558,140.408027
47903,3.218716,5.809059,7.222503,0.216217,-0.130131,-0.004213,0.010718,-0.044871,-0.070501,0.032191,0.058075,0.072235,1.000000,0.000054,-0.000224,-0.000353,0.258174,0.270103,0.252179,0.892635,39.049523,-20.609320,140.359583
47904,3.254435,6.000457,7.237009,0.140797,-0.244349,0.131738,0.027585,-0.071967,-0.037356,0.032530,0.059989,0.072390,1.000000,0.000138,-0.000360,-0.000187,0.258373,0.270423,0.252209,0.892472,39.075676,-20.631888,140.316887
47905,3.683927,5.919403,7.050462,-0.251303,0.014402,0.099744,0.015580,-0.060533,-0.019567,0.036824,0.059185,0.070520,1.000000,0.000078,-0.000303,-0.000098,0.258495,0.270704,0.252181,0.892359,39.091289,-20.655980,140.286595
47906,3.519716,5.774359,7.115435,-0.042822,0.043172,0.003490,0.010606,-0.025597,-0.017767,0.035193,0.057737,0.071162,1.000000,0.000053,-0.000128,-0.000089,0.258571,0.270821,0.252168,0.892305,39.098177,-20.664982,140.271076
47907,3.505244,5.849184,7.237543,0.019811,0.016890,0.131207,0.003106,-0.020676,-0.019813,0.035051,0.058487,0.072380,1.000000,0.000016,-0.000103,-0.000099,0.258660,0.270908,0.252137,0.892262,39.101267,-20.671254,140.256047
47908,3.489768,5.673578,7.229197,0.083823,0.135002,0.016047,0.014701,-0.007421,-0.018335,0.034900,0.056727,0.072297,1.000000,0.000074,-0.000037,-0.000092,0.258710,0.270948,0.252167,0.892227,39.108126,-20.671973,140.247273
47909,3.493882,5.727968,7.279006,0.095922,0.114769,0.085716,0.057207,-0.001578,-0.005258,0.034940,0.057258,0.072807,1.000000,0.000286,-0.000008,-0.000026,0.258637,0.271037,0.252381,0.892160,39.137170,-20.675013,140.246536
47910,3.199767,5.901965,7.408059,0.335908,-0.145910,0.178154,0.108285,-0.005777,0.036079,0.031985,0.058985,0.074113,1.000000,0.000541,-0.000029,0.000180,0.258315,0.271260,0.252757,0.892079,39.188284,-20.694686,140.264244
47911,3.462885,6.027335,7.248838,0.019639,-0.127240,0.229692,0.141714,-0.044907,0.086876,0.034586,0.060237,0.072539,1.000000,0.000709,-0.000225,0.000434,0.257772,0.271768,0.253168,0.891965,39.256216,-20.750337,140.290441
47912,3.758783,6.102415,7.145941,-0.267727,-0.036775,0.304592,0.114932,-0.017949,0.099315,0.037551,0.061002,0.071498,1.000000,0.000575,-0.000090,0.000497,0.257174,0.272133,0.253472,0.891940,39.302167,-20.798346,140.333394
47913,3.668981,5.989745,7.217848,-0.113679,0.014547,0.258194,0.067012,0.007190,0.093065,0.036665,0.059890,0.072197,1.000000,0.000335,0.000036,0.000465,0.256638,0.272321,0.253608,0.891999,39.319053,-20.833186,140.382682
47914,3.564274,5.845084,7.231830,0.021649,0.061731,0.145432,0.050738,0.020825,0.077591,0.035628,0.058446,0.072329,1.000000,0.000254,0.000104,0.000388,0.256175,0.272402,0.253705,0.892079,39.326517,-20.856174,140.430358
47915,3.351846,5.772574,7.310817,0.251759,0.012701,0.083877,0.082612,0.017493,0.099447,0.033496,0.057712,0.073129,1.000000,0.000413,0.000087,0.000497,0.255576,0.272572,0.253914,0.892140,39.349790,-20.888789,140.486678
47916,2.938573,5.882574,7.456510,0.616736,-0.267461,0.106360,0.192981,-0.010017,0.172208,0.029331,0.058779,0.074623,0.999999,0.000965,-0.000050,0.000861,0.254536,0.273093,0.254477,0.892117,39.426949,-20.959873,140.567211
47917,3.036475,6.215718,7.398520,0.433449,-0.471795,0.295865,0.337866,-0.083030,0.318867,0.030235,0.062080,0.074103,0.999997,0.001689,-0.000415,0.001594,0.252737,0.274314,0.255396,0.891991,39.573112,-21.117046,140.688179
47918,3.531747,6.642825,7.082510,-0.206033,-0.596633,0.500587,0.442974,-0.120119,0.476924,0.035117,0.066355,0.070993,0.999995,0.002215,-0.000601,0.002385,0.250133,0.276027,0.256515,0.891876,39.756605,-21.348392,140.869515
47919,4.102160,6.948348,6.704167,-0.890253,-0.618102,0.621786,0.448749,-0.072654,0.613053,0.040784,0.069458,0.067212,0.999993,0.002244,-0.000363,0.003065,0.246851,0.277712,0.257531,0.891974,39.913233,-21.609630,141.133041
47920,4.426703,6.800080,6.231839,-1.319355,-0.489101,0.321038,0.505430,0.069501,0.798309,0.044017,0.068019,0.062475,0.999989,0.002527,0.000348,0.003992,0.242476,0.279062,0.258711,0.892411,40.047315,-21.876969,141.540631
47921,4.276562,7.189787,5.917103,-1.453191,-0.995453,0.281414,0.779957,0.258491,1.156717,0.042426,0.071913,0.059396,0.999975,0.003900,0.001292,0.005784,0.235866,0.280360,0.260838,0.893157,40.245635,-22.195343,142.192486
47922,4.371055,8.421477,5.622173,-1.942094,-2.006905,0.856671,1.079074,0.393927,1.663538,0.043121,0.084270,0.056591,0.999949,0.005395,0.001970,0.008318,0.226378,0.282042,0.263728,0.894233,40.498700,-22.644860,143.138714
47923,5.628668,8.892702,4.674580,-3.445383,-2.079118,0.977002,1.132554,0.622638,2.154281,0.055473,0.089262,0.047077,0.999921,0.005663,0.003113,0.010771,0.214290,0.283375,0.266392,0.895998,40.648364,-23.181026,144.410770
47924,7.353282,7.604418,3.296937,-5.177267,-0.813625,-0.050617,1.073535,1.069093,2.435603,0.072777,0.076756,0.032990,0.999897,0.005367,0.005345,0.012178,0.200392,0.282968,0.268824,0.898613,40.627630,-23.629310,146.001615
47925,7.536014,6.373697,2.860797,-5.279320,-0.124341,-0.997388,1.064620,1.736952,2.526154,0.074795,0.064533,0.028299,0.999868,0.005323,0.008684,0.012630,0.185155,0.279607,0.271693,0.902064,40.465029,-23.818275,147.911941
47926,6.839551,5.474528,2.920492,-4.541707,0.070771,-1.772522,1.236203,2.330027,2.597430,0.068015,0.055452,0.028752,0.999829,0.006181,0.011649,0.012986,0.168495,0.273749,0.275705,0.905902,40.287786,-23.770197,150.098046
47927,6.084337,6.354410,3.319034,-3.853509,-0.978614,-1.291869,1.496335,2.850701,2.694344,0.060452,0.064114,0.032805,0.999780,0.007481,0.014252,0.013471,0.150257,0.265771,0.281090,0.909822,40.162205,-23.524306,152.538575
47928,4.757574,7.276075,3.940177,-2.522140,-2.139191,-0.859341,1.515056,3.299194,2.770643,0.047212,0.073119,0.039174,0.999739,0.007575,0.016495,0.013852,0.130944,0.255759,0.286664,0.913928,39.978300,-23.104999,155.188079
47929,3.819119,7.217921,4.471138,-1.427611,-2.301489,-0.905400,1.357463,3.601649,2.778109,0.037989,0.072405,0.044517,0.999718,0.006787,0.018007,0.013889,0.111294,0.244122,0.291548,0.918160,39.680376,-22.543919,157.950694
47930,3.100537,6.299861,4.867905,-0.567541,-1.673834,-1.453621,1.173723,3.852187,2.649310,0.031104,0.063125,0.048451,0.999710,0.005868,0.019259,0.013245,0.092031,0.230920,0.295723,0.922363,39.299482,-21.811410,160.732987
47931,1.914787,5.870475,5.683254,0.816907,-1.286313,-1.560069,1.015434,3.970015,2.427546,0.019563,0.058652,0.056745,0.999716,0.005077,0.019848,0.012137,0.073746,0.216627,0.299303,0.926311,38.892706,-20.927266,163.434848
47932,0.976784,5.064879,6.529694,1.934133,-0.396850,-1.729139,0.832941,3.909084,2.143729,0.010503,0.050487,0.065307,0.999743,0.004164,0.019544,0.010718,0.057025,0.202021,0.302168,0.929855,38.487278,-19.952321,165.953656
47933,0.702166,4.251524,7.098975,2.251542,0.572484,-1.840009,0.627521,3.723436,1.709544,0.007981,0.042358,0.070980,0.999785,0.003137,0.018616,0.008547,0.042783,0.187454,0.304315,0.932965,38.104819,-18.889097,168.173023
47934,0.428274,3.511165,7.661600,2.494918,1.494369,-1.891227,0.405485,3.553500,1.163798,0.005440,0.034986,0.076597,0.999823,0.002027,0.017766,0.005819,0.031536,0.172740,0.305788,0.935767,37.745854,-17.698169,170.046755
47935,-0.822736,2.777159,8.806724,3.796116,2.603069,-1.765633,0.357439,3.296019,0.698279,-0.006871,0.027588,0.088237,0.999857,0.001787,0.016479,0.003491,0.022892,0.158445,0.307293,0.938052,37.494507,-16.450675,171.586597
47936,-1.481895,2.758990,9.789416,4.485017,3.187144,-1.131612,0.539503,2.801878,0.353982,-0.013493,0.027301,0.098163,0.999897,0.002697,0.014009,0.001770,0.016471,0.145927,0.309797,0.939393,37.475923,-15.305153,172.771659
47937,-1.197395,3.599589,10.222096,4.163122,2.899651,-0.161898,0.585735,2.208578,-0.006174,-0.010842,0.035696,0.102450,0.999935,0.002929,0.011043,-0.000031,0.012625,0.135609,0.312676,0.940045,37.603879,-14.303769,173.568675
47938,0.279819,2.482792,9.233069,2.226496,3.457899,-1.176994,0.446283,1.726249,-0.444583,0.003650,0.024614,0.092357,0.999958,0.002231,0.008631,-0.002223,0.011687,0.126852,0.315132,0.940459,37.755816,-13.369657,173.986015
47939,2.054401,1.484476,7.652748,-0.088589,3.557518,-2.579212,0.530889,1.553636,-0.979331,0.021210,0.014539,0.076403,0.999954,0.002654,0.007768,-0.004897,0.013480,0.118056,0.318289,0.940518,38.031774,-12.326735,174.094986
47940,2.908114,1.429231,6.877696,-1.238667,3.276425,-3.065009,0.509967,1.581430,-1.589567,0.029735,0.013883,0.068579,0.999934,0.002550,0.007907,-0.007948,0.018109,0.108144,0.321669,0.940482,38.351197,-11.055774,173.938558
47941,3.944171,2.600416,4.598060,-2.846075,1.146239,-3.977986,0.504441,1.843446,-2.259337,0.040153,0.025438,0.045677,0.999891,0.002522,0.009217,-0.011296,0.025466,0.095903,0.325357,0.940370,38.699956,-9.427376,173.580273
47942,2.760227,4.344199,4.436053,-1.883968,-0.387255,-3.296163,0.455413,2.464106,-2.639373,0.028716,0.042967,0.044110,0.999834,0.002277,0.012320,-0.013196,0.033616,0.080097,0.328981,0.940333,38.998968,-7.383914,173.287310
47943,0.642405,4.958641,4.850936,0.018150,-0.790725,-2.891679,0.475233,2.835310,-2.780538,0.007799,0.049369,0.048523,0.999800,0.002376,0.014176,-0.013902,0.041800,0.062284,0.332703,0.940044,39.290074,-5.122544,173.078255
47944,-0.837600,6.330262,5.476529,1.220606,-1.571224,-1.639716,0.472427,3.058304,-2.778904,-0.006657,0.063273,0.055025,0.999784,0.002362,0.015290,-0.013894,0.049588,0.043405,0.336314,0.939441,39.564040,-2.762649,172.963142
47945,-1.973833,6.647696,5.977116,2.038713,-1.563915,-1.026359,0.361742,3.159077,-2.706662,-0.017889,0.066619,0.060184,0.999782,0.001809,0.015794,-0.013532,0.056871,0.024123,0.339276,0.938656,39.768334,-0.383703,172.926896
47946,-2.408247,5.763998,6.620070,2.244101,-0.467918,-1.004634,0.190289,3.149998,-2.698014,-0.022256,0.057885,0.066616,0.999785,0.000951,0.015749,-0.013489,0.064124,0.004842,0.341279,0.937760,39.872510,1.987873,172.897493
47947,-2.113613,3.140614,5.576350,1.889461,0.937565,-3.411840,0.059695,3.122728,-2.924136,-0.019800,0.031685,0.056089,0.999771,0.000298,0.015612,-0.014620,0.072459,-0.014744,0.342519,0.936597,39.895088,4.430860,172.761122
47948,-2.923812,2.614086,5.772900,2.494722,1.401592,-3.447746,0.404190,3.370979,-3.247414,-0.027831,0.026483,0.058259,0.999724,0.002021,0.016853,-0.016236,0.081872,-0.035914,0.345261,0.934239,40.103834,7.102149,172.578493
47949,-5.284100,1.425452,7.312079,4.713096,3.042147,-2.605675,0.643886,3.237721,-3.519121,-0.051389,0.014930,0.074008,0.999709,0.003219,0.016187,-0.017594,0.092781,-0.056811,0.348830,0.930850,40.418605,9.816576,172.237177
47950,-5.253813,3.840917,6.970531,3.824343,1.087630,-1.145603,0.737679,3.036208,-4.120571,-0.050668,0.039207,0.070628,0.999666,0.003688,0.015179,-0.020601,0.106810,-0.077745,0.352345,0.926499,40.705132,12.669626,171.564042
47951,-7.544799,5.992392,9.127098,4.829402,0.670040,2.529414,0.273653,2.970278,-4.468677,-0.072719,0.061443,0.092448,0.999639,0.001368,0.014850,-0.022341,0.122312,-0.099176,0.353304,0.922161,40.648601,15.624883,170.707741
47952,-8.973195,6.050433,10.030612,5.449854,0.985071,3.863092,-0.173799,2.440262,-4.521809,-0.087100,0.062581,0.101326,0.999670,-0.000869,0.012200,-0.022607,0.138691,-0.118472,0.351596,0.918210,40.218775,18.366296,169.596167
47953,-9.250995,6.820793,10.499800,4.749461,0.595586,4.999404,-0.471507,1.867288,-4.418763,-0.089985,0.070463,0.105682,0.999710,-0.002357,0.009336,-0.022092,0.155340,-0.135080,0.347978,0.914622,39.497722,20.805998,168.263525
47954,-9.942636,7.385760,11.507310,4.429952,0.582161,6.491593,-0.539928,1.082474,-3.840984,-0.097356,0.076052,0.115400,0.999797,-0.002699,0.005412,-0.019204,0.170595,-0.147097,0.343644,0.911685,38.658226,22.672339,166.847570
47955,-7.205755,6.489138,8.948370,2.297821,-0.092074,3.179917,-0.202376,0.302792,-3.048120,-0.070921,0.066069,0.089525,0.999882,-0.001012,0.001514,-0.015240,0.183765,-0.153848,0.340669,0.909124,37.996028,23.887349,165.475709
47956,-4.144114,7.748331,6.503202,-0.841852,-1.978622,0.905275,0.247689,0.135068,-2.331628,-0.040491,0.077878,0.065156,0.999931,0.001238,0.000675,-0.011658,0.194281,-0.158193,0.340059,0.906416,37.677580,24.765903,164.372308
47957,-1.731353,8.475317,4.071727,-3.095633,-3.514523,-1.477815,0.268008,0.360534,-1.880172,-0.016443,0.084856,0.040861,0.999953,0.001340,0.001803,-0.009401,0.202358,-0.162735,0.340092,0.903829,37.486194,25.582458,163.570793
47958,-2.010126,9.146204,3.890463,-3.317828,-4.126134,-1.164370,0.020990,0.963501,-1.625438,-0.019169,0.091616,0.039008,0.999955,0.000105,0.004817,-0.008127,0.208041,-0.169821,0.339786,0.901346,37.295818,26.584326,163.122703
47959,-4.705569,8.152560,6.331081,-1.114361,-2.450926,1.207158,-0.268776,1.236830,-1.274042,-0.046142,0.081907,0.063488,0.999960,-0.001344,0.006184,-0.006370,0.211410,-0.177812,0.338737,0.899414,37.060591,27.585909,162.953087
47960,-6.091687,6.080991,8.132669,0.590100,-0.159517,2.013175,-0.424486,1.027062,-1.039599,-0.060181,0.061297,0.081507,0.999971,-0.002122,0.005135,-0.005198,0.213930,-0.184630,0.336946,0.898116,36.748457,28.411682,162.816586
47961,-6.497633,2.622675,9.163697,2.336355,2.785249,1.135052,-0.359214,0.752783,-1.101696,-0.064485,0.026748,0.091833,0.999976,-0.001796,0.003764,-0.005508,0.217237,-0.190226,0.335086,0.896850,36.402742,29.130058,162.534228
47962,-6.792111,2.038519,10.116521,2.575796,3.737899,1.677517,0.071002,0.373581,-1.283830,-0.067599,0.020784,0.101299,0.999978,0.000355,0.001868,-0.006419,0.222398,-0.193967,0.334546,0.894983,36.176604,29.735650,162.001624
47963,-6.243200,3.614541,10.344830,1.154897,2.954685,2.393599,0.261011,0.035137,-1.434622,-0.062153,0.036457,0.103507,0.999973,0.001305,0.000176,-0.007173,0.228971,-0.196209,0.334326,0.892917,35.947019,30.231681,161.250986
47964,-5.573079,5.132300,10.425528,-0.311322,2.153561,2.889910,0.213301,-0.193614,-1.546345,-0.055433,0.051641,0.104256,0.999969,0.001066,-0.000968,-0.007732,0.236369,-0.197677,0.333489,0.890976,35.604239,30.657422,160.344459
47965,-5.568609,4.555399,10.506505,-0.096614,2.547707,2.663151,-0.002127,-0.350982,-1.787435,-0.055460,0.046051,0.104967,0.999959,-0.000011,-0.001755,-0.008937,0.244869,-0.199069,0.331257,0.889202,35.031491,31.081325,159.238362
47966,-6.944783,3.662389,11.664107,1.198274,3.409877,3.775131,-0.126623,-0.618920,-2.224256,-0.069395,0.037470,0.116403,0.999933,-0.000633,-0.003095,-0.011121,0.255609,-0.200140,0.327658,0.887270,34.194089,31.510982,157.777513
47967,-7.896483,3.415440,11.800674,1.993906,3.181568,4.300191,0.019450,-1.207675,-2.500090,-0.079240,0.035132,0.117532,0.999904,0.000097,-0.006038,-0.012500,0.268638,-0.198816,0.323640,0.885191,33.232746,31.726477,155.930293
47968,-6.563764,4.599184,10.284268,0.469479,1.655008,3.111690,0.278898,-1.642703,-2.614444,-0.065872,0.046709,0.102367,0.999880,0.001394,-0.008213,-0.013072,0.283082,-0.195377,0.319982,0.882782,32.293021,31.743188,153.852443
47969,-5.626583,6.098376,8.698260,-0.971009,-0.167957,2.167948,0.334085,-1.788853,-2.583829,-0.056249,0.061566,0.086582,0.999875,0.001670,-0.008944,-0.012919,0.297604,-0.191101,0.316333,0.880253,31.371521,31.649297,151.742026
47970,-5.086622,6.753357,7.873335,-1.758101,-1.029117,1.559168,0.125956,-1.644078,-2.571978,-0.050638,0.068136,0.078359,0.999883,0.000630,-0.008220,-0.012859,0.311579,-0.187722,0.311897,0.877724,30.361696,31.594094,149.691206
47971,-6.903841,5.660656,8.515996,0.111209,-0.862331,2.494559,-0.117631,-1.603679,-2.503135,-0.069002,0.057520,0.084573,0.999889,-0.000588,-0.008018,-0.012515,0.324885,-0.184735,0.306470,0.875442,29.247443,31.505812,147.698285
47972,-8.388019,4.349414,9.703902,1.829608,-0.195249,3.605587,-0.065409,-1.811371,-2.515369,-0.084198,0.044583,0.096263,0.999880,-0.000327,-0.009056,-0.012576,0.338540,-0.180744,0.300833,0.873053,28.128980,31.284399,145.635904
47973,-9.963411,2.565314,11.789164,3.905268,1.116312,5.297708,0.038136,-2.304685,-2.660877,-0.100631,0.026965,0.116741,0.999845,0.000191,-0.011523,-0.013304,0.353568,-0.174580,0.294618,0.870466,26.967050,30.814947,143.348763
47974,-10.389265,2.067438,12.845530,4.485077,1.402688,6.159580,0.409004,-3.051323,-2.813223,-0.105534,0.021891,0.126897,0.999783,0.002045,-0.015256,-0.014065,0.370556,-0.164686,0.288433,0.867394,25.892750,29.964087,140.775855
47975,-9.241237,3.404694,12.557324,2.849315,0.593207,5.877596,0.663411,-3.760175,-2.960631,-0.094239,0.035020,0.123928,0.999708,0.003317,-0.018799,-0.014802,0.389221,-0.151360,0.281792,0.863823,24.889061,28.741277,137.961433
47976,-8.522354,4.288586,11.393598,1.877379,-0.673886,4.912654,0.786239,-4.283048,-2.982033,-0.086992,0.043731,0.112256,0.999652,0.003931,-0.021413,-0.014908,0.408563,-0.135489,0.274442,0.859884,23.967662,27.210697,135.053420
47977,-8.007424,6.370762,11.553608,0.051380,-1.822440,5.512021,0.895267,-4.702925,-2.863018,-0.081848,0.064359,0.113912,0.999611,0.004476,-0.023512,-0.014313,0.427738,-0.117309,0.266607,0.855687,23.202051,25.393629,132.177531
47978,-6.848916,8.275742,10.737015,-2.075898,-2.891766,4.951836,0.796977,-5.082016,-2.664945,-0.070086,0.083260,0.105934,0.999580,0.003984,-0.025407,-0.013323,0.446170,-0.097378,0.257417,0.851579,22.503664,23.300433,129.394872
47979,-5.830833,7.829506,9.586474,-2.284576,-2.975593,3.344537,0.560996,-5.173700,-2.339174,-0.059847,0.078723,0.094550,0.999593,0.002805,-0.025865,-0.011694,0.462846,-0.077063,0.246988,0.847839,21.860098,21.057717,126.849817
47980,-5.747138,8.029127,8.429284,-2.513615,-3.949606,2.295956,0.758294,-5.270609,-1.828463,-0.058936,0.080509,0.083057,0.999604,0.003791,-0.026350,-0.009141,0.477183,-0.055206,0.237148,0.844399,21.534102,18.636207,124.631370
47981,-4.075419,8.495831,7.254437,-3.854968,-3.701298,0.810253,0.628360,-5.201980,-1.367296,-0.042046,0.085017,0.071729,0.999633,0.003141,-0.026007,-0.006836,0.489091,-0.033341,0.226892,0.841545,21.321718,16.144312,122.729871
47982,-3.457245,6.254257,6.427579,-2.326465,-2.882623,-0.944050,0.528162,-5.004207,-0.950048,-0.035872,0.062542,0.063554,0.999672,0.002641,-0.025018,-0.004750,0.498663,-0.012073,0.216593,0.839212,21.206909,13.666997,121.132473
47983,-2.926053,6.443033,6.745290,-2.564514,-2.665060,-0.763564,0.694799,-4.843724,-0.690623,-0.030664,0.064301,0.066945,0.999695,0.003474,-0.024216,-0.003453,0.506666,0.009242,0.207288,0.836801,21.298416,11.220448,119.728240
47984,-1.289482,5.498211,6.284720,-2.533777,-1.288722,-1.856264,0.417780,-4.537986,-0.663245,-0.014136,0.054897,0.062651,0.999735,0.002089,-0.022688,-0.003316,0.513962,0.028585,0.197468,0.834286,21.301697,8.933401,118.413056
47985,-0.172563,3.469982,6.259933,-1.221857,0.267622,-2.763696,0.400333,-4.088918,-0.741112,-0.002877,0.034584,0.062618,0.999782,0.002002,-0.020443,-0.003705,0.520893,0.045934,0.188655,0.831246,21.354043,6.902069,117.156931
47986,-0.441890,4.468695,7.278940,-1.537741,-0.279968,-1.404381,0.500835,-3.735283,-0.753527,-0.005611,0.044524,0.072804,0.999815,0.002504,-0.018675,-0.003767,0.527309,0.062033,0.181099,0.827829,21.511638,5.064931,115.970242
47987,-0.998606,4.611925,7.743355,-1.151005,-0.929136,-0.866542,0.440722,-3.494597,-0.608795,-0.011198,0.045982,0.077346,0.999840,0.002203,-0.017472,-0.003044,0.532745,0.077100,0.173830,0.824634,21.682552,3.328210,114.909520
47988,-0.858113,4.765771,7.660464,-1.247529,-1.086952,-0.902633,0.379574,-3.359455,-0.409036,-0.009770,0.047532,0.076537,0.999855,0.001898,-0.016796,-0.002045,0.537101,0.091585,0.166531,0.821828,21.854474,1.624760,113.980886
47989,0.794792,4.579864,7.029089,-1.852014,0.188035,-1.594058,0.325817,-3.099647,-0.239058,0.006911,0.045675,0.070478,0.999878,0.001629,-0.015498,-0.001195,0.540424,0.104987,0.159594,0.819420,22.025837,0.025176,113.193583
47990,1.291297,2.738389,6.723034,-0.470783,1.107481,-2.538468,0.381950,-2.748487,-0.103847,0.012001,0.027249,0.067452,0.999904,0.001910,-0.013742,-0.000519,0.542765,0.117178,0.153724,0.817340,22.247311,-1.413963,112.548722
47991,-0.529157,3.103270,8.855870,0.808918,-0.605945,-0.468664,0.787404,-2.473824,0.015862,-0.006390,0.030683,0.088605,0.999916,0.003937,-0.012369,0.000079,0.544069,0.129427,0.150165,0.815284,22.713675,-2.730559,112.018157
47992,-6.462604,4.174652,11.892498,3.433927,-6.399643,2.347250,1.172425,-2.810078,0.185724,-0.066329,0.040991,0.118243,0.999884,0.005862,-0.014050,0.000929,0.544575,0.144185,0.147114,0.813023,23.412558,-4.256582,111.488056
47993,-1.555761,5.095331,8.540551,-0.247724,-2.720913,-0.125095,1.300300,-3.527777,0.348848,-0.017153,0.050369,0.085441,0.999822,0.006501,-0.017638,0.001744,0.544694,0.162297,0.142474,0.810352,24.211251,-6.189997,110.855526
47994,5.082762,4.072559,3.924353,-3.474413,3.383087,-3.956297,1.663578,-3.262615,0.658997,0.050041,0.040558,0.040402,0.999827,0.008317,-0.016312,0.003295,0.542881,0.180472,0.139723,0.808200,25.213640,-8.048351,110.417354
47995,3.695221,6.788762,4.853272,-4.626864,0.973941,-2.006823,2.067991,-2.580773,1.085198,0.035949,0.067575,0.049701,0.999849,0.010339,-0.012903,0.005426,0.538328,0.197244,0.140030,0.807272,26.407198,-9.653815,110.335455
47996,2.401767,7.744393,6.908857,-3.761237,-0.745371,0.125345,1.704766,-2.194014,1.519471,0.022667,0.077025,0.070000,0.999875,0.008523,-0.010970,0.007597,0.531891,0.211706,0.139462,0.807975,27.340384,-11.171662,110.560742
47997,-0.297878,4.463525,8.825895,0.980363,-2.129674,-0.200018,1.616268,-2.060561,1.927438,-0.004316,0.043883,0.088576,0.999868,0.008081,-0.010302,0.009637,0.523739,0.225645,0.138408,0.809707,28.171370,-12.734442,111.000731
47998,0.342726,3.912450,7.977172,1.013697,-1.494269,-1.106928,2.131752,-2.355410,2.314393,0.002038,0.038300,0.080212,0.999807,0.010658,-0.011776,0.011571,0.513402,0.242300,0.138209,0.811546,29.262748,-14.558110,111.543458
47999,3.891406,4.055771,5.713723,-1.322176,1.503116,-2.052298,2.568825,-2.239322,2.619633,0.037738,0.040315,0.058083,0.999769,0.012843,-0.011196,0.013097,0.501070,0.259735,0.139632,0.813615,30.546610,-16.422426,112.232746
48000,4.437226,4.190097,4.607441,-2.033059,1.771268,-2.657502,2.936785,-1.819848,2.919018,0.043336,0.041852,0.047087,0.999744,0.014683,-0.009098,0.014594,0.486435,0.276447,0.143172,0.816370,31.947137,-18.184515,113.177001
48001,4.736365,4.786514,5.450449,-1.858899,1.520202,-1.489447,3.154728,-1.397626,3.242560,0.046203,0.047749,0.055584,0.999720,0.015772,-0.006987,0.016211,0.469685,0.292069,0.148080,0.819856,33.359527,-19.865102,114.377314
48002,4.121898,5.123963,5.194619,-1.767676,0.630130,-1.645773,3.287159,-1.213843,3.465716,0.040013,0.051074,0.053032,0.999696,0.016434,-0.006069,0.017327,0.451346,0.307225,0.153578,0.823598,34.763172,-21.557002,115.732406
48003,5.529423,6.868932,5.430326,-3.052633,0.624130,0.062748,3.056656,-0.984217,3.438526,0.053841,0.068780,0.055621,0.999723,0.015282,-0.004921,0.017191,0.433104,0.320734,0.158571,0.827288,35.983128,-23.161431,117.119055
48004,6.623536,5.149057,4.590934,-2.806493,2.282704,-0.960160,2.761977,-0.417679,3.379161,0.065263,0.051957,0.046762,0.999760,0.013809,-0.002088,0.016894,0.414836,0.331033,0.163616,0.831600,36.935615,-24.508411,118.678497
48005,4.881002,5.651103,4.640548,-2.140513,0.393530,-1.294971,2.901581,-0.088538,3.417551,0.047822,0.056652,0.047248,0.999749,0.014507,-0.000443,0.017086,0.395775,0.340137,0.169750,0.835975,37.878120,-25.742428,120.364932
48006,6.018194,6.996628,3.762134,-3.826827,0.207561,-0.613277,2.739321,0.177521,3.462529,0.058999,0.070471,0.038532,0.999756,0.013695,0.000888,0.017311,0.376307,0.347665,0.175603,0.840646,38.641210,-26.895459,122.185394
48007,7.263063,6.379205,2.585308,-4.812758,1.252814,-1.129917,2.581074,0.759247,3.519965,0.071597,0.064720,0.026411,0.999755,0.012904,0.003796,0.017598,0.356251,0.352342,0.181669,0.846131,39.161375,-27.827740,124.262687
48008,6.747314,6.766770,2.618536,-4.629707,0.341694,-1.059726,2.586354,1.360505,3.631529,0.066414,0.068538,0.026614,0.999728,0.012931,0.006802,0.018156,0.334908,0.354395,0.188571,0.852456,39.511648,-28.548714,126.660992
48009,6.534804,7.479052,3.011731,-4.447360,-0.548336,-0.451943,2.615072,1.907236,3.822902,0.064197,0.075628,0.030487,0.999686,0.013074,0.009535,0.019113,0.312062,0.354148,0.196028,0.859517,39.692550,-29.107359,129.384967
48010,5.900826,8.317909,3.325231,-4.068627,-1.827752,-0.057605,2.743002,2.363260,4.136052,0.057674,0.083921,0.033713,0.999622,0.013713,0.011815,0.020678,0.286905,0.352198,0.204089,0.867173,39.748955,-29.585756,132.480229
48011,5.632709,10.082435,3.664568,-4.101264,-3.567277,1.015722,2.498730,2.839608,4.307394,0.054670,0.101552,0.037127,0.999589,0.012492,0.014196,0.021534,0.260799,0.347734,0.211278,0.875458,39.495912,-29.910791,135.867351
48012,5.079744,8.183370,4.126047,-2.682670,-2.616207,-0.027560,1.881598,3.234441,4.302943,0.049694,0.082523,0.041225,0.999594,0.009407,0.016170,0.021512,0.235156,0.340465,0.216121,0.884351,38.793038,-30.035576,139.426252
48013,5.601427,5.303051,3.945943,-2.364081,-0.292915,-1.482608,1.664543,3.544809,4.164719,0.055591,0.053866,0.038918,0.999592,0.008322,0.017722,0.020821,0.209965,0.331125,0.220423,0.893132,37.934491,-29.928252,143.044333
48014,3.655895,6.200167,5.760833,-0.019561,-1.711768,-0.753774,1.621350,3.781402,3.952309,0.036417,0.062256,0.057423,0.999593,0.008106,0.018904,0.019759,0.185285,0.320180,0.224986,0.901407,37.078573,-29.594119,146.644317
48015,2.267823,6.286246,6.900642,1.712308,-2.144893,-0.606920,1.403959,3.760965,3.834593,0.022771,0.062814,0.069020,0.999615,0.007019,0.018802,0.019171,0.161436,0.308739,0.228525,0.909063,36.160409,-29.179125,150.146159
48016,3.093791,4.562642,6.394552,0.978604,-0.496143,-1.441607,1.192413,3.617888,3.685011,0.031248,0.045820,0.063655,0.999649,0.005961,0.018087,0.018423,0.138639,0.297398,0.231058,0.915940,35.222159,-28.733074,153.489365
48017,3.726767,3.572866,5.902253,0.179328,0.392290,-1.983083,1.095679,3.747008,3.337457,0.037768,0.036035,0.058515,0.999670,0.005478,0.018733,0.016685,0.117332,0.284775,0.233588,0.922265,34.333070,-28.064278,156.669906
48018,2.444601,2.934521,6.480328,1.450949,0.692958,-2.464608,1.044647,3.803273,2.975769,0.025237,0.029379,0.064482,0.999695,0.005223,0.019014,0.014877,0.097627,0.271279,0.236290,0.927924,33.550061,-27.214093,159.641552
48019,2.758135,3.052299,6.561343,1.056539,0.736632,-2.176359,0.960269,3.675682,2.555837,0.028392,0.030569,0.065243,0.999738,0.004801,0.018377,0.012778,0.080077,0.257665,0.238967,0.932787,32.896448,-26.258471,162.308213
48020,3.309239,1.879901,5.894987,0.077549,1.639139,-2.990704,0.846093,3.726102,2.068983,0.033989,0.018900,0.058402,0.999764,0.004230,0.018629,0.010344,0.064846,0.243077,0.241645,0.937185,32.343708,-25.104950,164.694942
48021,2.848798,2.108706,6.095035,0.364339,1.416234,-2.915628,1.077433,3.815756,1.708104,0.029466,0.021009,0.060508,0.999767,0.005387,0.019077,0.008540,0.050885,0.227577,0.245755,0.940863,32.049871,-23.780117,166.887178
48022,1.432158,5.180054,7.688993,2.198611,-0.793574,-0.727719,1.322204,3.820872,1.542591,0.015394,0.051408,0.076943,0.999766,0.006611,0.019103,0.007712,0.037394,0.211824,0.251095,0.943760,31.988937,-22.398271,168.965655
48023,-0.556777,7.089536,9.910774,4.817720,-1.636259,1.273355,1.171429,3.494041,1.536747,-0.004372,0.070276,0.099604,0.999801,0.005857,0.017469,0.007683,0.024484,0.197467,0.255557,0.946096,31.932972,-21.169699,170.914225
48024,-0.307987,6.725059,10.375984,4.566229,-0.906213,1.646197,0.680792,2.954215,1.348348,-0.001996,0.066881,0.104023,0.999862,0.003404,0.014770,0.006741,0.013631,0.185310,0.257736,0.948181,31.734866,-20.144411,172.572006
48025,0.276935,3.624848,10.560836,3.672474,2.027240,0.538458,0.310613,2.527431,1.019993,0.003920,0.036102,0.105620,0.999906,0.001553,0.012637,0.005100,0.005224,0.174671,0.258372,0.950109,31.458374,-19.221035,173.909385
48026,0.300215,2.388441,10.854187,3.445132,3.299500,0.229668,0.420392,2.017709,0.642483,0.004021,0.023668,0.108555,0.999942,0.002102,0.010088,0.003212,-0.000827,0.165950,0.259810,0.951293,31.382410,-18.431119,174.880473
48027,1.444035,3.509608,10.556874,2.196658,2.331321,0.938484,0.452748,1.545553,0.272703,0.015208,0.034878,0.105532,0.999967,0.002264,0.007728,0.001363,-0.004534,0.158971,0.261682,0.951961,31.442528,-17.760701,175.509221
48028,3.308922,3.345217,9.327312,-0.099481,2.028980,0.434753,0.281855,1.316468,-0.089135,0.033717,0.033306,0.093100,0.999977,0.001409,0.006582,-0.000446,-0.006083,0.152609,0.263021,0.952625,31.489417,-17.095044,175.878960
48029,5.608406,1.812308,7.317000,-3.138551,2.507858,-1.319407,0.251144,1.340768,-0.417696,0.056611,0.017914,0.072814,0.999975,0.001256,0.006704,-0.002088,-0.006075,0.145688,0.264449,0.953313,31.569144,-16.319007,176.088281
48030,7.367826,0.944274,5.495050,-5.531823,2.457786,-2.832174,0.412506,1.740223,-0.810340,0.074190,0.009030,0.054325,0.999952,0.002062,0.008701,-0.004052,-0.004842,0.136334,0.266900,0.954020,31.764333,-15.231277,176.224322
48031,6.651866,1.717674,5.053215,-5.050011,1.547333,-3.117051,0.791651,2.318883,-1.131533,0.067194,0.016600,0.049822,0.999909,0.003958,0.011594,-0.005657,-0.003105,0.123758,0.271328,0.954492,32.173557,-13.764834,176.385641
48032,4.507097,4.314142,5.977629,-2.773280,-0.264283,-1.634001,1.047563,2.783491,-1.328807,0.046183,0.042525,0.059363,0.999867,0.005238,0.013917,-0.006644,-0.001217,0.108679,0.277028,0.954695,32.720005,-12.015982,176.606831
48033,2.663788,6.426767,6.746889,-0.953135,-1.665274,-0.313757,1.041441,3.043930,-1.419486,0.028117,0.063721,0.067381,0.999845,0.005207,0.015219,-0.007097,0.000749,0.092187,0.282672,0.954776,33.259942,-10.114282,176.882037
48034,0.956119,7.722230,7.819521,0.654962,-2.168620,0.983081,0.770423,3.149914,-1.486123,0.011366,0.076841,0.078322,0.999841,0.003852,0.015749,-0.007430,0.002922,0.075055,0.286968,0.954991,33.650998,-8.144900,177.182526
48035,-0.316411,7.159407,8.303405,1.606066,-1.414856,0.944219,0.438473,3.108782,-1.521004,-0.001328,0.071427,0.083221,0.999848,0.002192,0.015543,-0.007605,0.005530,0.058051,0.289599,0.955370,33.864584,-6.183770,177.452473
48036,-1.126555,6.575868,9.275063,2.142803,-0.380385,1.402906,0.102982,2.928347,-1.640657,-0.009366,0.065793,0.092931,0.999859,0.000515,0.014641,-0.008203,0.009065,0.041723,0.290571,0.955900,33.905162,-4.272424,177.610416
48037,-0.791763,5.309431,8.302004,1.370283,0.156128,-0.023443,-0.225038,2.703572,-1.879549,-0.006295,0.053252,0.083053,0.999864,-0.001125,0.013517,-0.009397,0.014136,0.026082,0.289935,0.956586,33.773922,-2.390122,177.581100
48038,-1.489217,3.802722,8.577255,1.786758,1.522105,-0.607779,-0.220750,2.686842,-2.003231,-0.013356,0.038261,0.085917,0.999859,-0.001104,0.013434,-0.010016,0.019733,0.010322,0.289256,0.956993,33.645879,-0.477844,177.492980
48039,-1.696612,2.955464,8.947747,1.737081,2.414705,-0.712132,-0.107865,2.450683,-2.220380,-0.015538,0.029781,0.089658,0.999863,-0.000539,0.012253,-0.011101,0.026784,-0.004601,0.289023,0.956936,33.577847,1.391764,177.213396
48040,-1.062494,2.272006,8.626316,0.861472,2.829272,-1.330281,-0.153230,2.415474,-2.554050,-0.009290,0.022911,0.086363,0.999845,-0.000766,0.012077,-0.012770,0.035389,-0.019858,0.288472,0.956628,33.466995,3.348648,176.769770
48041,-1.185268,-1.454125,8.375466,1.065984,5.775267,-3.553666,0.026075,2.472189,-2.989758,-0.011032,-0.014383,0.083893,0.999812,0.000130,0.012360,-0.014948,0.046087,-0.035960,0.288650,0.955649,33.428122,5.470715,176.121915
48042,-2.110441,-3.118144,6.609218,2.131069,6.108602,-5.812469,0.713534,2.429745,-3.704797,-0.020876,-0.031029,0.066236,0.999748,0.003567,0.012148,-0.018522,0.060281,-0.052734,0.291835,0.953109,33.716190,7.799544,175.128855
48043,-4.314631,-1.504242,7.025496,3.951597,4.822684,-4.212639,1.459171,2.602186,-4.377477,-0.042551,-0.014621,0.070704,0.999649,0.007295,0.013009,-0.021885,0.077673,-0.071038,0.298284,0.948655,34.349138,10.434876,173.871588
48044,-6.563276,-1.485484,5.545281,6.151028,3.680106,-4.847772,2.317351,2.482826,-4.827906,-0.065283,-0.013924,0.056100,0.999564,0.011585,0.012412,-0.024136,0.097541,-0.089079,0.308341,0.942060,35.367372,13.178583,172.395698
48045,-8.544392,2.971358,5.994330,6.703753,0.139418,-1.281062,3.014726,2.251604,-5.163941,-0.083969,0.030977,0.061355,0.999490,0.015071,0.011256,-0.025815,0.119649,-0.106103,0.321149,0.933429,36.666886,15.957845,170.709615
48046,-8.742677,10.005139,5.815124,4.277501,-5.328313,2.978060,2.348289,1.927479,-5.607600,-0.084016,0.101741,0.060160,0.999492,0.011739,0.009636,-0.028033,0.143793,-0.122650,0.330064,0.924845,37.413153,18.770975,168.731838
48047,-8.320661,15.122342,6.883845,1.025920,-8.256768,6.799908,0.828461,1.968207,-5.586659,-0.078259,0.153167,0.070257,0.999553,0.004142,0.009840,-0.027929,0.166785,-0.140295,0.331707,0.917862,37.199807,21.604086,166.750077
48048,-11.359517,9.923559,8.905865,4.605495,-3.874680,6.635573,-0.835565,1.802006,-4.526746,-0.110499,0.102134,0.089641,0.999695,-0.004177,0.009009,-0.022631,0.183900,-0.156710,0.326059,0.913952,36.101153,23.977324,165.163973
48049,-10.422034,6.652184,8.550706,4.636979,-1.752502,4.378471,-0.820830,0.701157,-3.516355,-0.102725,0.068688,0.085590,0.999831,-0.004104,0.003506,-0.017581,0.198116,-0.166353,0.320114,0.911375,34.980531,25.471341,163.618999
48050,-6.919667,-0.997955,6.915427,5.187481,3.371727,-2.169513,-0.401128,0.315416,-2.830212,-0.069218,-0.008861,0.069282,0.999897,-0.002006,0.001577,-0.014151,0.210120,-0.172693,0.316175,0.908879,34.145274,26.537490,162.249992
48051,-6.515688,-1.508757,6.222040,5.153761,3.271471,-3.017163,1.020903,0.048097,-2.852764,-0.065351,-0.014474,0.062161,0.999885,0.005104,0.000240,-0.014263,0.223829,-0.176309,0.318337,0.904144,34.045577,27.472600,160.751050
48052,-5.789629,4.890644,7.567289,0.916650,-0.123120,0.857120,1.575804,-0.145092,-2.804232,-0.057264,0.049114,0.076018,0.999870,0.007879,-0.000725,-0.014021,0.238065,-0.178329,0.322742,0.898533,34.215205,28.303160,159.196103
48053,-6.029588,8.925095,8.866793,-1.472110,-2.010975,3.913846,1.014016,-0.328296,-2.652913,-0.059255,0.089591,0.089024,0.999898,0.005070,-0.001641,-0.013264,0.251358,-0.179891,0.324480,0.893964,34.048532,28.996350,157.645062
48054,-4.838427,7.465321,8.528901,-1.759271,-0.859843,2.354729,0.051923,-0.445996,-2.556498,-0.047615,0.075243,0.085202,0.999916,0.000260,-0.002230,-0.012782,0.263502,-0.181964,0.321783,0.891017,33.310259,29.593792,156.087484
48055,-5.108843,2.451976,7.958074,1.346938,1.875757,-0.320099,-0.047786,-0.477375,-2.434467,-0.050975,0.025160,0.079453,0.999923,-0.000239,-0.002387,-0.012172,0.275017,-0.183786,0.318673,0.888277,32.522939,30.118230,154.569062
48056,-4.931508,4.339107,8.263951,-0.067559,0.862651,0.708296,0.478657,-0.617003,-2.321555,-0.049063,0.043764,0.082592,0.999925,0.002393,-0.003085,-0.011607,0.286698,-0.184072,0.317751,0.884848,32.024313,30.527272,153.050059
48057,-4.314657,7.611263,8.128438,-2.666000,-1.072196,1.778717,0.428693,-0.603586,-2.093265,-0.042593,0.076386,0.081319,0.999938,0.002143,-0.003018,-0.010466,0.297260,-0.184085,0.316807,0.881693,31.554240,30.861232,151.655850
48058,-4.306354,8.542244,7.998396,-3.369945,-1.737157,2.066429,0.021356,-0.515161,-1.661248,-0.042558,0.085769,0.079883,0.999962,0.000107,-0.002576,-0.008306,0.305376,-0.184405,0.314552,0.879657,30.981483,31.100419,150.530835
48059,-4.022347,7.749227,8.162893,-3.192980,-1.048338,1.657599,-0.309985,-0.310819,-1.256841,-0.039862,0.077870,0.081446,0.999978,-0.001550,-0.001554,-0.006284,0.311066,-0.185468,0.311520,0.878519,30.371369,31.310786,149.703784
48060,-5.314145,5.880414,8.970569,-1.200206,0.020482,2.097336,-0.458840,-0.218278,-0.965396,-0.052954,0.059266,0.089512,0.999985,-0.002294,-0.001091,-0.004827,0.315183,-0.186719,0.308226,0.877948,29.774137,31.476842,149.072446
48061,-6.158988,4.120281,9.775528,0.407031,1.175741,2.390652,-0.526261,-0.341771,-1.020845,-0.061544,0.041774,0.097541,0.999982,-0.002631,-0.001709,-0.005104,0.319659,-0.187602,0.304390,0.877479,29.098775,31.589952,148.365296
48062,-7.092000,0.987918,11.018583,2.960401,3.355838,2.542603,-0.588630,-0.643007,-1.420874,-0.071200,0.010708,0.109927,0.999965,-0.002943,-0.003215,-0.007104,0.326276,-0.187873,0.299396,0.876704,28.208862,31.654068,147.321771
48063,-6.727020,0.680102,10.163377,2.999167,2.998830,1.633686,0.104683,-1.111434,-1.624392,-0.067776,0.007297,0.101262,0.999951,0.000523,-0.005557,-0.008122,0.335107,-0.185238,0.296473,0.874925,27.577646,31.522924,146.009895
48064,-5.516427,4.569893,9.663123,-0.489352,0.803096,2.179220,0.494867,-1.292253,-1.629135,-0.055414,0.045911,0.096387,0.999943,0.002474,-0.006461,-0.008146,0.344557,-0.181159,0.294901,0.872637,27.142494,31.291444,144.642592
48065,-5.532374,5.806414,9.699274,-1.356281,0.008245,2.699602,0.349615,-1.308313,-1.587581,-0.055495,0.058335,0.096732,0.999946,0.001748,-0.006541,-0.007938,0.353676,-0.177165,0.292689,0.870551,26.645060,31.030676,143.301897
48066,-6.507434,5.267567,10.742417,-0.409440,0.374777,3.795543,0.239049,-1.429182,-1.590702,-0.065419,0.053067,0.107021,0.999942,0.001195,-0.007146,-0.007953,0.362851,-0.172836,0.289730,0.868633,26.071941,30.698508,141.929738
48067,-8.794156,3.804657,12.482437,2.067120,0.896988,5.761040,0.241676,-1.819416,-1.708133,-0.088744,0.038652,0.124066,0.999921,0.001208,-0.009097,-0.008540,0.373051,-0.166944,0.285950,0.866715,25.424104,30.181070,140.385668
48068,-9.611636,3.143117,13.683873,3.087140,1.245669,6.873110,0.463932,-2.601404,-1.932613,-0.097578,0.032054,0.135650,0.999866,0.002320,-0.013006,-0.009663,0.385451,-0.157545,0.281409,0.864532,24.750969,29.297501,138.505686
48069,-8.459726,2.866139,12.835663,2.736404,1.144170,5.540537,0.664767,-3.310000,-2.161072,-0.086394,0.029165,0.127033,0.999799,0.003324,-0.016549,-0.010805,0.399861,-0.144954,0.276114,0.861893,24.083561,28.078783,136.330479
48070,-7.419833,3.865510,11.153167,1.530302,-0.148743,4.044093,1.019485,-3.814518,-2.135892,-0.075895,0.038895,0.110293,0.999748,0.005097,-0.019071,-0.010679,0.414938,-0.129393,0.271212,0.858795,23.627090,26.571641,134.078616
48071,-6.078940,7.269334,9.819602,-1.810118,-2.111762,3.546848,1.040587,-4.095093,-1.985573,-0.062066,0.072797,0.097312,0.999728,0.005202,-0.020474,-0.009927,0.429543,-0.112299,0.265794,0.855707,23.268350,24.868058,131.887546
48072,-4.847539,7.707147,8.505855,-2.842897,-2.481765,2.061716,0.512581,-4.039941,-1.825542,-0.049478,0.077303,0.084264,0.999751,0.002563,-0.020198,-0.009127,0.442872,-0.096316,0.258167,0.853192,22.724934,23.142664,129.846692
48073,-7.435856,5.796010,8.922509,0.333578,-3.492210,2.684394,0.503921,-4.057230,-1.423754,-0.075736,0.058274,0.087845,0.999766,0.002519,-0.020285,-0.007118,0.454289,-0.079700,0.250554,0.851171,22.339159,21.304503,128.074141
48074,-8.617263,8.387519,10.105214,-0.871450,-5.380139,4.918114,0.550779,-4.542140,-1.112141,-0.087974,0.084086,0.099299,0.999723,0.002754,-0.022709,-0.005560,0.464775,-0.060496,0.242018,0.849560,22.069984,19.132747,126.400711
48075,-6.412932,6.226753,8.638665,-0.394398,-3.869366,1.993151,-0.002716,-4.871028,-0.961971,-0.065907,0.062583,0.084795,0.999692,-0.000014,-0.024353,-0.004809,0.474580,-0.040952,0.230288,0.848566,21.564007,16.743032,124.776330
48076,-3.102071,3.981172,6.308578,-0.598634,-1.637932,-1.924612,0.026995,-4.834916,-0.975982,-0.032339,0.039959,0.062320,0.999696,0.000135,-0.024172,-0.004879,0.484118,-0.021495,0.218614,0.846980,21.148714,14.364039,123.192168
48077,-0.828092,2.403678,5.044606,-0.622462,0.167921,-4.200870,0.155798,-4.401131,-1.073051,-0.009259,0.024046,0.050268,0.999743,0.000779,-0.022004,-0.005365,0.493335,-0.003643,0.208413,0.844495,20.885415,12.227166,121.676763
48078,-2.140258,2.821227,6.769212,0.157407,-0.681719,-2.205612,0.696886,-3.960376,-1.057739,-0.022590,0.028095,0.067351,0.999784,0.003484,-0.019800,-0.005288,0.501805,0.013687,0.201476,0.841078,21.005116,10.322007,120.276160
48079,-5.128987,5.845379,9.269371,-0.189934,-3.923354,1.630942,0.955297,-4.029607,-0.859333,-0.052897,0.058238,0.091917,0.999776,0.004776,-0.020147,-0.004296,0.509271,0.032164,0.195359,0.837522,21.336588,8.343426,118.969395
48080,-4.513552,6.738596,9.909317,-0.900908,-3.895729,2.351716,0.783496,-4.300946,-0.588599,-0.047058,0.067136,0.098358,0.999757,0.003917,-0.021503,-0.002943,0.515659,0.051574,0.187690,0.834391,21.625521,6.171432,117.747066
48081,-1.785815,4.714621,8.148194,-0.767021,-1.476244,-0.377017,0.698327,-4.446438,-0.354829,-0.019583,0.046896,0.081223,0.999745,0.003491,-0.022230,-0.001774,0.520973,0.071579,0.179144,0.831487,21.922301,3.877530,116.612340
48082,1.045040,3.301078,6.542418,-1.144112,0.996454,-2.568124,0.975469,-4.167197,-0.121621,0.009102,0.032685,0.065783,0.999771,0.004877,-0.020834,-0.000608,0.524645,0.091290,0.172312,0.828687,22.429183,1.690659,115.659170
48083,-1.178052,3.989123,7.593419,-0.181277,-1.288293,-1.253570,1.789356,-3.931863,0.371900,-0.013348,0.039187,0.076035,0.999765,0.008946,-0.019658,0.001859,0.525525,0.112575,0.169161,0.826157,23.443323,-0.470514,114.980802
48084,-3.500144,6.981293,9.117607,-0.785513,-4.578866,1.255897,2.549168,-4.100536,1.168275,-0.037275,0.068436,0.091306,0.999692,0.012745,-0.020501,0.005841,0.522475,0.137134,0.168174,0.824580,24.909117,-2.890247,114.642745
48085,-0.544132,8.742809,7.437017,-3.689986,-3.141278,0.605168,2.566040,-4.416346,1.841244,-0.007896,0.086400,0.075327,0.999632,0.012829,-0.022079,0.009205,0.516622,0.163542,0.165850,0.823924,26.386148,-5.631471,114.501292
48086,3.916182,6.436924,5.917434,-3.982969,1.368045,-1.208484,2.086769,-3.867258,2.261477,0.037273,0.064171,0.060578,0.999695,0.010433,-0.019334,0.011306,0.508556,0.186660,0.162533,0.824689,27.558794,-8.195925,114.665538
48087,-0.611567,4.168680,7.665100,0.802067,-1.868122,-1.306369,2.208904,-3.507026,2.563178,-0.007990,0.040743,0.076975,0.999703,0.011043,-0.017533,0.012815,0.498602,0.208765,0.160240,0.825915,28.762565,-10.664242,115.019708
48088,2.830389,4.000155,5.396263,-1.342304,0.899852,-2.705737,2.499758,-3.678289,2.791677,0.026744,0.039699,0.054962,0.999655,0.012497,-0.018389,0.013957,0.487150,0.232325,0.158404,0.826812,30.114296,-13.287967,115.397986
48089,7.503416,2.993125,3.729928,-3.233162,5.196358,-3.354757,2.718088,-2.942644,2.947900,0.074024,0.030507,0.038805,0.999691,0.013589,-0.014712,0.014738,0.473966,0.253374,0.158954,0.828186,31.515943,-15.605016,116.006870
48090,3.809983,3.374090,5.426851,-0.771292,1.649325,-2.599620,3.095482,-2.252962,3.246069,0.036936,0.033497,0.055209,0.999685,0.015476,-0.011264,0.016229,0.458155,0.272518,0.162250,0.830363,33.020487,-17.692396,116.941889
48091,4.649500,5.410315,4.164763,-3.002155,1.051175,-2.190142,3.317744,-2.199769,3.597326,0.045052,0.054216,0.043047,0.999640,0.016587,-0.010998,0.017984,0.440300,0.292073,0.165978,0.832634,34.572524,-19.890259,118.013238
48092,8.376814,4.906084,3.029976,-4.838082,4.127791,-1.877840,2.972740,-1.431842,3.657305,0.082635,0.050115,0.031634,0.999697,0.014862,-0.007158,0.018285,0.421699,0.307509,0.169792,0.835930,35.799208,-21.771685,119.352466
48093,6.916300,3.743228,2.485195,-3.731960,3.350374,-3.265618,3.058878,-0.497526,3.724950,0.068392,0.038323,0.025604,0.999707,0.015293,-0.002487,0.018623,0.401709,0.319115,0.175703,0.840193,36.904297,-23.270507,121.032875
48094,4.936859,7.672944,4.012448,-3.798494,-0.810050,-0.633974,3.244054,-0.028089,3.851781,0.047882,0.076997,0.041379,0.999683,0.016219,-0.000140,0.019257,0.380159,0.329023,0.183053,0.844816,37.984474,-24.629532,122.951670
48095,4.796006,8.566805,4.473427,-3.587871,-1.728874,0.213686,2.842175,0.342529,3.961466,0.046337,0.085950,0.045874,0.999701,0.014209,0.001712,0.019805,0.358307,0.336513,0.189089,0.850071,38.710643,-25.888161,125.056997
48096,5.967989,7.036793,3.516259,-3.900489,-0.188128,-0.744118,2.651473,0.655753,4.026418,0.058371,0.071079,0.035909,0.999704,0.013256,0.003278,0.020130,0.335916,0.342181,0.194687,0.855669,39.214921,-27.051461,127.336580
48097,6.420503,8.046886,3.629461,-4.339421,-0.848758,0.166661,2.438120,1.221813,3.986860,0.062814,0.081283,0.036896,0.999708,0.012189,0.006108,0.019932,0.313385,0.344840,0.200243,0.861846,39.455700,-27.962317,129.831277
48098,5.273943,7.919667,4.653343,-2.750253,-1.669164,0.278551,1.922871,1.676546,3.947746,0.051560,0.079773,0.046863,0.999724,0.009613,0.008382,0.019737,0.291201,0.344490,0.204280,0.868791,39.283529,-28.659714,132.520989
48099,6.702849,6.067131,4.006073,-3.317403,0.293385,-0.501931,1.644222,2.040453,3.944377,0.066226,0.061654,0.039887,0.999720,0.008220,0.010201,0.019720,0.269053,0.341965,0.207494,0.876137,38.843773,-29.180517,135.370005
48100,5.247563,5.603970,4.265326,-2.067005,-0.420131,-1.287292,1.855291,2.515219,4.166295,0.051834,0.056729,0.042523,0.999661,0.009275,0.012575,0.020829,0.244914,0.337678,0.211768,0.883824,38.347698,-29.548898,138.543531
48101,4.855047,7.261077,4.126232,-2.328396,-2.186619,-0.696048,1.931999,2.718342,4.284572,0.047547,0.073238,0.041317,0.999632,0.009659,0.013590,0.021420,0.219734,0.332458,0.216274,0.891299,37.799404,-29.840950,141.876585
48102,3.581943,7.535318,5.068533,-0.783646,-3.043398,-0.570257,1.422615,3.143345,4.165059,0.035041,0.075728,0.050668,0.999634,0.007112,0.015715,0.020823,0.195314,0.324430,0.219024,0.899236,36.895238,-29.862669,145.324855
48103,1.638149,5.195040,5.955467,1.737305,-1.906502,-2.165037,1.053926,3.174643,4.019577,0.016283,0.051964,0.059570,0.999658,0.005269,0.015871,0.020096,0.171971,0.315494,0.220220,0.906859,35.812656,-29.767029,148.708222
48104,2.176109,4.226065,5.847209,1.422384,-0.892980,-2.466657,0.921945,3.105432,3.643981,0.021896,0.042390,0.058328,0.999703,0.004609,0.015526,0.018218,0.150507,0.306161,0.221219,0.913605,34.782463,-29.526794,151.853190
48105,1.942410,2.897677,6.534310,2.138285,0.358354,-2.729976,0.599640,3.124168,3.243774,0.019971,0.029102,0.065121,0.999742,0.002998,0.015619,0.016217,0.131258,0.295869,0.221241,0.919938,33.692297,-29.096555,154.773265
48106,2.676330,2.093597,6.302441,1.376208,1.253734,-2.899008,0.703301,3.047892,2.947713,0.027410,0.021116,0.062684,0.999769,0.003516,0.015238,0.014737,0.113159,0.285520,0.222052,0.925400,32.787070,-28.567044,157.490047
48107,3.031133,2.496918,6.078489,0.780197,0.930729,-2.678707,0.869592,3.139743,2.780127,0.030913,0.025133,0.060412,0.999771,0.004348,0.015698,0.013900,0.095522,0.274527,0.223787,0.930285,32.039763,-27.906030,160.114021
48108,2.875082,4.139472,6.114456,0.715300,-0.564547,-1.941438,0.944283,3.255219,2.621009,0.029200,0.041488,0.060867,0.999771,0.004721,0.016275,0.013104,0.078350,0.262742,0.226047,0.934735,31.400810,-27.114338,162.661898
48109,2.388078,4.399277,6.273881,1.098662,-0.867444,-1.909675,0.830367,3.322256,2.439861,0.024384,0.044028,0.062519,0.999779,0.004152,0.016610,0.012198,0.062062,0.250262,0.227930,0.938917,30.776433,-26.209811,165.104469
48110,2.912513,4.256500,6.303472,0.539708,-0.617341,-1.709575,0.702764,3.296048,2.221565,0.029687,0.042672,0.062698,0.999796,0.003514,0.016479,0.011107,0.046964,0.237525,0.229390,0.942739,30.185166,-25.233082,167.387480
48111,2.935340,3.782247,6.298135,0.364783,-0.214625,-1.912881,0.669923,3.394177,2.032729,0.030033,0.037915,0.062602,0.999799,0.003349,0.016970,0.010163,0.032661,0.223990,0.230842,0.946295,29.653901,-24.132145,169.569101
48112,0.977767,5.330691,8.216290,2.875413,-1.088719,-0.462612,0.693003,3.265153,1.866266,0.010623,0.053119,0.082178,0.999817,0.003465,0.016325,0.009331,0.019258,0.210805,0.232487,0.949284,29.239020,-23.033789,171.590848
48113,0.785713,4.972551,9.311200,3.308159,-0.278601,0.238050,0.207133,2.927578,1.550232,0.008834,0.049695,0.093039,0.999862,0.001036,0.014637,0.007751,0.008251,0.198727,0.232044,0.952153,28.693513,-22.000099,173.314627
48114,1.411954,1.521188,9.314095,2.266866,2.874871,-1.000646,-0.040593,2.597121,1.136519,0.015241,0.015315,0.092945,0.999900,-0.000203,0.012985,0.005682,-0.000157,0.187694,0.230773,0.954733,28.161642,-21.006134,174.693915
48115,1.554432,0.756128,9.423870,1.893304,3.617879,-1.145515,0.242764,2.288689,0.746631,0.016593,0.007508,0.094062,0.999927,0.001214,0.011443,0.003733,-0.006616,0.177641,0.231172,0.956535,27.923358,-20.053582,175.758566
48116,1.690824,2.978909,9.651783,1.860588,1.769457,0.101652,0.538918,2.005900,0.531788,0.017797,0.029576,0.096422,0.999943,0.002695,0.010029,0.002659,-0.011982,0.168666,0.233162,0.957624,27.939843,-19.185294,176.618666
48117,2.541726,4.405642,9.107111,0.869934,0.336040,0.576633,0.554748,1.786825,0.469466,0.026127,0.043865,0.090962,0.999953,0.002774,0.008934,0.002347,-0.016807,0.160642,0.235265,0.958416,28.008352,-18.411030,177.380049
48118,3.781724,4.427638,7.912436,-0.797857,-0.158115,-0.022433,0.471733,1.740709,0.404524,0.038415,0.044167,0.078896,0.999957,0.002359,0.008703,0.002023,-0.021198,0.152760,0.237008,0.959188,28.054958,-17.643812,178.090997
48119,4.170043,3.235324,7.178154,-1.642746,0.573468,-1.074645,0.530794,1.834086,0.272249,0.042313,0.032221,0.071481,0.999954,0.002654,0.009170,0.001361,-0.025109,0.144249,0.239101,0.959892,28.158093,-16.794098,178.756467
48120,4.044416,2.882766,7.304655,-1.672581,0.948210,-1.191374,0.652376,1.871858,0.066525,0.041116,0.028604,0.072757,0.999951,0.003262,0.009359,0.000333,-0.028163,0.135288,0.241901,0.960410,28.368719,-15.871946,179.323491
48121,4.438210,2.012041,6.834792,-2.424016,1.516518,-1.920769,0.763126,1.946821,-0.251285,0.045070,0.019804,0.067987,0.999945,0.003816,0.009734,-0.001256,-0.029854,0.125546,0.245410,0.960792,28.689648,-14.826938,179.747832
48122,4.992915,1.062870,6.415644,-3.332439,2.178269,-2.645669,0.923759,2.153088,-0.629127,0.050649,0.010175,0.063661,0.999926,0.004619,0.010765,-0.003146,-0.030080,0.114320,0.249866,0.961037,29.143235,-13.577630,-179.959565
48123,4.844694,1.168734,6.054079,-3.431113,1.952227,-3.037671,1.196059,2.458402,-1.015452,0.049244,0.011079,0.060006,0.999894,0.005980,0.012292,-0.005077,-0.028981,0.101073,0.255760,0.961005,29.781520,-12.068876,-179.765604
48124,3.775390,3.114595,6.657533,-2.287646,0.641310,-1.899031,1.415947,2.812441,-1.346331,0.038893,0.030417,0.066251,0.999853,0.007079,0.014062,-0.006731,-0.026850,0.085659,0.262760,0.960676,30.559822,-10.293524,-179.617241
48125,2.336977,4.886946,7.718863,-0.827461,-0.229168,-0.422404,1.372800,3.073337,-1.572196,0.024936,0.048148,0.077146,0.999827,0.006864,0.015366,-0.007861,-0.023949,0.068660,0.269533,0.960242,31.320246,-8.323952,-179.479918
48126,0.790891,6.761424,9.039612,0.653726,-1.006918,1.439017,1.157653,3.149799,-1.730364,0.009917,0.067010,0.090640,0.999822,0.005788,0.015748,-0.008651,-0.020395,0.051074,0.275226,0.959805,31.965831,-6.273192,-179.363878
48127,-0.461326,7.229279,9.810392,1.582576,-0.876115,2.246779,0.748715,3.072977,-1.794186,-0.002456,0.071953,0.098423,0.999835,0.003743,0.015364,-0.008970,-0.016232,0.033801,0.278883,0.959593,32.384407,-4.239433,-179.293409
48128,-1.047280,6.548844,10.125605,1.732042,-0.060954,2.166203,0.403155,2.914061,-1.802790,-0.008405,0.065366,0.101520,0.999851,0.002016,0.014570,-0.009014,-0.011827,0.017286,0.280811,0.959535,32.609696,-2.281895,-179.255159
48129,-1.581130,5.530958,10.318666,1.844033,0.934578,1.818316,0.170455,2.653449,-1.899341,-0.013915,0.055360,0.103427,0.999867,0.000852,0.013267,-0.009496,-0.006486,0.001904,0.281564,0.959519,32.705569,-0.418654,-179.348312
48130,-1.850787,4.921116,10.517381,1.742040,1.558845,1.710459,0.012994,2.365911,-2.059699,-0.016754,0.049383,0.105382,0.999877,0.000065,0.011829,-0.010298,-0.000051,-0.012332,0.281499,0.959482,32.706746,1.354342,-179.596455
48131,-1.606660,2.978520,10.087461,1.206683,2.932459,0.343470,-0.261121,2.037602,-2.453370,-0.014670,0.030103,0.100990,0.999872,-0.001306,0.010188,-0.012266,0.008802,-0.025531,0.280026,0.959612,32.531701,3.091448,179.851196
48132,-1.024645,2.332011,8.862352,0.432523,2.766419,-1.027274,-0.561645,1.986678,-3.202787,-0.008988,0.023720,0.088651,0.999819,-0.002808,0.009933,-0.016013,0.021195,-0.039555,0.276919,0.959845,32.138680,5.029739,178.919689
48133,-3.281828,-0.045451,9.778061,2.536112,5.132587,-1.233579,-0.645409,2.038131,-3.765417,-0.031817,0.000467,0.098108,0.999766,-0.003227,0.010190,-0.018826,0.036277,-0.054583,0.273196,0.959723,31.635406,7.157079,177.700624
48134,-4.809602,-2.152369,9.860324,4.088231,6.773698,-1.914019,-0.190362,1.730268,-4.290358,-0.047686,-0.020404,0.099037,0.999732,-0.000952,0.008651,-0.021450,0.054320,-0.068756,0.271305,0.958496,31.293399,9.281115,176.117569
