PacketCounter,Acc_X,Acc_Y,Acc_Z,FreeAcc_E,FreeAcc_N,FreeAcc_U,Gyr_X,Gyr_Y,Gyr_Z,VelInc_X,VelInc_Y,VelInc_Z,OriInc_q0,OriInc_q1,OriInc_q2,OriInc_q3,Quat_q0,Quat_q1,Quat_q2,Quat_q3,Roll,Pitch,Yaw
43222,-0.151508,8.746961,8.956821,-1.236214,0.174106,2.645142,0.229059,1.618841,2.766640,-0.001998,0.087342,0.089683,0.999871,0.001145,0.008094,0.013833,0.211142,0.028063,0.366737,0.905613,42.826722,5.971783,156.095827
43223,-0.668299,8.733129,8.990852,-0.654107,-0.010736,2.722097,0.121480,1.598150,2.688804,-0.007137,0.087183,0.090017,0.999878,0.000607,0.007990,0.013443,0.195966,0.025903,0.368516,0.908362,43.069846,5.587973,157.858247
43224,-1.415460,8.371184,9.005263,0.251954,-0.043882,2.561035,-0.015988,1.535275,2.552608,-0.014530,0.083535,0.090157,0.999889,-0.000080,0.007676,0.012763,0.181486,0.023661,0.369537,0.911013,43.214960,5.222351,159.536517
43225,-2.068433,7.931035,9.033727,1.082812,0.050176,2.336901,-0.133110,1.394020,2.355088,-0.020987,0.079125,0.090430,0.999906,-0.000666,0.006970,0.011775,0.168154,0.021562,0.369847,0.913495,43.270064,4.875344,161.074539
43226,-2.650783,7.546906,9.193113,1.836101,0.241805,2.231635,-0.221329,1.182820,2.098776,-0.026755,0.075291,0.092005,0.999927,-0.001107,0.005914,0.010494,0.156353,0.019899,0.369538,0.915751,43.249748,4.537554,162.421362
43227,-2.936523,7.313831,9.465142,2.269444,0.506549,2.282642,-0.305230,0.877904,1.809651,-0.029611,0.073016,0.094670,0.999948,-0.001526,0.004389,0.009048,0.146439,0.019007,0.368593,0.917787,43.154972,4.190013,163.526622
43228,-3.135409,7.035952,9.724436,2.622905,0.808096,2.285541,-0.375433,0.503302,1.491782,-0.031634,0.070307,0.097192,0.999967,-0.001877,0.002516,0.007459,0.138659,0.019215,0.367045,0.919610,42.993198,3.809991,164.352035
43229,-2.852549,6.589955,9.787689,2.523873,1.203692,2.000193,-0.467608,0.086722,1.141673,-0.028860,0.065964,0.097735,0.999981,-0.002338,0.000434,0.005708,0.133264,0.020611,0.364803,0.921268,42.753729,3.396972,164.868182
43230,-2.629332,5.889827,9.799474,2.534061,1.704824,1.514475,-0.457724,-0.301457,0.824743,-0.026684,0.059013,0.097820,0.999988,-0.002289,-0.001507,0.004124,0.130024,0.023240,0.362363,0.922631,42.499862,2.943290,165.101393
43231,-2.641660,5.730358,9.675751,2.642118,1.669571,1.307847,-0.330738,-0.717307,0.555341,-0.026922,0.057389,0.096567,0.999988,-0.001654,-0.003587,0.002777,0.128770,0.027364,0.360267,0.923514,42.304491,2.420887,165.061138
43232,-2.333563,6.106159,9.356837,2.316317,1.204088,1.298771,-0.272584,-1.109822,0.310454,-0.023949,0.061152,0.093353,0.999982,-0.001363,-0.005549,0.001552,0.129334,0.032911,0.358201,0.924057,42.132629,1.824170,164.767571
43233,-1.845065,6.002362,8.811677,1.896849,0.974569,0.795273,-0.244492,-1.432463,0.098397,-0.019110,0.060122,0.087908,0.999973,-0.001222,-0.007162,0.000492,0.131454,0.039571,0.356084,0.924315,41.975323,1.172647,164.261503
43234,-1.347942,5.811976,8.048399,1.448772,0.678173,0.077327,-0.164577,-1.651708,-0.067120,-0.014124,0.058191,0.080321,0.999966,-0.000823,-0.008258,-0.000336,0.134698,0.047011,0.354193,0.924226,41.866494,0.488164,163.602791
43235,-1.012964,6.054103,7.523914,1.094785,0.202482,-0.166618,-0.054255,-1.799210,-0.176249,-0.010752,0.060571,0.075128,0.999959,-0.000271,-0.008996,-0.000881,0.138678,0.054999,0.352721,0.923759,41.829618,-0.216725,162.841830
43236,-0.452463,6.519911,7.020043,0.469924,-0.333895,-0.238686,-0.006503,-1.885819,-0.232731,-0.005110,0.065207,0.070152,0.999955,-0.000033,-0.009429,-0.001164,0.143040,0.063326,0.351385,0.923070,41.829105,-0.938793,162.024105
43237,-0.074572,6.840674,6.528264,0.037436,-0.795999,-0.390231,-0.028124,-1.880583,-0.265893,-0.001268,0.068417,0.065263,0.999955,-0.000141,-0.009403,-0.001329,0.147546,0.071539,0.349941,0.922309,41.827719,-1.644432,161.193811
43238,0.199012,6.851471,6.069436,-0.239997,-1.039039,-0.719700,-0.093825,-1.828420,-0.289568,0.001535,0.068541,0.060678,0.999957,-0.000469,-0.009142,-0.001448,0.152075,0.079425,0.348202,0.921586,41.797427,-2.320473,160.373509
43239,0.152333,6.684116,5.658254,-0.184501,-1.225465,-1.142039,-0.121201,-1.697798,-0.272419,0.001134,0.066874,0.056553,0.999963,-0.000606,-0.008489,-0.001362,0.156301,0.086702,0.346410,0.920898,41.759065,-2.946245,159.610224
43240,0.005650,6.458718,5.318537,-0.019627,-1.358057,-1.556975,-0.092933,-1.588470,-0.215864,-0.000296,0.064612,0.053154,0.999968,-0.000465,-0.007942,-0.001079,0.160049,0.093600,0.344777,0.920191,41.740607,-3.548711,158.913068
43241,0.245249,6.561023,4.987208,-0.299756,-1.574025,-1.724938,-0.057622,-1.430421,-0.150876,0.002145,0.065623,0.049869,0.999974,-0.000288,-0.007152,-0.000754,0.163206,0.099895,0.343391,0.919493,41.744294,-4.107014,158.303575
43242,0.065007,6.546922,4.870380,-0.108402,-1.724754,-1.837714,-0.017142,-1.237616,-0.029846,0.000358,0.065473,0.048701,0.999981,-0.000086,-0.006188,-0.000149,0.165441,0.105551,0.342265,0.918881,41.766880,-4.630366,157.819420
43243,-0.033449,6.604631,4.808483,0.004305,-1.861794,-1.857991,0.024434,-1.070747,0.096960,-0.000624,0.066040,0.048090,0.999986,0.000122,-0.005354,0.000485,0.166787,0.110677,0.341397,0.918358,41.808086,-5.129155,157.452720
43244,0.153242,6.633142,4.692373,-0.157867,-1.901156,-1.913267,-0.013180,-0.889188,0.205897,0.001256,0.066336,0.046925,0.999990,-0.000066,-0.004446,0.001029,0.167334,0.115132,0.340434,0.918068,41.819728,-5.593182,157.202062
43245,0.106189,6.308696,4.599877,-0.024352,-1.766287,-2.206819,-0.090869,-0.678482,0.256490,0.000825,0.063109,0.045973,0.999993,-0.000454,-0.003392,0.001282,0.167337,0.118628,0.339261,0.918057,41.778635,-5.985269,157.053773
43246,-0.025794,6.043264,4.709888,0.229199,-1.589744,-2.321039,-0.157688,-0.473922,0.265855,-0.000450,0.060469,0.047050,0.999996,-0.000788,-0.002370,0.001329,0.166983,0.121154,0.337940,0.918278,41.691285,-6.294859,156.988438
43247,-0.386530,5.841223,5.057121,0.747001,-1.411644,-2.243479,-0.233707,-0.321642,0.251171,-0.004020,0.058466,0.050497,0.999997,-0.001169,-0.001608,0.001256,0.166489,0.122882,0.336406,0.918702,41.554833,-6.532538,156.975557
43248,-0.412235,5.420367,5.333897,0.975214,-0.989537,-2.324666,-0.297931,-0.232813,0.211771,-0.004242,0.054279,0.053253,0.999998,-0.001490,-0.001164,0.001059,0.166061,0.124090,0.334672,0.919250,41.379754,-6.718241,156.980278
43249,-0.354397,4.902136,5.494963,1.101542,-0.530306,-2.542442,-0.311397,-0.158083,0.144957,-0.003623,0.049104,0.054870,0.999998,-0.001557,-0.000790,0.000725,0.165827,0.124822,0.332980,0.919807,41.196790,-6.845419,156.985008
43250,-0.445854,4.737389,5.775239,1.320369,-0.311640,-2.453714,-0.261754,-0.104543,0.061976,-0.004503,0.047448,0.057688,0.999999,-0.001309,-0.000523,0.000310,0.165851,0.125219,0.331610,0.920244,41.044291,-6.919106,156.974391
43251,-0.715852,4.666941,6.077922,1.686589,-0.211915,-2.306396,-0.167135,-0.085671,0.020500,-0.007189,0.046719,0.060737,1.000000,-0.000836,-0.000428,0.000103,0.165978,0.125530,0.330718,0.920499,40.947132,-6.968165,156.952977
43252,-0.883718,4.944780,6.375487,1.883842,-0.321603,-1.924320,-0.038382,-0.132003,0.025424,-0.008886,0.049459,0.063740,1.000000,-0.000192,-0.000660,0.000127,0.166075,0.126176,0.330376,0.920516,40.925772,-7.039842,156.916260
43253,-0.551679,5.379962,6.472235,1.527370,-0.460872,-1.530605,0.005685,-0.201862,0.020844,-0.005588,0.053797,0.064718,0.999999,0.000028,-0.001009,0.000104,0.166283,0.127166,0.330182,0.920412,40.933084,-7.139352,156.851096
43254,-0.271025,5.422002,6.457137,1.269179,-0.397749,-1.482193,-0.022956,-0.217554,-0.013222,-0.002777,0.054228,0.064562,0.999999,-0.000115,-0.001088,-0.000066,0.166691,0.128152,0.329864,0.920316,40.926797,-7.233325,156.765134
43255,-0.069948,5.297457,6.350465,1.086792,-0.296814,-1.619573,-0.038770,-0.222907,-0.066465,-0.000753,0.052987,0.063494,0.999999,-0.000194,-0.001115,-0.000332,0.167364,0.129058,0.329502,0.920197,40.914675,-7.309189,156.653891
43256,0.169246,5.216138,6.337617,0.889545,-0.158093,-1.652673,-0.043706,-0.199726,-0.116970,0.001660,0.052174,0.063366,0.999999,-0.000219,-0.000999,-0.000585,0.168232,0.129772,0.329169,0.920057,40.901617,-7.356383,156.529376
43257,0.246147,5.292197,6.403833,0.829294,-0.150668,-1.544278,-0.028182,-0.180302,-0.165625,0.002448,0.052929,0.064033,0.999999,-0.000141,-0.000902,-0.000828,0.169284,0.130327,0.328956,0.919862,40.899231,-7.376636,156.390952
43258,0.523785,5.498141,6.407281,0.531828,-0.190941,-1.372435,-0.044138,-0.156040,-0.210099,0.005246,0.054990,0.064065,0.999999,-0.000221,-0.000780,-0.001050,0.170510,0.130685,0.328717,0.919670,40.889085,-7.369892,156.242285
43259,0.715614,5.774581,6.553750,0.340906,-0.234696,-1.058361,-0.069048,-0.101879,-0.258707,0.007197,0.057759,0.065521,0.999999,-0.000345,-0.000509,-0.001294,0.171886,0.130691,0.328442,0.919511,40.864640,-7.321324,156.092867
43260,0.302538,6.365398,7.031804,0.735363,-0.565401,-0.368344,-0.129240,-0.058803,-0.283331,0.003095,0.063695,0.070278,0.999999,-0.000646,-0.000294,-0.001417,0.173344,0.130407,0.327942,0.919456,40.804904,-7.245079,155.948938
43261,0.256798,6.732808,7.541622,0.852955,-0.579624,0.247588,-0.278308,-0.116926,-0.276642,0.002617,0.067429,0.075324,0.999998,-0.001392,-0.000585,-0.001383,0.174963,0.130271,0.326701,0.919610,40.661949,-7.196710,155.785920
43262,0.730156,6.250500,7.586462,0.535493,-0.039744,0.029459,-0.400201,-0.169424,-0.272984,0.007323,0.062647,0.075746,0.999997,-0.002001,-0.000847,-0.001365,0.176730,0.130276,0.324851,0.919928,40.451414,-7.173041,155.604636
43263,0.910907,5.400323,7.620194,0.572786,0.637988,-0.467882,-0.398287,-0.199159,-0.273944,0.009107,0.054142,0.076103,0.999997,-0.001991,-0.000996,-0.001370,0.178547,0.130416,0.322980,0.920216,40.243292,-7.162672,155.411755
43264,1.262828,5.257919,7.502857,0.236624,0.795390,-0.601573,-0.312642,-0.200047,-0.305934,0.012634,0.052677,0.074959,0.999997,-0.001563,-0.001000,-0.001530,0.180456,0.130583,0.321522,0.920330,40.086004,-7.141415,155.204392
43265,1.155775,5.538248,7.609575,0.290058,0.586381,-0.353003,-0.233889,-0.161398,-0.328874,0.011588,0.055452,0.076040,0.999998,-0.001169,-0.000807,-0.001644,0.182356,0.130607,0.320474,0.920318,39.973185,-7.095299,155.001214
43266,0.971669,6.033232,7.816205,0.393560,0.248012,0.097947,-0.172163,-0.184916,-0.323243,0.009742,0.060384,0.078119,0.999998,-0.000861,-0.000925,-0.001616,0.184226,0.130804,0.319683,0.920192,39.896283,-7.061862,154.791770
43267,1.323685,6.456762,7.671829,-0.092211,-0.001015,0.301182,-0.192511,-0.203498,-0.306270,0.013258,0.064621,0.076670,0.999998,-0.000963,-0.001017,-0.001531,0.186061,0.131094,0.318769,0.920099,39.807637,-7.043188,154.582921
43268,1.463580,6.435688,7.609799,-0.245089,0.026951,0.257485,-0.228224,-0.187471,-0.294795,0.014659,0.064422,0.076038,0.999998,-0.001141,-0.000937,-0.001474,0.187840,0.131294,0.317697,0.920080,39.697004,-7.021952,154.385079
43269,1.368392,6.575787,7.706736,-0.175495,-0.079811,0.408371,-0.256737,-0.156949,-0.303547,0.013723,0.065836,0.076994,0.999998,-0.001284,-0.000785,-0.001518,0.189628,0.131313,0.316526,0.920114,39.569149,-6.984525,154.194534
43270,1.140897,6.624420,7.835619,0.044697,-0.164244,0.509739,-0.296199,-0.165876,-0.298617,0.011443,0.066343,0.078267,0.999997,-0.001481,-0.000829,-0.001493,0.191433,0.131342,0.315161,0.920204,39.418621,-6.953259,154.002849
43271,1.479716,6.420437,7.895282,-0.196281,0.140972,0.467808,-0.300909,-0.200982,-0.287089,0.014810,0.064302,0.078871,0.999997,-0.001505,-0.001005,-0.001435,0.193242,0.131547,0.313732,0.920286,39.266355,-6.942281,153.803371
43272,1.799965,6.114205,7.837573,-0.430318,0.453696,0.269965,-0.256175,-0.189567,-0.269376,0.018008,0.061218,0.078314,0.999998,-0.001281,-0.000948,-0.001347,0.194921,0.131769,0.312505,0.920317,39.138142,-6.933101,153.615975
43273,1.781578,6.202241,7.999235,-0.387351,0.452172,0.447676,-0.162750,-0.174869,-0.254020,0.017825,0.062065,0.079957,0.999998,-0.000814,-0.000874,-0.001270,0.196445,0.132038,0.311713,0.920223,39.062040,-6.923300,153.440778
43274,1.635465,6.795997,8.237783,-0.339759,0.071277,0.985501,-0.086418,-0.178055,-0.200710,0.016350,0.067979,0.082363,0.999999,-0.000432,-0.000890,-0.001004,0.197677,0.132480,0.311231,0.920059,39.026818,-6.934367,153.288342
43275,1.206732,7.164952,8.528671,0.046050,-0.246422,1.388568,-0.092912,-0.230790,-0.130302,0.012016,0.071681,0.085267,0.999999,-0.000465,-0.001154,-0.000652,0.198671,0.133267,0.310621,0.919937,38.986577,-6.994362,153.148291
43276,1.376480,7.029127,8.312348,-0.135559,-0.200622,1.157261,-0.144263,-0.313436,-0.070617,0.013659,0.070346,0.083094,0.999998,-0.000721,-0.001567,-0.000353,0.199553,0.134476,0.309651,0.919897,38.917428,-7.112867,153.005100
43277,1.695965,6.432615,7.892912,-0.389712,0.139041,0.501460,-0.168183,-0.338093,-0.053548,0.016843,0.064388,0.078904,0.999998,-0.000841,-0.001690,-0.000268,0.200410,0.135800,0.308536,0.919891,38.835124,-7.248643,152.860737
43278,1.845927,5.968561,7.602408,-0.484078,0.375830,0.008319,-0.140384,-0.307516,-0.078681,0.018366,0.059732,0.076010,0.999998,-0.000702,-0.001538,-0.000393,0.201316,0.136973,0.307593,0.919835,38.769000,-7.362009,152.716291
43279,1.691885,6.061255,7.531020,-0.390026,0.187629,-0.008086,-0.085036,-0.261143,-0.111059,0.016854,0.060635,0.075306,0.999999,-0.000425,-0.001306,-0.000555,0.202260,0.137937,0.306975,0.919690,38.734615,-7.443086,152.574069
43280,1.257248,6.508767,7.735791,-0.050173,-0.243521,0.371878,-0.079965,-0.239007,-0.131537,0.012523,0.065110,0.077347,0.999999,-0.000400,-0.001195,-0.000658,0.203261,0.138774,0.306414,0.919531,38.703392,-7.507157,152.430674
43281,1.130816,6.674538,7.771732,0.033039,-0.416819,0.485524,-0.126702,-0.256842,-0.129652,0.011252,0.066787,0.077689,0.999999,-0.000634,-0.001284,-0.000648,0.204313,0.139647,0.305619,0.919430,38.646370,-7.579843,152.281680
43282,0.781496,6.564555,7.948333,0.445602,-0.426630,0.507172,-0.160406,-0.292856,-0.112912,0.007736,0.065705,0.079442,0.999998,-0.000802,-0.001464,-0.000565,0.205365,0.140678,0.304620,0.919370,38.570927,-7.674936,152.127336
43283,0.352245,6.915659,8.244463,0.840718,-0.760816,0.894126,-0.250138,-0.381481,-0.126091,0.003409,0.069257,0.082365,0.999997,-0.001251,-0.001907,-0.000630,0.206676,0.142002,0.303125,0.919367,38.449495,-7.805197,151.935222
43284,0.719675,6.299207,8.202303,0.692819,-0.202025,0.529204,-0.407013,-0.502925,-0.176345,0.007046,0.063153,0.081912,0.999994,-0.002035,-0.002515,-0.000882,0.208511,0.143644,0.300817,0.919455,38.247734,-7.972717,151.677034
43285,1.294049,5.175179,7.808429,0.383328,0.649493,-0.386148,-0.418402,-0.566253,-0.251173,0.012785,0.051899,0.078012,0.999993,-0.002092,-0.002831,-0.001256,0.210792,0.145452,0.298441,0.919426,38.048090,-8.143167,151.362641
43286,1.517437,4.846022,7.615564,0.226964,0.865711,-0.703225,-0.301425,-0.574986,-0.342365,0.015039,0.048549,0.076126,0.999993,-0.001507,-0.002875,-0.001712,0.213416,0.147285,0.296655,0.919107,37.922590,-8.286258,151.003910
43287,1.521933,5.218628,7.595434,0.117058,0.561393,-0.490023,-0.191884,-0.563274,-0.421586,0.015115,0.052227,0.075947,0.999993,-0.000959,-0.002816,-0.002108,0.216304,0.149061,0.295439,0.918537,37.865336,-8.396768,150.613243
43288,1.277516,5.775186,7.654276,0.193755,0.048667,-0.141450,-0.125826,-0.572214,-0.459028,0.012689,0.057771,0.076543,0.999993,-0.000629,-0.002861,-0.002295,0.219324,0.150892,0.294540,0.917810,37.849477,-8.498403,150.202281
43289,1.454590,6.190234,7.608835,-0.092872,-0.200483,0.100958,-0.124600,-0.592037,-0.457603,0.014462,0.061917,0.076093,0.999993,-0.000623,-0.002960,-0.002288,0.222363,0.152817,0.293621,0.917054,37.836197,-8.609612,149.784795
43290,1.433092,6.262435,7.575458,-0.098166,-0.291556,0.115291,-0.148965,-0.579113,-0.442907,0.014250,0.062649,0.075749,0.999993,-0.000745,-0.002896,-0.002215,0.225331,0.154673,0.292588,0.916348,37.807912,-8.720276,149.378588
43291,1.636124,6.159241,7.441144,-0.280913,-0.190557,-0.021440,-0.163111,-0.571940,-0.409571,0.016275,0.061620,0.074408,0.999993,-0.000816,-0.002860,-0.002048,0.228144,0.156528,0.291469,0.915694,37.769767,-8.839638,148.990102
43292,1.632507,6.052812,7.432744,-0.233780,-0.133016,-0.092866,-0.153141,-0.533763,-0.371360,0.016239,0.060555,0.074324,0.999994,-0.000766,-0.002669,-0.001857,0.230716,0.158273,0.290406,0.915087,37.733212,-8.955356,148.632678
43293,1.663798,5.955262,7.382665,-0.236273,-0.082457,-0.185930,-0.135207,-0.500685,-0.339643,0.016554,0.059574,0.073828,0.999995,-0.000676,-0.002503,-0.001698,0.233078,0.159932,0.289435,0.914507,37.703633,-9.067406,148.301473
43294,1.852651,5.872097,7.294053,-0.392510,0.024467,-0.275268,-0.109466,-0.442439,-0.307529,0.018455,0.058732,0.072949,0.999996,-0.000547,-0.002212,-0.001538,0.235187,0.161400,0.288621,0.913967,37.683715,-9.164457,148.005658
43295,1.778168,5.852812,7.358896,-0.283897,0.021211,-0.247669,-0.060958,-0.368923,-0.260113,0.017722,0.058527,0.073604,0.999997,-0.000305,-0.001845,-0.001301,0.236931,0.162656,0.288076,0.913465,37.684477,-9.244813,147.757627
43296,1.986325,5.900928,7.268085,-0.500937,0.052128,-0.255605,0.006715,-0.305386,-0.196588,0.019810,0.058987,0.072713,0.999998,0.000034,-0.001527,-0.000983,0.238239,0.163794,0.287862,0.912989,37.715949,-9.318609,147.561279
43297,2.335831,6.074318,7.146598,-0.891582,0.059293,-0.188298,0.052567,-0.199633,-0.120108,0.023323,0.060710,0.071505,0.999999,0.000263,-0.000998,-0.000601,0.239006,0.164613,0.287921,0.912623,37.762175,-9.371123,147.437526
43298,2.360518,6.267569,7.181127,-0.953362,-0.046747,-0.039666,0.077637,-0.079516,-0.052355,0.023593,0.062642,0.071845,1.000000,0.000388,-0.000398,-0.000262,0.239271,0.165011,0.288180,0.912399,37.810799,-9.393063,147.387572
43299,2.324657,6.426771,7.249866,-0.942474,-0.144658,0.104912,0.073086,0.033336,0.029032,0.023249,0.064245,0.072518,1.000000,0.000365,0.000167,0.000145,0.239005,0.165006,0.288488,0.912373,37.844193,-9.392363,147.415106
43300,2.262594,6.499169,7.469689,-0.818065,-0.127458,0.310025,0.066974,0.131451,0.097248,0.022643,0.064978,0.074704,1.000000,0.000335,0.000657,0.000486,0.238292,0.164647,0.288828,0.912517,37.863348,-9.371497,147.508893
43301,1.987375,6.515949,7.835680,-0.435961,-0.118880,0.560400,0.056899,0.187815,0.178725,0.019889,0.065155,0.078357,0.999999,0.000284,0.000939,0.000894,0.237133,0.164133,0.289122,0.912818,37.867362,-9.353584,147.660111
43302,1.745450,6.632523,8.120165,-0.149835,-0.203350,0.813236,0.041481,0.180699,0.246110,0.017446,0.066330,0.081200,0.999999,0.000207,0.000903,0.001231,0.235689,0.163734,0.289281,0.913213,37.858052,-9.362861,147.839682
43303,1.732708,6.214598,8.278108,0.073015,0.158157,0.681131,0.036222,0.143473,0.301467,0.017293,0.062157,0.082780,0.999999,0.000181,0.000717,0.001507,0.234050,0.163575,0.289327,0.913649,37.843556,-9.408125,148.031389
43304,1.785796,5.828813,8.205303,0.134015,0.426562,0.399619,0.092057,0.098022,0.334878,0.017801,0.058280,0.082071,0.999998,0.000460,0.000490,0.001674,0.232278,0.163739,0.289546,0.914002,37.861099,-9.485983,148.222251
43305,1.855172,5.809564,8.056309,0.031448,0.406821,0.283367,0.149194,0.082810,0.333032,0.018488,0.058066,0.080599,0.999998,0.000746,0.000414,0.001665,0.230489,0.164034,0.290009,0.914255,37.912039,-9.569903,148.406838
43306,1.866888,5.923843,7.968125,-0.037296,0.291259,0.285925,0.180111,0.079999,0.315283,0.018607,0.059196,0.079727,0.999998,0.000901,0.000400,0.001576,0.228758,0.164353,0.290623,0.914438,37.982027,-9.649327,148.582258
43307,1.591901,6.059707,8.029237,0.195789,0.084058,0.369523,0.226154,0.092287,0.343927,0.015852,0.060534,0.080354,0.999998,0.001131,0.000461,0.001720,0.226840,0.164708,0.291437,0.914592,38.075153,-9.733266,148.775104
43308,1.650367,6.135484,7.886918,0.087351,0.001577,0.314682,0.312860,0.047875,0.419972,0.016394,0.061266,0.078961,0.999997,0.001564,0.000239,0.002100,0.224566,0.165476,0.292533,0.914665,38.214447,-9.864812,148.986688
43309,2.032442,6.388522,7.659275,-0.376221,-0.083373,0.358835,0.409177,0.044736,0.507105,0.020180,0.063780,0.076719,0.999995,0.002046,0.000224,0.002536,0.221817,0.166490,0.293992,0.914684,38.401732,-10.029012,149.236602
43310,2.223728,6.392308,7.403167,-0.604998,-0.095612,0.199209,0.514143,0.085456,0.612084,0.022074,0.063800,0.074186,0.999992,0.002571,0.000427,0.003060,0.218437,0.167589,0.295884,0.914687,38.637543,-10.213633,149.548618
43311,2.328996,6.600813,7.241338,-0.774188,-0.254236,0.225620,0.626023,0.139211,0.729742,0.023100,0.065866,0.072604,0.999988,0.003130,0.000696,0.003649,0.214342,0.168732,0.298242,0.914680,38.923416,-10.417556,149.932970
43312,2.602054,6.843733,6.955410,-1.142253,-0.413583,0.212728,0.713753,0.240278,0.851641,0.025813,0.068299,0.069767,0.999984,0.003569,0.001201,0.004258,0.209457,0.169688,0.300999,0.914731,39.241612,-10.622922,150.408758
43313,2.423499,6.989661,6.866919,-1.003156,-0.628404,0.211364,0.818525,0.359886,1.021153,0.024003,0.069738,0.068911,0.999977,0.004093,0.001799,0.005106,0.203522,0.170451,0.304204,0.914869,39.595720,-10.839390,151.004287
43314,2.114892,7.558204,6.809685,-0.834278,-1.193728,0.475618,0.962701,0.463004,1.258679,0.020832,0.075385,0.068412,0.999966,0.004813,0.002315,0.006293,0.196207,0.171245,0.307955,0.915064,40.002797,-11.101914,151.743823
43315,1.684210,8.197881,7.130513,-0.378864,-1.675373,1.047072,0.984349,0.473097,1.487695,0.016403,0.081750,0.071669,0.999957,0.004922,0.002365,0.007438,0.187797,0.172350,0.311594,0.915389,40.397695,-11.449341,152.588264
43316,1.895760,9.179316,7.295107,-0.602384,-2.206502,1.842336,0.704672,0.487158,1.558275,0.018421,0.091680,0.073229,0.999960,0.003523,0.002436,0.007791,0.179266,0.173227,0.313882,0.916152,40.620303,-11.821809,153.468506
43317,2.082715,8.098721,7.386011,-0.391553,-1.305810,1.260753,0.195089,0.511462,1.506367,0.020406,0.081070,0.073887,0.999968,0.000975,0.002557,0.007532,0.171364,0.173439,0.313878,0.917624,40.547898,-12.165044,154.335659
43318,2.287927,5.515284,7.122618,-0.106459,0.518934,-0.533475,-0.043409,0.540502,1.382329,0.022690,0.055326,0.071153,0.999972,-0.000217,0.002702,0.006912,0.164182,0.173112,0.312896,0.919333,40.343859,-12.447873,155.160197
43319,2.061955,4.346892,7.272714,0.394990,1.341857,-1.205549,0.039001,0.547216,1.201010,0.020557,0.043578,0.072679,0.999978,0.000195,0.002736,0.006005,0.157744,0.172525,0.312437,0.920725,40.199709,-12.657750,155.907906
43320,1.355180,4.635136,7.825112,1.208161,1.115754,-0.765655,0.195822,0.502395,1.037580,0.013508,0.046345,0.078263,0.999983,0.000979,0.002512,0.005188,0.151985,0.172011,0.312796,0.921668,40.163204,-12.826131,156.566045
43321,0.646520,4.936075,8.222048,1.972521,0.828056,-0.442079,0.348259,0.332037,0.955280,0.006366,0.049248,0.082296,0.999986,0.001741,0.001660,0.004776,0.146738,0.172259,0.313786,0.922135,40.234073,-13.038371,157.123164
43322,1.145131,5.627472,7.949449,1.338854,0.362524,-0.104478,0.414088,0.126695,0.866673,0.011258,0.056159,0.079604,0.999988,0.002070,0.000633,0.004333,0.142160,0.173362,0.314998,0.922232,40.367483,-13.308793,157.562448
43323,1.090749,5.687224,7.853828,1.388999,0.257679,-0.157589,0.371154,0.018630,0.793791,0.010689,0.056769,0.078643,0.999990,0.001856,0.000093,0.003969,0.138123,0.174810,0.315991,0.922233,40.491164,-13.599901,157.927718
43324,1.679254,5.705323,7.428111,0.734137,0.236682,-0.328373,0.311443,-0.113073,0.690564,0.016554,0.056995,0.074379,0.999993,0.001557,-0.000565,0.003453,0.134819,0.176661,0.316703,0.922125,40.601979,-13.910811,158.196020
43325,2.228728,5.666814,7.077186,0.147468,0.273827,-0.481573,0.204207,-0.127673,0.532285,0.022091,0.056655,0.070844,0.999996,0.001021,-0.000638,0.002661,0.132363,0.178252,0.317045,0.922057,40.668504,-14.169230,158.387649
43326,2.160232,5.686684,6.997987,0.211520,0.186487,-0.544613,0.145164,-0.119638,0.400576,0.021447,0.056859,0.070034,0.999998,0.000726,-0.000598,0.002003,0.130551,0.179558,0.317237,0.921996,40.714369,-14.375283,158.523236
43327,1.868406,5.818750,7.129586,0.544913,0.049718,-0.438238,0.159520,-0.126132,0.345937,0.018538,0.058163,0.071354,0.999998,0.000798,-0.000631,0.001730,0.128989,0.180815,0.317538,0.921866,40.774660,-14.563699,158.631775
43328,1.767316,6.227604,7.149355,0.630031,-0.288603,-0.192949,0.190166,-0.189256,0.360824,0.017493,0.062240,0.071569,0.999997,0.000951,-0.000946,0.001804,0.127430,0.182406,0.317925,0.921636,40.856750,-14.785299,158.722385
43329,2.298443,6.470562,6.978834,0.092482,-0.383920,-0.030098,0.122689,-0.235692,0.363191,0.022785,0.064704,0.069855,0.999997,0.000613,-0.001178,0.001816,0.125995,0.184170,0.317967,0.921468,40.904147,-15.027896,158.795897
43330,2.381835,6.485640,6.993953,0.060740,-0.369875,0.011335,0.024730,-0.190216,0.363949,0.023634,0.064891,0.069970,0.999998,0.000124,-0.000951,0.001820,0.124574,0.185664,0.317584,0.921494,40.890526,-15.251152,158.887390
43331,2.149726,6.593533,7.372463,0.452039,-0.350706,0.292842,-0.093602,-0.222173,0.363480,0.021295,0.066009,0.073717,0.999998,-0.000468,-0.001111,0.001817,0.123315,0.187229,0.316635,0.921673,40.811921,-15.487962,158.966576
43332,2.381118,6.229148,7.498524,0.370483,0.044739,0.215294,-0.216866,-0.272602,0.347456,0.023601,0.062414,0.074950,0.999997,-0.001084,-0.001363,0.001737,0.122325,0.188924,0.315101,0.921985,40.669558,-15.740528,159.019472
43333,2.519272,5.819342,7.579601,0.353239,0.410212,0.054864,-0.347302,-0.309942,0.230975,0.025008,0.058354,0.075734,0.999997,-0.001737,-0.001550,0.001155,0.122052,0.190527,0.313050,0.922390,40.470233,-15.965784,159.006103
43334,2.594082,5.056227,7.652275,0.418107,1.018132,-0.344827,-0.487552,-0.339613,0.056850,0.025797,0.050756,0.076443,0.999996,-0.002438,-0.001698,0.000284,0.122762,0.191907,0.310498,0.922872,40.215476,-16.139434,158.903033
43335,2.543779,4.409894,7.684117,0.558606,1.471583,-0.730516,-0.568930,-0.390089,-0.181574,0.025328,0.044294,0.076765,0.999994,-0.002845,-0.001950,-0.000908,0.124727,0.193097,0.307764,0.923276,39.949801,-16.247726,158.672523
43336,2.352495,4.236654,7.698855,0.760569,1.502646,-0.872929,-0.619706,-0.429813,-0.460939,0.023458,0.042551,0.076907,0.999990,-0.003099,-0.002149,-0.002305,0.128090,0.194006,0.305035,0.923530,39.695193,-16.271969,158.299243
43337,1.885374,4.559069,8.009672,1.271485,1.200489,-0.569497,-0.672576,-0.499767,-0.726083,0.018820,0.045791,0.079990,0.999985,-0.003363,-0.002499,-0.003630,0.132832,0.194795,0.302267,0.923604,39.451865,-16.231910,157.777490
43338,1.754069,4.724573,8.065549,1.382180,1.005268,-0.456927,-0.721629,-0.609838,-0.936739,0.017517,0.047454,0.080538,0.999978,-0.003608,-0.003049,-0.004684,0.138755,0.195733,0.299391,0.923472,39.218424,-16.166133,157.116984
43339,2.164139,4.905179,7.671547,0.805764,0.777838,-0.520622,-0.769554,-0.716857,-1.137618,0.021646,0.049224,0.076604,0.999970,-0.003848,-0.003584,-0.005688,0.145807,0.196822,0.296403,0.923118,38.993954,-16.077950,156.323125
43340,3.090812,5.297283,7.156064,-0.326182,0.544541,-0.409469,-0.938473,-0.731588,-1.381398,0.031013,0.053094,0.071425,0.999958,-0.004692,-0.003658,-0.006907,0.154160,0.197479,0.292840,0.922757,38.703236,-15.912011,155.410873
43341,3.620165,6.095479,6.356292,-1.348035,-0.271809,-0.390842,-1.313498,-0.629611,-1.735066,0.036532,0.061055,0.063277,0.999936,-0.006567,-0.003148,-0.008675,0.164351,0.196839,0.287947,0.922675,38.228754,-15.580274,154.371366
43342,4.329017,6.222559,6.049385,-2.245348,-0.237323,-0.381047,-1.892148,-0.343154,-2.109331,0.043844,0.062334,0.059979,0.999898,-0.009460,-0.001716,-0.010546,0.176397,0.193830,0.280938,0.923249,37.433479,-14.998456,153.259365
43343,4.130755,5.176806,5.974306,-2.044211,0.432711,-1.141707,-2.399393,0.033003,-2.455245,0.041955,0.051967,0.059113,0.999853,-0.011996,0.000165,-0.012276,0.189959,0.188104,0.272187,0.924363,36.343571,-14.143053,152.111073
43344,3.438511,4.587779,6.595384,-1.219735,0.803673,-1.196863,-2.718660,0.370378,-2.796874,0.035152,0.046280,0.065262,0.999808,-0.013592,0.001852,-0.013983,0.204875,0.179988,0.262507,0.925592,35.065593,-13.039811,150.902444
43345,1.620335,4.249074,8.308925,0.938037,0.825396,-0.423877,-2.948763,0.609845,-3.030921,0.017109,0.043454,0.082402,0.999772,-0.014743,0.003049,-0.015153,0.220683,0.170145,0.252111,0.926709,33.643434,-11.775399,149.639085
43346,-0.676795,5.250915,10.671521,3.238001,-0.337770,1.645737,-3.184749,0.456943,-3.303632,-0.005638,0.054299,0.105874,0.999734,-0.015922,0.002285,-0.016517,0.238037,0.160323,0.240557,0.927236,32.099130,-10.532405,148.166488
43347,-1.180175,4.441023,11.614368,3.957498,0.094186,2.032788,-3.688666,0.120715,-3.555227,-0.010915,0.046741,0.115303,0.999672,-0.018441,0.000604,-0.017774,0.257225,0.151062,0.226330,0.927249,30.281242,-9.422185,146.436493
43348,-1.495506,0.318777,12.079979,5.793676,2.882650,0.500835,-3.495624,-0.250301,-3.607367,-0.015020,0.005569,0.120698,0.999684,-0.017476,-0.001251,-0.018035,0.276762,0.143610,0.212410,0.926100,28.568772,-8.535392,144.545793
43349,-1.618299,-1.069243,12.090726,6.393803,3.500529,0.026036,-2.580652,-0.774608,-3.632235,-0.016823,-0.008830,0.120965,0.999744,-0.012902,-0.003873,-0.018160,0.296158,0.139745,0.201900,0.923037,27.382098,-7.954791,142.481385
43350,-1.577532,1.290588,12.185431,5.169648,1.481469,1.309875,-1.805295,-1.256306,-3.734359,-0.016281,0.014305,0.121628,0.999765,-0.009026,-0.006281,-0.018670,0.315824,0.139074,0.194219,0.918255,26.647478,-7.627499,140.230866
43351,-2.215236,4.590643,12.755777,4.003325,-1.439446,3.248073,-1.715256,-1.681324,-3.972827,-0.022289,0.047439,0.126968,0.999731,-0.008576,-0.008406,-0.019862,0.336776,0.140201,0.186358,0.912248,25.987520,-7.485428,137.744991
43352,-2.308976,6.000865,13.111819,3.174656,-2.709916,4.180992,-2.289581,-2.145492,-4.413433,-0.023136,0.062013,0.130168,0.999633,-0.011447,-0.010726,-0.022064,0.360358,0.141968,0.175275,0.905133,25.039396,-7.508644,134.912713
43353,-2.219407,4.665913,12.649085,3.426231,-2.224259,3.225128,-3.090962,-2.495850,-4.973714,-0.022562,0.049162,0.125464,0.999494,-0.015452,-0.012477,-0.024864,0.387035,0.143272,0.160190,0.896669,23.687237,-7.639302,131.702180
43354,1.061546,-0.831249,9.148233,3.361442,2.765418,-1.654865,-2.855725,-2.774028,-5.285575,0.009143,-0.007258,0.091725,0.999453,-0.014276,-0.013868,-0.026423,0.414758,0.145864,0.145666,0.886274,22.510011,-7.915833,128.265086
43355,4.534695,-1.657820,5.882663,0.749078,5.314921,-4.418247,-1.315954,-2.489742,-5.173768,0.044167,-0.017341,0.059494,0.999566,-0.006579,-0.012447,-0.025865,0.440248,0.150342,0.138340,0.874323,22.213818,-8.110740,124.951942
43356,3.131641,6.820916,6.487329,-4.240920,-0.544132,-0.861087,-0.133814,-1.923753,-4.652343,0.032267,0.067509,0.065135,0.999683,-0.000669,-0.009618,-0.023259,0.461850,0.155182,0.136914,0.862477,22.541624,-8.118154,122.042112
43357,0.804758,14.313791,7.953499,-8.189490,-6.093021,3.016379,-0.338638,-1.591322,-3.610669,0.009999,0.143104,0.079367,0.999804,-0.001693,-0.007956,-0.018052,0.478656,0.158764,0.134511,0.852989,22.666576,-8.168161,119.762162
43358,1.512111,12.544702,6.974071,-7.732766,-4.429337,1.539648,-0.784390,-1.447018,-2.304690,0.016065,0.125538,0.069362,0.999900,-0.003922,-0.007235,-0.011523,0.490008,0.161486,0.129464,0.846790,22.435379,-8.430670,118.212077
43359,1.527418,10.653926,6.784231,-6.448713,-3.418963,0.607886,-1.057755,-1.232939,-1.449868,0.015631,0.106784,0.067374,0.999941,-0.005289,-0.006165,-0.007249,0.497745,0.163169,0.123084,0.842897,21.981560,-8.774110,117.167589
43360,2.342098,4.082808,6.323907,-1.829517,0.387969,-2.154454,-1.263296,-0.900811,-1.033689,0.023349,0.041106,0.063085,0.999957,-0.006316,-0.004504,-0.005168,0.503641,0.163175,0.116309,0.840352,21.368740,-9.038191,116.421061
43361,1.962762,2.388448,7.141898,-0.005156,0.826784,-2.074465,-0.688741,-0.701723,-0.951318,0.019491,0.024037,0.071405,0.999977,-0.003444,-0.003509,-0.004757,0.508572,0.163833,0.112378,0.837786,21.074612,-9.219033,115.762496
43362,1.403445,3.042521,7.870953,-0.031055,0.012845,-1.258315,-0.500037,-0.572073,-0.936258,0.013952,0.030556,0.078673,0.999982,-0.002500,-0.002860,-0.004681,0.513191,0.164426,0.109546,0.835224,20.884024,-9.336297,115.139650
43363,2.715062,3.574892,7.191073,-1.296292,0.918454,-1.485683,-0.485973,-0.426305,-0.837421,0.027147,0.035810,0.071882,0.999986,-0.002430,-0.002132,-0.004187,0.517289,0.164499,0.107066,0.833000,20.689322,-9.397698,114.600642
43364,1.862610,3.038305,7.461963,-0.419782,0.384675,-1.563006,-0.529584,-0.194886,-0.603231,0.018645,0.030524,0.074557,0.999991,-0.002648,-0.000974,-0.003016,0.520313,0.163614,0.104804,0.831578,20.440862,-9.384180,114.236498
43365,1.621757,3.251642,7.678051,-0.452661,0.064150,-1.330555,-0.588024,-0.115156,-0.413400,0.016241,0.032708,0.076694,0.999993,-0.002940,-0.000576,-0.002067,0.522545,0.162345,0.102353,0.830731,20.139849,-9.367220,113.991650
43366,2.769565,2.387043,6.633244,-0.624264,1.463712,-2.407546,-0.620507,0.052534,-0.320421,0.027751,0.024032,0.066251,0.999994,-0.003103,0.000263,-0.001602,0.524325,0.160338,0.100126,0.830271,19.805966,-9.279581,113.830855
43367,3.328555,2.658029,5.951982,-1.368524,1.860325,-2.867430,-0.604343,0.393713,-0.362514,0.033451,0.026699,0.059374,0.999992,-0.003022,0.001969,-0.001813,0.526088,0.156936,0.098895,0.829953,19.474426,-9.000566,113.713062
43368,2.004195,2.953631,6.569120,-0.916654,0.566199,-2.414524,-0.512867,0.711272,-0.407002,0.020335,0.029663,0.065543,0.999988,-0.002564,0.003556,-0.002035,0.527796,0.152432,0.098908,0.829707,19.188774,-8.542350,113.630626
43369,0.463332,4.256700,7.747819,-1.046715,-1.326903,-1.123272,-0.398402,0.836123,-0.365211,0.005035,0.042712,0.077373,0.999988,-0.001992,0.004181,-0.001826,0.529170,0.147728,0.099696,0.829588,18.962001,-8.024427,113.592567
43370,0.482187,4.840572,7.989372,-1.529915,-1.494073,-0.706636,-0.395556,0.840935,-0.247589,0.005218,0.048557,0.079776,0.999988,-0.001978,0.004205,-0.001238,0.530038,0.143068,0.100415,0.829764,18.727691,-7.526117,113.617844
43371,1.897999,4.864106,7.290461,-2.422076,-0.172162,-1.180426,-0.486828,0.962835,-0.132669,0.019363,0.048805,0.072693,0.999985,-0.002434,0.004814,-0.000663,0.530420,0.137714,0.100997,0.830355,18.431114,-6.982173,113.725990
43372,2.542174,4.577251,6.990909,-2.617270,0.583309,-1.500332,-0.618152,1.214863,-0.057174,0.025858,0.045981,0.069611,0.999977,-0.003091,0.006074,-0.000286,0.530431,0.131000,0.101645,0.831355,18.050730,-6.314311,113.917693
43373,2.889347,3.673347,6.613464,-2.205240,1.328402,-2.134765,-0.728039,1.540441,0.003594,0.029400,0.036974,0.065775,0.999964,-0.003640,0.007702,0.000018,0.530065,0.122662,0.102656,0.832735,17.601121,-5.477848,114.194911
43374,3.838388,3.193997,5.953255,-2.496818,2.436757,-2.869903,-0.673208,1.910594,0.059064,0.038940,0.032151,0.059054,0.999949,-0.003366,0.009553,0.000295,0.529197,0.112951,0.104832,0.834388,17.180075,-4.446957,114.559447
43375,4.001749,3.324023,5.517051,-2.925424,2.592314,-3.314994,-0.685781,2.418607,0.073700,0.040668,0.033443,0.054567,0.999921,-0.003429,0.012093,0.000368,0.527941,0.101075,0.108278,0.836264,16.753422,-3.136918,115.008849
43376,3.428923,3.047060,5.344498,-2.623327,2.279776,-3.687072,-0.658170,2.960604,0.118900,0.035056,0.030666,0.052829,0.999885,-0.003291,0.014802,0.000594,0.526084,0.087019,0.113225,0.838358,16.350087,-1.534291,115.561659
43377,1.707120,3.720288,6.164115,-2.382453,0.661053,-2.838894,-0.557505,3.469031,0.165322,0.018105,0.037389,0.061229,0.999845,-0.002787,0.017344,0.000827,0.523561,0.071092,0.119882,0.840511,16.019908,0.345119,116.210351
43378,-0.116244,3.983088,6.987226,-1.750224,-0.797470,-2.002755,-0.579076,3.786356,0.261808,0.000107,0.040033,0.069763,0.999816,-0.002895,0.018931,0.001309,0.520270,0.053820,0.127202,0.842759,15.702252,2.386757,116.951656
43379,-1.400281,4.245230,7.686693,-1.395363,-1.716055,-1.200550,-0.571493,3.978914,0.373108,-0.012551,0.042648,0.077005,0.999796,-0.002857,0.019893,0.001865,0.516187,0.035795,0.134978,0.845015,15.420364,4.522628,117.774355
43380,-2.009981,4.002091,7.892222,-1.022809,-1.859024,-0.990332,-0.621786,4.057220,0.525829,-0.018601,0.040217,0.079185,0.999786,-0.003109,0.020285,0.002629,0.511196,0.017409,0.142659,0.847363,15.149752,6.681486,118.686075
43381,-2.401775,3.643720,8.138651,-0.648982,-1.721856,-0.763488,-0.586697,4.180513,0.689756,-0.022437,0.036597,0.081759,0.999771,-0.002933,0.020901,0.003449,0.505197,-0.001311,0.150727,0.849738,14.947301,8.889085,119.702680
43382,-3.110362,3.364441,8.290023,-0.199642,-1.879175,-0.531663,-0.477747,4.229283,0.867714,-0.029489,0.033713,0.083455,0.999764,-0.002389,0.021145,0.004338,0.498169,-0.019818,0.159314,0.852088,14.865580,11.098913,120.827495
43383,-3.913437,3.410668,8.752567,0.070609,-2.125439,0.138238,-0.372048,4.293179,1.034563,-0.037421,0.034074,0.088278,0.999755,-0.001860,0.021464,0.005172,0.490152,-0.038202,0.168448,0.854352,14.909963,13.320989,122.064004
43384,-5.584814,3.342065,9.751014,0.945281,-2.780002,1.536484,-0.290904,4.248333,1.171792,-0.053956,0.033244,0.098621,0.999756,-0.001454,0.021240,0.005858,0.481360,-0.056051,0.177766,0.856475,15.069580,15.494879,123.387744
43385,-6.865886,3.092369,10.842371,1.772877,-2.881564,2.946410,-0.240598,3.982970,1.244137,-0.066673,0.030636,0.109728,0.999782,-0.001203,0.019913,0.006220,0.472289,-0.072564,0.186595,0.858406,15.309808,17.507574,124.732691
43386,-6.991136,2.981788,11.510603,1.820929,-2.240570,3.674654,-0.269314,3.561509,1.215672,-0.068028,0.029557,0.116289,0.999822,-0.001346,0.017806,0.006078,0.463532,-0.087325,0.194227,0.860109,15.557673,19.285748,126.016765
43387,-6.652974,2.356972,11.233501,1.995023,-1.406439,3.227184,-0.310278,3.150239,1.096813,-0.064878,0.023386,0.113329,0.999860,-0.001551,0.015750,0.005484,0.455523,-0.100509,0.200611,0.861482,15.776404,20.850992,127.183813
43388,-6.011910,1.910152,11.287463,1.859282,-0.352728,2.978243,-0.232412,2.749960,0.998377,-0.058655,0.018938,0.113666,0.999892,-0.001162,0.013749,0.004992,0.448264,-0.111859,0.206325,0.862541,16.028973,22.206294,128.243570
43389,-5.256871,2.018409,10.420136,1.227047,0.020736,1.967629,-0.046961,2.414473,0.982795,-0.051404,0.019954,0.104822,0.999915,-0.000235,0.012072,0.004914,0.441437,-0.121347,0.212033,0.863395,16.389093,23.374504,129.252930
43390,-4.195748,3.992258,9.794681,-1.071486,-0.325764,1.510748,-0.033004,2.298579,0.945489,-0.041016,0.039743,0.098415,0.999923,-0.000165,0.011493,0.004727,0.434830,-0.130320,0.217493,0.864081,16.765703,24.478969,130.236298
43391,-3.722148,3.433382,9.220067,-0.966149,0.200931,0.659898,-0.199206,2.325505,1.003445,-0.036318,0.034242,0.092592,0.999919,-0.000996,0.011627,0.005017,0.427767,-0.139691,0.222293,0.864921,17.087297,25.583224,131.275493
43392,-4.507332,3.203240,9.210952,-0.399471,-0.030808,0.922970,-0.071550,2.287672,1.093884,-0.044190,0.031822,0.092607,0.999920,-0.000358,0.011438,0.005469,0.420373,-0.148497,0.227596,0.865699,17.529468,26.644783,132.380556
43393,-5.273301,3.851113,9.270776,-0.523788,-0.665790,1.495057,-0.015145,2.146531,1.130497,-0.051951,0.038223,0.093265,0.999926,-0.000076,0.010732,0.005652,0.412960,-0.156514,0.232833,0.866462,18.027126,27.615044,133.499594
43394,-5.480486,3.840205,8.691425,-0.392316,-0.916349,1.111017,0.000910,2.040043,1.132655,-0.054131,0.038094,0.087469,0.999932,0.000005,0.010200,0.005663,0.405615,-0.164007,0.237894,0.867171,18.550655,28.517748,134.618015
43395,-5.740846,4.172573,8.725615,-0.532420,-1.068453,1.371062,0.025180,1.958370,1.161464,-0.056791,0.041384,0.087819,0.999935,0.000126,0.009792,0.005807,0.398209,-0.171046,0.242881,0.867861,19.111612,29.361778,135.755646
43396,-5.261178,4.769188,8.437845,-1.289873,-1.108482,1.083541,0.035775,1.892472,1.277581,-0.052113,0.047343,0.084882,0.999935,0.000179,0.009462,0.006388,0.390334,-0.177609,0.247858,0.868712,19.731859,30.137460,136.970580
43397,-4.531244,5.311706,7.748946,-2.095813,-1.235305,0.329925,0.057408,1.952984,1.555937,-0.044964,0.052744,0.077945,0.999922,0.000287,0.009765,0.007779,0.381141,-0.184027,0.253251,0.869902,20.482801,30.878521,138.392780
43398,-4.844775,5.380968,7.418835,-1.887067,-1.501319,0.269407,0.166141,2.087968,1.942411,-0.048189,0.053279,0.074737,0.999898,0.000831,0.010439,0.009712,0.370125,-0.190296,0.259692,0.871410,21.467441,31.593493,140.113576
43399,-5.757606,5.528405,7.683599,-1.372444,-1.746496,1.041454,0.531700,2.113301,2.467033,-0.057433,0.054369,0.077589,0.999865,0.002658,0.010566,0.012335,0.357052,-0.195279,0.268203,0.873182,22.868892,32.178135,142.197274
43400,-6.203549,6.776656,8.013611,-1.886158,-2.293711,2.010896,0.988080,1.989584,3.049114,-0.062251,0.066420,0.081085,0.999822,0.004940,0.009947,0.015245,0.341935,-0.198058,0.278978,0.875228,24.738520,32.512034,144.638437
43401,-5.726920,7.465680,8.062309,-2.489760,-2.197249,2.124518,1.146988,1.929275,3.462331,-0.057761,0.073194,0.081601,0.999787,0.005735,0.009646,0.017310,0.325120,-0.199655,0.290636,0.877477,26.842573,32.640631,147.332580
43402,-5.631627,6.972361,7.469296,-1.867738,-1.964066,1.534586,1.329546,1.948135,3.806709,-0.056889,0.068143,0.075702,0.999749,0.006647,0.009740,0.019032,0.306795,-0.200435,0.303346,0.879593,29.172476,32.597426,150.245632
43403,-6.082175,7.610356,7.795533,-1.729236,-2.046067,2.372855,1.422479,1.937665,3.991969,-0.061555,0.074320,0.079082,0.999729,0.007112,0.009687,0.019958,0.287608,-0.200650,0.316463,0.881404,31.600223,32.394275,153.254191
43404,-6.816582,6.662567,8.438359,-0.384068,-0.957342,2.875085,1.339866,1.865176,4.108451,-0.068714,0.064648,0.085460,0.999723,0.006699,0.009325,0.020540,0.267776,-0.200360,0.329069,0.883100,33.979080,32.012813,156.281001
43405,-7.563846,5.953887,8.835824,0.857520,-0.110335,3.224328,1.436364,1.606079,4.204255,-0.076144,0.057302,0.089385,0.999721,0.007181,0.008030,0.021019,0.247900,-0.198537,0.341653,0.884535,36.343218,31.373684,159.221284
43406,-7.400815,5.437660,8.773756,1.347670,0.624626,2.800439,1.597017,1.401731,4.320861,-0.074530,0.052064,0.088681,0.999710,0.007984,0.007008,0.021602,0.227870,-0.195289,0.354629,0.885537,38.727962,30.496754,162.084026
43407,-6.897180,5.015427,8.203320,1.579819,1.007824,1.870140,1.778629,1.101532,4.328667,-0.069570,0.047918,0.082848,0.999711,0.008892,0.005507,0.021641,0.208389,-0.190388,0.367855,0.886007,41.073780,29.385537,164.749397
43408,-5.617320,5.139389,7.436787,0.870205,1.005647,0.746213,1.811048,1.013397,4.089295,-0.056820,0.049559,0.075109,0.999737,0.009054,0.005067,0.020445,0.190040,-0.185388,0.380714,0.885761,43.280024,28.237049,167.178814
43409,-5.787164,5.937756,7.783123,0.834021,1.036966,1.480682,1.721313,1.004738,3.747331,-0.058568,0.057610,0.078625,0.999775,0.008606,0.005023,0.018735,0.173051,-0.181005,0.392652,0.884938,45.281146,27.145617,169.370731
43410,-5.656441,7.239994,8.142198,0.332021,0.809496,2.431900,1.440090,0.873891,3.456179,-0.057439,0.070822,0.082185,0.999815,0.007200,0.004369,0.017280,0.157277,-0.176773,0.402818,0.884168,46.972832,26.059393,171.311643
43411,-5.505238,7.673126,8.059286,0.289939,0.753242,2.575833,1.027535,0.724152,3.207261,-0.055976,0.075422,0.081184,0.999852,0.005137,0.003621,0.016036,0.142492,-0.172656,0.410678,0.883872,48.295904,24.976635,173.025208
43412,-5.053035,6.907440,7.753760,0.476945,1.246939,1.658045,0.772405,0.556891,3.037251,-0.051352,0.067998,0.077944,0.999873,0.003862,0.002784,0.015186,0.128537,-0.168274,0.417041,0.883877,49.365740,23.870890,174.549073
43413,-4.984295,7.196128,7.323867,0.609490,0.912052,1.547624,0.750124,0.420023,2.917756,-0.050729,0.070950,0.073612,0.999884,0.003750,0.002100,0.014588,0.115350,-0.163518,0.423006,0.883755,50.335846,22.743597,175.924550
43414,-5.079609,7.579240,7.387229,0.787728,0.883018,1.866828,0.661682,0.224576,2.945888,-0.051819,0.074789,0.074179,0.999885,0.003308,0.001123,0.014729,0.102349,-0.157844,0.428400,0.883789,51.187217,21.511876,177.186303
43415,-3.632998,7.120387,6.469078,-0.001264,0.643403,0.450268,0.619862,0.094506,2.909599,-0.037328,0.070465,0.064927,0.999889,0.003099,0.000473,0.014547,0.089735,-0.151667,0.433410,0.883799,51.950232,20.234962,178.342015
43416,-3.902563,8.517933,7.030636,-0.023983,0.349840,1.895675,0.482555,0.099029,2.793346,-0.040174,0.084454,0.070530,0.999899,0.002413,0.000495,0.013966,0.077498,-0.145783,0.437641,0.883862,52.589076,18.998045,179.430793
43417,-3.314344,9.200066,7.572328,-0.615559,0.456293,2.531295,-0.038344,0.025680,2.589442,-0.034321,0.091576,0.075710,0.999916,-0.000192,0.000128,0.012947,0.065932,-0.140204,0.439306,0.884876,52.866480,17.821655,-179.608701
43418,-3.482712,9.395927,8.747545,-0.482126,1.286509,3.417577,-0.571376,-0.089419,2.380384,-0.035983,0.093785,0.087191,0.999925,-0.002857,-0.000447,0.011902,0.055155,-0.134719,0.438363,0.886931,52.779562,16.698136,-178.787152
43419,-6.088202,10.197544,9.626067,1.945007,1.506152,5.275642,-0.953995,-0.416705,2.362682,-0.062284,0.101702,0.095646,0.999917,-0.004770,-0.002083,0.011813,0.044913,-0.127915,0.435546,0.889899,52.411724,15.473112,-178.127534
43420,-4.660975,8.895843,9.344376,1.182579,1.944098,3.714703,-1.407662,-0.963105,2.320657,-0.048090,0.089060,0.092588,0.999896,-0.007038,-0.004815,0.011603,0.035744,-0.118840,0.430483,0.894027,51.702855,14.079477,-177.730793
43421,-5.584228,8.070164,9.855874,2.452474,2.748052,3.598909,-1.515912,-1.395444,2.291976,-0.057451,0.080791,0.097549,0.999881,-0.007579,-0.006977,0.011459,0.027566,-0.107897,0.424741,0.898440,50.877273,12.550150,-177.526681
43422,-4.524684,7.932382,9.380341,1.884269,2.252594,2.944524,-1.640254,-2.000863,2.176411,-0.047043,0.079582,0.092687,0.999857,-0.008201,-0.010004,0.010882,0.021116,-0.094460,0.418185,0.903190,49.915622,10.853096,-177.615523
43423,-3.011104,7.505872,8.365396,0.968564,1.488656,1.685846,-2.005850,-2.293895,1.859349,-0.031763,0.075600,0.082540,0.999841,-0.010029,-0.011469,0.009296,0.016534,-0.080381,0.409668,0.908536,48.709168,9.183906,-177.920810
43424,-2.665795,5.902986,7.626412,1.199467,1.768726,-0.038440,-2.115449,-2.463000,1.603069,-0.028065,0.059609,0.075296,0.999836,-0.010577,-0.012314,0.008015,0.013410,-0.066035,0.400403,0.913858,47.429119,7.552352,-178.360016
43425,-1.295796,4.666620,5.524820,0.419849,0.855245,-2.527959,-1.765477,-2.460569,1.468569,-0.013977,0.047050,0.054666,0.999858,-0.008827,-0.012302,0.007343,0.011011,-0.051931,0.392570,0.918189,46.359847,5.970163,-178.815848
43426,-2.390663,5.671762,5.744151,1.649642,0.230076,-1.560424,-1.010439,-2.283180,1.673329,-0.025033,0.056800,0.056873,0.999887,-0.005052,-0.011415,0.008366,0.007514,-0.038180,0.388165,0.920768,45.751892,4.366943,-179.091816
43427,-1.394964,8.602731,5.324852,0.821235,-2.210868,0.123953,-0.662115,-2.362715,1.927057,-0.015404,0.086059,0.052787,0.999878,-0.003310,-0.011813,0.009635,0.003070,-0.023554,0.385317,0.922478,45.356804,2.626308,-179.283747
43428,0.464675,9.474762,5.057137,-0.757360,-3.134908,0.441702,-1.282176,-2.107411,1.809087,0.003259,0.095103,0.050002,0.999883,-0.006411,-0.010537,0.009045,-0.001397,-0.010332,0.379508,0.925130,44.614341,1.034626,-179.402483
43429,-0.054120,6.962358,5.391024,0.014530,-1.244690,-1.095724,-1.715740,-1.838610,1.591454,-0.001589,0.070073,0.053299,0.999889,-0.008578,-0.009193,0.007957,-0.005387,0.001235,0.371593,0.928379,43.626806,-0.360807,-179.479434
43430,-1.338673,6.633735,6.246874,1.504878,-0.554840,-0.743855,-1.663833,-1.780866,1.460914,-0.014426,0.066750,0.061789,0.999899,-0.008319,-0.008904,0.007304,-0.008880,0.012294,0.363840,0.931338,42.671242,-1.682581,-179.564715
43431,-1.605598,6.127437,6.776894,1.978756,0.018866,-0.750257,-1.784516,-1.943092,1.328395,-0.017119,0.061763,0.067056,0.999891,-0.008922,-0.009715,0.006642,-0.011449,0.023867,0.355463,0.934316,41.652196,-3.023036,-179.745975
43432,-0.773346,4.844822,6.814793,1.301645,0.840935,-1.560083,-1.728688,-2.014976,1.090314,-0.008683,0.048989,0.067642,0.999897,-0.008643,-0.010075,0.005451,-0.012784,0.035346,0.347305,0.936999,40.676408,-4.307980,179.965817
43433,-1.972798,4.189958,7.958742,2.734242,1.932933,-1.235326,-1.541819,-2.233333,0.937221,-0.020811,0.042414,0.079033,0.999897,-0.007709,-0.011166,0.004686,-0.013051,0.047560,0.339989,0.939135,39.825069,-5.635844,179.549443
43434,-0.075168,4.049564,7.167698,0.984693,1.415209,-1.762631,-1.401085,-2.498640,0.675595,-0.001783,0.040992,0.071373,0.999892,-0.007005,-0.012493,0.003378,-0.011670,0.060557,0.333342,0.940787,39.085749,-6.991539,178.937021
43435,0.228559,3.934321,7.444435,0.911179,1.569903,-1.587642,-1.311757,-2.531242,0.438940,0.001258,0.039834,0.074204,0.999896,-0.006559,-0.012656,0.002195,-0.009147,0.073294,0.327117,0.942093,38.425290,-8.284178,178.221173
43436,0.613323,3.952681,7.371986,0.725330,1.415747,-1.577921,-1.251420,-2.645265,0.171429,0.005126,0.039992,0.073543,0.999893,-0.006257,-0.013226,0.000857,-0.005196,0.086112,0.321210,0.943071,37.838494,-9.541193,177.354440
43437,1.962659,4.579677,6.442341,-0.522472,0.330245,-1.692083,-1.128420,-2.663938,0.046921,0.018758,0.046165,0.064417,0.999895,-0.005642,-0.013319,0.000235,-0.000681,0.098796,0.315868,0.943645,37.350514,-10.771170,176.432483
43438,3.092439,5.478649,5.553436,-1.577667,-0.903640,-1.620500,-0.957512,-2.504633,0.005541,0.030226,0.055054,0.055653,0.999910,-0.004787,-0.012523,0.000028,0.003694,0.110644,0.311290,0.943845,36.970691,-11.920891,175.553431
43439,2.039148,7.366594,6.105752,-0.175567,-2.238251,-0.291006,-0.954970,-2.234815,0.074022,0.019683,0.073964,0.060927,0.999926,-0.004775,-0.011174,0.000370,0.007324,0.121307,0.306641,0.944035,36.580729,-12.976061,174.805636
43440,1.950094,7.541969,6.213946,0.077035,-2.423143,-0.147429,-1.360580,-2.113374,0.076699,0.018817,0.075848,0.061826,0.999921,-0.006803,-0.010567,0.000383,0.010999,0.131368,0.300033,0.944776,35.959833,-13.982492,174.107925
43441,1.180483,6.897114,6.833668,1.059738,-1.759183,-0.250171,-1.624330,-1.987998,0.012977,0.011124,0.069524,0.067886,0.999918,-0.008121,-0.009940,0.000065,0.014960,0.140704,0.292180,0.945838,35.193714,-14.917332,173.432408
43442,-0.336107,5.216899,9.498887,3.302882,0.723195,0.488665,-2.085321,-2.238212,-0.117103,-0.004389,0.053158,0.094393,0.999883,-0.010426,-0.011191,-0.000585,0.020223,0.150972,0.282162,0.947197,34.211160,-15.937436,172.620328
43443,-0.082822,0.238869,7.975850,2.557978,3.930788,-3.356767,-1.742873,-2.474579,-0.270210,-0.001811,0.003086,0.079715,0.999885,-0.008714,-0.012372,-0.001351,0.026280,0.162141,0.273790,0.947659,33.479509,-17.032806,171.665450
43444,0.147764,4.467541,9.897951,3.337208,1.183586,0.453970,-1.483019,-2.936457,-0.504515,0.000141,0.045406,0.098653,0.999862,-0.007415,-0.014682,-0.002522,0.033864,0.175169,0.266709,0.947119,32.995430,-18.285274,170.446750
43445,3.043061,1.113162,6.799422,-0.328308,2.846267,-2.847207,-1.605313,-3.101378,-0.718516,0.029413,0.011572,0.068364,0.999841,-0.008026,-0.015506,-0.003592,0.042776,0.188622,0.259129,0.946279,32.519016,-19.560909,169.067216
43446,3.912186,1.992398,6.541552,-1.015770,2.074054,-2.280726,-1.161681,-2.756809,-1.048439,0.038321,0.020103,0.065831,0.999874,-0.005808,-0.013783,-0.005242,0.052373,0.200054,0.253956,0.944850,32.342760,-20.575488,167.628641
43447,1.515224,4.305043,8.060964,1.961591,0.225782,-0.762448,-1.143598,-2.688259,-1.162967,0.014321,0.043426,0.080558,0.999876,-0.005718,-0.013441,-0.005815,0.062393,0.210976,0.248940,0.943199,32.215901,-21.525847,166.146531
43448,3.601956,3.422286,6.408766,-0.470767,0.661981,-1.744441,-0.974750,-2.781527,-1.193889,0.035330,0.034324,0.064415,0.999874,-0.004874,-0.013907,-0.005969,0.072481,0.222295,0.244659,0.940996,32.229493,-22.512885,164.608877
43449,3.609475,5.077626,6.177408,-0.494110,-0.887537,-1.098446,-0.733552,-2.611732,-1.202102,0.035591,0.050789,0.062055,0.999890,-0.003668,-0.013058,-0.006010,0.082114,0.232844,0.241528,0.938459,32.389629,-23.413473,163.110953
43450,4.563289,6.270249,5.345146,-1.678504,-2.010803,-0.765650,-0.853421,-2.526901,-1.187450,0.045327,0.062662,0.053758,0.999893,-0.004267,-0.012634,-0.005937,0.091698,0.242909,0.237796,0.935970,32.491969,-24.274000,161.637313
43451,6.174394,4.841601,4.394711,-3.385890,-0.654124,-1.506977,-0.967402,-2.128522,-1.187620,0.061560,0.048264,0.044369,0.999914,-0.004837,-0.010642,-0.005938,0.100930,0.251015,0.233672,0.933918,32.495383,-24.941070,160.288424
43452,5.568041,5.350142,5.262107,-2.395568,-0.913160,-0.826920,-0.985058,-1.723739,-1.204851,0.055548,0.053426,0.052837,0.999933,-0.004925,-0.008619,-0.006024,0.109776,0.257162,0.229653,0.932243,32.448411,-25.407498,159.062145
43453,5.211528,5.202152,6.281772,-1.506811,-0.517175,-0.265695,-1.277883,-1.461525,-1.338060,0.052004,0.052075,0.062865,0.999931,-0.006389,-0.007307,-0.006690,0.119303,0.261739,0.224555,0.931040,32.234938,-25.708810,157.850600
43454,4.371421,3.372005,7.490347,0.069168,1.186256,-0.583782,-1.499481,-1.289456,-1.512514,0.043487,0.033952,0.074930,0.999923,-0.007497,-0.006447,-0.007562,0.129722,0.265148,0.218722,0.930069,31.914872,-25.878642,156.602376
43455,4.038533,3.537190,8.383324,0.847550,1.161065,0.037930,-1.628678,-1.359001,-1.847649,0.040144,0.035683,0.083817,0.999901,-0.008143,-0.006795,-0.009238,0.141923,0.268384,0.212650,0.928767,31.613388,-25.987305,155.148792
43456,5.052701,3.159541,8.382058,0.098385,1.794985,0.313476,-2.383040,-1.378375,-2.506661,0.050349,0.031962,0.083789,0.999827,-0.011915,-0.006891,-0.012533,0.158178,0.270400,0.203886,0.927520,31.039337,-25.919188,153.330976
43457,5.672710,1.312994,8.307479,-0.072790,3.542081,-0.306620,-3.353891,-1.276471,-3.570962,0.056435,0.013515,0.083211,0.999680,-0.016768,-0.006382,-0.017853,0.180498,0.269958,0.192042,0.926101,30.139676,-25.511406,150.966213
43458,3.499272,0.701089,10.882328,3.278552,3.603820,0.551589,-3.987187,-1.148092,-4.664048,0.034552,0.008372,0.108865,0.999513,-0.019933,-0.005740,-0.023316,0.208462,0.267083,0.178697,0.923730,29.091773,-24.766614,148.044559
43459,-3.443853,0.379210,14.034552,10.467311,0.744707,0.127635,-3.684356,-1.617580,-4.943438,-0.035421,0.007240,0.139949,0.999492,-0.018419,-0.008087,-0.024713,0.237525,0.266177,0.166461,0.919251,28.309959,-24.222978,144.828710
43460,0.366732,1.228911,10.361254,5.217537,0.863691,-0.811464,-2.637462,-2.735597,-4.885095,0.002572,0.013583,0.103479,0.999521,-0.013185,-0.013676,-0.024422,0.265622,0.271432,0.157459,0.911579,28.237185,-24.281124,141.314731
43461,5.791164,4.561344,7.051561,-1.851949,0.675568,0.196340,-2.668949,-2.473862,-5.065876,0.058185,0.045084,0.070630,0.999514,-0.013343,-0.012367,-0.025325,0.294125,0.275054,0.148762,0.903164,28.154759,-24.162634,137.778589
43462,3.139878,5.658166,7.311293,-0.474864,-1.703205,-0.210609,-2.813660,-2.090271,-5.047792,0.032070,0.056802,0.072648,0.999528,-0.014066,-0.010450,-0.025235,0.322176,0.276475,0.139799,0.894550,27.923815,-23.863676,134.371791
43463,4.594323,6.891074,5.894422,-3.017950,-1.672439,-0.250861,-2.860642,-1.933475,-4.873567,0.047051,0.068611,0.058413,0.999554,-0.014301,-0.009666,-0.024364,0.349111,0.276994,0.130519,0.885642,27.590908,-23.547157,131.112912
43464,5.376412,7.114359,5.263638,-4.153643,-1.104868,-0.392255,-3.057971,-1.482881,-4.701363,0.055042,0.070658,0.051958,0.999579,-0.015288,-0.007413,-0.023504,0.374958,0.275042,0.120792,0.877022,27.031350,-23.069753,128.086321
43465,5.355172,8.014542,5.298124,-4.878723,-1.475549,-0.066516,-3.606613,-1.071836,-4.808839,0.055193,0.079773,0.051833,0.999534,-0.018030,-0.005358,-0.024040,0.401451,0.269954,0.109479,0.868318,26.106825,-22.390179,125.120190
43466,5.553326,4.881298,5.743304,-2.965329,0.948931,-0.983644,-4.172791,-0.455125,-4.834615,0.056581,0.048640,0.056545,0.999488,-0.020860,-0.002275,-0.024169,0.428089,0.260776,0.096868,0.859856,24.761263,-21.439765,122.307001
43467,4.928797,1.631463,6.213293,-0.294125,2.553435,-2.134627,-3.388865,-0.118643,-4.487787,0.049616,0.016254,0.061887,0.999605,-0.016942,-0.000593,-0.022436,0.451664,0.251760,0.087812,0.851414,23.722235,-20.449400,119.770250
43468,3.863127,4.362372,7.462137,-1.241386,0.115858,-0.427614,-2.216026,0.142203,-3.773089,0.039508,0.043707,0.074109,0.999760,-0.011079,0.000711,-0.018864,0.470319,0.244437,0.083376,0.843860,23.156320,-19.518720,117.698092
43469,1.427579,8.141760,9.442410,-2.265836,-3.996097,1.865209,-1.889489,0.131231,-3.074480,0.015596,0.082072,0.093641,0.999837,-0.009447,0.000656,-0.015372,0.485446,0.238120,0.079410,0.837458,22.621716,-18.767703,116.014751
43470,3.283663,5.471948,7.597946,-2.076489,-0.730481,-0.137731,-2.078360,0.095952,-2.412005,0.033536,0.055103,0.075392,0.999873,-0.010391,0.000480,-0.012060,0.497896,0.231689,0.073753,0.832455,21.846271,-18.197789,114.691606
43471,4.831309,2.704761,6.442151,-1.135444,2.172042,-1.679362,-1.395137,0.305351,-1.791968,0.048654,0.027061,0.064159,0.999934,-0.006976,0.001527,-0.008960,0.506802,0.226268,0.070731,0.828825,21.329886,-17.660708,113.759407
43472,2.259414,5.668153,8.004039,-1.930098,-1.580980,-0.062255,-1.009582,0.519430,-1.416139,0.023204,0.056922,0.079694,0.999959,-0.005048,0.002597,-0.007081,0.513584,0.221051,0.069414,0.826166,20.949668,-17.094506,113.082604
43473,2.093676,4.160087,8.401483,-0.576240,-0.998466,-0.276212,-1.077538,0.537898,-1.195774,0.021412,0.041925,0.083732,0.999964,-0.005388,0.002689,-0.005979,0.519486,0.215637,0.067618,0.824053,20.488116,-16.567175,112.530620
43474,1.379873,2.976190,9.069799,0.842164,-1.120547,-0.270302,-0.921931,0.521788,-1.076694,0.014196,0.030104,0.090523,0.999971,-0.004610,0.002609,-0.005383,0.524700,0.210726,0.066287,0.822125,20.094226,-16.076697,112.039383
43475,2.565670,3.538931,8.387904,-0.425209,-0.189417,-0.365661,-0.733582,0.427598,-0.965226,0.026007,0.035572,0.083693,0.999979,-0.003668,0.002138,-0.004826,0.529265,0.206717,0.065364,0.820289,19.792960,-15.661028,111.589422
43476,2.856262,3.605123,8.006867,-0.807878,0.137646,-0.615251,-0.634065,0.547759,-0.785093,0.028923,0.036192,0.079875,0.999984,-0.003170,0.002739,-0.003925,0.532928,0.202535,0.064978,0.818990,19.512834,-15.217921,111.263093
43477,2.393726,4.763510,8.490514,-1.506228,-0.764318,0.069419,-0.656032,0.601307,-0.608210,0.024337,0.047839,0.084676,0.999985,-0.003280,0.003007,-0.003041,0.535857,0.198121,0.064464,0.818199,19.189531,-14.780627,111.044536
43478,2.094393,3.303562,8.783000,-0.129408,-0.402975,-0.207423,-0.742131,0.677073,-0.467305,0.021318,0.033312,0.087635,0.999985,-0.003711,0.003385,-0.002337,0.538252,0.193212,0.063659,0.817864,18.792797,-14.330389,110.917030
43479,0.372853,2.792520,10.039820,1.298934,-1.836383,0.369397,-0.639991,0.606281,-0.400328,0.004089,0.028238,0.100296,0.999988,-0.003200,0.003031,-0.002002,0.540285,0.188878,0.063015,0.817586,18.448022,-13.931153,110.810932
43480,0.372259,2.363925,10.232312,1.665384,-1.649925,0.430886,-0.488765,0.354555,-0.392780,0.003951,0.023882,0.102258,0.999994,-0.002444,0.001773,-0.001964,0.542212,0.185985,0.062302,0.817028,18.200311,-13.671069,110.660349
43481,2.353384,2.819287,8.839044,0.024375,0.129260,-0.242002,-0.396626,0.254644,-0.462671,0.023712,0.028313,0.088304,0.999995,-0.001983,0.001273,-0.002313,0.544365,0.183721,0.061757,0.816149,18.018047,-13.453157,110.451505
43482,2.984533,2.737869,7.984036,-0.471110,0.851136,-0.913159,-0.365114,0.373108,-0.495608,0.030062,0.027450,0.079734,0.999994,-0.001826,0.001866,-0.002478,0.546580,0.181050,0.061695,0.815270,17.852692,-13.165690,110.245179
43483,2.949652,3.712050,7.810204,-1.407369,0.494027,-0.798591,-0.339966,0.527142,-0.453889,0.029786,0.037186,0.077961,0.999993,-0.001700,0.002636,-0.002269,0.548547,0.177828,0.062116,0.814626,17.688932,-12.801836,110.089335
43484,3.671756,3.712011,7.011163,-1.980616,1.283415,-1.395637,-0.398762,0.723212,-0.365929,0.037039,0.037192,0.069904,0.999990,-0.001994,0.003616,-0.001830,0.550137,0.173674,0.062757,0.814400,17.472748,-12.346946,110.016454
43485,3.135440,3.500067,7.316566,-1.570014,0.910244,-1.308619,-0.519081,1.062690,-0.265356,0.031789,0.035148,0.072906,0.999982,-0.002595,0.005313,-0.001327,0.551301,0.167829,0.063751,0.814762,17.162876,-11.723524,110.057079
43486,0.792607,3.494401,8.824212,-0.341067,-1.287693,-0.382413,-0.560225,1.152753,-0.169375,0.008464,0.035184,0.088096,0.999979,-0.002801,0.005764,-0.000847,0.552056,0.161535,0.064745,0.815444,16.817548,-11.067131,110.162972
43487,1.964911,3.255735,8.437731,-0.745804,-0.009299,-0.587800,-0.565606,1.147908,-0.077260,0.020145,0.032788,0.084170,0.999979,-0.002828,0.005740,-0.000386,0.552420,0.155262,0.065625,0.816345,16.461095,-10.427359,110.315228
43488,1.790337,3.209559,8.451599,-0.732251,-0.075663,-0.626126,-0.600821,1.234815,-0.034134,0.018430,0.032346,0.084306,0.999976,-0.003004,0.006174,-0.000171,0.552582,0.148550,0.066567,0.817407,16.080940,-9.746239,110.501192
43489,2.990483,2.821519,7.585786,-1.171874,1.307018,-1.364894,-0.609138,1.335994,-0.008598,0.030411,0.028444,0.075569,0.999973,-0.003046,0.006680,-0.000043,0.552585,0.141397,0.067730,0.818578,15.693496,-9.011680,110.712528
43490,4.831563,3.077096,5.935252,-2.638939,3.066085,-2.624278,-0.485149,1.661101,0.015151,0.048804,0.030918,0.058874,0.999963,-0.002426,0.008305,0.000076,0.552256,0.133262,0.070280,0.819948,15.372101,-8.100608,110.982461
43491,5.884992,4.049544,4.776960,-4.316399,3.792982,-3.422824,-0.521124,2.232914,0.049812,0.059367,0.040633,0.047003,0.999934,-0.002606,0.011164,0.000249,0.551552,0.122675,0.074228,0.821724,15.021321,-6.876432,111.352260
43492,5.781159,4.156321,4.343680,-4.614460,3.756894,-3.968689,-0.596092,2.954090,0.127524,0.058417,0.041728,0.042453,0.999886,-0.002980,0.014770,0.000638,0.550206,0.108938,0.079798,0.824038,14.622779,-5.262962,111.862573
43493,3.233912,4.680177,5.954388,-3.847540,1.353977,-2.659031,-0.638273,3.606341,0.263744,0.033342,0.047034,0.058799,0.999831,-0.003191,0.018031,0.001319,0.547909,0.092408,0.086890,0.826865,14.203284,-3.302230,112.528861
43494,0.243010,4.145231,7.855383,-1.921253,-0.915530,-1.186438,-0.746151,3.923274,0.433297,0.003878,0.041752,0.078332,0.999798,-0.003731,0.019615,0.002166,0.544617,0.074331,0.094295,0.830046,13.742153,-1.185338,113.317124
43495,-1.049107,3.590981,8.628171,-0.913338,-1.570623,-0.586020,-0.630455,3.949988,0.617223,-0.008897,0.036153,0.086354,0.999795,-0.003152,0.019749,0.003086,0.540288,0.056496,0.102145,0.833345,13.374928,0.929032,114.195267
43496,-1.763599,3.122868,9.006101,-0.295797,-1.711881,-0.276204,-0.632575,3.993417,0.699253,-0.015944,0.031456,0.090291,0.999790,-0.003163,0.019966,0.003496,0.535368,0.038511,0.110040,0.836534,13.041836,3.060596,115.112744
43497,-2.117366,2.344312,8.734604,0.334001,-1.461396,-0.646686,-0.475469,3.976006,0.769193,-0.019523,0.023574,0.087689,0.999792,-0.002377,0.019879,0.003846,0.529915,0.021024,0.118484,0.839470,12.833353,5.179401,116.058560
43498,-1.679328,3.322262,8.002510,-0.984060,-1.317851,-1.141756,-0.349715,4.045927,0.840686,-0.015311,0.033296,0.080287,0.999785,-0.001748,0.020228,0.004203,0.523880,0.003627,0.127587,0.842175,12.738594,7.329219,117.051383
43499,-1.996507,3.007296,7.401526,-0.778091,-1.325521,-1.723026,-0.319680,4.291252,0.977879,-0.018519,0.030099,0.074375,0.999757,-0.001598,0.021455,0.004889,0.516873,-0.014655,0.137394,0.844837,12.713968,9.601358,118.155366
43500,-4.041336,3.292391,8.187056,-0.103348,-2.726229,-0.498964,-0.195275,4.473756,1.107637,-0.038751,0.032787,0.082718,0.999734,-0.000976,0.022367,0.005538,0.508936,-0.033272,0.148142,0.847308,12.826170,11.956784,119.366477
43501,-5.792507,3.774063,9.427742,0.320301,-3.700266,1.271877,-0.203891,4.431127,1.229485,-0.056049,0.037489,0.095495,0.999735,-0.001019,0.022154,0.006147,0.500246,-0.051641,0.158682,0.849651,12.998421,14.271297,120.657892
43502,-7.061992,3.619543,10.444850,1.034760,-3.932207,2.657863,-0.279626,4.219755,1.326155,-0.068635,0.035883,0.105860,0.999754,-0.001398,0.021097,0.006630,0.491035,-0.069182,0.168324,0.851919,13.190867,16.450132,121.997883
43503,-7.364217,2.474000,10.509347,2.054697,-3.189218,2.692836,-0.313971,3.805944,1.383302,-0.071795,0.024406,0.106433,0.999794,-0.001570,0.019028,0.006916,0.481698,-0.084982,0.176739,0.854113,13.407596,18.387220,123.335973
43504,-6.146422,1.733350,9.603640,1.915843,-1.832184,1.411120,-0.220041,3.431574,1.340083,-0.059920,0.017035,0.097055,0.999830,-0.001100,0.017157,0.006700,0.472731,-0.098950,0.184579,0.855958,13.702367,20.115098,124.619297
43505,-5.554285,2.012912,8.997665,1.256653,-1.432023,0.780768,-0.192063,3.235229,1.236578,-0.054201,0.019878,0.090842,0.999850,-0.000960,0.016175,0.006183,0.464254,-0.112089,0.191954,0.857355,14.022742,21.742183,125.835292
43506,-4.410023,2.208021,8.595848,0.371851,-0.562392,0.074236,-0.228062,3.127179,1.193798,-0.042881,0.021920,0.086610,0.999859,-0.001140,0.015635,0.005969,0.455906,-0.124846,0.198854,0.858499,14.348621,23.308275,127.033230
43507,-5.721742,1.980429,8.888189,1.174885,-1.006274,0.829669,-0.152381,3.024875,1.231391,-0.055985,0.019525,0.089720,0.999866,-0.000762,0.015124,0.006157,0.447423,-0.136930,0.205805,0.859481,14.758328,24.805633,128.262123
43508,-6.475425,2.935778,9.089912,0.722520,-1.655817,1.584923,0.033666,2.766420,1.316678,-0.063680,0.028921,0.091790,0.999883,0.000168,0.013832,0.006583,0.438852,-0.147356,0.212994,0.860423,15.320242,26.137253,129.529483
43509,-7.082207,2.982710,9.801347,0.925059,-1.469562,2.520138,-0.024821,2.478678,1.287100,-0.069790,0.029388,0.098879,0.999902,-0.000124,0.012393,0.006435,0.430580,-0.156681,0.219222,0.861391,15.853626,27.304099,130.756122
43510,-6.349711,2.008149,9.238736,1.281423,-0.491123,1.492960,0.032918,2.196211,1.230169,-0.062599,0.019679,0.093081,0.999921,0.000165,0.010981,0.006151,0.422828,-0.164693,0.225019,0.862241,16.413885,28.313697,131.921802
43511,-6.518649,1.883816,9.545041,1.404707,-0.143051,1.812770,0.165571,1.976624,1.076801,-0.064339,0.018411,0.096104,0.999936,0.000828,0.009883,0.005384,0.416037,-0.171634,0.230754,0.862675,17.009979,29.217928,132.971580
43512,-5.934111,2.450460,9.270821,0.597635,-0.021350,1.448125,0.261397,1.709294,0.935603,-0.058659,0.024107,0.093243,0.999952,0.001307,0.008546,0.004678,0.410195,-0.177360,0.236210,0.862837,17.615974,29.990056,133.900265
43513,-4.883254,3.934039,8.340308,-1.123544,-0.528729,0.547799,0.335144,1.624285,0.952589,-0.048339,0.038969,0.083863,0.999954,0.001676,0.008121,0.004763,0.404410,-0.182538,0.241791,0.862942,18.278017,30.704109,134.838406
43514,-4.625226,5.214163,8.258569,-2.289644,-0.989175,0.702152,0.101544,1.656015,1.047031,-0.045838,0.051859,0.082993,0.999952,0.000508,0.008280,0.005235,0.397926,-0.188187,0.246503,0.863410,18.860624,31.409045,135.859867
43515,-4.711802,4.844714,7.769563,-1.903495,-0.992603,0.258495,-0.092139,1.730843,1.172738,-0.046727,0.048208,0.078079,0.999945,-0.000461,0.008654,0.005864,0.390586,-0.194376,0.250610,0.864208,19.400377,32.122576,136.992948
43516,-5.654183,4.258189,8.347315,-0.969156,-0.736488,1.063720,-0.141369,1.740696,1.284140,-0.056085,0.042280,0.083933,0.999941,-0.000707,0.008703,0.006421,0.382656,-0.200534,0.254616,0.865177,19.974338,32.810068,138.217366
43517,-5.607616,3.362457,7.893668,-0.259417,-0.321073,0.428863,-0.010386,1.619156,1.390544,-0.055667,0.033241,0.079387,0.999943,-0.000052,0.008096,0.006953,0.374511,-0.205766,0.259020,0.866205,20.663888,33.400119,139.498010
43518,-5.079286,4.328369,7.341967,-1.219235,-0.787822,0.002061,0.339968,1.597113,1.655955,-0.050559,0.042739,0.073897,0.999932,0.001700,0.007985,0.008280,0.365555,-0.209867,0.265154,0.867190,21.668305,33.907009,140.963030
43519,-5.453404,6.365336,7.142105,-2.381294,-2.153079,0.720895,0.724604,1.618096,2.258252,-0.054665,0.062776,0.072091,0.999897,0.003623,0.008090,0.011291,0.354305,-0.212531,0.273568,0.868596,23.130475,34.267730,142.838097
43520,-5.531823,7.610572,7.290892,-3.094198,-2.660380,1.368503,1.040769,1.609631,3.003388,-0.055858,0.074887,0.073749,0.999841,0.005204,0.008048,0.015016,0.340069,-0.213513,0.284075,0.870671,25.058000,34.402876,145.201595
43521,-5.473938,7.394382,7.231866,-2.726344,-2.329472,1.326000,1.207777,1.655883,3.550134,-0.055431,0.072524,0.073217,0.999790,0.006038,0.008279,0.017749,0.323445,-0.213567,0.295850,0.873067,27.283712,34.353594,147.924342
43522,-5.945560,6.595348,7.159151,-1.560908,-1.846494,1.333745,1.298079,1.713628,3.810107,-0.060073,0.064344,0.072526,0.999761,0.006490,0.008567,0.019049,0.305545,-0.213233,0.308276,0.875294,29.654989,34.171167,150.817686
43523,-6.401001,6.426533,7.775939,-0.956815,-1.225784,2.032391,1.322379,1.695511,3.860980,-0.064563,0.062504,0.078722,0.999756,0.006611,0.008477,0.019303,0.287335,-0.212614,0.320666,0.877159,32.029178,33.867173,153.713558
43524,-6.881717,5.571648,8.356179,0.104447,-0.151617,2.360193,1.221855,1.615210,3.783011,-0.069168,0.053896,0.084452,0.999770,0.006109,0.008075,0.018914,0.269344,-0.211796,0.332285,0.878739,34.275934,33.451138,156.506422
43525,-7.087385,4.714740,8.786431,0.937523,0.945522,2.347733,1.121847,1.429963,3.559707,-0.071060,0.045388,0.088630,0.999800,0.005609,0.007149,0.017797,0.252428,-0.210594,0.342816,0.880004,36.315416,32.937217,159.064410
43526,-6.951970,3.448365,8.478089,1.826827,1.880239,1.377338,1.107639,1.268396,3.245523,-0.069522,0.032884,0.085407,0.999833,0.005538,0.006342,0.016227,0.237055,-0.209145,0.352642,0.880742,38.181495,32.384342,161.349180
43527,-7.210399,4.284436,8.880902,1.651444,1.863790,2.145780,1.304282,1.114156,2.983184,-0.072229,0.041185,0.089483,0.999852,0.006521,0.005571,0.014915,0.223248,-0.207194,0.362746,0.880708,40.010638,31.797583,163.392739
43528,-7.211192,5.491521,9.091636,1.151177,1.542329,2.879872,1.318802,0.821928,2.860728,-0.072506,0.053278,0.091569,0.999868,0.006594,0.004109,0.014303,0.210455,-0.204091,0.372376,0.880563,41.712115,31.075438,165.210093
43529,-6.508124,6.992462,9.244768,-0.013759,1.129083,3.432316,1.275914,0.607715,2.857872,-0.065784,0.068395,0.093086,0.999873,0.006379,0.003038,0.014289,0.197981,-0.200056,0.381475,0.880487,43.295150,30.221402,166.889002
43530,-6.662912,8.068783,9.100857,-0.112892,0.565715,4.042969,1.227938,0.345234,3.033284,-0.067679,0.079105,0.091614,0.999865,0.006139,0.001726,0.015166,0.185130,-0.194511,0.390192,0.880706,44.788410,29.149237,168.488129
43531,-4.858995,8.021308,7.412454,-0.988178,-0.157456,2.098801,1.081888,0.159516,3.290438,-0.049837,0.078997,0.074593,0.999850,0.005409,0.000798,0.016451,0.171320,-0.187740,0.398219,0.881377,46.158770,27.864718,170.068653
43532,-3.392030,6.890089,5.768255,-1.152730,-0.323417,-0.283188,1.133254,0.270246,3.366893,-0.034992,0.067989,0.058116,0.999841,0.005666,0.001351,0.016834,0.156940,-0.181188,0.406528,0.881632,47.543283,26.556762,171.681523
43533,-3.088275,8.299353,5.185561,-1.648714,-1.450943,0.211018,1.268480,0.528137,3.287421,-0.032100,0.082141,0.052462,0.999841,0.006342,0.002641,0.016436,0.142467,-0.175786,0.415421,0.881038,48.987111,25.348008,173.328786
43534,-4.211022,11.036382,6.400029,-1.654746,-2.115340,3.350452,0.968598,0.709523,3.345951,-0.043716,0.109329,0.064685,0.999842,0.004843,0.003547,0.016729,0.127042,-0.171202,0.423055,0.880667,50.255840,24.144203,175.039319
43535,-3.955845,10.229956,6.391570,-1.254676,-1.449714,2.735901,0.299522,0.717926,3.414177,-0.041066,0.101511,0.064214,0.999847,0.001498,0.003589,0.017070,0.110694,-0.166898,0.427661,0.881475,51.101977,22.886847,176.739605
43536,-4.367570,7.968766,6.839688,0.078013,0.371178,1.554324,-0.056275,0.731020,3.285090,-0.044727,0.078978,0.068537,0.999858,-0.000281,0.003655,0.016425,0.094549,-0.163057,0.430487,0.882697,51.683466,21.670283,178.364257
43537,-5.640278,6.761635,8.013731,1.609298,2.109463,1.793687,-0.157425,0.523822,3.147623,-0.057248,0.066783,0.080234,0.999872,-0.000787,0.002619,0.015737,0.079357,-0.158620,0.432525,0.884005,52.109024,20.431667,179.811080
43538,-5.929501,7.374295,9.082436,1.702719,2.682372,2.912484,-0.150749,0.159935,2.919062,-0.060291,0.072936,0.090817,0.999893,-0.000754,0.000800,0.014595,0.065941,-0.153011,0.434178,0.885285,52.415175,19.158097,-179.022476
43539,-6.686510,8.945824,10.356175,2.032349,2.806748,5.018699,-0.427356,-0.351132,2.863982,-0.068320,0.088708,0.103253,0.999894,-0.002137,-0.001756,0.014319,0.053660,-0.145335,0.434289,0.887351,52.447224,17.730125,-178.134670
43540,-7.833470,11.679985,12.104085,2.569715,2.523049,8.389028,-0.906952,-1.090473,2.885014,-0.080670,0.116193,0.120077,0.999871,-0.004535,-0.005452,0.014424,0.042523,-0.134411,0.431996,0.890789,52.082048,16.033733,-177.592494
43541,-6.343396,10.506001,11.149064,2.077249,2.293600,6.475735,-1.907146,-1.784851,2.742916,-0.065862,0.105221,0.109907,0.999821,-0.009535,-0.008924,0.013714,0.032841,-0.120889,0.424861,0.896549,51.033106,14.162429,-177.408787
43542,-5.663202,7.607368,10.032000,2.585998,2.984030,3.414920,-2.369340,-2.318569,2.445361,-0.058717,0.076540,0.098742,0.999788,-0.011846,-0.011592,0.012226,0.025328,-0.105621,0.415227,0.903210,49.642370,12.229625,-177.539255
43543,-4.703979,6.620228,9.195340,2.365664,2.674932,1.923377,-2.406987,-2.843192,2.248526,-0.049081,0.066753,0.090464,0.999763,-0.012034,-0.014215,0.011242,0.019768,-0.088364,0.405059,0.909796,48.183899,10.183495,-177.926281
43544,-1.705624,4.072997,6.728283,0.413932,2.219287,-2.088602,-2.325158,-3.115539,2.041101,-0.018516,0.041322,0.066524,0.999759,-0.011625,-0.015576,0.010205,0.015726,-0.070226,0.394953,0.915878,46.763586,8.109152,-178.456479
43545,0.884981,2.439495,4.376428,-1.509864,1.442623,-5.173328,-1.597642,-2.858011,1.717085,0.008013,0.024815,0.043686,0.999829,-0.007988,-0.014289,0.008585,0.012912,-0.053832,0.387918,0.920030,45.780888,6.261835,-178.962027
43546,0.386793,5.508220,4.609440,-1.053966,-0.587772,-2.722064,-0.883329,-2.475888,1.629835,0.002849,0.055311,0.045890,0.999880,-0.004416,-0.012379,0.008149,0.009941,-0.039291,0.384058,0.922419,45.237043,4.595602,-179.319417
43547,0.597941,9.779878,4.522474,-1.233723,-3.730495,0.237762,-0.802322,-2.067058,1.691898,0.004686,0.098023,0.044885,0.999903,-0.004011,-0.010335,0.008459,0.005919,-0.026516,0.380519,0.924374,44.763270,3.068253,-179.469974
43548,-1.160461,11.288483,5.867776,0.708716,-3.953033,2.314455,-1.283768,-1.696967,1.948547,-0.013199,0.113134,0.057845,0.999896,-0.006419,-0.008485,0.009742,-0.000064,-0.014958,0.374726,0.927015,44.028952,1.586404,-179.350628
43549,-0.757546,8.429823,5.610560,0.642531,-2.243425,0.069595,-1.828885,-1.692590,2.030231,-0.008904,0.084720,0.055261,0.999871,-0.009144,-0.008463,0.010151,-0.006469,-0.003277,0.366322,0.930460,42.979615,0.077843,-179.172614
43550,-0.867452,5.032715,6.010644,0.943695,0.358017,-1.990586,-1.869996,-1.489253,1.865577,-0.009592,0.050799,0.059564,0.999885,-0.009350,-0.007446,0.009328,-0.012484,0.007172,0.357633,0.933751,41.902718,-1.279072,-178.957817
43551,-3.020359,4.214698,7.818065,3.277149,2.078481,-1.271991,-1.580479,-1.703693,1.713943,-0.031229,0.042497,0.077583,0.999896,-0.007902,-0.008518,0.008569,-0.017411,0.018318,0.350229,0.936323,40.989971,-2.665090,-178.865753
43552,-1.264580,3.763982,7.507807,1.699674,2.055395,-1.749448,-1.489660,-1.937037,1.370576,-0.013630,0.038106,0.074667,0.999902,-0.007448,-0.009685,0.006853,-0.020329,0.029954,0.343236,0.938551,40.140280,-4.024414,-178.989205
43553,-2.925913,5.306203,8.502808,3.706541,1.419937,-0.155913,-1.260298,-2.120621,1.068344,-0.030441,0.053435,0.084374,0.999910,-0.006301,-0.010603,0.005342,-0.021542,0.041893,0.337313,0.940213,39.439186,-5.354031,-179.295286
43554,-1.952506,6.015250,8.305857,3.018184,0.580265,0.163707,-1.530338,-2.493882,0.838189,-0.020808,0.060699,0.082341,0.999884,-0.007651,-0.012469,0.004191,-0.020984,0.055227,0.330142,0.942081,38.614465,-6.771568,-179.822788
43555,-0.842636,4.172824,7.251870,1.916829,1.204260,-1.714408,-1.490766,-2.657556,0.649189,-0.009523,0.042237,0.072083,0.999879,-0.007454,-0.013287,0.003246,-0.019269,0.068995,0.323145,0.943634,37.841408,-8.202075,179.523929
43556,-0.718367,5.381326,7.558239,2.152958,0.301450,-0.764521,-1.341442,-2.863603,0.417819,-0.008374,0.054301,0.075105,0.999873,-0.006707,-0.014317,0.002089,-0.016178,0.083333,0.316874,0.944661,37.195887,-9.653922,178.706928
43557,-0.163674,5.316551,7.148569,1.771711,-0.014539,-1.080594,-1.330372,-3.057121,0.359381,-0.002822,0.053635,0.071093,0.999859,-0.006652,-0.015285,0.001797,-0.012504,0.098466,0.310608,0.945342,36.592230,-11.182543,177.807640
43558,1.128378,5.204853,6.003330,0.510837,-0.664694,-1.831681,-1.344949,-3.263502,0.324676,0.010221,0.052469,0.059854,0.999843,-0.006724,-0.016317,0.001623,-0.008334,0.114494,0.304212,0.945662,36.020731,-12.803909,176.831440
43559,3.048736,3.927127,4.707340,-1.555820,-0.339404,-3.154015,-1.377765,-3.107385,0.162687,0.029722,0.039621,0.047267,0.999855,-0.006888,-0.015536,0.000813,-0.003614,0.129501,0.297653,0.945843,35.459200,-14.307589,175.842090
43560,2.141922,4.852886,5.763009,-0.184965,-0.630305,-2.007780,-1.330759,-2.788800,-0.070698,0.020633,0.048905,0.057597,0.999881,-0.006654,-0.013943,-0.000353,0.001706,0.142623,0.291385,0.945913,34.947248,-15.594259,174.856865
43561,0.467968,4.036062,7.846503,2.094493,0.935849,-1.279889,-1.601726,-2.753549,-0.253229,0.003653,0.040983,0.078193,0.999872,-0.008008,-0.013767,-0.001266,0.008031,0.155271,0.283891,0.946167,34.320016,-16.813982,173.801500
43562,3.519812,-0.774946,5.350207,-1.713247,3.864892,-4.940522,-1.784065,-2.910280,-0.574045,0.034393,-0.007368,0.054073,0.999850,-0.008920,-0.014551,-0.002870,0.016235,0.168157,0.275701,0.946281,33.671329,-18.016742,172.541159
43563,3.230637,2.362235,6.933557,-0.554122,1.961568,-2.070950,-1.227735,-2.483648,-1.244979,0.031591,0.023851,0.069585,0.999885,-0.006138,-0.012418,-0.006225,0.026554,0.178098,0.270666,0.945683,33.422769,-18.812582,171.088513
43564,-3.303899,6.717506,11.977117,7.674743,-0.354302,2.038618,-1.575823,-2.550093,-1.430430,-0.034072,0.068355,0.118806,0.999862,-0.007879,-0.012750,-0.007152,0.038141,0.188013,0.264073,0.945231,33.032520,-19.590069,169.517602
43565,-3.365013,5.237329,11.312481,7.625188,0.208536,0.604466,-2.064207,-3.718812,-1.442787,-0.035354,0.053784,0.111928,0.999748,-0.010320,-0.018592,-0.007213,0.051774,0.203266,0.254857,0.943954,32.527274,-20.938008,167.549936
43566,1.839323,0.005158,7.530189,1.566678,3.763882,-3.220569,-1.987418,-4.104008,-1.760672,0.016847,0.000649,0.075654,0.999701,-0.009936,-0.020518,-0.008802,0.067293,0.219833,0.246086,0.941587,32.221686,-22.387194,165.281532
43567,1.211186,0.890240,7.651898,2.456882,2.762579,-2.947180,-1.531830,-4.045418,-2.269933,0.010666,0.009363,0.076674,0.999702,-0.007658,-0.020225,-0.011349,0.084595,0.235525,0.239893,0.937989,32.332104,-23.656517,162.744883
43568,1.336609,2.781443,7.103661,2.233224,0.798122,-2.440044,-1.396496,-4.259556,-2.591081,0.012215,0.028148,0.071109,0.999665,-0.006982,-0.021295,-0.012954,0.103447,0.251737,0.234466,0.933249,32.682788,-24.920260,159.935854
43569,3.648531,3.688874,5.779987,-0.301525,0.167090,-2.053407,-1.365739,-4.219919,-2.847505,0.035783,0.036773,0.058308,0.999653,-0.006828,-0.021097,-0.014236,0.123339,0.267315,0.229369,0.927750,33.174849,-26.067028,156.965599
43570,3.450119,4.887676,5.591047,-0.232131,-0.993644,-1.688007,-1.459538,-3.954485,-3.014737,0.034127,0.048770,0.056232,0.999664,-0.007297,-0.019770,-0.015072,0.143743,0.281221,0.224063,0.921981,33.675552,-27.009955,153.962665
43571,4.624085,4.599811,4.455455,-1.694441,-0.614837,-2.122381,-1.471851,-3.807487,-3.055889,0.046085,0.045624,0.045096,0.999675,-0.007358,-0.019035,-0.015278,0.164095,0.294217,0.218720,0.915790,34.213034,-27.846257,150.956689
43572,7.020564,5.737753,3.600720,-4.177550,-0.663329,-1.021851,-1.600099,-3.407606,-3.251958,0.070507,0.056525,0.036752,0.999691,-0.008000,-0.017036,-0.016258,0.184991,0.304870,0.213263,0.909589,34.701616,-28.405447,147.965542
43573,6.297836,8.463678,4.867600,-3.418166,-2.752738,0.944878,-2.266162,-2.651638,-3.525491,0.063819,0.084067,0.048564,0.999693,-0.011330,-0.013257,-0.017626,0.207227,0.310996,0.205767,0.904433,34.766676,-28.507161,145.095691
43574,4.862001,6.676908,5.476606,-1.667896,-1.734232,-0.199034,-2.873249,-2.317037,-3.579762,0.049183,0.066675,0.054375,0.999670,-0.014365,-0.011584,-0.017897,0.230175,0.314723,0.195823,0.899790,34.438937,-28.438921,142.320735
43575,5.209498,5.308169,5.889768,-1.344665,-0.298289,-0.426149,-3.020919,-2.018948,-3.593964,0.052456,0.053028,0.058625,0.999674,-0.015103,-0.010094,-0.017968,0.252977,0.316722,0.185454,0.895152,33.971880,-28.242005,139.649936
43576,5.595733,5.266363,5.654642,-1.839580,-0.035226,-0.451322,-3.265622,-1.733865,-3.719665,0.056447,0.052536,0.056176,0.999656,-0.016326,-0.008668,-0.018596,0.276295,0.316805,0.174424,0.890434,33.334520,-27.891723,137.018744
43577,6.489383,4.760012,5.379864,-2.518066,0.950074,-0.513917,-3.813195,-1.297233,-4.047435,0.065506,0.047298,0.053318,0.999592,-0.019063,-0.006485,-0.020234,0.301350,0.313666,0.161949,0.885762,32.372177,-27.261949,134.369184
43578,6.590350,4.427319,5.690782,-2.375164,1.413187,-0.443770,-4.426864,-0.826317,-4.484571,0.066660,0.044033,0.056206,0.999495,-0.022131,-0.004131,-0.022419,0.328645,0.306878,0.148004,0.880859,31.059321,-26.317864,131.645124
43579,5.100452,4.038475,6.901644,-0.732527,0.852597,-0.395276,-4.921055,-0.487647,-4.860533,0.051826,0.040816,0.068141,0.999399,-0.024600,-0.002438,-0.024298,0.357740,0.297168,0.132853,0.875250,29.461522,-25.159512,128.821887
43580,3.484390,3.688269,7.318741,0.348569,-0.021962,-0.914495,-5.224863,-0.329227,-5.184922,0.035698,0.037861,0.072265,0.999321,-0.026118,-0.001646,-0.025919,0.388140,0.285631,0.116967,0.868378,27.694038,-23.908142,125.858620
43581,2.202699,1.223104,9.120411,3.298149,0.542189,-0.961255,-5.026860,-0.329729,-5.238250,0.022227,0.013938,0.090905,0.999340,-0.025129,-0.001648,-0.026185,0.417972,0.274062,0.101861,0.860124,25.998993,-22.724810,122.853419
43582,3.775505,1.770514,7.874478,1.246689,1.365555,-1.096289,-4.213881,-0.540227,-5.203575,0.038015,0.018374,0.078465,0.999436,-0.021065,-0.002701,-0.026013,0.446136,0.264781,0.089635,0.850188,24.733913,-21.730965,119.803693
43583,6.403941,1.966878,5.495548,-1.438485,3.621187,-2.073451,-3.546766,-0.063493,-4.802426,0.064485,0.019095,0.054634,0.999554,-0.017731,-0.000317,-0.024009,0.471051,0.254873,0.080688,0.840619,23.674763,-20.639381,117.099717
43584,4.004373,3.341836,6.319157,-1.064594,0.937972,-1.743055,-1.814730,0.390404,-3.790767,0.040798,0.033221,0.062810,0.999777,-0.009073,0.001952,-0.018952,0.489008,0.247376,0.078742,0.832752,23.325928,-19.572234,115.077428
43585,1.597047,10.758881,8.213659,-5.069486,-4.891927,1.854696,-0.965978,0.466765,-2.639036,0.017582,0.107759,0.081577,0.999899,-0.004830,0.002334,-0.013195,0.500935,0.242006,0.079071,0.827191,23.213063,-18.732635,113.722317
43586,3.928441,9.701504,6.623062,-6.070078,-1.955267,0.805350,-1.290921,0.591244,-1.641173,0.040275,0.097112,0.065486,0.999941,-0.006454,0.002956,-0.008206,0.508998,0.235670,0.077147,0.824275,22.712605,-18.057916,112.952656
43587,5.629106,7.035657,5.775665,-5.110824,1.036370,-0.466722,-1.550440,0.998325,-1.181190,0.056993,0.070465,0.056927,0.999940,-0.007752,0.004992,-0.005906,0.515255,0.227139,0.074639,0.823012,21.949364,-17.275090,112.527265
43588,4.862974,3.463994,6.995590,-1.529245,1.978304,-0.962247,-1.735894,1.476328,-1.057206,0.049327,0.034984,0.069291,0.999921,-0.008679,0.007381,-0.005286,0.520961,0.216189,0.072451,0.822565,21.027378,-16.270353,112.265520
43589,2.154044,2.203428,9.665295,1.474587,-0.041832,0.223898,-1.359702,1.521902,-0.983331,0.022384,0.022581,0.096332,0.999936,-0.006798,0.007609,-0.004917,0.525867,0.206016,0.071836,0.822107,20.305287,-15.258961,112.041121
43590,1.487051,3.103259,11.177104,1.407611,-1.073495,1.747221,-1.202495,1.294474,-0.872856,0.015730,0.031636,0.111482,0.999951,-0.006012,0.006472,-0.004364,0.530178,0.197220,0.071150,0.821556,19.669786,-14.395273,111.820640
43591,0.610290,2.167877,12.261600,2.769307,-1.472915,2.252867,-1.034023,0.983479,-0.687050,0.006781,0.022290,0.122470,0.999969,-0.005170,0.004917,-0.003435,0.533629,0.190186,0.070140,0.821066,19.118610,-13.736279,111.634377
43592,0.465468,1.927468,11.729420,2.677772,-1.406567,1.692132,-0.870870,0.542703,-0.573706,0.005029,0.019771,0.117196,0.999983,-0.004354,0.002714,-0.002869,0.536588,0.185437,0.068515,0.820361,18.666300,-13.339534,111.421567
43593,3.145692,1.267832,9.100357,1.207717,1.544583,-0.300870,-0.670158,0.329752,-0.590940,0.031645,0.012890,0.090909,0.999989,-0.003351,0.001649,-0.002955,0.539490,0.182079,0.067154,0.819322,18.338739,-13.056102,111.157023
43594,3.972509,2.166823,7.178593,-0.620915,2.125081,-1.620846,-0.634715,0.544283,-0.695701,0.039996,0.021757,0.071608,0.999985,-0.003174,0.002721,-0.003478,0.542702,0.177905,0.066611,0.818161,18.035012,-12.639150,110.872061
43595,3.460871,3.055922,6.118988,-1.645814,1.446176,-2.467108,-0.542862,0.860685,-0.709108,0.034980,0.030601,0.060957,0.999981,-0.002714,0.004303,-0.003546,0.545765,0.172669,0.067311,0.817188,17.770629,-12.048143,110.635162
43596,4.481385,4.559789,4.116863,-4.068726,2.018481,-3.714075,-0.596578,1.295850,-0.652175,0.045227,0.045573,0.040741,0.999969,-0.002983,0.006479,-0.003261,0.548465,0.165528,0.068927,0.816723,17.451816,-11.231433,110.504576
43597,6.075150,3.984487,1.407465,-5.104524,3.966068,-6.210396,-0.683168,2.065808,-0.497628,0.060991,0.039740,0.013310,0.999938,-0.003416,0.010329,-0.002488,0.550292,0.155034,0.072166,0.817273,17.040955,-10.019604,110.588266
43598,6.255162,5.367185,0.439831,-6.762388,3.704804,-6.868664,-0.682360,3.060130,-0.319164,0.062693,0.053584,0.003257,0.999876,-0.003412,0.015300,-0.001596,0.550924,0.140531,0.077992,0.818933,16.592980,-8.293011,110.928508
43599,4.523933,5.244465,0.820377,-6.002630,2.179921,-7.010017,-0.984574,4.111261,-0.062057,0.045408,0.052467,0.007013,0.999777,-0.004923,0.020555,-0.000310,0.550118,0.120928,0.085268,0.821873,15.945721,-6.024828,111.562890
43600,1.334967,4.479167,2.750791,-3.693414,-0.398504,-5.861812,-1.024078,4.887791,0.226272,0.013962,0.044946,0.026942,0.999688,-0.005120,0.024436,0.001131,0.547521,0.098110,0.094300,0.825653,15.284220,-3.367954,112.448350
43601,-1.886988,4.014078,5.242404,-1.509850,-2.911867,-3.780139,-1.095451,5.297998,0.445295,-0.017566,0.040389,0.052680,0.999632,-0.005477,0.026487,0.002226,0.543494,0.073415,0.103985,0.829706,14.617499,-0.503901,113.482221
43602,-3.883807,2.939075,6.867064,0.482698,-3.904869,-2.370594,-1.044031,5.335944,0.598246,-0.037079,0.029640,0.069521,0.999626,-0.005220,0.026676,0.002991,0.538385,0.048754,0.113859,0.833547,14.035212,2.368238,114.574966
43603,-4.151103,2.385450,7.726292,1.103682,-3.466769,-1.484140,-0.907525,5.303706,0.692205,-0.039528,0.024069,0.078220,0.999632,-0.004537,0.026515,0.003461,0.532477,0.024586,0.124102,0.836937,13.585060,5.221720,115.691628
43604,-5.032694,1.567638,8.063946,2.107325,-3.480194,-1.081070,-0.726953,5.202814,0.828954,-0.048273,0.015770,0.081856,0.999646,-0.003634,0.026011,0.004144,0.525648,0.001411,0.134735,0.839964,13.301170,8.005955,116.858499
43605,-5.376682,2.606097,8.249760,1.228223,-3.761005,-0.427220,-0.435715,5.023868,0.915908,-0.051792,0.026002,0.083759,0.999672,-0.002178,0.025117,0.004579,0.518218,-0.020214,0.146019,0.842449,13.240950,10.684333,118.049580
43606,-5.545832,2.972089,8.044986,0.833255,-3.711069,-0.334920,-0.437967,4.953982,1.075354,-0.053604,0.029607,0.081728,0.999676,-0.002190,0.024767,0.005376,0.509826,-0.041401,0.157044,0.844808,13.254738,13.301936,119.332021
43607,-7.063681,3.433109,8.967390,1.119369,-4.486037,1.173518,-0.339790,4.796367,1.247769,-0.068674,0.034053,0.091279,0.999692,-0.001699,0.023979,0.006238,0.500531,-0.061531,0.168008,0.847028,13.402213,15.808491,120.709148
43608,-8.837641,3.831374,10.782217,1.637405,-5.018096,3.646519,-0.497666,4.418221,1.336933,-0.086222,0.038004,0.109648,0.999731,-0.002488,0.022089,0.006684,0.490835,-0.080328,0.177302,0.849230,13.523417,18.088493,122.108614
43609,-8.536263,2.707359,11.110971,2.319005,-3.661595,3.783116,-0.685979,3.798750,1.329913,-0.083412,0.026899,0.112614,0.999792,-0.003430,0.018992,0.006649,0.481411,-0.096941,0.184174,0.851426,13.559645,20.023315,123.435533
43610,-6.781754,0.503334,10.032046,3.126269,-1.291115,1.824909,-0.606106,3.348134,1.176577,-0.066155,0.004947,0.101422,0.999838,-0.003030,0.016740,0.005883,0.472911,-0.111537,0.190178,0.853081,13.634385,21.726448,124.624247
43611,-5.846474,1.198289,10.156657,1.884877,-0.525518,1.803510,-0.454456,3.040412,0.909714,-0.056967,0.011954,0.102413,0.999872,-0.002272,0.015201,0.004548,0.465792,-0.124696,0.195878,0.853885,13.752366,23.292740,125.622920
43612,-4.767218,1.298178,9.482781,1.100539,0.209931,0.820864,-0.238280,2.847871,0.820872,-0.046369,0.012903,0.095479,0.999889,-0.001191,0.014239,0.004104,0.459262,-0.136578,0.201969,0.854186,13.993986,24.761346,126.556094
43613,-4.614474,3.003283,9.825489,-0.548571,-0.107511,1.436070,-0.013150,2.723897,0.873212,-0.044932,0.029841,0.098870,0.999898,-0.000066,0.013619,0.004366,0.452692,-0.147340,0.208711,0.854284,14.397370,26.148801,127.521342
43614,-4.541925,4.160113,9.254157,-1.608393,-0.681726,1.165422,0.020152,2.556426,1.011373,-0.044441,0.041365,0.093118,0.999906,0.000101,0.012782,0.005057,0.445639,-0.157130,0.215294,0.854614,14.879167,27.416704,128.569091
43615,-4.584796,5.318744,9.157062,-2.613911,-1.143244,1.368450,-0.135849,2.592901,1.118906,-0.044953,0.052997,0.092121,0.999900,-0.000679,0.012964,0.005594,0.437881,-0.167285,0.221318,0.855158,15.335441,28.680978,129.713343
43616,-5.352138,4.490024,9.524429,-1.621508,-0.834328,1.857386,-0.364259,2.602888,1.216985,-0.052549,0.044753,0.095851,0.999895,-0.001821,0.013014,0.006085,0.429407,-0.177830,0.226443,0.855984,15.729030,29.928062,130.947124
43617,-6.526576,3.481199,10.307784,-0.316887,-0.418506,2.863424,-0.331497,2.512022,1.255788,-0.064182,0.034578,0.103831,0.999900,-0.001657,0.012560,0.006279,0.420816,-0.187846,0.231481,0.856764,16.178357,31.111175,132.213694
43618,-6.998629,3.004602,10.558887,0.218679,-0.075168,3.204205,-0.178319,2.233969,1.282607,-0.068992,0.029696,0.106337,0.999917,-0.000892,0.011170,0.006413,0.412493,-0.196271,0.236594,0.857526,16.734864,32.127238,133.472849
43619,-6.284961,3.909148,10.049473,-0.909327,-0.192588,2.633445,0.002075,2.040655,1.309363,-0.062074,0.038682,0.101131,0.999927,0.000010,0.010203,0.006547,0.404401,-0.203444,0.242050,0.858186,17.411934,33.021607,134.735544
43620,-6.337078,4.613477,10.035553,-1.475475,-0.424794,2.828301,-0.100786,1.903749,1.296645,-0.062709,0.045778,0.100931,0.999934,-0.000504,0.009519,0.006483,0.396362,-0.210212,0.246762,0.858963,18.042228,33.830851,135.987241
43621,-6.359963,3.744261,10.000811,-0.815110,0.211054,2.587844,-0.164951,1.780412,1.317266,-0.062951,0.037109,0.100540,0.999938,-0.000825,0.008902,0.006586,0.388274,-0.216538,0.250923,0.859879,18.651109,34.558393,137.245856
43622,-6.145982,3.641277,9.866415,-0.872835,0.481872,2.327395,-0.017945,1.656344,1.388232,-0.060891,0.035998,0.099167,0.999942,-0.000090,0.008282,0.006941,0.380142,-0.221916,0.255543,0.860781,19.382514,35.192573,138.545442
43623,-6.212734,3.782851,9.277904,-0.831461,0.178376,1.945789,0.239062,1.518029,1.543992,-0.061710,0.037240,0.093293,0.999941,0.001195,0.007590,0.007720,0.371764,-0.225998,0.261127,0.861701,20.320729,35.707004,139.933725
43624,-5.395801,5.832606,8.462734,-2.674226,-0.925488,1.445208,0.713250,1.461140,2.026609,-0.053922,0.057476,0.085227,0.999916,0.003566,0.007305,0.010133,0.361855,-0.228276,0.269177,0.862841,21.733094,36.067519,141.648344
43625,-5.251312,8.609223,7.935237,-4.579533,-2.648108,1.877918,1.092677,1.534218,2.764071,-0.053079,0.084925,0.080224,0.999860,0.005463,0.007671,0.013820,0.349026,-0.229154,0.279757,0.864526,23.673714,36.263795,143.882436
43626,-5.460064,9.245595,7.866663,-4.642884,-2.971803,2.302456,1.177064,1.648516,3.483079,-0.055540,0.091027,0.079660,0.999797,0.005885,0.008242,0.017414,0.332897,-0.229275,0.291652,0.866921,25.971128,36.278189,146.627093
43627,-6.123412,8.358937,8.056488,-3.293259,-2.365160,2.670064,1.234804,1.681850,3.948660,-0.062179,0.081866,0.081594,0.999751,0.006174,0.008409,0.019742,0.314626,-0.228680,0.304230,0.869574,28.471531,36.096460,149.669828
43628,-6.911142,7.156390,8.174828,-1.607244,-1.571546,2.865394,1.314740,1.659810,4.167563,-0.069891,0.069571,0.082788,0.999727,0.006573,0.008298,0.020836,0.295352,-0.227387,0.317241,0.872021,31.071414,35.730103,152.818156
43629,-7.620924,6.671742,8.644814,-0.527498,-0.869223,3.463930,1.313931,1.467921,4.215255,-0.076945,0.064528,0.087440,0.999729,0.006569,0.007339,0.021074,0.276024,-0.225083,0.329816,0.874282,33.595039,35.144920,155.878369
43630,-7.224065,5.900942,8.520842,0.021589,0.002826,2.820433,1.205310,1.272731,4.070901,-0.072869,0.057014,0.086018,0.999754,0.006026,0.006363,0.020353,0.257370,-0.222171,0.341345,0.876290,35.908048,34.407557,158.723042
43631,-7.631770,5.116846,8.741592,1.059356,0.868513,2.794775,1.209382,1.194050,3.988546,-0.076786,0.049108,0.088175,0.999765,0.006046,0.005970,0.019941,0.239105,-0.218968,0.352503,0.877852,38.107098,33.574006,161.423611
43632,-7.840822,5.826093,8.781732,1.122016,0.735291,3.253349,1.357477,0.896279,4.046112,-0.079162,0.056065,0.088556,0.999762,0.006787,0.004481,0.020229,0.221147,-0.214050,0.363880,0.879129,40.266498,32.499781,163.958619
43633,-6.694074,6.343625,8.400859,0.324769,0.708224,2.637372,1.199271,0.718225,3.980431,-0.067876,0.061585,0.084624,0.999778,0.005996,0.003591,0.019901,0.203544,-0.208571,0.374098,0.880409,42.187709,31.301752,166.300904
43634,-7.107082,6.314815,8.735007,0.937097,1.178258,3.009381,1.110439,0.637783,3.925892,-0.072006,0.061254,0.087922,0.999787,0.005552,0.003189,0.019628,0.186136,-0.202812,0.383648,0.881496,43.947268,30.024935,168.505082
43635,-6.323151,6.960137,8.247140,0.398827,0.799718,2.662401,0.980898,0.356650,3.919987,-0.064426,0.067940,0.082922,0.999794,0.004904,0.001783,0.019599,0.169097,-0.195887,0.392173,0.882743,45.483045,28.585317,170.502231
43636,-5.634239,7.035124,7.305976,0.305156,0.364292,1.779394,0.944339,0.320430,3.887642,-0.057574,0.068894,0.073479,0.999799,0.004721,0.001602,0.019437,0.152154,-0.188790,0.400336,0.883707,46.908622,27.096855,172.398688
43637,-6.325237,10.316970,8.113429,-0.234691,-0.943481,4.723712,0.959137,0.195272,4.077035,-0.065253,0.101462,0.081687,0.999780,0.004795,0.000976,0.020384,0.134588,-0.180697,0.408456,0.884533,48.273513,25.442879,174.249374
43638,-5.692831,12.935199,8.453046,-1.337607,-2.068319,6.468601,0.299614,-0.062748,4.416099,-0.059790,0.127926,0.084704,0.999755,0.001498,-0.000314,0.022079,0.115377,-0.171102,0.413624,0.886751,49.192257,23.509108,176.055682
43639,-4.136514,10.577897,7.858530,-1.260572,-0.868251,3.913016,-0.726525,-0.174118,4.430348,-0.043767,0.105112,0.078165,0.999748,-0.003632,-0.000871,0.022150,0.095412,-0.161517,0.413962,0.890755,49.427195,21.514618,177.766740
43640,-4.233043,5.807821,8.241988,0.595423,2.463964,0.824381,-1.064574,-0.284150,4.149568,-0.043646,0.057619,0.082051,0.999770,-0.005322,-0.001421,0.020746,0.076591,-0.152077,0.412337,0.894978,49.350554,19.595212,179.289570
43641,-4.484260,2.118559,7.197195,2.236512,4.079569,-2.413416,-0.616382,-0.502491,3.693506,-0.045407,0.020572,0.071794,0.999822,-0.003082,-0.002512,0.018466,0.060585,-0.142395,0.412094,0.897904,49.386301,17.797068,-179.484802
43642,-4.337655,4.160647,7.726827,1.707764,3.193017,-0.717965,-0.229356,-0.840012,3.033768,-0.044326,0.041027,0.077036,0.999875,-0.001147,-0.004200,0.015168,0.048479,-0.132367,0.412909,0.899797,49.486766,16.155285,-178.683525
43643,-6.964961,9.538790,9.796456,3.078789,1.351419,5.158925,-0.092613,-1.094733,2.818887,-0.071520,0.094434,0.097533,0.999886,-0.000463,-0.005473,0.014094,0.037959,-0.121600,0.414018,0.901311,49.586675,14.514845,-178.090076
43644,-6.630810,12.084536,10.155252,2.758246,-0.067675,7.083773,-0.951828,-1.841141,2.935263,-0.069004,0.120325,0.100352,0.999839,-0.004759,-0.009205,0.014676,0.027915,-0.107333,0.411082,0.904827,49.110130,12.543826,-177.784824
43645,-3.897947,9.171483,8.637178,1.276775,0.453251,3.304241,-1.993636,-2.121634,2.668655,-0.041113,0.092028,0.085027,0.999805,-0.009968,-0.010607,0.013342,0.019096,-0.092478,0.403091,0.910275,47.984764,10.588572,-177.680097
43646,-3.540389,5.686912,8.072070,1.785868,2.149533,0.297249,-2.363895,-2.248103,2.324348,-0.036968,0.057391,0.079635,0.999799,-0.011819,-0.011240,0.011621,0.011911,-0.077716,0.393096,0.916130,46.620500,8.728936,-177.722676
43647,-3.221516,4.246443,7.812178,1.934164,2.752545,-0.974480,-2.006446,-2.351664,2.195044,-0.033596,0.042879,0.077303,0.999820,-0.010032,-0.011758,0.010975,0.005665,-0.062706,0.384518,0.920968,45.453767,6.883881,-177.818654
43648,-1.643262,4.449384,7.159545,0.710861,1.941908,-1.477671,-1.597563,-2.462632,2.069022,-0.017773,0.044883,0.071025,0.999839,-0.007987,-0.012312,0.010345,0.000332,-0.047373,0.377657,0.924733,44.518893,5.040889,-177.976822
43649,-0.842685,6.859447,7.580911,0.083189,0.349789,0.438810,-1.493016,-2.363352,1.860451,-0.009959,0.069069,0.075183,0.999859,-0.007465,-0.011816,0.009302,-0.004191,-0.032900,0.371107,0.927998,43.646650,3.322207,-178.151764
43650,-1.214466,7.705032,7.879627,0.741914,-0.211737,1.247322,-1.750537,-2.364610,1.729342,-0.013739,0.077621,0.077962,0.999854,-0.008752,-0.011822,0.008646,-0.008153,-0.018628,0.363240,0.931473,42.631617,1.649250,-178.353501
43651,-0.389660,6.753225,6.802551,0.262545,-0.445619,-0.233747,-1.895178,-2.384805,1.619179,-0.005252,0.068134,0.067325,0.999851,-0.009475,-0.011923,0.008095,-0.011568,-0.004472,0.354576,0.934945,41.538437,0.009068,-178.578810
43652,-1.509107,6.799998,7.032197,1.659507,-0.477665,-0.067047,-1.820391,-2.429758,1.592239,-0.016483,0.068508,0.069505,0.999853,-0.009102,-0.012148,0.007961,-0.014778,0.009864,0.346166,0.938005,40.495396,-1.646712,-178.802202
43653,0.515698,5.073010,5.757142,-0.181531,-0.195264,-2.127036,-1.912263,-2.516412,1.458054,0.004064,0.051310,0.057138,0.999849,-0.009561,-0.012581,0.007290,-0.017195,0.024358,0.337226,0.940951,39.407905,-3.292668,-179.085724
43654,1.651340,2.509078,4.795411,-1.290140,1.048351,-4.404126,-1.522848,-2.224813,1.259787,0.015820,0.025557,0.047939,0.999889,-0.007614,-0.011124,0.006299,-0.019217,0.037125,0.330036,0.943042,38.549021,-4.744104,-179.325006
43655,0.535050,4.697679,5.479738,0.149268,-0.289875,-2.582676,-0.924789,-2.006235,1.169292,0.004526,0.047258,0.054627,0.999922,-0.004624,-0.010031,0.005846,-0.021276,0.048629,0.325591,0.944019,38.032573,-6.065649,-179.509997
43656,0.190605,6.358639,6.082756,0.831439,-1.297112,-1.147159,-1.003515,-1.841138,1.081661,0.001003,0.063898,0.060519,0.999930,-0.005017,-0.009205,0.005408,-0.023173,0.059232,0.320737,0.945030,37.472432,-7.285664,-179.664809
43657,-0.544020,6.082360,6.539080,1.753533,-0.894270,-1.084993,-1.223554,-1.757636,0.854826,-0.006273,0.061196,0.064964,0.999934,-0.006118,-0.008788,0.004274,-0.024059,0.069074,0.314850,0.946319,36.796989,-8.388331,-179.881957
43658,-3.701411,7.371078,9.238785,5.494404,-0.448741,1.277434,-1.379988,-1.905425,0.744238,-0.038164,0.074204,0.091517,0.999924,-0.006900,-0.009527,0.003721,-0.024134,0.079468,0.308242,0.947676,36.051114,-9.526171,179.811281
43659,-3.218669,3.539556,9.270574,4.892261,2.474304,-0.937656,-1.811693,-2.571248,0.597317,-0.033479,0.036132,0.091956,0.999872,-0.009058,-0.012856,0.002986,-0.022307,0.092808,0.299656,0.949261,35.113039,-10.927534,179.225590
43660,-1.065072,0.600751,8.052322,2.537146,4.054096,-3.220538,-1.262027,-3.016765,0.310789,-0.011873,0.006497,0.080310,0.999865,-0.006310,-0.015083,0.001554,-0.018703,0.107757,0.293788,0.949593,34.560393,-12.453107,178.368831
43661,-0.427155,3.152867,7.953665,2.395325,1.803420,-1.788500,-0.952906,-3.290494,-0.012793,-0.005576,0.031907,0.079301,0.999853,-0.004764,-0.016452,-0.000064,-0.013320,0.123462,0.289499,0.949089,34.261726,-14.008441,177.270790
43662,1.372130,4.380831,6.737764,0.731599,0.114471,-1.693624,-0.909441,-3.378732,-0.154410,0.012617,0.044105,0.067397,0.999847,-0.004547,-0.016893,-0.000772,-0.007162,0.139345,0.285424,0.948190,34.042545,-15.565481,176.073617
43663,1.737489,7.083523,6.792595,0.857421,-2.162586,-0.121527,-1.005182,-3.250205,-0.186954,0.016338,0.071161,0.067840,0.999855,-0.005026,-0.016250,-0.000935,-0.000963,0.154529,0.280826,0.947236,33.791923,-17.055137,174.901049
43664,3.873159,3.371722,4.154095,-2.108088,-0.312688,-3.561061,-1.645948,-3.041578,-0.280152,0.038144,0.034007,0.041845,0.999850,-0.008229,-0.015207,-0.001401,0.005880,0.168555,0.273185,0.947061,33.195061,-18.424314,173.753324
43665,3.190456,4.048169,5.793516,-0.745586,-0.153685,-2.095807,-1.291598,-2.521070,-0.438651,0.031262,0.040787,0.058069,0.999897,-0.006458,-0.012605,-0.002193,0.012463,0.179864,0.267297,0.946597,32.792825,-19.502968,172.701535
43666,0.761072,4.889819,7.680331,2.380370,-0.321698,-0.997719,-1.586770,-2.488033,-0.532237,0.006789,0.049487,0.076500,0.999888,-0.007934,-0.012440,-0.002661,0.019707,0.190841,0.260045,0.946344,32.252415,-20.545628,171.614689
43667,0.204065,3.414969,8.472637,3.259319,1.089825,-1.346722,-1.806262,-2.731652,-0.692035,0.001006,0.034908,0.084432,0.999860,-0.009031,-0.013658,-0.003460,0.028228,0.202686,0.251813,0.945892,31.662038,-21.667638,170.369073
43668,-0.234603,1.455352,8.673726,3.849429,2.632344,-2.352682,-1.739748,-3.140453,-0.969766,-0.003633,0.015323,0.086556,0.999827,-0.008698,-0.015701,-0.004849,0.038503,0.216062,0.244044,0.944604,31.239864,-22.916784,168.844835
43669,0.728421,1.215897,8.058793,2.944540,2.568916,-2.624050,-1.577670,-3.503311,-1.410813,0.005961,0.012750,0.080601,0.999791,-0.007888,-0.017515,-0.007054,0.051111,0.230560,0.237350,0.942282,31.085558,-24.220102,166.960052
43670,2.108461,1.857062,7.293588,1.607914,1.838906,-2.388480,-1.562235,-3.581175,-1.901541,0.019955,0.018948,0.073153,0.999764,-0.007811,-0.017904,-0.009507,0.066085,0.244740,0.231168,0.939306,31.106595,-25.417984,164.767767
43671,1.607489,2.780903,7.382702,2.282021,0.834715,-2.137188,-1.457076,-3.619425,-2.141530,0.015038,0.028183,0.073901,0.999752,-0.007285,-0.018096,-0.010707,0.082068,0.258742,0.225649,0.935628,31.301833,-26.560098,162.408060
43672,4.200695,3.845940,5.009789,-1.044318,-0.344736,-2.307760,-1.360610,-3.691445,-2.360389,0.041529,0.038311,0.050606,0.999737,-0.006802,-0.018456,-0.011801,0.098989,0.272735,0.220718,0.931182,31.672298,-27.660714,159.874819
43673,5.766136,3.712985,3.701283,-2.939823,-0.138145,-2.596724,-1.419992,-3.238264,-2.562778,0.057527,0.036658,0.037684,0.999762,-0.007099,-0.016190,-0.012813,0.116384,0.284236,0.215901,0.926850,32.040297,-28.465705,157.354827
43674,5.016550,5.186742,4.059348,-2.191997,-1.458213,-1.963222,-1.278948,-2.821739,-2.605342,0.050261,0.051474,0.040972,0.999795,-0.006394,-0.014108,-0.013026,0.133274,0.293713,0.211944,0.922524,32.467718,-29.040020,154.934056
43675,5.210320,6.920636,4.395460,-2.348857,-2.702147,-0.782561,-1.476364,-2.508491,-2.540591,0.052427,0.068867,0.044102,0.999813,-0.007381,-0.012542,-0.012702,0.149772,0.301571,0.207109,0.918548,32.737052,-29.470515,152.643941
43676,6.171666,5.462204,4.347815,-2.919769,-0.970806,-1.017213,-1.946834,-2.127145,-2.616785,0.061965,0.054236,0.043607,0.999810,-0.009734,-0.010635,-0.013083,0.166879,0.307132,0.200437,0.915230,32.706198,-29.689297,150.438945
43677,6.783627,4.243979,4.721366,-2.936604,0.537278,-1.014555,-2.422187,-1.638118,-2.943702,0.068070,0.042011,0.047260,0.999785,-0.012110,-0.008190,-0.014717,0.185652,0.309608,0.192417,0.912498,32.408796,-29.576671,148.225497
43678,5.677926,3.275059,6.127747,-1.038189,1.249744,-0.988048,-3.002103,-1.233146,-3.392572,0.056957,0.032704,0.061137,0.999724,-0.015009,-0.006165,-0.016961,0.206890,0.309118,0.182731,0.910083,31.821222,-29.145979,145.908362
43679,5.518074,2.401819,7.111823,-0.107599,2.110780,-0.739170,-3.524652,-0.999958,-3.955875,0.055303,0.024177,0.070969,0.999637,-0.017621,-0.004999,-0.019777,0.231153,0.306311,0.171660,0.907345,31.023684,-28.457049,143.363558
43680,3.625393,2.650126,9.329203,2.463118,1.196854,0.172159,-3.936782,-0.819682,-4.477110,0.036481,0.027518,0.092906,0.999547,-0.019681,-0.004098,-0.022382,0.258066,0.301518,0.159588,0.903892,30.064854,-27.562218,140.594067
43681,-2.143707,1.894118,13.451970,9.074446,-1.234197,0.445824,-3.875464,-1.002754,-4.511096,-0.021636,0.022028,0.134005,0.999545,-0.019374,-0.005013,-0.022552,0.284954,0.297326,0.147462,0.899252,29.138141,-26.788717,137.752254
43682,-0.776109,1.936059,11.269384,6.605789,-1.123079,-0.515510,-3.065119,-2.112293,-4.449748,-0.008489,0.021267,0.112291,0.999579,-0.015323,-0.010560,-0.022246,0.310930,0.299057,0.137176,0.891667,28.792755,-26.616361,134.602834
43683,6.359287,3.131941,6.268566,-1.562742,2.053519,-0.708603,-3.108345,-2.082913,-4.719489,0.063670,0.030794,0.062867,0.999547,-0.015539,-0.010413,-0.023594,0.337881,0.300147,0.127028,0.882956,28.474328,-26.371723,131.315311
43684,5.678843,4.292220,5.103196,-2.470765,0.842928,-1.452235,-3.039371,-1.478089,-4.751049,0.057423,0.042336,0.050808,0.999575,-0.015195,-0.007389,-0.023752,0.364188,0.298394,0.118138,0.874284,28.097354,-25.830670,128.202929
43685,5.762081,8.252560,4.713011,-5.125301,-1.649783,-0.090769,-3.015611,-1.112760,-4.527718,0.059221,0.081898,0.046219,0.999615,-0.015076,-0.005563,-0.022636,0.388972,0.294984,0.109592,0.865837,27.600588,-25.186135,125.334848
43686,7.017244,9.517048,4.302300,-7.044875,-1.198946,0.542806,-3.621678,-0.617545,-4.323187,0.072089,0.094387,0.041530,0.999598,-0.018106,-0.003087,-0.021613,0.413187,0.288131,0.098996,0.858171,26.612019,-24.376023,122.732327
43687,8.292963,8.277291,4.027526,-7.302596,1.004857,0.144377,-4.610702,0.161385,-4.381457,0.084761,0.081828,0.038313,0.999494,-0.023050,0.000807,-0.021904,0.438315,0.275604,0.085762,0.851215,24.943420,-23.204563,120.309429
43688,5.757769,1.028283,5.712200,-0.332142,3.438728,-2.403106,-4.337061,0.845320,-3.941979,0.058022,0.010374,0.056653,0.999562,-0.021682,0.004226,-0.019707,0.460489,0.260704,0.074509,0.845241,23.227162,-21.844861,118.294450
43689,5.126381,4.205725,6.449214,-2.159579,1.166581,-0.894693,-2.520424,0.871950,-3.218129,0.052219,0.042029,0.063736,0.999782,-0.012601,0.004359,-0.016089,0.476926,0.249962,0.069997,0.839739,22.363728,-20.673297,116.681816
43690,5.373449,6.606805,7.244273,-3.907246,0.187113,0.660752,-2.189539,1.240146,-2.349081,0.054956,0.066213,0.071380,0.999852,-0.010947,0.006200,-0.011745,0.488995,0.238689,0.066643,0.836343,21.464931,-19.516344,115.637908
43691,2.581769,5.754172,9.199478,-1.421522,-1.811047,1.100591,-1.675585,1.315151,-1.542896,0.026867,0.058104,0.091335,0.999914,-0.008378,0.006576,-0.007714,0.496943,0.228557,0.064641,0.834644,20.690494,-18.498657,115.055725
43692,2.676939,5.267982,10.126988,-0.887460,-1.483973,1.783813,-1.597068,1.126649,-1.031030,0.027612,0.053345,0.100692,0.999939,-0.007985,0.005633,-0.005155,0.502651,0.219556,0.061910,0.833849,19.880057,-17.692921,114.711409
43693,2.238243,1.837236,10.706927,2.104942,-0.193416,1.075454,-1.638148,1.055819,-0.917790,0.023033,0.019143,0.106794,0.999942,-0.008191,0.005279,-0.004589,0.507896,0.210739,0.058692,0.833178,19.028175,-16.950631,114.406754
43694,1.299628,0.542016,10.800329,3.409560,-0.371936,0.524852,-1.202971,0.740757,-0.976204,0.013424,0.006005,0.107919,0.999963,-0.006015,0.003704,-0.004881,0.512969,0.204318,0.056550,0.831817,18.453350,-16.373226,113.999467
43695,3.535847,2.185207,8.749089,0.243602,1.090740,-0.191148,-1.001279,0.587978,-1.062098,0.035732,0.022100,0.087276,0.999969,-0.005006,0.002940,-0.005310,0.518203,0.198996,0.054932,0.829969,18.011212,-15.866025,113.511274
43696,4.628555,2.481013,6.618909,-1.329128,2.225134,-1.770916,-0.988221,0.907785,-1.033299,0.046713,0.024895,0.065855,0.999964,-0.004941,0.004539,-0.005166,0.523181,0.192388,0.054169,0.828453,17.553897,-15.193987,113.094470
43697,3.799181,3.330675,5.693067,-2.156906,1.294040,-2.628669,-0.800136,1.243909,-0.815712,0.038480,0.033377,0.056559,0.999964,-0.004001,0.006219,-0.004079,0.526950,0.184912,0.054846,0.827722,17.152139,-14.377435,112.856704
43698,5.000098,4.026871,4.105012,-3.862182,2.318741,-3.666742,-0.956255,1.754160,-0.666028,0.050491,0.040295,0.040416,0.999945,-0.004781,0.008771,-0.003330,0.530053,0.174954,0.056083,0.827822,16.618959,-13.309340,112.784802
43699,3.164185,3.110991,4.679828,-2.286991,1.118272,-3.887513,-1.097936,2.463457,-0.504359,0.032292,0.031284,0.046232,0.999906,-0.005490,0.012317,-0.002522,0.532336,0.161688,0.058459,0.828890,15.958569,-11.876538,112.910004
43700,0.833799,3.324697,5.896894,-1.309541,-1.041286,-3.200587,-1.052896,2.786221,-0.334905,0.009213,0.033541,0.058669,0.999888,-0.005264,0.013931,-0.001674,0.533671,0.147244,0.061736,0.830483,15.304502,-10.292494,113.163604
43701,2.331771,3.443255,5.147762,-2.364019,0.439642,-3.647683,-1.057103,3.078418,-0.214812,0.024142,0.034677,0.050927,0.999867,-0.005285,0.015391,-0.001074,0.534295,0.131552,0.065667,0.832413,14.638258,-8.559728,113.508760
43702,3.276213,3.144817,4.449231,-2.820279,1.575109,-4.337289,-1.029300,3.566074,-0.077472,0.033559,0.031662,0.043736,0.999828,-0.005146,0.017829,-0.000387,0.534001,0.113938,0.070914,0.834765,13.984946,-6.573988,113.978542
43703,0.080782,3.315909,7.048217,-1.158362,-1.226524,-2.208386,-1.091920,4.095500,-0.007172,0.002249,0.033543,0.070264,0.999775,-0.005459,0.020476,-0.000036,0.533054,0.093899,0.077237,0.837300,13.302596,-4.295551,114.534346
43704,-8.151619,2.618361,13.696946,4.214563,-7.884959,3.638888,-1.168844,3.810082,0.072272,-0.078899,0.026961,0.138333,0.999801,-0.005844,0.019049,0.000361,0.531691,0.074872,0.082416,0.839587,12.601327,-2.182554,115.068700
43705,-10.005548,0.834828,16.666033,6.926737,-8.263069,6.382532,-1.002431,2.519971,0.159152,-0.097953,0.009109,0.167859,0.999908,-0.005012,0.012599,0.000796,0.530283,0.061686,0.084799,0.841311,12.012548,-0.794114,115.469558
43706,-4.765102,-0.814076,14.273907,5.458587,-2.782983,3.955683,-0.650188,1.346114,0.091139,-0.046685,-0.007697,0.143081,0.999972,-0.003251,0.006731,0.000456,0.529485,0.054348,0.085578,0.842240,11.636765,-0.052933,115.682517
43707,1.669993,-0.423151,8.899979,1.241645,2.487317,-1.184333,-0.267817,0.934859,-0.055790,0.017115,-0.004117,0.088926,0.999988,-0.001339,0.004674,-0.000279,0.529357,0.049676,0.086899,0.842474,11.479625,0.475515,115.762448
43708,5.407136,3.244045,4.928960,-4.371810,3.981605,-4.419282,-0.083994,1.359619,-0.036078,0.054411,0.032451,0.048907,0.999977,-0.000420,0.006798,-0.000180,0.528898,0.043716,0.090123,0.842754,11.431237,1.240458,115.900766
43709,6.089756,5.572423,2.856133,-7.134501,3.426041,-6.117650,-0.289802,2.324793,0.194886,0.061169,0.055824,0.027770,0.999931,-0.001449,0.011624,0.000974,0.527027,0.033237,0.094961,0.843872,11.273536,2.521714,116.276569
43710,4.813328,6.496070,2.428267,-7.530734,1.843222,-6.473479,-0.627508,3.396887,0.565895,0.048350,0.065171,0.023258,0.999847,-0.003137,0.016984,0.002829,0.523018,0.017535,0.101129,0.846119,10.954373,4.365042,116.975239
43711,2.077956,4.975869,3.172663,-4.946662,0.198249,-5.987532,-0.873949,4.370509,0.959359,0.021224,0.049996,0.031048,0.999740,-0.004369,0.021851,0.004796,0.516660,-0.002758,0.108711,0.849256,10.547700,6.720048,117.991024
43712,-2.314111,3.504345,5.121492,-1.501740,-2.520744,-3.875406,-0.888842,5.044693,1.190776,-0.022051,0.035139,0.051624,0.999654,-0.004444,0.025221,0.005953,0.508636,-0.025793,0.117925,0.852477,10.207615,9.435487,119.199208
43713,-5.548942,2.590929,7.061199,0.879787,-4.168156,-1.493993,-0.718282,5.292230,1.292778,-0.053764,0.025815,0.071957,0.999623,-0.003591,0.026458,0.006463,0.499691,-0.049401,0.128406,0.855208,10.034962,12.287843,120.488202
43714,-7.909671,1.648734,9.128356,2.806366,-4.713842,1.072188,-0.511782,5.253854,1.243097,-0.076765,0.016242,0.093279,0.999632,-0.002559,0.026266,0.006215,0.490655,-0.072295,0.139588,0.857056,10.041692,15.123583,121.755063
43715,-9.905161,1.541996,11.411205,3.753598,-5.020230,4.021011,-0.283082,4.782514,1.132008,-0.096372,0.015033,0.116417,0.999697,-0.001415,0.023910,0.005659,0.482183,-0.092668,0.150439,0.858068,10.206704,17.704545,122.926890
43716,-8.911689,1.276973,12.362349,3.252430,-3.179179,4.787321,-0.146636,4.039256,1.044116,-0.086662,0.012405,0.125381,0.999782,-0.000733,0.020195,0.005220,0.474455,-0.109522,0.159990,0.858662,10.465533,19.870824,123.992364
43717,-7.833954,0.339270,12.483200,3.298512,-1.316434,4.494028,0.064323,3.369928,0.989308,-0.076237,0.002972,0.126129,0.999846,0.000322,0.016849,0.004946,0.467440,-0.123025,0.168744,0.859005,10.846554,21.660918,124.974168
43718,-8.089154,2.199142,13.324958,1.697094,-1.673266,5.747857,0.415443,2.638603,0.892402,-0.079220,0.021357,0.134347,0.999901,0.002077,0.013193,0.004462,0.461551,-0.132604,0.177221,0.859057,11.412236,23.043085,125.837504
43719,-5.103585,3.248114,12.601125,-0.834318,0.029447,4.140194,0.039142,1.994689,0.769282,-0.049900,0.032263,0.126519,0.999943,0.000196,0.009973,0.003846,0.456445,-0.140388,0.182460,0.859452,11.720584,24.071659,126.562836
43720,-2.571319,1.431086,9.903272,-0.578054,1.831553,0.338319,0.034554,1.889677,0.740142,-0.024829,0.014201,0.099273,0.999949,0.000173,0.009448,0.003701,0.451501,-0.147730,0.187427,0.859764,12.033420,25.041448,127.269640
43721,-3.246755,3.119449,9.774136,-1.673345,0.577315,0.801902,0.246551,2.038697,0.753519,-0.031586,0.030954,0.098105,0.999940,0.001233,0.010193,0.003768,0.446472,-0.155217,0.193603,0.859703,12.493078,26.088418,128.016647
43722,-4.352026,4.529402,10.242432,-2.332408,-0.534439,1.961595,0.207561,2.058103,0.862907,-0.042657,0.045002,0.102913,0.999937,0.001038,0.010290,0.004314,0.440862,-0.162735,0.199742,0.859803,12.985691,27.126587,128.852630
43723,-5.086758,6.019983,10.139500,-3.179169,-1.695808,2.513667,0.181815,1.940026,1.088596,-0.050207,0.059833,0.101939,0.999938,0.000909,0.009700,0.005443,0.434330,-0.169571,0.205643,0.860415,13.538493,28.062590,129.829691
43724,-4.508697,6.671666,9.211539,-3.955967,-1.964588,1.597011,-0.089352,1.903903,1.260888,-0.044627,0.066476,0.092512,0.999935,-0.000447,0.009519,0.006304,0.426801,-0.176622,0.210448,0.861601,14.012202,28.946667,130.929990
43725,-4.610951,5.029724,8.305714,-2.483224,-1.472115,0.541485,-0.286106,2.026773,1.375312,-0.045610,0.050102,0.083449,0.999924,-0.001430,0.010134,0.006876,0.418423,-0.184496,0.214709,0.863008,14.437913,29.875810,132.138758
43726,-4.905481,4.024703,7.868151,-1.477059,-1.190653,0.115473,-0.166006,2.122402,1.490732,-0.048515,0.039950,0.079165,0.999916,-0.000830,0.010612,0.007453,0.409478,-0.192354,0.219796,0.864302,15.011515,30.831008,133.461131
43727,-5.150752,5.162812,7.807344,-2.237074,-1.860843,0.466889,0.059943,2.256917,1.739139,-0.051068,0.051159,0.078667,0.999898,0.000300,0.011284,0.008695,0.399462,-0.200046,0.226296,0.865565,15.837987,31.809597,134.992515
43728,-6.119495,5.952643,8.236481,-2.323917,-2.478310,1.552858,0.008964,2.372319,2.109905,-0.060836,0.058880,0.083091,0.999874,0.000045,0.011861,0.010549,0.387557,-0.207847,0.233165,0.867314,16.822587,32.769892,136.824335
43729,-6.741296,5.482183,9.004669,-1.693761,-1.919492,2.435837,-0.229056,2.353147,2.231596,-0.066955,0.054177,0.090774,0.999868,-0.001145,0.011765,0.011157,0.374811,-0.215856,0.238991,0.869371,17.751813,33.674279,138.766998
43730,-6.770680,0.566921,8.772882,2.046415,1.133831,1.033868,-0.562435,2.343771,2.055674,-0.066728,0.005228,0.088500,0.999875,-0.002812,0.011718,0.010278,0.362370,-0.224575,0.243143,0.871284,18.477014,34.579709,140.631643
43731,-7.112323,-0.119303,8.973665,2.669064,1.772342,1.180638,0.303138,2.170216,2.062677,-0.070126,-0.002056,0.090499,0.999887,0.001516,0.010851,0.010313,0.351008,-0.230935,0.250657,0.872143,19.715025,35.364949,142.495296
43732,-7.894883,3.661708,10.262476,0.146037,0.093489,3.641556,0.745380,1.921115,2.184458,-0.078348,0.035374,0.103513,0.999887,0.003727,0.009605,0.010922,0.339845,-0.235203,0.259784,0.872753,21.264849,35.952904,144.420118
43733,-7.542182,5.225185,10.186477,-1.080979,-0.472068,3.845681,0.937591,1.500479,2.510849,-0.075298,0.050826,0.102671,0.999882,0.004688,0.007502,0.012554,0.327965,-0.236856,0.269320,0.873960,23.007650,36.203789,146.473911
43734,-5.768317,6.804935,8.540199,-2.798591,-1.456149,2.126875,1.281331,1.269578,3.110968,-0.058181,0.066596,0.086200,0.999838,0.006406,0.006348,0.015554,0.314074,-0.236034,0.280652,0.875717,25.153549,36.134877,148.864850
43735,-5.132078,9.041718,7.621438,-4.271362,-2.984701,1.977507,1.454319,1.376583,3.736308,-0.052462,0.088885,0.077223,0.999775,0.007271,0.006882,0.018680,0.297392,-0.234467,0.293501,0.877748,27.634034,35.886040,151.672785
43736,-6.037689,9.114267,8.256306,-3.482998,-2.716678,3.154971,1.171226,1.473006,4.101057,-0.061609,0.089400,0.083541,0.999746,0.005856,0.007364,0.020504,0.278475,-0.233062,0.305580,0.880201,30.081365,35.484036,154.715377
43737,-6.642193,6.535452,8.480364,-1.127550,-0.804635,2.709841,0.949999,1.375517,4.214644,-0.067187,0.063539,0.085569,0.999743,0.004750,0.006877,0.021071,0.258825,-0.231277,0.316482,0.882814,32.368540,34.902096,157.745684
43738,-6.966877,4.591388,8.665245,0.529791,0.821912,2.176227,1.069678,1.245308,4.182934,-0.070060,0.043985,0.087327,0.999748,0.005348,0.006226,0.020913,0.239506,-0.228655,0.327591,0.884894,34.633298,34.165884,160.656616
43739,-7.280936,3.883407,8.468958,1.490065,1.412452,1.831384,1.378118,1.012754,4.144132,-0.073154,0.036734,0.085317,0.999749,0.006890,0.005063,0.020719,0.220992,-0.224622,0.339530,0.886244,36.932127,33.243975,163.382874
43740,-6.829724,4.675019,8.213811,1.028227,1.149889,1.744680,1.487526,0.868310,3.974495,-0.068842,0.044772,0.082774,0.999765,0.007437,0.004341,0.019871,0.203468,-0.219967,0.351479,0.886949,39.138549,32.223793,165.885141
43741,-7.436358,5.314906,8.488971,1.403337,1.121452,2.531029,1.363934,0.743323,3.756419,-0.075020,0.051162,0.085521,0.999793,0.006819,0.003716,0.018781,0.186926,-0.215208,0.362316,0.887396,41.103173,31.158117,168.144403
43742,-7.429084,6.104473,8.621697,1.269390,1.007754,2.999318,1.171508,0.556484,3.648599,-0.075141,0.059172,0.086776,0.999813,0.005857,0.002782,0.018242,0.170900,-0.209871,0.371903,0.887939,42.821383,29.988224,170.202023
43743,-7.987974,6.894208,8.694361,1.688535,0.753897,3.733246,1.020799,0.345939,3.776641,-0.081006,0.066974,0.087428,0.999807,0.005104,0.001730,0.018882,0.154493,-0.203449,0.380596,0.888756,44.360169,28.635259,172.158242
43744,-6.695214,6.729813,7.385529,1.309747,0.325674,2.138240,1.010825,0.040766,4.008872,-0.068263,0.065564,0.074203,0.999786,0.005054,0.000204,0.020043,0.137543,-0.195117,0.389122,0.889716,45.805705,27.015981,174.014411
43745,-5.903017,8.518247,7.278130,0.314055,-0.616381,2.831655,0.964729,-0.050842,4.141704,-0.060791,0.083583,0.073172,0.999774,0.004823,-0.000254,0.020707,0.120094,-0.186101,0.397305,0.890558,47.147223,25.270626,175.813091
43746,-5.256915,10.369096,7.626569,-0.566427,-1.316532,4.016318,0.509570,-0.174355,4.181584,-0.054785,0.102366,0.076481,0.999778,0.002548,-0.000872,0.020906,0.102216,-0.176608,0.403277,0.892036,48.137155,23.423537,177.506771
43747,-5.546648,12.061974,8.661962,-0.562308,-1.516042,5.955744,-0.187543,-0.332875,4.209933,-0.058134,0.119496,0.086412,0.999777,-0.000938,-0.001664,0.021048,0.083889,-0.166665,0.405871,0.894681,48.629612,21.488890,179.087480
43748,-4.828968,9.228079,8.761893,0.086339,0.459122,3.789119,-1.165417,-0.699881,4.255895,-0.050551,0.091729,0.086909,0.999751,-0.005827,-0.003499,0.021278,0.065228,-0.155279,0.403816,0.899203,48.452081,19.386299,-179.507873
43749,-5.226452,5.257141,8.504506,1.884742,2.895402,0.926764,-1.069525,-0.873139,3.934496,-0.053661,0.051978,0.084534,0.999783,-0.005347,-0.004365,0.019671,0.048425,-0.143697,0.401663,0.903146,48.209487,17.365148,-178.320876
43750,-5.432311,5.400266,9.328929,2.200643,3.422288,1.551148,-0.813871,-1.241434,3.581841,-0.055860,0.053390,0.092728,0.999812,-0.004069,-0.006207,0.017908,0.034100,-0.131002,0.400187,0.906381,47.989800,15.353174,-177.442185
43751,-5.445632,7.513528,10.275449,2.067148,2.664528,3.614949,-0.973964,-1.817557,3.280292,-0.056613,0.074716,0.101882,0.999812,-0.004870,-0.009087,0.016400,0.022195,-0.116314,0.397509,0.909926,47.553588,13.257051,-176.932816
43752,-3.853407,5.846033,8.915412,1.424550,2.646682,1.117208,-1.429762,-2.101834,2.789056,-0.040281,0.058540,0.088319,0.999822,-0.007148,-0.010509,0.013944,0.012802,-0.101283,0.392316,0.914148,46.777217,11.257607,-176.722903
43753,-5.700707,5.455812,9.548783,3.546631,3.359921,1.569784,-1.340214,-2.389392,2.540793,-0.058832,0.054454,0.094427,0.999825,-0.006701,-0.011946,0.012703,0.005163,-0.085417,0.387227,0.918005,46.007880,9.254811,-176.708228
43754,-2.964877,5.963668,7.836288,1.460500,1.503952,0.254836,-1.490182,-2.784961,2.330039,-0.031428,0.059857,0.077488,0.999807,-0.007450,-0.013924,0.011649,-0.000820,-0.068087,0.381221,0.921973,45.122259,7.176328,-176.913314
