PacketCounter,Acc_X,Acc_Y,Acc_Z,FreeAcc_E,FreeAcc_N,FreeAcc_U,Gyr_X,Gyr_Y,Gyr_Z,VelInc_X,VelInc_Y,VelInc_Z,OriInc_q0,OriInc_q1,OriInc_q2,OriInc_q3,Quat_q0,Quat_q1,Quat_q2,Quat_q3,Roll,Pitch,Yaw
44944,-8.980584,3.184357,-1.368920,-0.061753,-0.049591,-0.186749,0.089061,0.046376,-0.010152,-0.089807,0.031854,-0.013654,1.000000,0.000445,0.000232,-0.000051,-0.386076,0.430781,-0.618925,-0.531323,112.895038,69.337053,-159.603411
44945,-8.972266,3.152656,-1.346660,-0.035436,-0.023856,-0.207873,0.090099,0.050442,-0.017312,-0.089723,0.031540,-0.013430,1.000000,0.000450,0.000252,-0.000087,-0.386151,0.430756,-0.619230,-0.530934,113.014041,69.331584,-159.530731
44946,-8.978722,3.141145,-1.300757,-0.022488,0.028616,-0.211913,0.090391,0.052938,-0.007170,-0.089790,0.031421,-0.012970,1.000000,0.000452,0.000265,-0.000036,-0.386189,0.430702,-0.619560,-0.530564,113.128837,69.319716,-159.462110
44947,-9.083768,3.087508,-1.330928,0.061514,0.015644,-0.126879,0.095373,0.057635,-0.008707,-0.090840,0.030885,-0.013268,1.000000,0.000477,0.000288,-0.000044,-0.386231,0.430658,-0.619910,-0.530161,113.255259,69.307987,-159.384732
44948,-9.083198,3.200523,-1.286316,-0.045085,0.075354,-0.096993,0.112437,0.058859,-0.008994,-0.090834,0.032017,-0.012818,1.000000,0.000562,0.000294,-0.000045,-0.386303,0.430583,-0.620307,-0.529706,113.391807,69.295629,-159.306350
44949,-9.006949,3.304175,-1.312011,-0.169791,0.055761,-0.131152,0.091500,0.061590,-0.014634,-0.090071,0.033054,-0.013077,1.000000,0.000458,0.000308,-0.000073,-0.386340,0.430575,-0.620641,-0.529293,113.525031,69.285965,-159.219351
44950,-9.020139,3.297805,-1.300747,-0.160173,0.076264,-0.122543,0.064675,0.072964,-0.015920,-0.090204,0.032989,-0.012964,1.000000,0.000323,0.000365,-0.000080,-0.386283,0.430651,-0.620923,-0.528942,113.657752,69.273880,-159.115791
44951,-9.018401,3.271403,-1.313191,-0.137199,0.070028,-0.131036,0.033547,0.081308,-0.021621,-0.090186,0.032726,-0.013090,1.000000,0.000168,0.000407,-0.000108,-0.386152,0.430829,-0.621127,-0.528654,113.789219,69.263226,-158.994989
44952,-9.081568,3.191208,-1.320513,-0.041629,0.072962,-0.096959,0.003855,0.087953,-0.020923,-0.090818,0.031922,-0.013165,1.000000,0.000019,0.000440,-0.000105,-0.385930,0.431078,-0.621266,-0.528450,113.910629,69.250125,-158.866245
44953,-9.079472,3.049641,-1.385731,0.088856,0.006385,-0.135423,-0.006757,0.100937,-0.027103,-0.090798,0.030508,-0.013813,1.000000,-0.000034,0.000505,-0.000136,-0.385666,0.431400,-0.621390,-0.528232,114.049150,69.237478,-158.713534
44954,-9.118062,2.896080,-1.391880,0.245553,0.003123,-0.148146,0.002291,0.099524,-0.023369,-0.091184,0.028972,-0.013873,1.000000,0.000011,0.000498,-0.000117,-0.385412,0.431690,-0.621542,-0.528003,114.186799,69.222734,-158.566443
44955,-9.108797,2.878852,-1.458430,0.256482,-0.056222,-0.152665,0.015029,0.099345,-0.020593,-0.091092,0.028799,-0.014537,1.000000,0.000075,0.000497,-0.000103,-0.385182,0.431947,-0.621733,-0.527735,114.331044,69.206871,-158.420713
44956,-9.107761,2.877326,-1.467882,0.257390,-0.056854,-0.152693,0.027554,0.094729,-0.006071,-0.091084,0.028778,-0.014632,1.000000,0.000138,0.000474,-0.000030,-0.384952,0.432121,-0.621979,-0.527471,114.465365,69.183981,-158.292632
44957,-9.106533,2.876375,-1.477331,0.258187,-0.057418,-0.152717,0.029660,0.094708,-0.005566,-0.091072,0.028768,-0.014726,1.000000,0.000148,0.000474,-0.000028,-0.384727,0.432292,-0.622232,-0.527196,114.601995,69.161188,-158.163779
44958,-9.094243,2.927995,-1.498883,0.206056,-0.067826,-0.144286,0.035236,0.091485,0.005725,-0.090950,0.029280,-0.014942,1.000000,0.000176,0.000457,0.000029,-0.384492,0.432406,-0.622517,-0.526937,114.728294,69.132720,-158.048951
44959,-9.085263,2.937211,-1.561634,0.194817,-0.121482,-0.140294,0.036370,0.091999,0.013002,-0.090862,0.029369,-0.015569,1.000000,0.000182,0.000460,0.000065,-0.384243,0.432498,-0.622824,-0.526681,114.852723,69.100632,-157.937614
44960,-9.120071,2.983355,-1.557139,0.165505,-0.100489,-0.093465,0.032211,0.086921,0.019138,-0.091210,0.029827,-0.015527,1.000000,0.000161,0.000435,0.000096,-0.383980,0.432563,-0.623121,-0.526468,114.961941,69.066122,-157.839168
44961,-9.146119,3.014455,-1.609245,0.146205,-0.138205,-0.051150,0.038691,0.076972,0.016670,-0.091470,0.030140,-0.016051,1.000000,0.000193,0.000385,0.000083,-0.383772,0.432600,-0.623412,-0.526245,115.064255,69.035669,-157.752752
44962,-9.099503,3.070409,-1.635468,0.079978,-0.158889,-0.072489,0.034985,0.075747,0.017649,-0.091004,0.030699,-0.016315,1.000000,0.000175,0.000379,0.000088,-0.383554,0.432635,-0.623692,-0.526043,115.160263,69.004523,-157.670115
44963,-9.102198,3.181520,-1.714686,-0.023243,-0.221830,-0.021749,0.026259,0.066731,0.016652,-0.091030,0.031810,-0.017112,1.000000,0.000131,0.000334,0.000083,-0.383350,0.432671,-0.623929,-0.525882,115.241243,68.976557,-157.598500
44964,-9.069422,3.233960,-1.719337,-0.080752,-0.221387,-0.034472,0.015622,0.057170,0.021770,-0.090703,0.032331,-0.017165,1.000000,0.000078,0.000286,0.000109,-0.383137,0.432682,-0.624130,-0.525789,115.298055,68.947739,-157.545939
44965,-9.074181,3.240392,-1.757948,-0.083268,-0.253919,-0.021881,-0.002433,0.048666,0.014329,-0.090748,0.032397,-0.017558,1.000000,-0.000012,0.000243,0.000072,-0.382935,0.432728,-0.624255,-0.525750,115.339445,68.925205,-157.499697
44966,-9.187020,3.243095,-1.811637,-0.046658,-0.287711,0.092669,-0.016457,0.048497,0.015630,-0.091877,0.032422,-0.018097,1.000000,-0.000082,0.000242,0.000078,-0.382696,0.432797,-0.624342,-0.525764,115.369903,68.901666,-157.455665
44967,-9.355507,3.267258,-1.869378,-0.012774,-0.316356,0.266738,-0.012290,0.045761,-0.004847,-0.093559,0.032674,-0.018674,1.000000,-0.000061,0.000229,-0.000024,-0.382531,0.432916,-0.624393,-0.525725,115.413924,68.889762,-157.400425
44968,-8.900685,3.270873,-1.883042,-0.166626,-0.392109,-0.154265,-0.070310,0.006343,-0.011087,-0.089006,0.032707,-0.018839,1.000000,-0.000352,0.000032,-0.000055,-0.382377,0.433060,-0.624201,-0.525947,115.373924,68.890399,-157.398838
44969,-8.940784,3.066668,-2.010699,0.037685,-0.529378,-0.163681,-0.086251,0.015362,-0.011047,-0.089408,0.030663,-0.020113,1.000000,-0.000431,0.000077,-0.000055,-0.382164,0.433259,-0.623985,-0.526193,115.338730,68.889165,-157.383087
44970,-9.085845,3.239525,-1.743832,-0.070167,-0.235808,-0.013324,-0.035212,-0.011197,-0.003374,-0.090857,0.032394,-0.017449,1.000000,-0.000176,-0.000056,-0.000017,-0.382120,0.433266,-0.623868,-0.526359,115.290411,68.890104,-157.411973
44971,-9.141047,3.353459,-1.695957,-0.157242,-0.176615,0.067837,-0.057421,-0.024781,-0.004760,-0.091408,0.033532,-0.016981,1.000000,-0.000287,-0.000124,-0.000024,-0.382078,0.433285,-0.623666,-0.526613,115.214008,68.895401,-157.458236
44972,-9.187529,3.283485,-1.888013,-0.078946,-0.370700,0.117716,-0.064725,-0.043298,-0.013797,-0.091869,0.032835,-0.018911,1.000000,-0.000324,-0.000216,-0.000069,-0.382097,0.433295,-0.623387,-0.526920,115.112189,68.909539,-157.526338
44973,-9.150892,3.213529,-1.899458,-0.025812,-0.398535,0.062232,-0.056379,-0.044450,-0.025922,-0.091501,0.032142,-0.019024,1.000000,-0.000282,-0.000222,-0.000130,-0.382174,0.433327,-0.623103,-0.527174,115.022816,68.930597,-157.586874
44974,-9.125973,3.296619,-1.796500,-0.112236,-0.301657,0.050116,-0.062488,-0.054334,-0.042519,-0.091248,0.032980,-0.018000,1.000000,-0.000312,-0.000272,-0.000213,-0.382308,0.433394,-0.622747,-0.527443,114.925172,68.962240,-157.651856
44975,-9.111415,3.340577,-1.766885,-0.161126,-0.280009,0.046058,-0.089102,-0.065769,-0.055237,-0.091099,0.033423,-0.017714,1.000000,-0.000446,-0.000329,-0.000276,-0.382457,0.433525,-0.622271,-0.527790,114.806258,69.003648,-157.723650
44976,-9.059992,3.430001,-1.700346,-0.265019,-0.225348,0.016784,-0.090196,-0.074496,-0.058900,-0.090583,0.034319,-0.017053,1.000000,-0.000451,-0.000372,-0.000295,-0.382637,0.433642,-0.621767,-0.528157,114.675028,69.048556,-157.807565
44977,-9.071896,3.531604,-1.583302,-0.359537,-0.112435,0.043095,-0.096429,-0.085833,-0.071507,-0.090700,0.035341,-0.015889,1.000000,-0.000482,-0.000429,-0.000358,-0.382875,0.433781,-0.621200,-0.528536,114.534332,69.102963,-157.898734
44978,-8.985151,3.483443,-1.577598,-0.348037,-0.134015,-0.054767,-0.118150,-0.090953,-0.078214,-0.089831,0.034860,-0.015837,1.000000,-0.000591,-0.000455,-0.000391,-0.383097,0.433968,-0.620548,-0.528989,114.375565,69.161697,-157.994920
44979,-8.962013,3.356607,-1.571204,-0.241907,-0.152049,-0.118797,-0.124019,-0.096799,-0.088467,-0.089598,0.033596,-0.015776,1.000000,-0.000620,-0.000484,-0.000442,-0.383353,0.434184,-0.619848,-0.529446,114.212702,69.227408,-158.092513
44980,-8.941923,3.277396,-1.556544,-0.179981,-0.158809,-0.165692,-0.123553,-0.101145,-0.089947,-0.089397,0.032805,-0.015631,1.000000,-0.000618,-0.000506,-0.000450,-0.383625,0.434390,-0.619136,-0.529913,114.042527,69.294467,-158.197504
44981,-8.906526,3.178334,-1.565875,-0.104743,-0.192277,-0.229785,-0.117229,-0.101203,-0.088443,-0.089043,0.031814,-0.015722,1.000000,-0.000586,-0.000506,-0.000442,-0.383910,0.434579,-0.618446,-0.530358,113.875619,69.360928,-158.303715
44982,-8.986103,3.065741,-1.537392,0.021796,-0.174006,-0.195951,-0.120421,-0.103718,-0.085466,-0.089840,0.030687,-0.015439,1.000000,-0.000602,-0.000519,-0.000427,-0.384184,0.434757,-0.617745,-0.530829,113.699150,69.426011,-158.417256
44983,-9.139170,2.966950,-1.616619,0.157871,-0.252258,-0.073483,-0.117255,-0.109397,-0.084654,-0.091370,0.029699,-0.016234,1.000000,-0.000586,-0.000547,-0.000423,-0.384482,0.434915,-0.617045,-0.531298,113.517190,69.492179,-158.539083
44984,-9.190958,2.953337,-1.576973,0.181705,-0.221549,-0.035129,-0.114962,-0.114647,-0.088366,-0.091887,0.029565,-0.015839,1.000000,-0.000575,-0.000573,-0.000442,-0.384808,0.435062,-0.616331,-0.531770,113.328367,69.561020,-158.669051
44985,-9.141365,2.949705,-1.554571,0.162940,-0.221431,-0.086105,-0.144633,-0.127664,-0.083867,-0.091391,0.029524,-0.015625,0.999999,-0.000723,-0.000638,-0.000419,-0.385101,0.435219,-0.615525,-0.532363,113.102243,69.630568,-158.821424
44986,-8.967294,2.817337,-1.594550,0.225813,-0.307193,-0.286568,-0.182315,-0.129027,-0.083025,-0.089651,0.028196,-0.016029,0.999999,-0.000912,-0.000645,-0.000415,-0.385310,0.435441,-0.614614,-0.533082,112.848789,69.699451,-158.979048
44987,-8.955455,2.557799,-1.534646,0.463394,-0.279336,-0.389054,-0.156347,-0.120820,-0.071842,-0.089536,0.025598,-0.015421,0.999999,-0.000782,-0.000604,-0.000359,-0.385525,0.435597,-0.613818,-0.533716,112.615970,69.760548,-159.131894
44988,-9.093604,2.615176,-1.358208,0.451171,-0.099309,-0.264699,-0.089886,-0.120818,-0.055748,-0.090921,0.026171,-0.013649,1.000000,-0.000449,-0.000604,-0.000279,-0.385837,0.435577,-0.613228,-0.534186,112.408547,69.812747,-159.296776
44989,-9.117908,2.711481,-1.216970,0.365447,0.034725,-0.229650,-0.050091,-0.127644,-0.041232,-0.091166,0.027131,-0.012235,1.000000,-0.000250,-0.000638,-0.000206,-0.386221,0.435419,-0.612765,-0.534568,112.206893,69.858826,-159.480679
44990,-9.168899,2.709002,-1.087409,0.382551,0.156186,-0.199201,-0.006129,-0.126255,-0.029387,-0.091678,0.027103,-0.010933,1.000000,-0.000031,-0.000631,-0.000147,-0.386660,0.435142,-0.612445,-0.534842,112.022310,69.897809,-159.672248
44991,-9.156725,2.785456,-0.959122,0.304806,0.274314,-0.202477,0.042813,-0.121671,-0.026551,-0.091558,0.027869,-0.009641,1.000000,0.000214,-0.000608,-0.000133,-0.387190,0.434773,-0.612275,-0.534954,111.872077,69.934389,-159.858299
44992,-9.223409,2.932690,-0.839915,0.185816,0.397800,-0.107811,0.067643,-0.115444,-0.018954,-0.092226,0.029338,-0.008442,1.000000,0.000338,-0.000577,-0.000095,-0.387729,0.434349,-0.612195,-0.534999,111.738165,69.965165,-160.040835
44993,-9.251082,3.011973,-0.740957,0.118963,0.494149,-0.068705,0.060994,-0.110111,-0.015833,-0.092504,0.030129,-0.007451,1.000000,0.000305,-0.000551,-0.000079,-0.388233,0.433943,-0.612118,-0.535051,111.608011,69.993314,-160.216422
44994,-9.196610,2.988581,-0.730187,0.122387,0.488543,-0.128227,0.039485,-0.100021,-0.016082,-0.091960,0.029895,-0.007342,1.000000,0.000197,-0.000500,-0.000080,-0.388656,0.433607,-0.611999,-0.535154,111.477985,70.019028,-160.377589
44995,-9.137349,2.999416,-0.769139,0.091490,0.435605,-0.175204,0.009335,-0.080029,-0.014157,-0.091368,0.030001,-0.007727,1.000000,0.000047,-0.000400,-0.000071,-0.388949,0.433380,-0.611842,-0.535303,111.360640,70.039857,-160.507380
44996,-9.101404,2.953611,-0.777376,0.122466,0.413446,-0.222184,-0.026440,-0.066508,-0.015941,-0.091009,0.029542,-0.007808,1.000000,-0.000132,-0.000333,-0.000080,-0.389126,0.433261,-0.611611,-0.535535,111.241393,70.058287,-160.616854
44997,-9.073187,2.929672,-0.906141,0.134634,0.274280,-0.240152,-0.064789,-0.045530,-0.001782,-0.090730,0.029295,-0.009092,1.000000,-0.000324,-0.000228,-0.000009,-0.389121,0.433231,-0.611351,-0.535860,111.124655,70.065159,-160.700944
44998,-9.138635,2.891120,-0.982434,0.192836,0.197634,-0.181376,-0.091364,-0.030375,0.003460,-0.091385,0.028905,-0.009851,1.000000,-0.000457,-0.000152,0.000017,-0.388994,0.433275,-0.611058,-0.536250,111.010161,70.065622,-160.765780
44999,-9.241737,2.913757,-1.130316,0.205532,0.057486,-0.059137,-0.122348,-0.021249,0.012219,-0.092418,0.029125,-0.011331,1.000000,-0.000612,-0.000106,0.000061,-0.388754,0.433378,-0.610722,-0.536725,110.888018,70.059862,-160.820821
45000,-9.392489,3.044056,-1.196068,0.133999,0.008897,0.132043,-0.148555,-0.016532,0.020235,-0.093927,0.030422,-0.011991,1.000000,-0.000743,-0.000083,0.000101,-0.388415,0.433519,-0.610339,-0.537291,110.751804,70.048426,-160.873908
45001,-9.320583,2.990696,-1.124872,0.166050,0.061707,0.038783,-0.176856,-0.021566,0.012770,-0.093207,0.029891,-0.011285,1.000000,-0.000884,-0.000108,0.000064,-0.388056,0.433724,-0.609856,-0.537933,110.597966,70.042349,-160.929505
45002,-9.194502,2.735437,-1.153056,0.370997,0.000148,-0.157980,-0.190407,-0.023094,0.016415,-0.091946,0.027336,-0.011567,1.000000,-0.000952,-0.000115,0.000082,-0.387657,0.433939,-0.609338,-0.538633,110.430402,70.034185,-160.990440
45003,-9.200798,2.737004,-1.271377,0.375238,-0.123161,-0.137652,-0.136935,-0.009451,0.018980,-0.092010,0.027353,-0.012737,1.000000,-0.000685,-0.000047,0.000095,-0.387328,0.434083,-0.608997,-0.539139,110.314123,70.022348,-161.030019
45004,-9.279512,3.015573,-1.165966,0.142461,-0.003379,0.012902,-0.092147,-0.019264,0.039631,-0.092800,0.030132,-0.011682,1.000000,-0.000461,-0.000096,0.000198,-0.387068,0.434047,-0.608801,-0.539576,110.196041,70.000851,-161.098218
45005,-9.203607,3.119013,-0.998885,0.026239,0.153161,-0.044972,-0.071191,-0.026538,0.045345,-0.092042,0.031166,-0.010012,1.000000,-0.000356,-0.000133,0.000227,-0.386864,0.433934,-0.608664,-0.539969,110.078330,69.978059,-161.179867
45006,-9.180411,3.205277,-1.021646,-0.056724,0.127365,-0.036284,-0.047514,-0.007975,0.052935,-0.091812,0.032026,-0.010228,1.000000,-0.000238,-0.000040,0.000265,-0.386630,0.433802,-0.608639,-0.540271,109.995717,69.947095,-161.237553
45007,-9.326690,3.397220,-1.133096,-0.184559,0.037030,0.176142,-0.075746,-0.009925,0.048950,-0.093275,0.033945,-0.011348,1.000000,-0.000379,-0.000050,0.000245,-0.386355,0.433733,-0.608526,-0.540649,109.898189,69.919100,-161.294594
45008,-9.331029,3.490960,-1.200746,-0.265341,-0.031690,0.218528,-0.142099,-0.017128,0.040008,-0.093316,0.034882,-0.012040,1.000000,-0.000710,-0.000086,0.000200,-0.385978,0.433798,-0.608200,-0.541233,109.755235,69.896810,-161.358847
45009,-9.348427,3.466794,-1.301473,-0.230158,-0.139606,0.238835,-0.211041,-0.028184,0.035916,-0.093489,0.034637,-0.013064,0.999999,-0.001055,-0.000141,0.000180,-0.385501,0.433978,-0.607658,-0.542037,109.560293,69.879210,-161.437341
45010,-9.099134,3.303011,-1.107172,-0.150048,0.009837,-0.070648,-0.219642,-0.024966,0.038060,-0.090996,0.033001,-0.011119,0.999999,-0.001098,-0.000125,0.000190,-0.384984,0.434177,-0.607101,-0.542869,109.362888,69.859329,-161.512284
45011,-8.814484,3.335278,-1.262733,-0.265222,-0.183939,-0.309556,-0.187334,-0.017978,0.058603,-0.088153,0.033315,-0.012666,1.000000,-0.000937,-0.000090,0.000293,-0.384465,0.434269,-0.606691,-0.543620,109.185585,69.827326,-161.586507
45012,-8.624158,3.593013,-1.069957,-0.562300,-0.013007,-0.425766,-0.111693,-0.036711,0.097221,-0.086257,0.035882,-0.010735,1.000000,-0.000558,-0.000184,0.000486,-0.384056,0.434047,-0.606532,-0.544263,109.003204,69.777449,-161.711377
45013,-8.503343,3.797567,-0.998592,-0.783326,0.044251,-0.479416,-0.092099,-0.026636,0.130066,-0.085057,0.037916,-0.010015,1.000000,-0.000460,-0.000133,0.000650,-0.383575,0.433716,-0.606519,-0.544881,108.832753,69.708161,-161.836405
45014,-8.538375,3.913679,-1.144654,-0.865278,-0.099357,-0.390778,-0.080624,-0.021490,0.156009,-0.085413,0.039066,-0.011471,1.000000,-0.000403,-0.000107,0.000780,-0.383027,0.433298,-0.606600,-0.545509,108.662917,69.623326,-161.966989
45015,-8.617130,4.113944,-1.211953,-1.009422,-0.156979,-0.241653,-0.079766,-0.017730,0.194738,-0.086210,0.041051,-0.012144,0.999999,-0.000399,-0.000089,0.000974,-0.382366,0.432773,-0.606774,-0.546195,108.482991,69.517071,-162.109271
45016,-8.738419,4.392905,-1.290552,-1.208816,-0.219527,-0.024244,-0.117893,-0.007977,0.231324,-0.087434,0.043820,-0.012935,0.999999,-0.000589,-0.000040,0.001157,-0.381490,0.432233,-0.606941,-0.547049,108.277939,69.388554,-162.254841
45017,-8.769859,4.574674,-1.332991,-1.341757,-0.260992,0.073992,-0.177196,-0.017991,0.274102,-0.087760,0.045615,-0.013378,0.999999,-0.000886,-0.000090,0.001371,-0.380399,0.431653,-0.607017,-0.548181,108.008376,69.238754,-162.433249
45018,-8.603883,4.530483,-1.297648,-1.324944,-0.255202,-0.095935,-0.231102,-0.010906,0.306539,-0.086107,0.045158,-0.013033,0.999998,-0.001156,-0.000055,0.001533,-0.379080,0.431090,-0.607027,-0.549526,107.704786,69.069271,-162.615139
45019,-8.419375,4.422557,-1.297592,-1.250710,-0.287403,-0.300504,-0.227820,0.010165,0.363852,-0.084275,0.044057,-0.013022,0.999998,-0.001139,0.000051,0.001819,-0.377544,0.430409,-0.607206,-0.550917,107.412847,68.864896,-162.786704
45020,-8.282976,4.382300,-1.258392,-1.219690,-0.271411,-0.440690,-0.186244,0.014893,0.432787,-0.082925,0.043632,-0.012618,0.999997,-0.000931,0.000074,0.002164,-0.375891,0.429444,-0.607655,-0.552303,107.124126,68.621296,-162.980720
45021,-8.093113,4.436650,-1.287036,-1.290191,-0.322618,-0.589351,-0.131617,0.044048,0.504372,-0.081045,0.044154,-0.012882,0.999997,-0.000658,0.000220,0.002522,-0.374073,0.428232,-0.608466,-0.553584,106.883617,68.333241,-163.158614
45022,-8.060328,4.653631,-1.270594,-1.452830,-0.304588,-0.537138,-0.081270,0.063458,0.582260,-0.080742,0.046296,-0.012699,0.999996,-0.000406,0.000317,0.002911,-0.372080,0.426745,-0.609608,-0.554819,106.670310,67.999018,-163.336954
45023,-8.000245,4.844512,-1.340296,-1.592155,-0.371952,-0.506991,-0.052729,0.083580,0.657235,-0.080167,0.048178,-0.013382,0.999994,-0.000264,0.000418,0.003286,-0.369877,0.425025,-0.611025,-0.556051,106.477793,67.620101,-163.512069
45024,-8.035591,5.034152,-1.392252,-1.688589,-0.408984,-0.387575,-0.058649,0.105181,0.726184,-0.080545,0.050045,-0.013895,0.999993,-0.000293,0.000526,0.003631,-0.367396,0.423162,-0.612600,-0.557383,106.288323,67.199573,-163.679593
45025,-7.968076,5.081165,-1.442719,-1.683186,-0.457281,-0.413368,-0.068759,0.116741,0.796798,-0.079891,0.050489,-0.014398,0.999992,-0.000344,0.000584,0.003984,-0.364658,0.421127,-0.614310,-0.558838,106.089228,66.738146,-163.852417
45026,-7.990854,5.073953,-1.451819,-1.587392,-0.454535,-0.379793,-0.065012,0.132741,0.877895,-0.080140,0.050383,-0.014481,0.999990,-0.000325,0.000664,0.004389,-0.361643,0.418874,-0.616216,-0.560390,105.889402,66.229274,-164.028415
45027,-8.029809,5.124898,-1.465607,-1.530308,-0.451283,-0.307732,-0.057758,0.149332,0.965827,-0.080555,0.050856,-0.014611,0.999988,-0.000289,0.000747,0.004829,-0.358339,0.416372,-0.618348,-0.562025,105.692970,65.668973,-164.206827
45028,-8.059202,5.033452,-1.480037,-1.337302,-0.450132,-0.300326,-0.035457,0.171451,1.053117,-0.080868,0.049907,-0.014740,0.999986,-0.000177,0.000857,0.005266,-0.354758,0.413613,-0.620743,-0.563693,105.513513,65.056979,-164.380590
45029,-8.208238,5.192409,-1.564746,-1.313490,-0.495519,-0.075499,0.014694,0.187705,1.144745,-0.082392,0.051454,-0.015566,0.999983,0.000073,0.000939,0.005724,-0.350958,0.410516,-0.623481,-0.565311,105.362400,64.391645,-164.556103
45030,-8.348735,5.414647,-1.551310,-1.340523,-0.438956,0.159041,0.054729,0.182735,1.228668,-0.083832,0.053636,-0.015422,0.999981,0.000274,0.000914,0.006143,-0.347008,0.407055,-0.626470,-0.566946,105.209126,63.680529,-164.760130
45031,-8.494330,5.701693,-1.326533,-1.416371,-0.168289,0.404293,0.043856,0.177494,1.300082,-0.085323,0.056466,-0.013177,0.999978,0.000219,0.000887,0.006500,-0.342832,0.403362,-0.629542,-0.568720,105.034614,62.930370,-164.982547
45032,-8.598037,5.734892,-1.274593,-1.265462,-0.082109,0.523172,-0.007223,0.174603,1.354361,-0.086377,0.056764,-0.012673,0.999977,-0.000036,0.000873,0.006772,-0.338395,0.399555,-0.632540,-0.570734,104.821575,62.150324,-165.216620
45033,-8.687160,5.756544,-1.244853,-1.101252,-0.022498,0.624702,-0.060403,0.174094,1.404382,-0.087284,0.056950,-0.012390,0.999975,-0.000302,0.000870,0.007022,-0.333691,0.395662,-0.635460,-0.572968,104.578817,61.342041,-165.452018
45034,-8.724724,5.598186,-1.175799,-0.795587,0.062117,0.589440,-0.084488,0.169037,1.450873,-0.087660,0.055342,-0.011707,0.999973,-0.000422,0.000845,0.007254,-0.328809,0.391623,-0.638356,-0.575342,104.316487,60.508364,-165.695409
45035,-8.782264,5.825852,-1.337044,-0.806810,-0.067626,0.779703,-0.091453,0.177629,1.500275,-0.088268,0.057591,-0.013319,0.999971,-0.000457,0.000888,0.007501,-0.323720,0.387448,-0.641310,-0.577764,104.062478,59.645580,-165.926741
45036,-8.770579,6.184688,-1.404189,-0.958240,-0.109675,0.967505,-0.131654,0.156590,1.548729,-0.088192,0.061156,-0.014013,0.999969,-0.000658,0.000783,0.007744,-0.318466,0.383091,-0.644167,-0.580405,103.766213,58.758131,-166.182429
45037,-8.581683,6.487576,-1.291165,-1.147163,0.000162,0.961472,-0.156818,0.135995,1.595751,-0.086340,0.064178,-0.012904,0.999968,-0.000784,0.000680,0.007979,-0.313070,0.378537,-0.646976,-0.583197,103.444407,57.846048,-166.454910
45038,-8.514140,6.736759,-1.185784,-1.221350,0.112180,1.039665,-0.222456,0.143205,1.641647,-0.085699,0.066652,-0.011871,0.999965,-0.001112,0.000716,0.008208,-0.307375,0.373934,-0.649639,-0.586228,103.096067,56.907127,-166.715737
45039,-8.500106,6.737888,-1.148594,-1.047064,0.151161,1.043099,-0.307749,0.150184,1.687589,-0.085574,0.066641,-0.011525,0.999963,-0.001539,0.000751,0.008438,-0.301336,0.369314,-0.652106,-0.589544,102.715068,55.940789,-166.960393
45040,-8.555548,6.759001,-1.221728,-0.840631,0.087340,1.126083,-0.367031,0.184074,1.730233,-0.086147,0.066824,-0.012261,0.999960,-0.001835,0.000920,0.008651,-0.294933,0.364707,-0.654473,-0.593017,102.334368,54.945493,-167.165842
45041,-8.658900,6.893672,-1.475395,-0.683780,-0.146825,1.331079,-0.422864,0.195103,1.763933,-0.087207,0.068138,-0.014814,0.999958,-0.002114,0.000975,0.008820,-0.288263,0.360082,-0.656707,-0.596641,101.943467,53.929006,-167.348294
45042,-8.545487,7.083856,-1.469724,-0.699267,-0.152716,1.360968,-0.422855,0.173300,1.802241,-0.086101,0.070033,-0.014771,0.999957,-0.002114,0.000866,0.009011,-0.281530,0.355229,-0.658914,-0.600321,101.541866,52.893075,-167.545216
45043,-8.340279,7.248133,-1.029006,-0.769153,0.259506,1.254923,-0.414589,0.182261,1.832412,-0.084071,0.071692,-0.010363,0.999955,-0.002073,0.000911,0.009162,-0.274664,0.350260,-0.661160,-0.603941,101.163591,51.838008,-167.722267
45044,-8.348180,7.159983,-0.922654,-0.491043,0.360703,1.207015,-0.533020,0.242431,1.858798,-0.084154,0.070795,-0.009314,0.999953,-0.002665,0.001212,0.009294,-0.267290,0.345516,-0.663110,-0.607833,100.768852,50.761235,-167.835198
45045,-8.317601,6.819020,-1.167258,-0.014981,0.102621,1.005331,-0.609964,0.284263,1.887271,-0.083831,0.067365,-0.011760,0.999950,-0.003050,0.001421,0.009436,-0.259529,0.340870,-0.664869,-0.611884,100.367565,49.663105,-167.901566
45046,-8.385014,6.633880,-1.294061,0.392437,-0.017055,0.949903,-0.581767,0.340208,1.904640,-0.084499,0.065498,-0.012989,0.999949,-0.002909,0.001701,0.009523,-0.251553,0.336269,-0.666745,-0.615707,100.026493,48.549713,-167.910216
45047,-8.423436,6.655593,-1.424626,0.625500,-0.134275,0.997846,-0.565060,0.356244,1.910886,-0.084890,0.065707,-0.014282,0.999949,-0.002825,0.001781,0.009554,-0.243504,0.331639,-0.668639,-0.619389,99.712473,47.430726,-167.896255
45048,-8.385077,6.709256,-1.465358,0.778932,-0.169704,0.996175,-0.527861,0.356367,1.916477,-0.084514,0.066246,-0.014679,0.999949,-0.002639,0.001782,0.009582,-0.235476,0.326913,-0.670584,-0.622893,99.424366,46.309111,-167.874965
45049,-8.297650,6.743896,-1.498558,0.912528,-0.204174,0.943640,-0.530882,0.338447,1.915805,-0.083643,0.066600,-0.015022,0.999949,-0.002654,0.001692,0.009579,-0.227479,0.322101,-0.672433,-0.626369,99.130099,45.189154,-167.860215
45050,-8.158978,6.570228,-1.457337,1.148558,-0.174939,0.699556,-0.502490,0.318049,1.900501,-0.082232,0.064886,-0.014607,0.999950,-0.002512,0.001590,0.009502,-0.219624,0.317214,-0.674250,-0.629704,98.846574,44.080216,-167.852268
45051,-8.092373,6.260438,-1.278722,1.503705,0.001968,0.387818,-0.467944,0.314630,1.869223,-0.081524,0.061814,-0.012805,0.999952,-0.002340,0.001573,0.009346,-0.211910,0.312350,-0.676062,-0.632829,98.589019,42.988902,-167.836046
45052,-8.107775,5.905962,-1.408350,1.964925,-0.111460,0.123284,-0.451882,0.300028,1.806549,-0.081628,0.058292,-0.014094,0.999956,-0.002259,0.001500,0.009033,-0.204450,0.307609,-0.677743,-0.635800,98.341256,41.934825,-167.817757
45053,-7.973002,5.634891,-1.279699,2.212857,0.009175,-0.217945,-0.347417,0.265519,1.711419,-0.080225,0.055642,-0.012788,0.999961,-0.001737,0.001328,0.008557,-0.197553,0.302945,-0.679522,-0.638316,98.146800,40.937258,-167.809926
45054,-7.841496,5.545849,-1.088063,2.312864,0.195298,-0.429734,-0.272264,0.263233,1.600841,-0.078870,0.054814,-0.010852,0.999966,-0.001361,0.001316,0.008004,-0.191117,0.298555,-0.681317,-0.640427,98.003556,40.002952,-167.788434
45055,-7.620650,5.563444,-1.299170,2.308213,-0.027450,-0.572357,-0.189807,0.265665,1.491661,-0.076636,0.055052,-0.012943,0.999971,-0.000949,0.001328,0.007458,-0.185132,0.294445,-0.683176,-0.642105,97.917637,39.130227,-167.751730
45056,-7.244139,5.834944,-1.363513,1.992228,-0.127841,-0.625933,-0.106017,0.260556,1.410176,-0.072868,0.057829,-0.013571,0.999974,-0.000530,0.001303,0.007051,-0.179540,0.290505,-0.685137,-0.643397,97.881917,38.304392,-167.709814
45057,-6.861329,6.407597,-1.352323,1.465645,-0.151716,-0.442984,-0.071135,0.270810,1.348034,-0.069061,0.063607,-0.013453,0.999976,-0.000356,0.001354,0.006740,-0.174156,0.286763,-0.687099,-0.644462,97.874701,37.512934,-167.654399
45058,-6.605773,6.748851,-1.179619,1.158607,0.002308,-0.366468,-0.101609,0.234220,1.285691,-0.066504,0.067056,-0.011753,0.999979,-0.000508,0.001171,0.006428,-0.169045,0.283133,-0.688806,-0.645605,97.836600,36.759842,-167.619098
45059,-6.349193,6.466295,-0.692464,1.180826,0.458873,-0.812755,-0.106017,0.251771,1.207895,-0.063890,0.064274,-0.006879,0.999981,-0.000530,0.001259,0.006039,-0.164113,0.279818,-0.690379,-0.646642,97.808258,36.049525,-167.563693
45060,-6.336555,6.276062,-0.760770,1.398958,0.407903,-0.981192,-0.174648,0.269179,1.125189,-0.063727,0.062396,-0.007577,0.999983,-0.000873,0.001346,0.005626,-0.159285,0.276892,-0.691600,-0.647803,97.751171,35.384874,-167.488027
45061,-6.267219,5.688903,-0.601703,1.762081,0.565739,-1.531503,-0.173735,0.283124,1.047725,-0.062978,0.056554,-0.005977,0.999985,-0.000869,0.001416,0.005239,-0.154658,0.274268,-0.692708,-0.648856,97.704421,34.763222,-167.395304
45062,-6.169424,5.635043,-0.598521,1.798031,0.571162,-1.650947,-0.106665,0.317324,0.970653,-0.061976,0.056047,-0.005917,0.999987,-0.000533,0.001587,0.004853,-0.150248,0.271963,-0.693931,-0.649555,97.711785,34.182690,-167.272212
45063,-6.307701,5.645078,-0.806571,2.010976,0.416537,-1.561234,-0.041812,0.318915,0.910073,-0.063346,0.056161,-0.007977,0.999988,-0.000209,0.001595,0.004550,-0.146116,0.269818,-0.695270,-0.649960,97.759066,33.636517,-167.143624
45064,-6.017124,6.202586,-1.237977,1.597332,-0.026570,-1.230279,0.103215,0.274374,0.866604,-0.060456,0.061771,-0.012265,0.999990,0.000516,0.001372,0.004333,-0.142470,0.267568,-0.696969,-0.649880,97.872425,33.118205,-167.042898
45065,-5.859884,6.929312,-1.141086,1.121133,0.084225,-0.735734,0.252799,0.219861,0.843744,-0.058903,0.069059,-0.011259,0.999990,0.001264,0.001099,0.004219,-0.139289,0.265107,-0.699074,-0.649317,98.051414,32.617205,-166.979089
45066,-5.778952,7.601167,-1.017604,0.737839,0.241089,-0.241561,0.264560,0.164969,0.804821,-0.058103,0.075792,-0.010028,0.999991,0.001323,0.000825,0.004024,-0.136435,0.262591,-0.701110,-0.648750,98.217140,32.142346,-166.950451
45067,-5.723651,7.769787,-0.742101,0.628551,0.540686,-0.169420,0.196704,0.141601,0.726123,-0.057523,0.077497,-0.007304,0.999993,0.000984,0.000708,0.003631,-0.133832,0.260317,-0.702798,-0.648382,98.339420,31.714253,-166.931429
45068,-5.684035,7.479089,-0.914781,0.840848,0.384067,-0.419765,0.078198,0.143030,0.633705,-0.057083,0.074614,-0.009078,0.999995,0.000391,0.000715,0.003169,-0.131362,0.258449,-0.703970,-0.648363,98.397799,31.338126,-166.903185
45069,-5.515635,7.207700,-1.061418,0.921493,0.220042,-0.724124,0.046548,0.122380,0.549644,-0.055361,0.071928,-0.010564,0.999996,0.000233,0.000612,0.002748,-0.129200,0.256828,-0.704913,-0.648416,98.435465,31.011675,-166.880970
45070,-5.365276,7.250353,-0.908662,0.796409,0.356106,-0.789482,-0.005542,0.125812,0.471023,-0.053829,0.072377,-0.009055,0.999997,-0.000028,0.000629,0.002355,-0.127209,0.255526,-0.705581,-0.648598,98.447548,30.729166,-166.848905
45071,-5.301811,7.014939,-1.166561,0.945613,0.093777,-0.993598,-0.057818,0.116846,0.393876,-0.053163,0.070041,-0.011655,0.999998,-0.000289,0.000584,0.001969,-0.125437,0.254501,-0.705975,-0.648918,98.430967,30.491502,-166.815406
45072,-5.190034,7.251428,-1.231466,0.771312,0.020847,-0.843811,-0.057411,0.103202,0.316152,-0.052021,0.072429,-0.012309,0.999999,-0.000287,0.000516,0.001581,-0.123960,0.253703,-0.706256,-0.649208,98.413186,30.298678,-166.783178
45073,-5.028579,7.431821,-1.103052,0.549296,0.120462,-0.789439,-0.159671,0.091973,0.235564,-0.050378,0.074250,-0.011067,0.999999,-0.000798,0.000460,0.001178,-0.122660,0.253217,-0.706097,-0.649817,98.337629,30.152903,-166.750539
45074,-5.170821,7.142620,-1.010696,0.825692,0.223034,-0.978415,-0.272115,0.098541,0.150659,-0.051767,0.071373,-0.010179,0.999999,-0.001361,0.000493,0.000753,-0.121465,0.253120,-0.705465,-0.650765,98.203313,30.054371,-166.705104
45075,-5.050999,6.815957,-1.197201,0.937966,-0.005398,-1.296625,-0.300319,0.081808,0.076773,-0.050541,0.068122,-0.012054,0.999999,-0.001502,0.000409,0.000384,-0.120538,0.253246,-0.704639,-0.651783,98.051503,29.999647,-166.663608
45076,-4.883324,6.767129,-1.389247,0.863222,-0.242913,-1.400392,-0.272802,0.073135,0.034238,-0.048850,0.067644,-0.013967,0.999999,-0.001364,0.000366,0.000171,-0.119810,0.253476,-0.703838,-0.652692,97.913997,29.969393,-166.623605
45077,-4.787538,6.774525,-1.458750,0.797508,-0.342705,-1.434789,-0.204380,0.052185,0.019563,-0.047886,0.067726,-0.014644,0.999999,-0.001022,0.000261,0.000098,-0.119295,0.253649,-0.703232,-0.653373,97.810158,29.949671,-166.596079
45078,-4.843028,6.853490,-1.317241,0.785440,-0.199677,-1.356709,-0.094506,0.028960,0.007183,-0.048435,0.068527,-0.013198,1.000000,-0.000473,0.000145,0.000036,-0.119037,0.253722,-0.702951,-0.653693,97.761600,29.938324,-166.582490
45079,-4.936009,6.885181,-1.237933,0.836145,-0.105708,-1.292589,-0.021468,0.021283,-0.012580,-0.049357,0.068854,-0.012381,1.000000,-0.000107,0.000106,-0.000063,-0.118968,0.253798,-0.702882,-0.653750,97.753925,29.939320,-166.572309
45080,-5.037711,7.191539,-1.283329,0.770734,-0.123962,-0.973327,0.044038,0.000948,-0.040767,-0.050363,0.071928,-0.012817,1.000000,0.000220,0.000005,-0.000204,-0.119141,0.253866,-0.702977,-0.653591,97.777727,29.957367,-166.572783
45081,-5.065835,7.569202,-1.113930,0.567465,0.057878,-0.654578,0.099054,-0.010313,-0.071209,-0.050631,0.075716,-0.011104,1.000000,0.000495,-0.000052,-0.000356,-0.119528,0.253973,-0.703209,-0.653229,97.831417,29.994133,-166.578042
45082,-5.052043,7.991826,-0.980040,0.308112,0.197972,-0.314331,0.078280,-0.021143,-0.106206,-0.050477,0.079949,-0.009774,1.000000,0.000391,-0.000106,-0.000531,-0.120035,0.254179,-0.703319,-0.652937,97.870567,30.051053,-166.587052
45083,-5.111824,8.124674,-1.083600,0.295079,0.111104,-0.157853,0.006002,-0.015883,-0.148457,-0.051057,0.081285,-0.010838,1.000000,0.000030,-0.000079,-0.000742,-0.120576,0.254595,-0.703145,-0.652863,97.872633,30.132126,-166.588914
45084,-5.128269,8.246118,-0.942049,0.208240,0.250162,-0.061836,-0.034671,-0.019926,-0.191998,-0.051203,0.082509,-0.009440,1.000000,-0.000173,-0.000100,-0.000960,-0.121215,0.255173,-0.702777,-0.652915,97.851356,30.237645,-166.589349
45085,-5.235594,8.249520,-0.754729,0.247005,0.445909,-0.026179,-0.079962,-0.017820,-0.245898,-0.052254,0.082556,-0.007585,0.999999,-0.000400,-0.000089,-0.001229,-0.121971,0.255977,-0.702195,-0.653085,97.807921,30.374191,-166.583742
45086,-5.212228,8.499141,-0.846453,0.089735,0.340077,0.187083,-0.156455,-0.015611,-0.292690,-0.051997,0.085061,-0.008535,0.999999,-0.000782,-0.000078,-0.001463,-0.122768,0.256997,-0.701301,-0.653496,97.722784,30.536538,-166.572500
45087,-5.185901,8.782309,-0.734197,-0.124771,0.427343,0.403146,-0.189375,-0.034331,-0.323126,-0.051716,0.087900,-0.007434,0.999998,-0.000947,-0.000172,-0.001616,-0.123693,0.258083,-0.700250,-0.654021,97.614394,30.718224,-166.571344
45088,-5.129891,8.922385,-0.627241,-0.291134,0.493669,0.482434,-0.296887,-0.027873,-0.353211,-0.051140,0.089305,-0.006412,0.999997,-0.001484,-0.000139,-0.001766,-0.124549,0.259360,-0.698806,-0.654897,97.447037,30.915907,-166.563652
45089,-5.232560,8.742675,-0.829461,-0.106491,0.277172,0.405614,-0.372485,-0.050509,-0.363711,-0.052164,0.087506,-0.008471,0.999997,-0.001862,-0.000253,-0.001819,-0.125425,0.260646,-0.697085,-0.656052,97.229342,31.121837,-166.570960
45090,-5.170937,8.851173,-0.791240,-0.249878,0.257996,0.462460,-0.439747,-0.062456,-0.375945,-0.051540,0.088591,-0.008123,0.999996,-0.002199,-0.000312,-0.001880,-0.126289,0.261975,-0.695113,-0.657448,96.968348,31.334939,-166.586089
45091,-5.120466,8.652362,-0.807959,-0.211326,0.179063,0.269885,-0.561787,-0.055263,-0.390509,-0.051033,0.086600,-0.008337,0.999994,-0.002809,-0.000276,-0.001953,-0.127020,0.263454,-0.692720,-0.659240,96.640398,31.556363,-166.596700
45092,-5.106231,8.478131,-0.887987,-0.142769,0.040322,0.123029,-0.614075,-0.039867,-0.393738,-0.050893,0.084854,-0.009150,0.999993,-0.003070,-0.000199,-0.001969,-0.127632,0.265023,-0.690149,-0.661186,96.286569,31.777981,-166.598218
45093,-5.047038,8.436279,-1.040950,-0.166806,-0.182646,0.069893,-0.668204,-0.033331,-0.384970,-0.050306,0.084424,-0.010700,0.999993,-0.003341,-0.000167,-0.001925,-0.128125,0.266616,-0.687408,-0.663302,95.903406,31.994776,-166.597770
45094,-5.018393,8.204218,-1.199113,-0.058962,-0.401595,-0.129392,-0.681075,-0.031292,-0.369761,-0.050030,0.082093,-0.012278,0.999992,-0.003405,-0.000156,-0.001849,-0.128535,0.268166,-0.684634,-0.665464,95.511550,32.202200,-166.598589
45095,-5.088058,8.041344,-1.229992,0.072639,-0.472850,-0.229615,-0.618134,-0.025906,-0.344445,-0.050740,0.080462,-0.012555,0.999994,-0.003091,-0.000130,-0.001722,-0.128932,0.269605,-0.682099,-0.667406,95.156596,32.395457,-166.599073
45096,-5.239861,8.349823,-0.962622,-0.037028,-0.245064,0.088861,-0.507215,-0.037241,-0.315986,-0.052265,0.083556,-0.009848,0.999996,-0.002536,-0.000186,-0.001580,-0.129414,0.270832,-0.679955,-0.669001,94.858861,32.572460,-166.610111
45097,-5.262995,8.466080,-0.731246,-0.142451,-0.068147,0.181470,-0.500257,-0.047749,-0.290453,-0.052505,0.084718,-0.007537,0.999996,-0.002501,-0.000239,-0.001452,-0.129860,0.271933,-0.677860,-0.670593,94.560498,32.735895,-166.630917
45098,-5.487363,8.512679,-0.998561,0.049973,-0.335663,0.358774,-0.441119,-0.045718,-0.261284,-0.054760,0.085176,-0.010186,0.999997,-0.002206,-0.000229,-0.001306,-0.130276,0.272900,-0.675996,-0.672000,94.294723,32.881922,-166.652767
45099,-5.495073,9.035176,-0.724753,-0.295386,-0.135817,0.782106,-0.353634,-0.087503,-0.228806,-0.054844,0.090402,-0.007431,0.999998,-0.001768,-0.000438,-0.001144,-0.130848,0.273560,-0.674442,-0.673181,94.062887,33.011615,-166.705572
45100,-5.437192,9.501099,-0.354925,-0.681676,0.145760,1.117719,-0.390644,-0.087500,-0.215624,-0.054268,0.095062,-0.003759,0.999997,-0.001953,-0.000437,-0.001078,-0.131319,0.274196,-0.672775,-0.674496,93.808374,33.133023,-166.759626
45101,-5.477966,9.974607,0.002894,-0.989267,0.425029,1.516096,-0.487812,-0.047621,-0.212602,-0.054674,0.099804,-0.000227,0.999996,-0.002439,-0.000238,-0.001063,-0.131517,0.275021,-0.670810,-0.676078,93.513148,33.251559,-166.787422
45102,-5.748768,10.228238,0.094533,-0.937397,0.483642,1.873244,-0.688531,-0.044828,-0.233030,-0.057369,0.102352,0.000580,0.999993,-0.003443,-0.000224,-0.001165,-0.131492,0.276051,-0.668130,-0.678312,93.103232,33.381008,-166.813317
45103,-5.717672,9.469754,-0.589287,-0.420188,-0.219231,1.254834,-0.846309,-0.074369,-0.239592,-0.057061,0.094740,-0.006315,0.999990,-0.004232,-0.000372,-0.001198,-0.131372,0.277103,-0.664879,-0.681096,92.591699,33.515363,-166.860613
45104,-5.825556,8.869046,-0.659370,0.004384,-0.303934,0.814583,-0.836785,-0.084149,-0.255885,-0.058139,0.088736,-0.006989,0.999990,-0.004184,-0.000421,-0.001279,-0.131347,0.278163,-0.661615,-0.683841,92.080643,33.658429,-166.915602
45105,-5.748397,8.361742,-0.356263,0.148863,-0.056940,0.339347,-0.824471,-0.089564,-0.275563,-0.057367,0.083681,-0.003933,0.999990,-0.004122,-0.000448,-0.001378,-0.131426,0.279258,-0.658353,-0.686523,91.574392,33.812924,-166.975581
45106,-5.599902,8.227471,-0.200020,0.059447,0.005570,0.141517,-0.772471,-0.088709,-0.274369,-0.055885,0.082343,-0.002343,0.999992,-0.003862,-0.000444,-0.001372,-0.131563,0.280311,-0.655257,-0.689025,91.096573,33.965817,-167.036616
45107,-5.374476,8.227479,-0.207762,-0.130563,-0.116928,0.015253,-0.775042,-0.100615,-0.260443,-0.053636,0.082336,-0.002424,0.999992,-0.003875,-0.000503,-0.001302,-0.131691,0.281276,-0.652155,-0.691545,90.612138,34.110882,-167.107747
45108,-5.256730,7.775416,-0.477563,0.074596,-0.420596,-0.424635,-0.759403,-0.102257,-0.236094,-0.052473,0.077797,-0.005098,0.999992,-0.003797,-0.000511,-0.001180,-0.131754,0.282140,-0.649127,-0.694026,90.134331,34.241023,-167.181638
45109,-5.189275,7.404105,-0.549027,0.235360,-0.516400,-0.772306,-0.581310,-0.101920,-0.192246,-0.051819,0.074074,-0.005732,0.999995,-0.002907,-0.000510,-0.000961,-0.131919,0.282743,-0.646774,-0.695944,89.758485,34.346054,-167.256608
45110,-5.398949,7.577785,0.070863,0.166498,0.057514,-0.509714,-0.443904,-0.100349,-0.152427,-0.053932,0.075820,0.000513,0.999997,-0.002220,-0.000502,-0.000762,-0.132129,0.283128,-0.644948,-0.697440,89.460906,34.427441,-167.331059
45111,-5.317853,7.680937,0.093827,0.036147,0.011835,-0.470118,-0.401448,-0.096600,-0.121369,-0.053132,0.076843,0.000758,0.999998,-0.002007,-0.000483,-0.000607,-0.132282,0.283399,-0.643316,-0.698807,89.189510,34.491234,-167.403268
45112,-5.249151,8.165610,0.081392,-0.283199,-0.113214,-0.109888,-0.295465,-0.095830,-0.069341,-0.052464,0.081675,0.000668,0.999999,-0.001477,-0.000479,-0.000347,-0.132396,0.283432,-0.642124,-0.699868,88.978580,34.524497,-167.474665
45113,-5.255590,8.733150,0.069493,-0.584169,-0.234504,0.360691,-0.317452,-0.085898,-0.032691,-0.052542,0.087341,0.000534,0.999999,-0.001587,-0.000429,-0.000163,-0.132323,0.283397,-0.640914,-0.701003,88.759764,34.537128,-167.538885
45114,-5.284881,8.760144,-0.080549,-0.533635,-0.412135,0.396224,-0.338216,-0.088615,0.011724,-0.052854,0.087597,-0.000977,0.999998,-0.001691,-0.000443,0.000059,-0.132069,0.283222,-0.639688,-0.702241,88.527731,34.523602,-167.604258
45115,-5.392950,8.687328,0.140878,-0.447042,-0.195800,0.401772,-0.273201,-0.042922,0.039857,-0.053947,0.086864,0.001279,0.999999,-0.001366,-0.000215,0.000199,-0.131666,0.283075,-0.638762,-0.703218,88.351944,34.494921,-167.637324
45116,-5.677938,8.579242,0.172763,-0.153784,-0.123519,0.474841,-0.278963,-0.062167,0.060123,-0.056806,0.085778,0.001590,0.999999,-0.001395,-0.000311,0.000301,-0.131240,0.282797,-0.637827,-0.704257,88.164980,34.453776,-167.683146
45117,-5.540918,8.365484,0.041409,-0.104207,-0.265782,0.217430,-0.219840,-0.069006,0.068935,-0.055438,0.083636,0.000303,0.999999,-0.001099,-0.000345,0.000345,-0.130893,0.282430,-0.637110,-0.705118,88.010096,34.407760,-167.733394
45118,-5.479612,8.113241,-0.004220,0.006523,-0.297725,-0.026874,-0.129846,-0.043406,0.079304,-0.054828,0.081111,-0.000107,1.000000,-0.000649,-0.000217,0.000397,-0.130550,0.282059,-0.636738,-0.705666,87.916423,34.355819,-167.765418
45119,-5.720161,8.096504,-0.074320,0.236786,-0.331100,0.092535,-0.103873,-0.037980,0.070333,-0.057230,0.080945,-0.000796,1.000000,-0.000519,-0.000190,0.000352,-0.130262,0.281720,-0.636452,-0.706113,87.840364,34.309506,-167.793855
45120,-5.724874,7.753949,0.036150,0.409559,-0.177555,-0.184607,-0.088513,-0.023721,0.045337,-0.057266,0.077527,0.000320,1.000000,-0.000443,-0.000119,0.000227,-0.130035,0.281499,-0.636190,-0.706478,87.777707,34.277374,-167.812935
45121,-5.763004,7.861751,0.557795,0.264904,0.314401,-0.057614,-0.059435,0.038807,0.000592,-0.057629,0.078619,0.005566,1.000000,-0.000297,0.000194,0.000003,-0.129812,0.281624,-0.636011,-0.706630,87.756129,34.272665,-167.789928
45122,-5.697883,7.915554,0.401180,0.220188,0.133946,-0.054800,-0.191579,0.036153,-0.039997,-0.056962,0.079171,0.003946,1.000000,-0.000958,0.000181,-0.000200,-0.129550,0.281953,-0.635304,-0.707183,87.656496,34.290731,-167.769818
45123,-5.279001,7.314073,-0.604328,0.443141,-0.837783,-0.822112,-0.307312,0.054748,-0.074072,-0.052765,0.073151,-0.006141,0.999999,-0.001537,0.000274,-0.000370,-0.129191,0.282532,-0.634153,-0.708050,87.497895,34.329229,-167.737925
45124,-5.127532,6.877187,-0.042592,0.422605,-0.257086,-1.248553,-0.024722,0.106118,-0.055029,-0.051257,0.068786,-0.000407,1.000000,-0.000124,0.000531,-0.000275,-0.128996,0.283048,-0.634059,-0.707964,87.520956,34.357698,-167.669824
45125,-5.158690,7.877771,-0.009770,-0.105754,-0.377437,-0.404297,0.043476,0.099864,-0.019292,-0.051579,0.078783,-0.000055,1.000000,0.000217,0.000499,-0.000096,-0.128796,0.283385,-0.634255,-0.707689,87.581984,34.365974,-167.605018
45126,-5.133678,7.811508,0.233232,-0.147565,-0.136184,-0.464513,-0.192820,0.106658,0.004506,-0.051337,0.078116,0.002284,0.999999,-0.000964,0.000533,0.000023,-0.128150,0.283822,-0.633650,-0.708173,87.509984,34.360341,-167.534735
45127,-5.139183,7.812173,0.460595,-0.194484,0.077791,-0.452691,-0.137012,0.094132,0.023908,-0.051399,0.078119,0.004577,1.000000,-0.000685,0.000471,0.000120,-0.127559,0.284119,-0.633265,-0.708506,87.466079,34.343790,-167.472610
45128,-5.489981,7.645183,0.578691,0.154340,0.271340,-0.387926,-0.320599,0.129389,0.011299,-0.054900,0.076458,0.005700,0.999999,-0.001603,0.000647,0.000056,-0.126635,0.284695,-0.632230,-0.709364,87.329851,34.335010,-167.386360
45129,-5.701216,6.672849,0.639842,0.837138,0.513827,-1.067670,-0.380416,0.106390,-0.033825,-0.056997,0.066750,0.006302,0.999998,-0.001902,0.000532,-0.000169,-0.125863,0.285371,-0.630904,-0.710409,87.150248,34.352047,-167.317575
45130,-5.595742,6.557158,0.352759,0.884345,0.221321,-1.233524,-0.198110,0.073194,-0.066821,-0.055934,0.065594,0.003483,0.999999,-0.000991,0.000366,-0.000334,-0.125569,0.285916,-0.630154,-0.710908,87.060746,34.386707,-167.272937
45131,-5.276320,6.684744,0.130667,0.609676,-0.080627,-1.317735,-0.034835,0.018836,-0.071656,-0.052739,0.066867,0.001300,1.000000,-0.000174,0.000094,-0.000358,-0.125700,0.286183,-0.629945,-0.710963,87.044118,34.423075,-167.266226
45132,-5.052366,7.500279,-0.419998,0.121429,-0.795084,-0.795477,0.075540,0.045838,-0.050708,-0.050506,0.075017,-0.004160,1.000000,0.000378,0.000229,-0.000254,-0.125826,0.286408,-0.630173,-0.710648,87.101047,34.447736,-167.239984
45133,-5.375104,7.535709,0.623920,0.098223,0.273551,-0.539962,0.070145,0.014363,-0.026919,-0.053740,0.075362,0.006269,1.000000,0.000351,0.000072,-0.000135,-0.125963,0.286451,-0.630398,-0.710406,87.143749,34.458359,-167.234777
45134,-5.488713,7.958797,0.519064,-0.016902,0.127359,-0.131709,0.136836,0.025928,-0.036877,-0.054872,0.079595,0.005252,1.000000,0.000684,0.000130,-0.000184,-0.126190,0.286523,-0.630851,-0.709935,87.228294,34.474501,-167.221814
45135,-5.981411,7.306740,1.107751,0.579691,0.904842,-0.366098,0.008897,0.026655,-0.082855,-0.059782,0.073092,0.011089,1.000000,0.000044,0.000133,-0.000414,-0.126399,0.286825,-0.630786,-0.709833,87.239657,34.517456,-167.209934
45136,-6.265819,6.568677,0.353257,1.383884,0.358517,-0.841116,0.228620,-0.017912,-0.142568,-0.062612,0.065727,0.003602,0.999999,0.001143,-0.000090,-0.000713,-0.127270,0.287016,-0.631384,-0.709068,87.357591,34.592883,-167.230849
45137,-5.512167,7.615177,0.324511,0.201782,0.034406,-0.408528,0.514728,-0.134016,-0.129306,-0.055075,0.076179,0.003404,0.999996,0.002574,-0.000670,-0.000647,-0.128877,0.286573,-0.632942,-0.707567,87.594658,34.658409,-167.331887
45138,-4.962784,8.877601,1.151593,-1.144274,0.557749,0.343426,0.423730,-0.066744,-0.118789,-0.049579,0.088781,0.011687,0.999998,0.002119,-0.000334,-0.000594,-0.130097,0.286389,-0.634229,-0.706265,87.805717,34.719219,-167.385527
45139,-5.798056,8.800116,1.197815,-0.457444,0.776540,0.755281,-0.047695,-0.004050,-0.147167,-0.057916,0.088047,0.011956,1.000000,-0.000238,-0.000020,-0.000736,-0.130548,0.286824,-0.633852,-0.706344,87.771703,34.798310,-167.396232
45140,-6.173648,7.361995,0.251047,0.844853,0.144641,-0.239747,-0.155534,-0.059463,-0.205877,-0.061661,0.073685,0.002435,0.999999,-0.000778,-0.000297,-0.001029,-0.131222,0.287318,-0.632970,-0.706808,87.652205,34.909154,-167.447312
45141,-5.442286,6.997239,-0.513839,0.627070,-0.678416,-0.981472,0.158456,-0.140654,-0.197929,-0.054350,0.070030,-0.005121,0.999999,0.000792,-0.000703,-0.000990,-0.132581,0.287295,-0.633159,-0.706395,87.680738,35.014068,-167.555087
45142,-4.918089,7.850701,0.917818,-0.619920,0.496563,-0.537317,0.549034,-0.097612,-0.119570,-0.049138,0.078511,0.009370,0.999996,0.002745,-0.000488,-0.000598,-0.134082,0.286914,-0.634861,-0.704737,87.950864,35.074740,-167.630417
45143,-5.697469,8.455410,1.206783,-0.413087,0.842741,0.411331,0.220522,-0.047500,-0.117766,-0.056928,0.084574,0.012148,0.999999,0.001103,-0.000238,-0.000589,-0.134951,0.286924,-0.635442,-0.704042,88.053661,35.136121,-167.670486
45144,-5.954258,7.537846,-0.102955,0.592425,-0.234182,-0.227434,0.159899,-0.075916,-0.140477,-0.059489,0.075421,-0.000992,0.999999,0.000799,-0.000380,-0.000702,-0.135898,0.286945,-0.635755,-0.703570,88.109294,35.209466,-167.730880
45145,-5.222647,7.802629,-0.590525,-0.040546,-0.867044,-0.445066,0.369432,-0.205572,-0.097825,-0.052182,0.078063,-0.005815,0.999998,0.001847,-0.001028,-0.000489,-0.137412,0.286234,-0.636778,-0.702640,88.233707,35.256663,-167.881165
45146,-4.775933,8.732929,0.432142,-1.160744,-0.063628,0.082202,0.464588,-0.065461,-0.045092,-0.047741,0.087330,0.004509,0.999997,0.002323,-0.000327,-0.000225,-0.138426,0.285777,-0.638301,-0.701243,88.469384,35.275784,-167.931947
45147,-5.955973,7.964430,0.099934,0.274978,-0.045053,0.129046,0.276023,0.009113,-0.064779,-0.059534,0.079662,0.001112,0.999999,0.001380,0.000046,-0.000324,-0.139005,0.285776,-0.639187,-0.700321,88.627642,35.307945,-167.930734
45148,-5.982440,7.439660,0.123759,0.574827,0.080395,-0.282919,0.370380,-0.028796,-0.056165,-0.059804,0.074411,0.001367,0.999998,0.001852,-0.000144,-0.000281,-0.139805,0.285547,-0.640385,-0.699160,88.824154,35.334146,-167.955828
45149,-5.605525,7.315308,-0.041158,0.370769,-0.097654,-0.604527,0.585896,-0.110353,-0.020874,-0.056047,0.073160,-0.000228,0.999996,0.002929,-0.000552,-0.000104,-0.141054,0.284770,-0.642328,-0.697442,89.111934,35.339947,-168.037656
45150,-5.161982,8.456594,-0.012966,-0.640913,-0.252466,0.070905,0.735684,-0.047241,0.018935,-0.051628,0.084561,0.000169,0.999993,0.003678,-0.000236,0.000095,-0.142169,0.283973,-0.644885,-0.695177,89.510810,35.323203,-168.074742
45151,-5.490926,8.804610,-0.108241,-0.562235,-0.281528,0.545284,0.557895,-0.019238,0.039206,-0.054926,0.088038,-0.000842,0.999996,0.002789,-0.000096,0.000196,-0.142874,0.283334,-0.646868,-0.693448,89.819814,35.295645,-168.092244
45152,-5.525909,8.970992,-0.247984,-0.605165,-0.383913,0.702161,0.566838,-0.000527,0.035116,-0.055275,0.089707,-0.002226,0.999996,0.002834,-0.000003,0.000176,-0.143539,0.282762,-0.648883,-0.691660,90.140791,35.269994,-168.096754
45153,-5.662987,8.491655,-0.229138,-0.233770,-0.245348,0.390998,0.420199,-0.053475,0.023272,-0.056639,0.084915,-0.002128,0.999998,0.002101,-0.000267,0.000116,-0.144213,0.282151,-0.650334,-0.690405,90.356847,35.251769,-168.138579
45154,-5.908351,8.369904,0.131456,-0.046073,0.197067,0.431341,0.458586,-0.014847,0.010638,-0.059088,0.083693,0.001502,0.999997,0.002293,-0.000074,0.000053,-0.144854,0.281683,-0.651922,-0.688963,90.609931,35.240244,-168.153263
45155,-5.640689,8.291072,0.063395,-0.206767,0.128758,0.212473,0.439539,-0.053457,0.006059,-0.056410,0.082907,0.000801,0.999998,0.002198,-0.000267,0.000030,-0.145614,0.281112,-0.653409,-0.687626,90.837189,35.232160,-168.195057
45156,-5.549730,8.632137,0.047419,-0.474979,0.094885,0.438207,0.392672,-0.015639,0.000041,-0.055497,0.086320,0.000639,0.999998,0.001963,-0.000078,0.000000,-0.146200,0.280721,-0.654749,-0.686386,91.052198,35.226811,-168.210285
45157,-5.881191,8.191612,-0.069120,0.057478,0.105204,0.271027,0.274958,-0.049118,-0.028443,-0.058800,0.081925,-0.000593,0.999999,0.001375,-0.000246,-0.000142,-0.146832,0.280395,-0.655621,-0.685551,91.187064,35.238585,-168.248700
45158,-6.040778,7.578958,-0.349530,0.581034,-0.068032,-0.132216,0.227479,-0.038337,-0.051430,-0.060388,0.075809,-0.003421,0.999999,0.001137,-0.000192,-0.000257,-0.147436,0.280215,-0.656302,-0.684843,91.298660,35.263067,-168.279103
45159,-6.111614,6.979415,-0.328901,0.968154,0.034428,-0.580477,0.309884,-0.107010,-0.045733,-0.061098,0.069813,-0.003214,0.999999,0.001549,-0.000535,-0.000229,-0.148366,0.279721,-0.657224,-0.683959,91.430288,35.285803,-168.357719
45160,-5.712073,6.886155,-0.459133,0.719809,-0.132028,-0.883964,0.491830,-0.155068,-0.007824,-0.057115,0.068875,-0.004466,0.999997,0.002459,-0.000775,-0.000039,-0.149573,0.278800,-0.658780,-0.682574,91.645623,35.287232,-168.470709
45161,-5.333708,7.939268,0.168429,-0.304558,0.364576,-0.258476,0.656568,-0.163273,0.034146,-0.053352,0.079378,0.001901,0.999994,0.003283,-0.000816,0.000171,-0.150898,0.277590,-0.660946,-0.680679,91.952115,35.265786,-168.590362
45162,-5.845514,7.695587,-0.258570,0.318066,0.081361,-0.150850,0.497032,-0.205507,0.023490,-0.058462,0.076955,-0.002455,0.999996,0.002485,-0.001028,0.000117,-0.152170,0.276387,-0.662515,-0.679359,92.149639,35.251144,-168.739448
45163,-5.486358,7.462337,-0.369549,0.180213,-0.038595,-0.545050,0.591180,-0.210957,0.031865,-0.054872,0.074625,-0.003533,0.999995,0.002956,-0.001055,0.000159,-0.153566,0.275064,-0.664407,-0.677732,92.399330,35.232811,-168.892697
45164,-5.627739,7.378517,-0.231426,0.316838,0.154864,-0.536746,0.534809,-0.228093,0.057635,-0.056296,0.073775,-0.002181,0.999996,0.002674,-0.001140,0.000288,-0.154847,0.273638,-0.666123,-0.676332,92.608825,35.200154,-169.058713
45165,-5.324600,7.647262,-0.028266,-0.111714,0.324526,-0.500607,0.676765,-0.218374,0.104616,-0.053286,0.076445,-0.000082,0.999994,0.003384,-0.001092,0.000523,-0.156135,0.271976,-0.668385,-0.674472,92.903320,35.141485,-169.219643
45166,-5.522205,7.982836,-0.057733,-0.135802,0.346656,-0.112945,0.636818,-0.215752,0.123354,-0.055271,0.079796,-0.000383,0.999994,0.003184,-0.001079,0.000617,-0.157289,0.270287,-0.670529,-0.672752,93.175000,35.072120,-169.379610
45167,-5.304331,8.445947,-0.104659,-0.562739,0.284438,0.141366,0.624922,-0.236414,0.136576,-0.053100,0.084426,-0.000845,0.999994,0.003125,-0.001182,0.000683,-0.158456,0.268493,-0.672630,-0.671098,93.431959,34.997081,-169.554786
45168,-5.617503,9.102573,0.130872,-0.712981,0.572170,0.845383,0.458401,-0.149141,0.126531,-0.056234,0.090987,0.001475,0.999997,0.002292,-0.000746,0.000633,-0.159133,0.267152,-0.674219,-0.669877,93.628054,34.924673,-169.668843
45169,-6.187833,9.185315,0.452082,-0.337680,0.994988,1.221787,0.261151,-0.158247,0.066133,-0.061912,0.091827,0.004592,0.999999,0.001306,-0.000791,0.000331,-0.159783,0.266142,-0.675058,-0.669279,93.709605,34.887868,-169.786738
45170,-6.019643,8.410684,-0.380220,0.091638,0.182532,0.535190,0.073552,-0.148345,-0.003252,-0.060192,0.084109,-0.003816,1.000000,0.000368,-0.000742,-0.000016,-0.160377,0.265547,-0.675183,-0.669247,93.688887,34.889912,-169.894552
45171,-5.618090,8.447796,-0.900394,-0.183961,-0.395061,0.363215,0.019016,-0.093967,-0.056154,-0.056153,0.084495,-0.009022,1.000000,0.000095,-0.000470,-0.000281,-0.160897,0.265358,-0.675099,-0.669282,93.660457,34.920670,-169.962158
45172,-5.461425,8.519194,-1.231628,-0.311887,-0.759799,0.348323,-0.178159,-0.042090,-0.116921,-0.054562,0.085213,-0.012404,0.999999,-0.000891,-0.000210,-0.000585,-0.161179,0.265704,-0.674315,-0.669867,93.540699,34.983737,-169.990940
45173,-6.082130,6.930070,-1.611565,1.144547,-1.008378,-0.577513,-0.340309,0.001246,-0.209564,-0.060749,0.069337,-0.016233,0.999998,-0.001702,0.000006,-0.001048,-0.161414,0.266640,-0.672899,-0.670862,93.347969,35.098774,-169.985807
45174,-6.024557,5.682635,-1.484064,1.784151,-0.851374,-1.634545,0.046978,-0.023060,-0.200302,-0.060187,0.056890,-0.014834,0.999999,0.000235,-0.000115,-0.001002,-0.162210,0.267148,-0.672772,-0.670595,93.366528,35.208794,-169.998252
45175,-5.910543,6.569373,0.059197,0.948492,0.632670,-1.049429,0.455470,-0.061166,-0.152273,-0.059056,0.065737,0.000724,0.999997,0.002277,-0.000306,-0.000761,-0.163524,0.267037,-0.674047,-0.669038,93.603235,35.293242,-170.039208
45176,-5.929810,7.431547,0.260694,0.420675,0.828423,-0.347216,0.522399,-0.125004,-0.162917,-0.059239,0.074357,0.002764,0.999996,0.002612,-0.000625,-0.000815,-0.165172,0.266689,-0.675473,-0.667331,93.852329,35.385748,-170.123968
45177,-5.758846,8.253047,-0.603171,-0.099345,-0.051451,0.268399,0.461364,-0.204071,-0.179217,-0.057508,0.082596,-0.005900,0.999996,0.002307,-0.001020,-0.000896,-0.167065,0.266183,-0.676606,-0.665913,94.035438,35.491563,-170.263134
45178,-4.982461,8.798344,-0.404812,-1.087445,0.042475,0.247892,0.321921,-0.164310,-0.180137,-0.049742,0.088035,-0.003947,0.999998,0.001610,-0.000822,-0.000901,-0.168634,0.265925,-0.677301,-0.664914,94.154174,35.595959,-170.374120
45179,-5.289083,8.501930,-0.473003,-0.678853,0.032737,0.188263,0.123072,-0.151181,-0.169601,-0.052815,0.085067,-0.004718,0.999999,0.000615,-0.000756,-0.000848,-0.169863,0.265844,-0.677359,-0.664573,94.164455,35.694467,-170.476454
45180,-5.426537,7.696276,-0.308553,-0.131402,0.233993,-0.394453,0.134625,-0.151162,-0.127797,-0.054214,0.076999,-0.003075,0.999999,0.000673,-0.000756,-0.000639,-0.170964,0.265610,-0.677509,-0.664233,94.179367,35.768527,-170.580961
45181,-5.391071,7.605886,-0.087842,-0.144096,0.453927,-0.501724,0.204809,-0.124745,-0.095515,-0.053874,0.076085,-0.000834,0.999999,0.001024,-0.000624,-0.000478,-0.171966,0.265296,-0.677958,-0.663641,94.244858,35.823693,-170.668549
45182,-5.692773,7.900946,-0.438988,-0.043913,0.146962,-0.065802,0.196358,-0.100761,-0.090659,-0.056890,0.079040,-0.004341,0.999999,0.000982,-0.000504,-0.000453,-0.172854,0.265049,-0.678403,-0.663054,94.314637,35.874539,-170.739469
45183,-5.558405,8.769283,-0.697849,-0.643152,-0.139614,0.572399,0.068073,-0.053200,-0.111978,-0.055533,0.087726,-0.006963,1.000000,0.000340,-0.000266,-0.000560,-0.173486,0.265145,-0.678436,-0.662816,94.331688,35.936074,-170.775785
45184,-5.533017,9.212830,-0.527714,-0.957010,0.002226,0.904264,-0.288680,-0.038851,-0.171011,-0.055250,0.092168,-0.005421,0.999999,-0.001443,-0.000194,-0.000855,-0.173787,0.265795,-0.677219,-0.663721,94.151489,36.030170,-170.798943
45185,-5.932877,7.599753,-0.912611,0.346075,-0.331970,-0.140152,-0.628484,0.014045,-0.263981,-0.059229,0.076047,-0.009361,0.999994,-0.003142,0.000070,-0.001320,-0.173769,0.267232,-0.674793,-0.665617,93.801448,36.175727,-170.780709
45186,-5.974565,5.967846,-1.620696,1.415640,-1.020028,-1.392908,-0.482577,0.061872,-0.305990,-0.059659,0.059730,-0.016333,0.999996,-0.002413,0.000309,-0.001530,-0.173918,0.268838,-0.672830,-0.666917,93.555218,36.343111,-170.727520
45187,-5.754896,6.110647,-1.213542,1.087667,-0.665118,-1.427815,-0.083559,0.092263,-0.262615,-0.057474,0.061177,-0.012134,0.999999,-0.000418,0.000461,-0.001313,-0.174360,0.270054,-0.672281,-0.666864,93.549805,36.485292,-170.654990
45188,-5.998250,7.058871,-0.416047,0.596121,0.129798,-0.560256,0.220351,0.043972,-0.193128,-0.059915,0.070651,-0.004069,0.999999,0.001102,0.000220,-0.000966,-0.175139,0.270607,-0.672793,-0.665918,93.695913,36.588829,-170.619637
45189,-6.232113,7.611046,0.018868,0.378925,0.591362,-0.000743,0.383404,-0.087103,-0.154679,-0.062262,0.076158,0.000308,0.999998,0.001917,-0.000436,-0.000773,-0.176455,0.270452,-0.673786,-0.664629,93.879561,36.675815,-170.679131
45190,-6.291919,8.087810,-0.128887,0.141259,0.463543,0.423650,0.505597,-0.153423,-0.143086,-0.062860,0.080926,-0.001133,0.999996,0.002528,-0.000767,-0.000715,-0.178116,0.269927,-0.675136,-0.663028,94.104100,36.758437,-170.786104
45191,-6.171333,8.698998,0.103621,-0.366408,0.689427,0.824935,0.426658,-0.183716,-0.153058,-0.061648,0.087035,0.001165,0.999997,0.002133,-0.000919,-0.000765,-0.179809,0.269406,-0.676181,-0.661716,94.271324,36.848946,-170.913956
45192,-5.605548,8.900587,-0.307425,-0.906896,0.219965,0.669022,0.194171,-0.177106,-0.182647,-0.055971,0.089060,-0.003037,0.999999,0.000971,-0.000886,-0.000913,-0.181259,0.269212,-0.676418,-0.661157,94.308433,36.955632,-171.035450
45193,-5.387043,9.109116,-0.692075,-1.182478,-0.195047,0.724810,-0.014822,-0.090753,-0.201889,-0.053775,0.091145,-0.006952,0.999999,-0.000074,-0.000454,-0.001009,-0.182203,0.269560,-0.676017,-0.661166,94.263866,37.070161,-171.094371
45194,-5.469659,8.598648,-0.889743,-0.804494,-0.387060,0.377919,-0.208411,-0.046919,-0.200022,-0.054608,0.086032,-0.009000,0.999999,-0.001042,-0.000235,-0.001000,-0.182727,0.270220,-0.675016,-0.661774,94.126451,37.181158,-171.122227
45195,-5.441236,8.160391,-0.723370,-0.594083,-0.238525,0.001202,-0.251844,0.007598,-0.178109,-0.054340,0.081643,-0.007334,0.999999,-0.001259,0.000038,-0.000891,-0.182940,0.271028,-0.673950,-0.662471,93.987375,37.277910,-171.112430
45196,-5.520215,7.972424,-0.434729,-0.460745,0.036408,-0.116935,-0.381065,0.051051,-0.138677,-0.055148,0.079754,-0.004485,0.999998,-0.001905,0.000255,-0.000693,-0.182696,0.271962,-0.672546,-0.663581,93.791337,37.349912,-171.073682
45197,-5.744100,7.126707,-0.514317,0.230819,-0.017300,-0.647780,-0.404945,0.111306,-0.140750,-0.057394,0.071297,-0.005256,0.999998,-0.002025,0.000557,-0.000704,-0.182227,0.273126,-0.671114,-0.664682,93.608388,37.421497,-170.991698
45198,-6.173250,7.472985,-1.057016,0.412735,-0.525644,-0.085142,-0.097940,0.138528,-0.118424,-0.061696,0.074761,-0.010564,0.999999,-0.000490,0.000693,-0.000592,-0.182007,0.274023,-0.670753,-0.664737,93.612170,37.478911,-170.891234
45199,-6.552392,8.517264,-0.236335,-0.034185,0.303345,0.931627,0.093129,-0.000753,-0.080048,-0.065490,0.085200,-0.002324,1.000000,0.000466,-0.000004,-0.000400,-0.182392,0.274156,-0.670955,-0.664372,93.663924,37.519897,-170.892837
45200,-6.033908,8.287815,-0.383930,-0.289119,0.103018,0.441537,0.109636,-0.120821,-0.047404,-0.060317,0.082895,-0.003830,1.000000,0.000548,-0.000604,-0.000237,-0.183090,0.273763,-0.671145,-0.664151,93.670942,37.546129,-170.982473
45201,-5.913024,7.698019,-0.554829,-0.006919,-0.057331,-0.090144,0.234193,-0.130195,-0.005756,-0.059124,0.076988,-0.005497,0.999999,0.001171,-0.000651,-0.000029,-0.183856,0.273087,-0.671798,-0.663557,93.744527,37.549460,-171.080772
45202,-6.118843,7.915888,-0.549486,0.018754,-0.019792,0.207427,0.304422,-0.103952,0.010486,-0.061190,0.079164,-0.005406,0.999999,0.001522,-0.000520,0.000052,-0.184571,0.272377,-0.672726,-0.662709,93.868894,37.542127,-171.160955
45203,-6.127507,8.288209,-0.772672,-0.178879,-0.232421,0.519386,0.293422,-0.090500,0.005726,-0.061274,0.082892,-0.007633,0.999999,0.001467,-0.000452,0.000029,-0.185245,0.271739,-0.673625,-0.661870,93.993497,37.537625,-171.231199
45204,-5.734346,9.068583,-0.788637,-0.964083,-0.302722,0.898185,0.110646,-0.073473,-0.005390,-0.057338,0.090692,-0.007857,1.000000,0.000553,-0.000367,-0.000027,-0.185645,0.271361,-0.673916,-0.661616,94.020706,37.538369,-171.288635
45205,-5.415889,8.474190,-0.822500,-0.846960,-0.366289,0.235632,-0.165031,-0.022714,-0.028178,-0.054146,0.084743,-0.008301,1.000000,-0.000825,-0.000114,-0.000141,-0.185581,0.271485,-0.673313,-0.662197,93.913543,37.550569,-171.308338
45206,-5.735802,7.893506,-1.065976,-0.214089,-0.566363,-0.015925,-0.117645,0.065246,-0.026354,-0.057351,0.078936,-0.010687,1.000000,-0.000588,0.000326,-0.000132,-0.185274,0.271849,-0.672949,-0.662504,93.871522,37.557810,-171.264735
45207,-6.106841,7.885392,-0.513357,0.021007,0.021463,0.174081,-0.109112,0.065954,-0.009079,-0.061067,0.078854,-0.005156,1.000000,-0.000546,0.000330,-0.000045,-0.184922,0.272151,-0.672639,-0.662793,93.834736,37.555596,-171.221439
45208,-6.023299,7.336565,-0.487276,0.289333,0.047383,-0.312329,-0.085686,0.044343,-0.006192,-0.060232,0.073365,-0.004891,1.000000,-0.000428,0.000222,-0.000031,-0.184662,0.272348,-0.672388,-0.663039,93.801239,37.552153,-171.193893
45209,-6.010225,7.319963,-0.849443,0.330924,-0.311126,-0.314272,0.072002,0.049068,0.006967,-0.060107,0.073201,-0.008453,1.000000,0.000360,0.000245,0.000035,-0.184561,0.272373,-0.672684,-0.662757,93.860291,37.541472,-171.163475
45210,-6.138649,8.025704,-0.615778,-0.025273,-0.070928,0.309981,0.185435,0.014462,0.024116,-0.061397,0.080255,-0.006079,1.000000,0.000927,0.000072,0.000121,-0.184670,0.272118,-0.673345,-0.662159,93.968086,37.521836,-171.158978
45211,-5.878975,8.077367,-0.427761,-0.279336,0.091825,0.182447,0.068174,-0.045689,0.028109,-0.058800,0.080767,-0.004264,1.000000,0.000341,-0.000228,0.000141,-0.184812,0.271760,-0.673570,-0.662038,93.982744,37.502730,-171.198051
45212,-5.730890,7.073474,-0.678450,0.247973,-0.150213,-0.688359,-0.012482,-0.014619,0.006082,-0.057311,0.070733,-0.006793,1.000000,-0.000062,-0.000073,0.000030,-0.184810,0.271653,-0.673524,-0.662129,93.964917,37.494554,-171.213630
45213,-6.134482,7.108613,-1.213591,0.602890,-0.627920,-0.385106,0.135436,0.052380,0.008928,-0.061351,0.071092,-0.012072,1.000000,0.000677,0.000262,0.000045,-0.184776,0.271622,-0.674036,-0.661630,94.061690,37.482505,-171.181066
45214,-6.268417,8.134441,-0.505582,0.003203,0.079203,0.468922,0.118548,0.035233,0.004870,-0.062687,0.081346,-0.004997,1.000000,0.000593,0.000176,0.000024,-0.184788,0.271563,-0.674468,-0.661211,94.140813,37.473006,-171.160701
45215,-5.949546,8.026581,-0.601305,-0.170210,-0.045894,0.194990,-0.000681,0.030212,-0.002633,-0.059495,0.080267,-0.006004,1.000000,-0.000003,0.000151,-0.000013,-0.184683,0.271624,-0.674493,-0.661190,94.150252,37.468441,-171.143544
45216,-5.935821,8.138590,-0.689916,-0.239058,-0.136258,0.280423,-0.015328,0.063596,-0.006892,-0.059358,0.081387,-0.006887,1.000000,-0.000077,0.000318,-0.000034,-0.184456,0.271821,-0.674493,-0.661173,94.165453,37.464469,-171.102158
45217,-6.045715,8.206187,-0.717151,-0.190906,-0.150246,0.402373,-0.024882,0.039413,-0.010710,-0.060454,0.082064,-0.007170,1.000000,-0.000124,0.000197,-0.000054,-0.184314,0.271962,-0.674435,-0.661213,94.165325,37.464091,-171.078000
45218,-5.868300,8.122685,-0.511342,-0.301131,0.030848,0.216509,-0.088465,0.026162,-0.007271,-0.058681,0.081227,-0.005142,1.000000,-0.000442,0.000131,-0.000036,-0.184114,0.272104,-0.674158,-0.661493,94.122239,37.461894,-171.063545
45219,-5.636022,7.638146,-0.550911,-0.181483,-0.034523,-0.306090,-0.180801,0.047295,-0.011234,-0.056357,0.076380,-0.005565,1.000000,-0.000904,0.000236,-0.000056,-0.183735,0.272416,-0.673591,-0.662047,94.036223,37.461511,-171.033661
45220,-5.723571,7.273529,-0.998750,0.161805,-0.467514,-0.516654,-0.166916,0.117325,-0.028006,-0.057231,0.072735,-0.010015,0.999999,-0.000835,0.000587,-0.000140,-0.183190,0.273001,-0.673109,-0.662447,93.988759,37.467535,-170.952507
45221,-5.958500,7.682944,-0.976476,0.094731,-0.430031,-0.050979,-0.083992,0.109410,-0.006042,-0.059588,0.076827,-0.009764,1.000000,-0.000420,0.000547,-0.000030,-0.182716,0.273413,-0.672926,-0.662595,93.985297,37.461799,-170.878071
45222,-5.819573,7.713675,-0.558939,-0.079675,-0.035417,-0.134205,-0.075729,0.071607,0.002389,-0.058199,0.077134,-0.005598,1.000000,-0.000379,0.000358,0.000012,-0.182349,0.273661,-0.672744,-0.662777,93.969118,37.452307,-170.831370
45223,-5.741884,7.383599,-0.485561,0.054283,0.034451,-0.446877,-0.105452,0.087498,0.005660,-0.057423,0.073832,-0.004869,1.000000,-0.000527,0.000437,0.000028,-0.181880,0.273979,-0.672486,-0.663037,93.943378,37.440710,-170.773380
45224,-5.947691,7.311397,-0.771810,0.295626,-0.218831,-0.363246,-0.000198,0.128051,0.009259,-0.059485,0.073111,-0.007680,1.000000,-0.000001,0.000640,0.000046,-0.181404,0.274322,-0.672615,-0.662895,93.994938,37.425058,-170.686407
45225,-6.161029,8.266636,-0.079767,-0.200418,0.474978,0.484697,0.042978,0.097069,0.022654,-0.061620,0.082660,-0.000750,1.000000,0.000215,0.000485,0.000113,-0.181050,0.274480,-0.672880,-0.662657,94.057882,37.403343,-170.622407
45226,-6.061196,8.507742,-0.225690,-0.403492,0.307536,0.623466,-0.215515,0.049167,0.034397,-0.060627,0.085065,-0.002334,0.999999,-0.001078,0.000246,0.000172,-0.180460,0.274672,-0.672258,-0.663369,93.950758,37.376438,-170.593509
45227,-5.639025,8.052764,-1.110669,-0.342051,-0.624292,0.055060,-0.184235,0.024339,0.046156,-0.056410,0.080504,-0.011174,1.000000,-0.000921,0.000122,0.000231,-0.179961,0.274715,-0.671736,-0.664016,93.850980,37.344207,-170.582964
45228,-5.876109,8.775419,0.086642,-0.734907,0.559832,0.708274,-0.112181,0.058973,0.054545,-0.058785,0.087739,0.000835,1.000000,-0.000561,0.000295,0.000273,-0.179412,0.274778,-0.671492,-0.664384,93.806770,37.305479,-170.547907
45229,-5.851710,7.852045,-0.479282,-0.115852,0.014772,-0.008956,-0.316176,0.099352,0.020959,-0.058528,0.078507,-0.004888,0.999999,-0.001581,0.000497,0.000105,-0.178563,0.275272,-0.670562,-0.665347,93.664863,37.284854,-170.482153
45230,-5.752092,7.909635,0.072368,-0.294019,0.536926,-0.051571,-0.125955,0.186718,0.024614,-0.057530,0.079090,0.000728,0.999999,-0.000630,0.000934,0.000123,-0.177666,0.275873,-0.670345,-0.665558,93.669224,37.258637,-170.353817
45231,-6.075455,7.983100,0.695439,-0.163873,1.185414,0.171930,-0.377489,0.200274,-0.009622,-0.060744,0.079847,0.006865,0.999998,-0.001887,0.001001,-0.000048,-0.176494,0.276857,-0.669255,-0.666557,93.536831,37.251943,-170.214181
45232,-6.151525,7.533740,-0.551949,0.334833,-0.040242,-0.076704,-0.448708,0.209960,-0.040277,-0.061506,0.075337,-0.005624,0.999997,-0.002244,0.001050,-0.000201,-0.175289,0.278037,-0.667888,-0.667754,93.368116,37.262419,-170.066233
45233,-5.885724,7.803238,-0.394013,-0.055821,0.054786,-0.031001,-0.164471,0.164818,0.006236,-0.058863,0.078027,-0.003956,0.999999,-0.000822,0.000824,0.000031,-0.174477,0.278661,-0.667495,-0.668099,93.341945,37.248351,-169.952694
45234,-5.740365,8.434785,-0.039235,-0.598449,0.356656,0.366388,-0.053800,0.187312,0.027500,-0.057416,0.084340,-0.000361,1.000000,-0.000269,0.000937,0.000137,-0.173669,0.279192,-0.667518,-0.668065,93.387833,37.221002,-169.823944
45235,-5.595760,8.440624,-0.301467,-0.673777,0.076992,0.296103,-0.192375,0.181443,0.035000,-0.055975,0.084394,-0.003045,0.999999,-0.000962,0.000907,0.000175,-0.172666,0.279800,-0.667085,-0.668503,93.352025,37.189950,-169.699660
45236,-5.780828,8.315955,-0.666344,-0.394225,-0.256638,0.326140,-0.208074,0.197161,0.035418,-0.057830,0.083142,-0.006693,0.999999,-0.001040,0.000986,0.000177,-0.171583,0.280470,-0.666610,-0.668975,93.313433,37.157802,-169.564255
45237,-5.854534,8.388248,-0.722227,-0.364119,-0.312608,0.430826,-0.224438,0.141957,0.040051,-0.058567,0.083863,-0.007275,0.999999,-0.001122,0.000710,0.000200,-0.170648,0.280954,-0.666040,-0.669578,93.241855,37.125197,-169.468660
45238,-5.799462,8.229349,-0.666812,-0.310613,-0.269375,0.268559,-0.282074,0.138799,0.047514,-0.058019,0.082270,-0.006744,0.999999,-0.001410,0.000694,0.000238,-0.169615,0.281451,-0.665282,-0.670385,93.135177,37.088261,-169.375623
45239,-5.977142,7.933497,-0.893353,0.052095,-0.464483,0.149551,-0.297719,0.130134,0.063469,-0.059802,0.079303,-0.009013,0.999999,-0.001489,0.000651,0.000317,-0.168537,0.281879,-0.664486,-0.671266,93.015926,37.042889,-169.289320
45240,-5.971211,7.879984,-0.944467,0.100367,-0.524131,0.104809,-0.193035,0.090589,0.095203,-0.059754,0.078762,-0.009494,0.999999,-0.000965,0.000453,0.000476,-0.167629,0.281979,-0.664050,-0.671882,92.938308,36.980375,-169.232552
45241,-6.004814,8.013440,-0.559314,0.000269,-0.155478,0.215356,-0.166759,0.059387,0.108509,-0.060093,0.080097,-0.005642,0.999999,-0.000834,0.000297,0.000543,-0.166820,0.281908,-0.663697,-0.672462,92.862680,36.911476,-169.198568
45242,-5.983571,7.886249,-0.664111,0.089972,-0.263263,0.104957,-0.202779,0.071049,0.095144,-0.059876,0.078827,-0.006700,0.999999,-0.001014,0.000355,0.000476,-0.165962,0.281950,-0.663210,-0.673137,92.771059,36.849673,-169.155656
45243,-5.976515,7.889342,-0.842442,0.124870,-0.451137,0.109561,-0.188995,0.034470,0.104971,-0.059808,0.078854,-0.008489,0.999999,-0.000945,0.000172,0.000525,-0.165215,0.281825,-0.662754,-0.673821,92.672032,36.783559,-169.139081
45244,-5.704679,7.971065,-0.647530,-0.154482,-0.314163,0.004540,-0.140497,0.054991,0.118414,-0.057096,0.079672,-0.006516,1.000000,-0.000702,0.000275,0.000592,-0.164420,0.281684,-0.662495,-0.674330,92.608792,36.708967,-169.108243
45245,-5.866475,7.961303,-0.589706,-0.015431,-0.239654,0.091248,-0.193920,0.072414,0.125103,-0.058717,0.079571,-0.005953,0.999999,-0.000970,0.000362,0.000626,-0.163472,0.281623,-0.662080,-0.674992,92.522864,36.630385,-169.065054
45246,-5.923546,7.733788,-0.571771,0.177261,-0.205808,-0.058048,-0.178110,0.072725,0.121455,-0.059284,0.077297,-0.005765,0.999999,-0.000891,0.000364,0.000607,-0.162555,0.281562,-0.661711,-0.675601,92.445602,36.553680,-169.021475
45247,-5.869337,7.600026,-0.304083,0.183927,0.051860,-0.207197,-0.175738,0.072822,0.114859,-0.058738,0.075964,-0.003086,0.999999,-0.000879,0.000364,0.000574,-0.161665,0.281522,-0.661342,-0.676193,92.370450,36.481081,-168.977439
45248,-5.930877,7.269039,-0.260248,0.433772,0.122654,-0.438321,-0.162106,0.096256,0.104378,-0.059348,0.072657,-0.002633,0.999999,-0.000811,0.000481,0.000522,-0.160749,0.281583,-0.661020,-0.676700,92.312605,36.413688,-168.916461
45249,-6.125351,7.551379,-0.550677,0.481428,-0.156140,-0.086931,-0.057296,0.064181,0.102464,-0.061294,0.075481,-0.005509,1.000000,-0.000286,0.000321,0.000512,-0.160096,0.281458,-0.661026,-0.676901,92.301779,36.348382,-168.878224
45250,-5.797817,8.223540,-0.092431,-0.239104,0.194588,0.244886,-0.036888,0.026730,0.109404,-0.058023,0.082203,-0.000932,1.000000,-0.000184,0.000134,0.000547,-0.159570,0.281166,-0.661079,-0.677096,92.286206,36.279747,-168.866821
45251,-5.727269,8.203254,0.093000,-0.302098,0.362340,0.181364,-0.182327,0.041169,0.097831,-0.057313,0.082005,0.000867,0.999999,-0.000912,0.000206,0.000489,-0.158833,0.281078,-0.660636,-0.677737,92.194215,36.217760,-168.844665
45252,-5.709818,8.014749,-0.264644,-0.131440,0.007714,0.030629,-0.280907,0.067863,0.080757,-0.057131,0.080121,-0.002740,0.999999,-0.001405,0.000339,0.000404,-0.157924,0.281214,-0.659852,-0.678656,92.056623,36.164680,-168.803094
45253,-5.634073,8.089636,-0.153870,-0.242269,0.079701,0.043457,-0.326901,0.067632,0.067484,-0.056369,0.080875,-0.001652,0.999999,-0.001635,0.000338,0.000337,-0.156998,0.281430,-0.658894,-0.679711,91.893327,36.119565,-168.761123
45254,-5.628408,7.580738,-0.003034,0.035355,0.243185,-0.374144,-0.481634,0.088516,0.043360,-0.056301,0.075795,-0.000188,0.999997,-0.002408,0.000443,0.000217,-0.155865,0.281915,-0.657388,-0.681228,91.649996,36.087744,-168.703735
45255,-6.136957,6.958086,-0.793168,0.953423,-0.425228,-0.559772,-0.400159,0.086578,0.032901,-0.061384,0.069555,-0.008044,0.999998,-0.002001,0.000433,0.000165,-0.154890,0.282362,-0.656142,-0.682465,91.453309,36.062326,-168.647442
45256,-5.931142,7.657900,-0.499167,0.339839,-0.249591,-0.122835,-0.178885,0.002975,0.066707,-0.059337,0.076555,-0.005059,1.000000,-0.000894,0.000015,0.000334,-0.154384,0.282242,-0.655630,-0.683121,91.347622,36.018632,-168.650845
45257,-5.803842,7.768209,-0.029623,0.099227,0.167364,-0.117707,-0.208336,-0.015264,0.068100,-0.058065,0.077662,-0.000382,0.999999,-0.001042,-0.000076,0.000341,-0.153893,0.282079,-0.655006,-0.683897,91.217999,35.974665,-168.666970
45258,-5.808539,7.464940,-0.121062,0.305479,0.090288,-0.358714,-0.234747,-0.012241,0.046820,-0.058103,0.074634,-0.001302,0.999999,-0.001174,-0.000061,0.000234,-0.153425,0.282014,-0.654261,-0.684742,91.074295,35.942525,-168.680617
45259,-5.682306,7.757522,-0.152319,0.049480,-0.006432,-0.195597,-0.244339,0.008328,0.025017,-0.056833,0.077566,-0.001616,0.999999,-0.001222,0.000042,0.000125,-0.152954,0.282099,-0.653471,-0.685567,90.934478,35.922999,-168.679242
45260,-5.646621,8.051559,0.222939,-0.212925,0.306649,0.016973,-0.318571,0.038189,0.003224,-0.056467,0.080518,0.002112,0.999999,-0.001593,0.000191,0.000016,-0.152352,0.282412,-0.652413,-0.686578,90.764075,35.915351,-168.656544
45261,-6.005585,7.899814,-0.023897,0.211256,0.111643,0.107874,-0.368896,0.031233,-0.018102,-0.060049,0.079003,-0.000375,0.999998,-0.001844,0.000156,-0.000091,-0.151778,0.282810,-0.651149,-0.687740,90.562693,35.920346,-168.638517
45262,-5.702582,8.665048,-0.035208,-0.464425,-0.057392,0.549971,-0.356609,0.027243,-0.025933,-0.057015,0.086657,-0.000499,0.999998,-0.001783,0.000136,-0.000130,-0.151257,0.283208,-0.649908,-0.688865,90.366091,35.929576,-168.623331
45263,-5.649055,8.796323,-0.201224,-0.545439,-0.280329,0.625289,-0.539681,0.050812,-0.043858,-0.056472,0.087970,-0.002235,0.999996,-0.002698,0.000254,-0.000219,-0.150464,0.283883,-0.648027,-0.690530,90.074941,35.949325,-168.591480
45264,-5.720056,7.942802,-0.276886,0.023541,-0.292147,-0.025057,-0.655941,0.053025,-0.055776,-0.057179,0.079434,-0.003014,0.999995,-0.003280,0.000265,-0.000279,-0.149536,0.284689,-0.645722,-0.692556,89.717475,35.975803,-168.558189
45265,-5.784353,6.925699,-0.523801,0.715122,-0.443877,-0.813250,-0.600186,0.060248,-0.053407,-0.057827,0.069256,-0.005428,0.999995,-0.003001,0.000301,-0.000267,-0.148657,0.285469,-0.643614,-0.694384,89.395428,36.001456,-168.519820
45266,-5.635035,6.969827,-0.329538,0.537142,-0.315602,-0.865480,-0.398258,0.026443,-0.023547,-0.056343,0.069698,-0.003427,0.999998,-0.001991,0.000132,-0.000118,-0.148067,0.285882,-0.642218,-0.695631,89.174528,36.009566,-168.505402
45267,-5.607830,7.402245,-0.449956,0.297206,-0.516631,-0.534315,-0.266458,0.029921,-0.016390,-0.056073,0.074021,-0.004590,0.999999,-0.001332,0.000150,-0.000082,-0.147632,0.286187,-0.641295,-0.696450,89.031217,36.013910,-168.488471
45268,-5.646188,8.120358,-0.227586,-0.126025,-0.407561,0.071109,-0.230619,-0.000016,-0.009233,-0.056458,0.081203,-0.002370,0.999999,-0.001153,-0.000000,-0.000046,-0.147317,0.286337,-0.640480,-0.697205,88.895426,36.013611,-168.492664
45269,-5.366014,8.166715,0.099443,-0.439229,-0.162196,-0.051544,-0.346177,0.027669,-0.022999,-0.053651,0.081675,0.000860,0.999998,-0.001731,0.000138,-0.000115,-0.146798,0.286712,-0.639266,-0.698273,88.705549,36.021824,-168.477416
45270,-5.631530,7.606976,-0.455054,0.213643,-0.608296,-0.359033,-0.370624,0.076802,-0.027396,-0.056307,0.076069,-0.004670,0.999998,-0.001853,0.000384,-0.000137,-0.146099,0.287290,-0.637990,-0.699349,88.521359,36.032972,-168.427512
45271,-5.736650,7.865449,-0.119383,0.080804,-0.321140,-0.082373,-0.268673,0.068511,-0.022055,-0.057358,0.078659,-0.001280,0.999999,-0.001343,0.000343,-0.000110,-0.145557,0.287747,-0.637074,-0.700109,88.392867,36.041361,-168.383317
45272,-5.918349,7.967240,0.008982,0.141322,-0.198255,0.109235,-0.254280,0.066467,-0.023691,-0.059174,0.079679,0.000008,0.999999,-0.001271,0.000332,-0.000118,-0.145044,0.288190,-0.636200,-0.700827,88.271054,36.050413,-168.340713
45273,-6.070344,7.828662,0.143222,0.313362,-0.037900,0.089731,-0.218625,0.035774,-0.020147,-0.060695,0.078294,0.001357,0.999999,-0.001093,0.000179,-0.000101,-0.144671,0.288491,-0.635435,-0.701474,88.157561,36.057364,-168.319572
45274,-5.912149,8.414591,0.563184,-0.236347,0.243509,0.481041,-0.117195,-0.036737,-0.015989,-0.059116,0.084154,0.005572,1.000000,-0.000586,-0.000184,-0.000080,-0.144656,0.288447,-0.634976,-0.701910,88.071354,36.060191,-168.349930
45275,-5.908089,8.600174,0.407067,-0.308949,0.045966,0.624583,-0.241136,0.010281,-0.032439,-0.059067,0.086016,0.003970,0.999999,-0.001206,0.000051,-0.000162,-0.144375,0.288711,-0.634097,-0.702654,87.934270,36.073580,-168.347411
45276,-5.624936,9.232140,0.792585,-0.975965,0.251451,0.980120,-0.309596,-0.054610,-0.035012,-0.056235,0.092343,0.007768,0.999999,-0.001548,-0.000273,-0.000175,-0.144206,0.288804,-0.632921,-0.703711,87.730044,36.086790,-168.390966
45277,-5.307849,9.172508,0.497754,-1.124134,-0.124276,0.736080,-0.688384,0.076728,-0.095167,-0.053033,0.091767,0.004682,0.999994,-0.003442,0.000384,-0.000476,-0.143288,0.289820,-0.630418,-0.705724,87.363140,36.137712,-168.343355
45278,-5.556240,8.221144,-0.180800,-0.228312,-0.652146,0.087509,-0.878228,0.088036,-0.119200,-0.055514,0.082236,-0.002145,0.999990,-0.004391,0.000440,-0.000596,-0.142138,0.291083,-0.627206,-0.708294,86.890819,36.202760,-168.289038
45279,-5.762477,6.937532,-0.227879,0.678344,-0.504324,-0.830891,-0.886788,0.107061,-0.119836,-0.057585,0.069399,-0.002556,0.999990,-0.004434,0.000535,-0.000599,-0.140919,0.292416,-0.623967,-0.710845,86.421947,36.269339,-168.221851
45280,-5.820829,5.971178,-0.434958,1.324953,-0.564769,-1.587625,-0.602677,0.049905,-0.078469,-0.058186,0.059721,-0.004515,0.999995,-0.003013,0.000250,-0.000392,-0.140141,0.293212,-0.621745,-0.712615,86.092028,36.310332,-168.193839
45281,-5.917292,6.319390,-0.061903,1.116932,-0.276650,-1.231967,-0.208096,-0.012236,-0.022480,-0.059166,0.063200,-0.000688,0.999999,-0.001040,-0.000061,-0.000112,-0.139938,0.293336,-0.620968,-0.713281,85.964412,36.317270,-168.207200
45282,-5.927478,7.198878,0.498116,0.494815,0.091996,-0.487793,0.024171,-0.075250,0.013647,-0.059282,0.071984,0.004968,1.000000,0.000121,-0.000376,0.000068,-0.140140,0.292958,-0.621024,-0.713348,85.943677,36.300675,-168.263594
45283,-5.805757,8.203899,0.883319,-0.257999,0.256476,0.269906,0.129495,-0.093405,0.035658,-0.058076,0.082023,0.008859,1.000000,0.000647,-0.000467,0.000178,-0.140476,0.292375,-0.621479,-0.713125,85.977050,36.271081,-168.331671
45284,-5.652982,9.109730,1.245595,-0.972092,0.416007,0.928675,0.047660,-0.059152,0.035322,-0.056550,0.091084,0.012461,1.000000,0.000238,-0.000296,0.000177,-0.140585,0.291972,-0.621661,-0.713110,85.977219,36.242763,-168.375546
45285,-5.597582,9.328591,1.004374,-1.075561,0.123674,1.058933,-0.216524,0.014669,0.007269,-0.055978,0.093295,0.009947,0.999999,-0.001083,0.000073,0.000036,-0.140181,0.292104,-0.620916,-0.713784,85.856854,36.233646,-168.368500
45286,-5.782909,8.906478,0.690899,-0.609652,-0.094230,0.811064,-0.379355,0.067951,-0.003951,-0.057825,0.089079,0.006760,0.999998,-0.001897,0.000340,-0.000020,-0.139411,0.292575,-0.619606,-0.714880,85.664463,36.233018,-168.324253
45287,-5.882603,8.246865,0.685083,-0.152773,0.011635,0.339237,-0.475265,0.076414,-0.014315,-0.058818,0.082489,0.006677,0.999997,-0.002376,0.000382,-0.000072,-0.138512,0.293174,-0.617943,-0.716247,85.420923,36.239043,-168.274506
45288,-5.964606,7.597098,0.337786,0.368796,-0.214598,-0.157410,-0.458380,0.073889,-0.016921,-0.059638,0.075984,0.003226,0.999997,-0.002292,0.000369,-0.000085,-0.137653,0.293758,-0.616329,-0.717563,85.185305,36.246385,-168.226800
45289,-6.026995,7.399092,0.222314,0.563454,-0.303700,-0.288461,-0.373801,0.033406,-0.020525,-0.060262,0.074001,0.002095,0.999998,-0.001869,0.000167,-0.000103,-0.137058,0.294150,-0.614985,-0.718669,84.981730,36.254234,-168.207850
45290,-5.798664,7.215748,0.319759,0.465703,-0.232587,-0.564836,-0.288757,0.008780,-0.012969,-0.057982,0.072166,0.003096,0.999999,-0.001444,0.000044,-0.000065,-0.136633,0.294369,-0.613936,-0.719556,84.816171,36.256275,-168.206030
45291,-5.851182,7.146366,0.087507,0.609302,-0.449509,-0.607189,-0.167420,-0.005581,-0.004640,-0.058510,0.071466,0.000814,1.000000,-0.000837,-0.000028,-0.000023,-0.136404,0.294430,-0.613331,-0.720091,84.715379,36.253114,-168.213705
45292,-5.681322,7.366963,0.402583,0.274695,-0.228147,-0.507628,-0.026889,-0.029650,0.012615,-0.056818,0.073667,0.004008,1.000000,-0.000134,-0.000148,0.000063,-0.136390,0.294253,-0.613235,-0.720247,84.684773,36.238530,-168.237400
45293,-5.586549,7.617865,0.584802,0.016608,-0.121879,-0.348636,0.034565,-0.028684,0.029794,-0.055878,0.076169,0.005853,1.000000,0.000173,-0.000143,0.000149,-0.136405,0.293987,-0.613390,-0.720221,84.691137,36.214468,-168.259191
45294,-5.577855,7.880725,0.624661,-0.143022,-0.136703,-0.139562,0.071868,-0.018299,0.041650,-0.055796,0.078793,0.006270,1.000000,0.000359,-0.000091,0.000208,-0.136397,0.293695,-0.613700,-0.720078,84.723000,36.183923,-168.272947
45295,-5.612093,8.128141,0.979215,-0.339583,0.163596,0.105933,0.041860,-0.009855,0.052213,-0.056143,0.081265,0.009806,1.000000,0.000209,-0.000049,0.000261,-0.136284,0.293422,-0.613927,-0.720016,84.742420,36.148099,-168.279942
45296,-5.719925,8.207681,0.861319,-0.262628,0.052544,0.224927,-0.031146,0.012436,0.049462,-0.057219,0.082064,0.008604,1.000000,-0.000156,0.000062,0.000247,-0.136002,0.293287,-0.613899,-0.720149,84.728371,36.114718,-168.271485
45297,-5.810346,8.326790,0.669662,-0.201585,-0.143510,0.359961,-0.045925,0.011953,0.059901,-0.058128,0.083252,0.006681,1.000000,-0.000230,0.000060,0.000300,-0.135666,0.293127,-0.613836,-0.720331,84.706674,36.075464,-168.262751
45298,-5.885463,8.474673,0.723351,-0.230232,-0.113606,0.527336,-0.081543,0.016246,0.057846,-0.058879,0.084733,0.007204,1.000000,-0.000408,0.000081,0.000289,-0.135268,0.293014,-0.613640,-0.720618,84.665663,36.037507,-168.251028
45299,-5.969681,8.163134,0.446173,0.089191,-0.306246,0.305176,-0.099964,0.014716,0.074160,-0.059727,0.081611,0.004425,1.000000,-0.000500,0.000074,0.000371,-0.134793,0.292856,-0.613407,-0.720971,84.614890,35.990164,-168.239461
45300,-6.043302,7.993336,0.191838,0.317418,-0.503382,0.192189,0.052835,-0.024984,0.110755,-0.060478,0.079899,0.001932,1.000000,0.000264,-0.000125,0.000554,-0.134528,0.292341,-0.613745,-0.720941,84.635877,35.919823,-168.253250
45301,-5.931404,8.241133,0.172004,0.109006,-0.579381,0.325350,0.285469,-0.086991,0.168945,-0.059384,0.082359,0.001812,0.999999,0.001427,-0.000435,0.000845,-0.134586,0.291267,-0.614968,-0.720322,84.767479,35.813231,-168.306940
45302,-5.748002,8.565921,0.822936,-0.365154,-0.024926,0.529349,0.371257,-0.182165,0.204808,-0.057575,0.085585,0.008336,0.999997,0.001856,-0.000911,0.001024,-0.134929,0.289681,-0.616482,-0.719603,84.909708,35.681160,-168.425556
45303,-5.492085,8.107486,1.273301,-0.410165,0.480059,0.042103,0.193411,-0.174371,0.165770,-0.054999,0.081017,0.012763,0.999999,0.000967,-0.000872,0.000829,-0.135133,0.288363,-0.617306,-0.719388,84.952727,35.572081,-168.541202
45304,-5.576915,7.324331,0.569843,0.278640,-0.020941,-0.593445,0.094893,-0.105363,0.125772,-0.055818,0.073206,0.005704,1.000000,0.000474,-0.000527,0.000629,-0.135124,0.287482,-0.617760,-0.719353,84.965424,35.489189,-168.610863
45305,-5.580888,7.378386,0.042704,0.392886,-0.531064,-0.584887,0.229179,-0.073878,0.122196,-0.055854,0.073749,0.000491,0.999999,0.001146,-0.000369,0.000611,-0.135225,0.286632,-0.618717,-0.718850,85.068621,35.410013,-168.658869
45306,-5.539619,8.098497,0.203886,-0.064841,-0.505520,-0.011933,0.305243,-0.092917,0.154036,-0.055460,0.080939,0.002137,0.999998,0.001526,-0.000465,0.000770,-0.135377,0.285565,-0.619974,-0.718163,85.207925,35.311768,-168.718305
45307,-5.515730,8.255807,0.663028,-0.268840,-0.075425,0.134334,0.240701,-0.101817,0.154961,-0.055225,0.082507,0.006701,0.999999,0.001204,-0.000509,0.000775,-0.135463,0.284506,-0.620996,-0.717684,85.307259,35.212777,-168.784138
45308,-5.507016,7.887975,0.378471,0.007930,-0.265291,-0.188751,0.215768,-0.091310,0.159976,-0.055135,0.078832,0.003845,0.999999,0.001079,-0.000457,0.000800,-0.135460,0.283485,-0.621937,-0.717273,85.396133,35.111395,-168.842416
45309,-5.666635,7.617366,0.414031,0.289650,-0.138624,-0.315146,0.242731,-0.108019,0.166903,-0.056732,0.076121,0.004202,0.999999,0.001214,-0.000540,0.000835,-0.135525,0.282364,-0.622977,-0.716801,85.494671,35.005457,-168.912180
45310,-5.564908,7.375608,0.511350,0.330820,0.002620,-0.564997,0.307757,-0.114777,0.165562,-0.055713,0.073702,0.005195,0.999998,0.001539,-0.000574,0.000828,-0.135704,0.281178,-0.624237,-0.716137,85.627055,34.900018,-168.986814
45311,-5.559608,7.561164,0.373210,0.271030,-0.141916,-0.425140,0.433072,-0.128982,0.189891,-0.055670,0.075551,0.003860,0.999997,0.002165,-0.000645,0.000949,-0.136019,0.279778,-0.625972,-0.715109,85.827185,34.780424,-169.070354
45312,-5.406034,8.074998,0.283295,-0.097618,-0.312260,-0.096522,0.516648,-0.160505,0.218074,-0.054151,0.080683,0.002998,0.999996,0.002583,-0.000803,0.001090,-0.136445,0.278119,-0.628015,-0.713883,86.062518,34.643533,-169.174832
45313,-5.352793,8.439586,0.434102,-0.356409,-0.197173,0.182379,0.563066,-0.172068,0.243553,-0.053634,0.084318,0.004532,0.999995,0.002815,-0.000860,0.001218,-0.136882,0.276305,-0.630249,-0.712534,86.321167,34.492211,-169.286672
45314,-5.275742,8.791343,0.531690,-0.611864,-0.129815,0.434870,0.529337,-0.154118,0.263397,-0.052877,0.087829,0.005509,0.999995,0.002647,-0.000771,0.001317,-0.137142,0.274513,-0.632392,-0.711277,86.567225,34.330382,-169.385836
45315,-5.361694,8.796873,0.469020,-0.508992,-0.139255,0.486541,0.416888,-0.129947,0.274600,-0.053741,0.087885,0.004839,0.999997,0.002084,-0.000650,0.001373,-0.137133,0.272843,-0.634167,-0.710340,86.759252,34.163242,-169.468603
45316,-5.438705,8.665540,0.474193,-0.352037,-0.068611,0.422897,0.366274,-0.109762,0.279225,-0.054511,0.086571,0.004871,0.999997,0.001831,-0.000549,0.001396,-0.136970,0.271266,-0.635774,-0.709539,86.929317,33.994333,-169.537498
45317,-5.488278,8.713373,0.644911,-0.347990,0.127062,0.498598,0.294608,-0.088171,0.275989,-0.055006,0.087048,0.006553,0.999998,0.001473,-0.000441,0.001380,-0.136654,0.269823,-0.637136,-0.708928,87.066937,33.828197,-169.592006
45318,-5.541538,8.568202,0.714783,-0.215468,0.246811,0.411120,0.170267,-0.051106,0.254850,-0.055526,0.085605,0.007207,0.999999,0.000851,-0.000256,0.001274,-0.136124,0.268663,-0.638049,-0.708649,87.146612,33.675195,-169.622047
45319,-5.544922,8.528332,0.716700,-0.167513,0.267077,0.380096,0.043494,-0.025352,0.225717,-0.055546,0.085219,0.007178,0.999999,0.000217,-0.000127,0.001129,-0.135449,0.267770,-0.638497,-0.708713,87.163886,33.539500,-169.635846
45320,-5.461667,8.424197,0.736037,-0.162047,0.290175,0.248533,-0.102831,0.013494,0.189378,-0.054696,0.084194,0.007321,0.999999,-0.000514,0.000067,0.000947,-0.134579,0.267232,-0.638397,-0.709172,87.110415,33.425826,-169.623815
45321,-5.378922,8.228348,0.635027,-0.084891,0.200600,0.035880,-0.213758,0.062100,0.166389,-0.053856,0.082245,0.006279,0.999999,-0.001069,0.000310,0.000832,-0.133491,0.267008,-0.637911,-0.709899,87.012108,33.326444,-169.579665
45322,-5.466784,8.204051,0.313260,0.085560,-0.109001,0.049923,-0.250600,0.080711,0.140971,-0.054724,0.082006,0.003052,0.999999,-0.001253,0.000404,0.000705,-0.132380,0.266962,-0.637264,-0.710705,86.898440,33.242544,-169.522987
45323,-5.471322,8.155994,0.218926,0.151800,-0.206479,0.007589,-0.236561,0.052403,0.133959,-0.054767,0.081526,0.002107,0.999999,-0.001183,0.000262,0.000670,-0.131405,0.266823,-0.636642,-0.711495,86.782488,33.161600,-169.486226
45324,-5.310603,7.899718,0.407772,0.131210,-0.019913,-0.286057,-0.212947,0.035698,0.139561,-0.053160,0.078964,0.004003,0.999999,-0.001065,0.000178,0.000698,-0.130493,0.266595,-0.636095,-0.712237,86.673588,33.077223,-169.460056
45325,-5.255396,7.597522,0.345028,0.274102,-0.051618,-0.572409,-0.155451,0.040329,0.147532,-0.052609,0.075939,0.003402,0.999999,-0.000777,0.000202,0.000738,-0.129617,0.266316,-0.635773,-0.712789,86.600585,32.988323,-169.430684
45326,-5.285779,7.532939,0.409117,0.334547,0.021492,-0.607276,-0.083273,0.036022,0.146206,-0.052912,0.075292,0.004069,1.000000,-0.000416,0.000180,0.000731,-0.128852,0.265983,-0.635696,-0.713121,86.566293,32.900212,-169.403821
45327,-5.276310,7.697858,0.641496,0.204797,0.220190,-0.462953,-0.049634,0.041743,0.139933,-0.052816,0.076943,0.006407,1.000000,-0.000248,0.000209,0.000700,-0.128139,0.265665,-0.635738,-0.713330,86.553826,32.815748,-169.373662
45328,-5.409889,7.867336,0.692585,0.228972,0.263534,-0.246096,-0.073871,0.040354,0.120384,-0.054145,0.078643,0.006908,1.000000,-0.000369,0.000202,0.000602,-0.127465,0.265423,-0.635662,-0.713609,86.525892,32.742572,-169.344884
45329,-5.354014,7.961669,0.550069,0.176368,0.099009,-0.204602,-0.075817,0.034667,0.099011,-0.053579,0.079592,0.005480,1.000000,-0.000379,0.000173,0.000495,-0.126884,0.265228,-0.635548,-0.713886,86.494466,32.681391,-169.321026
45330,-5.223864,8.078163,0.503590,0.028049,0.012355,-0.179509,-0.100019,0.082800,0.075998,-0.052267,0.080764,0.005017,1.000000,-0.000500,0.000414,0.000380,-0.126198,0.265295,-0.635346,-0.714162,86.466085,32.635116,-169.265220
45331,-5.439290,8.308771,0.589747,0.076378,0.090694,0.134940,-0.102115,0.088783,0.074316,-0.054421,0.083070,0.005879,1.000000,-0.000511,0.000444,0.000372,-0.125499,0.265394,-0.635141,-0.714432,86.439430,32.590514,-169.205044
45332,-5.342213,8.612037,0.432090,-0.117136,-0.130680,0.329419,-0.109613,0.065834,0.074731,-0.053453,0.086103,0.004291,1.000000,-0.000548,0.000329,0.000374,-0.124859,0.265410,-0.634891,-0.714759,86.399252,32.544407,-169.160801
45333,-5.062689,8.755646,0.452985,-0.416883,-0.184903,0.301133,-0.167741,0.066076,0.086861,-0.050663,0.087538,0.004473,0.999999,-0.000839,0.000330,0.000434,-0.124101,0.265426,-0.634454,-0.715274,86.326979,32.491708,-169.115702
45334,-5.190721,8.507696,0.595638,-0.203252,0.002335,0.169192,-0.258461,0.083397,0.084311,-0.051941,0.085063,0.005868,0.999999,-0.001292,0.000417,0.000422,-0.123173,0.265567,-0.633694,-0.716055,86.208118,32.440878,-169.059039
45335,-5.239722,8.108508,0.576732,0.057598,0.041994,-0.141591,-0.293186,0.103503,0.071863,-0.052423,0.081075,0.005676,0.999999,-0.001466,0.000518,0.000359,-0.122184,0.265840,-0.632811,-0.716904,86.077427,32.398256,-168.989230
45336,-5.319670,7.844003,0.795196,0.218981,0.295432,-0.308775,-0.302333,0.122159,0.054900,-0.053213,0.078437,0.007866,0.999999,-0.001512,0.000611,0.000275,-0.121180,0.266238,-0.631875,-0.717751,85.946782,32.365994,-168.907505
45337,-5.314978,7.566898,0.829431,0.355249,0.358971,-0.542315,-0.308016,0.112157,0.025371,-0.053155,0.075675,0.008208,0.999999,-0.001540,0.000561,0.000127,-0.120308,0.266696,-0.630877,-0.718605,85.809300,32.350516,-168.833944
45338,-5.299833,7.378112,0.653472,0.484059,0.203127,-0.720041,-0.259952,0.097996,0.009592,-0.052999,0.073787,0.006465,0.999999,-0.001300,0.000490,0.000048,-0.119599,0.267123,-0.630016,-0.719320,85.693010,32.343431,-168.770697
45339,-5.166518,7.229344,0.704330,0.440043,0.244964,-0.913319,-0.185726,0.072490,-0.005325,-0.051661,0.072301,0.006995,1.000000,-0.000929,0.000362,-0.000027,-0.119125,0.267461,-0.629389,-0.719822,85.610040,32.343966,-168.725477
45340,-5.184376,7.403503,0.451880,0.426519,-0.034415,-0.773290,-0.070195,0.063051,-0.011970,-0.051838,0.074040,0.004509,1.000000,-0.000351,0.000315,-0.000060,-0.118857,0.267717,-0.629159,-0.719971,85.589240,32.347804,-168.686960
45341,-4.964852,7.661244,0.336767,0.140758,-0.229651,-0.681134,-0.017073,0.048338,-0.007647,-0.049645,0.076615,0.003373,1.000000,-0.000085,0.000242,-0.000038,-0.118694,0.267876,-0.629123,-0.719972,85.594418,32.348739,-168.658188
45342,-4.678542,7.718023,0.092967,-0.069443,-0.514339,-0.801812,0.171664,0.125499,0.000194,-0.046785,0.077179,0.001025,0.999999,0.000858,0.000627,0.000001,-0.118509,0.268174,-0.629817,-0.719284,85.735129,32.348295,-168.576810
45343,-4.908675,8.437366,1.013898,-0.464268,0.310942,-0.014732,0.254451,0.085300,0.045949,-0.049102,0.084349,0.010267,0.999999,0.001272,0.000427,0.000230,-0.118401,0.268138,-0.630850,-0.718409,85.910842,32.320241,-168.520167
45344,-5.123420,8.340228,0.968729,-0.224549,0.334623,0.015074,-0.035118,0.097108,0.042859,-0.051247,0.083393,0.009698,1.000000,-0.000176,0.000486,0.000214,-0.117874,0.268321,-0.630841,-0.718435,85.923844,32.293953,-168.455967
45345,-5.449357,7.508833,0.792604,0.511933,0.368329,-0.522448,-0.036607,0.104009,0.019904,-0.054497,0.075084,0.007941,1.000000,-0.000183,0.000520,0.000100,-0.117411,0.268597,-0.630806,-0.718438,85.938614,32.280754,-168.388949
45346,-5.743690,7.087747,1.185205,0.875866,0.876647,-0.697031,0.022521,0.049228,-0.014241,-0.057429,0.070880,0.011874,1.000000,0.000113,0.000246,-0.000071,-0.117319,0.268755,-0.630899,-0.718313,85.965852,32.285131,-168.359885
45347,-5.516178,6.964510,1.076730,0.772341,0.761174,-0.929216,0.139077,0.025649,-0.048587,-0.055143,0.069651,0.010823,1.000000,0.000695,0.000128,-0.000243,-0.117583,0.268871,-0.631353,-0.717827,86.051222,32.308567,-168.348189
45348,-5.289672,7.371480,1.485865,0.273854,1.055187,-0.683683,0.101849,-0.007068,-0.099380,-0.052861,0.073733,0.014894,1.000000,0.000509,-0.000035,-0.000497,-0.118080,0.269049,-0.631583,-0.717477,86.101465,32.359350,-168.361133
45349,-5.274382,6.818418,1.011834,0.645285,0.694614,-1.185125,0.110443,0.023603,-0.125412,-0.052700,0.068212,0.010162,1.000000,0.000552,0.000118,-0.000627,-0.118588,0.269415,-0.631828,-0.717040,86.167544,32.426490,-168.354404
45350,-5.068843,7.106825,0.782562,0.371375,0.397230,-1.065299,0.227067,0.013821,-0.101039,-0.050652,0.071085,0.007910,0.999999,0.001135,0.000069,-0.000505,-0.119194,0.269599,-0.632516,-0.716263,86.297143,32.479038,-168.353121
45351,-4.991518,7.162384,0.581609,0.315638,0.196399,-1.071119,0.263348,0.056254,-0.082581,-0.049884,0.071637,0.005924,0.999999,0.001317,0.000281,-0.000413,-0.119652,0.269852,-0.633387,-0.715321,86.464082,32.522709,-168.322401
45352,-5.206131,7.318738,0.098056,0.514923,-0.240513,-0.848633,0.329248,0.070293,-0.070370,-0.052035,0.073204,0.001119,0.999999,0.001646,0.000351,-0.000352,-0.120106,0.270079,-0.634512,-0.714161,86.673705,32.559645,-168.281192
45353,-5.066066,7.303602,-1.291960,0.718430,-1.582691,-1.000445,0.481332,0.022008,-0.045175,-0.050646,0.073078,-0.012738,0.999997,0.002407,0.000110,-0.000226,-0.120832,0.269962,-0.636186,-0.712592,86.953993,32.580876,-168.271563
45354,-4.679493,7.183211,-1.304830,0.448064,-1.595686,-1.300846,0.882849,-0.006782,0.012313,-0.046799,0.071886,-0.012733,0.999990,0.004414,-0.000034,0.000062,-0.121982,0.269313,-0.639340,-0.709814,87.454391,32.567954,-168.279454
45355,-4.656013,7.920582,0.406202,-0.353693,0.028216,-0.622883,1.159505,-0.029676,0.096648,-0.046599,0.079158,0.004514,0.999983,0.005797,-0.000148,0.000483,-0.123278,0.268139,-0.643561,-0.706211,88.106692,32.506797,-168.300629
45356,-5.234489,8.217305,0.314289,-0.014393,0.076731,-0.065061,0.884363,-0.039450,0.122976,-0.052396,0.082126,0.003496,0.999990,0.004422,-0.000197,0.000615,-0.124137,0.267006,-0.646819,-0.703507,88.597066,32.430093,-168.328830
45357,-5.905869,8.242409,0.528239,0.479360,0.469892,0.318679,0.932157,-0.058987,0.088280,-0.059097,0.082372,0.005649,0.999989,0.004661,-0.000295,0.000441,-0.125249,0.265881,-0.650180,-0.700632,89.108152,32.373603,-168.371662
45358,-5.906029,8.170606,0.260694,0.566755,0.286702,0.252310,0.908186,-0.136284,0.014859,-0.059068,0.081689,0.002938,0.999989,0.004541,-0.000681,0.000074,-0.126828,0.264733,-0.653291,-0.697884,89.575786,32.358627,-168.467921
45359,-5.486665,7.978206,-0.056308,0.372949,-0.009672,-0.137000,0.924634,-0.205249,-0.023196,-0.054857,0.079790,-0.000251,0.999989,0.004623,-0.001026,-0.000116,-0.128789,0.263455,-0.656354,-0.695129,90.028333,32.366466,-168.611046
45360,-5.016316,8.433965,-0.240883,-0.235558,-0.248471,-0.002719,1.053875,-0.191385,-0.023779,-0.050151,0.084357,-0.002012,0.999986,0.005269,-0.000957,-0.000119,-0.130869,0.262135,-0.659854,-0.691918,90.559340,32.375142,-168.744835
45361,-5.342404,9.476512,0.247991,-0.624857,0.268156,1.047518,1.038715,-0.182434,-0.015584,-0.053419,0.094755,0.002923,0.999986,0.005194,-0.000912,-0.000078,-0.132872,0.260823,-0.663304,-0.688726,91.085751,32.380611,-168.872445
45362,-5.427196,9.893421,0.638050,-0.859126,0.700556,1.435078,0.686587,-0.226533,-0.040833,-0.054259,0.098923,0.006659,0.999993,0.003433,-0.001133,-0.000204,-0.134642,0.259670,-0.665462,-0.686734,91.393723,32.401356,-169.029670
45363,-5.450202,9.722298,0.075358,-0.661415,0.205610,1.311773,0.439390,-0.205264,-0.090863,-0.054459,0.097246,0.000911,0.999997,0.002197,-0.001026,-0.000454,-0.136195,0.258922,-0.666716,-0.685493,91.568742,32.451400,-169.171505
45364,-5.122891,9.440393,0.188521,-0.816027,0.302960,0.894454,0.182134,-0.183802,-0.129147,-0.051170,0.094435,0.001924,0.999999,0.000911,-0.000919,-0.000646,-0.137470,0.258547,-0.667049,-0.685056,91.603929,32.522850,-169.298070
45365,-5.024509,8.793999,0.144796,-0.558117,0.288879,0.297016,-0.011073,-0.124546,-0.145937,-0.050182,0.087977,0.001412,1.000000,-0.000055,-0.000623,-0.000730,-0.138359,0.258561,-0.666743,-0.685170,91.550820,32.603063,-169.384535
45366,-4.836341,8.749543,-0.031482,-0.672239,0.081462,0.161636,-0.006594,-0.050467,-0.136776,-0.048303,0.087528,-0.000330,1.000000,-0.000033,-0.000252,-0.000684,-0.138971,0.258798,-0.666509,-0.685183,91.526424,32.676743,-169.420558
45367,-5.179752,8.633149,0.179971,-0.372661,0.341941,0.244035,-0.122381,-0.009289,-0.129744,-0.051742,0.086366,0.001744,1.000000,-0.000612,-0.000046,-0.000649,-0.139276,0.259233,-0.665920,-0.685530,91.451356,32.746096,-169.428759
45368,-5.304613,7.968038,-0.607355,0.212692,-0.383523,-0.231192,-0.233706,-0.054553,-0.124832,-0.052995,0.079706,-0.006181,0.999999,-0.001169,-0.000273,-0.000624,-0.139566,0.259574,-0.664920,-0.686312,91.294980,32.812903,-169.468070
45369,-5.021441,7.264717,-0.681344,0.361935,-0.460767,-0.974593,-0.025376,-0.057563,-0.099117,-0.050176,0.072671,-0.006837,1.000000,-0.000127,-0.000288,-0.000496,-0.140054,0.259670,-0.664672,-0.686416,91.257647,32.865127,-169.510370
45370,-4.923233,8.033911,-0.496558,-0.172219,-0.347272,-0.385163,0.242033,0.009024,-0.065357,-0.049206,0.080361,-0.004866,0.999999,0.001210,0.000045,-0.000327,-0.140547,0.259697,-0.665425,-0.685575,91.396764,32.896996,-169.507365
45371,-5.736473,7.738222,-0.159968,0.593271,0.146536,-0.198150,0.201884,-0.021437,-0.057824,-0.057342,0.077400,-0.001528,0.999999,0.001009,-0.000107,-0.000289,-0.141066,0.259625,-0.666031,-0.684907,91.502303,32.925395,-169.525070
45372,-6.023171,8.103996,-0.076387,0.608670,0.265515,0.262933,0.380379,-0.038499,-0.090810,-0.060195,0.081069,-0.000621,0.999998,0.001902,-0.000192,-0.000454,-0.141982,0.259476,-0.667189,-0.683646,91.703413,32.972592,-169.553830
45373,-5.859426,8.118246,-0.372925,0.499780,-0.028432,0.193671,0.333058,-0.031557,-0.134389,-0.058539,0.081228,-0.003603,0.999998,0.001665,-0.000158,-0.000672,-0.142967,0.259531,-0.668135,-0.682495,91.881495,33.045171,-169.576679
45374,-5.247438,8.457472,0.414079,-0.332428,0.661092,0.121507,0.522638,-0.127989,-0.103885,-0.052433,0.084591,0.004328,0.999996,0.002613,-0.000640,-0.000519,-0.144411,0.259016,-0.669691,-0.680860,92.131057,33.101818,-169.665920
45375,-5.608960,8.821564,0.048488,-0.189100,0.359207,0.633266,0.276491,-0.058920,-0.135400,-0.056030,0.088253,0.000590,0.999999,0.001382,-0.000295,-0.000677,-0.145417,0.259016,-0.670420,-0.679928,92.266737,33.175446,-169.707251
45376,-5.626640,8.640141,0.346691,-0.139222,0.685181,0.480145,0.302060,-0.082439,-0.154658,-0.056201,0.086440,0.003574,0.999998,0.001510,-0.000412,-0.000773,-0.146594,0.258983,-0.671187,-0.678930,92.407714,33.260526,-169.763658
45377,-5.526776,8.700162,0.229236,-0.253606,0.566187,0.478362,0.226778,-0.089151,-0.167242,-0.055196,0.087045,0.002366,0.999999,0.001134,-0.000446,-0.000836,-0.147744,0.259025,-0.671680,-0.678177,92.504110,33.353480,-169.824218
45378,-5.478354,8.353014,0.412335,-0.148090,0.765410,0.154630,0.077830,-0.029479,-0.171328,-0.054713,0.083575,0.004148,1.000000,0.000389,-0.000147,-0.000857,-0.148509,0.259392,-0.671701,-0.677849,92.536845,33.446918,-169.843602
45379,-4.856685,8.870091,0.085701,-0.909554,0.324954,0.254107,0.016938,0.039118,-0.166276,-0.048493,0.088741,0.000874,1.000000,0.000085,0.000196,-0.000831,-0.148953,0.260020,-0.671577,-0.677633,92.561526,33.536115,-169.816149
45380,-5.025022,8.566149,0.068119,-0.616471,0.344441,0.093658,-0.134506,0.107273,-0.165634,-0.050179,0.085704,0.000650,0.999999,-0.000673,0.000536,-0.000828,-0.148963,0.260988,-0.670987,-0.677843,92.524421,33.622824,-169.741748
45381,-5.531742,7.983537,0.040594,0.111013,0.414239,-0.109351,-0.213172,0.140442,-0.158208,-0.055254,0.079879,0.000360,0.999999,-0.001066,0.000702,-0.000791,-0.148738,0.262103,-0.670166,-0.678274,92.455483,33.704829,-169.644863
45382,-5.565578,7.614637,-0.340626,0.389792,0.057656,-0.382994,-0.065388,0.109819,-0.143906,-0.055603,0.076185,-0.003401,1.000000,-0.000327,0.000549,-0.000720,-0.148757,0.262955,-0.669838,-0.678264,92.458765,33.779130,-169.569366
45383,-5.937527,8.033377,-0.279697,0.439369,0.152429,0.169863,0.076124,0.063261,-0.130335,-0.059324,0.080373,-0.002748,1.000000,0.000381,0.000316,-0.000652,-0.149074,0.263501,-0.669975,-0.677848,92.525675,33.847142,-169.526144
45384,-5.964059,8.672070,0.183967,0.019853,0.583164,0.697695,0.094903,-0.012930,-0.132522,-0.059583,0.086759,0.001877,1.000000,0.000475,-0.000065,-0.000663,-0.149676,0.263779,-0.670114,-0.677470,92.573724,33.917955,-169.535361
45385,-6.079313,8.406185,0.013567,0.274639,0.443748,0.548288,-0.057512,-0.079855,-0.160689,-0.060726,0.084111,0.000087,1.000000,-0.000288,-0.000399,-0.000803,-0.150399,0.264044,-0.669649,-0.677666,92.509581,34.007157,-169.589538
45386,-5.690577,8.046690,-0.329169,0.197100,0.055226,0.046233,-0.077147,-0.067054,-0.184705,-0.056830,0.080518,-0.003342,0.999999,-0.000386,-0.000335,-0.000924,-0.151132,0.264443,-0.669094,-0.677896,92.438885,34.109169,-169.634725
45387,-5.565332,8.035543,-0.300720,0.080388,0.054964,-0.033946,-0.015682,-0.054775,-0.196309,-0.055574,0.080410,-0.003029,0.999999,-0.000078,-0.000274,-0.000982,-0.151945,0.264878,-0.668740,-0.677893,92.408403,34.217905,-169.670941
45388,-5.544361,8.251671,-0.175732,-0.095114,0.153582,0.128551,-0.050215,-0.043279,-0.207202,-0.055358,0.082574,-0.001790,0.999999,-0.000251,-0.000216,-0.001036,-0.152710,0.265412,-0.668264,-0.677982,92.362465,34.332171,-169.699316
45389,-5.592917,8.278282,-0.414014,-0.052368,-0.089090,0.185880,-0.112530,-0.054418,-0.225417,-0.055835,0.082843,-0.004202,0.999999,-0.000563,-0.000272,-0.001127,-0.153492,0.266021,-0.667542,-0.678277,92.276986,34.457662,-169.734686
45390,-5.387701,8.164522,-0.593210,-0.145279,-0.306473,-0.018631,-0.155488,-0.044230,-0.220952,-0.053785,0.081700,-0.006008,0.999999,-0.000777,-0.000221,-0.001105,-0.154167,0.266677,-0.666688,-0.678707,92.170198,34.579755,-169.763825
45391,-5.250251,7.718020,-0.410861,-0.049444,-0.136486,-0.470276,-0.164794,-0.041784,-0.203103,-0.052423,0.077230,-0.004183,0.999999,-0.000824,-0.000209,-0.001016,-0.154762,0.267290,-0.665827,-0.679176,92.058829,34.691830,-169.791974
45392,-5.322942,7.417196,-0.283098,0.144984,0.004419,-0.679912,-0.108706,-0.039082,-0.185678,-0.053160,0.074220,-0.002882,0.999999,-0.000544,-0.000195,-0.000928,-0.155361,0.267809,-0.665180,-0.679468,91.979955,34.793534,-169.819000
45393,-5.344416,6.900208,-0.275657,0.441308,0.038973,-1.091715,-0.030543,-0.063752,-0.160661,-0.053388,0.069045,-0.002784,1.000000,-0.000153,-0.000319,-0.000803,-0.156065,0.268102,-0.664814,-0.679549,91.935994,34.881828,-169.863835
45394,-5.404487,6.649536,-1.010055,0.735755,-0.661666,-1.241464,0.186468,-0.085858,-0.110465,-0.054004,0.066535,-0.010062,0.999999,0.000932,-0.000429,-0.000552,-0.156960,0.267982,-0.665233,-0.678980,92.006358,34.941367,-169.925492
45395,-5.068495,7.852806,-0.731908,-0.274434,-0.498099,-0.454888,0.412612,-0.087779,-0.037516,-0.050667,0.078552,-0.007179,0.999998,0.002063,-0.000439,-0.000188,-0.157918,0.267436,-0.666516,-0.677714,92.204940,34.959736,-169.990021
45396,-5.350297,8.362296,-0.266775,-0.413833,-0.008183,0.109686,0.291762,-0.130090,0.005672,-0.053504,0.083625,-0.002581,0.999999,0.001459,-0.000650,0.000028,-0.158707,0.266695,-0.667410,-0.676942,92.316245,34.954039,-170.085445
45397,-5.577973,8.026169,-0.524170,-0.001483,-0.195921,-0.026497,0.252577,-0.128089,0.005826,-0.055779,0.080267,-0.005176,0.999999,0.001263,-0.000640,0.000029,-0.159438,0.265990,-0.668173,-0.676293,92.406224,34.948511,-170.179706
45398,-5.489718,7.670707,-0.804858,0.168806,-0.451855,-0.357961,0.303729,-0.131873,0.000588,-0.054892,0.076719,-0.007968,0.999999,0.001519,-0.000659,0.000003,-0.160265,0.265249,-0.669096,-0.675476,92.523765,34.946047,-170.276235
45399,-5.383978,7.678021,-0.708238,0.061850,-0.351391,-0.415162,0.390161,-0.091466,0.017168,-0.053843,0.076789,-0.006957,0.999998,0.001951,-0.000457,0.000086,-0.161022,0.264517,-0.670369,-0.674320,92.707625,34.933587,-170.345613
45400,-5.564800,7.641259,-0.973779,0.262880,-0.562752,-0.330165,0.415400,-0.110404,0.020083,-0.055650,0.076427,-0.009610,0.999998,0.002077,-0.000552,0.000100,-0.161858,0.263692,-0.671707,-0.673111,92.897381,34.919832,-170.427815
45401,-5.486646,7.859672,-0.854114,0.053673,-0.435670,-0.199444,0.508133,-0.104701,0.017715,-0.054869,0.078613,-0.008370,0.999997,0.002541,-0.000524,0.000089,-0.162807,0.262814,-0.673357,-0.671575,93.142923,34.907508,-170.506464
45402,-5.714403,7.645982,-0.937580,0.364656,-0.445936,-0.238630,0.508600,-0.090431,-0.014770,-0.057134,0.076488,-0.009207,0.999997,0.002543,-0.000452,-0.000074,-0.163814,0.262094,-0.674971,-0.669990,93.394798,34.913586,-170.573462
45403,-5.742441,7.501175,-1.548095,0.538583,-1.010714,-0.308575,0.453102,-0.050665,-0.066069,-0.057396,0.075066,-0.015325,0.999997,0.002266,-0.000253,-0.000330,-0.164788,0.261726,-0.676362,-0.668490,93.632578,34.948190,-170.610497
45404,-5.597957,7.219247,-1.630531,0.579553,-1.076111,-0.613811,0.404594,-0.048060,-0.092773,-0.055942,0.072251,-0.016173,0.999998,0.002023,-0.000240,-0.000464,-0.165775,0.261495,-0.677553,-0.667129,93.843794,34.997732,-170.644364
45405,-5.865648,6.802945,-1.094470,0.953440,-0.472129,-0.826492,0.477328,-0.054149,-0.103756,-0.058618,0.068086,-0.010798,0.999997,0.002387,-0.000271,-0.000519,-0.166919,0.261220,-0.678968,-0.665511,94.095638,35.054496,-170.681726
45406,-5.514727,6.774659,-0.840887,0.639761,-0.233327,-1.063320,0.686301,-0.092545,-0.095156,-0.055111,0.067801,-0.008202,0.999994,0.003432,-0.000463,-0.000476,-0.168430,0.260610,-0.681046,-0.663241,94.450728,35.107556,-170.746006
45407,-5.541483,7.654030,-0.179474,0.062112,0.461202,-0.373008,0.870198,-0.117502,-0.042278,-0.055398,0.076559,-0.001494,0.999990,0.004351,-0.000588,-0.000211,-0.170091,0.259582,-0.683774,-0.660409,94.900158,35.132410,-170.830004
45408,-5.727870,8.207879,0.356412,-0.174723,1.072513,0.143400,0.876465,-0.184697,-0.002251,-0.057281,0.082063,0.003871,0.999990,0.004382,-0.000923,-0.000011,-0.171851,0.258181,-0.686501,-0.657667,95.324334,35.137920,-170.963475
45409,-5.532307,8.839670,0.116583,-0.677523,0.873887,0.557302,0.897065,-0.228709,0.024817,-0.055336,0.088384,0.001499,0.999989,0.004485,-0.001144,0.000124,-0.173698,0.256525,-0.689280,-0.654918,95.742046,35.131751,-171.128947
45410,-5.659010,9.979602,0.256179,-1.251632,1.104195,1.540565,0.742508,-0.212991,0.038128,-0.056612,0.099775,0.002872,0.999993,0.003713,-0.001065,0.000191,-0.175245,0.254998,-0.691571,-0.652683,96.076542,35.117436,-171.284922
45411,-5.960144,10.318341,0.316354,-1.209184,1.248802,1.980102,0.349115,-0.242712,0.009056,-0.059610,0.103175,0.003271,0.999998,0.001746,-0.001214,0.000045,-0.176490,0.253816,-0.692512,-0.651810,96.175643,35.122234,-171.459828
45412,-5.950213,10.119428,-0.159724,-1.062481,0.776494,1.853569,0.024096,-0.188520,-0.064743,-0.059468,0.101214,-0.001641,0.999999,0.000120,-0.000943,-0.000324,-0.177371,0.253353,-0.692342,-0.651931,96.112670,35.165544,-171.591147
45413,-6.061538,9.886601,-0.504070,-0.815931,0.417514,1.758873,-0.316301,-0.137425,-0.131425,-0.060547,0.098898,-0.005239,0.999998,-0.001582,-0.000687,-0.000657,-0.177865,0.253591,-0.691025,-0.653101,95.878550,35.244006,-171.682193
45414,-5.726065,9.144795,-0.821984,-0.638223,-0.006398,0.989302,-0.667176,-0.100993,-0.191460,-0.057169,0.091475,-0.008554,0.999994,-0.003336,-0.000505,-0.000957,-0.177979,0.254464,-0.688509,-0.655383,95.459230,35.353718,-171.744266
45415,-5.674858,8.214646,-1.301540,-0.105147,-0.570987,0.239222,-0.843559,-0.053206,-0.242538,-0.056645,0.082159,-0.013377,0.999990,-0.004218,-0.000266,-0.001213,-0.177869,0.255822,-0.685383,-0.658155,94.959464,35.489814,-171.770811
45416,-5.923404,7.575908,-1.147478,0.442122,-0.460490,-0.148841,-0.797440,-0.033097,-0.268529,-0.059130,0.075792,-0.011787,0.999991,-0.003987,-0.000165,-0.001343,-0.177830,0.257290,-0.682380,-0.660708,94.494191,35.639479,-171.783165
45417,-5.915683,7.228914,-0.921316,0.602074,-0.295400,-0.450461,-0.720557,-0.029213,-0.284223,-0.059053,0.072339,-0.009482,0.999992,-0.003603,-0.000146,-0.001421,-0.177928,0.258759,-0.679603,-0.662967,94.074658,35.798566,-171.792705
45418,-5.837431,6.408971,-0.722040,0.984942,-0.146151,-1.170917,-0.595045,-0.062168,-0.266549,-0.058287,0.064146,-0.007429,0.999995,-0.002975,-0.000311,-0.001333,-0.178237,0.259936,-0.677227,-0.664852,93.711619,35.948069,-171.828397
45419,-5.809298,5.966113,-1.007443,1.237406,-0.457730,-1.529172,-0.268744,-0.077890,-0.238030,-0.058018,0.059717,-0.010177,0.999998,-0.001344,-0.000389,-0.001190,-0.178930,0.260675,-0.675955,-0.665671,93.528055,36.082153,-171.877111
45420,-5.651193,6.603762,-0.950734,0.711554,-0.447673,-1.109654,0.052463,-0.116193,-0.207836,-0.056438,0.066099,-0.009523,0.999999,0.000262,-0.000581,-0.001039,-0.180068,0.260893,-0.675754,-0.665482,93.511021,36.199788,-171.954946
45421,-5.355919,7.083942,-0.915880,0.169830,-0.459689,-0.898275,0.160242,-0.173738,-0.180780,-0.053487,0.070895,-0.009148,0.999999,0.000801,-0.000869,-0.000904,-0.181451,0.260736,-0.675894,-0.665026,93.530987,36.304483,-172.074360
45422,-5.006840,7.408215,-0.930631,-0.316483,-0.518626,-0.843461,0.161823,-0.148445,-0.159949,-0.050002,0.074130,-0.009283,0.999999,0.000809,-0.000742,-0.000800,-0.182681,0.260586,-0.676089,-0.664550,93.561478,36.395906,-172.177342
45423,-4.988609,6.808508,-1.347824,0.052836,-0.922768,-1.315375,0.076233,-0.078390,-0.147569,-0.049831,0.068127,-0.013472,1.000000,0.000381,-0.000392,-0.000738,-0.183520,0.260710,-0.676076,-0.664283,93.572070,36.478182,-172.230563
45424,-5.227993,7.363216,-1.374533,-0.097536,-0.923857,-0.725601,0.279037,0.014213,-0.103117,-0.052243,0.073678,-0.013639,0.999999,0.001395,0.000071,-0.000516,-0.184163,0.260799,-0.676881,-0.663249,93.736799,36.531324,-172.220409
45425,-5.673043,8.235700,-0.786141,-0.332482,-0.283441,0.209152,0.278416,0.005929,-0.070735,-0.056702,0.082388,-0.007745,0.999999,0.001392,0.000030,-0.000354,-0.184729,0.260753,-0.677719,-0.662253,93.897459,36.566674,-172.217336
45426,-5.591012,8.322105,-0.868593,-0.449828,-0.354806,0.234354,0.230950,0.019626,-0.049023,-0.055891,0.083245,-0.008584,0.999999,0.001155,0.000098,-0.000245,-0.185111,0.260721,-0.678438,-0.661423,94.035572,36.588637,-172.205629
45427,-5.687602,8.579180,-0.510672,-0.566531,0.028135,0.477607,0.213223,0.038283,-0.036823,-0.056861,0.085808,-0.005004,0.999999,0.001066,0.000191,-0.000184,-0.185365,0.260729,-0.679130,-0.660638,94.171312,36.603168,-172.180653
45428,-5.856521,8.639525,-0.624184,-0.463554,-0.053565,0.632985,0.059066,0.048182,-0.063915,-0.058539,0.086416,-0.006202,1.000000,0.000295,0.000241,-0.000320,-0.185475,0.261000,-0.679286,-0.660339,94.223609,36.632405,-172.147722
45429,-5.871260,8.308831,-1.080798,-0.218386,-0.500667,0.403874,-0.059871,0.068317,-0.098048,-0.058676,0.083114,-0.010813,1.000000,-0.000299,0.000342,-0.000490,-0.185477,0.261566,-0.679026,-0.660383,94.217995,36.680612,-172.098451
45430,-5.973179,8.208198,-1.244673,-0.069737,-0.650110,0.393932,0.006500,0.092383,-0.094047,-0.059699,0.082110,-0.012416,1.000000,0.000032,0.000462,-0.000470,-0.185467,0.262134,-0.679011,-0.660176,94.260029,36.725176,-172.032364
45431,-6.149837,8.481305,-0.809347,-0.142269,-0.195162,0.692061,0.042254,0.048975,-0.069627,-0.061471,0.084836,-0.008060,1.000000,0.000211,0.000245,-0.000348,-0.185572,0.262450,-0.679104,-0.659925,94.303866,36.758240,-171.997535
45432,-6.074041,7.960515,-0.697963,0.094334,-0.082842,0.224003,0.085004,-0.003071,-0.052090,-0.060720,0.079624,-0.006947,1.000000,0.000425,-0.000015,-0.000260,-0.185851,0.262488,-0.679313,-0.659616,94.348918,36.782877,-172.001650
45433,-5.965241,8.015553,-0.467536,-0.051941,0.141359,0.188767,0.131491,0.003088,-0.047236,-0.059634,0.080173,-0.004622,1.000000,0.000657,0.000015,-0.000236,-0.186156,0.262492,-0.679690,-0.659141,94.423840,36.805057,-172.000966
45434,-5.788722,8.090555,-0.800824,-0.211868,-0.204740,0.163329,0.012557,0.015259,-0.074371,-0.057858,0.080928,-0.007999,1.000000,0.000063,0.000076,-0.000372,-0.186351,0.262733,-0.679648,-0.659032,94.435990,36.841617,-171.990715
45435,-5.522207,8.208976,-1.063952,-0.476899,-0.493195,0.114214,0.034083,0.080797,-0.080933,-0.055193,0.082114,-0.010603,1.000000,0.000170,0.000404,-0.000405,-0.186377,0.263191,-0.679733,-0.658754,94.489456,36.879174,-171.933357
45436,-5.628367,8.550536,-0.511677,-0.656779,0.066778,0.415518,-0.097197,0.110268,-0.071738,-0.056256,0.085523,-0.005127,1.000000,-0.000486,0.000551,-0.000359,-0.186096,0.263838,-0.679421,-0.658896,94.479414,36.909966,-171.855342
45437,-5.710327,7.773847,-0.812989,-0.098294,-0.219873,-0.135731,-0.092389,0.106962,-0.047453,-0.057089,0.077748,-0.008135,1.000000,-0.000462,0.000535,-0.000237,-0.185755,0.264389,-0.679157,-0.659044,94.470605,36.927335,-171.780832
45438,-5.872445,7.998393,-0.488717,-0.137322,0.122658,0.120330,0.036944,0.114384,0.010544,-0.058731,0.079982,-0.004839,1.000000,0.000185,0.000572,0.000053,-0.185366,0.264646,-0.679399,-0.658801,94.536456,36.910923,-171.704468
45439,-5.895419,8.293354,-0.311654,-0.310967,0.305227,0.358003,-0.002734,0.057761,0.045903,-0.058974,0.082920,-0.003101,1.000000,-0.000014,0.000289,0.000230,-0.185008,0.264626,-0.679512,-0.658793,94.555053,36.876873,-171.671421
45440,-5.830826,8.254017,-0.200980,-0.343426,0.408850,0.281005,-0.059598,0.057838,0.045299,-0.058328,0.082526,-0.002018,1.000000,-0.000298,0.000289,0.000226,-0.184569,0.264667,-0.679430,-0.658985,94.540083,36.843132,-171.637471
45441,-5.915403,8.352242,-0.175084,-0.332555,0.437639,0.408881,-0.172926,0.064875,0.031683,-0.059168,0.083511,-0.001804,1.000000,-0.000865,0.000324,0.000158,-0.184005,0.264882,-0.678967,-0.659533,94.464489,36.817116,-171.597820
45442,-5.970034,8.172085,-0.135052,-0.179650,0.471317,0.296125,-0.287981,0.094270,0.014483,-0.059707,0.081714,-0.001440,0.999999,-0.001440,0.000471,0.000072,-0.183241,0.265358,-0.678123,-0.660422,94.335280,36.799448,-171.536097
45443,-6.006211,7.687885,-0.874006,0.220354,-0.267536,-0.023822,-0.286617,0.143094,-0.002783,-0.060067,0.076867,-0.008807,0.999999,-0.001433,0.000715,-0.000014,-0.182371,0.266056,-0.677305,-0.661221,94.228941,36.790069,-171.438076
45444,-5.997758,7.895262,-0.809398,0.085842,-0.212872,0.132698,-0.082212,0.166528,0.007820,-0.059987,0.078947,-0.008076,1.000000,-0.000411,0.000833,0.000039,-0.181657,0.266604,-0.677196,-0.661308,94.248708,36.773287,-171.324411
45445,-5.838335,8.687477,-1.216175,-0.470033,-0.646911,0.694361,-0.079923,0.139316,0.012278,-0.058397,0.086866,-0.012156,1.000000,-0.000400,0.000697,0.000061,-0.181024,0.267047,-0.677077,-0.661425,94.258457,36.755257,-171.230240
45446,-5.878271,8.536755,-0.588449,-0.411452,-0.017534,0.560688,-0.095199,0.083431,0.022226,-0.058795,0.085358,-0.005901,1.000000,-0.000476,0.000417,0.000111,-0.180527,0.267283,-0.676867,-0.661680,94.234785,36.733757,-171.176649
45447,-5.885725,7.934671,-0.035525,-0.100641,0.535687,0.051638,-0.214069,0.091330,0.007683,-0.058860,0.079344,-0.000413,0.999999,-0.001070,0.000457,0.000038,-0.179891,0.267708,-0.676253,-0.662309,94.147521,36.720736,-171.115869
45448,-6.097984,6.709392,-0.404151,0.846573,0.213744,-0.779288,-0.141380,0.099362,-0.002398,-0.060981,0.067092,-0.004059,1.000000,-0.000707,0.000497,-0.000012,-0.179359,0.268122,-0.675872,-0.662675,94.104938,36.712742,-171.049617
45449,-6.343385,7.187819,0.505028,0.652429,1.138677,-0.302899,0.059815,0.090656,0.014768,-0.063437,0.071872,0.005101,1.000000,0.000299,0.000453,0.000074,-0.179070,0.268272,-0.676174,-0.662385,94.173971,36.695571,-170.990101
45450,-6.345906,7.400606,1.401884,0.425816,2.023936,-0.183194,-0.139786,0.016909,-0.005340,-0.063456,0.074018,0.013972,1.000000,-0.000699,0.000085,-0.000027,-0.178829,0.268420,-0.675719,-0.662853,94.097244,36.692656,-170.982483
45451,-5.996355,6.831391,0.052702,0.642130,0.646531,-0.768540,-0.146546,0.067826,-0.071477,-0.059939,0.068336,0.000497,1.000000,-0.000733,0.000339,-0.000357,-0.178625,0.268970,-0.675199,-0.663215,94.040645,36.725702,-170.934863
45452,-5.699699,7.937375,-0.843952,-0.159006,-0.299797,-0.010364,0.188362,0.137980,-0.059159,-0.056979,0.079398,-0.008325,0.999999,0.000942,0.000690,-0.000296,-0.178594,0.269409,-0.675868,-0.662364,94.205238,36.748557,-170.838137
45453,-5.407116,9.801437,-0.319391,-1.578234,0.168236,1.272792,0.254286,0.169142,-0.037562,-0.054055,0.098028,-0.003024,0.999999,0.001271,0.000846,-0.000188,-0.178477,0.269818,-0.676813,-0.661263,94.420798,36.757689,-170.720319
45454,-5.264748,9.933685,0.037179,-1.816022,0.507230,1.270714,-0.302897,0.212064,-0.048908,-0.052623,0.099350,0.000277,0.999998,-0.001514,0.001060,-0.000245,-0.177497,0.270904,-0.675935,-0.661980,94.335338,36.771102,-170.571161
45455,-5.629773,9.022415,-0.852344,-0.872367,-0.339485,0.815028,-0.720375,0.297215,-0.066516,-0.056281,0.090212,-0.008765,0.999992,-0.003602,0.001486,-0.000333,-0.175721,0.272700,-0.673721,-0.663971,94.047883,36.791451,-170.360242
45456,-5.765089,8.299838,-1.143692,-0.286926,-0.639393,0.333257,-0.805986,0.216133,-0.052307,-0.057642,0.082967,-0.011709,0.999991,-0.004030,0.001081,-0.000262,-0.174052,0.274249,-0.671159,-0.666363,93.676033,36.807726,-170.208104
45457,-5.647644,7.572066,-0.796997,0.020718,-0.333289,-0.338744,-0.723144,0.188348,-0.033953,-0.056471,0.075701,-0.008191,0.999993,-0.003616,0.000942,-0.000170,-0.172525,0.275570,-0.668864,-0.668518,93.339654,36.815407,-170.076390
45458,-6.176688,6.959362,-1.442897,0.902707,-0.906945,-0.483772,-0.576414,0.203878,-0.033910,-0.061770,0.069562,-0.014567,0.999995,-0.002882,0.001019,-0.000170,-0.171146,0.276811,-0.667065,-0.670156,93.093569,36.822923,-169.933948
45459,-6.369052,6.766218,-1.901098,1.243806,-1.340604,-0.505893,-0.158615,0.039938,0.038462,-0.063707,0.067635,-0.019052,1.000000,-0.000793,0.000200,0.000192,-0.170650,0.276900,-0.666625,-0.670683,93.015383,36.794340,-169.911583
45460,-5.971242,7.499268,-0.976321,0.366725,-0.520493,-0.197983,0.184791,-0.100672,0.107793,-0.059748,0.074969,-0.009724,0.999999,0.000924,-0.000503,0.000539,-0.170865,0.275995,-0.667309,-0.670322,93.071848,36.730389,-169.992161
45461,-5.788974,7.635863,-0.461246,0.077335,-0.035090,-0.219766,0.146234,-0.071890,0.115890,-0.057932,0.076328,-0.004577,1.000000,0.000731,-0.000359,0.000579,-0.170902,0.275196,-0.667899,-0.670052,93.118849,36.661221,-170.051995
45462,-5.788436,7.720438,-0.791640,0.081998,-0.357225,-0.137797,0.141548,-0.032343,0.095390,-0.057920,0.077182,-0.007871,1.000000,0.000708,-0.000162,0.000477,-0.170870,0.274598,-0.668478,-0.669729,93.180033,36.602335,-170.083385
