PacketCounter,Acc_X,Acc_Y,Acc_Z,FreeAcc_E,FreeAcc_N,FreeAcc_U,Gyr_X,Gyr_Y,Gyr_Z,VelInc_X,VelInc_Y,VelInc_Z,OriInc_q0,OriInc_q1,OriInc_q2,OriInc_q3,Quat_q0,Quat_q1,Quat_q2,Quat_q3,Roll,Pitch,Yaw
29525,-2.613382,4.043781,8.858544,0.116925,-0.265141,0.265594,0.113466,-0.038125,-0.103758,-0.026130,0.040401,0.088603,1.000000,0.000567,-0.000191,-0.000519,-0.608506,-0.238022,0.062947,0.754390,23.639709,16.410332,-98.762426
29526,-2.769494,4.275908,8.910138,0.317713,-0.183449,0.444479,0.065887,-0.047952,-0.056087,-0.027704,0.042737,0.089109,1.000000,0.000329,-0.000240,-0.000280,-0.608254,-0.238026,0.063271,0.754565,23.663352,16.394080,-98.798569
29527,-2.594964,4.100286,8.744089,0.206647,-0.268481,0.181835,0.022134,-0.044191,-0.011174,-0.025967,0.040995,0.087440,1.000000,0.000111,-0.000221,-0.000056,-0.608226,-0.237891,0.063474,0.754613,23.668856,16.368734,-98.809304
29528,-2.601716,3.831281,8.594542,0.032920,-0.161517,-0.051201,0.026192,-0.015315,0.020927,-0.026028,0.038299,0.085948,1.000000,0.000131,-0.000077,0.000105,-0.608322,-0.237873,0.063640,0.754527,23.683891,16.351874,-98.795493
29529,-2.664043,3.758366,8.621195,-0.037807,-0.086726,-0.038308,0.051841,0.012843,0.029817,-0.026640,0.037557,0.086223,1.000000,0.000259,0.000064,0.000149,-0.608431,-0.238030,0.063830,0.754373,23.716579,16.347016,-98.770141
29530,-2.724307,3.806331,8.644617,-0.002398,-0.046117,0.017738,0.056624,0.043475,0.021863,-0.027228,0.038036,0.086463,1.000000,0.000283,0.000217,0.000109,-0.608513,-0.238326,0.063934,0.754205,23.753167,16.360741,-98.741707
29531,-2.812338,3.796770,8.703001,-0.030439,0.027234,0.090103,0.067061,0.046884,0.028995,-0.028108,0.037934,0.087049,1.000000,0.000335,0.000234,0.000145,-0.608612,-0.238658,0.064077,0.754008,23.796765,16.373890,-98.708614
29532,-2.856473,3.916541,8.854589,0.009160,0.008028,0.281981,0.046107,0.050876,0.029134,-0.028548,0.039141,0.088562,1.000000,0.000231,0.000254,0.000146,-0.608736,-0.238947,0.064127,0.753812,23.828967,16.389769,-98.674400
29533,-2.848430,3.830165,8.863524,-0.076678,0.019023,0.254067,0.018499,0.032076,0.024889,-0.028475,0.038290,0.088643,1.000000,0.000092,0.000160,0.000124,-0.608872,-0.239077,0.064127,0.753661,23.843119,16.396075,-98.647105
29534,-2.882790,3.662962,8.812728,-0.199703,0.103259,0.154328,0.010918,0.010776,0.020568,-0.028827,0.036622,0.088131,1.000000,0.000055,0.000054,0.000103,-0.608993,-0.239111,0.064156,0.753550,23.851111,16.392903,-98.627243
29535,-2.723157,3.717185,8.765561,-0.155015,-0.051466,0.088900,0.014517,0.000461,0.010331,-0.027233,0.037164,0.087658,1.000000,0.000073,0.000002,0.000052,-0.609069,-0.239114,0.064220,0.753482,23.858582,16.386007,-98.615534
29536,-2.666514,3.784219,8.715902,-0.081917,-0.111938,0.055358,-0.007392,0.008600,-0.006935,-0.026660,0.037846,0.087159,1.000000,-0.000037,0.000043,-0.000035,-0.609107,-0.239093,0.064154,0.753464,23.851666,16.388061,-98.611228
29537,-2.737254,3.797075,8.787284,-0.090103,-0.062345,0.142949,-0.013019,0.003898,-0.013962,-0.027368,0.037978,0.087871,1.000000,-0.000065,0.000019,-0.000070,-0.609126,-0.239033,0.064075,0.753474,23.839850,16.388595,-98.611959
29538,-2.757230,3.866258,8.788280,-0.024416,-0.061026,0.176297,-0.013565,0.000242,-0.005417,-0.027571,0.038669,0.087880,1.000000,-0.000068,0.000001,-0.000027,-0.609175,-0.238960,0.064013,0.753463,23.829051,16.385901,-98.608844
29539,-2.856835,3.988768,8.817373,0.088338,-0.001864,0.277409,-0.025080,-0.009375,0.007015,-0.028574,0.039898,0.088167,1.000000,-0.000125,-0.000047,0.000035,-0.609283,-0.238807,0.063954,0.753429,23.812654,16.374623,-98.601316
29540,-2.830806,3.934509,8.752191,0.068549,0.002197,0.191810,-0.032820,-0.032421,0.012197,-0.028325,0.039358,0.087511,1.000000,-0.000164,-0.000162,0.000061,-0.609410,-0.238547,0.063940,0.753410,23.791319,16.350728,-98.596446
29541,-2.721146,3.836210,8.626283,0.024289,-0.049335,0.012325,-0.023862,-0.026329,0.015457,-0.027226,0.038370,0.086255,1.000000,-0.000119,-0.000132,0.000077,-0.609543,-0.238331,0.063947,0.753370,23.775765,16.328615,-98.588382
29542,-2.764720,3.865603,8.543110,0.095130,0.003633,-0.037094,-0.007458,-0.013647,0.013115,-0.027656,0.038657,0.085428,1.000000,-0.000037,-0.000068,0.000066,-0.609650,-0.238219,0.063972,0.753317,23.770378,16.314348,-98.578479
29543,-2.763338,3.916245,8.575548,0.126330,-0.014599,0.010594,0.004679,-0.001964,0.012117,-0.027637,0.039159,0.085756,1.000000,0.000023,-0.000010,0.000061,-0.609744,-0.238182,0.064009,0.753249,23.772309,16.305785,-98.566372
29544,-2.719447,3.945998,8.603973,0.133342,-0.068253,0.034759,0.010770,0.014973,0.020072,-0.027192,0.039453,0.086044,1.000000,0.000054,0.000075,0.000100,-0.609864,-0.238231,0.064024,0.753135,23.780378,16.304915,-98.545778
29545,-2.731620,3.868712,8.615775,0.059535,-0.039737,0.018647,0.017387,0.028519,0.026992,-0.027309,0.038676,0.086165,1.000000,0.000087,0.000143,0.000135,-0.610009,-0.238344,0.064033,0.752982,23.793931,16.308892,-98.518208
29546,-2.679176,3.861301,8.685922,0.010847,-0.102274,0.062650,0.046299,0.047743,0.032117,-0.026777,0.038589,0.086875,1.000000,0.000231,0.000239,0.000161,-0.610143,-0.238620,0.064096,0.752780,23.826442,16.322393,-98.483133
29547,-2.793116,3.961633,8.756184,0.079935,-0.034173,0.195272,0.041845,0.049882,0.030449,-0.027915,0.039594,0.087577,1.000000,0.000209,0.000249,0.000152,-0.610278,-0.238887,0.064136,0.752583,23.856001,16.336741,-98.448513
29548,-2.659131,3.960812,8.797052,0.037464,-0.171395,0.193128,0.033709,0.056870,0.026558,-0.026572,0.039590,0.087985,1.000000,0.000169,0.000284,0.000133,-0.610408,-0.239161,0.064118,0.752391,23.881095,16.356266,-98.414247
29549,-2.770762,3.859033,8.793404,-0.039997,-0.042432,0.181802,0.029272,0.060104,0.027377,-0.027686,0.038574,0.087948,1.000000,0.000146,0.000301,0.000137,-0.610550,-0.239428,0.064076,0.752195,23.903701,16.376652,-98.378812
29550,-2.750868,3.861056,8.755741,-0.029128,-0.057397,0.143912,0.039233,0.056121,0.021106,-0.027488,0.038590,0.087573,1.000000,0.000196,0.000281,0.000106,-0.610653,-0.239719,0.064074,0.752019,23.931101,16.397004,-98.347678
29551,-2.630359,3.958539,8.697448,0.061116,-0.187558,0.096677,0.040959,0.066619,0.017908,-0.026278,0.039565,0.086991,1.000000,0.000205,0.000333,0.000090,-0.610747,-0.240049,0.064045,0.751839,23.959423,16.422972,-98.315806
29552,-2.553577,3.918029,8.633276,0.037093,-0.242678,0.002855,0.043143,0.089379,0.015596,-0.025500,0.039160,0.086353,1.000000,0.000216,0.000447,0.000078,-0.610836,-0.240478,0.063950,0.751639,23.990538,16.461968,-98.279575
29553,-2.602848,4.004256,8.630503,0.114928,-0.223406,0.047908,0.053892,0.117441,0.018048,-0.025981,0.040017,0.086331,1.000000,0.000269,0.000587,0.000090,-0.610931,-0.241038,0.063814,0.751393,24.029853,16.514468,-98.235226
29554,-2.501210,4.183085,8.591669,0.269132,-0.365662,0.054677,0.043921,0.155668,0.021005,-0.024950,0.041809,0.085945,1.000000,0.000220,0.000778,0.000105,-0.611059,-0.241716,0.063526,0.751095,24.066956,16.586807,-98.179820
29555,-2.674650,4.185412,8.663321,0.255964,-0.228330,0.167637,0.026650,0.187540,0.039966,-0.026674,0.041837,0.086664,1.000000,0.000133,0.000938,0.000200,-0.611291,-0.242450,0.063100,0.750706,24.099114,16.670796,-98.106299
29556,-2.898037,4.090391,8.739281,0.160421,-0.022020,0.260976,0.032721,0.194488,0.058277,-0.028907,0.040881,0.087428,0.999999,0.000164,0.000972,0.000291,-0.611584,-0.243227,0.062697,0.750250,24.138615,16.754603,-98.020899
29557,-3.086914,4.116420,8.831418,0.157996,0.120145,0.406338,0.057131,0.179369,0.092833,-0.030809,0.041125,0.088354,0.999999,0.000286,0.000897,0.000464,-0.611973,-0.244006,0.062475,0.749698,24.196248,16.821816,-97.920324
29558,-3.458638,4.138300,9.067186,0.108864,0.412386,0.728642,0.088404,0.118386,0.134303,-0.034560,0.041320,0.090711,1.000000,0.000442,0.000592,0.000672,-0.612459,-0.244645,0.062606,0.749082,24.274520,16.847821,-97.811886
29559,-3.334819,4.226655,9.127863,0.130592,0.263283,0.780571,0.084450,0.027307,0.156820,-0.033369,0.042202,0.091301,1.000000,0.000422,0.000137,0.000784,-0.613005,-0.244917,0.063029,0.748510,24.347197,16.820300,-97.713678
29560,-3.788346,4.317947,9.450782,0.116706,0.616267,1.229056,0.052910,-0.070975,0.144659,-0.037948,0.043127,0.094506,1.000000,0.000265,-0.000355,0.000723,-0.613512,-0.244734,0.063620,0.748104,24.393186,16.744829,-97.646321
29561,-4.095818,4.272386,9.917978,-0.092397,0.848034,1.705450,-0.017732,-0.260351,0.133324,-0.041116,0.042705,0.099123,0.999999,-0.000089,-0.001302,0.000667,-0.614004,-0.243624,0.064515,0.747987,24.382959,16.572631,-97.632077
29562,-3.880953,3.713135,9.813044,-0.557450,0.842775,1.328394,-0.055758,-0.497939,0.117536,-0.039075,0.037136,0.098023,0.999997,-0.000279,-0.002490,0.000588,-0.614401,-0.241518,0.065975,0.748216,24.332320,16.280827,-97.684782
29563,-2.734560,2.990082,9.052550,-0.993697,0.132793,0.054514,-0.003249,-0.648373,0.074227,-0.027650,0.029892,0.090436,0.999995,-0.000016,-0.003242,0.000371,-0.614520,-0.239017,0.068043,0.748737,24.294984,15.919986,-97.797736
29564,-1.723545,2.836098,8.189740,-0.873884,-0.570749,-1.037938,0.137139,-0.624457,0.004668,-0.017492,0.028304,0.081862,0.999995,0.000686,-0.003122,0.000023,-0.614210,-0.237064,0.070476,0.749386,24.330400,15.588758,-97.942307
29565,-1.591807,3.621518,8.103672,-0.160744,-0.819340,-0.833742,0.207365,-0.474832,-0.063713,-0.016099,0.036136,0.081036,0.999997,0.001037,-0.002374,-0.000319,-0.613610,-0.235904,0.072634,0.750038,24.406361,15.351204,-98.087398
29566,-2.019421,4.371501,8.294781,0.471365,-0.590146,-0.251256,0.128388,-0.349589,-0.094250,-0.020319,0.043671,0.082940,0.999998,0.000642,-0.001748,-0.000471,-0.613030,-0.234985,0.074073,0.750659,24.441481,15.186965,-98.218306
29567,-2.279748,4.603226,8.452173,0.645112,-0.400803,0.048819,-0.004363,-0.273204,-0.074436,-0.022896,0.046043,0.084489,0.999999,-0.000022,-0.001366,-0.000372,-0.612708,-0.233934,0.074805,0.751178,24.408376,15.057274,-98.319711
29568,-2.309879,4.299024,8.395297,0.416433,-0.270854,-0.114680,-0.093766,-0.226362,-0.023749,-0.023189,0.043032,0.083907,0.999999,-0.000469,-0.001132,-0.000119,-0.612696,-0.232770,0.075115,0.751518,24.334642,14.940502,-98.382018
29569,-2.322094,3.930731,8.305149,0.144942,-0.139819,-0.337579,-0.086123,-0.170285,0.022141,-0.023296,0.039340,0.083015,1.000000,-0.000431,-0.000851,0.000111,-0.612869,-0.231817,0.075337,0.751649,24.275053,14.841573,-98.405735
29570,-2.350005,3.957082,8.282025,0.191914,-0.101638,-0.340318,-0.050908,-0.129520,0.048645,-0.023563,0.039586,0.082795,1.000000,-0.000255,-0.000648,0.000243,-0.613114,-0.231121,0.075596,0.751638,24.242217,14.758202,-98.405043
29571,-2.357928,3.984066,8.221526,0.249340,-0.079025,-0.380950,-0.032814,-0.075708,0.062846,-0.023623,0.039847,0.082200,1.000000,-0.000164,-0.000379,0.000314,-0.613414,-0.230672,0.075776,0.751513,24.224711,14.699085,-98.383628
29572,-2.717713,3.987008,8.405282,0.224856,0.241206,-0.126500,-0.019079,-0.032602,0.066531,-0.027204,0.039869,0.084045,1.000000,-0.000095,-0.000163,0.000333,-0.613726,-0.230431,0.075878,0.751322,24.218575,14.662139,-98.349660
29573,-3.000715,4.120259,8.698687,0.255561,0.439175,0.256562,-0.013500,-0.057329,0.086388,-0.030050,0.041195,0.086975,1.000000,-0.000068,-0.000287,0.000432,-0.614098,-0.230101,0.076101,0.751097,24.216443,14.607100,-98.311058
29574,-2.732839,4.054340,8.587723,0.211011,0.227405,0.064499,-0.033981,-0.084408,0.089245,-0.027383,0.040546,0.085859,1.000000,-0.000170,-0.000422,0.000446,-0.614492,-0.229611,0.076332,0.750901,24.201652,14.537802,-98.277405
29575,-2.942666,4.019451,8.770118,0.134393,0.417740,0.263902,-0.049458,-0.095015,0.072718,-0.029483,0.040205,0.087677,1.000000,-0.000247,-0.000475,0.000364,-0.614839,-0.229034,0.076520,0.750773,24.174696,14.466294,-98.255317
29576,-2.938705,3.877514,8.846166,-0.016500,0.447625,0.273198,-0.091877,-0.150619,0.048674,-0.029463,0.038809,0.088422,1.000000,-0.000459,-0.000753,0.000243,-0.615122,-0.228133,0.076691,0.750799,24.117233,14.371968,-98.259530
29577,-2.554631,3.423268,8.514146,-0.316858,0.254742,-0.295846,-0.077395,-0.175581,0.014266,-0.025623,0.034264,0.085106,1.000000,-0.000387,-0.000878,0.000071,-0.615250,-0.227190,0.076954,0.750953,24.061614,14.272026,-98.288332
29578,-2.419312,3.418667,8.363347,-0.265631,0.164157,-0.464511,-0.018009,-0.146294,-0.025747,-0.024250,0.034197,0.083613,1.000000,-0.000090,-0.000731,-0.000129,-0.615169,-0.226561,0.077304,0.751173,24.036872,14.197377,-98.331517
29579,-2.255216,3.676789,8.300148,-0.027293,-0.033590,-0.458792,0.008850,-0.100120,-0.068519,-0.022581,0.036772,0.082992,1.000000,0.000044,-0.000501,-0.000343,-0.614916,-0.226198,0.077565,0.751462,24.024273,14.156211,-98.386716
29580,-2.278318,3.887207,8.322631,0.155802,-0.060278,-0.350161,0.003678,-0.042146,-0.079239,-0.022785,0.038880,0.083222,1.000000,0.000018,-0.000211,-0.000396,-0.614650,-0.226047,0.077615,0.751720,24.011071,14.148522,-98.433673
29581,-2.370632,3.979569,8.309729,0.258864,0.007657,-0.302619,-0.007247,0.009990,-0.072973,-0.023688,0.039807,0.083097,1.000000,-0.000036,0.000050,-0.000365,-0.614442,-0.226050,0.077472,0.751905,23.995159,14.166000,-98.464784
29582,-2.377134,3.968389,8.342491,0.236929,0.006226,-0.276448,-0.006718,0.057057,-0.052398,-0.023737,0.039693,0.083430,1.000000,-0.000034,0.000285,-0.000262,-0.614327,-0.226230,0.077209,0.751972,23.985394,14.203963,-98.473407
29583,-2.379032,3.968754,8.394734,0.213885,-0.007955,-0.229549,0.013638,0.098795,-0.025312,-0.023744,0.039685,0.083962,1.000000,0.000068,0.000494,-0.000127,-0.614308,-0.226613,0.076926,0.751901,23.992980,14.256818,-98.457453
29584,-2.615174,4.009265,8.679424,0.155214,0.153587,0.096806,0.038385,0.125130,0.006247,-0.026099,0.040075,0.086818,1.000000,0.000192,0.000626,0.000031,-0.614388,-0.227165,0.076689,0.751693,24.020931,14.316742,-98.418013
29585,-3.212617,4.033898,9.014509,0.107704,0.659957,0.551070,0.077790,0.068407,0.054034,-0.032106,0.040295,0.090172,1.000000,0.000389,0.000342,0.000270,-0.614582,-0.227600,0.076831,0.751388,24.074105,14.335157,-98.366470
29586,-2.609864,4.066755,8.844444,0.117546,0.104392,0.264482,0.061631,-0.002964,0.088710,-0.026118,0.040629,0.088457,1.000000,0.000308,-0.000015,0.000444,-0.614896,-0.227710,0.077169,0.751063,24.118796,14.308789,-98.313337
29587,-2.205967,3.684923,8.519756,-0.142751,-0.136416,-0.273704,0.054621,0.013321,0.072962,-0.022067,0.036818,0.085209,1.000000,0.000273,0.000067,0.000365,-0.615167,-0.227859,0.077414,0.750771,24.157912,14.293887,-98.264876
29588,-2.243284,3.683023,8.476619,-0.127923,-0.092372,-0.303473,0.082151,0.065244,0.052980,-0.022415,0.036789,0.084789,1.000000,0.000411,0.000326,0.000265,-0.615349,-0.228303,0.077578,0.750470,24.213648,14.311470,-98.214541
29589,-2.440411,3.884768,8.587296,0.020043,0.028817,-0.076803,0.089440,0.100914,0.050301,-0.024371,0.038803,0.085903,1.000000,0.000447,0.000505,0.000252,-0.615529,-0.228897,0.077659,0.750133,24.274972,14.347573,-98.157052
29590,-2.547662,4.001078,8.677873,0.087855,0.084715,0.076184,0.071255,0.113369,0.059457,-0.025439,0.039972,0.086807,1.000000,0.000356,0.000567,0.000297,-0.615766,-0.229484,0.077642,0.749761,24.328298,14.388649,-98.091463
29591,-2.462193,3.930887,8.620448,0.030737,0.022300,-0.023666,0.039952,0.122713,0.062383,-0.024581,0.039284,0.086227,1.000000,0.000200,0.000614,0.000312,-0.616055,-0.230002,0.077483,0.749381,24.364312,14.433179,-98.022058
29592,-2.465109,3.785843,8.629561,-0.108616,0.049028,-0.072848,0.034991,0.140491,0.056316,-0.024601,0.037836,0.086320,1.000000,0.000175,0.000702,0.000282,-0.616332,-0.230581,0.077243,0.749000,24.398223,14.489067,-97.951450
29593,-2.645968,3.863937,8.761304,-0.080423,0.172861,0.119847,0.044811,0.149237,0.032432,-0.026401,0.038615,0.087641,1.000000,0.000224,0.000746,0.000162,-0.616513,-0.231225,0.076986,0.748679,24.434753,14.554445,-97.891607
29594,-3.235296,4.254094,9.279811,0.110463,0.551036,0.881400,-0.001899,0.102538,-0.000477,-0.032305,0.042542,0.092814,1.000000,-0.000009,0.000513,-0.000002,-0.616605,-0.231569,0.076659,0.748530,24.437630,14.603940,-97.860815
29595,-2.978562,3.862595,9.207778,-0.234610,0.401790,0.596835,-0.095412,-0.018689,-0.036346,-0.029787,0.038675,0.092057,1.000000,-0.000477,-0.000093,-0.000182,-0.616626,-0.231178,0.076316,0.748669,24.374196,14.597996,-97.879129
29596,-2.453434,3.343363,8.795792,-0.574364,0.087091,-0.105685,-0.057286,-0.041251,-0.079182,-0.024539,0.033469,0.087943,1.000000,-0.000286,-0.000206,-0.000396,-0.616432,-0.230844,0.076133,0.748950,24.325765,14.591134,-97.925971
29597,-2.378019,3.560677,8.663885,-0.328251,-0.012547,-0.154095,0.010570,-0.032594,-0.116378,-0.023774,0.035616,0.086637,1.000000,0.000053,-0.000163,-0.000582,-0.616025,-0.230758,0.076137,0.749311,24.311325,14.596786,-97.990844
29598,-2.395798,4.000922,8.710047,0.045891,-0.106873,0.066514,0.026164,-0.005222,-0.121881,-0.023936,0.040012,0.087105,1.000000,0.000131,-0.000026,-0.000609,-0.615588,-0.230832,0.076106,0.749651,24.307030,14.618768,-98.051959
29599,-2.502162,4.216036,8.781113,0.221598,-0.070863,0.241645,-0.012253,0.011757,-0.091468,-0.024997,0.042177,0.087810,1.000000,-0.000061,0.000059,-0.000457,-0.615317,-0.230833,0.075917,0.749892,24.285595,14.641683,-98.092595
29600,-2.359253,4.141842,8.680207,0.184091,-0.177709,0.086881,-0.034476,0.022350,-0.046603,-0.023573,0.041439,0.086798,1.000000,-0.000172,0.000112,-0.000233,-0.615243,-0.230794,0.075661,0.749991,24.258500,14.660284,-98.106379
29601,-2.358491,4.098079,8.669764,0.152583,-0.171174,0.059950,-0.023231,0.061550,-0.015330,-0.023555,0.040993,0.086700,1.000000,-0.000116,0.000308,-0.000077,-0.615289,-0.230919,0.075365,0.749944,24.244224,14.691262,-98.093812
29602,-2.791139,4.126024,8.943185,0.117501,0.185868,0.421898,-0.015714,0.037164,0.011875,-0.027897,0.041266,0.089434,1.000000,-0.000079,0.000186,0.000059,-0.615418,-0.230971,0.075201,0.749838,24.236818,14.703812,-98.072415
29603,-2.479618,3.996515,8.870262,-0.006093,-0.071116,0.227088,-0.022976,0.007305,0.004606,-0.024794,0.039975,0.088699,1.000000,-0.000115,0.000037,0.000023,-0.615518,-0.230886,0.075096,0.749793,24.222077,14.701765,-98.062277
29604,-2.504754,3.946792,8.874274,-0.046948,-0.036204,0.217277,-0.002848,0.001123,-0.007207,-0.025046,0.039470,0.088742,1.000000,-0.000014,0.000006,-0.000036,-0.615547,-0.230850,0.075070,0.749783,24.217210,14.699980,-98.059949
29605,-2.822994,3.881819,9.072509,-0.150524,0.252652,0.447027,0.064201,-0.038133,0.016007,-0.028250,0.038787,0.090732,1.000000,0.000321,-0.000191,0.000080,-0.615572,-0.230859,0.075444,0.749722,24.251175,14.671511,-98.054702
29606,-2.486228,4.262963,9.061318,0.139936,-0.146074,0.503355,0.116628,-0.103962,0.049511,-0.024920,0.042571,0.090625,1.000000,0.000583,-0.000520,0.000248,-0.615636,-0.230775,0.076255,0.749613,24.316009,14.601485,-98.047359
29607,-2.531793,4.227891,8.989069,0.135760,-0.065494,0.437465,0.145289,-0.123929,0.107982,-0.025396,0.042200,0.089906,0.999999,0.000726,-0.000620,0.000540,-0.615879,-0.230676,0.077303,0.749337,24.403605,14.506488,-98.013529
29608,-2.445336,4.224574,8.945269,0.122708,-0.116134,0.376319,0.244728,-0.175728,0.208383,-0.024576,0.042111,0.089483,0.999998,0.001224,-0.000879,0.001042,-0.616361,-0.230657,0.078998,0.748770,24.558705,14.361278,-97.938492
29609,-2.179802,4.777894,8.853627,0.592628,-0.448489,0.454444,0.297881,-0.197829,0.294821,-0.021956,0.047615,0.088586,0.999997,0.001489,-0.000989,0.001474,-0.617095,-0.230676,0.081061,0.747938,24.753687,14.182973,-97.823050
29610,-2.289765,5.168131,9.146048,0.795833,-0.440465,0.900634,0.238372,-0.183481,0.344707,-0.023070,0.051533,0.091501,0.999997,0.001192,-0.000917,0.001724,-0.618085,-0.230551,0.082912,0.746956,24.921838,14.000433,-97.677893
29611,-4.153506,4.877103,10.187068,0.282704,1.299693,2.147435,0.298321,-0.280897,0.498532,-0.041799,0.048515,0.101885,0.999995,0.001492,-0.001404,0.002493,-0.619536,-0.230175,0.085467,0.745580,25.137074,13.728897,-97.475665
29612,-5.045845,5.020995,10.884987,0.161810,2.117907,3.018537,0.446907,-0.742379,0.781062,-0.051057,0.049768,0.108773,0.999983,0.002235,-0.003712,0.003905,-0.621657,-0.228421,0.090327,0.743779,25.444061,13.148975,-97.240636
29613,-2.168342,5.433980,9.632226,0.694258,-0.411617,1.428129,0.430625,-1.061016,0.932544,-0.022447,0.054029,0.096321,0.999973,0.002153,-0.005305,0.004663,-0.624190,-0.225345,0.096287,0.741846,25.737558,12.364989,-97.010071
29614,-0.921148,5.026626,8.960099,0.463460,-1.296706,0.409887,0.323926,-0.951290,0.937883,-0.009873,0.050076,0.089636,0.999976,0.001620,-0.004756,0.004689,-0.626882,-0.222336,0.101509,0.739785,25.972973,11.636062,-96.752939
29615,-2.824288,4.662612,9.777745,-0.042812,0.664094,1.362102,0.426871,-0.962260,1.016391,-0.028949,0.046272,0.097738,0.999973,0.002134,-0.004811,0.005082,-0.629714,-0.219551,0.107229,0.737401,26.270267,10.879678,-96.461688
29616,-4.081992,5.553094,10.759014,0.374785,1.800815,2.831195,0.585769,-1.262997,1.284028,-0.041853,0.054950,0.107490,0.999955,0.002929,-0.006315,0.006420,-0.633149,-0.216006,0.114767,0.734365,26.664932,9.899785,-96.114361
29617,-2.309819,6.529814,10.126624,1.283571,0.211601,2.386645,0.491912,-1.588063,1.510740,-0.024393,0.064868,0.101236,0.999937,0.002460,-0.007940,0.007554,-0.637265,-0.210809,0.123223,0.730937,27.002730,8.692102,-95.742371
29618,-1.107006,6.111749,9.357895,1.125331,-0.574735,1.347376,0.270360,-1.616381,1.644428,-0.012328,0.060893,0.093565,0.999933,0.001352,-0.008082,0.008222,-0.641999,-0.204701,0.131083,0.727153,27.213961,7.434263,-95.315978
29619,-0.301341,5.118683,8.482815,0.583122,-0.927576,0.038471,0.096771,-1.606643,1.677471,-0.004124,0.051114,0.084823,0.999932,0.000484,-0.008033,0.008387,-0.646952,-0.198013,0.138297,0.723269,27.317513,6.170617,-94.874845
29620,1.548795,4.247792,7.357478,0.200892,-2.396292,-1.518714,-0.018932,-1.376413,1.547654,0.014652,0.042600,0.073674,0.999946,-0.000095,-0.006882,0.007738,-0.651628,-0.191858,0.144204,0.719567,27.345700,5.058630,-94.441638
29621,0.313677,4.357159,8.127481,0.058850,-1.062565,-0.647264,-0.070414,-1.054516,1.297094,0.002425,0.043617,0.081274,0.999965,-0.000352,-0.005273,0.006485,-0.655628,-0.186848,0.148623,0.716345,27.332548,4.175528,-94.052275
29622,-0.977471,4.125771,9.209334,-0.528074,0.348795,0.305963,-0.283501,-1.045532,1.019925,-0.010466,0.041336,0.091981,0.999972,-0.001417,-0.005228,0.005100,-0.658798,-0.181373,0.151983,0.714136,27.183328,3.370850,-93.801147
29623,-1.289124,3.537251,9.539234,-1.141845,0.836696,0.344357,-0.342376,-1.122289,0.703039,-0.013551,0.035489,0.095257,0.999977,-0.001712,-0.005611,0.003515,-0.660798,-0.175653,0.155088,0.713049,26.986732,2.609883,-93.729756
29624,-2.662751,3.713438,10.763239,-1.399116,2.322813,1.561482,-0.434099,-1.349548,0.395172,-0.027426,0.037314,0.107368,0.999973,-0.002170,-0.006748,0.001976,-0.661570,-0.169058,0.158339,0.713213,26.729090,1.813366,-93.871727
29625,-1.409487,2.493322,9.779857,-2.057967,1.324269,0.079596,-0.494948,-1.710332,0.136336,-0.014947,0.025165,0.097611,0.999960,-0.002475,-0.008552,0.000682,-0.661142,-0.161161,0.162337,0.714539,26.432757,0.897030,-94.234974
29626,-1.002468,3.003104,9.829912,-1.596807,1.049863,0.336017,-0.239543,-1.767644,-0.084364,-0.010880,0.030153,0.098169,0.999960,-0.001198,-0.008838,-0.000422,-0.659618,-0.154077,0.167244,0.716376,26.287943,0.006902,-94.722500
29627,-3.208592,5.125106,11.214160,-0.062878,3.337081,2.482601,-0.274783,-2.090213,-0.134257,-0.033221,0.051427,0.111728,0.999944,-0.001374,-0.010451,-0.000671,-0.657611,-0.145741,0.173036,0.718586,26.131682,-1.038577,-95.314950
29628,-0.127680,4.117637,9.337253,-0.343304,0.453119,0.376925,-0.602488,-2.393290,-0.216516,-0.002348,0.041460,0.093224,0.999923,-0.003012,-0.011966,-0.001083,-0.655196,-0.135299,0.178559,0.721477,25.802677,-2.220860,-96.021659
29629,0.272240,2.788127,8.562684,-1.169642,0.291368,-0.884570,-0.551860,-2.305546,-0.390528,0.001790,0.028113,0.085574,0.999928,-0.002759,-0.011527,-0.001953,-0.652101,-0.125465,0.183837,0.724725,25.519492,-3.319593,-96.790719
29630,0.491794,2.933921,8.376055,-0.920980,0.217758,-0.974716,-0.542239,-2.296055,-0.595052,0.004044,0.029553,0.083730,0.999926,-0.002711,-0.011480,-0.002975,-0.648171,-0.115876,0.188959,0.728520,25.262966,-4.365556,-97.659209
29631,0.570956,3.133825,8.499647,-0.742219,0.300970,-0.771280,-0.483641,-2.202494,-0.767835,0.004894,0.031524,0.084977,0.999929,-0.002418,-0.011012,-0.003839,-0.643574,-0.106955,0.193869,0.732658,25.060466,-5.325591,-98.591662
29632,-1.734130,4.512659,10.513086,0.111210,2.901915,1.388153,-0.460029,-2.263905,-0.827588,-0.018341,0.045442,0.104823,0.999925,-0.002300,-0.011319,-0.004138,-0.638590,-0.097935,0.198996,0.736894,24.891665,-6.304843,-99.568601
29633,-2.026024,4.061774,10.507102,-0.113121,3.438243,1.103411,-0.628413,-2.721275,-0.791839,-0.021524,0.041031,0.104655,0.999895,-0.003142,-0.013606,-0.003959,-0.633251,-0.086631,0.204951,0.741271,24.656054,-7.535281,-100.636010
29634,1.006306,2.966191,8.308557,-0.687801,0.395887,-0.969087,-0.700715,-2.899339,-0.922886,0.008996,0.029910,0.083117,0.999878,-0.003503,-0.014496,-0.004614,-0.627131,-0.074564,0.211089,0.746049,24.417774,-8.830063,-101.813199
29635,0.607921,2.369668,8.653116,-1.187049,1.133044,-0.971624,-0.708489,-2.780684,-1.152012,0.005014,0.023972,0.086521,0.999880,-0.003542,-0.013903,-0.005760,-0.620133,-0.063128,0.216699,0.751326,24.215426,-10.014974,-103.082171
29636,0.606904,2.714907,8.258563,-0.633639,1.179926,-1.201905,-0.777572,-2.883921,-1.375809,0.005066,0.027433,0.082557,0.999865,-0.003888,-0.014419,-0.006879,-0.612046,-0.051326,0.222232,0.757217,24.025511,-11.204043,-104.495268
29637,3.229393,1.939662,7.001215,-1.473674,-1.365157,-2.120445,-1.009005,-2.659547,-1.745213,0.031530,0.019474,0.070337,0.999861,-0.005045,-0.013297,-0.008726,-0.602703,-0.040052,0.226059,0.764227,23.759196,-12.197085,-106.053329
29638,1.462705,2.110426,8.197992,-1.181704,0.769431,-1.338618,-1.031883,-2.392609,-2.085927,0.013868,0.021380,0.082039,0.999861,-0.005159,-0.011962,-0.010429,-0.592196,-0.030111,0.228850,0.772026,23.529085,-12.976703,-107.732439
29639,2.299210,2.550754,7.834690,-0.841351,-0.082352,-1.300403,-1.140601,-2.317362,-2.284486,0.022376,0.025697,0.078462,0.999851,-0.005703,-0.011586,-0.011422,-0.580856,-0.020349,0.230915,0.780302,23.279567,-13.680040,-109.502991
29640,2.748922,3.340404,7.753942,-0.198501,-0.600885,-0.956198,-1.180316,-2.044920,-2.356745,0.027091,0.033541,0.077620,0.999861,-0.005901,-0.010224,-0.011783,-0.569385,-0.011619,0.231947,0.788585,23.019761,-14.229644,-111.250816
29641,1.795726,4.037115,8.365025,0.655780,0.358408,-0.382031,-1.349197,-1.904035,-2.354287,0.017640,0.040726,0.083545,0.999863,-0.006746,-0.009520,-0.011771,-0.557941,-0.002951,0.231861,0.796827,22.671233,-14.715964,-112.966082
29642,3.173160,3.555455,7.722883,-0.044714,-0.944522,-0.787244,-1.629087,-1.716619,-2.441730,0.031505,0.035798,0.077209,0.999855,-0.008145,-0.008583,-0.012208,-0.546213,0.005645,0.230058,0.805415,22.175220,-15.094631,-114.686309
29643,1.876101,2.642740,8.725919,-0.478889,0.865261,-0.557079,-1.683505,-1.496337,-2.502194,0.018443,0.026929,0.087173,0.999858,-0.008417,-0.007481,-0.012510,-0.534337,0.013437,0.227383,0.814003,21.653996,-15.359509,-116.390281
29644,2.937674,3.479576,8.216754,0.014116,-0.511305,-0.432378,-1.775338,-1.482206,-2.464074,0.029200,0.035164,0.082073,0.999857,-0.008876,-0.007411,-0.012320,-0.522475,0.021452,0.224216,0.822367,21.080291,-15.639096,-118.069345
29645,4.104912,2.933872,7.436756,-0.770416,-1.615492,-1.005886,-1.765468,-1.161873,-2.320992,0.040959,0.029519,0.074346,0.999877,-0.008827,-0.005809,-0.011604,-0.511422,0.028284,0.220192,0.830158,20.479219,-15.794141,-119.600103
29646,2.903839,4.641612,8.549494,1.136652,-0.860524,0.239032,-1.892325,-0.940657,-2.212433,0.029154,0.046901,0.085190,0.999883,-0.009461,-0.004703,-0.011062,-0.500924,0.034630,0.214994,0.837648,19.778054,-15.867135,-121.023470
29647,4.016511,2.380713,7.771106,-1.138835,-1.233595,-0.903662,-2.455193,-0.730676,-2.411024,0.040172,0.024276,0.077562,0.999845,-0.012275,-0.003653,-0.012055,-0.489586,0.041289,0.206903,0.846045,18.774548,-15.810542,-122.516214
29648,4.827341,0.558892,6.998999,-2.933912,-1.428991,-1.941755,-2.332472,-0.386888,-2.583965,0.048212,0.005782,0.070017,0.999847,-0.011662,-0.001934,-0.012919,-0.477747,0.045998,0.198449,0.854552,17.845347,-15.559048,-124.041771
29649,4.196472,1.695505,7.663314,-1.681112,-1.236802,-1.160799,-2.143039,-0.078682,-2.463942,0.042146,0.017257,0.076466,0.999867,-0.010715,-0.000393,-0.012319,-0.466634,0.049047,0.189995,0.862409,16.985584,-15.183593,-125.446291
29650,5.067291,2.945782,6.258690,-1.004344,-3.144667,-1.898922,-2.008310,0.233585,-2.210540,0.051072,0.029521,0.062231,0.999888,-0.010041,0.001168,-0.011052,-0.456829,0.050664,0.181274,0.869414,16.141517,-14.697632,-126.656449
29651,7.113372,4.267160,4.528035,-1.041092,-6.156208,-2.718658,-2.276438,0.921244,-2.079377,0.071782,0.042437,0.044467,0.999871,-0.011382,0.004606,-0.010396,-0.448039,0.050011,0.169751,0.876324,15.087384,-13.872469,-127.687314
29652,7.978740,3.388143,4.092645,-2.333550,-6.643682,-3.308921,-2.651570,1.877883,-1.905992,0.080486,0.033649,0.039726,0.999823,-0.013257,0.009389,-0.009529,-0.440591,0.046143,0.154339,0.883137,13.746912,-12.562340,-128.491734
29653,4.305396,1.743449,5.411062,-1.548973,-2.682101,-3.389439,-2.383629,2.565750,-1.465487,0.043871,0.017754,0.053341,0.999820,-0.011917,0.012828,-0.007327,-0.435521,0.038967,0.138446,0.888614,12.476357,-10.943745,-128.979731
29654,5.547911,4.091829,6.038246,-0.558457,-5.075663,-2.203654,-2.485110,3.033770,-1.229587,0.056634,0.041311,0.059017,0.999789,-0.012425,0.015168,-0.006148,-0.431635,0.030089,0.120980,0.893392,11.105412,-9.102513,-129.312526
29655,5.642086,0.693398,5.517258,-3.293520,-3.524593,-3.529759,-2.844505,3.706805,-1.113362,0.057469,0.007390,0.054011,0.999712,-0.014221,0.018532,-0.005566,-0.428404,0.019028,0.100381,0.897792,9.505162,-6.902158,-129.555886
29656,4.517110,-1.608035,5.036146,-4.388308,-1.595843,-4.660682,-2.282560,4.192007,-0.820688,0.046151,-0.015700,0.049582,0.999707,-0.011412,0.020958,-0.004103,-0.426536,0.004735,0.081181,0.900807,8.201223,-4.461152,-129.644466
29657,4.764069,0.285601,4.631062,-3.131408,-3.257844,-4.934506,-1.842437,4.717327,-0.539700,0.048723,0.003145,0.045142,0.999676,-0.009211,0.023584,-0.002698,-0.425893,-0.012765,0.062785,0.902502,7.137925,-1.744233,-129.583314
29658,3.975022,0.644376,4.412037,-2.419303,-3.136226,-5.342358,-1.550124,5.406529,-0.246765,0.040931,0.006730,0.042973,0.999604,-0.007750,0.027029,-0.001234,-0.426464,-0.033877,0.044216,0.902788,6.243859,1.343950,-129.355964
29659,0.176846,1.879365,6.248679,0.628557,-1.178042,-3.424089,-1.354501,5.968030,0.060415,0.003623,0.019217,0.062268,0.999532,-0.006771,0.029835,0.000302,-0.428142,-0.057861,0.025346,0.901501,5.484171,4.739190,-128.964785
29660,-3.356020,2.449755,8.193717,2.831423,0.789533,-1.110009,-1.484761,6.162783,0.242881,-0.031049,0.025071,0.082735,0.999497,-0.007423,0.030809,0.001214,-0.430291,-0.082343,0.005503,0.898910,4.680514,8.239000,-128.503609
29661,-6.440272,0.718664,9.406825,2.930152,3.690719,0.590927,-1.531578,6.022593,0.359108,-0.061547,0.007804,0.095892,0.999516,-0.007657,0.030108,0.001795,-0.432552,-0.106032,-0.014209,0.895240,3.880998,11.662138,-128.026787
29662,-7.979523,0.733060,10.011907,3.436253,4.247558,1.787120,-1.286049,5.641995,0.367122,-0.076944,0.007841,0.102267,0.999580,-0.006429,0.028206,0.001835,-0.434355,-0.128437,-0.031981,0.890964,3.237696,14.871197,-127.597882
29663,-7.524042,1.379479,9.321557,3.489890,3.089851,1.306972,-1.141215,5.269547,0.386738,-0.072779,0.014191,0.095075,0.999635,-0.005705,0.026345,0.001933,-0.435870,-0.149416,-0.048264,0.886207,2.692508,17.872523,-127.197187
29664,-6.847232,1.965469,8.206865,3.520127,2.007599,0.269755,-0.916217,5.074888,0.539015,-0.066416,0.019855,0.083681,0.999664,-0.004581,0.025372,0.002695,-0.437633,-0.169945,-0.062978,0.880698,2.317936,20.760549,-126.728325
29665,-6.881234,3.663680,7.930409,4.675995,0.682505,0.252844,-0.771836,4.997048,0.743538,-0.066941,0.036696,0.080851,0.999674,-0.003859,0.024983,0.003717,-0.439909,-0.190410,-0.076671,0.874269,2.092874,23.602850,-126.142055
29666,-6.711829,3.478067,7.283270,4.341896,0.510775,-0.270043,-0.905005,4.977952,0.990617,-0.065453,0.034788,0.074318,0.999668,-0.004525,0.024887,0.004953,-0.443109,-0.210462,-0.090617,0.866688,1.884145,26.430810,-125.399231
29667,-7.037737,2.596553,6.713875,3.692772,1.136917,-0.517434,-0.735090,5.004476,1.227863,-0.068829,0.025791,0.068779,0.999661,-0.003675,0.025020,0.006139,-0.446848,-0.230977,-0.103576,0.858049,1.883887,29.271282,-124.489456
29668,-8.194062,2.888582,7.129715,4.066662,1.312386,0.581444,-0.527334,4.950488,1.402093,-0.080345,0.028510,0.073224,0.999666,-0.002636,0.024750,0.007010,-0.450823,-0.251659,-0.115251,0.848612,2.117013,32.075626,-123.432640
29669,-9.525969,3.375340,7.678550,4.553744,1.405335,1.949985,-0.437552,4.744122,1.540937,-0.093661,0.033199,0.078947,0.999687,-0.002188,0.023718,0.007704,-0.455101,-0.271586,-0.125832,0.838624,2.521482,34.753648,-122.235651
29670,-11.525062,2.914453,8.882231,4.229485,2.138298,4.248752,-0.381004,4.256845,1.587300,-0.113554,0.028411,0.091197,0.999740,-0.001905,0.021282,0.007936,-0.459542,-0.289476,-0.134929,0.828745,3.049702,37.143667,-120.958074
29671,-12.383352,2.461963,9.692333,3.491136,2.221315,5.556204,-0.280646,3.496548,1.536582,-0.122299,0.023814,0.099037,0.999817,-0.001403,0.017482,0.007682,-0.463936,-0.304280,-0.141881,0.819784,3.672026,39.089635,-119.682837
29672,-12.075382,1.923362,10.027107,2.416655,1.842777,5.705239,-0.112219,2.616761,1.430932,-0.119562,0.018432,0.101830,0.999889,-0.000561,0.013083,0.007154,-0.468130,-0.315714,-0.146217,0.812281,4.380041,40.526082,-118.471305
29673,-9.245422,2.786339,8.948592,2.244248,-0.095265,3.159101,0.141992,1.904330,1.380653,-0.091786,0.027164,0.090381,0.999931,0.000710,0.009521,0.006903,-0.472153,-0.324746,-0.147910,0.806061,5.228970,41.544518,-117.295911
29674,-6.011315,4.188777,7.116945,2.854282,-2.049478,-0.221885,0.030803,1.738185,1.351807,-0.059773,0.041472,0.071696,0.999939,0.000154,0.008691,0.006759,-0.476302,-0.332794,-0.149682,0.799987,6.032445,42.458037,-116.116785
29675,-5.704711,3.132263,5.964534,2.151715,-1.136416,-1.326994,0.218737,1.809894,1.540121,-0.056743,0.030819,0.060194,0.999929,0.001094,0.009049,0.007700,-0.480774,-0.341661,-0.150544,0.793385,7.085460,43.384671,-114.748522
29676,-6.093026,5.007866,6.371875,3.566357,-2.075687,-0.551265,0.396439,1.907816,1.810120,-0.060767,0.049401,0.064397,0.999912,0.001982,0.009539,0.009050,-0.485865,-0.351506,-0.150444,0.785968,8.446720,44.325663,-113.107524
29677,-7.087072,5.366232,6.540866,3.897316,-1.721808,0.368098,0.212468,1.955781,1.969164,-0.070750,0.052895,0.066157,0.999903,0.001062,0.009779,0.009846,-0.491776,-0.361133,-0.150882,0.777801,9.853646,45.249527,-111.277471
29678,-7.841868,4.330680,6.657386,2.916802,-0.831514,0.928179,0.249915,1.839108,2.224871,-0.078276,0.042352,0.067347,0.999895,0.001250,0.009195,0.011124,-0.498606,-0.370534,-0.150385,0.769078,11.483929,46.046613,-109.194455
29679,-7.007085,5.538475,6.334219,3.688563,-1.735133,0.349743,0.372739,1.745733,2.520265,-0.070203,0.054382,0.064057,0.999881,0.001864,0.008728,0.012601,-0.506298,-0.380004,-0.148613,0.759719,13.406165,46.708754,-106.828584
29680,-7.139824,5.543836,6.461268,3.436200,-1.704022,0.615312,0.124629,1.796938,2.650896,-0.071540,0.054450,0.065289,0.999872,0.000623,0.008984,0.013254,-0.514798,-0.389061,-0.147612,0.749550,15.337776,47.326016,-104.283045
29681,-7.975410,4.142384,6.348683,2.127640,-0.466369,0.972535,0.213044,1.744003,2.924713,-0.079790,0.040189,0.064226,0.999854,0.001065,0.008720,0.014623,-0.524045,-0.398224,-0.145586,0.738646,17.530222,47.806506,-101.472547
29682,-8.438254,5.205440,6.768241,2.635140,-0.813961,1.870288,0.554512,1.565379,3.414254,-0.084719,0.050421,0.068486,0.999820,0.002772,0.007826,0.017070,-0.534385,-0.407867,-0.140790,0.726812,20.226738,48.018185,-98.264962
29683,-8.758499,6.526746,7.172547,3.269300,-1.250193,2.776348,0.797470,1.313346,4.194889,-0.088449,0.063130,0.072559,0.999751,0.003987,0.006566,0.020973,-0.547006,-0.417597,-0.132803,0.713274,23.467418,47.817588,-94.509313
29684,-9.924019,7.414054,8.111708,3.170880,-1.161116,4.602933,1.108477,0.984832,5.222663,-0.100721,0.071070,0.082010,0.999632,0.005542,0.004924,0.026110,-0.562528,-0.427449,-0.120559,0.697363,27.317369,47.038381,-90.142901
29685,-11.559405,8.678397,9.048123,3.146490,-0.678844,6.931333,1.246225,0.506053,6.185551,-0.117962,0.082592,0.091301,0.999499,0.006230,0.002530,0.030923,-0.580902,-0.436206,-0.104348,0.679256,31.414537,45.546806,-85.459029
29686,-12.381881,8.760040,9.478844,2.091607,0.166018,7.946459,1.094987,-0.079878,6.893210,-0.126765,0.082744,0.095200,0.999391,0.005474,-0.000399,0.034459,-0.601674,-0.442437,-0.085264,0.659521,35.260990,43.329739,-80.861907
29687,-12.889580,6.340819,9.350526,-0.962453,1.910373,7.189810,1.055891,-0.801540,7.460906,-0.131502,0.058041,0.093298,0.999282,0.005278,-0.004007,0.037296,-0.623903,-0.445804,-0.062796,0.638796,38.680054,40.384422,-76.641286
29688,-12.425670,4.146208,9.040021,-3.593644,2.897789,5.414552,1.762518,-1.560431,7.976569,-0.126458,0.035654,0.089750,0.999136,0.008810,-0.007800,0.039871,-0.645454,-0.448425,-0.034430,0.617348,42.011238,36.734962,-72.919003
29689,-12.004363,8.978274,10.236803,-1.239608,1.847710,8.196754,2.417282,-2.160669,8.521278,-0.124790,0.083297,0.102070,0.998961,0.012082,-0.010800,0.042592,-0.666085,-0.450524,-0.000848,0.594439,45.245407,32.462549,-69.659554
29690,-10.645356,12.674701,10.678108,0.545365,1.212594,9.832672,1.896289,-2.613174,9.107192,-0.113435,0.120675,0.106493,0.998833,0.009478,-0.013061,0.045518,-0.688158,-0.448568,0.034035,0.569268,47.784591,27.636955,-66.760913
29691,-7.395436,10.894531,9.934641,-0.345335,0.279236,6.671219,0.327144,-2.794863,8.646475,-0.079944,0.105413,0.098431,0.998967,0.001635,-0.013970,0.043217,-0.710890,-0.439768,0.063950,0.545115,48.957838,22.862800,-64.442725
29692,-5.031997,2.128543,8.665944,-5.511625,-0.394913,-1.187178,-1.546728,-2.653015,6.562935,-0.052138,0.020260,0.085816,0.999344,-0.007732,-0.013262,0.032807,-0.730904,-0.424632,0.083593,0.527711,48.583157,19.024282,-63.008720
29693,-7.915284,-6.202039,9.919833,-13.415750,0.912623,-5.487994,-2.029632,-2.840120,3.877644,-0.079348,-0.062554,0.098705,0.999660,-0.010147,-0.014199,0.019386,-0.744053,-0.407916,0.096840,0.520204,47.504521,16.277525,-62.716494
29694,-12.576836,-5.123564,12.259142,-16.061812,4.130286,-2.089555,-1.291667,-3.841625,2.082037,-0.127559,-0.051775,0.120486,0.999740,-0.006458,-0.019206,0.010409,-0.750091,-0.391974,0.112028,0.520739,46.548350,13.896524,-63.538097
29695,-9.537895,2.797618,11.638335,-8.889268,3.604189,2.111553,-0.880082,-4.954702,1.368582,-0.098411,0.027814,0.113848,0.999660,-0.004400,-0.024771,0.006842,-0.752393,-0.374831,0.130980,0.525596,45.703859,11.357041,-65.074599
29696,-2.620584,7.827176,8.993052,-0.965172,0.110779,2.354105,-1.649662,-5.313747,0.919478,-0.028932,0.078877,0.088537,0.999602,-0.008247,-0.026565,0.004597,-0.754162,-0.353873,0.148323,0.532929,44.438213,8.827441,-66.882101
29697,-1.187556,6.535865,7.154945,-0.140458,-0.184356,-0.053202,-2.492007,-5.056748,0.549191,-0.013846,0.066204,0.070394,0.999599,-0.012458,-0.025280,0.002746,-0.756025,-0.330409,0.161677,0.541403,42.768097,6.505873,-68.664387
29698,-2.173991,3.365360,6.808645,-2.434444,0.662849,-2.327445,-2.521007,-4.812852,0.312386,-0.023416,0.034468,0.067105,0.999630,-0.012603,-0.024061,0.001562,-0.756904,-0.307437,0.173516,0.549973,41.158010,4.329627,-70.378645
29699,-2.025092,3.255361,7.422186,-2.717611,0.740960,-1.949000,-2.321646,-4.732174,0.016183,-0.021996,0.033407,0.073331,0.999653,-0.011607,-0.023658,0.000081,-0.756191,-0.285472,0.185017,0.558972,39.722881,2.253776,-72.128948
29700,-3.207950,4.316302,9.383642,-3.315587,2.108642,0.262539,-2.237366,-4.754674,-0.485910,-0.034183,0.044285,0.092549,0.999652,-0.011186,-0.023771,-0.002429,-0.753405,-0.264032,0.195990,0.569435,38.393764,0.308131,-74.057781
29701,-6.954085,5.399547,11.483092,-4.450121,6.171506,2.492797,-2.675488,-5.330557,-1.192023,-0.072225,0.055933,0.112190,0.999538,-0.013375,-0.026649,-0.005959,-0.748013,-0.239776,0.206796,0.583283,36.885458,-1.699489,-76.459343
29702,-5.461951,3.379978,9.839038,-4.232463,5.163250,-0.146350,-3.066988,-6.045911,-1.895071,-0.057216,0.035820,0.096148,0.999381,-0.015332,-0.030223,-0.009473,-0.739490,-0.212445,0.218059,0.600393,35.264910,-3.864901,-79.375315
29703,0.121283,2.208029,5.893006,-1.564291,0.153928,-3.718708,-2.983747,-6.048786,-2.502114,-0.000279,0.022954,0.058599,0.999353,-0.014916,-0.030237,-0.012508,-0.728118,-0.185800,0.228671,0.618896,33.819359,-5.912920,-82.527736
29704,1.215699,3.192912,5.872359,-0.500404,-0.473446,-3.054232,-2.627223,-5.456018,-2.630757,0.010982,0.032550,0.058609,0.999455,-0.013134,-0.027275,-0.013151,-0.715825,-0.162216,0.237822,0.636177,32.663462,-7.705522,-85.517999
29705,2.530660,4.829333,5.461111,1.258799,-1.368761,-2.323366,-2.407465,-4.888283,-2.339444,0.024539,0.048661,0.054633,0.999560,-0.012036,-0.024438,-0.011696,-0.704252,-0.140712,0.245656,0.651062,31.673101,-9.368487,-88.168036
29706,4.770567,4.790520,5.042101,1.533630,-3.491021,-2.290098,-2.416655,-4.072118,-2.003004,0.047155,0.048043,0.050805,0.999670,-0.012082,-0.020358,-0.010014,-0.694240,-0.121314,0.250622,0.663704,30.671380,-10.774871,-90.386562
29707,2.287720,3.827948,6.449848,0.044716,-0.767165,-2.009224,-2.211144,-3.359471,-1.695864,0.022122,0.038802,0.064447,0.999762,-0.011055,-0.016796,-0.008479,-0.685620,-0.104535,0.253853,0.674208,29.762659,-11.954582,-92.225766
29708,2.427976,3.599021,6.722816,-0.193449,-0.714303,-1.844377,-2.155764,-3.034996,-1.652591,0.023560,0.036518,0.067198,0.999793,-0.010778,-0.015174,-0.008262,-0.677224,-0.088941,0.256057,0.684026,28.892680,-13.011106,-93.938067
29709,1.695917,3.355915,7.554409,-0.630426,0.320556,-1.404114,-2.057809,-2.730328,-1.813241,0.016237,0.034186,0.075419,0.999813,-0.010288,-0.013651,-0.009066,-0.668357,-0.074888,0.257403,0.693855,28.105112,-13.895442,-95.638829
29710,1.142203,3.632528,8.125948,-0.434260,1.144095,-0.922832,-2.162617,-2.698216,-2.070456,0.010709,0.037089,0.081009,0.999797,-0.010812,-0.013490,-0.010352,-0.658418,-0.060900,0.258070,0.704398,27.310699,-14.716730,-97.458730
29711,1.055046,2.964783,7.848575,-0.738840,1.274214,-1.486197,-2.036171,-2.628464,-2.258750,0.009860,0.030332,0.078312,0.999798,-0.010180,-0.013141,-0.011293,-0.647601,-0.047790,0.258802,0.715088,26.633771,-15.477040,-99.355151
29712,1.517957,3.712973,7.645268,0.100362,0.852528,-1.221930,-2.193882,-2.566882,-2.441940,0.014659,0.037786,0.076231,0.999783,-0.010969,-0.012833,-0.012209,-0.635976,-0.034609,0.258606,0.726265,25.910196,-16.180483,-101.329822
29713,1.588214,2.245916,7.493102,-1.038256,0.908489,-1.950914,-2.157383,-2.313875,-2.590410,0.015312,0.023066,0.074864,0.999791,-0.010786,-0.011569,-0.012951,-0.623860,-0.022637,0.257615,0.737510,25.232887,-16.740699,-103.316709
29714,1.053371,3.190387,8.004358,-0.086788,1.575250,-1.276516,-2.238979,-2.205018,-2.746641,0.010098,0.032657,0.079794,0.999782,-0.011194,-0.011024,-0.013732,-0.611054,-0.011006,0.255842,0.749024,24.541298,-17.228263,-105.359059
29715,1.477059,2.284238,7.661302,-0.736134,1.216569,-1.808271,-2.485669,-2.001896,-3.088206,0.014365,0.023569,0.076468,0.999753,-0.012427,-0.010009,-0.015440,-0.596958,0.000189,0.252401,0.761535,23.763795,-17.555675,-107.536715
29716,1.429468,2.145350,7.578013,-0.654166,1.279315,-1.938359,-2.806324,-1.843792,-3.652002,0.013999,0.022258,0.075602,0.999692,-0.014030,-0.009218,-0.018258,-0.580586,0.011025,0.247113,0.775715,22.891806,-17.700655,-109.985221
29717,1.568691,2.164920,7.494808,-0.487624,1.110887,-1.948492,-3.050418,-1.610902,-4.220495,0.015553,0.022461,0.074735,0.999629,-0.015250,-0.008054,-0.021100,-0.561888,0.020958,0.240081,0.791330,21.962020,-17.635873,-112.694504
29718,3.484329,3.583494,5.383030,0.666845,-1.859554,-2.737726,-3.386737,-1.304047,-4.664513,0.035331,0.035922,0.053452,0.999563,-0.016931,-0.006519,-0.023319,-0.541317,0.030071,0.230693,0.807993,20.883947,-17.358520,-115.582483
29719,8.086912,5.072831,1.571180,0.669636,-7.969718,-4.370440,-3.913046,-0.335084,-5.017783,0.082087,0.048975,0.014879,0.999493,-0.019562,-0.001675,-0.025085,-0.519845,0.036260,0.216410,0.825599,19.478487,-16.551123,-118.466357
29720,11.084871,5.342497,-0.679318,-0.582135,-11.633613,-5.794145,-4.644743,1.238072,-5.225782,0.112141,0.050319,-0.008678,0.999370,-0.023219,0.006189,-0.026123,-0.498496,0.037593,0.194800,0.843885,17.546315,-14.931384,-121.175185
29721,9.401765,3.357069,1.142909,-2.178519,-8.855192,-5.596607,-4.865536,2.934017,-4.983343,0.094966,0.031455,0.009258,0.999286,-0.024322,0.014667,-0.024911,-0.479109,0.032506,0.167737,0.860966,15.304938,-12.515409,-123.498201
29722,3.233565,1.840263,4.812153,-0.734714,-2.142776,-4.168384,-4.495929,3.864159,-4.105540,0.033635,0.018787,0.047060,0.999350,-0.022475,0.019317,-0.020523,-0.463688,0.023233,0.139665,0.874612,13.065070,-9.797245,-125.262722
29723,1.834329,1.799996,4.396979,0.022377,-1.403416,-4.917698,-3.711555,4.107992,-2.805816,0.019494,0.018539,0.043236,0.999518,-0.018555,0.020537,-0.014027,-0.453686,0.011946,0.114148,0.883740,11.093905,-7.162781,-126.347326
29724,5.509674,3.646844,2.127691,-0.529983,-6.096590,-6.538697,-3.316783,4.750454,-1.920435,0.055921,0.036266,0.019352,0.999534,-0.016581,0.023749,-0.009601,-0.447556,-0.002570,0.088759,0.889836,9.248285,-4.294109,-126.945899
29725,3.574602,-0.046388,1.854222,-2.352235,-2.593433,-7.824032,-3.253935,5.745107,-1.266024,0.036256,-0.000402,0.017512,0.999435,-0.016267,0.028720,-0.006329,-0.444317,-0.021368,0.061340,0.893512,7.389951,-0.935273,-127.180806
29726,1.649401,-1.094034,1.960683,-2.063481,-0.541118,-8.021273,-1.989642,6.279111,-0.525537,0.017072,-0.010792,0.019185,0.999454,-0.009946,0.031390,-0.002627,-0.443922,-0.045094,0.038399,0.894106,6.247271,2.667824,-127.045792
29727,0.434777,3.088955,3.731355,1.702887,-2.221003,-5.835896,-1.522437,6.845330,0.043646,0.005609,0.031173,0.036899,0.999385,-0.007611,0.034220,0.000218,-0.445558,-0.072241,0.016368,0.892184,5.405212,6.564349,-126.614563
29728,-4.794943,2.987503,6.511924,4.153189,1.578568,-2.426502,-1.632152,7.176786,0.390040,-0.045637,0.030324,0.066539,0.999321,-0.008159,0.035876,0.001950,-0.448231,-0.100483,-0.006779,0.888226,4.554107,10.636654,-126.021521
29729,-9.290487,1.699046,9.298025,4.923667,5.105639,1.380109,-1.613312,6.858640,0.629918,-0.089702,0.017471,0.095954,0.999375,-0.008065,0.034286,0.003149,-0.451385,-0.127249,-0.029008,0.882733,3.770850,14.527264,-125.353430
29730,-9.448222,0.829259,9.580329,3.857528,5.075986,2.063169,-1.378974,6.235889,0.799322,-0.091470,0.008597,0.098628,0.999482,-0.006894,0.031174,0.003996,-0.454713,-0.151665,-0.048651,0.876280,3.175447,18.062111,-124.644429
29731,-7.264508,0.626434,8.487071,2.385206,3.172876,0.646972,-1.086490,5.880693,0.908065,-0.070138,0.006411,0.086923,0.999543,-0.005432,0.029399,0.004540,-0.457937,-0.175080,-0.066083,0.869065,2.800522,21.397435,-123.898505
29732,-7.896274,0.821528,8.213119,2.589755,3.135341,0.860173,-0.773571,5.715580,1.033993,-0.076616,0.008138,0.084312,0.999571,-0.003867,0.028574,0.005169,-0.461085,-0.198377,-0.081605,0.861039,2.674048,24.637350,-123.078050
29733,-9.100361,1.465681,8.828779,3.176699,3.006876,2.176547,-0.691372,5.442367,1.149701,-0.088641,0.014453,0.090671,0.999607,-0.003456,0.027208,0.005748,-0.464380,-0.220575,-0.095965,0.852343,2.672196,27.719187,-122.175041
29734,-9.509071,1.021345,8.750855,2.632826,3.096193,2.495417,-0.752439,5.139590,1.174422,-0.092860,0.009999,0.089876,0.999646,-0.003762,0.025695,0.005871,-0.467647,-0.241189,-0.109782,0.843257,2.693293,30.627036,-121.239295
29735,-11.160776,0.028736,9.765921,1.824461,3.926069,4.370181,-0.649684,4.681592,1.203058,-0.109282,-0.000052,0.100235,0.999703,-0.003248,0.023406,0.006015,-0.470857,-0.259971,-0.121990,0.834163,2.831303,33.270752,-120.267327
29736,-12.538300,0.923184,11.622780,2.159738,3.104605,6.884934,-0.555536,3.917816,1.102465,-0.123124,0.008876,0.118630,0.999789,-0.002777,0.019588,0.005512,-0.473751,-0.275602,-0.132078,0.825929,3.023945,35.478687,-119.355476
29737,-12.350749,0.233863,12.041909,1.018938,2.662106,7.200734,-0.756563,2.974405,0.845208,-0.121708,0.002282,0.122229,0.999873,-0.003783,0.014871,0.004226,-0.476323,-0.286592,-0.141071,0.819195,3.012878,37.152652,-118.635242
29738,-9.868416,-0.655407,11.076763,-0.582788,1.504752,4.948644,-0.667458,2.176941,0.558900,-0.097452,-0.006455,0.111855,0.999931,-0.003337,0.010884,0.002794,-0.478063,-0.294281,-0.148185,0.814184,2.929926,38.380498,-118.139836
29739,-6.966960,0.456944,9.622505,-0.324490,-0.533683,2.059390,-0.408726,1.774275,0.451166,-0.068823,0.004611,0.096829,0.999956,-0.002044,0.008871,0.002256,-0.479230,-0.300825,-0.153423,0.810126,2.947448,39.380106,-117.732233
29740,-5.827895,2.240569,9.105754,0.901076,-2.080683,0.992667,-0.308234,1.695767,0.529276,-0.057564,0.022394,0.091513,0.999959,-0.001541,0.008479,0.002646,-0.480579,-0.307337,-0.157938,0.806005,3.068184,40.333306,-117.262035
29741,-5.486718,3.219031,8.483953,1.764398,-2.582101,0.319510,-0.301637,1.740004,0.724350,-0.054243,0.032121,0.085265,0.999954,-0.001508,0.008700,0.003622,-0.482630,-0.314160,-0.162216,0.801285,3.303045,41.303242,-116.632008
29742,-6.447144,3.469554,8.300700,2.280126,-2.077951,0.816809,-0.409498,1.795440,0.934280,-0.063885,0.034567,0.083511,0.999947,-0.002047,0.008977,0.004671,-0.485598,-0.321094,-0.166714,0.795801,3.604440,42.296404,-115.822233
29743,-6.905706,3.209016,8.430008,2.049812,-1.843427,1.207724,-0.378236,1.739704,1.085269,-0.068494,0.031878,0.084837,0.999946,-0.001891,0.008698,0.005426,-0.489111,-0.327963,-0.170692,0.789984,4.025376,43.247129,-114.877164
29744,-6.143819,2.970787,7.212892,1.926982,-1.625534,-0.208491,-0.425952,1.796438,1.211575,-0.060966,0.029492,0.072615,0.999939,-0.002130,0.008982,0.006058,-0.493097,-0.335020,-0.174767,0.783628,4.520951,44.220149,-113.802355
29745,-7.347104,3.184472,7.028172,2.407902,-0.917926,0.525247,-0.227039,1.820333,1.372201,-0.073044,0.031423,0.070912,0.999934,-0.001135,0.009101,0.006861,-0.497294,-0.342749,-0.177833,0.776915,5.256933,45.189741,-112.565358
29746,-7.536631,4.371884,7.041868,3.375489,-1.410877,0.775772,-0.336738,1.765437,1.497120,-0.075066,0.043275,0.071009,0.999932,-0.001684,0.008827,0.007485,-0.502149,-0.350068,-0.180945,0.769778,6.044088,46.109961,-111.190400
29747,-7.332406,3.313848,6.373336,2.473806,-0.737346,0.122087,-0.463956,1.763130,1.652674,-0.073030,0.032683,0.064302,0.999924,-0.002320,0.008815,0.008263,-0.507752,-0.357137,-0.184248,0.762032,6.895073,47.004281,-109.646576
29748,-6.758482,3.160446,5.702350,2.306398,-0.679140,-0.735265,-0.434157,1.868444,1.729305,-0.067319,0.031146,0.057585,0.999917,-0.002171,0.009342,0.008646,-0.513420,-0.364710,-0.187529,0.753803,7.873767,47.936397,-107.977170
29749,-7.060265,2.750137,5.192235,2.021968,-0.055334,-0.853034,-0.192188,1.996435,1.957829,-0.070345,0.026862,0.052599,0.999902,-0.000961,0.009982,0.009789,-0.519290,-0.373520,-0.189786,0.744850,9.208922,48.898029,-106.039575
29750,-7.542259,5.011242,5.486358,3.876308,-0.880415,0.000202,0.057258,2.053437,2.294012,-0.075422,0.049231,0.055652,0.999881,0.000286,0.010267,0.011470,-0.525784,-0.383443,-0.190580,0.734984,10.997218,49.823207,-103.722850
29751,-8.450872,6.194518,5.857846,4.725626,-1.021037,1.174694,-0.028907,1.949465,2.781512,-0.084783,0.060776,0.059395,0.999856,-0.000145,0.009747,0.013907,-0.534190,-0.393106,-0.190444,0.723768,13.135594,50.579057,-100.912909
29752,-7.620848,7.419991,4.985241,5.786737,-1.307063,0.325324,0.222370,1.807131,3.736506,-0.077121,0.072709,0.050628,0.999784,0.001112,0.009035,0.018681,-0.545506,-0.403709,-0.187058,0.710248,16.133599,51.036682,-97.206724
29753,-8.482565,9.129651,5.142984,6.982882,-1.271893,1.647814,0.595187,1.670989,5.113537,-0.086685,0.088941,0.052416,0.999634,0.002976,0.008354,0.025565,-0.560761,-0.415878,-0.179103,0.693192,20.290379,51.026287,-92.294895
29754,-9.898790,10.225088,5.985574,7.124003,-1.002647,3.845374,0.781105,1.434280,6.234997,-0.101671,0.098872,0.060969,0.999481,0.003905,0.007170,0.031170,-0.579236,-0.428404,-0.167327,0.673021,25.165542,50.398273,-86.574356
29755,-11.366690,9.018519,6.851634,4.848631,0.042084,5.480732,0.560477,1.054185,6.752367,-0.116256,0.086095,0.069370,0.999412,0.002802,0.005270,0.033755,-0.599591,-0.438947,-0.153922,0.651248,29.877330,49.139757,-80.820348
29756,-11.991052,6.853174,7.033582,1.867373,1.233277,5.521499,0.474747,0.486970,6.846568,-0.121986,0.064211,0.070787,0.999408,0.002373,0.002434,0.034226,-0.620176,-0.446964,-0.138678,0.629582,34.049850,47.291169,-75.590440
29757,-11.409964,5.065004,7.589482,-0.711523,1.171243,4.730291,0.512970,-0.080693,6.796330,-0.115759,0.046540,0.075971,0.999419,0.002564,-0.000403,0.033975,-0.640172,-0.452727,-0.121530,0.608645,37.602272,44.967072,-71.066858
29758,-11.503890,2.807571,7.067693,-3.337769,2.289583,3.367811,1.102488,-0.681259,6.754758,-0.116131,0.023777,0.070422,0.999409,0.005511,-0.003406,0.033767,-0.658326,-0.458015,-0.100589,0.588822,40.860261,42.207592,-67.258592
29759,-10.682845,5.176637,8.291224,-2.352919,0.939373,4.441222,1.569634,-1.197042,6.495335,-0.108915,0.047602,0.082649,0.999424,0.007847,-0.005984,0.032470,-0.674128,-0.462630,-0.077080,0.570599,43.730580,39.188717,-64.231544
29760,-10.652407,7.410385,9.249705,-1.696662,0.537679,6.020644,1.296662,-1.696548,6.176024,-0.109514,0.070155,0.092040,0.999466,0.006482,-0.008481,0.030875,-0.689095,-0.464285,-0.053291,0.553848,45.883551,35.996248,-61.920107
29761,-11.580411,6.858691,9.789157,-3.535059,1.438686,6.383656,0.761897,-2.368843,5.964911,-0.118923,0.064701,0.096747,0.999478,0.003809,-0.011842,0.029819,-0.704164,-0.461665,-0.029128,0.538674,47.248771,32.574485,-60.265214
29762,-10.574884,4.247418,9.639933,-5.771625,1.443716,3.874360,0.428357,-3.151943,5.576454,-0.108376,0.039272,0.094791,0.999485,0.002141,-0.015757,0.027877,-0.718338,-0.455245,-0.003946,0.526049,47.984861,28.988353,-59.305074
29763,-8.025745,1.160821,8.726214,-7.001865,0.559066,-0.193161,0.358330,-3.684526,4.730332,-0.082089,0.009526,0.085779,0.999549,0.001791,-0.018420,0.023648,-0.729759,-0.446694,0.021017,0.517179,48.309400,25.554340,-59.036057
29764,-7.899329,0.909913,8.896864,-7.512605,0.803929,-0.578736,0.473050,-4.062278,3.592987,-0.080922,0.007449,0.087357,0.999630,0.002365,-0.020309,0.017963,-0.737340,-0.437352,0.045118,0.512852,48.415282,22.461302,-59.438097
29765,-8.215222,3.246133,8.901987,-6.228159,1.790017,0.922466,0.469357,-4.491976,2.529893,-0.084525,0.031196,0.087213,0.999665,0.002347,-0.022457,0.012648,-0.741587,-0.426809,0.068418,0.513033,48.311412,19.661219,-60.463744
29766,-7.600600,4.174313,8.828733,-5.420500,2.027742,1.123972,-0.023844,-5.045973,1.810204,-0.078574,0.041050,0.086321,0.999641,-0.000119,-0.025227,0.009050,-0.744330,-0.412977,0.090935,0.516869,47.814467,16.950129,-61.994686
29767,-3.103000,4.803785,7.784753,-2.489212,-0.595285,-0.499434,-0.336463,-5.195496,1.117910,-0.033305,0.047986,0.076921,0.999646,-0.001682,-0.025974,0.005589,-0.745333,-0.397603,0.111695,0.523369,47.123263,14.458987,-63.820008
29768,-3.255692,6.783906,8.229754,-1.516982,0.086454,1.233580,-0.701378,-5.004537,0.632643,-0.034813,0.068017,0.081207,0.999676,-0.003507,-0.025020,0.003163,-0.745387,-0.381379,0.129754,0.531142,46.283466,12.221956,-65.705346
29769,-3.925258,8.089766,9.047981,-1.360148,1.057376,2.825439,-1.251620,-5.008691,0.369009,-0.041643,0.081382,0.088948,0.999665,-0.006257,-0.025041,0.001845,-0.745299,-0.363003,0.145773,0.539915,45.186983,10.060795,-67.645795
29770,-3.387022,7.509888,8.880828,-1.364089,1.110587,2.171357,-1.836493,-5.094252,0.137516,-0.036157,0.075880,0.087212,0.999633,-0.009181,-0.025468,0.000687,-0.745057,-0.342140,0.160014,0.549751,43.817443,7.917407,-69.656166
29771,-4.041608,6.721460,9.549531,-2.383120,1.947785,2.153908,-2.212239,-5.135454,-0.173005,-0.042778,0.068294,0.093666,0.999609,-0.011060,-0.025674,-0.000865,-0.744009,-0.319743,0.172718,0.560699,42.295042,5.828570,-71.748462
29772,-4.429176,5.061989,9.047956,-3.152190,2.767048,0.650557,-2.493898,-5.437844,-0.494588,-0.046591,0.051846,0.088592,0.999550,-0.012468,-0.027185,-0.002473,-0.741618,-0.295470,0.185098,0.573096,40.673743,3.676413,-74.028173
29773,-0.100171,3.021354,6.840051,-1.945983,-0.751897,-2.632162,-2.353323,-5.403026,-0.702999,-0.002734,0.031023,0.067980,0.999560,-0.011765,-0.027011,-0.003514,-0.737796,-0.271737,0.197278,0.585574,39.216156,1.555290,-76.322610
29774,1.536637,3.939384,5.980663,-0.287204,-1.717699,-2.698700,-1.971705,-4.832061,-0.758867,0.014073,0.039928,0.059765,0.999652,-0.009857,-0.024158,-0.003794,-0.733270,-0.250931,0.208235,0.596646,38.060813,-0.340980,-78.386624
29775,1.750619,5.503909,6.416477,0.743710,-1.463249,-1.337495,-1.931928,-4.186379,-0.608281,0.016334,0.055607,0.063980,0.999730,-0.009659,-0.020930,-0.003041,-0.729365,-0.231876,0.217007,0.605944,36.985558,-2.037125,-80.119846
29776,1.975381,4.372530,6.539859,-0.112792,-1.626774,-1.867467,-1.901219,-3.619246,-0.339953,0.018646,0.044314,0.065323,0.999790,-0.009505,-0.018095,-0.001700,-0.726498,-0.214256,0.224009,0.613282,35.960628,-3.594030,-81.506273
29777,2.563649,3.014724,6.279164,-0.898563,-2.188918,-2.778055,-1.743449,-3.104317,-0.204230,0.024692,0.030670,0.062914,0.999841,-0.008717,-0.015521,-0.001021,-0.724189,-0.198548,0.229689,0.619170,35.041701,-4.979902,-82.632901
29778,1.229146,2.654490,7.604676,-2.067614,-0.725048,-1.965181,-1.540404,-2.626705,-0.301833,0.011334,0.027113,0.075992,0.999883,-0.007702,-0.013133,-0.001509,-0.721722,-0.185116,0.234106,0.624534,34.251862,-6.124974,-83.630760
29779,-1.159636,2.945753,8.788559,-2.665713,1.928076,-1.070163,-1.451304,-2.602134,-0.481003,-0.012665,0.030123,0.087508,0.999886,-0.007256,-0.013010,-0.002405,-0.718477,-0.172243,0.238494,0.630273,33.539552,-7.214506,-84.693343
29780,-0.417288,3.171423,8.898733,-2.340009,1.463582,-0.768584,-1.598429,-2.711290,-0.798585,-0.005248,0.032443,0.088664,0.999868,-0.007992,-0.013556,-0.003993,-0.714050,-0.158838,0.242474,0.637267,32.786449,-8.269655,-85.932554
29781,-1.234969,3.410353,9.004003,-2.102164,2.538331,-0.682571,-1.610313,-2.776924,-1.131776,-0.013400,0.034900,0.089580,0.999855,-0.008051,-0.013884,-0.005659,-0.708294,-0.145539,0.246323,0.645340,32.074911,-9.270402,-87.344669
29782,-1.401161,3.654593,9.140161,-1.786646,2.973292,-0.494901,-1.847952,-3.001748,-1.380481,-0.015121,0.037489,0.090837,0.999821,-0.009239,-0.015008,-0.006902,-0.701401,-0.130934,0.249932,0.654543,31.282798,-10.323214,-88.939132
29783,1.510408,1.935847,6.435287,-1.641243,-0.266187,-3.128811,-1.926340,-3.006806,-1.631853,0.014297,0.019860,0.064382,0.999807,-0.009631,-0.015033,-0.008159,-0.693471,-0.116300,0.253052,0.664483,30.496426,-11.327085,-90.651275
29784,0.759998,3.354532,7.227883,-0.707622,0.883929,-1.888789,-1.773588,-2.614542,-1.869343,0.006974,0.034118,0.072072,0.999832,-0.008867,-0.013072,-0.009346,-0.684908,-0.103761,0.255080,0.674588,29.822061,-12.088453,-92.360200
29785,-0.129126,3.235347,7.715582,-0.863539,1.967785,-1.726122,-2.012545,-2.581917,-2.079319,-0.001942,0.033145,0.076803,0.999812,-0.010062,-0.012909,-0.010396,-0.675559,-0.090741,0.256001,0.685456,29.052925,-12.796590,-94.161854
29786,1.282411,2.102006,6.623925,-1.302090,0.412162,-2.879286,-2.078931,-2.453241,-2.393673,0.012268,0.021559,0.066170,0.999799,-0.010394,-0.012265,-0.011968,-0.665066,-0.078307,0.256004,0.697149,28.291798,-13.375719,-96.083963
29787,0.440610,2.050613,7.329011,-1.448121,1.506582,-2.481650,-2.026097,-2.220150,-2.710809,0.003878,0.021193,0.073123,0.999795,-0.010130,-0.011100,-0.013553,-0.653475,-0.067233,0.255202,0.709452,27.600701,-13.776721,-98.103189
29788,0.123796,4.121826,7.949015,0.349964,2.004762,-1.092196,-2.138987,-2.172869,-3.024090,0.001009,0.042049,0.079055,0.999769,-0.010694,-0.010864,-0.015119,-0.640588,-0.056331,0.253613,0.722602,26.891853,-14.094026,-100.271672
29789,0.300939,2.735976,7.621384,-0.592586,1.832846,-1.942007,-2.556094,-2.081177,-3.436371,0.002699,0.028283,0.075885,0.999717,-0.012779,-0.010405,-0.017180,-0.626116,-0.044915,0.249993,0.737201,26.001753,-14.289802,-102.632080
29790,0.348878,2.803934,7.738176,-0.384802,1.834911,-1.791159,-2.498515,-1.970996,-3.722783,0.003261,0.028941,0.077057,0.999700,-0.012491,-0.009854,-0.018612,-0.610350,-0.034421,0.246012,0.752174,25.179412,-14.390343,-105.115038
29791,1.289149,4.679745,7.816785,1.227365,0.682694,-0.719385,-2.775522,-1.812953,-3.924557,0.013115,0.047621,0.077629,0.999670,-0.013876,-0.009064,-0.019621,-0.593682,-0.023899,0.240337,0.767599,24.219122,-14.399293,-107.666360
29792,2.169995,3.556576,6.539830,0.514774,-0.462052,-2.089533,-3.182331,-1.510717,-4.154008,0.021955,0.036148,0.064991,0.999629,-0.015910,-0.007553,-0.020767,-0.576132,-0.013592,0.231987,0.783625,23.033434,-14.241489,-110.268497
29793,4.575585,4.117205,4.866258,0.725611,-3.487789,-2.821704,-3.640642,-0.929712,-4.596478,0.046475,0.040989,0.048130,0.999559,-0.018201,-0.004648,-0.022979,-0.557086,-0.004739,0.219971,0.800778,21.598998,-13.738776,-112.981606
29794,6.612312,4.389405,3.827259,0.328784,-5.941663,-3.315407,-4.709291,0.054379,-5.478239,0.067319,0.042946,0.037236,0.999348,-0.023541,0.000272,-0.027385,-0.535013,0.002183,0.200659,0.820666,19.578242,-12.608853,-115.981327
29795,7.931443,1.637599,2.822499,-2.709773,-6.617854,-5.079555,-5.706962,1.256005,-6.371905,0.079972,0.014622,0.027290,0.999066,-0.028526,0.006278,-0.031850,-0.509621,0.005946,0.173752,0.842652,16.972958,-10.784554,-119.284220
29796,6.478241,0.153664,4.116592,-3.764440,-4.413479,-4.784635,-5.601735,2.461764,-6.511231,0.065311,0.000553,0.040339,0.999002,-0.027999,0.012305,-0.032545,-0.483710,0.004236,0.143876,0.863311,14.299299,-8.424301,-122.535062
29797,4.126554,0.468161,5.477644,-2.557725,-2.397176,-3.900124,-4.694667,3.190932,-5.441095,0.042261,0.004814,0.053995,0.999227,-0.023467,0.015951,-0.027198,-0.462103,-0.002058,0.115883,0.879220,11.933982,-5.939642,-125.170083
29798,2.056659,5.478744,5.927286,2.558068,-3.695093,-2.801244,-3.393734,3.610003,-3.710744,0.022644,0.055371,0.057940,0.999521,-0.016966,0.018047,-0.018551,-0.447752,-0.012182,0.092502,0.889277,10.122732,-3.506978,-126.860063
29799,1.246057,7.893911,6.522830,4.808207,-4.842989,-2.078869,-3.590251,3.906322,-2.275978,0.014618,0.079932,0.063528,0.999583,-0.017949,0.019529,-0.011378,-0.439527,-0.022521,0.067596,0.895399,8.098391,-1.093783,-127.787158
29800,2.550576,0.487379,4.530165,-1.643278,-1.970616,-5.265611,-3.146761,4.329337,-1.128857,0.026507,0.005432,0.044652,0.999626,-0.015732,0.021644,-0.005644,-0.436182,-0.035313,0.043822,0.898097,6.289595,1.444037,-128.111348
29801,-1.178514,2.463846,7.739892,1.814111,-0.412830,-1.819526,-2.056455,4.604094,-0.344350,-0.009960,0.025452,0.077383,0.999681,-0.010281,0.023018,-0.001722,-0.435925,-0.051531,0.024451,0.898174,5.110480,4.085768,-128.038686
29802,-1.266830,2.171233,7.337990,1.592645,-0.531475,-2.240685,-2.008336,4.537653,0.037463,-0.011007,0.022447,0.073419,0.999692,-0.010041,0.022686,0.000187,-0.437090,-0.067465,0.005527,0.896867,3.977255,6.671824,-127.803364
29803,2.350831,0.961202,4.932220,-1.330173,-2.796420,-5.210408,-1.545875,4.927631,0.323669,0.024697,0.010029,0.048647,0.999665,-0.007729,0.024635,0.001618,-0.439110,-0.086118,-0.012085,0.894215,3.139319,9.475712,-127.432407
29804,0.844823,3.032414,5.479791,1.042951,-3.188652,-4.457886,-1.227445,5.672993,0.564867,0.009908,0.030685,0.054343,0.999575,-0.006136,0.028361,0.002824,-0.441695,-0.108739,-0.029792,0.890053,2.527885,12.702200,-126.932168
29805,-3.847349,2.822155,7.362729,3.146086,-0.013970,-1.623677,-1.281135,6.056767,0.801717,-0.036339,0.028549,0.074567,0.999513,-0.006405,0.030279,0.004008,-0.444901,-0.132896,-0.048433,0.884339,1.944234,16.149613,-126.311228
29806,-6.460476,2.030942,8.424226,3.519143,1.831675,0.240176,-1.086146,5.989256,1.053106,-0.062154,0.020442,0.086017,0.999523,-0.005430,0.029942,0.005265,-0.448679,-0.157111,-0.065841,0.877308,1.548255,19.557459,-125.560282
29807,-6.671159,2.759159,8.538264,3.865639,1.076023,0.622319,-0.878426,5.831487,1.281178,-0.064364,0.027554,0.087161,0.999545,-0.004391,0.029153,0.006405,-0.452926,-0.181039,-0.081751,0.869137,1.361316,22.876793,-124.674626
29808,-6.295326,2.990364,7.648858,3.744662,0.507550,-0.180699,-0.860291,5.824904,1.502069,-0.060917,0.029775,0.078154,0.999538,-0.004301,0.029120,0.007509,-0.457706,-0.204900,-0.097284,0.859684,1.296311,26.190287,-123.635759
29809,-7.954035,2.530665,7.943798,3.762889,1.481309,0.975710,-0.801088,5.847641,1.674598,-0.077385,0.024977,0.081621,0.999530,-0.004005,0.029234,0.008372,-0.462727,-0.228891,-0.112357,0.849040,1.385238,29.515299,-122.454337
29810,-9.401439,1.960752,8.023604,3.525986,2.367700,1.957279,-0.685087,5.734660,1.794945,-0.091837,0.019057,0.082824,0.999543,-0.003425,0.028669,0.008973,-0.467763,-0.252527,-0.126423,0.837523,1.668414,32.769902,-121.142024
29811,-12.971803,1.473894,9.883408,3.588732,3.837382,5.693920,-0.471989,5.317864,1.758866,-0.127155,0.013852,0.102205,0.999605,-0.002360,0.026586,0.008793,-0.472241,-0.274678,-0.138571,0.826038,2.154455,35.779399,-119.791777
29812,-15.328909,2.075268,12.429867,3.650158,3.361438,9.399297,-0.411466,4.341761,1.613636,-0.150706,0.019790,0.127548,0.999730,-0.002057,0.021707,0.008067,-0.476402,-0.292665,-0.148263,0.815725,2.697232,38.223754,-118.493434
29813,-14.668237,1.210233,12.945678,1.984551,2.557977,9.518620,-0.479651,3.133158,1.330728,-0.144708,0.011449,0.131706,0.999852,-0.002398,0.015665,0.006653,-0.480202,-0.305222,-0.155716,0.807464,3.116831,39.975620,-117.385884
29814,-12.146318,-0.373009,12.112293,-0.318804,1.712411,7.255847,-0.375648,2.059635,0.918451,-0.120189,-0.004055,0.122372,0.999935,-0.001878,0.010298,0.004592,-0.482915,-0.313322,-0.160760,0.801735,3.412650,41.122358,-116.595343
29815,-9.038649,-0.289011,10.466949,-0.905358,0.290061,3.986975,-0.032728,1.372221,0.577183,-0.089657,-0.003132,0.105287,0.999972,-0.000164,0.006861,0.002886,-0.484228,-0.319177,-0.163297,0.798113,3.731338,41.883989,-116.079876
29816,-6.207104,1.371395,8.913426,0.048133,-1.619051,1.014729,0.339525,1.088311,0.507951,-0.061619,0.013405,0.089493,0.999981,0.001698,0.005442,0.002540,-0.484881,-0.324743,-0.163758,0.795372,4.232431,42.484346,-115.618823
29817,-4.112632,4.262542,6.887188,2.542762,-3.281624,-1.733035,0.403221,1.221769,0.712898,-0.040855,0.042340,0.069208,0.999973,0.002016,0.006109,0.003564,-0.486112,-0.331133,-0.163954,0.791938,4.894620,43.147069,-114.978344
29818,-5.372755,4.264802,7.071948,2.765256,-2.609907,-0.723798,0.191742,1.469947,0.987982,-0.053415,0.042316,0.071154,0.999960,0.000959,0.007350,0.004940,-0.488550,-0.338208,-0.165115,0.787192,5.618583,43.931909,-114.082871
29819,-6.506119,3.638701,6.953619,2.470229,-1.563244,-0.046678,0.083336,1.554515,1.219071,-0.064738,0.035963,0.070055,0.999951,0.000417,0.007772,0.006095,-0.491964,-0.345498,-0.166514,0.781585,6.439066,44.741559,-112.971296
29820,-8.230542,2.743347,7.605358,1.767565,-0.483852,1.578024,-0.030445,1.461136,1.247864,-0.081916,0.026933,0.076649,0.999954,-0.000152,0.007306,0.006239,-0.495724,-0.352149,-0.168047,0.775892,7.240806,45.485218,-111.811771
29821,-8.145623,1.999495,7.457406,0.994720,-0.182113,1.364856,-0.043228,1.237346,1.185720,-0.081110,0.019530,0.075072,0.999963,-0.000216,0.006187,0.005929,-0.499406,-0.357805,-0.169185,0.770679,8.007798,46.094829,-110.701421
29822,-7.447701,2.053368,6.673278,1.039996,-0.228952,0.340230,0.048237,1.126320,1.139537,-0.074215,0.020094,0.067156,0.999968,0.000241,0.005632,0.005698,-0.502812,-0.363212,-0.169747,0.765795,8.818963,46.635019,-109.615779
29823,-6.872447,2.260895,5.942520,1.259869,-0.281085,-0.539699,-0.029353,1.158443,1.086435,-0.068500,0.022245,0.059819,0.999968,-0.000147,0.005792,0.005432,-0.506090,-0.368463,-0.170790,0.760880,9.575528,47.187609,-108.551125
29824,-7.296524,2.155272,5.313375,1.387296,0.390481,-0.645467,0.039056,1.211542,1.154802,-0.072764,0.021122,0.053579,0.999965,0.000195,0.006058,0.005774,-0.509430,-0.374140,-0.171552,0.755692,10.447506,47.753235,-107.395396
29825,-6.893527,2.830662,4.932048,1.942473,0.049789,-1.090220,-0.013952,1.292255,1.268713,-0.068792,0.027873,0.049763,0.999959,-0.000070,0.006461,0.006343,-0.513184,-0.380039,-0.172510,0.749969,11.392800,48.339216,-106.108014
29826,-7.143479,2.253933,4.717456,1.427720,0.545439,-1.093379,-0.077596,1.401158,1.399463,-0.071257,0.022059,0.047666,0.999951,-0.000388,0.007006,0.006997,-0.517416,-0.386279,-0.173704,0.743569,12.436527,48.956026,-104.655814
29827,-6.753337,2.424704,4.360876,1.522421,0.418793,-1.565930,-0.033893,1.515950,1.565264,-0.067387,0.023727,0.044116,0.999941,-0.000169,0.007580,0.007826,-0.522017,-0.393143,-0.174712,0.736487,13.663282,49.596135,-103.006084
29828,-6.429955,3.154909,3.754172,2.228914,0.297175,-2.045261,0.064567,1.683522,1.897942,-0.064276,0.030927,0.038093,0.999919,0.000323,0.008417,0.009489,-0.527437,-0.401136,-0.175097,0.728177,15.247369,50.255287,-100.982001
29829,-7.006354,5.504664,4.355327,4.017915,-0.656372,-0.769405,-0.052235,1.838337,2.380152,-0.070308,0.054222,0.044185,0.999887,-0.000261,0.009191,0.011900,-0.534601,-0.409708,-0.175333,0.718052,17.171195,50.882219,-98.447329
29830,-7.340245,5.256037,3.984059,3.757131,-0.081095,-0.688548,-0.222383,1.927332,2.888549,-0.073764,0.051542,0.040493,0.999849,-0.001112,0.009636,0.014442,-0.543727,-0.418505,-0.175307,0.706032,19.435314,51.406800,-95.374592
29831,-7.733667,5.330105,3.909231,3.615364,0.231365,-0.306429,-0.199720,2.011376,3.475291,-0.077850,0.051991,0.039821,0.999798,-0.000999,0.010056,0.017375,-0.554602,-0.428002,-0.174163,0.692025,22.188799,51.772290,-91.709761
29832,-9.119285,6.606732,4.711400,4.127106,0.182094,1.673078,0.083044,1.927184,4.259938,-0.092112,0.064092,0.048026,0.999727,0.000415,0.009635,0.021298,-0.567404,-0.438496,-0.170017,0.675920,25.650264,51.786686,-87.363706
29833,-10.447657,8.547171,6.031219,4.812947,-0.357704,4.160494,0.267881,1.614245,5.325723,-0.106209,0.082577,0.061277,0.999612,0.001339,0.008070,0.026625,-0.583281,-0.449045,-0.161936,0.657205,29.743017,51.181715,-82.325164
29834,-10.978940,8.391035,6.627330,3.701191,-0.136619,5.056477,0.304388,1.217446,6.169852,-0.111899,0.080378,0.067074,0.999505,0.001522,0.006086,0.030844,-0.601664,-0.458710,-0.150507,0.636344,34.024590,49.898491,-77.006569
29835,-11.696470,7.116560,7.372834,1.359226,0.390515,5.671018,0.270532,0.784627,6.549778,-0.118918,0.067192,0.074285,0.999455,0.001352,0.003922,0.032743,-0.621019,-0.466674,-0.136889,0.614665,37.975867,48.049002,-71.971079
29836,-13.764032,6.238891,8.991602,-1.402179,1.037055,7.682660,0.386819,0.087049,6.777778,-0.139605,0.057505,0.090091,0.999424,0.001934,0.000435,0.033882,-0.640591,-0.472515,-0.120024,0.593268,41.426125,45.596372,-67.545424
29837,-12.993357,5.332239,8.996049,-2.935177,1.106274,6.565905,0.636941,-0.791887,6.872782,-0.132012,0.048523,0.089600,0.999397,0.003184,-0.003959,0.034357,-0.659613,-0.476017,-0.099273,0.573117,44.289113,42.577788,-63.951090
29838,-11.892586,6.955849,10.044072,-2.541107,-0.061559,7.043914,0.696990,-1.376920,6.726637,-0.121855,0.065144,0.099841,0.999405,0.003484,-0.006883,0.033627,-0.677576,-0.477423,-0.076613,0.554156,46.553065,39.268512,-61.105713
29839,-12.654349,7.235728,10.542423,-3.683229,0.702065,7.778992,0.237334,-2.053809,6.524824,-0.129885,0.068032,0.104184,0.999414,0.001186,-0.010267,0.032618,-0.695526,-0.474726,-0.053360,0.536685,47.971304,35.717055,-58.993463
29840,-11.750086,3.950379,9.792929,-6.361965,1.349476,4.581688,-0.021751,-2.805088,6.323722,-0.120029,0.035745,0.096253,0.999402,-0.000109,-0.014023,0.031612,-0.712929,-0.468517,-0.028570,0.520968,48.770185,31.931259,-57.535629
29841,-10.713795,1.716478,9.174016,-7.922904,1.569456,1.874838,0.253779,-3.479282,5.790696,-0.109147,0.013909,0.089872,0.999429,0.001269,-0.017393,0.028948,-0.727554,-0.460886,-0.001907,0.508180,49.300534,28.112222,-56.758502
29842,-11.236294,1.379279,9.679136,-9.144380,2.168616,1.739507,0.524803,-4.185048,4.900306,-0.114644,0.010752,0.094439,0.999478,0.002624,-0.020922,0.024497,-0.738500,-0.451949,0.025987,0.499685,49.603803,24.411174,-56.749898
29843,-8.860730,1.772599,8.073918,-7.237627,2.026277,-0.309434,0.217841,-4.899471,3.516686,-0.090842,0.016055,0.078550,0.999545,0.001089,-0.024494,0.017581,-0.745866,-0.439814,0.052576,0.497478,49.379856,21.048961,-57.641471
29844,-5.030797,3.630713,6.466957,-3.373020,0.721631,-1.542536,-0.410290,-5.033911,1.815095,-0.052240,0.035970,0.063297,0.999640,-0.002051,-0.025167,0.009074,-0.749733,-0.425101,0.074333,0.501662,48.608528,18.364091,-59.224387
29845,-7.821691,5.518264,8.740155,-4.685275,2.530450,2.003775,-0.970563,-5.058271,0.817149,-0.080615,0.055273,0.085115,0.999660,-0.004852,-0.025288,0.004085,-0.751755,-0.408288,0.092591,0.509503,47.478167,16.071409,-61.149479
29846,-9.389291,5.962524,9.691029,-5.543803,4.159921,3.207528,-1.421783,-5.749859,0.478389,-0.096762,0.060070,0.093730,0.999559,-0.007108,-0.028745,0.002392,-0.752922,-0.387865,0.111540,0.519834,46.075123,13.608691,-63.434627
29847,-4.715996,6.761358,8.832476,-2.328841,1.387718,1.959220,-1.852117,-6.191026,0.100501,-0.049884,0.068394,0.086177,0.999478,-0.009259,-0.030950,0.000502,-0.752973,-0.364503,0.130185,0.532185,44.467769,11.064557,-65.968907
29848,-3.670059,6.783646,8.787631,-1.703279,1.153944,1.695420,-2.503509,-6.283722,-0.524842,-0.039239,0.069020,0.085811,0.999425,-0.012515,-0.031413,-0.002624,-0.751655,-0.338460,0.146159,0.546898,42.561453,8.654946,-68.702124
29849,-6.150280,5.827779,9.393824,-3.345016,3.772082,1.787053,-2.801052,-6.541123,-1.013519,-0.064211,0.059887,0.091036,0.999354,-0.014002,-0.032699,-0.005067,-0.748402,-0.310528,0.161285,0.563431,40.570657,6.229458,-71.643666
29850,-5.557241,4.238994,7.644426,-2.911054,4.131398,-0.774059,-3.028713,-7.057378,-1.396596,-0.057904,0.043920,0.073771,0.999238,-0.015140,-0.035278,-0.006981,-0.742948,-0.280175,0.176868,0.581591,38.556178,3.616949,-74.843227
29851,0.217066,3.388244,5.156258,-0.343066,-0.567255,-3.675491,-2.867087,-6.970343,-1.824875,0.000697,0.034607,0.051111,0.999248,-0.014332,-0.034843,-0.009122,-0.734980,-0.250617,0.191740,0.600192,36.774472,1.087882,-78.109209
29852,2.605169,3.523883,3.664690,1.150243,-2.434369,-4.774578,-2.458035,-6.268753,-1.881181,0.025228,0.035452,0.037011,0.999389,-0.012288,-0.031337,-0.009404,-0.725997,-0.224390,0.204916,0.616918,35.363993,-1.184783,-81.090311
29853,3.888901,6.179007,3.648000,3.448625,-3.201690,-3.144393,-2.005516,-5.377052,-1.428804,0.038343,0.061883,0.036896,0.999563,-0.010026,-0.026881,-0.007143,-0.718057,-0.201843,0.216559,0.629886,34.304509,-3.251953,-83.518983
29854,6.255520,5.921767,3.109790,3.741315,-5.480454,-3.501230,-2.124168,-4.399198,-1.016698,0.062161,0.059237,0.031839,0.999689,-0.010620,-0.021994,-0.005083,-0.712052,-0.181361,0.224563,0.640048,33.219446,-5.027856,-85.404098
29855,4.583682,3.381518,4.535927,0.657835,-3.962254,-3.739390,-1.712503,-3.332803,-0.677827,0.045191,0.034052,0.045825,0.999819,-0.008562,-0.016663,-0.003389,-0.707607,-0.165277,0.230293,0.647257,32.370024,-6.428330,-86.766687
29856,1.324471,4.943387,7.288890,0.335215,-0.215872,-0.915703,-1.406136,-2.924863,-0.439865,0.012290,0.049918,0.072723,0.999866,-0.007030,-0.014624,-0.002199,-0.703923,-0.151276,0.235695,0.652730,31.696956,-7.720246,-87.872705
29857,2.147181,4.178590,7.946742,-0.532481,-0.846539,-0.635695,-1.699863,-2.703005,-0.552550,0.020515,0.042403,0.079390,0.999869,-0.008499,-0.013514,-0.002763,-0.700169,-0.137052,0.239210,0.658604,30.874912,-8.884805,-88.953762
29858,-0.187348,1.905678,9.246452,-3.063804,1.621505,-1.029690,-1.635796,-2.627411,-0.822180,-0.003006,0.019823,0.092270,0.999872,-0.008179,-0.013136,-0.004111,-0.695390,-0.123594,0.242424,0.665122,30.127185,-9.947675,-90.134566
29859,0.716976,1.866670,8.844133,-2.763326,0.900032,-1.224005,-1.554920,-2.818288,-1.170415,0.006036,0.019316,0.088383,0.999853,-0.007774,-0.014091,-0.005852,-0.688983,-0.110164,0.246289,0.672687,29.487337,-11.020816,-91.537313
29860,1.579089,1.987826,8.499467,-2.407161,0.219920,-1.278115,-1.449734,-2.702503,-1.466062,0.014790,0.020384,0.085052,0.999856,-0.007248,-0.013512,-0.007330,-0.681464,-0.097822,0.249869,0.680884,28.954078,-11.966653,-93.051393
29861,0.689808,3.312463,8.814814,-1.236777,1.415327,-0.559983,-1.437792,-2.651449,-1.622780,0.006003,0.033706,0.087991,0.999853,-0.007189,-0.013257,-0.008114,-0.673272,-0.085858,0.253171,0.689374,28.465016,-12.857682,-94.628175
29862,2.373921,2.357752,7.402957,-1.466834,-0.423280,-1.833635,-1.562784,-2.507670,-1.775894,0.023022,0.023950,0.074135,0.999851,-0.007814,-0.012538,-0.008879,-0.664590,-0.074139,0.255410,0.698276,27.934656,-13.647404,-96.241355
29863,1.966994,3.137296,7.214286,-0.573470,0.051569,-1.724121,-1.499785,-2.184297,-1.962586,0.019192,0.031724,0.072117,0.999864,-0.007499,-0.010921,-0.009812,-0.655456,-0.063974,0.256661,0.707397,27.461420,-14.237981,-97.861015
29864,1.963540,3.640156,7.292048,-0.067883,0.138232,-1.430830,-1.839878,-1.882715,-2.326156,0.019377,0.036845,0.072766,0.999846,-0.009199,-0.009413,-0.011630,-0.645343,-0.054209,0.255520,0.717846,26.832152,-14.594037,-99.587908
29865,0.074996,2.637565,8.837448,-1.145200,2.480935,-1.004005,-2.064710,-1.709224,-2.752328,0.000368,0.027279,0.088100,0.999816,-0.010323,-0.008546,-0.013761,-0.633765,-0.044867,0.252820,0.729665,26.127790,-14.772477,-101.492790
29866,-0.680441,3.278857,9.279903,-0.369803,3.329576,-0.533538,-2.130233,-1.918043,-3.059721,-0.007179,0.033882,0.092374,0.999780,-0.010650,-0.009590,-0.015297,-0.620561,-0.034927,0.250360,0.742297,25.447171,-15.003300,-103.614788
29867,1.982115,3.344239,7.837934,-0.199844,0.364057,-1.073591,-2.501835,-1.893842,-3.422448,0.019660,0.034084,0.078142,0.999731,-0.012508,-0.009468,-0.017111,-0.605802,-0.024360,0.246272,0.756148,24.610492,-15.161759,-105.924544
29868,2.072127,2.983147,6.631170,-0.025995,-0.096107,-2.252627,-2.533182,-1.633394,-3.658619,0.020732,0.030290,0.066099,0.999719,-0.012665,-0.008166,-0.018291,-0.590144,-0.014962,0.241098,0.770311,23.773903,-15.159899,-108.296712
29869,4.790083,4.802364,5.202611,1.259688,-3.524950,-2.127622,-3.180374,-1.125857,-4.062743,0.048583,0.047863,0.051536,0.999651,-0.015900,-0.005629,-0.020311,-0.573218,-0.006085,0.231767,0.785919,22.587226,-14.841243,-110.768870
29870,7.272139,3.426256,2.733597,-0.288158,-6.470186,-4.322632,-4.225108,-0.121125,-4.925925,0.073529,0.033026,0.026674,0.999473,-0.021122,-0.000606,-0.024625,-0.553597,0.000843,0.215212,0.804496,20.836684,-13.865197,-113.495410
29871,8.831815,1.052081,2.625184,-3.276477,-7.269327,-5.079246,-5.240896,1.213583,-5.963233,0.088749,0.008553,0.025473,0.999194,-0.026197,0.006066,-0.029808,-0.530501,0.004098,0.190611,0.825966,18.514306,-12.064175,-116.549867
29872,4.907573,-2.050004,4.156274,-4.789728,-2.189283,-5.590585,-5.008364,2.284643,-6.128714,0.048913,-0.020960,0.041524,0.999152,-0.025035,0.011420,-0.030635,-0.506872,0.002159,0.163815,0.846310,16.208744,-9.771593,-119.558363
29873,2.202838,1.464342,6.073525,-0.794716,-0.975150,-3.309282,-4.145701,2.750595,-5.340098,0.023260,0.015284,0.060109,0.999334,-0.020724,0.013750,-0.026695,-0.486200,-0.003304,0.139234,0.862677,14.212208,-7.451686,-122.119512
29874,5.574125,3.202220,3.102696,-0.780826,-5.612106,-5.472952,-3.671790,3.302660,-4.037157,0.056876,0.031433,0.029513,0.999491,-0.018356,0.016510,-0.020182,-0.470955,-0.011373,0.115209,0.874528,12.301613,-5.084495,-123.941113
29875,7.416034,4.217188,-0.058277,-0.735428,-8.404940,-8.555592,-2.915615,4.483350,-2.625630,0.074658,0.041163,-0.002858,0.999556,-0.014576,0.022413,-0.013126,-0.462068,-0.025577,0.091683,0.881722,10.688005,-2.270901,-124.898658
29876,2.915525,5.412537,1.742771,2.464413,-5.250180,-7.132221,-2.627613,5.691168,-1.402579,0.030001,0.054132,0.015871,0.999484,-0.013136,0.028451,-0.007012,-0.458649,-0.045161,0.066716,0.884958,9.179929,1.073318,-125.120960
29877,-0.216522,2.706138,2.679396,1.908176,-1.255398,-6.758386,-2.577702,6.223408,-0.411935,-0.001281,0.027407,0.026491,0.999431,-0.012886,0.031111,-0.002059,-0.459279,-0.066858,0.040891,0.884828,7.713193,4.631915,-124.823579
29878,-1.766125,2.474779,4.685490,2.220337,-0.083843,-4.689095,-2.206390,6.729605,0.065999,-0.016086,0.025261,0.047137,0.999373,-0.011030,0.033641,0.000330,-0.461456,-0.091445,0.015675,0.882299,6.504713,8.447098,-124.298630
29879,-6.488393,0.253201,6.827949,2.509250,4.523573,-1.939322,-2.262947,6.804777,0.271768,-0.062516,0.003235,0.070400,0.999356,-0.011312,0.034017,0.001359,-0.463983,-0.116124,-0.009907,0.878144,5.306608,12.306433,-123.726453
29880,-8.284600,-1.323528,7.765150,1.750809,6.240079,-0.398221,-1.717603,6.431219,0.376456,-0.080266,-0.012705,0.080371,0.999444,-0.008586,0.032150,0.001882,-0.466119,-0.140278,-0.032141,0.872939,4.453446,15.954292,-123.174331
29881,-8.014946,0.303350,7.768249,2.647108,4.570422,0.023101,-1.290018,6.087472,0.435091,-0.077744,0.003374,0.080052,0.999514,-0.006449,0.030432,0.002175,-0.467777,-0.163809,-0.051649,0.866997,3.872204,19.412320,-122.640387
29882,-7.237780,1.528233,6.740457,3.225287,3.044189,-0.842822,-1.137981,5.900265,0.591387,-0.070395,0.015463,0.069413,0.999544,-0.005689,0.029497,0.002956,-0.469599,-0.186762,-0.069877,0.860066,3.432381,22.760728,-122.039602
29883,-7.228586,2.741236,5.828061,4.201476,2.238120,-1.383569,-1.037794,5.879613,0.911413,-0.070659,0.027397,0.060232,0.999544,-0.005188,0.029394,0.004556,-0.472280,-0.209811,-0.087271,0.851654,3.161490,26.091498,-121.246641
29884,-8.307624,3.122656,5.871890,4.732327,2.469685,-0.607953,-1.145491,5.910086,1.250724,-0.081491,0.031059,0.060965,0.999527,-0.005727,0.029546,0.006253,-0.476069,-0.232690,-0.104752,0.841570,2.977593,29.431857,-120.224871
29885,-10.924621,1.736608,6.856587,4.063569,4.336435,1.763839,-1.201673,5.761056,1.420822,-0.107335,0.017023,0.071573,0.999542,-0.006007,0.028801,0.007103,-0.480272,-0.254680,-0.121825,0.830443,2.880346,32.684505,-119.070869
29886,-13.491537,0.714580,8.745292,3.217589,5.353197,5.017861,-1.084327,5.209015,1.412072,-0.132626,0.006691,0.090890,0.999621,-0.005421,0.026042,0.007059,-0.484225,-0.274453,-0.136991,0.819411,2.911667,35.622942,-117.903004
29887,-14.796700,0.270052,10.496130,2.313840,5.051652,7.457525,-0.946751,4.298184,1.236686,-0.145681,0.002302,0.108097,0.999739,-0.004733,0.021489,0.006183,-0.487584,-0.290521,-0.149546,0.809627,2.995405,38.043518,-116.851650
29888,-13.842144,-0.604226,11.216503,0.597295,3.886770,7.573762,-0.766242,3.181390,0.944755,-0.136585,-0.006255,0.114371,0.999855,-0.003831,0.015906,0.004724,-0.490135,-0.302194,-0.159013,0.801974,3.074341,39.834952,-116.022570
29889,-9.248724,0.192476,9.004131,0.237066,1.198292,3.038381,-0.435148,2.435986,0.779982,-0.091389,0.001764,0.091155,0.999916,-0.002176,0.012180,0.003900,-0.492005,-0.311468,-0.165537,0.795937,3.274277,41.201381,-115.324721
29890,-6.728864,1.531412,7.392178,0.992951,-0.429804,0.241785,-0.148054,2.265402,0.791107,-0.066506,0.015105,0.074667,0.999928,-0.000740,0.011327,0.003955,-0.493535,-0.320754,-0.170460,0.790243,3.668580,42.469874,-114.601538
29891,-5.410604,3.298709,6.755573,2.242709,-1.902388,-1.029640,0.018539,2.413519,0.888968,-0.053431,0.032742,0.068206,0.999917,0.000093,0.012067,0.004445,-0.494984,-0.331046,-0.174902,0.784098,4.247257,43.811778,-113.764796
29892,-6.048321,3.999381,6.664218,2.941030,-1.886436,-0.605255,0.059056,2.607500,1.163706,-0.059839,0.039625,0.067437,0.999898,0.000295,0.013037,0.005818,-0.497180,-0.342402,-0.179179,0.776831,5.059240,45.246838,-112.651138
29893,-7.502382,5.565422,7.100692,4.405735,-2.050268,0.867206,0.026976,2.639306,1.407636,-0.074467,0.055119,0.072000,0.999888,0.000135,0.013196,0.007038,-0.500245,-0.353923,-0.183203,0.768720,6.059321,46.671182,-111.275769
29894,-7.330935,5.367324,7.193211,3.960208,-2.270884,0.838534,-0.160680,2.552658,1.642846,-0.072822,0.053132,0.072821,0.999884,-0.000803,0.012763,0.008214,-0.504514,-0.364804,-0.187267,0.759813,7.172582,48.015246,-109.633957
29895,-7.217160,4.746141,6.927627,3.281416,-2.032711,0.565231,-0.225350,2.591470,1.885806,-0.071710,0.046863,0.070154,0.999871,-0.001127,0.012957,0.009429,-0.509661,-0.375779,-0.191192,0.749988,8.494737,49.336104,-107.696133
29896,-7.534088,4.564751,7.027177,2.933058,-1.946969,0.891595,-0.151166,2.579462,2.190151,-0.074921,0.044879,0.071206,0.999857,-0.000756,0.012897,0.010950,-0.515687,-0.387117,-0.194169,0.739260,10.177566,50.589889,-105.383217
29897,-7.889150,5.667107,6.838158,3.821306,-2.127567,1.231728,0.018758,2.565068,2.637063,-0.078744,0.055626,0.069397,0.999831,0.000094,0.012825,0.013185,-0.522884,-0.399121,-0.195570,0.727357,12.390262,51.732430,-102.551309
29898,-8.768224,7.282461,7.253040,4.970115,-2.544590,2.489183,-0.104544,2.467152,3.088472,-0.087890,0.071507,0.073576,0.999805,-0.000523,0.012335,0.015441,-0.531881,-0.410775,-0.196168,0.714062,14.992111,52.684906,-99.182181
29899,-9.088621,6.854843,6.764459,4.448528,-1.845706,2.521840,-0.110039,2.283162,3.705989,-0.091356,0.066896,0.068649,0.999763,-0.000550,0.011415,0.018528,-0.543034,-0.422151,-0.194965,0.699208,18.130756,53.329908,-95.169068
29900,-9.375592,7.768160,6.623938,4.927561,-1.798062,3.016324,0.236404,2.041856,4.674409,-0.094852,0.075394,0.067294,0.999674,0.001182,0.010208,0.023370,-0.556782,-0.434365,-0.189709,0.682152,22.213017,53.500238,-90.254449
29901,-10.076167,10.180809,7.139849,6.367768,-2.292535,4.688779,0.567981,1.784808,5.993646,-0.103103,0.098536,0.072595,0.999507,0.002839,0.008923,0.029963,-0.574082,-0.447482,-0.179619,0.661761,27.293330,52.985565,-84.316511
29902,-10.773417,10.758381,7.328052,6.006447,-1.813105,5.873531,0.479734,1.487829,6.890832,-0.110800,0.103623,0.074349,0.999376,0.002398,0.007438,0.034447,-0.594185,-0.459705,-0.166716,0.638608,32.575985,51.745122,-77.996316
29903,-11.686403,9.796478,7.669929,3.971589,-0.849862,6.763682,0.216420,1.156662,7.346041,-0.119907,0.093514,0.077490,0.999308,0.001082,0.005782,0.036722,-0.615822,-0.469821,-0.152448,0.613833,37.400073,49.866584,-71.929553
29904,-13.703302,8.003631,8.676083,0.543666,0.422832,8.257317,0.027767,0.569394,7.478850,-0.139649,0.074834,0.087167,0.999297,0.000139,0.002846,0.037385,-0.637911,-0.477038,-0.136370,0.588989,41.425309,47.385317,-66.591094
29905,-12.980709,5.212470,8.412690,-2.651287,1.017711,6.258426,0.237433,-0.211473,7.503151,-0.131726,0.047106,0.084046,0.999295,0.001187,-0.001057,0.037507,-0.659185,-0.481925,-0.116988,0.565276,44.715042,44.352822,-62.194128
29906,-11.271453,4.518001,8.464434,-3.632014,0.349658,4.529929,0.806308,-0.766923,7.344077,-0.114587,0.040654,0.084377,0.999310,0.004031,-0.003834,0.036712,-0.678054,-0.486385,-0.094332,0.542930,47.582970,41.000866,-58.648768
29907,-11.694617,5.677011,9.452260,-4.145174,0.211394,5.711923,1.059795,-1.344851,7.129514,-0.119491,0.052041,0.094009,0.999328,0.005298,-0.006723,0.035640,-0.695058,-0.489333,-0.069476,0.522131,49.914422,37.414156,-55.916621
29908,-10.715333,5.091675,10.039513,-5.300774,-0.383877,4.788918,1.007856,-2.026705,6.699339,-0.109778,0.046765,0.099534,0.999375,0.005038,-0.010131,0.033490,-0.710405,-0.489564,-0.043297,0.503763,51.590692,33.694505,-54.029378
29909,-10.431843,4.333818,10.715783,-6.791042,-0.573268,4.184218,0.877817,-2.695366,5.992222,-0.106977,0.039692,0.105907,0.999451,0.004388,-0.013474,0.029956,-0.723589,-0.486889,-0.016800,0.488954,52.644326,30.029431,-52.979213
29910,-10.151469,3.390295,10.848509,-8.004242,-0.351070,3.148263,0.494330,-3.451789,4.921238,-0.104156,0.031096,0.106782,0.999545,0.002471,-0.017256,0.024602,-0.734428,-0.480416,0.008951,0.479308,52.998905,26.576208,-52.828191
29911,-8.646962,2.899924,9.554073,-7.338199,0.016290,1.167825,0.044263,-4.084635,3.565577,-0.088895,0.027408,0.093748,0.999633,0.000221,-0.020421,0.017826,-0.742459,-0.470418,0.032640,0.475811,52.725766,23.527727,-53.523091
29912,-9.112018,4.966507,9.420929,-6.373836,1.295178,2.601063,-0.541541,-4.664601,2.276632,-0.093841,0.048858,0.091909,0.999660,-0.002707,-0.023320,0.011382,-0.748182,-0.456753,0.054066,0.478202,51.878102,20.850932,-54.941157
29913,-7.482353,5.881247,7.903146,-4.211228,1.801421,1.677161,-1.153245,-5.189974,1.526466,-0.077283,0.058676,0.076708,0.999618,-0.005765,-0.025947,0.007631,-0.752820,-0.439405,0.074211,0.484436,50.584199,18.299929,-56.817384
29914,-5.055608,5.823454,6.787199,-2.402702,1.139017,0.109037,-1.553312,-5.430090,1.098990,-0.052686,0.058466,0.066007,0.999586,-0.007765,-0.027147,0.005494,-0.756612,-0.419785,0.093314,0.492555,49.088084,15.802974,-58.875461
29915,-3.337019,7.432164,7.075993,-0.608632,0.380716,0.953121,-1.821715,-5.357086,0.655289,-0.035482,0.074842,0.069148,0.999594,-0.009107,-0.026782,0.003276,-0.759286,-0.399185,0.110451,0.501933,47.507310,13.473797,-60.982313
29916,-3.803928,7.667017,6.967847,-0.519944,1.424272,1.117865,-2.408465,-5.318125,0.448176,-0.040030,0.077405,0.067702,0.999571,-0.012041,-0.026587,0.002241,-0.761997,-0.376243,0.125479,0.511914,45.680227,11.185061,-63.063488
29917,-2.615492,6.992971,7.190958,-0.432534,0.698250,0.519428,-2.797511,-5.250559,0.164178,-0.028071,0.070897,0.070202,0.999557,-0.013985,-0.026249,0.000821,-0.764091,-0.351835,0.138593,0.522656,43.709209,8.973736,-65.140695
29918,-2.897860,4.297695,7.264336,-2.319023,0.873421,-1.240898,-2.928090,-5.241967,-0.143172,-0.030826,0.044048,0.071212,0.999549,-0.014638,-0.026206,-0.000716,-0.764931,-0.326858,0.150684,0.534172,41.738619,6.815370,-67.254337
29919,-4.701194,3.977681,8.496992,-3.762829,2.568269,-0.360942,-2.613108,-5.382677,-0.423015,-0.049180,0.040974,0.083135,0.999550,-0.013064,-0.026909,-0.002115,-0.763714,-0.302615,0.163545,0.546277,40.016526,4.635695,-69.462683
29920,-4.163167,4.518294,8.729727,-3.072462,2.700501,0.045672,-2.689326,-5.783828,-0.885201,-0.043917,0.046531,0.085429,0.999482,-0.013444,-0.028914,-0.004425,-0.760279,-0.277081,0.176880,0.560282,38.320375,2.380191,-71.949025
29921,-3.209640,3.498792,8.426125,-3.105840,2.211088,-0.925832,-2.969099,-5.965295,-1.493191,-0.034311,0.036474,0.082726,0.999417,-0.014843,-0.029821,-0.007465,-0.754533,-0.250199,0.189075,0.576482,36.552993,0.180094,-74.701984
29922,-2.692479,1.873614,7.208673,-3.286174,2.072664,-2.912831,-2.728433,-5.987024,-1.847909,-0.028880,0.019970,0.070975,0.999416,-0.013640,-0.029929,-0.009238,-0.746559,-0.224214,0.201381,0.593147,35.031078,-1.988628,-77.562519
29923,0.069509,3.180795,6.042783,-0.826960,0.129314,-3.035658,-2.473061,-5.703895,-2.045550,-0.000690,0.032554,0.060022,0.999465,-0.012363,-0.028514,-0.010226,-0.737165,-0.199960,0.212940,0.609311,33.757204,-4.029378,-80.374628
29924,2.607543,2.795678,5.453178,-0.332347,-2.149909,-3.518636,-2.544878,-5.042356,-2.234079,0.025011,0.028370,0.054812,0.999539,-0.012722,-0.025208,-0.011169,-0.727235,-0.177466,0.221437,0.624981,32.521376,-5.753415,-83.030515
29925,1.732760,1.472359,5.691372,-1.654266,-1.262837,-4.048476,-2.063202,-4.348515,-2.215993,0.016253,0.015128,0.057120,0.999649,-0.010315,-0.021740,-0.011079,-0.717114,-0.158717,0.228758,0.638926,31.606579,-7.196538,-85.439450
29926,1.281431,4.436731,7.097609,0.119157,-0.121579,-1.346871,-1.755623,-3.896693,-2.090838,0.011901,0.044862,0.070822,0.999717,-0.008777,-0.019482,-0.010453,-0.707209,-0.142274,0.235390,0.651310,30.896196,-8.488538,-87.637300
29927,1.177405,4.812236,7.278390,0.446518,0.223248,-1.022578,-1.911883,-3.608218,-2.008199,0.010951,0.048704,0.072523,0.999741,-0.009559,-0.018040,-0.010040,-0.697642,-0.126040,0.240431,0.663025,30.122204,-9.691010,-89.698855
29928,2.427793,3.222164,6.065890,-0.225021,-1.168209,-2.625599,-1.941716,-3.319630,-2.038816,0.023601,0.032568,0.060739,0.999763,-0.009708,-0.016597,-0.010193,-0.687993,-0.110636,0.244223,0.674375,29.357692,-10.767641,-91.682951
29929,2.721504,4.399455,6.265076,0.753126,-1.230653,-1.817036,-1.839767,-2.835327,-2.164850,0.026805,0.044279,0.062626,0.999799,-0.009198,-0.014176,-0.010824,-0.678152,-0.097317,0.246520,0.685468,28.668420,-11.592014,-93.586389
29930,2.428862,4.217375,7.145536,0.277333,-0.692228,-1.199503,-2.071560,-2.441200,-2.293020,0.023905,0.042637,0.071309,0.999806,-0.010357,-0.012205,-0.011464,-0.668203,-0.084685,0.246525,0.696820,27.859501,-12.206602,-95.440359
29931,-0.084060,4.438686,8.581227,0.215559,2.160442,-0.398406,-1.942685,-2.268795,-2.204170,-0.001315,0.045230,0.085363,0.999828,-0.009713,-0.011343,-0.011020,-0.658477,-0.072940,0.246353,0.707388,27.122224,-12.781915,-97.196875
29932,2.133243,3.466407,7.475418,-0.282593,-0.178802,-1.307710,-2.344474,-2.242973,-2.253707,0.020891,0.035302,0.074579,0.999805,-0.011722,-0.011214,-0.011268,-0.648512,-0.060003,0.244562,0.718346,26.175101,-13.355771,-98.967743
29933,1.818322,1.640029,7.471965,-1.749019,0.275518,-2.151790,-2.148011,-1.828686,-2.394289,0.017701,0.016989,0.074703,0.999829,-0.010739,-0.009143,-0.011971,-0.638253,-0.049337,0.242006,0.729131,25.345764,-13.708146,-100.701138
29934,0.354403,2.627062,8.948151,-0.984068,2.102853,-0.773764,-2.251803,-1.721965,-2.563242,0.003120,0.027234,0.089207,0.999817,-0.011258,-0.008609,-0.012815,-0.627308,-0.038917,0.238598,0.740298,24.480400,-13.988572,-102.495129
29935,0.676071,2.038664,9.010790,-1.392895,1.925499,-0.859723,-2.489065,-1.649227,-2.903413,0.006325,0.021412,0.089899,0.999783,-0.012444,-0.008246,-0.014516,-0.614986,-0.028411,0.233928,0.752504,23.526303,-14.179855,-104.452282
29936,0.344011,1.342346,8.632197,-1.597128,2.257510,-1.519119,-2.612814,-1.606494,-3.355128,0.002985,0.014497,0.086162,0.999742,-0.013063,-0.008032,-0.016774,-0.600742,-0.018202,0.228475,0.765883,22.562553,-14.278008,-106.642718
29937,-0.008552,2.124971,9.148059,-0.691045,2.632285,-0.824365,-2.827637,-1.522737,-3.843750,-0.000355,0.022545,0.091166,0.999686,-0.014137,-0.007613,-0.019217,-0.584398,-0.008214,0.221784,0.780527,21.539156,-14.264400,-109.080788
29938,1.063316,2.576152,7.325184,0.099265,0.896201,-2.027473,-3.028900,-1.459788,-4.230957,0.010657,0.026642,0.072931,0.999635,-0.015143,-0.007298,-0.021152,-0.566228,0.001689,0.213940,0.795998,20.445873,-14.179790,-111.718170
29939,4.359049,3.547631,4.879257,0.439513,-3.264125,-3.138506,-3.342006,-0.897284,-4.526246,0.044173,0.035292,0.048399,0.999594,-0.016708,-0.004486,-0.022628,-0.547044,0.009926,0.203113,0.812028,19.176150,-13.788807,-114.405782
29940,5.796765,4.355846,3.248267,0.798083,-5.501223,-4.136497,-3.631074,0.070760,-4.643397,0.058978,0.042777,0.031680,0.999566,-0.018153,0.000354,-0.023214,-0.527896,0.014895,0.188286,0.828041,17.684295,-12.912248,-116.979969
29941,6.299611,4.325756,2.443925,0.478788,-6.380119,-4.973021,-4.014577,1.166446,-4.616177,0.064117,0.042260,0.023212,0.999515,-0.020070,0.005831,-0.023077,-0.509379,0.016355,0.168820,0.843662,15.884523,-11.512522,-119.366725
29942,5.551003,3.386461,3.522190,-0.325620,-5.232603,-4.598306,-4.361839,2.323988,-4.461732,0.056657,0.033357,0.033837,0.999446,-0.021805,0.011618,-0.022305,-0.491934,0.013935,0.144753,0.858402,13.775616,-9.575168,-121.526880
29943,3.825504,-0.362454,3.103818,-2.671906,-2.273692,-6.335733,-3.904485,3.152526,-3.656401,0.038671,-0.003730,0.030503,0.999518,-0.019519,0.015760,-0.018279,-0.478066,0.007398,0.120407,0.870000,11.777593,-7.353867,-123.181819
29944,5.131941,2.072627,1.670887,-1.281076,-5.015588,-7.239739,-2.672296,3.904616,-2.451390,0.051880,0.020304,0.015426,0.999645,-0.013360,0.019521,-0.012255,-0.469539,-0.004623,0.099481,0.877277,10.343006,-4.893787,-124.129741
29945,4.668535,6.097783,2.065138,2.153754,-6.893953,-6.486793,-2.577611,5.018369,-1.591831,0.047655,0.060850,0.018679,0.999571,-0.012886,0.025088,-0.007958,-0.464965,-0.021333,0.076294,0.881778,8.886167,-1.909792,-124.542714
29946,1.326738,2.319420,2.446466,0.862909,-2.192644,-7.061602,-2.990657,5.828618,-0.967290,0.014079,0.023486,0.023712,0.999452,-0.014951,0.029138,-0.004836,-0.463044,-0.040375,0.049414,0.884035,7.169209,1.468316,-124.618274
29947,1.095964,-1.329886,1.706460,-1.919110,-0.116352,-8.334826,-2.201489,6.394050,-0.350759,0.011478,-0.013132,0.016848,0.999427,-0.011005,0.031964,-0.001753,-0.463308,-0.063565,0.024764,0.883568,5.916218,5.127980,-124.393304
29948,-2.020251,1.993549,4.238097,2.128649,0.317602,-5.189218,-1.708926,6.963410,0.009207,-0.018716,0.020300,0.042878,0.999357,-0.008543,0.034810,0.000046,-0.464517,-0.090266,0.001077,0.880951,4.982296,9.093103,-123.999127
29949,-5.620085,1.555152,5.064302,3.468746,3.114637,-3.656769,-1.841374,7.107431,0.262862,-0.054379,0.015957,0.052452,0.999325,-0.009205,0.035529,0.001314,-0.466288,-0.117195,-0.023437,0.876522,4.016343,13.138382,-123.513559
29950,-6.740287,1.149129,4.988834,3.535145,3.882233,-3.176151,-1.582817,7.090429,0.532102,-0.065612,0.011722,0.052144,0.999337,-0.007912,0.035444,0.002660,-0.468470,-0.144513,-0.046568,0.870335,3.260465,17.168398,-122.923710
29951,-7.089635,1.624322,4.382503,3.987057,3.658782,-3.270686,-1.245990,7.070096,0.834771,-0.069359,0.016234,0.046194,0.999347,-0.006229,0.035343,0.004173,-0.471111,-0.172426,-0.067927,0.862386,2.785063,21.186039,-122.184578
29952,-7.867308,2.802418,4.741199,4.985007,3.162318,-2.240057,-1.045205,7.167464,1.206999,-0.077079,0.027813,0.050048,0.999326,-0.005225,0.035829,0.006034,-0.474529,-0.201128,-0.088222,0.852400,2.565316,25.252706,-121.216124
29953,-9.957382,2.905080,4.952215,5.626524,4.249526,-0.738043,-0.971879,7.156293,1.645917,-0.097957,0.028492,0.052908,0.999314,-0.004858,0.035773,0.008228,-0.479100,-0.229877,-0.107633,0.840259,2.588832,29.304233,-119.941068
29954,-11.897041,2.311470,6.177587,5.131037,5.042547,1.729429,-0.934428,7.000779,1.907787,-0.116929,0.022294,0.065788,0.999331,-0.004671,0.034996,0.009537,-0.484167,-0.257908,-0.126054,0.826545,2.835186,33.257781,-118.431958
29955,-15.934278,1.350091,9.332755,4.307109,6.371092,7.026684,-0.862754,6.450059,1.901233,-0.156346,0.012422,0.098347,0.999426,-0.004313,0.032244,0.009504,-0.488855,-0.283496,-0.142712,0.812579,3.243126,36.888293,-116.855080
29956,-18.418199,0.221717,12.045382,2.617258,6.483145,11.052981,-0.741239,5.215734,1.666298,-0.180971,0.001159,0.125196,0.999618,-0.003706,0.026075,0.008330,-0.492833,-0.303963,-0.156049,0.800232,3.721326,39.813690,-115.397305
29957,-16.685544,0.352629,13.027742,1.240474,3.948358,10.949624,-0.662798,3.705029,1.250815,-0.164424,0.002931,0.133328,0.999803,-0.003314,0.018524,0.006254,-0.495920,-0.318047,-0.165900,0.790814,4.086676,41.880366,-114.251863
29958,-11.208950,0.192619,10.566286,-0.096871,1.252879,5.540861,-0.452547,2.596241,0.993360,-0.110714,0.001615,0.107102,0.999901,-0.002263,0.012981,0.004967,-0.498427,-0.328003,-0.172530,0.783720,4.457560,43.323209,-113.318058
29959,-5.916195,1.712188,7.801119,0.498573,-1.553991,-0.008459,-0.112838,2.340044,0.920341,-0.058322,0.016896,0.078687,0.999921,-0.000564,0.011700,0.004602,-0.500224,-0.337638,-0.177280,0.777398,5.009144,44.613292,-112.424528
29960,-3.715693,3.735078,5.459010,2.408188,-2.588241,-3.100186,0.112624,2.672466,1.244104,-0.036654,0.037091,0.055103,0.999891,0.000563,0.013362,0.006220,-0.502509,-0.349395,-0.181403,0.769740,5.947163,46.071050,-111.193989
29961,-6.137729,6.282753,6.925272,4.634249,-3.164746,-0.137619,0.151817,3.060847,1.681433,-0.060832,0.062261,0.070234,0.999847,0.000759,0.015303,0.008407,-0.505926,-0.363007,-0.185541,0.760157,7.275272,47.699524,-109.488348
29962,-8.440767,5.742034,8.220863,3.969541,-2.488413,2.428328,-0.286640,3.073928,1.872979,-0.083665,0.056753,0.083417,0.999837,-0.001433,0.015369,0.009364,-0.510698,-0.375668,-0.190959,0.749397,8.598023,49.296439,-107.501764
29963,-9.799766,2.948352,8.771093,1.233062,-1.090061,3.564183,-0.318610,2.785717,1.963066,-0.097048,0.028669,0.089021,0.999854,-0.001593,0.013928,0.009815,-0.515980,-0.387091,-0.195546,0.738706,10.049927,50.686272,-105.362684
29964,-9.234450,3.729422,9.287230,1.382019,-2.294744,3.538412,-0.020276,2.383725,2.022814,-0.091600,0.036375,0.093963,0.999878,-0.000101,0.011918,0.010114,-0.521167,-0.397800,-0.197804,0.728707,11.792190,51.807388,-103.113284
29965,-8.142180,5.436784,8.325403,2.903352,-3.054883,2.328117,-0.051084,2.142590,2.126309,-0.081096,0.053526,0.084110,0.999886,-0.000255,0.010713,0.010631,-0.526901,-0.407511,-0.199314,0.718738,13.652784,52.733186,-100.718754
29966,-7.855206,4.389857,7.659784,1.938090,-2.461241,1.581568,-0.136028,2.065673,2.131353,-0.078218,0.043116,0.077377,0.999890,-0.000680,0.010328,0.010656,-0.532794,-0.416681,-0.200841,0.708640,15.566115,53.568444,-98.230467
29967,-8.941095,2.805430,7.441320,0.432054,-1.219215,2.083023,-0.064599,2.033520,1.905972,-0.088910,0.027230,0.075310,0.999903,-0.000323,0.010167,0.009530,-0.537651,-0.425568,-0.202487,0.699159,17.428281,54.371674,-95.877101
29968,-10.599842,2.501443,8.629143,-0.458937,-1.158951,4.026171,0.291333,1.699317,1.946434,-0.105496,0.023859,0.087225,0.999915,0.001457,0.008496,0.009732,-0.542146,-0.434250,-0.201831,0.690485,19.539328,54.937889,-93.493918
29969,-9.574241,4.681557,9.385771,0.948686,-3.112055,4.010642,0.448028,1.234282,2.066528,-0.095636,0.045616,0.094551,0.999925,0.002240,0.006171,0.010332,-0.547083,-0.441759,-0.199116,0.682570,21.743256,55.177924,-91.113544
29970,-6.932862,5.996340,7.018683,2.798889,-3.257903,0.903219,0.271714,1.108309,2.489441,-0.069676,0.059002,0.070653,0.999906,0.001359,0.005541,0.012447,-0.553903,-0.448742,-0.195650,0.673456,24.161726,55.200916,-88.357803
29971,-5.997510,9.417963,4.797614,6.586598,-3.072968,-0.073771,0.398272,1.275805,3.636369,-0.061364,0.092976,0.048551,0.999812,0.001991,0.006379,0.018181,-0.563962,-0.457593,-0.189633,0.660753,27.536027,54.945298,-84.515995
29972,-8.204207,12.705897,5.079123,8.975100,-2.736302,3.089118,0.344192,1.410006,5.334715,-0.085028,0.124729,0.051600,0.999618,0.001721,0.007049,0.026670,-0.579328,-0.468124,-0.180125,0.642491,32.040110,54.118750,-79.230237
29973,-10.686096,11.661975,6.418386,6.559332,-1.650620,5.857533,0.040187,1.198223,6.661539,-0.110277,0.112971,0.064861,0.999427,0.000201,0.005990,0.033301,-0.599278,-0.477797,-0.167757,0.620027,36.816257,52.519524,-73.300771
29974,-11.612928,9.022977,7.038562,2.937189,-0.534209,6.213009,-0.313171,0.816666,7.009899,-0.118910,0.086205,0.070730,0.999376,-0.001566,0.004082,0.035042,-0.620779,-0.484993,-0.154234,0.596344,40.946474,50.348165,-67.793934
29975,-11.976009,5.187339,7.278684,-1.484644,0.570918,5.043990,-0.477005,0.322272,6.898836,-0.121340,0.047879,0.072864,0.999401,-0.002385,0.001611,0.034487,-0.641938,-0.489478,-0.139817,0.573392,44.177459,47.802471,-63.152598
29976,-11.234085,2.591312,6.801138,-4.096422,1.124290,2.879057,0.045032,-0.187447,6.663885,-0.113184,0.022135,0.067911,0.999444,0.000225,-0.000937,0.033313,-0.660782,-0.493487,-0.122603,0.552092,46.943363,44.985504,-59.372944
29977,-10.837531,3.458383,7.510240,-4.192692,0.476151,3.147214,0.679881,-0.600865,6.367034,-0.109622,0.030852,0.074883,0.999483,0.003399,-0.003004,0.031830,-0.676758,-0.497695,-0.102948,0.532636,49.398669,42.030103,-56.367886
29978,-11.953037,5.627594,8.794731,-4.133501,0.345899,5.504428,0.887424,-1.153751,6.163499,-0.121686,0.052159,0.087487,0.999499,0.004436,-0.005768,0.030812,-0.691286,-0.500551,-0.081199,0.514761,51.400628,38.872685,-54.069110
29979,-11.560874,5.826994,9.274240,-4.783594,0.148328,5.374217,0.800674,-1.825671,5.925776,-0.118101,0.054426,0.091895,0.999511,0.004003,-0.009127,0.029624,-0.704985,-0.500751,-0.057936,0.498886,52.814330,35.543720,-52.484046
29980,-12.029977,6.180522,9.882380,-5.751271,0.518346,5.908472,0.508506,-2.591146,5.578709,-0.123224,0.058146,0.097391,0.999524,0.002542,-0.012954,0.027889,-0.718102,-0.497450,-0.033453,0.485545,53.596266,32.080754,-51.603796
29981,-10.428948,4.553048,9.510029,-6.555302,0.276302,3.484975,0.009666,-3.359784,4.984586,-0.106958,0.042882,0.093320,0.999548,0.000048,-0.016796,0.024919,-0.730463,-0.489905,-0.008931,0.475750,53.682941,28.632616,-51.435121
29982,-8.155416,2.206832,8.040403,-6.694887,0.162022,-0.265324,-0.291830,-3.816988,4.004295,-0.083490,0.020525,0.078792,0.999616,-0.001459,-0.019082,0.020019,-0.740646,-0.479731,0.014203,0.470213,53.316472,25.474722,-51.871591
29983,-5.916923,2.078853,6.391498,-4.970616,0.136949,-2.366717,-0.468859,-3.968368,2.790155,-0.060705,0.020097,0.062673,0.999703,-0.002344,-0.019840,0.013949,-0.747874,-0.468289,0.034508,0.469255,52.662198,22.822496,-52.803690
29984,-5.701563,4.455832,6.433575,-3.404419,0.633434,-0.771308,-0.680302,-3.967194,1.850588,-0.058685,0.044236,0.063032,0.999755,-0.003401,-0.019834,0.009252,-0.752991,-0.455972,0.052135,0.471568,51.815313,20.580890,-54.034735
29985,-5.113967,5.714625,5.740514,-1.970617,1.210576,-0.517495,-0.904268,-4.016482,1.428626,-0.052683,0.057029,0.056099,0.999763,-0.004521,-0.020081,0.007143,-0.757239,-0.442578,0.068393,0.475432,50.837850,18.496876,-55.395291
29986,-2.736163,5.897955,4.823255,-0.133130,0.292439,-1.724121,-1.068760,-3.885064,1.249357,-0.028656,0.059058,0.047369,0.999778,-0.005343,-0.019424,0.006246,-0.761124,-0.428736,0.083366,0.479505,49.828190,16.514546,-56.708872
29987,-1.270720,7.031558,5.238754,1.127264,-0.625953,-1.047267,-1.190974,-3.497345,0.999227,-0.013968,0.070557,0.051731,0.999817,-0.005955,-0.017486,0.004996,-0.764519,-0.415283,0.095969,0.483571,48.821408,14.767511,-57.896264
29988,-1.318667,6.269088,5.257384,0.576558,-0.464014,-1.558782,-1.440827,-3.156138,0.829452,-0.014270,0.063009,0.051901,0.999841,-0.007204,-0.015780,0.004147,-0.767926,-0.401644,0.106312,0.487514,47.737670,13.199069,-58.957218
29989,-2.261518,7.036215,5.810285,0.322027,0.463688,-0.428813,-1.402180,-2.853560,0.684144,-0.023678,0.070686,0.057275,0.999868,-0.007011,-0.014267,0.003421,-0.770833,-0.388845,0.115231,0.491261,46.723788,11.794450,-59.910453
29990,-3.292556,7.156666,6.796253,-0.604223,1.179836,0.506322,-1.681054,-2.795178,0.497691,-0.034044,0.072048,0.066888,0.999864,-0.008405,-0.013975,0.002488,-0.773652,-0.375123,0.122882,0.495626,45.571508,10.469163,-60.881951
29991,-3.916415,5.775252,7.252474,-2.001460,1.510192,-0.066186,-1.858339,-2.862813,0.237885,-0.040261,0.058372,0.071413,0.999854,-0.009291,-0.014313,0.001189,-0.775897,-0.360595,0.129798,0.501107,44.318957,9.205424,-61.956356
29992,-5.231179,6.542982,8.648759,-2.736720,2.590810,1.622353,-1.972225,-3.021446,-0.131151,-0.053560,0.066308,0.085034,0.999837,-0.009861,-0.015106,-0.000656,-0.777078,-0.345364,0.136368,0.508211,42.999023,7.995632,-63.215741
29993,-8.838323,6.501468,11.633759,-5.798482,5.079597,4.196707,-2.495777,-3.633040,-0.602081,-0.090268,0.066716,0.113884,0.999753,-0.012478,-0.018164,-0.003010,-0.777229,-0.326716,0.143085,0.518361,41.352358,6.678252,-64.878581
29994,-9.008220,3.442409,11.240253,-7.452045,5.277551,1.844876,-2.848970,-4.659819,-1.245108,-0.092437,0.036571,0.109756,0.999608,-0.014243,-0.023296,-0.006225,-0.775056,-0.304297,0.151748,0.532601,39.483397,5.100948,-67.160297
29995,-5.920660,1.221891,8.792944,-6.173036,3.309295,-1.764757,-2.645340,-5.323940,-1.750140,-0.061399,0.013897,0.086138,0.999520,-0.013225,-0.026615,-0.008749,-0.770051,-0.281006,0.162611,0.549195,37.765193,3.337427,-69.850587
29996,-2.163904,2.626480,6.835591,-2.511877,1.109688,-2.688699,-2.235376,-5.387851,-2.058201,-0.023187,0.027255,0.067444,0.999522,-0.011175,-0.026935,-0.010289,-0.762830,-0.259108,0.174249,0.566207,36.360118,1.580085,-72.650069
29997,-0.250660,4.293113,6.204466,-0.170215,0.102675,-2.266621,-2.163646,-5.012934,-2.234166,-0.003568,0.043634,0.061495,0.999565,-0.010817,-0.025061,-0.011169,-0.754651,-0.238452,0.184281,0.582823,35.078831,-0.010558,-75.361687
29998,0.220953,4.542131,5.853313,0.450161,-0.026843,-2.414469,-2.143284,-4.539976,-2.273611,0.001409,0.046026,0.058080,0.999620,-0.010715,-0.022697,-0.011367,-0.746152,-0.219101,0.192378,0.598534,33.877965,-1.421455,-77.903464
29999,-0.017191,6.375335,6.531314,1.650291,0.658781,-0.860524,-2.192335,-4.114692,-2.317531,-0.000762,0.064471,0.064597,0.999661,-0.010960,-0.020571,-0.011586,-0.737450,-0.200716,0.198568,0.613557,32.703158,-2.669058,-80.304005
30000,-0.274392,5.440574,7.094603,0.717921,0.892437,-0.941910,-2.390610,-3.857885,-2.369824,-0.003452,0.055286,0.070227,0.999672,-0.011952,-0.019287,-0.011848,-0.728547,-0.182315,0.203007,0.628306,31.460671,-3.824491,-82.627182
30001,0.361419,4.120264,6.228684,0.315944,0.242328,-2.346653,-2.335713,-3.699107,-2.492239,0.002987,0.041887,0.061859,0.999683,-0.011677,-0.018494,-0.012460,-0.718904,-0.164610,0.206809,0.642892,30.294464,-4.916226,-84.941998
30002,0.637291,5.137343,6.716567,1.119221,0.222363,-1.409977,-2.371643,-3.378846,-2.817619,0.005974,0.052080,0.066654,0.999688,-0.011857,-0.016892,-0.014087,-0.708122,-0.148049,0.208934,0.658021,29.152371,-5.800362,-87.308952
30003,0.402288,3.709796,6.690573,0.058432,0.420965,-2.163915,-2.760692,-3.180562,-3.239263,0.003574,0.037957,0.066445,0.999647,-0.013802,-0.015901,-0.016194,-0.695980,-0.131094,0.208639,0.674460,27.835580,-6.521812,-89.818557
30004,0.611784,2.637259,7.461894,-1.058297,0.336375,-1.953174,-2.752278,-2.843332,-3.624211,0.005549,0.027293,0.074329,0.999640,-0.013760,-0.014215,-0.018119,-0.682387,-0.115626,0.206785,0.691533,26.561494,-7.024627,-92.422816
30005,-1.652216,3.309261,9.534469,-1.000196,2.972371,-0.079251,-2.760939,-2.743528,-3.935291,-0.017151,0.034736,0.094640,0.999617,-0.013803,-0.013716,-0.019674,-0.667325,-0.100697,0.204240,0.709101,25.319466,-7.456882,-95.154178
30006,0.235658,1.659308,8.542041,-1.935426,1.121919,-1.400609,-3.062743,-2.769884,-4.383220,0.001558,0.017859,0.085179,0.999547,-0.015311,-0.013847,-0.021913,-0.650240,-0.085054,0.200298,0.727897,23.954634,-7.854698,-98.119192
30007,0.059321,0.566956,8.764334,-2.719852,1.565277,-1.610132,-3.061017,-2.490082,-4.929198,-0.000335,0.007011,0.087543,0.999502,-0.015303,-0.012448,-0.024642,-0.630833,-0.070887,0.195048,0.747651,22.636760,-8.052915,-101.302147
30008,0.615855,1.178555,8.352926,-1.859836,0.983633,-1.620777,-3.111663,-2.323318,-5.435256,0.005530,0.012928,0.083401,0.999442,-0.015555,-0.011614,-0.027171,-0.609049,-0.057613,0.188672,0.768207,21.327923,-8.123270,-104.715994
30009,2.318954,2.287161,7.321456,-0.772747,-1.047643,-1.905931,-3.163610,-1.936514,-5.735869,0.023147,0.023364,0.073072,0.999417,-0.015815,-0.009681,-0.028674,-0.585799,-0.045873,0.180643,0.788735,20.001069,-8.006053,-108.210979
30010,2.621104,3.822725,6.761666,0.757176,-1.930006,-1.881545,-3.175792,-1.388708,-5.781493,0.026854,0.038526,0.067191,0.999432,-0.015876,-0.006942,-0.028902,-0.562193,-0.036250,0.170714,0.808382,18.639839,-7.662656,-111.625625
30011,3.793980,5.899098,5.745772,2.419466,-4.121648,-2.108403,-3.465352,-0.794582,-5.755389,0.039409,0.058857,0.056592,0.999428,-0.017323,-0.003972,-0.028771,-0.538612,-0.028146,0.157786,0.827169,17.073302,-7.088816,-114.924916
30012,5.482788,5.064503,4.312402,1.137438,-5.938671,-3.669949,-3.915048,0.114473,-5.638535,0.056266,0.049903,0.042110,0.999411,-0.019571,0.000572,-0.028187,-0.515672,-0.022467,0.140364,0.844912,15.180451,-6.130766,-118.024132
30013,5.633382,2.643407,3.264384,-1.036564,-5.431788,-5.477537,-3.552683,1.109167,-4.906557,0.057147,0.025609,0.031869,0.999526,-0.017761,0.005545,-0.024529,-0.495931,-0.021384,0.121861,0.859503,13.385985,-4.824901,-120.596830
30014,5.493348,5.275212,3.656630,1.017426,-6.656127,-4.711230,-2.578871,2.052921,-3.517205,0.056222,0.052232,0.035318,0.999710,-0.012893,0.010264,-0.017584,-0.482253,-0.025900,0.105253,0.869300,12.023120,-3.238237,-122.301567
30015,6.664937,8.869677,2.142328,3.443243,-9.946749,-5.705609,-2.403100,3.019212,-2.122652,0.067890,0.088221,0.019343,0.999758,-0.012015,0.015095,-0.010612,-0.474864,-0.034299,0.087208,0.875056,10.675487,-1.306253,-123.147552
30016,6.721262,7.487301,1.461362,2.269803,-9.529032,-7.093927,-2.949102,4.396462,-1.283844,0.067976,0.074628,0.012023,0.999629,-0.014744,0.021980,-0.006418,-0.471550,-0.047027,0.063618,0.878283,8.982942,1.295405,-123.435529
30017,1.754314,2.079356,3.567695,0.231793,-2.479572,-6.081586,-3.264844,5.373846,-0.753842,0.018567,0.021298,0.034842,0.999499,-0.016321,0.026865,-0.003769,-0.470536,-0.063105,0.036386,0.879369,7.108217,4.401392,-123.425461
30018,0.565502,-2.438353,4.082654,-2.932812,0.777016,-6.108234,-2.556787,5.815552,-0.358056,0.006802,-0.023872,0.040947,0.999494,-0.012782,0.029073,-0.001790,-0.470650,-0.082636,0.011357,0.878369,5.660370,7.728496,-123.250546
30019,-1.975358,-0.771229,5.851189,-0.541547,1.547940,-3.810106,-1.660111,6.101525,-0.050259,-0.017957,-0.007218,0.059139,0.999500,-0.008299,0.030503,-0.000251,-0.471284,-0.105450,-0.010334,0.875594,4.754059,11.209899,-122.950979
30020,-4.510461,1.769933,7.001391,2.545975,1.689987,-1.866806,-1.326095,6.153489,0.124329,-0.042936,0.018142,0.071238,0.999505,-0.006629,0.030762,0.000622,-0.472040,-0.129162,-0.030547,0.871529,4.072709,14.712855,-122.591958
30021,-5.112262,2.101398,6.681296,2.992411,1.627003,-1.839687,-1.285046,6.107927,0.417223,-0.049098,0.021345,0.068197,0.999511,-0.006424,0.030535,0.002086,-0.473584,-0.152711,-0.050290,0.865950,3.472578,18.186633,-122.095940
30022,-4.695985,2.709372,5.502409,3.338489,0.860887,-2.901199,-0.995196,6.186082,0.870311,-0.045349,0.027172,0.056308,0.999500,-0.004975,0.030925,0.004351,-0.476387,-0.177236,-0.068534,0.858456,3.158618,21.690663,-121.339853
30023,-6.167480,4.115482,5.162931,5.088905,1.050941,-2.422679,-0.946794,6.436204,1.326002,-0.060248,0.041002,0.053389,0.999449,-0.004733,0.032175,0.006629,-0.480510,-0.202930,-0.086724,0.848769,3.031648,25.329622,-120.287925
30024,-9.889373,2.853194,6.081578,5.146539,3.926298,0.236272,-1.094447,6.478722,1.669367,-0.097094,0.028060,0.063826,0.999426,-0.005471,0.032387,0.008345,-0.485691,-0.228372,-0.105159,0.837193,2.998501,28.981812,-118.985222
30025,-12.465857,1.273587,7.336550,4.064099,5.692856,2.909514,-0.995393,6.156439,1.786289,-0.122433,0.012013,0.077097,0.999474,-0.004976,0.030777,0.008930,-0.490874,-0.252514,-0.122186,0.824834,3.147772,32.447028,-117.568554
30026,-15.791682,0.116682,9.543371,3.131628,7.124362,6.915081,-0.774490,5.388689,1.631494,-0.155274,0.000273,0.099639,0.999596,-0.003872,0.026940,0.008156,-0.495162,-0.273724,-0.136469,0.813183,3.458453,35.473341,-116.217504
30027,-17.701543,-0.469454,12.072427,1.955548,6.872847,10.390863,-0.682751,4.044501,1.205604,-0.174495,-0.005331,0.124288,0.999772,-0.003413,0.020221,0.006028,-0.498188,-0.289214,-0.147580,0.803980,3.687778,37.740716,-115.170111
30028,-16.074257,-1.790875,12.269618,-0.212597,5.664157,9.680445,-0.585637,2.488795,0.586956,-0.159146,-0.018014,0.124736,0.999914,-0.002928,0.012444,0.002935,-0.499583,-0.298182,-0.155257,0.798373,3.698355,39.142360,-114.612044
30029,-10.714924,-1.470940,10.148713,-1.150074,2.590515,4.745222,-0.225277,1.351670,0.162784,-0.106448,-0.014681,0.102225,0.999976,-0.001126,0.006758,0.000814,-0.499571,-0.303112,-0.159288,0.795725,3.688860,39.906711,-114.417630
30030,-5.059935,0.952455,6.581822,0.295541,-0.590008,-1.482359,0.230938,1.043072,0.165443,-0.050263,0.009407,0.066092,0.999985,0.001155,0.005215,0.000827,-0.499105,-0.307987,-0.160718,0.793856,3.940880,40.498262,-114.229749
30031,-2.193172,4.433439,4.730762,3.056129,-3.159883,-4.566709,0.288111,1.492950,0.528270,-0.021694,0.044209,0.047534,0.999968,0.001441,0.007465,0.002641,-0.499606,-0.315024,-0.162482,0.790413,4.423529,41.326772,-113.738520
30032,-4.801659,4.815249,5.520337,3.847295,-2.052332,-2.216530,0.025102,1.996663,0.930286,-0.047686,0.047923,0.055687,0.999939,0.000126,0.009983,0.004651,-0.501657,-0.323736,-0.165883,0.784868,5.006305,42.424066,-112.885623
30033,-7.544298,3.684181,7.174433,2.936526,-0.758192,0.806202,-0.133885,2.046269,1.126875,-0.074910,0.036467,0.072488,0.999932,-0.000669,0.010231,0.005634,-0.504628,-0.332321,-0.169705,0.778533,5.632197,43.528945,-111.848931
30034,-8.036439,2.309676,7.520595,1.570097,-0.171214,1.321969,-0.296824,1.880718,1.065778,-0.079775,0.022783,0.075924,0.999940,-0.001484,0.009403,0.005329,-0.507715,-0.339805,-0.173800,0.772367,6.167116,44.538688,-110.834741
30035,-8.325670,1.312771,7.478253,0.619586,0.339381,1.432863,-0.104647,1.628750,0.974761,-0.082707,0.012763,0.075451,0.999955,-0.000523,0.008144,0.004874,-0.510282,-0.346640,-0.176673,0.766968,6.769258,45.400243,-109.892055
30036,-7.516796,2.992183,7.535705,1.791107,-1.037614,1.048044,0.016368,1.465186,1.008230,-0.074763,0.029538,0.075908,0.999960,0.000082,0.007326,0.005041,-0.512877,-0.353207,-0.178567,0.761784,7.486665,46.162011,-108.904462
30037,-6.508112,3.166133,6.470119,1.979559,-1.170111,-0.381193,0.021099,1.414801,1.166334,-0.064804,0.031276,0.065164,0.999958,0.000105,0.007074,0.005832,-0.516061,-0.359656,-0.180043,0.756249,8.317208,46.870104,-107.770764
30038,-5.756977,3.979879,5.455542,2.808274,-1.388004,-1.510233,0.050177,1.618360,1.465770,-0.057415,0.039364,0.055030,0.999940,0.000251,0.008092,0.007329,-0.520099,-0.367235,-0.181348,0.749499,9.412556,47.656657,-106.319634
30039,-6.854181,3.846152,5.428099,2.765678,-0.660500,-0.694069,-0.022855,1.835454,1.695352,-0.068363,0.037888,0.054905,0.999922,-0.000114,0.009177,0.008477,-0.524853,-0.375541,-0.183074,0.741608,10.672722,48.519635,-104.603191
30040,-8.489771,2.720012,6.252108,1.529930,0.192920,0.966074,-0.169286,1.859532,1.747570,-0.084545,0.026514,0.063286,0.999918,-0.000846,0.009297,0.008738,-0.529982,-0.383597,-0.185240,0.733252,11.959434,49.366862,-102.770134
30041,-8.374847,2.258541,6.419086,0.839343,0.079855,0.945063,-0.089501,1.770488,1.619903,-0.083355,0.021938,0.064920,0.999928,-0.000447,0.008852,0.008099,-0.534477,-0.391303,-0.187133,0.725395,13.243605,50.150893,-101.015292
30042,-8.673837,1.177184,6.449106,-0.311506,0.524748,1.042548,-0.100233,1.714563,1.404842,-0.086261,0.011197,0.065226,0.999938,-0.000501,0.008573,0.007024,-0.538209,-0.398582,-0.189269,0.718081,14.438684,50.910449,-99.394875
30043,-8.010588,3.282003,6.159871,1.491957,-0.516664,0.693919,0.289671,1.576171,1.564103,-0.079870,0.032105,0.062276,0.999937,0.001448,0.007881,0.007820,-0.541784,-0.406455,-0.189333,0.710927,15.980064,51.543027,-97.625461
30044,-7.023572,5.308557,5.654573,3.285665,-1.511629,0.005754,0.185835,1.647837,1.940496,-0.070277,0.052351,0.057174,0.999919,0.000929,0.008239,0.009702,-0.546777,-0.414658,-0.189125,0.702371,17.808106,52.120719,-95.437853
30045,-7.750406,6.178060,5.728531,3.894801,-1.421858,0.857683,0.122133,1.667039,2.534964,-0.077797,0.060760,0.057970,0.999885,0.000611,0.008335,0.012674,-0.553849,-0.423175,-0.187966,0.691985,20.063427,52.548723,-92.672151
30046,-8.436095,8.085744,5.929816,5.300739,-1.693982,2.050168,0.327347,1.542510,3.715445,-0.085381,0.079180,0.060085,0.999796,0.001637,0.007712,0.018576,-0.564528,-0.432864,-0.183139,0.678525,23.283584,52.579135,-88.856416
30047,-9.336576,10.297686,6.837292,6.523718,-2.267665,4.051634,0.530756,1.333578,5.207554,-0.095541,0.100325,0.069274,0.999635,0.002653,0.006667,0.026035,-0.579678,-0.443475,-0.173754,0.661145,27.501420,51.984558,-83.904837
30048,-12.224477,9.862481,8.580529,4.544450,-1.320405,7.445751,0.453416,0.913439,6.358763,-0.124899,0.094486,0.086589,0.999482,0.002267,0.004566,0.031788,-0.598679,-0.453146,-0.160626,0.640657,32.058383,50.619474,-78.405787
30049,-12.963555,8.109071,9.328211,1.651292,-0.549938,8.011449,0.365958,0.186221,6.925608,-0.132248,0.076370,0.093547,0.999398,0.001829,0.000931,0.034621,-0.619578,-0.460102,-0.144210,0.619381,36.194496,48.474064,-73.242812
30050,-13.159819,6.650223,10.098233,-0.967943,-0.198431,8.028298,0.357582,-0.573609,7.153676,-0.134148,0.061553,0.100713,0.999355,0.001788,-0.002867,0.035761,-0.640998,-0.464334,-0.124675,0.598307,39.679772,45.681089,-68.771898
30051,-12.989310,5.659626,10.135869,-2.788067,0.387395,7.376074,0.635647,-1.447090,7.263250,-0.132555,0.051493,0.100575,0.999309,0.003178,-0.007234,0.036308,-0.661760,-0.466222,-0.101173,0.578338,42.546261,42.312416,-65.165940
