// General information: 
//  MT Manager version: 2022.0.0 
//  XDA version: 2022.0.0 build 7085 rev 119802 built on 2022-11-08
// Device information: 
//  DeviceId: 00B4737C
//  ProductCode: MTW2-3A7G6
//  Firmware Version: 4.14.0
//  Hardware Version: 2.0.0
// Device settings: 
//  Filter Profile: human(46.1)
//  Option Flags: Orientation Smoother Disabled, Position/Velocity Smoother Disabled, Continuous Zero Rotation Update Disabled, AHS Disabled, ICC Disabled
// Coordinate system: ENU
PacketCounter,Acc_X,Acc_Y,Acc_Z,FreeAcc_E,FreeAcc_N,FreeAcc_U,Gyr_X,Gyr_Y,Gyr_Z,VelInc_X,VelInc_Y,VelInc_Z,OriInc_q0,OriInc_q1,OriInc_q2,OriInc_q3,Quat_q0,Quat_q1,Quat_q2,Quat_q3,Roll,Pitch,Yaw
13998,-4.922293,0.123902,9.513686,-1.626156,-1.809089,0.619679,-0.296745,-0.819083,-2.936343,-0.049585,0.002106,0.094932,0.999883,-0.001484,-0.004095,-0.014681,0.946009,0.159841,0.174039,-0.221875,14.224950,23.591625,-23.413625
13999,-4.056516,3.159772,8.666808,0.357508,0.922230,0.215956,0.110335,-0.872029,-2.845665,-0.040488,0.032126,0.086509,0.999889,0.000552,-0.004360,-0.014228,0.943436,0.156873,0.172034,-0.236061,13.544134,23.494953,-25.266399
14000,-2.705860,6.347192,7.844236,2.938213,3.437549,-0.395159,0.073038,-0.780197,-2.292839,-0.026635,0.063750,0.078361,0.999927,0.000365,-0.003901,-0.011464,0.941291,0.154274,0.170051,-0.247496,12.983769,23.359487,-26.767911
14001,-1.774453,7.301506,7.225282,4.130790,4.098001,-1.163549,-0.329666,-0.478223,-1.470093,-0.017379,0.073263,0.072090,0.999969,-0.001648,-0.002391,-0.007350,0.940121,0.150847,0.169324,-0.254453,12.412656,23.274546,-27.723674
14002,-2.209320,5.689379,6.970092,2.923256,3.082017,-1.579363,-0.549427,-0.120425,-0.703319,-0.021934,0.057162,0.069531,0.999990,-0.002747,-0.000602,-0.003517,0.939750,0.147481,0.169981,-0.257343,11.919294,23.290043,-28.164130
14003,-3.718520,3.309714,8.105393,0.750530,1.406963,-0.435277,-0.588542,0.092111,-0.292725,-0.037099,0.033390,0.080973,0.999994,-0.002943,0.000461,-0.001464,0.939742,0.144556,0.171374,-0.258107,11.513808,23.373061,-28.326654
14004,-4.474009,0.869879,8.668654,-0.987795,-0.435288,-0.078543,-0.490770,0.060754,-0.228873,-0.044704,0.008963,0.086678,0.999996,-0.002454,0.000304,-0.001144,0.939763,0.142102,0.172451,-0.258676,11.177683,23.430968,-28.454825
14005,-4.559415,0.243344,9.071190,-1.268390,-1.026166,0.210889,-0.140491,-0.030172,-0.303185,-0.045604,0.002566,0.090703,0.999999,-0.000702,-0.000151,-0.001516,0.939514,0.141113,0.172695,-0.259958,11.019802,23.444773,-28.639556
14006,-4.214089,1.165798,9.582543,-0.360776,-0.575360,0.698332,-0.032246,-0.157527,-0.349765,-0.042196,0.011747,0.095790,0.999998,-0.000161,-0.000788,-0.001749,0.939233,0.140424,0.172238,-0.261643,10.906213,23.392384,-28.868279
14007,-3.923394,1.512297,9.819037,0.118499,-0.472138,0.857667,-0.157773,-0.237349,-0.405952,-0.039320,0.015280,0.098132,0.999997,-0.000789,-0.001187,-0.002030,0.939032,0.138993,0.171603,-0.263537,10.704154,23.299758,-29.140188
14008,-4.235662,0.973718,9.827682,-0.423657,-0.733387,0.899676,-0.204547,-0.324705,-0.494332,-0.042492,0.009943,0.098198,0.999995,-0.001023,-0.001624,-0.002472,0.938814,0.137149,0.170686,-0.265867,10.450203,23.166970,-29.475967
14009,-4.398833,1.015603,9.712240,-0.571959,-0.533634,0.868916,-0.043723,-0.470753,-0.592243,-0.044186,0.010308,0.097016,0.999993,-0.000219,-0.002354,-0.002961,0.938470,0.135782,0.168928,-0.268888,10.260317,22.960020,-29.886749
14010,-3.588672,1.795998,9.104611,0.333445,-0.012794,0.131487,0.076532,-0.532046,-0.634295,-0.036072,0.018039,0.090957,0.999991,0.000383,-0.002660,-0.003171,0.938023,0.134857,0.166754,-0.272248,10.128031,22.722450,-30.329084
14011,-3.368521,2.412173,8.547334,0.693788,0.607882,-0.359037,0.158505,-0.479126,-0.544605,-0.033824,0.024146,0.085412,0.999993,0.000793,-0.002396,-0.002723,0.937587,0.134463,0.164646,-0.275213,10.068741,22.504300,-30.709302
14012,-3.177902,3.073522,8.375732,1.153008,1.128871,-0.480236,0.203282,-0.386413,-0.337546,-0.031889,0.030704,0.083727,0.999996,0.001016,-0.001932,-0.001688,0.937317,0.134574,0.162777,-0.277181,10.088014,22.318247,-30.952814
14013,-3.180157,3.251215,8.466311,1.248234,1.248216,-0.365675,0.160201,-0.279593,-0.052962,-0.031911,0.032453,0.084645,0.999999,0.000801,-0.001398,-0.000265,0.937381,0.134864,0.161270,-0.277706,10.153945,22.163279,-31.010805
14014,-3.358467,3.125529,8.908593,1.107544,1.079851,0.087739,0.146836,-0.205373,0.226074,-0.033711,0.031152,0.089074,0.999999,0.000734,-0.001027,0.001130,0.937778,0.135419,0.159945,-0.276862,10.278925,22.022499,-30.891280
14015,-3.606396,2.413379,9.218982,0.542656,0.509269,0.349307,0.139016,-0.202189,0.451227,-0.036211,0.023988,0.092170,0.999997,0.000695,-0.001011,0.002256,0.938485,0.136122,0.158488,-0.274951,10.450464,21.859413,-30.634902
14016,-3.647051,1.989715,9.390919,0.261152,0.109824,0.452238,0.310606,-0.254571,0.651608,-0.036654,0.019632,0.093893,0.999993,0.001553,-0.001273,0.003258,0.939382,0.137716,0.156415,-0.272270,10.761885,21.645244,-30.264188
14017,-3.525665,2.393548,9.389003,0.509693,0.350754,0.479505,0.506855,-0.332278,0.863917,-0.035515,0.023544,0.093891,0.999986,0.002534,-0.001661,0.004320,0.940474,0.140288,0.153556,-0.268792,11.227213,21.361291,-29.776332
14018,-3.146975,3.243622,9.603004,1.240878,0.759641,0.700382,0.456041,-0.330566,0.924478,-0.031777,0.032071,0.096051,0.999985,0.002280,-0.001653,0.004622,0.941653,0.142667,0.150731,-0.264982,11.673197,21.068317,-29.255285
14019,-3.395004,2.433253,9.628170,0.533469,0.186568,0.667236,0.006169,-0.297246,0.725102,-0.034181,0.024206,0.096232,0.999992,0.000031,-0.001486,0.003626,0.942844,0.142818,0.148793,-0.261741,11.816852,20.814285,-28.852308
14020,-3.578914,-0.019497,9.359957,-1.022054,-1.641081,0.019911,-0.224640,-0.248543,0.334983,-0.035905,-0.000150,0.093555,0.999997,-0.001123,-0.001243,0.001675,0.943642,0.141654,0.147667,-0.260130,11.746104,20.633381,-28.677981
14021,-4.330931,-1.153810,8.715330,-2.398545,-2.002262,-0.523820,0.134724,-0.282615,-0.025234,-0.043434,-0.011591,0.087084,0.999999,0.000674,-0.001413,-0.000126,0.943740,0.141873,0.146164,-0.260506,11.803291,20.475091,-28.723826
14022,-4.319980,0.672338,9.335307,-1.330578,-0.720465,0.384001,0.571856,-0.352459,-0.238833,-0.043356,0.006508,0.093296,0.999994,0.002859,-0.001762,-0.001194,0.943291,0.143906,0.143918,-0.262259,12.063066,20.303584,-28.906839
14023,-3.892533,2.427199,9.933219,0.029260,0.313180,1.124077,0.339144,-0.487371,-0.312115,-0.039130,0.024165,0.099278,0.999994,0.001696,-0.002437,-0.001561,0.943002,0.144611,0.141386,-0.264283,12.169213,20.065349,-29.151039
14024,-2.772114,2.316570,8.853761,0.646405,0.101377,-0.272668,0.000263,-0.463184,-0.283869,-0.027893,0.023205,0.088473,0.999996,0.000001,-0.002316,-0.001419,0.942967,0.143767,0.139401,-0.265916,12.088675,19.837899,-29.375220
14025,-2.290490,2.106919,8.420430,0.823956,-0.122736,-0.874282,0.044917,-0.294895,-0.152193,-0.023013,0.021068,0.084175,0.999999,0.000225,-0.001474,-0.000761,0.942955,0.143450,0.138048,-0.266835,12.068692,19.688180,-29.498874
14026,-2.537101,2.550059,8.420015,0.844519,0.357385,-0.702507,0.143305,-0.128461,0.032606,-0.025429,0.025436,0.084202,1.000000,0.000717,-0.000642,0.000163,0.943001,0.143945,0.137221,-0.266832,12.149125,19.610020,-29.491530
14027,-3.144829,2.876871,9.017223,0.612484,0.690517,0.118306,0.188679,-0.065754,0.225101,-0.031510,0.028648,0.090189,0.999999,0.000943,-0.000329,0.001126,0.943228,0.144870,0.136485,-0.265906,12.296823,19.543139,-29.361703
14028,-3.344699,2.655676,9.111555,0.317481,0.554470,0.229808,0.183701,-0.100119,0.426170,-0.033549,0.026402,0.091123,0.999997,0.000919,-0.000501,0.002131,0.943744,0.145863,0.135451,-0.264052,12.479567,19.432363,-29.117394
14029,-3.153702,2.729563,9.266417,0.503949,0.457852,0.326300,0.189328,-0.142930,0.572006,-0.031681,0.027117,0.092667,0.999995,0.000947,-0.000715,0.002860,0.944472,0.146923,0.134097,-0.261543,12.691715,19.278243,-28.792801
14030,-2.994742,2.036904,9.098741,0.199855,-0.134504,-0.022568,0.031526,-0.112949,0.588496,-0.030059,0.020266,0.090974,0.999995,0.000158,-0.000565,0.002942,0.945307,0.147288,0.133081,-0.258827,12.816915,19.138273,-28.455291
14031,-3.270679,0.954803,8.747100,-0.689568,-0.786027,-0.483842,0.045236,-0.095099,0.537580,-0.032774,0.009440,0.087458,0.999996,0.000226,-0.000475,0.002688,0.946046,0.147705,0.132165,-0.256343,12.940018,19.013701,-28.145970
14032,-3.429320,0.842472,8.789874,-0.896344,-0.836985,-0.419720,0.152119,-0.069682,0.431346,-0.034342,0.008284,0.087893,0.999997,0.000761,-0.000348,0.002157,0.946547,0.148589,0.131312,-0.254414,13.104257,18.916681,-27.896526
14033,-3.673242,1.011494,9.061946,-0.987949,-0.701275,-0.057340,0.167049,-0.076447,0.300170,-0.036782,0.009984,0.090614,0.999998,0.000835,-0.000382,0.001501,0.946871,0.149449,0.130502,-0.253118,13.251333,18.831999,-27.725666
14034,-3.828777,1.063518,9.285848,-1.075607,-0.679838,0.207213,0.128260,-0.138651,0.191709,-0.038362,0.010539,0.092839,0.999999,0.000641,-0.000693,0.000959,0.947125,0.149973,0.129532,-0.252358,13.352164,18.727041,-27.627799
14035,-3.590973,1.275622,9.366373,-0.778001,-0.642154,0.248800,0.144902,-0.202418,0.105867,-0.036011,0.012669,0.093637,0.999999,0.000725,-0.001012,0.000529,0.947297,0.150441,0.128299,-0.252061,13.443547,18.597324,-27.589459
14036,-3.287134,1.555011,9.534406,-0.378944,-0.603620,0.366712,0.134255,-0.257234,0.053667,-0.032998,0.015477,0.095312,0.999999,0.000671,-0.001286,0.000268,0.947445,0.150754,0.126864,-0.252046,13.515989,18.444526,-27.589960
14037,-3.066218,1.830238,9.395315,-0.106117,-0.423568,0.228859,0.173537,-0.283505,0.065544,-0.030801,0.018211,0.093925,0.999999,0.000868,-0.001418,0.000328,0.947593,0.151229,0.125240,-0.252018,13.612370,18.274959,-27.587228
14038,-2.679317,2.288925,9.261892,0.398291,-0.169865,0.087462,0.213646,-0.297688,0.136064,-0.026947,0.022772,0.092603,0.999998,0.001068,-0.001488,0.000680,0.947804,0.151916,0.123450,-0.251692,13.743297,18.088470,-27.545790
14039,-2.531104,2.536889,8.998675,0.570356,0.055265,-0.143667,0.238683,-0.249565,0.264273,-0.025457,0.025228,0.089985,0.999998,0.001193,-0.001248,0.001321,0.948125,0.152865,0.121753,-0.250735,13.914165,17.910559,-27.422748
14040,-2.315458,2.969850,8.859509,0.913890,0.355454,-0.236124,0.250357,-0.166052,0.422193,-0.023291,0.029539,0.088613,0.999997,0.001252,-0.000830,0.002111,0.948577,0.154066,0.120321,-0.248973,14.122590,17.757224,-27.196253
14041,-2.465933,3.121938,9.069398,0.861644,0.460013,0.042625,0.116575,-0.043936,0.523055,-0.024761,0.031102,0.090707,0.999996,0.000583,-0.000220,0.002615,0.949179,0.154847,0.119552,-0.246554,14.277587,17.656403,-26.893398
14042,-2.738465,2.579575,9.079391,0.336840,0.116864,0.008800,-0.063293,0.048116,0.529851,-0.027431,0.025752,0.090792,0.999996,-0.000316,0.000241,0.002649,0.949866,0.154888,0.119438,-0.243924,14.333992,17.605548,-26.573386
14043,-3.166033,1.507148,9.225253,-0.547708,-0.647520,0.019977,-0.145791,0.099087,0.445285,-0.031648,0.015068,0.092257,0.999997,-0.000729,0.000495,0.002226,0.950477,0.154550,0.119728,-0.241604,14.330737,17.594488,-26.294966
14044,-3.468702,0.702733,9.336562,-1.186971,-1.235710,0.024041,-0.041686,0.080119,0.309985,-0.034660,0.006993,0.093378,0.999999,-0.000208,0.000401,0.001550,0.950852,0.154600,0.119910,-0.240003,14.361987,17.592393,-26.098332
14045,-3.659775,1.050074,9.594222,-1.143430,-0.966252,0.400276,0.111259,0.003732,0.160646,-0.036604,0.010418,0.095949,1.000000,0.000556,0.000019,0.000803,0.950973,0.155199,0.119657,-0.239262,14.451552,17.568648,-25.999913
14046,-3.532492,1.543381,9.766150,-0.776696,-0.674810,0.636215,0.091652,-0.100722,0.020220,-0.035376,0.015385,0.097651,1.000000,0.000458,-0.000504,0.000101,0.951003,0.155490,0.119045,-0.239260,14.499751,17.507398,-25.999167
14047,-3.231071,1.672528,9.743498,-0.474212,-0.682412,0.554681,0.058068,-0.195575,-0.071547,-0.032400,0.016709,0.097408,0.999999,0.000290,-0.000978,-0.000358,0.951005,0.155458,0.118088,-0.239745,14.509107,17.406259,-26.065855
14048,-3.085181,1.848712,9.545335,-0.312943,-0.518026,0.369805,0.076640,-0.268739,-0.091071,-0.030972,0.018465,0.095419,0.999999,0.000383,-0.001344,-0.000455,0.951011,0.155410,0.116781,-0.240393,14.521734,17.267837,-26.155133
14049,-2.735362,2.311171,9.420617,0.171568,-0.225336,0.261610,0.080198,-0.299633,-0.081405,-0.027485,0.023085,0.094174,0.999999,0.000401,-0.001498,-0.000407,0.951041,0.155352,0.115310,-0.241019,14.537764,17.110428,-26.243150
14050,-2.672259,2.296747,9.125749,0.151270,-0.151169,-0.032630,0.064535,-0.271632,-0.061085,-0.026839,0.022946,0.091228,0.999999,0.000323,-0.001358,-0.000305,0.951090,0.155258,0.113980,-0.241518,14.548832,16.966105,-26.315398
14051,-2.806170,2.486017,9.022406,0.091981,0.106618,-0.043409,0.099904,-0.248273,-0.023099,-0.028171,0.024818,0.090202,0.999999,0.000500,-0.001241,-0.000115,0.951142,0.155388,0.112684,-0.241836,14.588659,16.828831,-26.361863
14052,-2.746432,2.631806,8.933233,0.180358,0.238525,-0.107922,0.081692,-0.220056,0.012884,-0.027564,0.026280,0.089313,0.999999,0.000408,-0.001100,0.000064,0.951235,0.155480,0.111520,-0.241953,14.624480,16.702468,-26.383545
14053,-2.693028,2.574589,8.927564,0.177043,0.174429,-0.142087,0.051755,-0.184740,0.031505,-0.027017,0.025719,0.089257,1.000000,0.000259,-0.000924,0.000158,0.951352,0.155488,0.110541,-0.241935,14.648684,16.592562,-26.388923
14054,-2.301124,2.341480,8.579069,0.337645,-0.061283,-0.633343,0.015983,-0.091785,0.027650,-0.023054,0.023405,0.085782,1.000000,0.000080,-0.000459,0.000138,0.951441,0.155431,0.110056,-0.241844,14.654923,16.535163,-26.382736
14055,-2.606636,2.150902,8.694418,-0.008609,-0.131687,-0.485500,0.058355,0.025289,0.029038,-0.026058,0.021480,0.086954,1.000000,0.000292,0.000126,0.000145,0.951434,0.155724,0.110070,-0.241678,14.691545,16.542032,-26.357812
14056,-2.764903,2.402897,9.104591,0.035083,-0.002975,0.001126,0.036857,0.056498,0.042276,-0.027628,0.024006,0.091058,1.000000,0.000184,0.000282,0.000211,0.951442,0.155953,0.110253,-0.241414,14.718551,16.564642,-26.320717
14057,-2.785566,2.315558,9.201909,-0.008743,-0.104250,0.075962,-0.036457,0.075928,0.030774,-0.027824,0.023168,0.092025,1.000000,-0.000182,0.000380,0.000154,0.951483,0.155856,0.110621,-0.241147,14.703350,16.599306,-26.287092
14058,-3.057615,2.014429,9.411420,-0.356568,-0.311915,0.274796,-0.063796,0.042976,0.021695,-0.030558,0.020171,0.094114,1.000000,-0.000319,0.000215,0.000108,0.951552,0.155579,0.110877,-0.240936,14.668733,16.617415,-26.263944
14059,-3.029463,1.992199,9.454196,-0.335060,-0.353862,0.301207,-0.024923,-0.015894,0.002766,-0.030302,0.019933,0.094537,1.000000,-0.000125,-0.000079,0.000014,0.951601,0.155411,0.110816,-0.240881,14.651546,16.605271,-26.260442
14060,-2.791535,2.182901,9.448988,-0.039361,-0.288433,0.274748,-0.024698,-0.067147,-0.032660,-0.027944,0.021845,0.094478,1.000000,-0.000123,-0.000336,-0.000163,0.951635,0.155156,0.110544,-0.241035,14.625519,16.570247,-26.285406
14061,-2.662189,2.177745,9.167175,0.026694,-0.243573,-0.024589,-0.002103,-0.075938,-0.047719,-0.026651,0.021785,0.091661,1.000000,-0.000011,-0.000380,-0.000239,0.951638,0.154997,0.110209,-0.241279,14.610508,16.532116,-26.320152
14062,-2.864945,2.386254,9.263234,-0.036423,-0.012468,0.172709,0.016284,-0.064749,-0.042859,-0.028674,0.023861,0.092625,1.000000,0.000081,-0.000324,-0.000214,0.951626,0.154934,0.109906,-0.241503,14.606390,16.499859,-26.350624
14063,-2.842437,2.401668,9.161028,-0.028366,0.029947,0.075193,0.007297,-0.073919,-0.034901,-0.028454,0.024018,0.091601,1.000000,0.000036,-0.000370,-0.000175,0.951636,0.154828,0.109560,-0.241690,14.599001,16.460987,-26.377631
14064,-2.858159,2.352088,9.042894,-0.087353,0.039883,-0.042012,0.012759,-0.062419,-0.019838,-0.028607,0.023518,0.090422,1.000000,0.000064,-0.000312,-0.000099,0.951653,0.154764,0.109254,-0.241800,14.596778,16.426694,-26.394422
14065,-2.838516,2.268101,8.982174,-0.124968,-0.015725,-0.124291,0.025173,-0.044770,-0.008301,-0.028404,0.022671,0.089818,1.000000,0.000126,-0.000224,-0.000042,0.951665,0.154794,0.109004,-0.241847,14.605249,16.400141,-26.401655
14066,-2.827508,2.333883,9.158931,-0.064075,-0.028085,0.052551,0.058644,-0.020956,0.005352,-0.028285,0.023311,0.091593,1.000000,0.000293,-0.000105,0.000027,0.951655,0.155012,0.108821,-0.241831,14.635201,16.385212,-26.397648
14067,-2.802096,2.416162,9.345826,0.018983,-0.037278,0.238795,0.027288,-0.022202,0.009439,-0.028032,0.024148,0.093458,1.000000,0.000136,-0.000111,0.000047,0.951674,0.155088,0.108662,-0.241777,14.648734,16.368606,-26.391242
14068,-2.784101,2.260182,9.394248,-0.039670,-0.191413,0.240835,0.005001,-0.033497,0.008255,-0.027858,0.022598,0.093938,1.000000,0.000025,-0.000167,0.000041,0.951716,0.155037,0.108482,-0.241727,14.647886,16.346301,-26.387457
14069,-2.906104,2.230639,9.456187,-0.156765,-0.184000,0.325470,0.027260,-0.068566,0.021845,-0.029096,0.022290,0.094555,1.000000,0.000136,-0.000343,0.000109,0.951775,0.155064,0.108093,-0.241651,14.661441,16.302194,-26.380894
14070,-2.700183,2.289934,9.428891,0.036552,-0.211048,0.256716,0.038022,-0.099028,0.025788,-0.027051,0.022878,0.094280,1.000000,0.000190,-0.000495,0.000129,0.951847,0.155100,0.107548,-0.241586,14.679536,16.241018,-26.376903
14071,-2.637125,2.398041,9.368180,0.124112,-0.124906,0.209129,0.050944,-0.113706,0.033747,-0.026429,0.023952,0.093673,1.000000,0.000255,-0.000569,0.000169,0.951927,0.155192,0.106906,-0.241500,14.706649,16.170160,-26.370337
14072,-2.525713,2.458866,9.422687,0.245164,-0.138633,0.243800,0.030625,-0.093944,0.037419,-0.025306,0.024570,0.094219,1.000000,0.000153,-0.000470,0.000187,0.952015,0.155205,0.106384,-0.241372,14.722549,16.110079,-26.358911
14073,-2.718996,2.299415,9.340320,-0.020223,-0.158021,0.182133,0.009666,-0.083533,0.043993,-0.027234,0.022984,0.093393,1.000000,0.000048,-0.000418,0.000220,0.952122,0.155142,0.105928,-0.241192,14.728889,16.054445,-26.341909
14074,-2.706655,2.277683,9.202071,-0.046692,-0.129941,0.044942,0.006612,-0.083746,0.042379,-0.027110,0.022768,0.092010,1.000000,0.000033,-0.000419,0.000212,0.952230,0.155055,0.105480,-0.241019,14.732213,15.999258,-26.326093
14075,-2.670071,2.158997,9.173996,-0.084725,-0.231373,-0.020239,-0.001546,-0.067066,0.023821,-0.026734,0.021587,0.091731,1.000000,-0.000008,-0.000335,0.000119,0.952312,0.154948,0.105131,-0.240917,14.729581,15.955687,-26.318237
14076,-2.571045,2.058003,9.135070,-0.058132,-0.341936,-0.108315,0.010429,-0.026969,-0.020700,-0.025721,0.020578,0.091348,1.000000,0.000052,-0.000135,-0.000103,0.952310,0.154915,0.104997,-0.241002,14.727419,15.941145,-26.330176
14077,-2.658734,2.093201,9.212079,-0.108094,-0.301904,-0.004021,0.031215,0.001030,-0.032744,-0.026583,0.020922,0.092124,1.000000,0.000156,0.000005,-0.000164,0.952263,0.155015,0.104977,-0.241133,14.737434,15.943548,-26.344601
14078,-2.730490,2.347764,9.328282,-0.030521,-0.100831,0.185978,0.038171,0.008188,-0.021039,-0.027299,0.023463,0.093288,1.000000,0.000191,0.000041,-0.000105,0.952221,0.155156,0.104978,-0.241208,14.752528,15.948524,-26.351412
14079,-2.782820,2.470602,9.446317,-0.001061,-0.016928,0.340173,-0.013049,-0.012397,0.001856,-0.027834,0.024712,0.094460,1.000000,-0.000065,-0.000062,0.000009,0.952257,0.155048,0.104920,-0.241161,14.742098,15.938445,-26.347934
14080,-2.767388,2.230871,9.335199,-0.120778,-0.181139,0.173992,-0.041896,-0.036129,0.011771,-0.027692,0.022327,0.093342,1.000000,-0.000209,-0.000181,0.000059,0.952340,0.154771,0.104781,-0.241072,14.714664,15.914079,-26.342549
14081,-2.742103,2.025035,9.218953,-0.218056,-0.319380,0.008690,-0.001956,-0.051125,0.015031,-0.027446,0.020249,0.092182,1.000000,-0.000010,-0.000256,0.000075,0.952403,0.154676,0.104515,-0.240998,14.711064,15.880623,-26.337334
14082,-2.535222,2.160070,9.121507,0.008513,-0.259399,-0.105588,0.038768,-0.062435,0.013216,-0.025382,0.021581,0.091211,1.000000,0.000194,-0.000312,0.000066,0.952439,0.154752,0.104152,-0.240964,14.728937,15.841473,-26.335100
14083,-2.385744,2.290939,9.116109,0.194659,-0.213724,-0.119388,0.061664,-0.021625,0.023883,-0.023870,0.022878,0.091166,1.000000,0.000308,-0.000108,0.000119,0.952448,0.155000,0.103943,-0.240859,14.764387,15.823069,-26.320337
14084,-2.670224,2.450529,9.299284,0.045905,-0.026015,0.167748,0.045269,0.004066,0.054617,-0.026707,0.024477,0.092999,1.000000,0.000226,0.000020,0.000273,0.952494,0.155209,0.103857,-0.240580,14.795204,15.814672,-26.284198
14085,-2.799247,2.294680,9.220911,-0.155189,-0.077827,0.091675,0.029603,0.003514,0.072873,-0.027999,0.022923,0.092213,1.000000,0.000148,0.000018,0.000364,0.952574,0.155360,0.103769,-0.240205,14.820998,15.803004,-26.237428
14086,-2.974498,2.216500,9.324372,-0.337154,-0.106894,0.216237,0.031734,-0.026966,0.089423,-0.029767,0.022137,0.093243,1.000000,0.000159,-0.000135,0.000447,0.952688,0.155484,0.103524,-0.239777,14.848198,15.772284,-26.185999
14087,-2.791180,2.254226,9.127530,-0.192320,-0.087118,-0.007615,0.041232,-0.045136,0.089693,-0.027943,0.022511,0.091274,1.000000,0.000206,-0.000226,0.000448,0.952804,0.155641,0.103176,-0.239365,14.881214,15.731157,-26.137006
14088,-2.703049,2.270198,9.217081,-0.103955,-0.141782,0.055643,-0.008106,-0.034992,0.056483,-0.027053,0.022698,0.092165,1.000000,-0.000041,-0.000175,0.000282,0.952913,0.155549,0.102967,-0.239080,14.880022,15.700833,-26.105802
14089,-2.623901,1.949689,9.023717,-0.218612,-0.375272,-0.224935,0.004202,-0.013953,0.007171,-0.026246,0.019494,0.090236,1.000000,0.000021,-0.000070,0.000036,0.952942,0.155524,0.102877,-0.239018,14.880217,15.689102,-26.099533
14090,-2.765672,2.079801,9.151467,-0.263344,-0.251168,-0.035600,0.036598,0.006516,-0.012524,-0.027652,0.020783,0.091519,1.000000,0.000183,0.000033,-0.000063,0.952913,0.155658,0.102865,-0.239052,14.895563,15.691920,-26.101684
14091,-2.824549,2.222557,9.252945,-0.233772,-0.144267,0.109982,0.044730,-0.010225,-0.026206,-0.028247,0.022209,0.092533,1.000000,0.000224,-0.000051,-0.000131,0.952869,0.155814,0.102771,-0.239167,14.913940,15.687170,-26.114046
14092,-2.902069,2.292588,9.324804,-0.261195,-0.077856,0.215056,0.022564,-0.052051,-0.025019,-0.029042,0.022919,0.093243,1.000000,0.000113,-0.000260,-0.000125,0.952866,0.155805,0.102507,-0.239299,14.916841,15.659424,-26.132357
14093,-2.748399,2.222574,9.333115,-0.167907,-0.201544,0.163872,0.013991,-0.093448,-0.020378,-0.027525,0.022222,0.093320,1.000000,0.000070,-0.000467,-0.000102,0.952895,0.155717,0.102048,-0.239436,14.915086,15.607740,-26.154112
14094,-2.506226,2.139503,9.175799,-0.026319,-0.315036,-0.068255,0.019207,-0.105406,-0.023922,-0.025108,0.021389,0.091747,1.000000,0.000096,-0.000527,-0.000120,0.952923,0.155629,0.101533,-0.239602,14.914042,15.550311,-26.179955
14095,-2.550663,2.162136,9.224086,-0.056448,-0.290728,-0.005712,0.035933,-0.085430,-0.025372,-0.025543,0.021608,0.092234,1.000000,0.000180,-0.000427,-0.000127,0.952924,0.155652,0.101090,-0.239768,14.924460,15.503804,-26.203343
14096,-2.712177,2.164051,9.188737,-0.207200,-0.206346,0.004970,0.039961,-0.080316,-0.017259,-0.027157,0.021624,0.091881,1.000000,0.000200,-0.000402,-0.000086,0.952931,0.155696,0.100665,-0.239893,14.937356,15.459269,-26.221518
14097,-2.682526,2.338586,9.062774,-0.118973,-0.028666,-0.076989,0.045053,-0.072190,-0.004640,-0.026857,0.023366,0.090623,1.000000,0.000225,-0.000361,-0.000023,0.952943,0.155789,0.100257,-0.239954,14.956741,15.417038,-26.230983
14098,-2.603142,2.218045,8.971570,-0.126507,-0.130948,-0.213105,0.025306,-0.054851,0.002921,-0.026056,0.022169,0.089711,1.000000,0.000127,-0.000274,0.000015,0.952972,0.155803,0.099955,-0.239956,14.965355,15.383635,-26.233682
14099,-2.462021,2.192225,9.102044,-0.006579,-0.258780,-0.135519,0.049530,-0.008982,0.012391,-0.024626,0.021898,0.091025,1.000000,0.000248,-0.000045,0.000062,0.952969,0.156003,0.099830,-0.239888,14.992476,15.373872,-26.223685
14100,-2.385292,2.327695,9.129920,0.127447,-0.192299,-0.096206,0.056972,0.036089,0.020540,-0.023839,0.023248,0.091310,1.000000,0.000285,0.000180,0.000103,0.952949,0.156285,0.099910,-0.239751,15.025596,15.388177,-26.202304
14101,-2.509906,2.358189,9.095576,0.031045,-0.109373,-0.087603,0.067665,0.071089,0.045065,-0.025072,0.023545,0.090973,1.000000,0.000338,0.000355,0.000225,0.952932,0.156683,0.100119,-0.239474,15.071371,15.417846,-26.161210
14102,-2.543152,2.537212,9.329459,0.119224,-0.033671,0.183738,0.022542,0.076948,0.049989,-0.025402,0.025355,0.093307,1.000000,0.000113,0.000385,0.000250,0.952953,0.156865,0.100411,-0.239148,15.090963,15.450315,-26.116582
14103,-2.669986,2.214844,9.259231,-0.151919,-0.229322,0.071241,-0.003892,0.068215,0.041266,-0.026673,0.022145,0.092601,1.000000,-0.000019,0.000341,0.000206,0.952988,0.156917,0.100696,-0.238855,15.095091,15.478930,-26.078077
14104,-2.750831,2.189449,9.414117,-0.212657,-0.272545,0.230562,0.007013,0.042775,0.021083,-0.027490,0.021888,0.094148,1.000000,0.000035,0.000214,0.000105,0.953004,0.156969,0.100866,-0.238685,15.099977,15.496788,-26.055310
14105,-2.855482,2.085128,9.383227,-0.356750,-0.306913,0.203550,0.027139,0.005546,-0.010009,-0.028551,0.020840,0.093836,1.000000,0.000136,0.000028,-0.000050,0.952984,0.157068,0.100855,-0.238702,15.111450,15.498385,-26.055936
14106,-2.754543,2.215057,9.323730,-0.214720,-0.221671,0.153790,0.042640,-0.023891,-0.035555,-0.027553,0.022136,0.093239,1.000000,0.000213,-0.000119,-0.000178,0.952938,0.157182,0.100710,-0.238872,15.125252,15.487842,-26.076016
14107,-2.742881,2.352114,9.389388,-0.133127,-0.134898,0.246165,0.024712,-0.040337,-0.053472,-0.027441,0.023517,0.093891,1.000000,0.000124,-0.000202,-0.000267,0.952892,0.157192,0.100517,-0.239131,15.126778,15.470560,-26.108705
14108,-2.671777,2.345696,9.239407,-0.095038,-0.116267,0.086038,0.012753,-0.047708,-0.048783,-0.026734,0.023458,0.092389,1.000000,0.000064,-0.000239,-0.000244,0.952866,0.157128,0.100305,-0.239368,15.120429,15.448832,-26.140071
14109,-2.695198,2.392200,9.265801,-0.092788,-0.073622,0.128528,0.001175,-0.051790,-0.038035,-0.026971,0.023927,0.092651,1.000000,0.000006,-0.000259,-0.000190,0.952862,0.157020,0.100074,-0.239550,15.110381,15.422902,-26.165666
14110,-2.513477,2.352522,9.293833,0.045422,-0.190318,0.096348,0.000199,-0.042180,-0.030470,-0.025151,0.023529,0.092933,1.000000,0.000001,-0.000211,-0.000152,0.952864,0.156912,0.099889,-0.239689,15.099878,15.401491,-26.185651
14111,-2.423528,2.442078,9.314194,0.166739,-0.157941,0.113979,-0.000606,-0.036258,-0.026799,-0.024249,0.024424,0.093137,1.000000,-0.000003,-0.000181,-0.000134,0.952867,0.156820,0.099725,-0.239804,15.091181,15.382468,-26.202381
14112,-2.226838,2.395242,9.325920,0.314961,-0.282497,0.061003,-0.008815,0.000494,-0.033070,-0.022264,0.023960,0.093258,1.000000,-0.000044,0.000002,-0.000165,0.952852,0.156719,0.099756,-0.239917,15.076874,15.385013,-26.217240
14113,-2.559635,2.375600,9.383193,0.027007,-0.176049,0.197697,-0.012274,0.038284,-0.032981,-0.025574,0.023766,0.093835,1.000000,-0.000061,0.000191,-0.000165,0.952820,0.156658,0.099965,-0.239998,15.063609,15.408145,-26.225992
14114,-2.657365,2.351856,9.440188,-0.057769,-0.173148,0.270796,-0.020393,0.034799,-0.031755,-0.026553,0.023532,0.094404,1.000000,-0.000102,0.000174,-0.000159,0.952799,0.156543,0.100172,-0.240072,15.044257,15.429422,-26.234797
14115,-2.671496,2.290239,9.492655,-0.090803,-0.236513,0.308004,0.005551,0.019076,-0.020735,-0.026704,0.022903,0.094930,1.000000,0.000028,0.000095,-0.000104,0.952777,0.156549,0.100260,-0.240119,15.042278,15.440100,-26.239495
14116,-2.637740,2.451148,9.536746,0.023300,-0.131068,0.380330,-0.005897,-0.002216,-0.008918,-0.026377,0.024515,0.095366,1.000000,-0.000029,-0.000011,-0.000045,0.952790,0.156470,0.100255,-0.240120,15.033171,15.437492,-26.240906
14117,-2.628619,2.359484,9.549064,-0.012021,-0.213611,0.366490,-0.022218,-0.007364,-0.004540,-0.026289,0.023606,0.095487,1.000000,-0.000111,-0.000037,-0.000023,0.952822,0.156321,0.100237,-0.240096,15.016671,15.431132,-26.240385
14118,-2.466118,2.373472,9.456197,0.124834,-0.235133,0.240367,-0.031220,-0.017556,-0.011715,-0.024668,0.023751,0.094556,1.000000,-0.000156,-0.000088,-0.000059,0.952859,0.156101,0.100191,-0.240110,14.991987,15.420432,-26.245757
14119,-2.458498,2.402763,9.566312,0.161101,-0.246304,0.348276,-0.069336,0.007777,-0.051391,-0.024575,0.024067,0.095656,1.000000,-0.000347,0.000039,-0.000257,0.952865,0.155723,0.100339,-0.240274,14.941955,15.429387,-26.269806
14120,-2.632415,1.965138,9.563743,-0.197019,-0.527985,0.283795,-0.102300,0.002814,-0.105035,-0.026312,0.019714,0.095628,1.000000,-0.000512,0.000014,-0.000525,0.952835,0.155142,0.100548,-0.240681,14.863096,15.443665,-26.325641
14121,-2.786007,1.845977,9.441576,-0.397361,-0.512105,0.181945,-0.011881,-0.022921,-0.132523,-0.027859,0.018484,0.094411,1.000000,-0.000059,-0.000115,-0.000663,0.952713,0.154959,0.100543,-0.241284,14.832309,15.447481,-26.401005
14122,-2.754044,2.325512,9.571520,-0.119420,-0.165320,0.413023,0.026808,-0.072743,-0.135545,-0.027559,0.023261,0.095708,1.000000,0.000134,-0.000364,-0.000678,0.952583,0.154885,0.100261,-0.241959,14.819603,15.424312,-26.485891
14123,-2.619915,2.431587,9.441852,0.030215,-0.084363,0.282713,-0.009801,-0.089069,-0.117774,-0.026227,0.024336,0.094406,1.000000,-0.000049,-0.000445,-0.000589,0.952509,0.154640,0.099927,-0.242544,14.789643,15.389272,-26.562814
14124,-2.599788,2.289644,9.290411,-0.043510,-0.151308,0.101359,-0.026228,-0.097238,-0.090847,-0.026033,0.022920,0.092888,1.000000,-0.000131,-0.000486,-0.000454,0.952486,0.154306,0.099557,-0.242999,14.752474,15.345916,-26.625674
14125,-2.576140,2.176932,9.091478,-0.107055,-0.180747,-0.118031,0.014401,-0.094983,-0.058003,-0.025798,0.021770,0.090904,1.000000,0.000072,-0.000475,-0.000290,0.952468,0.154198,0.099119,-0.243315,14.745344,15.298809,-26.669087
14126,-2.449613,2.380385,9.063581,0.091808,-0.054336,-0.127444,0.068428,-0.077042,-0.021121,-0.024529,0.023775,0.090635,1.000000,0.000342,-0.000385,-0.000106,0.952446,0.154375,0.098677,-0.243469,14.773853,15.256448,-26.688804
14127,-2.426494,2.529184,8.983306,0.169298,0.085645,-0.171710,0.046060,-0.031677,0.014920,-0.024281,0.025269,0.089835,1.000000,0.000230,-0.000158,0.000075,0.952462,0.154531,0.098446,-0.243405,14.798448,15.233776,-26.680766
14128,-2.676254,2.469033,8.995050,-0.078843,0.137550,-0.109892,0.037698,-0.004683,0.049755,-0.026771,0.024667,0.089955,1.000000,0.000188,-0.000023,0.000249,0.952514,0.154684,0.098330,-0.243150,14.822956,15.221112,-26.648836
14129,-2.697624,2.373501,9.011781,-0.146349,0.059433,-0.112278,0.014743,-0.007110,0.065957,-0.026987,0.023719,0.090119,1.000000,0.000074,-0.000036,0.000330,0.952603,0.154745,0.098215,-0.242808,14.838265,15.204555,-26.607790
14130,-2.661829,2.212113,9.045203,-0.194123,-0.102840,-0.130425,0.005279,0.003404,0.065331,-0.026624,0.022110,0.090453,1.000000,0.000026,0.000017,0.000327,0.952695,0.154762,0.098166,-0.242457,14.846867,15.194092,-26.565700
14131,-2.586617,2.142605,9.045601,-0.164767,-0.194506,-0.167001,0.007123,0.016891,0.042421,-0.025863,0.021417,0.090459,1.000000,0.000036,0.000084,0.000212,0.952749,0.154805,0.098192,-0.242205,14.855212,15.194271,-26.534518
14132,-2.677144,2.024725,8.958556,-0.310710,-0.225486,-0.253663,0.015159,0.021316,0.024178,-0.026764,0.020237,0.089590,1.000000,0.000076,0.000107,0.000121,0.952774,0.154869,0.098248,-0.242041,14.863973,15.199778,-26.513322
14133,-2.759269,2.169879,9.148279,-0.289677,-0.136531,-0.019302,0.034597,0.011435,0.024421,-0.027590,0.021680,0.091488,1.000000,0.000173,0.000057,0.000122,0.952788,0.155028,0.098228,-0.241892,14.885136,15.199569,-26.493300
14134,-2.679956,2.230879,9.172497,-0.190674,-0.129940,-0.002466,0.023640,-0.013284,0.024974,-0.026808,0.022295,0.091726,1.000000,0.000118,-0.000066,0.000125,0.952825,0.155091,0.098109,-0.241755,14.897454,15.185820,-26.476928
14135,-2.650560,2.186694,9.147131,-0.193289,-0.171421,-0.044865,0.018605,-0.022298,0.029441,-0.026519,0.021855,0.091470,1.000000,0.000093,-0.000111,0.000147,0.952874,0.155135,0.097945,-0.241601,14.908851,15.166185,-26.459179
14136,-2.723532,2.159690,9.075136,-0.282153,-0.138596,-0.099749,0.039066,-0.031128,0.035960,-0.027253,0.021574,0.090751,1.000000,0.000195,-0.000156,0.000180,0.952921,0.155256,0.097714,-0.241433,14.930906,15.140944,-26.439244
14137,-2.688483,2.247831,9.073411,-0.215322,-0.082034,-0.088780,0.067245,-0.039724,0.035203,-0.026907,0.022443,0.090736,1.000000,0.000336,-0.000199,0.000176,0.952947,0.155513,0.097403,-0.241289,14.970317,15.110797,-26.420879
14138,-2.593962,2.424627,9.137196,-0.047024,-0.000158,-0.009954,0.064014,-0.036285,0.037479,-0.025961,0.024212,0.091375,1.000000,0.000320,-0.000181,0.000187,0.952978,0.155747,0.097116,-0.241130,15.006637,15.082481,-26.400902
14139,-2.306398,2.451212,9.140317,0.210584,-0.103968,-0.075226,0.007377,-0.011663,0.007080,-0.023070,0.024508,0.091403,1.000000,0.000037,-0.000058,0.000035,0.953004,0.155739,0.097033,-0.241069,15.008650,15.072018,-26.394380
14140,-2.391741,2.164881,9.134929,-0.003007,-0.305205,-0.129666,0.008638,0.045382,-0.012144,-0.023895,0.021646,0.091356,1.000000,0.000043,0.000227,-0.000061,0.952979,0.155783,0.097241,-0.241055,15.009112,15.096236,-26.390301
14141,-2.611854,2.418824,9.353489,-0.041672,-0.077161,0.194937,0.032770,0.051865,-0.008602,-0.026093,0.024174,0.093546,1.000000,0.000164,0.000259,-0.000043,0.952934,0.155965,0.097442,-0.241032,15.025881,15.123256,-26.382999
14142,-2.616144,2.420472,9.351863,-0.041752,-0.076274,0.194944,0.002389,0.039965,0.008902,-0.026144,0.024202,0.093524,1.000000,0.000012,0.000200,0.000045,0.952942,0.155983,0.097615,-0.240919,15.025682,15.141336,-26.367678
14143,-2.554372,2.339229,9.383442,-0.022446,-0.182812,0.187906,-0.002546,0.032046,0.028623,-0.025532,0.023390,0.093838,1.000000,-0.000013,0.000160,0.000143,0.952980,0.155992,0.097735,-0.240716,15.027002,15.151859,-26.342080
14144,-2.449103,2.278393,9.378009,0.039470,-0.278686,0.140051,0.017314,0.036099,0.048739,-0.024480,0.022770,0.093786,1.000000,0.000087,0.000180,0.000244,0.953025,0.156096,0.097840,-0.240424,15.041170,15.161871,-26.304509
14145,-2.478035,2.380681,9.494496,0.078178,-0.224598,0.281726,0.022026,0.046721,0.053648,-0.024765,0.023790,0.094953,1.000000,0.000110,0.000234,0.000268,0.953067,0.156251,0.097981,-0.240103,15.060927,15.176779,-26.262296
14146,-2.582589,2.279110,9.578571,-0.051496,-0.297097,0.361900,0.012893,0.036406,0.050234,-0.025814,0.022778,0.095792,1.000000,0.000064,0.000182,0.000251,0.953117,0.156334,0.098092,-0.239801,15.072797,15.186691,-26.223807
14147,-2.616656,2.273857,9.582770,-0.084015,-0.291963,0.373307,0.041914,0.012308,0.047321,-0.026166,0.022712,0.095834,1.000000,0.000210,0.000062,0.000237,0.953152,0.156540,0.098050,-0.239546,15.101620,15.183479,-26.190525
14148,-2.684751,2.357764,9.621979,-0.101699,-0.210211,0.448642,0.057333,-0.018034,0.042624,-0.026861,0.023544,0.096224,1.000000,0.000287,-0.000090,0.000213,0.953186,0.156766,0.097854,-0.239345,15.135567,15.164371,-26.164816
14149,-2.605314,2.342593,9.600946,-0.049715,-0.252716,0.404319,0.060463,-0.051353,0.033213,-0.026082,0.023393,0.096010,1.000000,0.000302,-0.000257,0.000166,0.953220,0.156977,0.097498,-0.239216,15.170301,15.128029,-26.149505
14150,-2.535839,2.388350,9.501035,0.012907,-0.211575,0.304596,0.064323,-0.062749,0.032831,-0.025392,0.023849,0.095010,1.000000,0.000322,-0.000314,0.000164,0.953258,0.157177,0.097088,-0.239100,15.204915,15.085629,-26.136386
14151,-2.419925,2.481412,9.431345,0.142135,-0.160303,0.233098,0.041725,-0.058947,0.036265,-0.024232,0.024790,0.094311,1.000000,0.000209,-0.000295,0.000181,0.953314,0.157291,0.096716,-0.238954,15.229027,15.044612,-26.120558
14152,-2.328684,2.399931,9.375762,0.169731,-0.248165,0.137034,0.018263,-0.018617,0.037158,-0.023300,0.023986,0.093758,1.000000,0.000091,-0.000093,0.000186,0.953371,0.157327,0.096567,-0.238760,15.239645,15.025922,-26.098115
14153,-2.456927,2.342613,9.372151,0.028114,-0.241047,0.152384,0.006779,0.013787,0.036405,-0.024567,0.023418,0.093724,1.000000,0.000034,0.000069,0.000182,0.953419,0.157361,0.096583,-0.238539,15.246679,15.025084,-26.070885
14154,-2.636985,2.282451,9.389466,-0.155669,-0.221291,0.199912,-0.002650,0.012801,0.038968,-0.026368,0.022821,0.093896,1.000000,-0.000013,0.000064,0.000195,0.953480,0.157336,0.096608,-0.238301,15.246834,15.023452,-26.042503
14155,-2.669573,2.274557,9.394804,-0.188199,-0.216190,0.211305,0.006373,-0.001023,0.033618,-0.026700,0.022738,0.093949,1.000000,0.000032,-0.000005,0.000168,0.953533,0.157349,0.096556,-0.238105,15.252620,15.014845,-26.019180
14156,-2.642405,2.302306,9.373337,-0.155891,-0.196917,0.191276,0.015633,-0.020384,0.022456,-0.026436,0.023013,0.093732,1.000000,0.000078,-0.000102,0.000112,0.953576,0.157363,0.096414,-0.237981,15.259423,14.997364,-26.005430
14157,-2.635966,2.208690,9.344439,-0.203022,-0.268242,0.138795,0.033087,-0.038102,0.008118,-0.026378,0.022070,0.093443,1.000000,0.000165,-0.000191,0.000041,0.953594,0.157447,0.096173,-0.237948,15.275229,14.972103,-26.002496
14158,-2.670109,2.320757,9.290430,-0.190406,-0.141801,0.125679,0.051958,-0.057178,0.007733,-0.026729,0.023182,0.092903,1.000000,0.000260,-0.000286,0.000039,0.953609,0.157583,0.095824,-0.237941,15.299138,14.936512,-26.002933
14159,-2.687068,2.449482,9.246680,-0.155720,-0.012143,0.121948,0.042986,-0.073936,0.019306,-0.026907,0.024472,0.092462,1.000000,0.000215,-0.000370,0.000097,0.953650,0.157677,0.095392,-0.237887,15.320811,14.889753,-25.999230
14160,-2.686058,2.344628,9.136162,-0.226931,-0.060442,-0.008276,0.025541,-0.094486,0.043303,-0.026909,0.023429,0.091352,1.000000,0.000128,-0.000472,0.000217,0.953745,0.157659,0.094869,-0.237727,15.333286,14.828179,-25.985200
14161,-2.575253,2.352546,9.095612,-0.142514,-0.084596,-0.072611,0.036985,-0.104747,0.058369,-0.025807,0.023501,0.090947,1.000000,0.000185,-0.000524,0.000292,0.953851,0.157706,0.094266,-0.237509,15.355971,14.758471,-25.964037
14162,-2.495675,2.279155,9.057009,-0.124856,-0.164604,-0.147821,0.037011,-0.097908,0.075759,-0.025010,0.022765,0.090562,1.000000,0.000185,-0.000490,0.000379,0.953977,0.157754,0.093688,-0.237202,15.379540,14.690091,-25.932054
14163,-2.631931,2.310466,9.189138,-0.227761,-0.126762,0.017756,0.071285,-0.095409,0.095812,-0.026374,0.023059,0.091887,1.000000,0.000356,-0.000477,0.000479,0.954095,0.157994,0.093059,-0.236813,15.427586,14.619821,-25.888131
14164,-2.753120,2.257938,9.261074,-0.367220,-0.145791,0.101409,0.079875,-0.132426,0.108293,-0.027605,0.022527,0.092601,1.000000,0.000399,-0.000662,0.000541,0.954240,0.158220,0.092239,-0.236398,15.478885,14.527382,-25.843151
14165,-2.564490,2.469586,9.208866,-0.126619,-0.031322,0.059578,0.101692,-0.164555,0.114734,-0.025735,0.024634,0.092080,0.999999,0.000508,-0.000823,0.000574,0.954387,0.158532,0.091230,-0.235987,15.544134,14.415959,-25.799555
14166,-2.438028,2.392430,9.180820,-0.076707,-0.138584,-0.018299,0.051527,-0.166703,0.103626,-0.024469,0.023888,0.091794,0.999999,0.000258,-0.000834,0.000518,0.954563,0.158580,0.090284,-0.235608,15.576951,14.305267,-25.762887
14167,-2.205145,2.172507,8.842521,-0.029635,-0.301999,-0.448899,0.056916,-0.142146,0.084794,-0.022123,0.021691,0.088416,1.000000,0.000285,-0.000711,0.000424,0.954698,0.158690,0.089457,-0.235301,15.613016,14.210760,-25.732987
14168,-2.126848,2.298192,8.786610,0.079712,-0.211700,-0.487533,0.098127,-0.066140,0.069566,-0.021306,0.022931,0.087870,1.000000,0.000491,-0.000331,0.000348,0.954750,0.159063,0.088963,-0.235025,15.671535,14.160756,-25.699860
14169,-2.182898,2.518308,8.962511,0.144955,-0.069325,-0.251950,0.060409,0.007025,0.046956,-0.021832,0.025151,0.089633,1.000000,0.000302,0.000035,0.000235,0.954770,0.159348,0.088875,-0.234783,15.710073,14.154348,-25.667823
14170,-2.298176,2.434127,9.105904,0.017483,-0.145346,-0.112035,0.016258,0.060365,0.035327,-0.022959,0.024330,0.091068,1.000000,0.000081,0.000302,0.000177,0.954791,0.159464,0.089108,-0.234533,15.721850,14.179362,-25.633988
14171,-2.500664,2.509577,9.422987,-0.089286,-0.109696,0.253294,-0.010652,0.065437,0.015775,-0.024978,0.025099,0.094237,1.000000,-0.000053,0.000327,0.000079,0.954805,0.159464,0.089407,-0.234360,15.717637,14.209995,-25.610335
14172,-2.564040,2.350799,9.469341,-0.210995,-0.232480,0.270487,-0.026345,0.038088,0.000875,-0.025622,0.023520,0.094695,1.000000,-0.000132,0.000190,0.000004,0.954829,0.159335,0.089611,-0.234274,15.699340,14.228066,-25.599658
14173,-2.442620,2.377682,9.591504,-0.078010,-0.301929,0.361764,-0.005327,0.001226,-0.010315,-0.024424,0.023781,0.095915,1.000000,-0.000027,0.000006,-0.000052,0.954837,0.159274,0.089618,-0.234280,15.692016,14.227334,-25.601129
14174,-2.338768,2.333175,9.497733,-0.017752,-0.348671,0.237118,0.003175,-0.019741,-0.021789,-0.023395,0.023333,0.094975,1.000000,0.000016,-0.000099,-0.000109,0.954836,0.159208,0.089529,-0.234360,15.685158,14.217021,-25.612599
14175,-2.202848,2.518430,9.407079,0.178333,-0.218227,0.167731,0.028651,-0.025369,-0.018123,-0.022038,0.025173,0.094072,1.000000,0.000143,-0.000127,-0.000091,0.954820,0.159274,0.089375,-0.234440,15.695168,14.202829,-25.622763
14176,-2.279693,2.563150,9.339095,0.123952,-0.125126,0.134896,0.017035,-0.006599,-0.006469,-0.022799,0.025624,0.093392,1.000000,0.000085,-0.000033,-0.000032,0.954821,0.159296,0.089321,-0.234443,15.698889,14.197358,-25.623411
14177,-2.259799,2.610515,9.415130,0.170271,-0.120750,0.213407,0.014043,0.007588,0.009524,-0.022596,0.026097,0.094154,1.000000,0.000070,0.000038,0.000048,0.954834,0.159344,0.089320,-0.234358,15.705682,14.197059,-25.612576
14178,-2.379046,2.566373,9.495922,0.053051,-0.136239,0.306467,-0.002166,0.022709,0.029989,-0.023784,0.025661,0.094962,1.000000,-0.000011,0.000114,0.000150,0.954880,0.159325,0.089398,-0.234155,15.704648,14.202067,-25.587778
14179,-2.512689,2.482862,9.541559,-0.098774,-0.167066,0.359918,0.006396,0.019982,0.036268,-0.025122,0.024821,0.095419,1.000000,0.000032,0.000100,0.000181,0.954924,0.159362,0.089444,-0.233929,15.711282,14.204455,-25.559744
14180,-2.520874,2.451650,9.547469,-0.121154,-0.192450,0.359227,0.011634,-0.005203,0.030511,-0.025215,0.024507,0.095475,1.000000,0.000058,-0.000026,0.000153,0.954972,0.159376,0.089372,-0.233752,15.717125,14.193977,-25.539122
14181,-2.402234,2.522598,9.491362,0.007916,-0.163805,0.296382,0.028136,-0.019019,0.021613,-0.024034,0.025210,0.094915,1.000000,0.000141,-0.000095,0.000108,0.955000,0.159466,0.089218,-0.233636,15.732632,14.177122,-25.525673
14182,-2.160170,2.520878,9.414829,0.209562,-0.239501,0.165232,-0.003662,-0.005615,-0.002124,-0.021604,0.025211,0.094147,1.000000,-0.000018,-0.000028,-0.000011,0.955022,0.159392,0.089189,-0.233609,15.725126,14.171476,-25.523676
14183,-2.381187,2.369559,9.281973,-0.067575,-0.227877,0.055615,0.000819,0.024557,-0.010029,-0.023799,0.023696,0.092823,1.000000,0.000004,0.000123,-0.000050,0.955015,0.159387,0.089299,-0.233597,15.722280,14.183568,-25.521248
14184,-2.370374,2.482982,9.319105,0.001281,-0.151180,0.117405,0.019833,0.031465,0.000190,-0.023689,0.024821,0.093197,1.000000,0.000099,0.000157,0.000001,0.955004,0.159470,0.089418,-0.233540,15.730003,14.197985,-25.511990
14185,-2.563267,2.489187,9.372792,-0.158352,-0.086232,0.216426,0.015104,0.022014,0.014406,-0.025624,0.024883,0.093733,1.000000,0.000076,0.000110,0.000072,0.955016,0.159541,0.089480,-0.233420,15.738653,14.204877,-25.496066
14186,-2.671639,2.454563,9.422181,-0.265476,-0.086921,0.279983,-0.005306,-0.018601,0.013577,-0.026727,0.024546,0.094219,1.000000,-0.000027,-0.000093,0.000068,0.955063,0.159451,0.089378,-0.233327,15.731868,14.189605,-25.487215
14187,-2.589047,2.239070,9.345160,-0.306668,-0.273828,0.131134,0.012358,-0.054047,0.010186,-0.025917,0.022384,0.093446,1.000000,0.000062,-0.000270,0.000051,0.955106,0.159419,0.089084,-0.233287,15.735365,14.155207,-25.485882
14188,-2.529979,2.296363,9.416620,-0.227875,-0.273467,0.198311,0.044669,-0.077604,-0.005908,-0.025336,0.022943,0.094162,1.000000,0.000223,-0.000388,-0.000030,0.955117,0.159490,0.088657,-0.233356,15.752157,14.110453,-25.497565
14189,-2.612758,2.454263,9.435378,-0.233806,-0.111861,0.277361,0.055400,-0.109535,-0.007085,-0.026178,0.024517,0.094346,1.000000,0.000277,-0.000548,-0.000035,0.955129,0.159591,0.088062,-0.233462,15.775753,14.048146,-25.514975
14190,-2.653837,2.477574,9.370250,-0.278265,-0.049641,0.232356,0.047203,-0.156692,0.002149,-0.026612,0.024753,0.093688,1.000000,0.000236,-0.000783,0.000011,0.955182,0.159585,0.087248,-0.233556,15.792024,13.958557,-25.534807
14191,-2.601003,2.443354,9.317250,-0.270551,-0.076459,0.160641,0.035326,-0.205618,0.009470,-0.026107,0.024416,0.093150,0.999999,0.000177,-0.001028,0.000047,0.955270,0.159485,0.086204,-0.233650,15.802716,13.840705,-25.558277
14192,-2.360446,2.323490,9.165064,-0.149813,-0.216688,-0.071061,0.017180,-0.224732,0.014611,-0.023709,0.023225,0.091626,0.999999,0.000086,-0.001124,0.000073,0.955389,0.159261,0.085091,-0.233726,15.800931,13.711700,-25.581964
14193,-2.103190,2.196164,8.808299,-0.035356,-0.301769,-0.499239,0.055582,-0.195345,0.020546,-0.021120,0.021935,0.088068,0.999999,0.000278,-0.000977,0.000103,0.955467,0.159274,0.084063,-0.233767,15.825197,13.597788,-25.597508
14194,-1.797283,2.472097,8.621504,0.332438,-0.132347,-0.672459,0.075814,-0.101829,0.022812,-0.018020,0.024686,0.086215,1.000000,0.000379,-0.000509,0.000114,0.955495,0.159476,0.083462,-0.233731,15.862779,13.535253,-25.596844
14195,-2.024662,2.514214,8.693266,0.152625,-0.028743,-0.540725,0.047059,0.015213,0.011650,-0.020241,0.025121,0.086940,1.000000,0.000235,0.000076,0.000058,0.955481,0.159691,0.083457,-0.233643,15.888929,13.538791,-25.583607
14196,-2.317205,2.497521,8.954891,-0.087640,-0.013829,-0.232017,0.014256,0.078905,0.021212,-0.023139,0.024966,0.089560,1.000000,0.000071,0.000395,0.000106,0.955481,0.159810,0.083792,-0.233444,15.897878,13.576060,-25.554728
14197,-2.524098,2.371796,9.060981,-0.314174,-0.073726,-0.117652,0.007670,0.091299,0.035204,-0.025204,0.023710,0.090622,1.000000,0.000038,0.000456,0.000176,0.955494,0.159935,0.084177,-0.233166,15.907503,13.617820,-25.515843
14198,-2.516829,2.488399,9.283539,-0.229198,-0.060239,0.119810,0.028165,0.063633,0.041218,-0.025144,0.024866,0.092847,1.000000,0.000141,0.000318,0.000206,0.955512,0.160111,0.084407,-0.232889,15.926551,13.643547,-25.478043
14199,-2.290901,2.479532,9.422600,-0.021440,-0.214289,0.194076,0.018353,0.036673,0.037165,-0.022896,0.024782,0.094232,1.000000,0.000092,0.000183,0.000186,0.955541,0.160225,0.084518,-0.232650,15.940515,13.654882,-25.446857
14200,-2.337734,2.511561,9.509999,-0.039606,-0.200613,0.295290,0.027384,0.017278,0.026138,-0.023372,0.025100,0.095105,1.000000,0.000137,0.000086,0.000131,0.955561,0.160337,0.084540,-0.232482,15.955329,13.657432,-25.425092
14201,-2.325102,2.403183,9.424421,-0.088479,-0.269024,0.183357,0.013816,-0.005884,0.022132,-0.023256,0.024023,0.094245,1.000000,0.000069,-0.000029,0.000111,0.955595,0.160372,0.084464,-0.232347,15.963057,13.647678,-25.409321
14202,-2.318736,2.457743,9.328581,-0.068328,-0.192823,0.106869,0.023187,-0.023935,0.022670,-0.023201,0.024564,0.093286,1.000000,0.000116,-0.000120,0.000113,0.955632,0.160415,0.084297,-0.232226,15.973404,13.628063,-25.396224
14203,-2.377939,2.372644,9.265468,-0.169660,-0.218170,0.039040,0.018078,-0.021466,0.027652,-0.023793,0.023715,0.092654,1.000000,0.000090,-0.000107,0.000138,0.955675,0.160455,0.084137,-0.232079,15.983705,13.608850,-25.379859
14204,-2.344464,2.481017,9.286728,-0.090858,-0.149211,0.079974,0.033438,-0.008801,0.036042,-0.023453,0.024790,0.092870,1.000000,0.000167,-0.000044,0.000180,0.955712,0.160570,0.084019,-0.231888,16.002255,13.595449,-25.356794
14205,-2.233123,2.474102,9.372388,0.007891,-0.233234,0.131920,0.029546,0.000587,0.041871,-0.022336,0.024722,0.093728,1.000000,0.000148,0.000003,0.000209,0.955753,0.160696,0.083941,-0.231660,16.021851,13.586125,-25.328800
14206,-2.279191,2.604132,9.487754,0.036239,-0.147133,0.285368,0.033873,0.013477,0.042631,-0.022791,0.026020,0.094883,1.000000,0.000169,0.000067,0.000213,0.955789,0.160841,0.083923,-0.231419,16.042364,13.583935,-25.298447
14207,-2.191482,2.697556,9.689988,0.173479,-0.176746,0.478762,0.002662,0.009420,0.018689,-0.021913,0.026972,0.096901,1.000000,0.000013,0.000047,0.000093,0.955821,0.160840,0.083937,-0.231284,16.043805,13.583130,-25.282153
14208,-2.129050,2.542127,9.908020,0.175465,-0.406790,0.626079,-0.033116,0.004450,-0.022794,-0.021285,0.025440,0.099076,1.000000,-0.000166,0.000022,-0.000114,0.955838,0.160627,0.084006,-0.231334,16.016876,13.586293,-25.290120
14209,-2.270890,2.372498,9.986086,-0.020748,-0.513457,0.687005,-0.021572,-0.026783,-0.061209,-0.022715,0.023743,0.099855,1.000000,-0.000108,-0.000134,-0.000306,0.955812,0.160434,0.083939,-0.231599,15.992419,13.578183,-25.324979
14210,-2.356878,2.551914,10.144379,-0.000477,-0.376875,0.903354,0.014635,-0.074792,-0.087276,-0.023596,0.025522,0.101437,1.000000,0.000073,-0.000374,-0.000436,0.955750,0.160330,0.083626,-0.232041,15.981228,13.547818,-25.382471
14211,-2.534282,2.683116,10.297746,-0.089533,-0.239164,1.123493,0.006162,-0.151511,-0.092062,-0.025408,0.026840,0.102959,1.000000,0.000031,-0.000758,-0.000460,0.955718,0.160112,0.082955,-0.232565,15.963897,13.475848,-25.455019
14212,-2.586994,2.708430,10.439254,-0.127924,-0.232112,1.274957,-0.004435,-0.253924,-0.081631,-0.025991,0.027097,0.104359,0.999999,-0.000022,-0.001270,-0.000408,0.955750,0.159710,0.081803,-0.233114,15.935926,13.345863,-25.538037
14213,-2.451087,2.617526,10.676734,-0.059370,-0.428707,1.441844,0.001340,-0.375687,-0.074433,-0.024702,0.026184,0.106721,0.999998,0.000007,-0.001878,-0.000372,0.955831,0.159215,0.080052,-0.233730,15.910183,13.147546,-25.636663
14214,-2.309159,2.520833,10.686756,-0.018992,-0.550625,1.393998,0.040407,-0.479729,-0.081338,-0.023338,0.025196,0.106817,0.999997,0.000202,-0.002399,-0.000407,0.955912,0.158763,0.077768,-0.234474,15.900310,12.893000,-25.755716
14215,-2.237967,2.642146,10.660718,0.047397,-0.447808,1.387190,0.106871,-0.580377,-0.086992,-0.022677,0.026374,0.106556,0.999996,0.000534,-0.002902,-0.000435,0.955963,0.158526,0.074924,-0.235351,15.927103,12.583856,-25.894170
14216,-1.891588,2.673974,10.401354,0.287670,-0.460715,1.078641,0.167153,-0.648931,-0.104060,-0.019239,0.026663,0.103974,0.999994,0.000836,-0.003245,-0.000520,0.955965,0.158469,0.071699,-0.236384,15.982448,12.239739,-26.053381
14217,-1.938423,2.651701,10.421140,0.168230,-0.450563,1.103236,0.252677,-0.692707,-0.105673,-0.019731,0.026396,0.104177,0.999993,0.001263,-0.003464,-0.000528,0.955898,0.158785,0.068159,-0.237487,16.088334,11.871984,-26.220842
14218,-2.154068,2.868687,10.740046,0.020718,-0.267554,1.507442,0.268700,-0.790814,-0.109326,-0.021950,0.028555,0.107353,0.999991,0.001343,-0.003954,-0.000547,0.955836,0.159039,0.064138,-0.238683,16.198454,11.451069,-26.406455
14219,-2.067037,2.895333,10.604521,0.016334,-0.214889,1.370528,0.199336,-0.881188,-0.106067,-0.021122,0.028859,0.105982,0.999990,0.000997,-0.004406,-0.000530,0.955840,0.158870,0.059759,-0.239913,16.269998,10.980261,-26.605711
14220,-2.078192,2.834379,10.477991,-0.119177,-0.186907,1.236788,0.184780,-0.957601,-0.093480,-0.021270,0.028257,0.104705,0.999988,0.000924,-0.004788,-0.000467,0.955876,0.158521,0.055025,-0.241132,16.331492,10.465520,-26.810551
14221,-2.040717,2.906293,10.512171,-0.149779,-0.116595,1.281444,0.157959,-1.055157,-0.084577,-0.020949,0.028989,0.105035,0.999986,0.000790,-0.005276,-0.000423,0.955942,0.157944,0.049845,-0.242373,16.379888,9.896017,-27.026655
14222,-2.166552,2.902037,10.454475,-0.368189,0.001172,1.245119,0.128566,-1.119362,-0.070268,-0.022240,0.028961,0.104440,0.999984,0.000643,-0.005597,-0.000351,0.956038,0.157128,0.044385,-0.243580,16.410863,9.288938,-27.245173
14223,-3.059831,3.233606,10.864979,-1.104403,0.605195,1.861171,0.111968,-1.253757,-0.069725,-0.031267,0.032286,0.108473,0.999980,0.000560,-0.006269,-0.000349,0.956141,0.156083,0.038296,-0.244880,16.433727,8.608129,-27.485468
14224,-3.263946,3.080771,11.379282,-1.494180,0.494380,2.317965,-0.074727,-1.566363,-0.069210,-0.033519,0.030862,0.113521,0.999969,-0.000374,-0.007832,-0.000346,0.956405,0.153736,0.030944,-0.246370,16.343384,7.755253,-27.775407
14225,-2.445230,1.968495,10.684532,-1.457134,-0.479477,1.217123,-0.138567,-1.864098,-0.022609,-0.025444,0.019762,0.106598,0.999956,-0.000693,-0.009320,-0.000113,0.956746,0.150731,0.022204,-0.247841,16.220953,6.730621,-28.085717
14226,-1.301037,1.752923,9.929734,-0.707174,-0.860519,0.292807,0.111809,-2.024702,0.023735,-0.014017,0.017472,0.099169,0.999949,0.000559,-0.010123,0.000119,0.956886,0.148697,0.012355,-0.249212,16.245495,5.610125,-28.394381
14227,-0.400854,2.267586,9.742413,0.153217,-0.722410,0.170726,0.308207,-2.019432,0.063990,-0.004999,0.022524,0.097412,0.999948,0.001541,-0.010097,0.000320,0.956826,0.147615,0.002249,-0.250375,16.392924,4.486337,-28.681380
14228,-0.737648,2.441787,9.500002,-0.229266,-0.284058,0.016859,0.463679,-1.978881,0.155058,-0.008335,0.024191,0.094977,0.999948,0.002318,-0.009894,0.000775,0.956670,0.147293,-0.007919,-0.251046,16.636179,3.371101,-28.914583
14229,-0.676330,3.063017,9.418578,-0.066634,0.276612,0.110246,0.596679,-2.007054,0.287480,-0.007752,0.030338,0.094202,0.999944,0.002983,-0.010035,0.001437,0.956474,0.147571,-0.018492,-0.251074,16.965816,2.219535,-29.085478
14230,0.204436,3.628173,8.983793,0.822018,0.485505,-0.169075,0.522214,-1.971358,0.405487,0.001085,0.036050,0.089946,0.999946,0.002611,-0.009857,0.002027,0.956383,0.147491,-0.028879,-0.250487,17.255584,1.068694,-29.191266
14231,0.800333,3.466049,8.418262,1.159524,0.261711,-0.751471,0.411433,-1.810006,0.497872,0.007155,0.034506,0.084321,0.999954,0.002057,-0.009050,0.002489,0.956413,0.147075,-0.038427,-0.249334,17.487104,-0.009355,-29.224661
14232,1.137054,3.175955,7.928870,1.236633,0.030251,-1.285404,0.404022,-1.565670,0.571695,0.010659,0.031630,0.079438,0.999963,0.002020,-0.007828,0.002858,0.956511,0.146883,-0.046844,-0.247624,17.711968,-0.966592,-29.179103
14233,0.959788,3.092411,7.934637,0.909088,0.080354,-1.291633,0.457266,-1.303811,0.637093,0.008982,0.030772,0.079477,0.999971,0.002286,-0.006519,0.003185,0.956645,0.147263,-0.054124,-0.245385,17.967102,-1.792686,-29.056488
14234,0.243159,3.136211,8.339046,0.106438,0.385003,-0.909106,0.525219,-1.128317,0.731585,0.001847,0.031150,0.083484,0.999974,0.002626,-0.005642,0.003658,0.956844,0.148132,-0.060711,-0.242528,18.254279,-2.540728,-28.854316
14235,0.147460,3.438466,8.410427,0.016801,0.682465,-0.751086,0.560295,-1.081343,0.851655,0.000874,0.034153,0.084206,0.999972,0.002801,-0.005407,0.004258,0.957121,0.149200,-0.067206,-0.239043,18.557591,-3.285867,-28.582665
14236,1.213238,3.866805,8.154410,1.063534,0.618404,-0.790288,0.508797,-0.971025,1.007038,0.011542,0.038519,0.081699,0.999972,0.002544,-0.004855,0.005035,0.957611,0.150075,-0.073218,-0.234731,18.819372,-4.001050,-28.209029
14237,1.676815,3.960281,7.624085,1.507741,0.639419,-1.213906,0.478643,-0.760587,1.208000,0.016239,0.039519,0.076398,0.999972,0.002393,-0.003803,0.006040,0.958377,0.150988,-0.078339,-0.229301,19.050629,-4.641083,-27.690390
14238,2.995139,4.549874,6.749321,3.010498,0.789464,-1.717115,0.482176,-0.427036,1.506416,0.029464,0.045559,0.067666,0.999966,0.002411,-0.002135,0.007532,0.959558,0.152158,-0.082083,-0.222169,19.257708,-5.158820,-26.948087
14239,3.019461,4.680450,5.974715,3.177072,1.138231,-2.374214,0.611052,0.091375,1.982180,0.029757,0.046918,0.059877,0.999946,0.003055,0.000457,0.009911,0.961293,0.154330,-0.083840,-0.212292,19.502089,-5.489566,-25.850755
14240,2.044155,4.961266,6.592075,2.187646,1.684148,-1.773705,0.814311,0.482399,2.508248,0.019979,0.049596,0.066074,0.999910,0.004071,0.002412,0.012541,0.963459,0.157637,-0.084328,-0.199465,19.820917,-5.716577,-24.393046
14241,1.574670,4.478967,6.557434,1.510950,1.490687,-2.000200,0.831856,0.793358,2.943862,0.015348,0.044744,0.065699,0.999875,0.004159,0.003967,0.014719,0.965965,0.161135,-0.083661,-0.184249,20.116686,-5.868685,-22.639720
14242,0.576706,4.018641,6.946721,0.278521,1.349707,-1.885575,1.034693,1.056354,3.196873,0.005495,0.039916,0.069645,0.999845,0.005173,0.005281,0.015984,0.968382,0.165693,-0.082092,-0.167459,20.504623,-5.940735,-20.697279
14243,-0.152294,3.829126,7.556398,-0.658858,1.202167,-1.451805,1.070430,1.166464,3.270089,-0.001703,0.037859,0.075777,0.999835,0.005352,0.005832,0.016350,0.970563,0.170443,-0.080052,-0.150158,20.905992,-5.981363,-18.693752
14244,-0.417338,3.271379,7.643994,-1.128574,0.675830,-1.592257,1.032331,1.224561,3.179972,-0.004220,0.032252,0.076633,0.999842,0.005161,0.006122,0.015899,0.972420,0.175024,-0.077600,-0.133209,21.287472,-5.986320,-16.726469
14245,-0.617592,2.771649,7.769437,-1.487098,0.145084,-1.676704,0.996588,1.251326,2.958027,-0.006094,0.027238,0.077869,0.999859,0.004983,0.006256,0.014789,0.973876,0.179492,-0.074776,-0.117292,21.661998,-5.942993,-14.873051
14246,-0.521657,2.325515,7.885768,-1.505999,-0.422832,-1.724558,0.937340,1.256089,2.635141,-0.005023,0.022818,0.078997,0.999882,0.004687,0.006280,0.013175,0.974947,0.183739,-0.071583,-0.102932,22.021457,-5.840182,-13.190859
14247,-0.384100,1.780986,7.628379,-1.395659,-0.955723,-2.154389,0.904988,1.273649,2.288555,-0.003556,0.017423,0.076386,0.999904,0.004525,0.006368,0.011442,0.975664,0.187931,-0.067955,-0.090237,22.385652,-5.663505,-11.689816
14248,-0.369986,1.847954,7.053234,-1.236715,-0.784649,-2.660490,1.041489,1.317924,1.944012,-0.003412,0.018078,0.070650,0.999917,0.005207,0.006589,0.009720,0.975942,0.192883,-0.063834,-0.079116,22.849232,-5.398097,-10.360937
14249,0.158612,2.530163,7.233524,-0.615820,-0.413501,-2.183815,1.101207,1.383455,1.602949,0.001886,0.024917,0.072461,0.999929,0.005506,0.006917,0.008015,0.975895,0.198241,-0.059080,-0.069568,23.370446,-5.033017,-9.196634
14250,0.608165,2.735897,7.034631,-0.070860,-0.304653,-2.246815,1.036848,1.506395,1.375601,0.006425,0.027037,0.070440,0.999935,0.005184,0.007532,0.006878,0.975738,0.203357,-0.053467,-0.061014,23.869377,-4.561178,-8.120830
14251,1.009497,3.018262,6.600546,0.469415,-0.007996,-2.500025,1.103460,1.656095,1.221203,0.010459,0.029881,0.066085,0.999932,0.005517,0.008280,0.006106,0.975373,0.208869,-0.046984,-0.053038,24.420745,-3.985090,-7.087762
14252,1.261087,3.380301,6.468115,0.833927,0.272020,-2.458577,1.174552,1.888183,1.136118,0.013031,0.033496,0.064757,0.999922,0.005873,0.009441,0.005680,0.974827,0.214768,-0.039287,-0.045208,25.022050,-3.277838,-6.037939
14253,0.481949,3.824465,6.335925,0.183460,0.725499,-2.434248,1.348508,2.089090,1.076117,0.005278,0.037844,0.063562,0.999908,0.006742,0.010445,0.005380,0.973952,0.221546,-0.030584,-0.037415,25.736966,-2.464299,-4.963001
14254,-0.495764,4.993011,7.067553,-0.688467,1.430504,-1.291914,1.383113,2.176810,0.968508,-0.004426,0.049417,0.071069,0.999905,0.006915,0.010884,0.004842,0.972853,0.228474,-0.021332,-0.030034,26.487151,-1.591940,-3.911303
14255,-1.295977,4.842339,7.330746,-1.407345,1.105088,-1.114213,1.078207,2.167693,0.872280,-0.012372,0.047972,0.073703,0.999917,0.005391,0.010838,0.004361,0.971912,0.233898,-0.011968,-0.023162,27.080737,-0.712125,-2.901857
14256,-1.763371,4.064150,6.993877,-1.785266,0.466867,-1.742145,1.090138,2.113967,0.846843,-0.017062,0.040186,0.070341,0.999920,0.005451,0.010570,0.004234,0.970795,0.239329,-0.002829,-0.016470,27.695497,0.136927,-1.910169
14257,-1.749276,4.416841,6.706110,-1.653515,0.785522,-1.801017,1.237897,2.062309,0.825870,-0.016979,0.043681,0.067509,0.999919,0.006189,0.010311,0.004129,0.969341,0.245442,0.006066,-0.009939,28.410169,0.953391,-0.933510
14258,-1.777451,4.419045,6.570322,-1.580969,0.726901,-1.886380,1.159387,2.083722,0.714747,-0.017244,0.043746,0.066139,0.999923,0.005797,0.010418,0.003574,0.967827,0.251128,0.015213,-0.003915,29.092215,1.800126,0.003630
14259,-2.090809,3.872518,6.495610,-1.793535,0.168121,-2.176363,1.109487,2.110281,0.548891,-0.020325,0.038307,0.065386,0.999925,0.005547,0.010551,0.002744,0.966220,0.256528,0.024687,0.001344,29.758209,2.694870,0.875469
14260,-2.031032,3.750811,6.504691,-1.611253,-0.050869,-2.203248,1.080862,2.120051,0.332533,-0.019680,0.037122,0.065459,0.999928,0.005404,0.010600,0.001663,0.964511,0.261720,0.034492,0.005573,30.415910,3.647611,1.653941
14261,-2.137439,3.412055,6.627159,-1.573690,-0.508967,-2.236948,1.025518,2.182543,0.097379,-0.020665,0.033769,0.066673,0.999927,0.005127,0.010912,0.000487,0.962730,0.266571,0.044890,0.008758,31.049907,4.690028,2.345926
14262,-2.684594,3.660727,6.826299,-1.944017,-0.522219,-1.865919,1.125190,2.210652,-0.089599,-0.026071,0.036233,0.068759,0.999923,0.005626,0.011053,-0.000448,0.960675,0.271812,0.055682,0.011056,31.746772,5.795307,2.967994
14263,-3.001190,4.789981,7.745199,-1.969367,-0.171283,-0.430414,1.142429,2.178375,-0.148178,-0.029129,0.047477,0.078044,0.999924,0.005712,0.010892,-0.000741,0.958461,0.277087,0.066379,0.013024,32.463551,6.893645,3.566131
14264,-3.348415,5.332436,8.069231,-2.078010,-0.026261,0.209106,0.979153,2.056582,-0.046887,-0.032638,0.052935,0.081291,0.999935,0.004896,0.010283,-0.000234,0.956374,0.281575,0.076347,0.015359,33.100189,7.896498,4.190065
14265,-3.235032,5.405450,7.989452,-1.805968,-0.028421,0.199809,0.900068,1.903718,0.112990,-0.031617,0.053675,0.080440,0.999944,0.004500,0.009518,0.000565,0.954329,0.285731,0.085329,0.018273,33.708291,8.767326,4.854586
14266,-3.246455,5.664809,7.941825,-1.669654,0.102664,0.331326,0.870536,1.779775,0.237122,-0.031822,0.056263,0.079949,0.999950,0.004353,0.008899,0.001186,0.952267,0.289773,0.093548,0.021611,34.312983,9.534503,5.549713
14267,-3.484483,4.931188,8.185021,-1.727332,-0.768250,0.181138,0.772293,1.631668,0.272996,-0.034241,0.048948,0.082321,0.999958,0.003861,0.008158,0.001365,0.950327,0.293361,0.100973,0.024950,34.866854,10.211173,6.222041
14268,-3.776047,4.375132,7.703136,-1.992301,-1.095836,-0.454997,0.930035,1.429698,0.210703,-0.037253,0.043352,0.077501,0.999963,0.004650,0.007148,0.001054,0.948190,0.297662,0.107562,0.027614,35.501566,10.809189,6.805736
14269,-3.204731,5.231081,7.770860,-1.295021,-0.472864,-0.008710,1.049302,1.280470,0.075837,-0.031567,0.051889,0.078185,0.999966,0.005246,0.006402,0.000379,0.945908,0.302463,0.113633,0.029352,36.190546,11.374214,7.282279
14270,-3.191816,5.380764,7.240222,-1.292281,-0.153389,-0.332931,0.998459,1.229301,-0.053117,-0.031457,0.053453,0.072864,0.999969,0.004992,0.006146,-0.000266,0.943689,0.306930,0.119663,0.030427,36.840057,11.956669,7.688494
14271,-3.005531,5.940984,6.876902,-1.079421,0.432757,-0.311852,1.072016,1.248131,-0.143021,-0.029582,0.059061,0.069272,0.999966,0.005360,0.006241,-0.000715,0.941298,0.311676,0.125903,0.031064,37.530722,12.571634,8.066748
14272,-2.925178,6.493249,7.522200,-0.703022,0.416695,0.513609,0.927942,1.311614,-0.161964,-0.028704,0.064605,0.075712,0.999967,0.004640,0.006558,-0.000810,0.939032,0.315693,0.132463,0.031796,38.147247,13.220423,8.467681
14273,-2.091129,5.532211,7.511451,0.203629,-0.300939,-0.259346,0.678389,1.399107,-0.236750,-0.020319,0.055091,0.075445,0.999969,0.003392,0.006995,-0.001184,0.937055,0.318463,0.139480,0.032481,38.627180,13.928655,8.873066
14274,-1.914170,5.731260,8.513510,0.816375,-0.761126,0.567221,0.687210,1.625961,-0.512027,-0.018301,0.057067,0.085483,0.999958,0.003436,0.008130,-0.002560,0.934881,0.321014,0.148013,0.032225,39.108454,14.836448,9.243905
14275,-3.354398,5.897929,10.125391,0.128899,-1.841290,2.235128,0.351896,1.648404,-0.774600,-0.032479,0.058928,0.101628,0.999957,0.001759,0.008242,-0.003873,0.933194,0.321781,0.156983,0.031027,39.376476,15.844289,9.509654
14276,-3.815581,5.734733,10.948068,0.165125,-2.535969,2.869721,0.184188,1.471266,-0.881954,-0.037096,0.057411,0.109809,0.999963,0.000921,0.007356,-0.004410,0.931856,0.321674,0.165283,0.029169,39.520681,16.814568,9.664247
14277,-3.420992,5.638823,11.601302,0.957526,-2.910675,3.175664,-0.043016,1.224320,-1.009583,-0.033214,0.056583,0.116206,0.999968,-0.000215,0.006122,-0.005048,0.931044,0.320426,0.172571,0.026508,39.492890,17.719393,9.666839
14278,-2.064528,4.457718,10.933122,2.125149,-3.174826,1.548101,-0.389923,1.111819,-1.483533,-0.019705,0.044939,0.109355,0.999955,-0.001950,0.005559,-0.007418,0.930878,0.317131,0.180058,0.021755,39.181626,18.749121,9.402865
14279,-3.674103,3.993019,10.579136,0.657092,-3.502125,1.530175,-0.206501,1.134917,-1.997467,-0.035738,0.040400,0.105955,0.999933,-0.001032,0.005674,-0.009987,0.930352,0.314204,0.188444,0.014482,38.891831,19.970643,8.897436
14280,-5.248569,6.226102,10.601797,-0.371101,-1.875369,3.417964,0.145449,0.965380,-1.943815,-0.051365,0.062687,0.106313,0.999941,0.000727,0.004827,-0.009719,0.929315,0.312918,0.195980,0.006856,38.775325,21.097966,8.344358
14281,-3.664840,7.770983,10.918210,1.602172,-0.519853,3.978059,-0.255100,0.770058,-1.722541,-0.035556,0.078158,0.109221,0.999955,-0.001275,0.003850,-0.008613,0.928991,0.309981,0.202208,0.000347,38.430118,22.054190,7.813759
14282,-2.787278,4.693016,9.497510,1.683953,-1.959880,0.832268,-0.809772,0.880937,-1.998183,-0.026981,0.047587,0.094903,0.999932,-0.004049,0.004405,-0.009991,0.929312,0.304134,0.209373,-0.006712,37.715527,23.155530,7.177578
14283,-5.116227,3.871011,9.286331,-0.453571,-2.658265,1.147254,-0.189499,0.962318,-2.175657,-0.050289,0.039348,0.093070,0.999929,-0.000947,0.004811,-0.010878,0.928468,0.300964,0.217117,-0.015118,37.316856,24.347711,6.467104
14284,-5.415874,6.558544,11.455032,0.772429,-1.610296,4.342471,-0.093225,0.725763,-2.180900,-0.053023,0.066221,0.114713,0.999934,-0.000466,0.003629,-0.010904,0.927612,0.298152,0.223752,-0.024009,36.912269,25.431232,5.648115
14285,-4.563175,4.581909,11.365627,1.367850,-2.951200,2.852488,-0.875174,0.549400,-2.586791,-0.044718,0.046899,0.113576,0.999903,-0.004376,0.002747,-0.012934,0.927916,0.291214,0.230214,-0.034165,35.917705,26.560163,4.532113
14286,-6.243214,2.073498,10.271027,-0.903221,-4.335379,1.551912,-0.586805,0.353807,-2.915629,-0.061936,0.021942,0.102757,0.999888,-0.002934,0.001769,-0.014578,0.927781,0.285114,0.236165,-0.046458,34.938679,27.691514,3.137501
14287,-6.205712,4.630544,12.049904,0.589989,-2.982171,4.183928,-0.209437,0.027027,-3.264213,-0.061273,0.047436,0.120458,0.999866,-0.001047,0.000135,-0.016320,0.927181,0.280234,0.240936,-0.061265,33.993273,28.758623,1.400696
14288,-7.674663,3.179576,12.867393,-0.557830,-4.375767,4.853786,-1.047136,-0.439519,-3.825436,-0.076393,0.033932,0.128332,0.999801,-0.005235,-0.002197,-0.019126,0.927843,0.270527,0.244522,-0.078300,32.281923,29.743733,-0.857962
14289,-7.249043,1.576415,10.542313,-1.489500,-4.087595,2.321291,-0.845647,-0.892638,-4.223639,-0.072599,0.017741,0.105027,0.999758,-0.004228,-0.004463,-0.021116,0.928217,0.261004,0.246343,-0.098005,30.439935,30.562598,-3.552015
14290,-6.463417,3.771130,10.954587,0.129398,-2.129119,3.280753,-0.629535,-1.079523,-4.579534,-0.064332,0.039531,0.109076,0.999718,-0.003147,-0.005397,-0.022896,0.927887,0.251779,0.247541,-0.119822,28.520413,31.313266,-6.567362
14291,-5.886659,3.853982,8.831929,-0.071224,-0.667485,1.458918,-0.745604,-1.123797,-4.185850,-0.058533,0.040095,0.087842,0.999758,-0.003728,-0.005619,-0.020928,0.927502,0.242382,0.247963,-0.139661,26.600848,31.848457,-9.408958
14292,-4.096762,6.952462,7.913198,2.404781,2.404479,0.965478,-0.346170,-0.916970,-3.613863,-0.040063,0.070391,0.078826,0.999825,-0.001731,-0.004585,-0.018068,0.926398,0.235550,0.248281,-0.157035,25.084525,32.275647,-11.875435
14293,-3.437573,5.779087,8.307178,2.804228,1.275527,0.420950,-1.237870,-0.485401,-3.120163,-0.033664,0.058832,0.082628,0.999856,-0.006189,-0.002427,-0.015600,0.925894,0.225505,0.250625,-0.170456,23.261340,32.750458,-13.940343
14294,-4.162426,3.870103,4.566477,0.084969,1.850000,-2.761126,-0.672897,-0.106419,-2.276411,-0.041203,0.039325,0.045511,0.999929,-0.003364,-0.000532,-0.011382,0.924806,0.219370,0.253245,-0.180217,22.073247,33.193808,-15.399991
14295,-5.893826,6.086129,8.027991,1.153939,2.467411,1.536513,-0.246861,0.124391,-1.896035,-0.058307,0.061515,0.080241,0.999954,-0.001234,0.000622,-0.009480,0.923187,0.215906,0.256093,-0.188484,21.281399,33.657916,-16.573557
14296,-7.602092,2.344563,9.206817,-1.303804,-0.667538,2.266265,-1.365843,-0.034613,-2.246353,-0.075762,0.024926,0.091888,0.999914,-0.006829,-0.000173,-0.011231,0.922534,0.206616,0.259613,-0.197082,19.678809,34.086580,-18.030870
14297,-8.583965,-1.316553,6.657361,-4.699756,-1.995532,-0.134766,-0.884644,-0.447521,-2.392686,-0.086135,-0.011842,0.066435,0.999916,-0.004423,-0.002238,-0.011963,0.921613,0.198948,0.260855,-0.207372,18.233333,34.286187,-19.694244
14298,-7.825822,1.816876,8.936184,-1.614529,-0.450003,2.086355,0.127866,-0.736913,-2.649360,-0.078337,0.019149,0.089085,0.999905,0.000639,-0.003684,-0.013246,0.919638,0.195239,0.259931,-0.220418,17.225692,34.343506,-21.597203
14299,-9.537446,-0.055843,10.467377,-3.218756,-1.891862,3.846612,-0.995562,-1.261789,-3.097305,-0.096020,0.001444,0.104065,0.999848,-0.004978,-0.006309,-0.015486,0.918716,0.185192,0.258196,-0.234520,15.356350,34.144313,-23.898251
14300,-8.989749,-1.830953,7.335330,-4.932757,-1.661620,0.716636,-0.549799,-1.811994,-3.439527,-0.090852,-0.016552,0.072580,0.999807,-0.002749,-0.009059,-0.017197,0.917379,0.176003,0.253649,-0.251198,13.578788,33.628662,-26.505976
14301,-4.268803,2.247462,6.861774,0.637830,0.401162,-1.458779,0.132125,-1.963199,-3.112342,-0.043003,0.023097,0.068212,0.999831,0.000661,-0.009815,-0.015561,0.915709,0.170142,0.247162,-0.267282,12.346950,32.929589,-28.881475
14302,-0.203810,6.961763,4.499583,5.502343,3.634934,-4.786273,0.023901,-1.407253,-2.103161,-0.001622,0.069631,0.044992,0.999920,0.000120,-0.007036,-0.010516,0.914569,0.165692,0.242456,-0.278073,11.491428,32.386970,-30.476141
14303,-2.347931,6.283731,6.779876,4.408564,3.049213,-1.924081,-0.989126,-0.603751,-1.438531,-0.023229,0.063339,0.067416,0.999957,-0.004946,-0.003019,-0.007193,0.914102,0.158553,0.242240,-0.283897,10.370555,32.200953,-31.505988
14304,-6.203307,1.348957,6.383951,-1.385876,1.151832,-0.991916,-1.284659,-0.452214,-1.151029,-0.062096,0.014256,0.063609,0.999960,-0.006423,-0.002261,-0.005755,0.914023,0.150580,0.242895,-0.287905,9.193080,32.054730,-32.321389
14305,-7.757318,0.817385,7.924053,-2.219186,0.949604,1.041161,-0.579921,-0.714806,-1.239712,-0.077802,0.008885,0.078938,0.999970,-0.002900,-0.003574,-0.006198,0.913537,0.145365,0.241379,-0.293352,8.383643,31.756006,-33.216795
14306,-7.096180,1.460567,8.599919,-1.095317,1.044796,1.329726,-0.535689,-1.059298,-1.518412,-0.071301,0.015376,0.085582,0.999954,-0.002678,-0.005296,-0.007592,0.912959,0.139466,0.238417,-0.300353,7.491390,31.272418,-34.321694
14307,-6.397984,1.008857,8.618619,-0.860343,0.544397,0.920090,-0.541833,-1.235196,-1.861757,-0.064411,0.010920,0.085760,0.999934,-0.002709,-0.006176,-0.009309,0.911975,0.132883,0.234865,-0.309003,6.492146,30.697429,-35.651960
14308,-6.067686,0.844801,8.895755,-0.630597,0.354202,0.964051,-0.417975,-1.382352,-2.065670,-0.061197,0.009264,0.088517,0.999921,-0.002090,-0.006912,-0.010328,0.910636,0.126346,0.230562,-0.318780,5.508957,30.031008,-37.107813
14309,-6.572226,0.513464,9.917142,-0.859281,0.208201,2.062527,-0.326787,-1.594831,-2.044162,-0.066452,0.005973,0.098634,0.999915,-0.001634,-0.007974,-0.010221,0.909366,0.119923,0.225084,-0.328648,4.611050,29.221848,-38.537391
14310,-5.405144,0.349452,9.872220,-0.236962,-0.293600,1.441247,-0.181799,-1.929890,-1.986749,-0.054962,0.004127,0.098191,0.999904,-0.000909,-0.009649,-0.009933,0.908318,0.113618,0.217780,-0.338556,3.834806,28.200531,-39.920157
14311,-4.282149,0.030192,10.370202,0.377988,-1.114097,1.344803,-0.103774,-2.040245,-1.990928,-0.043870,0.000789,0.103258,0.999898,-0.000519,-0.010201,-0.009954,0.907158,0.107487,0.209791,-0.348567,3.140015,27.100976,-41.280613
14312,-3.119862,0.091219,9.666773,0.866284,-1.315532,0.222426,0.225912,-2.083591,-1.868912,-0.032194,0.001101,0.096337,0.999901,0.001130,-0.010418,-0.009344,0.905900,0.102848,0.200933,-0.358320,2.699386,25.960723,-42.539278
14313,-2.435953,2.018804,10.068544,2.635854,-0.339926,0.400996,0.625591,-1.956159,-1.593114,-0.025183,0.020072,0.100505,0.999916,0.003128,-0.009781,-0.007965,0.904635,0.100540,0.191748,-0.367098,2.598125,24.881265,-43.601024
14314,-2.510722,3.184688,10.335096,3.351091,0.541965,0.757776,0.513762,-1.813321,-1.225935,-0.025849,0.031739,0.103200,0.999937,0.002569,-0.009066,-0.006130,0.903833,0.098292,0.183207,-0.373978,2.547651,23.872002,-44.417888
14315,-4.525153,2.906739,10.518558,1.760306,1.682128,1.747393,0.469364,-1.769434,-0.886639,-0.046051,0.029024,0.104849,0.999948,0.002347,-0.008847,-0.004433,0.903540,0.096258,0.174754,-0.379223,2.575726,22.879899,-45.015055
14316,-6.062897,2.754115,11.666957,0.777727,2.374761,3.386263,0.398909,-2.052988,-0.708363,-0.061725,0.027527,0.116095,0.999939,0.001995,-0.010265,-0.003542,0.903770,0.093483,0.165051,-0.383692,2.610772,21.720091,-45.505956
14317,-4.524623,1.620900,11.486688,0.744794,0.827406,2.588834,0.079108,-2.346124,-0.749332,-0.046528,0.016336,0.114333,0.999924,0.000396,-0.011730,-0.003747,0.904184,0.088684,0.154630,-0.388169,2.465910,20.394184,-46.024358
14318,-2.680462,-0.111722,10.308353,0.263841,-1.068662,0.781783,0.202954,-2.299197,-0.833752,-0.027992,-0.001107,0.102765,0.999925,0.001015,-0.011496,-0.004169,0.904211,0.084430,0.144197,-0.393041,2.385607,19.095199,-46.585745
14319,-3.284152,-0.160704,10.542083,-0.299234,-0.588551,1.210299,0.728055,-2.119769,-0.850120,-0.033964,-0.001847,0.105058,0.999928,0.003640,-0.010599,-0.004250,0.903718,0.082906,0.133528,-0.398235,2.619858,17.901084,-47.149881
14320,-4.443584,1.489745,11.490829,0.133564,1.224912,2.535587,0.943657,-2.201301,-0.861751,-0.045634,0.014552,0.114480,0.999919,0.004718,-0.011006,-0.004309,0.903033,0.082145,0.122046,-0.403594,2.982457,16.662263,-47.725894
14321,-4.569100,1.467512,12.171208,-0.085303,1.304176,3.204707,0.664871,-2.453937,-0.836535,-0.047119,0.014467,0.121188,0.999910,0.003324,-0.012269,-0.004183,0.902510,0.079645,0.109954,-0.408708,3.202130,15.282109,-48.297772
14322,-3.943141,0.758961,11.698523,-0.524240,0.718042,2.523420,0.634959,-2.820626,-0.756895,-0.041048,0.007373,0.116438,0.999888,0.003175,-0.014103,-0.003784,0.902186,0.076263,0.096216,-0.413506,3.424446,13.690620,-48.836332
14323,-0.738486,1.396068,10.622500,1.642572,-0.768572,0.771967,0.597497,-2.988375,-0.663775,-0.008926,0.013671,0.106140,0.999878,0.002987,-0.014941,-0.003319,0.901935,0.072418,0.081739,-0.417837,3.653273,12.003058,-49.329315
14324,2.018102,1.500695,9.215683,3.139802,-2.303898,-1.090196,0.514240,-2.711406,-0.549895,0.018970,0.014716,0.092458,0.999901,0.002571,-0.013557,-0.002749,0.901644,0.068781,0.068626,-0.421423,3.859591,10.470236,-49.748469
14325,1.638328,1.500033,9.077112,2.705624,-1.877840,-1.067534,0.649829,-2.242591,-0.386755,0.015392,0.014675,0.090995,0.999930,0.003249,-0.011213,-0.001934,0.901333,0.066813,0.057273,-0.424093,4.174879,9.201886,-50.059501
14326,-0.866540,1.677882,10.638082,1.149089,-0.024331,0.930214,0.669836,-2.004313,-0.259221,-0.009710,0.016435,0.106342,0.999943,0.003349,-0.010021,-0.001296,0.901108,0.065443,0.046897,-0.426055,4.517303,8.064188,-50.292107
14327,-4.548370,0.840473,11.489547,-2.002357,2.261746,2.198657,0.648034,-2.214157,-0.206517,-0.046744,0.008081,0.114409,0.999933,0.003240,-0.011071,-0.001033,0.900935,0.063558,0.035603,-0.427795,4.856375,6.807307,-50.510956
14328,-2.640308,1.596409,10.846773,-0.436968,1.547023,1.348876,0.605475,-2.695689,-0.268928,-0.027841,0.015673,0.108147,0.999904,0.003027,-0.013478,-0.001345,0.900586,0.060405,0.022242,-0.429886,5.166989,5.278399,-50.795743
14329,1.525965,1.179702,8.292093,1.698020,-1.434970,-1.594861,0.369636,-2.594196,-0.301127,0.014200,0.011622,0.083131,0.999913,0.001848,-0.012971,-0.001506,0.900057,0.056418,0.009853,-0.431992,5.350745,3.811883,-51.100180
14330,0.947773,1.201539,7.597631,1.222701,-0.784872,-2.200028,0.726076,-2.075845,-0.149980,0.008697,0.011733,0.076112,0.999939,0.003630,-0.010379,-0.000750,0.899600,0.055130,-0.001021,-0.433219,5.749590,2.632539,-51.295763
14331,-2.095815,2.810423,9.589359,0.313117,2.475574,0.087649,0.914110,-1.930682,0.047874,-0.021890,0.027661,0.095812,0.999943,0.004570,-0.009653,0.000239,0.899411,0.055019,-0.011700,-0.433470,6.266387,1.527270,-51.379798
14332,-1.294132,3.182903,10.146432,0.887008,2.150865,0.643816,0.413648,-2.124405,0.187383,-0.014048,0.031606,0.101385,0.999941,0.002068,-0.010622,0.000937,0.899549,0.052201,-0.022206,-0.433120,6.497067,0.301791,-51.403118
14333,0.294910,1.422832,9.367630,0.422553,0.023913,-0.342659,0.180160,-2.099325,0.214967,0.001950,0.014146,0.093713,0.999944,0.000901,-0.010496,0.001075,0.899704,0.048400,-0.032095,-0.432621,6.596434,-0.909553,-51.413391
14334,-0.108493,0.068986,9.794365,-1.066718,-0.385323,-0.083543,0.368027,-2.059524,0.161869,-0.002094,0.000508,0.097927,0.999945,0.001840,-0.010297,0.000809,0.899607,0.045513,-0.042199,-0.432266,6.802633,-2.096175,-51.453684
14335,-1.325995,-0.227120,10.789398,-2.346520,0.475547,0.793131,0.697570,-2.208060,-0.002782,-0.014450,-0.002647,0.107730,0.999933,0.003488,-0.011040,-0.000014,0.898935,0.043837,-0.053636,-0.432570,7.205617,-3.354020,-51.605222
14336,-0.722925,0.136481,10.891349,-1.927070,0.375332,0.925151,0.903265,-2.520495,-0.163165,-0.008600,0.000880,0.108816,0.999910,0.004516,-0.012602,-0.000816,0.897650,0.042425,-0.066881,-0.433533,7.736867,-4.777472,-51.880991
14337,2.233140,0.988813,9.353736,0.554396,-1.244271,-0.242130,0.984198,-2.572391,-0.226869,0.021136,0.009402,0.093861,0.999905,0.004921,-0.012862,-0.001134,0.896022,0.041298,-0.080506,-0.434692,8.328681,-6.221152,-52.212736
14338,2.548686,1.606008,8.250100,1.203137,-1.000760,-1.170586,1.212245,-2.269988,-0.133293,0.024558,0.015542,0.082879,0.999917,0.006061,-0.011350,-0.000666,0.894517,0.041784,-0.093279,-0.435192,9.049435,-7.499115,-52.481151
14339,2.091149,2.807670,8.538731,1.581751,0.179386,-0.722736,1.436795,-2.076548,0.133846,0.020004,0.027475,0.085797,0.999920,0.007184,-0.010382,0.000669,0.893486,0.043585,-0.105714,-0.434290,9.885223,-8.687836,-52.597991
14340,1.602435,3.271728,8.590454,1.412237,0.922694,-0.635676,1.503651,-1.942460,0.550588,0.015099,0.032112,0.086297,0.999921,0.007518,-0.009712,0.002753,0.893279,0.045728,-0.117773,-0.431383,10.722020,-9.843374,-52.479713
14341,1.091719,3.386459,8.917867,0.876500,1.471913,-0.365573,1.694804,-1.890284,0.984183,0.009908,0.033157,0.089558,0.999907,0.008474,-0.009451,0.004921,0.893836,0.048594,-0.130086,-0.426349,11.625197,-11.017836,-52.126253
14342,0.026103,3.374441,10.284302,-0.428939,2.395333,0.733600,1.875406,-1.981529,1.364845,-0.000986,0.032774,0.103148,0.999884,0.009377,-0.009907,0.006824,0.894918,0.051798,-0.143261,-0.419422,12.584612,-12.296090,-51.583268
14343,1.385728,3.556003,10.246932,0.222478,1.565637,1.006475,1.816046,-2.261075,1.652364,0.012406,0.034733,0.102933,0.999861,0.009080,-0.011305,0.008261,0.896185,0.053948,-0.157596,-0.411224,13.474377,-13.774491,-50.932015
14344,3.144438,2.815897,9.296963,0.776768,-0.152519,0.366504,1.745213,-2.236992,1.844827,0.030144,0.027626,0.093554,0.999857,0.008726,-0.011184,0.009224,0.897636,0.055648,-0.171687,-0.402089,14.281561,-15.276336,-50.184268
14345,3.940496,2.278425,8.319813,0.978409,-1.019668,-0.435317,1.956092,-2.088217,2.008243,0.038306,0.022355,0.083822,0.999847,0.009780,-0.010441,0.010041,0.899215,0.058453,-0.185527,-0.391886,15.165334,-16.728890,-49.338637
14346,4.152595,2.425145,8.771091,0.789160,-0.960423,0.112330,2.355304,-1.792684,2.210468,0.040472,0.023665,0.088358,0.999829,0.011776,-0.008963,0.011052,0.901061,0.063409,-0.198822,-0.380183,16.213103,-18.064500,-48.346642
14347,2.450661,2.804100,9.353350,-0.557855,0.593575,0.221367,2.577539,-1.688300,2.485225,0.023373,0.027126,0.094088,0.999804,0.012887,-0.008441,0.012425,0.903127,0.069284,-0.212080,-0.366856,17.316966,-19.404531,-47.197402
14348,3.133344,3.975720,9.094719,0.415013,1.019751,0.537015,2.475485,-1.775194,2.704480,0.029991,0.039037,0.091704,0.999793,0.012377,-0.008875,0.013521,0.905178,0.074263,-0.225536,-0.352521,18.301690,-20.851222,-45.952136
14349,4.497598,3.578789,8.449287,1.072945,-0.097987,0.348975,1.921066,-1.611090,2.763018,0.043799,0.035582,0.085191,0.999826,0.009605,-0.008055,0.013814,0.907374,0.076943,-0.237205,-0.338358,18.920994,-22.234527,-44.651715
14350,3.630155,1.579149,7.711529,-0.498024,-0.971685,-1.213570,1.888697,-1.302395,2.758439,0.035582,0.015555,0.077496,0.999839,0.009443,-0.006512,0.013791,0.909639,0.079964,-0.247341,-0.324014,19.470480,-23.463364,-43.292932
14351,1.312450,1.768131,8.254059,-2.408999,0.650941,-1.642842,2.573616,-1.296032,2.784198,0.012350,0.016792,0.082842,0.999799,0.012867,-0.006480,0.013920,0.911347,0.086063,-0.258474,-0.308595,20.382221,-24.708482,-41.923244
14352,2.316467,3.830769,9.170110,-1.419534,1.667159,0.153669,2.574041,-1.525373,2.728656,0.021947,0.037427,0.092357,0.999795,0.012869,-0.007626,0.013642,0.912307,0.091833,-0.270525,-0.293392,21.303494,-26.085851,-40.644536
14353,2.810021,3.546952,8.390788,-1.089475,1.181960,-0.416293,2.086548,-1.549803,2.667612,0.026978,0.034955,0.084486,0.999827,0.010432,-0.007749,0.013337,0.913018,0.095406,-0.281841,-0.279036,21.941232,-27.477991,-39.415302
14354,3.977651,3.573189,6.761647,0.401602,0.640316,-1.225892,1.894041,-1.640463,2.534171,0.038767,0.035583,0.068275,0.999841,0.009470,-0.008202,0.012670,0.913208,0.098117,-0.293143,-0.265502,22.488723,-28.901156,-38.287755
14355,6.116752,3.005313,5.982316,1.891963,-0.877034,-0.987584,1.606260,-1.351772,2.320721,0.060410,0.030273,0.060476,0.999878,0.008031,-0.006759,0.011603,0.913417,0.100196,-0.302559,-0.253156,22.877593,-30.132033,-37.216978
14356,4.526330,2.045451,6.347645,0.041685,-0.796423,-1.792308,1.881988,-1.014042,2.200863,0.044716,0.020349,0.063896,0.999882,0.009410,-0.005070,0.011004,0.913631,0.104106,-0.310648,-0.240702,23.396173,-31.165974,-36.128773
14357,3.266824,3.369358,7.762633,-1.378379,0.939335,-0.896569,2.125524,-1.068623,2.242199,0.031877,0.033225,0.078153,0.999866,0.010627,-0.005343,0.011210,0.913450,0.108985,-0.319223,-0.227657,24.033402,-32.246791,-35.031455
14358,5.393378,3.963948,6.731344,0.757509,0.519192,-0.364633,1.580181,-1.054166,2.212017,0.053138,0.039695,0.067908,0.999894,0.007901,-0.005271,0.011060,0.913339,0.111399,-0.327017,-0.215548,24.345414,-33.321172,-33.944817
14359,5.342628,2.520978,5.300126,1.041715,-0.562351,-1.964911,1.364879,-0.750900,2.138277,0.052955,0.025414,0.053374,0.999913,0.006824,-0.003754,0.010691,0.913583,0.113269,-0.333091,-0.203927,24.494077,-34.223031,-32.812510
14360,4.745992,2.442825,5.173768,0.590833,-0.296470,-2.408507,1.637286,-0.493652,2.080549,0.047077,0.024494,0.052055,0.999909,0.008186,-0.002468,0.010402,0.913883,0.116709,-0.338175,-0.191924,24.757595,-34.981045,-31.633251
14361,4.978575,3.125282,5.335640,0.739169,0.245981,-1.912377,1.618875,-0.265844,2.058473,0.049392,0.031329,0.053676,0.999913,0.008094,-0.001329,0.010292,0.914391,0.120312,-0.342127,-0.179895,24.966390,-35.618753,-30.396195
14362,4.520869,3.315086,5.481953,0.278159,0.626919,-2.001874,1.653401,-0.000389,2.090816,0.044862,0.033166,0.055094,0.999911,0.008267,-0.000002,0.010454,0.915205,0.124223,-0.344856,-0.167460,25.120513,-36.130270,-29.050938
14363,4.124359,3.755745,5.519217,-0.017600,1.206499,-2.058913,1.628265,0.132463,2.227527,0.040862,0.037563,0.055471,0.999905,0.008141,0.000662,0.011137,0.916205,0.127884,-0.346977,-0.154337,25.172372,-36.607561,-27.571718
14364,5.378036,3.631967,5.107074,1.054230,0.723987,-1.654226,1.466652,0.396397,2.291864,0.053464,0.036558,0.051232,0.999905,0.007333,0.001982,0.011459,0.917645,0.130862,-0.347740,-0.140994,25.043244,-36.963193,-25.960770
14365,4.519730,3.146333,4.616109,0.637930,0.700508,-2.689638,1.667085,0.721515,2.535105,0.044964,0.031649,0.046262,0.999878,0.008335,0.003607,0.012675,0.919489,0.134548,-0.347236,-0.125951,24.864583,-37.204831,-24.086924
14366,5.012626,4.746927,4.794552,1.032215,2.062889,-1.730273,1.934297,0.959569,2.874074,0.049672,0.047720,0.048167,0.999838,0.009671,0.004798,0.014370,0.921522,0.138975,-0.345935,-0.108683,24.649926,-37.399227,-21.911730
14367,5.408280,4.134653,4.771812,1.216907,1.465025,-1.720295,1.432926,1.352294,3.019500,0.053776,0.041818,0.047652,0.999838,0.007164,0.006761,0.015097,0.924360,0.141019,-0.342541,-0.091312,24.014658,-37.409658,-19.520867
14368,4.030575,1.851204,4.375827,0.289645,-0.161312,-3.590952,1.476966,1.699946,3.015065,0.040395,0.018798,0.043553,0.999823,0.007384,0.008499,0.015074,0.927447,0.143378,-0.337442,-0.073604,23.348974,-37.215440,-17.034237
14369,3.256509,1.903510,5.565093,-1.018648,-0.164107,-3.169373,1.777754,1.842326,2.846937,0.032806,0.019007,0.055518,0.999817,0.008888,0.009211,0.014234,0.930161,0.147423,-0.331551,-0.056044,22.915237,-36.888999,-14.630499
14370,3.722742,1.346734,5.833435,-0.758722,-0.849995,-2.855491,1.341473,1.878505,2.459724,0.037607,0.013538,0.058073,0.999858,0.006707,0.009392,0.012298,0.932847,0.150035,-0.324975,-0.040959,22.398963,-36.442319,-12.486560
14371,5.280893,-0.693984,4.105022,1.696429,-2.585012,-3.841230,1.033111,2.063447,1.871980,0.053292,-0.006653,0.040467,0.999890,0.005165,0.010317,0.009360,0.935707,0.152172,-0.316950,-0.028972,21.934667,-35.755501,-10.700569
14372,4.260603,-0.924383,4.594935,0.757155,-2.747424,-4.156145,1.600514,2.475075,1.295082,0.043230,-0.009330,0.045342,0.999870,0.008002,0.012375,0.006475,0.938481,0.157891,-0.306567,-0.018458,21.982777,-34.721413,-9.202924
14373,2.766394,1.932870,6.778656,-1.740249,-0.516450,-2.461435,1.983670,2.542973,0.983585,0.028431,0.018796,0.067616,0.999858,0.009918,0.012714,0.004918,0.940772,0.165858,-0.295572,-0.008766,22.385647,-33.588453,-7.903061
14374,1.938164,4.303020,8.068500,-3.201585,1.292994,-1.126624,1.847254,2.437326,0.987038,0.020156,0.042382,0.080836,0.999871,0.009236,0.012186,0.004935,0.942768,0.173117,-0.284990,0.000662,22.747301,-32.519545,-6.634794
14375,2.495786,4.674547,7.862548,-2.546820,1.533783,-0.809392,1.440116,2.215224,1.093500,0.025575,0.046318,0.078679,0.999898,0.007200,0.011076,0.005467,0.944579,0.178278,-0.275482,0.009813,22.896249,-31.596140,-5.368230
14376,3.508470,3.402073,7.186310,-1.076172,0.421210,-1.199356,1.344515,2.160216,1.148763,0.035665,0.033742,0.071707,0.999903,0.006722,0.010801,0.005744,0.946213,0.182869,-0.266229,0.019048,23.000658,-30.716146,-4.090444
14377,3.395525,3.489925,7.741829,-1.336184,0.250144,-0.768615,1.549296,2.137574,1.141412,0.034584,0.034496,0.077319,0.999897,0.007746,0.010688,0.005707,0.947436,0.188414,-0.257008,0.028489,23.250203,-29.850144,-2.832744
14378,3.467830,3.839609,8.914902,-1.749024,0.062580,0.345004,1.303553,2.008517,1.016275,0.035379,0.037994,0.089045,0.999915,0.006518,0.010042,0.005081,0.948569,0.192929,-0.248261,0.036902,23.430570,-29.027139,-1.689866
14379,4.040940,2.418618,8.552541,-0.696967,-1.174376,-0.145330,0.976855,1.886093,0.788506,0.041120,0.023931,0.085257,0.999936,0.004884,0.009430,0.003942,0.949763,0.196181,-0.239904,0.043699,23.523276,-28.219436,-0.723215
14380,4.565390,1.762350,8.483600,0.075953,-1.785216,-0.183315,0.993541,1.863414,0.499756,0.046399,0.017319,0.084493,0.999941,0.004968,0.009317,0.002499,0.950864,0.199829,-0.231330,0.049124,23.721444,-27.358707,0.062348
14381,5.202048,1.511369,8.234390,0.970441,-1.938070,-0.197598,0.867043,1.905662,0.201519,0.052787,0.014811,0.081908,0.999945,0.004335,0.009528,0.001008,0.952101,0.203198,-0.222271,0.053014,23.935298,-26.410106,0.679367
14382,6.277289,0.931933,7.192559,2.653996,-2.038481,-0.823635,0.812741,2.113908,-0.100439,0.063533,0.008997,0.071294,0.999936,0.004064,0.010569,-0.000502,0.953595,0.206552,-0.211893,0.055619,24.179772,-25.283486,1.175045
14383,6.750775,0.729745,6.665291,3.537005,-1.998804,-1.209158,0.934667,2.507014,-0.384970,0.068350,0.006857,0.065832,0.999909,0.004673,0.012535,-0.001925,0.955308,0.210660,-0.199289,0.057387,24.530674,-23.887526,1.609414
14384,6.207637,1.261238,6.734104,3.163850,-1.579409,-1.270906,1.224614,2.952703,-0.618803,0.063100,0.012009,0.066489,0.999867,0.006123,0.014763,-0.003094,0.957017,0.216195,-0.184178,0.058791,25.059923,-22.206332,2.035920
14385,2.768367,3.623457,8.536887,-0.765460,-0.444606,-0.175398,2.072634,3.290850,-0.604562,0.029195,0.035264,0.085266,0.999806,0.010363,0.016453,-0.003023,0.957802,0.225621,-0.167159,0.061382,26.047180,-20.359512,2.577121
14386,-2.935334,9.131363,13.081629,-8.165267,1.870813,4.077020,2.634629,2.904107,-0.169419,-0.027362,0.089600,0.132411,0.999807,0.013172,0.014520,-0.000847,0.957132,0.237389,-0.152244,0.066075,27.314351,-18.832751,3.283035
14387,-0.526010,11.765728,15.256990,-6.685643,3.000739,8.013567,0.759089,1.791885,0.191589,-0.004003,0.117073,0.153055,0.999952,0.003795,0.008959,0.000958,0.957489,0.240235,-0.143665,0.069724,27.554432,-17.975880,3.887789
14388,3.855450,4.373210,10.953520,0.191446,-1.125382,2.543016,-0.666257,1.288534,0.175726,0.039220,0.044130,0.109137,0.999973,-0.003331,0.006443,0.000879,0.959136,0.236413,-0.137951,0.071670,27.029638,-17.368401,4.341893
14389,5.127457,-0.136073,8.631671,2.980373,-3.818337,-1.017735,0.096945,1.357485,-0.060024,0.051858,-0.001418,0.085965,0.999977,0.000485,0.006787,-0.000300,0.959960,0.236390,-0.131359,0.073083,26.981517,-16.663556,4.682751
14390,5.162951,2.149256,9.704523,2.473100,-2.328764,0.860200,0.975385,1.515245,-0.292446,0.052394,0.020944,0.096753,0.999958,0.004877,0.007576,-0.001462,0.959877,0.240647,-0.123395,0.074147,27.461133,-15.817536,4.946161
14391,4.695711,3.618351,9.684077,1.920474,-1.121362,1.321692,0.690493,1.623925,-0.479341,0.047828,0.035736,0.096579,0.999958,0.003452,0.008120,-0.002397,0.960190,0.243608,-0.114791,0.074255,27.800286,-14.869621,5.144795
14392,4.648765,2.530599,8.443222,2.513502,-1.499225,-0.287238,0.611449,1.830073,-0.643853,0.047339,0.024897,0.084078,0.999948,0.003057,0.009150,-0.003219,0.960694,0.246167,-0.105007,0.073780,28.101253,-13.773462,5.320553
14393,3.721034,2.330800,8.220822,1.894482,-1.677181,-0.843045,0.835096,2.104094,-0.804532,0.038166,0.022813,0.081906,0.999928,0.004175,0.010520,-0.004023,0.961002,0.249770,-0.093622,0.072971,28.536295,-12.497342,5.494513
14394,2.849956,2.463008,7.826115,1.299224,-1.495206,-1.356421,1.045424,2.324762,-0.977368,0.029526,0.024079,0.078049,0.999907,0.005227,0.011623,-0.004887,0.961062,0.254323,-0.080864,0.071701,29.096568,-11.063727,5.653795
14395,1.854442,3.386855,7.920651,0.391054,-0.910160,-1.057169,1.260246,2.521294,-1.185952,0.019741,0.033255,0.079174,0.999883,0.006301,0.012606,-0.005930,0.960796,0.259890,-0.066808,0.069742,29.792722,-9.475597,5.777422
14396,0.578578,4.302102,8.432784,-0.789805,-0.596605,-0.380442,1.234541,2.605757,-1.398493,0.007184,0.042453,0.084504,0.999872,0.006172,0.013028,-0.006992,0.960439,0.265289,-0.052058,0.066854,30.484386,-7.785659,5.839144
14397,-0.528307,4.494938,8.725999,-1.635644,-0.776423,-0.151405,1.082474,2.535823,-1.602693,-0.003816,0.044511,0.087556,0.999873,0.005412,0.012679,-0.008013,0.960083,0.269989,-0.037415,0.062829,31.105807,-6.071441,5.797038
14398,-0.960700,4.937104,8.915955,-1.831613,-0.619679,0.239425,1.063232,2.382565,-1.751765,-0.008112,0.048971,0.089523,0.999877,0.005316,0.011912,-0.008758,0.959538,0.274582,-0.023297,0.057868,31.721338,-4.386697,5.655610
14399,-1.369709,5.861336,9.263165,-2.047518,-0.139253,1.041661,0.992085,2.199337,-1.797938,-0.012150,0.058266,0.093061,0.999887,0.004960,0.010996,-0.008989,0.958851,0.278851,-0.010016,0.052406,32.298556,-2.776156,5.452724
14400,-1.753878,6.461136,9.711874,-2.178337,0.027235,1.779924,0.722391,1.952666,-1.760427,-0.016020,0.064405,0.097513,0.999907,0.003612,0.009763,-0.008802,0.958328,0.281809,0.001971,0.046761,32.714533,-1.293781,5.207296
14401,-2.195726,6.170438,9.855725,-2.299440,-0.364750,1.789207,0.428009,1.688152,-1.681367,-0.020605,0.061670,0.098867,0.999927,0.002140,0.008441,-0.008407,0.958040,0.283396,0.012500,0.041111,32.958950,0.037214,4.925350
14402,-2.640100,5.935516,9.801355,-2.478778,-0.572985,1.667289,0.247640,1.350567,-1.591585,-0.025265,0.059438,0.098260,0.999945,0.001238,0.006753,-0.007958,0.957894,0.284135,0.021258,0.035425,33.090544,1.180110,4.586562
14403,-2.215132,5.280977,9.043875,-1.864481,-0.663981,0.707170,0.122675,1.076108,-1.458329,-0.021279,0.052912,0.090587,0.999959,0.000613,0.005380,-0.007292,0.957833,0.284334,0.028477,0.029991,33.146455,2.148950,4.226459
14404,-2.095997,5.062851,8.231784,-1.637181,-0.394744,-0.068458,0.343167,0.945724,-1.213780,-0.020263,0.050611,0.082502,0.999969,0.001716,0.004729,-0.006069,0.957379,0.285598,0.034769,0.025515,33.323700,2.980732,3.945572
14405,-1.777780,5.950851,8.093864,-1.221823,0.421231,0.307191,0.485513,0.862589,-0.950349,-0.017146,0.059394,0.081158,0.999976,0.002428,0.004313,-0.004752,0.956644,0.287609,0.040289,0.022149,33.587541,3.689148,3.766406
14406,-1.530252,5.770683,7.385152,-0.915440,0.647026,-0.382674,0.379739,0.848008,-0.787970,-0.014762,0.057625,0.074024,0.999981,0.001899,0.004240,-0.003940,0.956013,0.289113,0.045508,0.019565,33.791135,4.341417,3.664086
14407,-1.267149,5.254558,6.903840,-0.587727,0.475459,-1.077323,0.365239,0.920734,-0.743426,-0.012158,0.052465,0.069191,0.999981,0.001826,0.004604,-0.003717,0.955340,0.290563,0.050991,0.017296,33.991865,5.012717,3.607420
14408,-1.063201,5.029985,6.739074,-0.290591,0.369596,-1.349590,0.394755,1.075150,-0.853704,-0.010055,0.050210,0.067545,0.999974,0.001974,0.005376,-0.004268,0.954558,0.292077,0.057390,0.014721,34.206039,5.794683,3.551486
14409,-1.589812,5.518134,7.162695,-0.631127,0.484673,-0.666839,0.341117,1.172129,-0.998525,-0.015202,0.055136,0.071811,0.999969,0.001706,0.005861,-0.004993,0.953778,0.293293,0.064438,0.011606,34.387600,6.667719,3.459632
14410,-2.186814,5.790469,7.260668,-1.058976,0.608802,-0.350396,0.190123,1.193729,-1.071393,-0.021124,0.057950,0.072789,0.999967,0.000951,0.005969,-0.005357,0.953162,0.293722,0.071701,0.008228,34.475388,7.576610,3.343049
14411,-2.795782,5.840957,7.242579,-1.515088,0.623694,-0.236579,0.143006,1.139892,-0.976637,-0.027259,0.058492,0.072624,0.999972,0.000715,0.005699,-0.004883,0.952568,0.293969,0.078544,0.005233,34.541006,8.427652,3.253961
14412,-2.847263,6.087800,7.477071,-1.384685,0.692114,0.120943,0.147475,1.018094,-0.796959,-0.027849,0.060935,0.074958,0.999979,0.000737,0.005090,-0.003985,0.951969,0.294274,0.084559,0.002918,34.612541,9.164921,3.212427
14413,-2.480816,5.801159,7.373656,-0.935340,0.528245,-0.167802,0.123971,0.929953,-0.604958,-0.024289,0.058040,0.073886,0.999984,0.000620,0.004650,-0.003025,0.951398,0.294561,0.089848,0.001392,34.683104,9.796149,3.233371
14414,-2.134063,5.625437,7.579425,-0.465571,0.278262,-0.150780,0.175058,0.875730,-0.497368,-0.020868,0.056240,0.075936,0.999987,0.000875,0.004379,-0.002487,0.950755,0.295110,0.094740,0.000280,34.786766,10.368858,3.289814
14415,-2.034471,5.453469,7.699420,-0.259177,0.064946,-0.164460,0.120664,0.860535,-0.510434,-0.019874,0.054539,0.077113,0.999987,0.000603,0.004303,-0.002552,0.950169,0.295408,0.099556,-0.000896,34.860324,10.936442,3.334931
14416,-2.118380,4.881087,7.443354,-0.329244,-0.273187,-0.673087,0.103123,0.845954,-0.582936,-0.020726,0.048833,0.074547,0.999987,0.000516,0.004230,-0.002915,0.949597,0.295558,0.104428,-0.002425,34.914320,11.523096,3.342153
14417,-2.309199,4.755015,7.380178,-0.441492,-0.359069,-0.752613,0.194411,0.843190,-0.664862,-0.022622,0.047554,0.073944,0.999985,0.000972,0.004216,-0.003324,0.948859,0.296111,0.109383,-0.004399,35.014992,12.133130,3.308982
14418,-2.496483,4.990758,7.345069,-0.513939,-0.167087,-0.604150,0.261806,0.858489,-0.722034,-0.024469,0.049900,0.073622,0.999983,0.001309,0.004292,-0.003610,0.947987,0.296922,0.114512,-0.006654,35.146944,12.771490,3.255666
14419,-2.550676,5.244131,7.605509,-0.383665,-0.121443,-0.237322,0.242664,0.855588,-0.802103,-0.024971,0.052450,0.076226,0.999982,0.001213,0.004278,-0.004010,0.947106,0.297609,0.119721,-0.009286,35.261098,13.432790,3.163184
14420,-2.719579,5.559500,8.162829,-0.277067,-0.192563,0.425512,0.155915,0.877977,-0.916815,-0.026582,0.055654,0.081789,0.999980,0.000780,0.004390,-0.004584,0.946304,0.297783,0.125228,-0.012372,35.310833,14.144968,3.024728
14421,-3.295050,5.515503,8.942298,-0.528948,-0.685688,1.164164,-0.085545,0.799937,-1.066769,-0.032298,0.055367,0.089529,0.999978,-0.000428,0.004000,-0.005334,0.945856,0.296725,0.130577,-0.016135,35.197942,14.867840,2.785370
14422,-3.390568,4.557681,9.095376,-0.561714,-1.523588,0.787125,-0.248492,0.624321,-1.227065,-0.033341,0.045896,0.091002,0.999976,-0.001242,0.003122,-0.006135,0.945712,0.294742,0.135363,-0.020807,34.949281,15.562747,2.405934
14423,-3.404282,4.295207,9.352334,-0.428932,-1.833467,0.862388,-0.161803,0.485725,-1.414243,-0.033510,0.043266,0.093570,0.999972,-0.000809,0.002429,-0.007071,0.945461,0.293035,0.139730,-0.026629,34.709214,16.249810,1.882568
14424,-3.748416,4.852769,10.094027,-0.389031,-1.741789,1.862192,-0.142887,0.263927,-1.617725,-0.036956,0.048900,0.100954,0.999966,-0.000714,0.001320,-0.008089,0.945257,0.291201,0.143359,-0.033745,34.419776,16.898405,1.179561
14425,-3.793474,4.745621,10.421818,-0.262782,-1.936410,2.091321,-0.307104,0.003507,-1.823030,-0.037497,0.047959,0.104145,0.999957,-0.001535,0.000018,-0.009115,0.945368,0.288405,0.146050,-0.042095,33.973859,17.482993,0.279460
14426,-3.811564,4.221939,10.097428,-0.365114,-2.091726,1.580333,-0.311626,-0.243576,-2.005175,-0.037812,0.042757,0.100862,0.999948,-0.001558,-0.001218,-0.010026,0.945543,0.285345,0.147845,-0.051650,33.458508,18.002842,-0.801376
14427,-3.270992,4.628038,9.797211,0.218344,-1.496479,1.404049,-0.269165,-0.378546,-2.161578,-0.032392,0.046763,0.097848,0.999939,-0.001346,-0.001893,-0.010808,0.945606,0.282333,0.149175,-0.062168,32.920431,18.495222,-2.014589
14428,-2.523725,5.224615,9.503489,1.064734,-0.758328,1.244949,-0.558633,-0.312880,-2.461797,-0.024738,0.052818,0.094849,0.999919,-0.002793,-0.001564,-0.012309,0.945807,0.277677,0.151330,-0.073782,32.156202,19.100893,-3.368680
14429,-2.159608,4.581891,8.674251,1.184758,-0.733469,0.134942,-0.989844,-0.103016,-2.902151,-0.020969,0.046555,0.086502,0.999882,-0.004949,-0.000515,-0.014510,0.946093,0.270702,0.155195,-0.086851,31.073492,19.918323,-4.900494
14430,-2.775915,3.921374,8.644000,0.602166,-1.057914,0.001279,-1.271765,0.247838,-3.535038,-0.026947,0.040244,0.086220,0.999823,-0.006358,0.001239,-0.017674,0.945941,0.261943,0.161673,-0.102190,29.712015,21.063451,-6.685036
14431,-5.205948,2.305561,9.710604,-1.627371,-2.480353,1.045540,-1.452449,0.311268,-4.087275,-0.051413,0.024816,0.097010,0.999764,-0.007262,0.001556,-0.020435,0.945296,0.251841,0.169179,-0.119874,28.095223,22.347762,-8.795256
14432,-6.675886,1.286959,9.846505,-3.047647,-2.884046,1.392523,-1.184170,0.110733,-4.475457,-0.066385,0.014941,0.098417,0.999732,-0.005920,0.000554,-0.022375,0.943782,0.242394,0.175999,-0.139806,26.456244,23.577236,-11.235045
14433,-7.727065,2.002921,10.717820,-3.310105,-2.173448,2.950292,-0.748389,-0.289961,-4.657645,-0.076925,0.022224,0.106986,0.999721,-0.003742,-0.001450,-0.023286,0.941442,0.234467,0.180729,-0.161395,24.917908,24.580785,-13.944213
14434,-6.421094,3.597828,10.719048,-1.319972,-0.766628,3.099671,-0.739535,-0.691141,-4.804443,-0.063685,0.037908,0.106832,0.999699,-0.003697,-0.003455,-0.024020,0.938799,0.225949,0.183651,-0.184054,23.241422,25.340513,-16.890569
14435,-5.922053,3.435949,10.951872,-0.677194,-0.799957,3.060030,-1.032030,-0.921729,-4.892600,-0.058851,0.036366,0.109063,0.999677,-0.005160,-0.004608,-0.024460,0.936024,0.215664,0.185725,-0.207011,21.307221,25.911054,-19.985585
14436,-5.169320,2.446567,9.730010,-0.625724,-0.913339,1.418673,-1.086566,-1.040609,-4.956501,-0.051562,0.026272,0.096892,0.999665,-0.005432,-0.005202,-0.024780,0.932746,0.204757,0.187264,-0.230200,19.269035,26.334413,-23.178486
14437,-5.936254,1.746242,10.120297,-1.354090,-1.059616,1.923624,-0.765821,-1.122225,-4.790775,-0.059482,0.019273,0.100798,0.999690,-0.003829,-0.005611,-0.023951,0.928798,0.195318,0.187743,-0.252860,17.430450,26.585140,-26.310459
14438,-5.353796,3.671996,9.305596,0.104531,0.897414,1.497416,-0.268787,-1.312657,-4.315386,-0.053336,0.037997,0.092655,0.999745,-0.001344,-0.006563,-0.021575,0.924629,0.188236,0.186158,-0.273815,15.975459,26.572953,-29.195994
14439,-3.845827,6.794549,9.675024,3.332942,2.673779,1.862107,-0.319569,-1.329803,-3.594047,-0.037869,0.068784,0.096388,0.999815,-0.001598,-0.006649,-0.017969,0.921097,0.181531,0.183783,-0.291291,14.700821,26.379857,-31.635186
14440,-1.691072,6.921408,7.781162,4.763900,2.693456,-0.792718,-1.011365,-1.108534,-2.707473,-0.016398,0.069830,0.077368,0.999880,-0.005057,-0.005542,-0.013537,0.919009,0.172678,0.182588,-0.303753,13.295661,26.136018,-33.480428
14441,0.125606,6.304794,6.843534,5.641191,1.797186,-2.633169,-1.250225,-0.471783,-1.954930,0.001714,0.063459,0.068043,0.999930,-0.006251,-0.002359,-0.009774,0.917507,0.164391,0.183983,-0.311939,12.012406,26.114856,-34.758916
14442,-1.888529,3.178696,7.519452,2.446414,0.272570,-1.803227,-1.551117,0.179672,-1.331493,-0.018603,0.032493,0.074961,0.999947,-0.007755,0.000898,-0.006657,0.916520,0.156256,0.188308,-0.316409,10.758752,26.363106,-35.565481
14443,-4.301757,1.125241,7.614849,-0.490458,0.028321,-1.008444,-0.935911,0.383466,-0.916565,-0.042818,0.011805,0.076176,0.999977,-0.004680,0.001917,-0.004583,0.915440,0.151679,0.192248,-0.319379,9.982741,26.671149,-36.093735
14444,-6.028995,1.817831,10.307549,-0.507363,0.436116,2.247588,-0.527851,0.243784,-0.771782,-0.060093,0.018683,0.103100,0.999988,-0.002639,0.001219,-0.003859,0.914391,0.148844,0.194785,-0.322169,9.466214,26.880175,-36.550875
14445,-5.397541,1.118336,10.038521,-0.490773,-0.238863,1.626576,-0.811697,-0.081933,-0.842442,-0.053968,0.011818,0.100316,0.999983,-0.004058,-0.000410,-0.004212,0.913724,0.144150,0.196333,-0.325243,8.753954,26.907729,-37.088673
14446,-4.627426,-0.429365,10.148323,-0.848538,-1.744670,1.179153,-0.815599,-0.202418,-1.016560,-0.046397,-0.003644,0.101452,0.999978,-0.004078,-0.001012,-0.005083,0.912865,0.139029,0.197459,-0.329178,7.979825,26.874509,-37.748998
14447,-3.799941,-0.726983,9.164906,-0.676482,-1.939549,-0.079070,-0.527949,-0.312104,-1.058952,-0.038179,-0.006826,0.091608,0.999981,-0.002640,-0.001561,-0.005295,0.911802,0.135029,0.197627,-0.333658,7.359517,26.775853,-38.444565
14448,-3.467171,0.869045,9.630011,0.765059,-1.044682,0.377340,-0.227023,-0.265529,-0.976071,-0.034756,0.008969,0.096244,0.999987,-0.001135,-0.001328,-0.004880,0.910605,0.132518,0.197449,-0.338011,6.934102,26.691165,-39.082309
14449,-3.398729,1.412521,9.136282,1.068096,-0.441603,-0.030968,-0.378679,-0.245973,-0.793011,-0.034043,0.014433,0.091294,0.999990,-0.001893,-0.001230,-0.003965,0.909771,0.129565,0.197484,-0.341364,6.480779,26.601933,-39.600570
14450,-3.591353,1.394924,8.899652,0.889093,-0.204812,-0.157908,-0.356865,-0.148276,-0.579487,-0.035939,0.014212,0.088945,0.999994,-0.001784,-0.000741,-0.002897,0.909182,0.127048,0.197789,-0.343694,6.100309,26.550367,-39.975190
14451,-4.242515,1.291777,9.003612,0.428891,0.099254,0.214209,-0.324295,-0.114634,-0.424431,-0.042449,0.013154,0.089991,0.999996,-0.001621,-0.000573,-0.002122,0.908791,0.124929,0.198086,-0.345332,5.788697,26.507952,-40.248071
14452,-4.500383,1.545913,9.074811,0.466251,0.446499,0.413681,-0.234229,-0.131753,-0.335788,-0.045037,0.015641,0.090700,0.999998,-0.001171,-0.000659,-0.001679,0.908514,0.123237,0.198097,-0.346659,5.549280,26.448265,-40.465456
14453,-4.516489,1.787194,9.652151,0.798237,0.461968,0.953276,-0.322359,-0.134168,-0.356730,-0.045197,0.018108,0.096462,0.999997,-0.001612,-0.000671,-0.001784,0.908246,0.121158,0.198258,-0.348000,5.258232,26.388753,-40.695671
14454,-4.568667,0.807269,9.223556,0.001087,-0.020083,0.511931,-0.378049,-0.195639,-0.364412,-0.045762,0.008330,0.092175,0.999996,-0.001890,-0.000978,-0.001822,0.908059,0.118673,0.198242,-0.349349,4.927771,26.292058,-40.933967
14455,-4.270367,1.244527,9.781014,0.667822,-0.030254,0.911402,-0.163465,-0.238214,-0.303590,-0.042801,0.012590,0.097749,0.999998,-0.000817,-0.001191,-0.001518,0.907882,0.117185,0.197618,-0.350664,4.741375,26.168532,-41.134917
14456,-4.182336,0.947118,10.050968,0.598023,-0.351563,1.092794,-0.198322,-0.319215,-0.202677,-0.041974,0.009613,0.100433,0.999998,-0.000992,-0.001596,-0.001013,0.907984,0.115459,0.196629,-0.351526,4.557937,25.992045,-41.275386
14457,-4.184783,0.541007,10.155965,0.328050,-0.643931,1.161204,0.024485,-0.416830,-0.037318,-0.042058,0.005405,0.101473,0.999998,0.000122,-0.002084,-0.000187,0.908334,0.114772,0.194708,-0.351917,4.550732,25.753509,-41.315059
14458,-4.115655,0.602529,10.767326,0.540752,-0.819047,1.688330,0.102544,-0.526461,0.030550,-0.041441,0.005964,0.107567,0.999996,0.000513,-0.002632,0.000153,0.908866,0.114275,0.192112,-0.352132,4.600404,25.447725,-41.317480
14459,-4.555275,-1.013405,10.538229,-0.977823,-1.609050,1.557720,0.045476,-0.641628,-0.108360,-0.045896,-0.010133,0.105233,0.999995,0.000227,-0.003208,-0.000542,0.909282,0.113219,0.189170,-0.352990,4.581604,25.084084,-41.413386
14460,-4.926014,-1.813611,9.886581,-2.017906,-1.694387,1.066449,0.385101,-0.775873,-0.340571,-0.049674,-0.018242,0.098639,0.999989,0.001926,-0.003879,-0.001703,0.909216,0.113209,0.185147,-0.355290,4.689328,24.652941,-41.662419
14461,-5.180423,-0.802109,9.601524,-1.664659,-0.668772,0.978508,0.782466,-0.937998,-0.511881,-0.052275,-0.008263,0.095739,0.999978,0.003912,-0.004690,-0.002559,0.908734,0.114594,0.179772,-0.358822,4.982708,24.139960,-42.028043
14462,-5.228094,0.690617,9.219172,-0.868501,0.599930,0.755547,0.908843,-1.107446,-0.593565,-0.052770,0.006644,0.091931,0.999970,0.004544,-0.005537,-0.002968,0.908146,0.116129,0.173439,-0.362911,5.322088,23.534734,-42.455638
14463,-5.521036,1.754751,8.921868,-0.504740,1.683400,0.678777,0.847078,-1.273920,-0.600496,-0.055725,0.017337,0.088939,0.999966,0.004235,-0.006370,-0.003002,0.907660,0.117110,0.166454,-0.367058,5.628930,22.838756,-42.899039
14464,-5.607136,1.981071,9.596057,-0.366034,1.745122,1.334860,0.539325,-1.431475,-0.727409,-0.056685,0.019758,0.095610,0.999964,0.002697,-0.007157,-0.003637,0.907198,0.116251,0.159384,-0.371585,5.726560,22.060131,-43.430487
14465,-6.216856,-0.567252,9.343404,-2.749123,0.566548,1.067957,0.292783,-1.688478,-0.845919,-0.062978,-0.005544,0.092896,0.999954,0.001464,-0.008442,-0.004230,0.906782,0.113732,0.151659,-0.376578,5.663207,21.143312,-44.047565
14466,-6.455798,0.163508,9.344256,-2.520630,1.381226,1.176102,0.842730,-2.018996,-0.973089,-0.065489,0.001560,0.092791,0.999928,0.004214,-0.010095,-0.004865,0.905966,0.112936,0.141460,-0.382701,5.887288,20.045000,-44.759258
14467,-5.448676,1.234891,10.152934,-1.098208,1.360156,1.643044,0.635215,-2.317617,-1.141187,-0.055588,0.012343,0.100929,0.999912,0.003176,-0.011588,-0.005706,0.905005,0.110530,0.130373,-0.389554,5.971320,18.789459,-45.589460
14468,-3.781694,0.424473,8.515621,-0.991569,0.358519,-0.545474,0.536197,-2.475939,-1.224095,-0.038841,0.004253,0.084691,0.999901,0.002681,-0.012379,-0.006120,0.903879,0.107256,0.118791,-0.396722,5.995152,17.448427,-46.473553
14469,-3.585534,1.170611,8.791084,-0.429541,0.790775,-0.289252,0.874851,-2.418309,-1.166162,-0.036848,0.011536,0.087520,0.999900,0.004374,-0.012091,-0.005831,0.902465,0.105677,0.106736,-0.403729,6.248762,16.139689,-47.317108
14470,-4.884833,2.183420,9.734459,-0.584752,2.262220,1.046587,0.830461,-2.547321,-1.068155,-0.049967,0.021696,0.096803,0.999896,0.004152,-0.012736,-0.005341,0.901166,0.103632,0.094122,-0.410246,6.504837,14.753938,-48.110726
14471,-4.395378,2.282866,9.509678,-0.387937,2.217230,0.670265,0.575619,-2.786783,-0.969288,-0.045163,0.022773,0.094539,0.999887,0.002878,-0.013933,-0.004846,0.900111,0.100008,0.080873,-0.416243,6.648816,13.229003,-48.863108
14472,-2.470863,1.852296,8.482146,0.285953,0.974297,-0.843444,0.414346,-2.866199,-0.918383,-0.025836,0.018465,0.084495,0.999885,0.002072,-0.014330,-0.004592,0.899078,0.095457,0.067567,-0.421879,6.721863,11.656173,-49.588368
14473,-0.914307,1.324320,7.934898,0.693029,-0.235409,-1.749604,0.428450,-2.648957,-0.884273,-0.010135,0.013117,0.079247,0.999900,0.002142,-0.013244,-0.004421,0.897835,0.091452,0.055167,-0.427183,6.832538,10.206473,-50.278596
14474,-0.853356,1.485928,7.774538,0.710199,-0.025137,-1.883500,0.649791,-2.358930,-0.789241,-0.009392,0.014643,0.077686,0.999917,0.003249,-0.011794,-0.003946,0.896459,0.089038,0.043552,-0.431899,7.094719,8.916555,-50.894151
14475,-1.232436,2.316772,8.753325,0.978992,0.683225,-0.752936,0.743033,-2.132382,-0.677350,-0.013179,0.022886,0.087481,0.999931,0.003715,-0.010662,-0.003387,0.895089,0.087574,0.032685,-0.435979,7.438161,7.751308,-51.434885
14476,-3.251809,1.882204,9.864605,-0.782055,1.898175,0.541493,0.639028,-2.103685,-0.570257,-0.033500,0.018602,0.098357,0.999936,0.003195,-0.010518,-0.002851,0.893882,0.085682,0.022130,-0.439480,7.736599,6.596382,-51.915873
14477,-2.933638,1.864871,10.282061,-0.782101,1.719408,0.875231,0.613388,-2.395392,-0.557876,-0.030514,0.018418,0.102517,0.999920,0.003067,-0.011977,-0.002789,0.892609,0.083055,0.010311,-0.442996,8.032092,5.278312,-52.418995
14478,0.011115,1.381674,9.375267,0.497061,-0.589907,-0.367832,0.525066,-2.486200,-0.595818,-0.001014,0.013572,0.093781,0.999915,0.002625,-0.012431,-0.002979,0.891153,0.079788,-0.001694,-0.446629,8.282546,3.913591,-52.954842
14479,1.431166,1.700271,9.020781,1.452851,-1.357630,-0.737668,0.766528,-2.238544,-0.582692,0.013349,0.016617,0.090425,0.999926,0.003833,-0.011192,-0.002913,0.889482,0.078166,-0.013149,-0.450043,8.688108,2.691826,-53.470722
14480,0.082107,2.652638,9.726039,1.163993,0.291084,0.197100,0.897428,-2.050820,-0.475449,-0.000115,0.026089,0.097380,0.999935,0.004487,-0.010254,-0.002377,0.887899,0.077501,-0.024097,-0.452823,9.178406,1.569927,-53.916599
14481,-0.265825,3.199034,10.431667,1.128996,0.914555,1.004375,0.816980,-2.100300,-0.311747,-0.003705,0.031569,0.104411,0.999935,0.004085,-0.010501,-0.001559,0.886587,0.076367,-0.035150,-0.454859,9.636229,0.409381,-54.285174
14482,0.072605,3.084004,9.912689,1.115384,0.752854,0.481130,0.712009,-2.174821,-0.115611,-0.000335,0.030487,0.099236,0.999934,0.003560,-0.010874,-0.000578,0.885641,0.074526,-0.046359,-0.456000,10.038130,-0.810615,-54.557357
14483,1.563388,3.368176,9.639512,2.067092,-0.145118,0.307140,0.665453,-2.148437,-0.018097,0.014599,0.033359,0.096667,0.999937,0.003327,-0.010742,-0.000090,0.884819,0.072534,-0.057381,-0.456664,10.421050,-2.022774,-54.781889
14484,2.357034,2.585713,9.277887,1.788726,-1.091692,-0.121148,0.643791,-1.957277,0.119457,0.022645,0.025572,0.093086,0.999947,0.003219,-0.009786,0.000597,0.884278,0.070810,-0.067548,-0.456591,10.789249,-3.141391,-54.915225
14485,1.198076,2.742739,9.663649,1.005724,0.026104,0.253514,0.939187,-1.787102,0.300625,0.011075,0.026990,0.096866,0.999948,0.004696,-0.008935,0.001503,0.884003,0.070737,-0.077698,-0.455520,11.324928,-4.182015,-54.938293
14486,0.650958,3.520073,10.401191,0.969749,0.983806,1.100001,0.929584,-1.836792,0.386543,0.005486,0.034728,0.104228,0.999945,0.004648,-0.009184,0.001933,0.883820,0.070443,-0.088065,-0.454031,11.850137,-5.261471,-54.926820
14487,1.434057,3.061720,9.949752,0.962328,0.217326,0.649189,0.789853,-1.899895,0.427052,0.013329,0.030253,0.099747,0.999945,0.003949,-0.009499,0.002135,0.883646,0.069388,-0.098401,-0.452407,12.297165,-6.379871,-54.910900
14488,2.051294,2.689008,9.462510,0.953470,-0.369975,0.183705,0.944115,-1.840759,0.556281,0.019566,0.026498,0.094934,0.999943,0.004720,-0.009204,0.002781,0.883647,0.069053,-0.108857,-0.450054,12.821254,-7.482706,-54.822712
14489,2.336007,3.143559,9.360418,1.304238,-0.230351,0.247036,1.196776,-1.750556,0.780298,0.022417,0.030963,0.093989,0.999936,0.005984,-0.008753,0.003901,0.884000,0.069931,-0.119548,-0.446499,13.473251,-8.563918,-54.609194
14490,2.487009,3.710672,9.596509,1.554977,0.077642,0.657195,1.324683,-1.683260,1.015381,0.023873,0.036592,0.096412,0.999930,0.006623,-0.008416,0.005077,0.884762,0.071352,-0.130294,-0.441734,14.171697,-9.643725,-54.264647
14491,1.489892,2.554514,10.546952,-0.409147,0.261637,1.129997,1.478901,-1.607772,1.336973,0.013882,0.024859,0.105769,0.999918,0.007394,-0.008039,0.006685,0.886086,0.073423,-0.141140,-0.435363,14.922743,-10.730709,-53.742195
14492,-0.307223,2.672070,10.453634,-1.613027,1.832207,0.701351,1.951675,-1.948610,1.672679,-0.004310,0.025667,0.104752,0.999870,0.009758,-0.009743,0.008363,0.887545,0.076574,-0.154620,-0.427192,15.907543,-12.066165,-53.096724
14493,3.410653,4.386479,9.695227,1.769407,0.106904,1.219909,1.919477,-2.232341,1.849856,0.032617,0.043236,0.097739,0.999849,0.009597,-0.011161,0.009249,0.888919,0.078839,-0.169313,-0.418259,16.853099,-13.595239,-52.419639
14494,5.090453,3.658179,7.950961,2.615506,-1.497237,-0.147094,1.581118,-1.975573,1.941639,0.049760,0.036436,0.080293,0.999873,0.007905,-0.009877,0.009708,0.890595,0.080017,-0.182146,-0.408975,17.566340,-15.009989,-51.662876
14495,5.567173,3.262157,6.843781,2.865044,-1.981305,-1.075746,1.801096,-1.537261,2.078285,0.054803,0.032573,0.069155,0.999876,0.009005,-0.007686,0.010391,0.892630,0.082946,-0.193486,-0.398616,18.352639,-16.218200,-50.764634
14496,4.908034,3.975282,7.877647,2.342025,-0.897777,-0.032415,2.065727,-1.051290,2.244228,0.048220,0.039479,0.079440,0.999870,0.010328,-0.005256,0.011221,0.895135,0.087824,-0.203209,-0.386945,19.221780,-17.207487,-49.690567
14497,2.616707,4.272831,9.126420,0.366987,1.044454,0.539389,2.003669,-0.796774,2.445375,0.025285,0.042123,0.091790,0.999867,0.010018,-0.003984,0.012226,0.898073,0.092708,-0.211702,-0.374235,19.993279,-18.111005,-48.462192
14498,1.824762,4.734426,9.662997,-0.328024,1.980464,0.914954,1.790798,-0.941737,2.543884,0.017194,0.046699,0.097133,0.999868,0.008954,-0.004708,0.012719,0.900908,0.096218,-0.220443,-0.361264,20.614680,-19.127911,-47.211846
14499,3.284714,3.970996,9.052383,0.209404,0.509422,0.589080,1.248080,-1.006652,2.494716,0.031896,0.039545,0.090933,0.999890,0.006240,-0.005033,0.012473,0.903619,0.097215,-0.228413,-0.349068,20.920262,-20.177415,-46.005829
14500,3.749186,1.846835,8.528660,-0.625603,-1.273434,-0.421688,1.149735,-0.845596,2.344161,0.036914,0.018412,0.085549,0.999906,0.005748,-0.004228,0.011720,0.906120,0.098184,-0.235369,-0.337504,21.164929,-21.116747,-44.846697
14501,1.132106,1.198360,9.280201,-3.229353,-0.041568,-0.957932,1.849171,-0.802081,2.305641,0.010816,0.011251,0.092952,0.999883,0.009245,-0.004010,0.011528,0.908066,0.102437,-0.243234,-0.325208,21.799540,-22.031582,-43.701789
14502,1.732950,3.881230,9.642798,-1.780088,1.604211,0.448981,2.057804,-1.237894,2.291433,0.016292,0.038007,0.096925,0.999862,0.010289,-0.006189,0.011457,0.909126,0.106901,-0.253348,-0.312852,22.576056,-23.188837,-42.669226
14503,5.343682,4.433599,8.071665,1.540966,-0.090089,0.721846,1.232307,-1.240208,2.146945,0.052457,0.044403,0.081317,0.999904,0.006161,-0.006201,0.010734,0.910180,0.107786,-0.262044,-0.302137,22.898131,-24.323149,-41.725753
14504,5.185087,2.338303,6.317840,1.211764,-1.479699,-1.529658,0.966599,-0.889899,2.005550,0.051333,0.023593,0.063521,0.999928,0.004833,-0.004449,0.010028,0.911475,0.108141,-0.268625,-0.292163,23.047391,-25.245653,-40.773746
14505,3.004478,1.944430,7.414825,-1.181961,-0.507009,-1.680536,1.742990,-0.713318,2.051915,0.029583,0.019102,0.074422,0.999903,0.008715,-0.003566,0.010259,0.912495,0.112229,-0.275514,-0.280801,23.599340,-26.089960,-39.751463
14506,3.550291,4.444532,8.252206,-0.321831,1.191400,0.133693,1.862154,-0.858652,2.114150,0.034680,0.044043,0.083083,0.999892,0.009310,-0.004293,0.010570,0.913154,0.116529,-0.283211,-0.269003,24.204028,-27.035196,-38.730106
14507,4.336502,4.190937,7.494748,0.371241,0.636282,-0.221268,1.310247,-0.763312,2.136941,0.042630,0.041875,0.075386,0.999914,0.006551,-0.003816,0.010684,0.914116,0.118401,-0.289689,-0.257786,24.462267,-27.941791,-37.671636
14508,4.996997,3.443989,5.860156,1.366577,-0.159728,-1.489354,1.214823,-0.623039,2.119263,0.049421,0.034608,0.058966,0.999921,0.006074,-0.003115,0.010596,0.915169,0.120007,-0.295344,-0.246650,24.633876,-28.775502,-36.578944
14509,5.399367,3.169838,5.879799,1.439082,-0.527232,-1.361466,1.313965,-0.320136,2.097093,0.053566,0.031874,0.059093,0.999922,0.006570,-0.001601,0.010485,0.916432,0.122471,-0.299675,-0.235261,24.815788,-29.448302,-35.413488
14510,4.317711,3.342200,6.799722,0.087156,0.139110,-1.093661,1.535547,-0.076852,2.197187,0.042784,0.033370,0.068270,0.999910,0.007678,-0.000384,0.010986,0.917893,0.126049,-0.303164,-0.222881,25.045725,-30.023580,-34.114099
14511,3.339705,4.447750,7.490206,-0.784736,1.526335,-0.642509,1.640704,-0.029171,2.433537,0.032847,0.044263,0.075271,0.999892,0.008203,-0.000146,0.012167,0.919436,0.129796,-0.306639,-0.209195,25.245538,-30.634848,-32.655940
14512,5.137387,5.026908,6.426327,1.224438,1.374871,-0.348614,1.274404,0.063433,2.696414,0.050714,0.050545,0.064569,0.999889,0.006372,0.000317,0.013482,0.921437,0.131509,-0.309408,-0.194744,25.119612,-31.263825,-31.001596
14513,5.582312,3.791213,5.253096,1.854614,0.339439,-1.471577,1.067877,0.426017,2.887981,0.055383,0.038433,0.052617,0.999879,0.005339,0.002130,0.014439,0.924102,0.132312,-0.310360,-0.179458,24.742627,-31.743649,-29.116855
14514,4.548767,3.067072,5.421382,0.765058,0.197827,-2.140363,1.301704,0.763604,2.995940,0.045232,0.030997,0.054242,0.999859,0.006508,0.003818,0.014979,0.926995,0.134282,-0.309953,-0.163030,24.394986,-32.063935,-27.057688
14515,4.386886,3.552356,6.256229,0.204116,0.648543,-1.413773,1.405356,0.970268,3.056522,0.043627,0.035752,0.062601,0.999847,0.007026,0.004851,0.015282,0.929910,0.136782,-0.308620,-0.145983,24.045873,-32.279004,-24.897191
14516,3.983591,3.169021,6.808708,-0.534441,0.401353,-1.337823,1.198751,1.117115,3.034239,0.039733,0.031886,0.068056,0.999851,0.005993,0.005585,0.015170,0.932899,0.138407,-0.306347,-0.129206,23.553701,-32.399235,-22.702864
14517,4.083460,2.171738,6.587868,-0.464365,-0.473114,-1.790757,1.115726,1.194598,2.927201,0.040907,0.021949,0.065756,0.999859,0.005578,0.005973,0.014635,0.935722,0.139833,-0.303494,-0.112973,23.036485,-32.437364,-20.553042
14518,4.955118,1.816374,5.987891,0.584362,-0.893563,-1.902776,1.235570,1.352303,2.850137,0.049693,0.018502,0.059657,0.999857,0.006178,0.006761,0.014250,0.938393,0.141972,-0.299831,-0.096766,22.590031,-32.360325,-18.408340
14519,4.682865,1.967618,5.724111,0.594183,-0.568529,-2.204175,1.466589,1.577664,2.786363,0.047003,0.019912,0.057016,0.999845,0.007333,0.007888,0.013931,0.940924,0.145371,-0.295087,-0.080334,22.275367,-32.137438,-16.251275
14520,4.866200,2.183090,6.064474,0.627680,-0.439628,-1.773053,1.319882,1.761270,2.569265,0.048912,0.022059,0.060360,0.999857,0.006599,0.008806,0.012846,0.943467,0.148415,-0.289175,-0.064972,21.935611,-31.760356,-14.190199
14521,5.836664,0.747833,5.119276,2.015453,-1.708137,-2.474368,0.909332,2.027929,2.105094,0.058801,0.007865,0.050633,0.999883,0.004546,0.010139,0.010525,0.946301,0.150257,-0.281451,-0.052188,21.502262,-31.130616,-12.368422
14522,4.793935,-0.949774,5.264354,1.200551,-3.111827,-3.451116,1.098310,2.378159,1.520890,0.048632,-0.009416,0.052016,0.999885,0.005491,0.011890,0.007604,0.949116,0.153854,-0.271617,-0.041617,21.347032,-30.184478,-10.840738
14523,4.237218,0.125393,6.391411,0.315087,-2.311835,-2.507018,1.332406,2.512189,0.928950,0.043165,0.001030,0.063383,0.999888,0.006662,0.012560,0.004645,0.951593,0.159377,-0.260677,-0.033435,21.523808,-29.042536,-9.661510
14524,4.950513,0.634041,6.381317,1.123369,-1.963586,-2.033904,0.884777,2.618648,0.295705,0.050326,0.006134,0.063185,0.999903,0.004424,0.013093,0.001478,0.954264,0.163558,-0.248599,-0.028746,21.638619,-27.713811,-8.849022
14525,6.099602,-0.573422,4.924759,3.074218,-2.843022,-3.160694,0.590306,2.922008,-0.268112,0.061699,-0.005960,0.048332,0.999888,0.002951,0.014609,-0.001341,0.957272,0.167066,-0.234516,-0.026871,21.729514,-26.104743,-8.311217
14526,6.183501,-0.648105,3.979768,3.799028,-2.649396,-4.064969,0.894873,3.468253,-0.765928,0.062486,-0.006894,0.038688,0.999832,0.004474,0.017340,-0.003829,0.960334,0.172618,-0.217385,-0.026546,22.076790,-24.101877,-7.936306
14527,4.293867,1.031030,5.045208,1.837523,-1.229214,-3.483406,1.289002,4.050418,-1.183952,0.044008,0.009730,0.049632,0.999757,0.006444,0.020250,-0.005919,0.963238,0.180547,-0.197056,-0.027298,22.701483,-21.701189,-7.653611
14528,1.864964,2.778034,6.708829,-0.784000,0.034885,-2.357649,1.308850,4.355205,-1.450099,0.020306,0.027199,0.066837,0.999715,0.006544,0.021774,-0.007250,0.965884,0.188752,-0.174928,-0.029013,23.364072,-19.084844,-7.422375
14529,0.189760,3.755811,7.694835,-2.362464,0.660487,-1.607733,1.100749,4.405690,-1.542894,0.003882,0.037109,0.077082,0.999712,0.005503,0.022026,-0.007714,0.968202,0.195961,-0.152329,-0.031304,23.924911,-16.421487,-7.205875
14530,-0.449477,4.018918,7.817170,-2.643788,0.798450,-1.456806,0.972624,4.349907,-1.477492,-0.002496,0.039832,0.078435,0.999724,0.004863,0.021748,-0.007387,0.970075,0.202353,-0.129966,-0.033404,24.407085,-13.805931,-6.944072
