// General information: 
//  MT Manager version: 2022.0.0 
//  XDA version: 2022.0.0 build 7085 rev 119802 built on 2022-11-08
// Device information: 
//  DeviceId: 00B472EC
//  ProductCode: MTW2-3A7G6
//  Firmware Version: 4.4.0
//  Hardware Version: 2.0.0
// Device settings: 
//  Filter Profile: human(46.1)
//  Option Flags: Orientation Smoother Disabled, Position/Velocity Smoother Disabled, Continuous Zero Rotation Update Disabled, AHS Disabled, ICC Disabled
// Coordinate system: ENU
PacketCounter,Acc_X,Acc_Y,Acc_Z,FreeAcc_E,FreeAcc_N,FreeAcc_U,Gyr_X,Gyr_Y,Gyr_Z,VelInc_X,VelInc_Y,VelInc_Z,OriInc_q0,OriInc_q1,OriInc_q2,OriInc_q3,Quat_q0,Quat_q1,Quat_q2,Quat_q3,Roll,Pitch,Yaw
29245,-9.640266,0.742806,0.058420,0.046537,-0.055262,-0.143940,0.019535,0.020512,0.099987,-0.096406,0.007380,0.000595,1.000000,0.000098,0.000103,0.000500,0.399066,0.609935,0.355709,-0.584976,87.648408,85.945457,-27.793861
29246,-9.668767,0.692073,0.018040,0.006288,0.007031,-0.119172,0.006959,0.021383,0.099344,-0.096691,0.006873,0.000191,1.000000,0.000035,0.000107,0.000497,0.399326,0.610189,0.355380,-0.584733,87.806457,85.883962,-27.640962
29247,-9.697690,0.672394,0.022554,-0.025678,0.015527,-0.091736,-0.012032,0.024905,0.102102,-0.096980,0.006674,0.000237,1.000000,-0.000060,0.000125,0.000511,0.399662,0.610419,0.355112,-0.584427,87.980183,85.819782,-27.459260
29248,-9.724582,0.643174,-0.006303,-0.051818,0.057912,-0.067168,-0.024370,0.029121,0.100752,-0.097249,0.006383,-0.000050,1.000000,-0.000122,0.000146,0.000504,0.400008,0.610635,0.354887,-0.584101,88.171171,85.757557,-27.255258
29249,-9.753631,0.623290,-0.002277,-0.083792,0.066419,-0.039746,-0.030223,0.029588,0.094138,-0.097539,0.006187,-0.000009,1.000000,-0.000151,0.000148,0.000471,0.400368,0.610827,0.354705,-0.583764,88.357671,85.697935,-27.050265
29250,-9.753047,0.632355,-0.005157,-0.084285,0.067353,-0.039757,-0.034580,0.033634,0.091717,-0.097533,0.006279,-0.000036,1.000000,-0.000173,0.000168,0.000459,0.400711,0.611020,0.354545,-0.583424,88.563925,85.640860,-26.825095
29251,-9.730528,0.647205,0.027178,-0.093187,0.032781,-0.061122,-0.037113,0.038320,0.086426,-0.097308,0.006430,0.000289,1.000000,-0.000186,0.000192,0.000432,0.401053,0.611209,0.354424,-0.583063,88.799327,85.585662,-26.567067
29252,-9.728183,0.676337,0.035608,-0.079569,0.013789,-0.061292,-0.045846,0.039774,0.076691,-0.097284,0.006726,0.000374,1.000000,-0.000229,0.000199,0.000383,0.401375,0.611371,0.354356,-0.582714,89.031016,85.537134,-26.309875
29253,-9.749888,0.708152,0.041620,-0.063571,-0.003518,-0.037235,-0.045527,0.036843,0.069626,-0.097501,0.007048,0.000433,1.000000,-0.000228,0.000184,0.000348,0.401697,0.611509,0.354308,-0.582376,89.237690,85.491394,-26.075793
29254,-9.707173,0.674840,0.052225,-0.103072,0.000061,-0.082491,-0.051069,0.044720,0.064946,-0.097074,0.006717,0.000542,1.000000,-0.000255,0.000224,0.000325,0.401992,0.611653,0.354300,-0.582026,89.491146,85.449476,-25.793726
29255,-9.680383,0.636993,-0.027393,-0.109139,0.087217,-0.112336,-0.049185,0.044258,0.060215,-0.096806,0.006341,-0.000254,1.000000,-0.000246,0.000221,0.000301,0.402284,0.611788,0.354306,-0.581678,89.739240,85.409006,-25.515962
29256,-9.685836,0.609881,-0.022152,-0.143495,0.094049,-0.109161,-0.042777,0.041596,0.056820,-0.096860,0.006071,-0.000203,1.000000,-0.000214,0.000208,0.000284,0.402535,0.611925,0.354293,-0.581369,89.965695,85.371559,-25.265761
29257,-9.665209,0.569291,-0.047413,-0.174962,0.133241,-0.133109,-0.028264,0.041686,0.053145,-0.096654,0.005667,-0.000455,1.000000,-0.000141,0.000208,0.000266,0.402747,0.612083,0.354254,-0.581079,90.199092,85.334963,-25.014741
29258,-9.664628,0.543601,-0.096438,-0.183906,0.188025,-0.135877,-0.018589,0.041743,0.050697,-0.096648,0.005411,-0.000945,1.000000,-0.000093,0.000209,0.000253,0.402906,0.612258,0.354189,-0.580825,90.433166,85.300883,-24.770780
29259,-9.672359,0.525275,-0.058032,-0.224104,0.160974,-0.129833,-0.003013,0.037622,0.050758,-0.096725,0.005228,-0.000562,1.000000,-0.000015,0.000188,0.000254,0.403041,0.612450,0.354077,-0.580597,90.645686,85.265517,-24.555199
29260,-9.688287,0.587401,-0.061320,-0.174045,0.137703,-0.108954,0.008566,0.037210,0.043581,-0.096884,0.005853,-0.000595,1.000000,0.000043,0.000186,0.000218,0.403103,0.612654,0.353945,-0.580419,90.858181,85.235433,-24.348541
29261,-9.718232,0.592972,-0.013445,-0.197579,0.092379,-0.078816,0.010526,0.038223,0.039239,-0.097184,0.005911,-0.000116,1.000000,0.000053,0.000191,0.000196,0.403162,0.612854,0.353830,-0.580236,91.077930,85.206529,-24.133472
29262,-9.692115,0.614107,-0.002331,-0.186507,0.071728,-0.103193,0.013680,0.032829,0.034899,-0.096922,0.006124,-0.000007,1.000000,0.000068,0.000164,0.000174,0.403191,0.613041,0.353701,-0.580098,91.259699,85.181369,-23.960619
29263,-9.719995,0.609103,0.012907,-0.204394,0.060348,-0.075950,0.004793,0.032463,0.026231,-0.097201,0.006078,0.000145,1.000000,0.000024,0.000162,0.000131,0.403240,0.613190,0.353631,-0.579950,91.434669,85.159876,-23.787178
29264,-9.726111,0.609524,0.063968,-0.230282,0.013322,-0.070016,0.004862,0.031362,0.024366,-0.097262,0.006083,0.000655,1.000000,0.000024,0.000157,0.000122,0.403267,0.613335,0.353557,-0.579822,91.599881,85.140715,-23.625924
29265,-9.717818,0.634815,0.018870,-0.191445,0.042330,-0.076112,0.000363,0.028411,0.018513,-0.097179,0.006339,0.000203,1.000000,0.000002,0.000142,0.000093,0.403314,0.613450,0.353514,-0.579693,91.743771,85.123629,-23.481118
29266,-9.745817,0.628352,0.034612,-0.209128,0.030897,-0.048862,0.003910,0.026723,0.012003,-0.097458,0.006278,0.000359,1.000000,0.000020,0.000134,0.000060,0.403317,0.613558,0.353472,-0.579603,91.877696,85.111575,-23.350688
29267,-9.767867,0.654028,0.041409,-0.193156,0.013619,-0.024777,0.005888,0.025153,0.005407,-0.097679,0.006538,0.000427,1.000000,0.000029,0.000126,0.000027,0.403315,0.613652,0.353447,-0.579521,92.004233,85.102000,-23.226469
29268,-9.747977,0.639048,0.062828,-0.215939,-0.001125,-0.045971,0.012382,0.021372,0.000156,-0.097480,0.006390,0.000639,1.000000,0.000062,0.000107,0.000001,0.403266,0.613741,0.353405,-0.579486,92.108838,85.096812,-23.130452
29269,-9.742000,0.671617,0.051532,-0.182756,-0.006053,-0.049141,0.011212,0.022619,-0.004357,-0.097420,0.006718,0.000527,1.000000,0.000056,0.000113,-0.000022,0.403224,0.613820,0.353390,-0.579441,92.223240,85.092843,-23.021474
29270,-9.776179,0.630110,0.076721,-0.234307,-0.011552,-0.018732,0.010247,0.023140,-0.012212,-0.097761,0.006307,0.000779,1.000000,0.000051,0.000116,-0.000061,0.403142,0.613888,0.353395,-0.579422,92.341178,85.094694,-22.910849
29271,-9.766186,0.672735,0.044548,-0.181362,-0.002472,-0.024938,0.010681,0.016525,-0.023402,-0.097661,0.006739,0.000454,1.000000,0.000053,0.000083,-0.000117,0.403057,0.613915,0.353428,-0.579433,92.419779,85.101738,-22.837499
29272,-9.742363,0.666735,0.045837,-0.184365,-0.003210,-0.049170,0.010437,0.010611,-0.024960,-0.097423,0.006679,0.000464,1.000000,0.000052,0.000053,-0.000125,0.402959,0.613925,0.353445,-0.579480,92.457591,85.111183,-22.807772
29273,-9.710714,0.714291,0.050407,-0.139617,-0.029742,-0.076654,0.010849,0.009158,-0.031641,-0.097106,0.007158,0.000509,1.000000,0.000054,0.000046,-0.000158,0.402862,0.613916,0.353487,-0.579530,92.489722,85.123116,-22.781159
29274,-9.686963,0.707434,0.052164,-0.142617,-0.030497,-0.100881,0.011054,0.008432,-0.034981,-0.096868,0.007091,0.000526,1.000000,0.000055,0.000042,-0.000175,0.402739,0.613903,0.353531,-0.579604,92.516789,85.138354,-22.762110
29275,-9.683112,0.715470,0.030447,-0.123532,-0.015509,-0.103930,0.003096,0.003481,-0.038449,-0.096830,0.007173,0.000306,1.000000,0.000015,0.000017,-0.000192,0.402656,0.613850,0.353605,-0.579672,92.508477,85.154326,-22.771631
29276,-9.675584,0.765854,0.032960,-0.076012,-0.040441,-0.107167,-0.000253,0.004443,-0.035283,-0.096754,0.007676,0.000332,1.000000,-0.000001,0.000022,-0.000176,0.402573,0.613801,0.353675,-0.579739,92.502069,85.169857,-22.779781
29277,-9.687760,0.696513,0.051233,-0.144432,-0.027609,-0.100900,-0.005041,-0.005907,-0.043085,-0.096876,0.006986,0.000509,1.000000,-0.000025,-0.000030,-0.000215,0.402519,0.613697,0.353768,-0.579830,92.426498,85.188714,-22.852120
29278,-9.683954,0.703980,0.030462,-0.125116,-0.012680,-0.103946,-0.014226,0.000708,-0.042051,-0.096838,0.007060,0.000304,1.000000,-0.000071,0.000004,-0.000210,0.402464,0.613598,0.353889,-0.579899,92.387781,85.208214,-22.884978
29279,-9.700063,0.726623,-0.014085,-0.083729,0.017995,-0.085814,-0.009755,-0.005555,-0.043346,-0.096999,0.007287,-0.000144,1.000000,-0.000049,-0.000028,-0.000217,0.402423,0.613485,0.353997,-0.579981,92.310955,85.227201,-22.955863
29280,-9.682257,0.686272,-0.001578,-0.120581,0.023159,-0.106917,-0.005504,-0.008509,-0.039046,-0.096821,0.006882,-0.000020,1.000000,-0.000028,-0.000043,-0.000195,0.402366,0.613382,0.354066,-0.580087,92.212241,85.245183,-23.053925
29281,-9.724650,0.722371,-0.015260,-0.082330,0.021597,-0.061604,0.002535,-0.007232,-0.039696,-0.097245,0.007243,-0.000156,1.000000,0.000013,-0.000036,-0.000198,0.402301,0.613295,0.354124,-0.580189,92.128680,85.262099,-23.138632
29282,-9.700926,0.715053,-0.011637,-0.085311,0.020830,-0.085834,0.005234,-0.012651,-0.037738,-0.097008,0.007169,-0.000122,1.000000,0.000026,-0.000063,-0.000189,0.402223,0.613204,0.354149,-0.580325,92.005740,85.279386,-23.267133
29283,-9.695342,0.744165,-0.019697,-0.052122,0.015886,-0.088961,0.011761,-0.009777,-0.038087,-0.096952,0.007460,-0.000201,1.000000,0.000059,-0.000049,-0.000190,0.402139,0.613131,0.354170,-0.580447,91.908030,85.295405,-23.371336
29284,-9.693838,0.761781,-0.006727,-0.038472,-0.003125,-0.089038,0.011437,-0.012008,-0.035524,-0.096937,0.007635,-0.000073,1.000000,0.000057,-0.000060,-0.000178,0.402048,0.613057,0.354174,-0.580586,91.791258,85.311381,-23.496847
29285,-9.698141,0.747037,0.015447,-0.058922,-0.016138,-0.085997,0.010966,-0.012034,-0.029233,-0.096980,0.007485,0.000149,1.000000,0.000055,-0.000060,-0.000146,0.401996,0.612991,0.354165,-0.580696,91.674020,85.322336,-23.620184
29286,-9.698366,0.744090,0.016351,-0.059367,-0.015210,-0.085998,0.008202,-0.008095,-0.031579,-0.096982,0.007456,0.000160,1.000000,0.000041,-0.000040,-0.000158,0.401917,0.612931,0.354171,-0.580811,91.579862,85.335967,-23.721752
29287,-9.666481,0.760941,-0.022153,-0.023029,0.012063,-0.116312,0.002794,-0.013694,-0.027103,-0.096664,0.007623,-0.000228,1.000000,0.000014,-0.000068,-0.000136,0.401899,0.612848,0.354176,-0.580908,91.444723,85.345689,-23.858347
29288,-9.668443,0.737196,-0.033059,-0.037581,0.032906,-0.116252,0.007675,-0.009598,-0.025676,-0.096683,0.007384,-0.000335,1.000000,0.000038,-0.000048,-0.000128,0.401847,0.612789,0.354168,-0.581011,91.338578,85.355900,-23.970588
29289,-9.670904,0.744430,0.000705,-0.043931,-0.000038,-0.113273,0.007714,-0.005538,-0.023034,-0.096708,0.007455,0.000005,1.000000,0.000039,-0.000028,-0.000115,0.401811,0.612747,0.354163,-0.581083,91.262164,85.363145,-24.051090
29290,-9.664751,0.744399,-0.052807,-0.018926,0.048815,-0.119308,0.011917,-0.009964,-0.019125,-0.096647,0.007453,-0.000532,1.000000,0.000060,-0.000050,-0.000096,0.401757,0.612712,0.354113,-0.581188,91.152480,85.369601,-24.170884
29291,-9.667174,0.752171,-0.018987,-0.025277,0.015872,-0.116323,0.008890,-0.006780,-0.018521,-0.096671,0.007531,-0.000193,1.000000,0.000044,-0.000034,-0.000093,0.401733,0.612676,0.354088,-0.581257,91.066812,85.374253,-24.261345
29292,-9.635232,0.770306,-0.058188,0.011300,0.043052,-0.146640,0.007285,-0.001504,-0.014101,-0.096352,0.007710,-0.000582,1.000000,0.000036,-0.000008,-0.000071,0.401702,0.612661,0.354063,-0.581310,91.015087,85.377696,-24.318566
29293,-9.717179,0.735029,-0.035706,-0.035478,0.041136,-0.067835,0.008611,-0.004950,-0.013316,-0.097171,0.007357,-0.000359,1.000000,0.000043,-0.000025,-0.000067,0.401691,0.612639,0.354027,-0.581363,90.941334,85.379333,-24.396912
29294,-9.667492,0.748085,-0.018175,-0.026857,0.018693,-0.116333,0.000799,-0.000326,-0.011107,-0.096675,0.007486,-0.000182,1.000000,0.000004,-0.000002,-0.000056,0.401680,0.612623,0.354005,-0.581400,90.892517,85.381009,-24.448891
29295,-9.683549,0.773775,-0.063076,0.014525,0.049384,-0.098205,0.002295,0.000664,-0.009156,-0.096835,0.007742,-0.000630,1.000000,0.000011,0.000003,-0.000046,0.401690,0.612613,0.353986,-0.581416,90.854427,85.380204,-24.487830
29296,-9.663075,0.727005,-0.084455,-0.016624,0.088452,-0.122352,-0.000845,0.000890,-0.009329,-0.096630,0.007275,-0.000844,1.000000,-0.000004,0.000004,-0.000047,0.401686,0.612600,0.353966,-0.581444,90.812974,85.380861,-24.531559
29297,-9.709437,0.754361,-0.077771,0.001812,0.072959,-0.073953,-0.005872,-0.001003,-0.007025,-0.097094,0.007547,-0.000778,1.000000,-0.000029,-0.000005,-0.000035,0.401731,0.612572,0.353961,-0.581446,90.758188,85.378844,-24.582553
29298,-9.663185,0.725555,-0.084357,-0.017761,0.090329,-0.122372,-0.008957,0.000701,-0.006809,-0.096632,0.007259,-0.000844,1.000000,-0.000045,0.000004,-0.000034,0.401772,0.612541,0.353970,-0.581445,90.713048,85.378061,-24.622827
29299,-9.691272,0.716718,-0.066011,-0.035707,0.079055,-0.095112,-0.008770,0.002555,-0.007896,-0.096912,0.007171,-0.000659,1.000000,-0.000044,0.000013,-0.000039,0.401816,0.612516,0.353983,-0.581433,90.681962,85.376513,-24.648377
29300,-9.691333,0.715895,-0.065980,-0.036160,0.079991,-0.095122,-0.012079,-0.001656,-0.009235,-0.096913,0.007163,-0.000661,1.000000,-0.000060,-0.000008,-0.000046,0.401849,0.612475,0.353988,-0.581450,90.615984,85.377064,-24.710720
29301,-9.694854,0.672622,-0.090020,-0.065029,0.120844,-0.095081,-0.010155,0.004523,-0.009069,-0.096948,0.006731,-0.000898,1.000000,-0.000051,0.000023,-0.000045,0.401891,0.612451,0.354012,-0.581432,90.598157,85.376173,-24.722174
29302,-9.698917,0.660269,-0.069109,-0.085258,0.107768,-0.092048,-0.001106,0.000139,-0.006377,-0.096989,0.006606,-0.000691,1.000000,-0.000006,0.000001,-0.000032,0.401904,0.612438,0.353990,-0.581450,90.552574,85.375143,-24.768678
29303,-9.692658,0.661657,-0.123466,-0.060478,0.156661,-0.098139,0.006988,0.002912,-0.006644,-0.096926,0.006620,-0.001233,1.000000,0.000035,0.000015,-0.000033,0.401903,0.612448,0.353954,-0.581463,90.533013,85.372872,-24.791725
29304,-9.647511,0.694500,-0.040368,-0.063193,0.066323,-0.140560,0.014895,0.003830,-0.005823,-0.096475,0.006948,-0.000401,1.000000,0.000074,0.000019,-0.000029,0.401855,0.612483,0.353882,-0.581503,90.521483,85.371478,-24.814766
29305,-9.669281,0.687749,-0.076685,-0.055686,0.102971,-0.119382,0.018221,0.005460,-0.006737,-0.096693,0.006881,-0.000764,1.000000,0.000091,0.000027,-0.000034,0.401815,0.612522,0.353818,-0.581527,90.526415,85.369247,-24.819698
29306,-9.675643,0.684928,-0.023115,-0.081598,0.055981,-0.113310,0.019995,0.004622,-0.009990,-0.096756,0.006854,-0.000228,1.000000,0.000100,0.000023,-0.000050,0.401741,0.612560,0.353750,-0.581580,90.524525,85.370264,-24.835215
29307,-9.692287,0.741395,-0.023520,-0.031814,0.032829,-0.092165,0.012143,0.005182,-0.010423,-0.096922,0.007419,-0.000232,1.000000,0.000061,0.000026,-0.000052,0.401709,0.612580,0.353716,-0.581602,90.524239,85.370147,-24.841889
29308,-9.675776,0.683003,-0.024337,-0.082735,0.057856,-0.113330,0.007358,0.006621,-0.008819,-0.096757,0.006834,-0.000240,1.000000,0.000037,0.000033,-0.000044,0.401682,0.612596,0.353694,-0.581616,90.530920,85.370479,-24.839846
29309,-9.679853,0.670486,-0.003939,-0.103190,0.044856,-0.110293,0.009058,0.006885,-0.010207,-0.096798,0.006710,-0.000036,1.000000,0.000045,0.000034,-0.000051,0.401657,0.612615,0.353671,-0.581627,90.540901,85.370230,-24.834446
29310,-9.677615,0.659836,-0.038215,-0.097947,0.079701,-0.113350,0.003370,0.016957,-0.011177,-0.096776,0.006604,-0.000374,1.000000,0.000017,0.000085,-0.000056,0.401606,0.612656,0.353676,-0.581617,90.616178,85.371851,-24.763663
29311,-9.651962,0.676484,-0.025009,-0.087019,0.058987,-0.137586,0.011054,0.011962,-0.011907,-0.096519,0.006771,-0.000244,1.000000,0.000055,0.000060,-0.000060,0.401561,0.612691,0.353663,-0.581620,90.663362,85.372544,-24.722086
29312,-9.698381,0.703450,-0.019710,-0.068402,0.043470,-0.089146,0.015819,0.013107,-0.011258,-0.096983,0.007040,-0.000190,1.000000,0.000079,0.000066,-0.000056,0.401488,0.612739,0.353635,-0.581636,90.720613,85.374276,-24.674560
29313,-9.672743,0.720118,-0.006367,-0.057472,0.022753,-0.113371,0.017333,0.011517,-0.011558,-0.096727,0.007207,-0.000057,1.000000,0.000087,0.000058,-0.000058,0.401425,0.612786,0.353602,-0.581650,90.768245,85.374767,-24.636144
29314,-9.701498,0.741804,0.055726,-0.066811,-0.042396,-0.083033,0.017312,0.014099,-0.009307,-0.097015,0.007423,0.000565,1.000000,0.000087,0.000070,-0.000047,0.401343,0.612848,0.353557,-0.581669,90.831578,85.375359,-24.584990
29315,-9.727293,0.722981,0.039703,-0.079094,-0.019700,-0.058823,0.006342,0.012295,-0.012169,-0.097272,0.007236,0.000403,1.000000,0.000032,0.000061,-0.000061,0.401312,0.612874,0.353559,-0.581662,90.878510,85.376188,-24.540960
29316,-9.727376,0.721934,0.038499,-0.079553,-0.018756,-0.058825,0.002941,0.011767,-0.009392,-0.097273,0.007224,0.000391,1.000000,0.000015,0.000059,-0.000047,0.401272,0.612904,0.353544,-0.581667,90.916144,85.376732,-24.508524
29317,-9.702765,0.686698,-0.004924,-0.091107,0.034312,-0.086139,-0.006534,0.010954,-0.010305,-0.097027,0.006872,-0.000044,1.000000,-0.000033,0.000055,-0.000052,0.401288,0.612903,0.353575,-0.581638,90.945991,85.376502,-24.474234
29318,-9.700486,0.676059,-0.038869,-0.085875,0.069142,-0.089219,0.005917,0.007108,-0.010380,-0.097005,0.006766,-0.000385,1.000000,0.000030,0.000036,-0.000052,0.401254,0.612919,0.353556,-0.581656,90.954342,85.377670,-24.470911
29319,-9.701219,0.706089,0.005395,-0.078156,0.016275,-0.086133,0.013560,0.007282,-0.006602,-0.097012,0.007064,0.000058,1.000000,0.000068,0.000036,-0.000033,0.401226,0.612954,0.353510,-0.581667,90.969244,85.375353,-24.463166
29320,-9.679597,0.711695,0.040533,-0.086789,-0.018520,-0.107283,0.008611,0.004281,-0.006165,-0.096796,0.007120,0.000408,1.000000,0.000043,0.000021,-0.000031,0.401204,0.612972,0.353469,-0.581687,90.959300,85.374178,-24.479034
29321,-9.701308,0.704870,0.004209,-0.079291,0.018164,-0.086145,0.000815,0.006314,-0.006216,-0.097013,0.007052,0.000045,1.000000,0.000004,0.000032,-0.000031,0.401217,0.612980,0.353457,-0.581678,90.959995,85.371651,-24.478217
29322,-9.683029,0.667997,0.015675,-0.116048,0.023253,-0.107353,0.000653,0.001876,-0.007379,-0.096830,0.006684,0.000158,1.000000,0.000003,0.000009,-0.000037,0.401215,0.612974,0.353433,-0.581699,90.926619,85.371445,-24.514078
29323,-9.709473,0.680168,0.045882,-0.119946,-0.007886,-0.080054,-0.002280,0.001369,-0.010893,-0.097094,0.006807,0.000459,1.000000,-0.000011,0.000007,-0.000054,0.401232,0.612953,0.353434,-0.581709,90.891101,85.371643,-24.547812
29324,-9.719828,0.738518,-0.008237,-0.044486,0.016805,-0.064956,-0.007175,-0.000154,-0.010068,-0.097198,0.007390,-0.000083,1.000000,-0.000036,-0.000001,-0.000050,0.401251,0.612923,0.353436,-0.581727,90.840050,85.372729,-24.596871
29325,-9.695874,0.734199,-0.005441,-0.047631,0.016000,-0.089183,-0.008876,-0.000419,-0.008681,-0.096958,0.007346,-0.000055,1.000000,-0.000044,-0.000002,-0.000043,0.401299,0.612887,0.353446,-0.581726,90.787865,85.371670,-24.643536
29326,-9.694313,0.754131,0.006515,-0.034042,-0.003075,-0.089144,-0.014374,0.002276,-0.017886,-0.096942,0.007550,0.000066,1.000000,-0.000072,0.000011,-0.000089,0.401332,0.612825,0.353520,-0.581723,90.755155,85.377107,-24.666079
29327,-9.668045,0.739532,-0.023996,-0.031485,0.030025,-0.116467,-0.013011,0.002894,-0.014459,-0.096680,0.007402,-0.000239,1.000000,-0.000065,0.000014,-0.000072,0.401369,0.612781,0.353567,-0.581716,90.724570,85.379330,-24.688696
29328,-9.673826,0.705284,-0.015129,-0.065743,0.036963,-0.113467,-0.009688,0.004528,-0.015371,-0.096738,0.007060,-0.000149,1.000000,-0.000048,0.000023,-0.000077,0.401352,0.612758,0.353580,-0.581743,90.700109,85.383643,-24.713622
29329,-9.695579,0.697670,-0.051337,-0.058250,0.073661,-0.092358,-0.006625,0.005412,-0.013331,-0.096955,0.006983,-0.000511,1.000000,-0.000033,0.000027,-0.000067,0.401369,0.612736,0.353609,-0.581737,90.690883,85.385202,-24.718483
29330,-9.698032,0.706167,-0.018776,-0.064404,0.040689,-0.089260,-0.005262,0.006029,-0.009904,-0.096980,0.007066,-0.000185,1.000000,-0.000026,0.000030,-0.000050,0.401364,0.612731,0.353610,-0.581745,90.683233,85.386092,-24.726507
29331,-9.670052,0.713478,-0.037625,-0.047751,0.053836,-0.116544,-0.000735,0.003844,-0.008553,-0.096700,0.007139,-0.000374,1.000000,-0.000004,0.000019,-0.000043,0.401380,0.612725,0.353604,-0.581745,90.665837,85.384925,-24.742950
29332,-9.714152,0.730904,-0.064397,-0.023495,0.072379,-0.071162,-0.005422,0.001592,-0.011068,-0.097141,0.007314,-0.000643,1.000000,-0.000027,0.000008,-0.000055,0.401375,0.612708,0.353593,-0.581773,90.625542,85.386434,-24.784901
29333,-9.670187,0.711624,-0.038016,-0.048879,0.055776,-0.116561,-0.005630,0.002319,-0.007729,-0.096702,0.007120,-0.000379,1.000000,-0.000028,0.000012,-0.000039,0.401410,0.612689,0.353595,-0.581767,90.594448,85.384804,-24.812276
29334,-9.695908,0.692944,-0.053068,-0.061007,0.078424,-0.092412,-0.005263,0.006029,-0.009904,-0.096959,0.006934,-0.000528,1.000000,-0.000026,0.000030,-0.000050,0.401424,0.612675,0.353616,-0.581759,90.591117,85.385536,-24.812223
29335,-9.681613,0.644252,-0.020579,-0.117803,0.069604,-0.110606,-0.000736,0.003845,-0.008553,-0.096816,0.006447,-0.000204,1.000000,-0.000004,0.000019,-0.000043,0.401440,0.612668,0.353611,-0.581759,90.573732,85.384368,-24.828659
29336,-9.703305,0.637200,-0.056738,-0.110036,0.106260,-0.089521,0.002405,0.003626,-0.008377,-0.097033,0.006376,-0.000566,1.000000,0.000012,0.000018,-0.000042,0.401419,0.612674,0.353580,-0.581786,90.552506,85.384704,-24.854825
29337,-9.677702,0.654226,-0.042415,-0.099081,0.085481,-0.113688,0.003975,0.003517,-0.008288,-0.096777,0.006546,-0.000422,1.000000,0.000020,0.000018,-0.000041,0.401421,0.612676,0.353559,-0.581795,90.535477,85.383386,-24.873611
29338,-9.681775,0.641777,-0.021768,-0.119354,0.072313,-0.110644,0.007298,0.005153,-0.009200,-0.096817,0.006422,-0.000215,1.000000,0.000036,0.000026,-0.000046,0.401423,0.612671,0.353570,-0.581792,90.537812,85.384087,-24.870150
29339,-9.677822,0.652364,-0.043526,-0.100236,0.087261,-0.113715,0.009181,0.007275,-0.011674,-0.096778,0.006529,-0.000431,1.000000,0.000046,0.000036,-0.000058,0.401393,0.612689,0.353551,-0.581805,90.550691,85.384690,-24.861920
29340,-9.676265,0.672611,-0.032285,-0.086632,0.068191,-0.113647,0.016771,0.005977,-0.008282,-0.096762,0.006730,-0.000319,1.000000,0.000084,0.000030,-0.000041,0.401343,0.612722,0.353504,-0.581834,90.560038,85.384664,-24.861940
29341,-9.680351,0.660009,-0.011925,-0.107095,0.055210,-0.110604,0.021872,0.006777,-0.012444,-0.096803,0.006606,-0.000115,1.000000,0.000109,0.000034,-0.000062,0.401272,0.612763,0.353450,-0.581873,90.576718,85.385711,-24.857192
29342,-9.651568,0.719071,0.025647,-0.067706,-0.005492,-0.134574,0.014308,0.012136,-0.013198,-0.096515,0.007197,0.000263,1.000000,0.000072,0.000061,-0.000066,0.401179,0.612813,0.353407,-0.581910,90.621501,85.388616,-24.825575
29343,-9.673279,0.711559,-0.011333,-0.060220,0.031231,-0.113503,0.007844,0.010717,-0.012464,-0.096732,0.007122,-0.000108,1.000000,0.000039,0.000054,-0.000062,0.401144,0.612836,0.353402,-0.581912,90.658138,85.389650,-24.792744
29344,-9.691765,0.746566,-0.024221,-0.024379,0.027935,-0.092251,0.004521,0.009080,-0.011553,-0.096917,0.007471,-0.000238,1.000000,0.000023,0.000045,-0.000058,0.401126,0.612842,0.353418,-0.581909,90.684349,85.391546,-24.766813
29345,-9.695865,0.733930,-0.004006,-0.044845,0.014959,-0.089199,0.004391,0.008704,-0.010077,-0.096958,0.007344,-0.000036,1.000000,0.000022,0.000044,-0.000050,0.401113,0.612857,0.353412,-0.581906,90.704538,85.391225,-24.748496
29346,-9.693517,0.723289,-0.037875,-0.039538,0.049833,-0.092357,0.002768,0.007334,-0.010553,-0.096935,0.007238,-0.000375,1.000000,0.000014,0.000037,-0.000053,0.401066,0.612878,0.353379,-0.581936,90.707426,85.392653,-24.753224
29347,-9.740037,0.750374,-0.032000,-0.021250,0.034566,-0.043821,-0.002385,0.005054,-0.006780,-0.097400,0.007507,-0.000318,1.000000,-0.000012,0.000025,-0.000034,0.401090,0.612874,0.353375,-0.581926,90.697479,85.390469,-24.761249
29348,-9.721682,0.713448,-0.020455,-0.058015,0.039653,-0.065093,-0.000788,0.002362,-0.008942,-0.097217,0.007139,-0.000203,1.000000,-0.000004,0.000012,-0.000045,0.401078,0.612872,0.353349,-0.581954,90.665790,85.390839,-24.796639
29349,-9.748209,0.725478,0.009627,-0.061968,0.008589,-0.037715,-0.005368,0.003063,-0.010684,-0.097482,0.007260,0.000098,1.000000,-0.000027,0.000015,-0.000053,0.401102,0.612850,0.353361,-0.581952,90.640313,85.390906,-24.818532
29350,-9.717807,0.723039,-0.042064,-0.039339,0.055469,-0.068165,-0.008509,0.003280,-0.010862,-0.097178,0.007236,-0.000419,1.000000,-0.000043,0.000016,-0.000054,0.401128,0.612817,0.353393,-0.581949,90.615586,85.392583,-24.837783
29351,-9.721905,0.710384,-0.021143,-0.059809,0.042500,-0.065116,-0.005420,0.001584,-0.011071,-0.097219,0.007109,-0.000211,1.000000,-0.000027,0.000008,-0.000055,0.401155,0.612790,0.353404,-0.581952,90.579592,85.392879,-24.870196
29352,-9.677947,0.691002,0.005475,-0.084990,0.025716,-0.110508,-0.005523,-0.001375,-0.011847,-0.096779,0.006916,0.000054,1.000000,-0.000028,-0.000007,-0.000059,0.401178,0.612751,0.353417,-0.581970,90.524584,85.394710,-24.921743
29353,-9.675589,0.680280,-0.027565,-0.079944,0.060602,-0.113692,0.000860,0.001151,-0.010716,-0.096756,0.006808,-0.000275,1.000000,0.000004,0.000006,-0.000054,0.401187,0.612736,0.353408,-0.581985,90.489069,85.394801,-24.957285
29354,-9.654073,0.685488,0.008036,-0.088437,0.025743,-0.134743,0.001041,0.003007,-0.011804,-0.096540,0.006861,0.000082,1.000000,0.000005,0.000015,-0.000059,0.401163,0.612727,0.353397,-0.582017,90.462579,85.397447,-24.987200
29355,-9.651708,0.674804,-0.025381,-0.083387,0.060625,-0.137934,-0.000608,0.004218,-0.010029,-0.096517,0.006753,-0.000252,1.000000,-0.000003,0.000021,-0.000050,0.401173,0.612719,0.353396,-0.582019,90.447991,85.397130,-25.000903
29356,-9.651762,0.674020,-0.025890,-0.083802,0.061690,-0.137944,0.000804,0.006317,-0.006214,-0.096517,0.006743,-0.000256,1.000000,0.000004,0.000032,-0.000031,0.401124,0.612755,0.353324,-0.582060,90.436911,85.395750,-25.023584
29357,-9.678281,0.686318,0.003796,-0.087769,0.030642,-0.110547,0.005645,0.006369,-0.007423,-0.096783,0.006867,0.000041,1.000000,0.000028,0.000032,-0.000037,0.401119,0.612770,0.353301,-0.582061,90.441025,85.393930,-25.022123
29358,-9.675892,0.675857,-0.029871,-0.082357,0.065388,-0.113744,-0.002127,0.005805,-0.009731,-0.096759,0.006763,-0.000296,1.000000,-0.000011,0.000029,-0.000049,0.401113,0.612762,0.353310,-0.582069,90.435090,85.395681,-25.027816
29359,-9.677515,0.653799,-0.042503,-0.097102,0.086320,-0.113890,-0.002156,0.008388,-0.007480,-0.096775,0.006542,-0.000421,1.000000,-0.000011,0.000042,-0.000037,0.401127,0.612767,0.353314,-0.582050,90.449113,85.393887,-25.011928
29360,-9.676007,0.674152,-0.031306,-0.083477,0.067265,-0.113766,0.002764,0.007337,-0.010551,-0.096760,0.006747,-0.000309,1.000000,0.000014,0.000037,-0.000053,0.401105,0.612775,0.353310,-0.582060,90.458136,85.395255,-25.005544
29361,-9.698554,0.697565,-0.022702,-0.067652,0.050178,-0.089418,0.002793,0.004755,-0.012802,-0.096985,0.006982,-0.000225,1.000000,0.000014,0.000024,-0.000064,0.401095,0.612771,0.353309,-0.582072,90.449445,85.396528,-25.015288
29362,-9.721114,0.720891,-0.014049,-0.051702,0.033069,-0.065064,0.005983,0.006019,-0.012236,-0.097211,0.007215,-0.000137,1.000000,0.000030,0.000030,-0.000061,0.401054,0.612786,0.353283,-0.582101,90.449707,85.398209,-25.021559
29363,-9.697176,0.716315,-0.011940,-0.054793,0.032176,-0.089292,0.004543,0.006502,-0.013800,-0.096971,0.007170,-0.000116,1.000000,0.000023,0.000033,-0.000069,0.401033,0.612788,0.353283,-0.582112,90.454487,85.400046,-25.018799
29364,-9.715738,0.751111,-0.024510,-0.018804,0.029016,-0.067989,0.006113,0.006395,-0.013711,-0.097157,0.007518,-0.000242,1.000000,0.000031,0.000032,-0.000069,0.400956,0.612810,0.353241,-0.582168,90.450256,85.403848,-25.034474
29365,-9.711807,0.761574,-0.046226,0.000330,0.043950,-0.071055,0.001012,0.005589,-0.009553,-0.097118,0.007620,-0.000460,1.000000,0.000005,0.000028,-0.000048,0.400960,0.612810,0.353236,-0.582167,90.446256,85.403256,-25.038493
29366,-9.691877,0.745561,-0.022802,-0.022444,0.029030,-0.092219,-0.001969,0.003596,-0.013457,-0.096918,0.007462,-0.000226,1.000000,-0.000010,0.000018,-0.000067,0.400960,0.612790,0.353253,-0.582178,90.428000,85.405728,-25.055260
29367,-9.687938,0.756151,-0.044169,-0.003308,0.043961,-0.095285,0.002221,0.001772,-0.007287,-0.096879,0.007565,-0.000441,1.000000,0.000011,0.000009,-0.000036,0.400974,0.612786,0.353230,-0.582187,90.397360,85.403854,-25.086703
29368,-9.667975,0.740556,-0.020491,-0.025915,0.029282,-0.116448,0.003791,0.001665,-0.007198,-0.096679,0.007409,-0.000204,1.000000,0.000019,0.000008,-0.000036,0.400889,0.612830,0.353104,-0.582276,90.347472,85.402965,-25.156769
29369,-9.696053,0.731850,-0.002261,-0.043982,0.018227,-0.089170,0.004841,0.000055,-0.001207,-0.096960,0.007319,-0.000022,1.000000,0.000024,0.000000,-0.000006,0.400916,0.612836,0.353052,-0.582282,90.305848,85.397609,-25.200745
29370,-9.692984,0.774230,0.021463,-0.016384,-0.020915,-0.088844,0.003370,0.003121,-0.000521,-0.096930,0.007743,0.000216,1.000000,0.000017,0.000016,-0.000003,0.400976,0.612825,0.353062,-0.582246,90.295484,85.393119,-25.204180
29371,-9.714531,0.767980,-0.014345,-0.008905,0.015867,-0.067853,0.004351,-0.004031,0.002444,-0.097145,0.007679,-0.000145,1.000000,0.000022,-0.000020,0.000012,0.401022,0.612825,0.352992,-0.582257,90.224645,85.385679,-25.277182
29372,-9.711425,0.810805,0.010095,0.018641,-0.023360,-0.067515,0.010271,-0.008168,0.004979,-0.097114,0.008106,0.000097,1.000000,0.000051,-0.000041,0.000025,0.401128,0.612788,0.352979,-0.582231,90.146565,85.377984,-25.346192
29373,-9.661744,0.826309,0.028226,0.027235,-0.046131,-0.115780,0.005010,-0.006767,0.012862,-0.096618,0.008257,0.000279,1.000000,0.000025,-0.000034,0.000064,0.401207,0.612800,0.352869,-0.582231,90.057209,85.364562,-25.438146
29374,-9.712122,0.844355,0.056060,0.025860,-0.075387,-0.064096,0.007669,-0.000357,0.024217,-0.097122,0.008432,0.000561,1.000000,0.000038,-0.000002,0.000121,0.401307,0.612842,0.352757,-0.582185,90.019151,85.346188,-25.476883
29375,-9.744751,0.931271,0.011809,0.117551,-0.068639,-0.024478,0.002614,-0.015005,0.039034,-0.097449,0.009294,0.000111,1.000000,0.000013,-0.000075,0.000195,0.401483,0.612872,0.352558,-0.582153,89.872037,85.317748,-25.625412
29376,-9.721186,0.963183,0.061783,0.123042,-0.123633,-0.045263,-0.006947,-0.030056,0.050246,-0.097214,0.009607,0.000603,1.000000,-0.000035,-0.000150,0.000251,0.401774,0.612834,0.352373,-0.582104,89.626822,85.284519,-25.859613
29377,-9.673450,0.992529,0.115540,0.125925,-0.180311,-0.090253,-0.028116,-0.033489,0.055693,-0.096737,0.009899,0.001138,1.000000,-0.000141,-0.000167,0.000278,0.402126,0.612777,0.352175,-0.582041,89.340182,85.246344,-26.130488
29378,-9.660004,0.929462,0.140062,0.055283,-0.169079,-0.108691,-0.049423,-0.030645,0.067507,-0.096603,0.009262,0.001384,1.000000,-0.000247,-0.000153,0.000338,0.402485,0.612749,0.351915,-0.581980,89.047761,85.202076,-26.412308
29379,-9.710585,0.900562,0.114062,0.031266,-0.124353,-0.060609,-0.064114,-0.028582,0.074866,-0.097109,0.008970,0.001124,1.000000,-0.000321,-0.000143,0.000374,0.402994,0.612667,0.351772,-0.581800,88.785639,85.152751,-26.637923
29380,-9.692381,0.819737,0.072023,-0.027994,-0.046034,-0.085587,-0.064230,-0.024893,0.078985,-0.096927,0.008159,0.000706,1.000000,-0.000321,-0.000124,0.000395,0.403627,0.612530,0.351786,-0.581498,88.584882,85.102820,-26.775347
29381,-9.668603,0.772337,0.020073,-0.053496,0.026807,-0.113450,-0.059498,-0.014518,0.086787,-0.096689,0.007681,0.000191,1.000000,-0.000297,-0.000073,0.000434,0.404132,0.612519,0.351622,-0.581258,88.429868,85.046744,-26.896132
29382,-9.685513,0.786688,-0.035075,-0.026044,0.077651,-0.095561,-0.036448,-0.013626,0.096651,-0.096859,0.007820,-0.000359,1.000000,-0.000182,-0.000068,0.000483,0.404547,0.612593,0.351317,-0.581075,88.287338,84.985812,-27.026395
29383,-9.653273,0.846809,-0.028041,0.018853,0.050760,-0.122455,-0.006590,-0.011686,0.100962,-0.096537,0.008419,-0.000286,1.000000,-0.000033,-0.000058,0.000505,0.404926,0.612722,0.350961,-0.580890,88.189669,84.921621,-27.120072
29384,-9.678709,0.870180,0.003209,0.015117,0.020019,-0.094972,0.007073,-0.006084,0.112942,-0.096792,0.008647,0.000029,1.000000,0.000035,-0.000030,0.000565,0.405183,0.612967,0.350425,-0.580776,88.118001,84.851394,-27.216585
29385,-9.694119,0.939075,0.004067,0.064782,-0.003025,-0.073406,0.020397,-0.009361,0.122586,-0.096947,0.009331,0.000037,1.000000,0.000102,-0.000047,0.000613,0.405537,0.613195,0.349929,-0.580588,88.059331,84.774843,-27.286661
29386,-9.693447,0.982105,0.049959,0.072699,-0.055867,-0.069919,0.027566,-0.011808,0.130405,-0.096941,0.009758,0.000495,1.000000,0.000138,-0.000059,0.000652,0.405849,0.613460,0.349343,-0.580442,87.984211,84.695095,-27.385721
29387,-9.688494,1.037547,0.074881,0.100163,-0.094783,-0.069485,0.015814,-0.011772,0.139042,-0.096892,0.010308,0.000744,1.000000,0.000079,-0.000059,0.000695,0.406269,0.613700,0.348804,-0.580219,87.915837,84.609057,-27.462927
29388,-9.667103,1.036171,0.100105,0.077495,-0.109889,-0.090627,-0.013638,-0.018215,0.146250,-0.096679,0.010291,0.000992,1.000000,-0.000068,-0.000091,0.000731,0.406839,0.613849,0.348367,-0.579924,87.803619,84.520324,-27.559687
29389,-9.665529,1.050556,0.102150,0.076825,-0.108903,-0.090610,-0.044163,-0.017851,0.151980,-0.096663,0.010432,0.001011,1.000000,-0.000221,-0.000089,0.000760,0.407491,0.613970,0.347951,-0.579588,87.673748,84.426717,-27.664169
29390,-9.645640,0.998010,0.071100,0.031690,-0.050060,-0.115475,-0.061660,-0.018389,0.152118,-0.096464,0.009907,0.000699,1.000000,-0.000308,-0.000092,0.000761,0.408181,0.614059,0.347573,-0.579235,87.533723,84.333793,-27.771358
29391,-9.665583,0.976354,-0.007697,0.030812,0.040596,-0.098049,-0.075917,-0.011034,0.157723,-0.096663,0.009687,-0.000086,1.000000,-0.000380,-0.000055,0.000789,0.408934,0.614145,0.347244,-0.578810,87.433696,84.237027,-27.827598
29392,-9.646184,0.955240,0.005777,-0.005991,0.045442,-0.119429,-0.079304,-0.010054,0.160901,-0.096469,0.009475,0.000049,1.000000,-0.000397,-0.000050,0.000805,0.409727,0.614213,0.346959,-0.578348,87.347585,84.139694,-27.861700
29393,-9.678812,0.899648,-0.010634,-0.066310,0.094287,-0.092833,-0.074313,-0.003020,0.163126,-0.096795,0.008917,-0.000111,1.000000,-0.000372,-0.000015,0.000816,0.410477,0.614333,0.346624,-0.577889,87.298689,84.040035,-27.867475
29394,-9.668816,0.908170,-0.097129,-0.035576,0.176820,-0.102505,-0.055382,-0.001541,0.164955,-0.096696,0.009002,-0.000975,1.000000,-0.000277,-0.000008,0.000825,0.411177,0.614490,0.346255,-0.577446,87.274289,83.940499,-27.856769
29395,-9.707590,1.069129,-0.194349,0.131936,0.207455,-0.047563,-0.010299,-0.008876,0.169634,-0.097085,0.010609,-0.001948,1.000000,-0.000051,-0.000044,0.000848,0.411758,0.614735,0.345703,-0.577101,87.233764,83.836956,-27.891012
29396,-9.658394,1.253664,-0.147852,0.267095,0.094597,-0.076272,0.048824,-0.024621,0.190621,-0.096596,0.012445,-0.001487,1.000000,0.000244,-0.000123,0.000953,0.412248,0.615087,0.344898,-0.576858,87.155622,83.721746,-27.995375
29397,-9.653314,1.417166,0.046651,0.313849,-0.139702,-0.061844,0.112410,-0.032332,0.221992,-0.096549,0.014064,0.000459,0.999999,0.000562,-0.000162,0.001110,0.412642,0.615606,0.343782,-0.576688,87.081737,83.587558,-28.133939
29398,-9.699155,1.550708,0.211962,0.337310,-0.330250,0.000585,0.126712,-0.045879,0.270286,-0.097013,0.015375,0.002107,0.999999,0.000634,-0.000229,0.001351,0.413134,0.616204,0.342435,-0.576499,86.964933,83.426179,-28.327209
29399,-9.761141,1.694681,0.322704,0.388548,-0.470922,0.080903,0.058769,-0.074700,0.301993,-0.097638,0.016798,0.003196,0.999999,0.000294,-0.000374,0.001510,0.413994,0.616625,0.341138,-0.576201,86.687111,83.244804,-28.640244
29400,-9.739583,1.841085,0.369901,0.477943,-0.555644,0.079160,-0.050291,-0.095869,0.297692,-0.097425,0.018267,0.003648,0.999999,-0.000251,-0.000479,0.001488,0.415132,0.616795,0.340025,-0.575858,86.251065,83.064649,-29.067079
29401,-9.606114,1.840817,0.306069,0.496756,-0.482798,-0.051552,-0.164955,-0.079599,0.297949,-0.096090,0.018268,0.003007,0.999998,-0.000825,-0.000398,0.001490,0.416677,0.616727,0.339372,-0.575199,85.856964,82.884917,-29.368366
29402,-9.566861,1.765169,0.293433,0.415348,-0.419820,-0.097857,-0.239539,-0.038938,0.315579,-0.095697,0.017504,0.002895,0.999998,-0.001198,-0.000195,0.001578,0.418375,0.616676,0.338899,-0.574300,85.616049,82.697034,-29.483988
29403,-9.668308,1.668682,0.151544,0.351254,-0.223434,-0.009104,-0.274082,-0.019405,0.348246,-0.096712,0.016520,0.001483,0.999998,-0.001370,-0.000097,0.001741,0.420296,0.616633,0.338528,-0.573161,85.469038,82.490930,-29.473315
29404,-9.710838,1.681696,0.108187,0.347224,-0.164555,0.035786,-0.284888,-0.029443,0.371830,-0.097140,0.016638,0.001044,0.999997,-0.001424,-0.000147,0.001859,0.422251,0.616612,0.338005,-0.572054,85.271930,82.271793,-29.523090
29405,-9.705242,1.688883,0.070500,0.338246,-0.109721,0.032232,-0.273747,-0.032737,0.405248,-0.097086,0.016693,0.000666,0.999997,-0.001369,-0.000164,0.002026,0.424352,0.616622,0.337426,-0.570830,85.098465,82.032517,-29.539310
29406,-9.684514,1.764695,0.015358,0.396843,-0.067068,0.023067,-0.234008,-0.036579,0.437581,-0.096883,0.017435,0.000115,0.999997,-0.001170,-0.000183,0.002188,0.426532,0.616702,0.336745,-0.569520,84.961989,81.774263,-29.519332
29407,-9.665364,1.916777,-0.114007,0.551286,0.013440,0.026113,-0.170961,-0.038493,0.478628,-0.096699,0.018935,-0.001175,0.999997,-0.000855,-0.000192,0.002393,0.428529,0.617029,0.335629,-0.568323,84.859272,81.492808,-29.523587
29408,-9.690925,2.059078,-0.062730,0.611846,-0.061314,0.075660,-0.100125,-0.046826,0.534517,-0.096964,0.020331,-0.000660,0.999996,-0.000501,-0.000234,0.002673,0.430350,0.617636,0.333970,-0.567264,84.769298,81.179532,-29.582636
29409,-9.656478,2.195543,0.137495,0.608069,-0.271614,0.068764,-0.026912,-0.063424,0.590041,-0.096629,0.021671,0.001341,0.999996,-0.000135,-0.000317,0.002950,0.432254,0.618379,0.332043,-0.566138,84.701930,80.833199,-29.634681
29410,-9.567715,2.298761,0.243380,0.616658,-0.383975,0.003456,0.025520,-0.088286,0.635426,-0.095751,0.022683,0.002394,0.999995,0.000128,-0.000441,0.003177,0.434035,0.619306,0.329592,-0.565193,84.580180,80.457652,-29.801462
29411,-9.480760,2.432247,0.450063,0.608079,-0.598272,-0.051789,0.005508,-0.094423,0.672180,-0.094891,0.024004,0.004457,0.999994,0.000028,-0.000472,0.003361,0.436113,0.620153,0.327244,-0.564027,84.465974,80.062744,-29.920012
29412,-9.348724,2.497134,0.570124,0.578092,-0.708660,-0.162683,-0.094840,-0.057883,0.710773,-0.093577,0.024642,0.005662,0.999994,-0.000474,-0.000289,0.003554,0.438433,0.620999,0.324983,-0.562603,84.414133,79.646957,-29.942286
29413,-9.324183,2.566330,0.523261,0.603052,-0.659921,-0.169002,-0.267013,-0.000850,0.737925,-0.093336,0.025326,0.005198,0.999992,-0.001335,-0.000004,0.003690,0.441379,0.621603,0.323395,-0.560545,84.461832,79.219722,-29.737628
29414,-9.331764,2.434032,0.297016,0.513270,-0.363425,-0.184677,-0.424846,0.046091,0.769920,-0.093410,0.023987,0.002940,0.999990,-0.002124,0.000230,0.003850,0.444840,0.622020,0.322252,-0.557998,84.549287,78.775887,-29.397469
29415,-9.467852,2.304714,0.064337,0.401343,-0.051085,-0.076575,-0.448362,0.082229,0.800555,-0.094770,0.022669,0.000631,0.999989,-0.002242,0.000411,0.004003,0.448373,0.622533,0.321148,-0.555228,84.720337,78.317244,-28.960331
29416,-9.540502,2.243820,-0.150336,0.346425,0.211226,-0.019154,-0.409255,0.089924,0.844773,-0.095499,0.022032,-0.001506,0.999989,-0.002046,0.000450,0.004224,0.452029,0.623135,0.319978,-0.552257,84.927244,77.833393,-28.478302
29417,-9.549968,2.267034,-0.278538,0.337317,0.355762,-0.005654,-0.338818,0.091030,0.886809,-0.095600,0.022242,-0.002780,0.999989,-0.001694,0.000455,0.004434,0.455424,0.624029,0.318308,-0.549415,85.154211,77.325347,-28.046610
29418,-9.591642,2.369073,-0.375237,0.374669,0.444519,0.057178,-0.257186,0.097960,0.918810,-0.096026,0.023245,-0.003735,0.999989,-0.001286,0.000490,0.004594,0.458694,0.625139,0.316383,-0.546538,85.427527,76.797617,-27.602339
29419,-9.537673,2.555514,-0.402633,0.475593,0.427338,0.048876,-0.162766,0.092902,0.952014,-0.095499,0.025097,-0.004003,0.999988,-0.000814,0.000465,0.004760,0.461693,0.626515,0.314016,-0.543794,85.718052,76.251564,-27.207190
29420,-9.489019,2.765855,-0.276544,0.533564,0.260869,0.057185,-0.061827,0.079213,0.988442,-0.095026,0.027188,-0.002736,0.999988,-0.000309,0.000396,0.004942,0.464459,0.628146,0.311177,-0.541183,86.010857,75.682964,-26.875155
29421,-9.464022,2.903633,-0.116519,0.503936,0.092492,0.074121,0.023594,0.088492,1.034937,-0.094789,0.028546,-0.001120,0.999987,0.000118,0.000442,0.005175,0.467082,0.630039,0.308019,-0.538525,86.357119,75.088385,-26.530790
29422,-9.481200,3.115174,-0.047735,0.560608,-0.014223,0.151462,0.053157,0.079493,1.082602,-0.094979,0.030638,-0.000431,0.999985,0.000266,0.000397,0.005413,0.469758,0.632024,0.304626,-0.535795,86.682380,74.465895,-26.220667
29423,-9.486182,3.326528,-0.065805,0.648671,-0.039238,0.218982,0.027922,0.068516,1.126252,-0.095047,0.032730,-0.000621,0.999984,0.000140,0.000343,0.005631,0.472616,0.633975,0.301102,-0.532961,86.950640,73.817520,-25.957925
29424,-9.471007,3.451072,-0.041005,0.644486,-0.070079,0.246644,-0.019665,0.060761,1.154213,-0.094907,0.033963,-0.000385,0.999983,-0.000098,0.000304,0.005771,0.475682,0.635821,0.297571,-0.530009,87.158873,73.152545,-25.731363
29425,-9.468298,3.484218,0.044445,0.530543,-0.118649,0.261720,-0.078261,0.072668,1.176897,-0.094886,0.034284,0.000465,0.999983,-0.000391,0.000363,0.005884,0.478974,0.637565,0.294158,-0.526846,87.341982,72.474775,-25.492257
29426,-9.525473,3.523327,-0.031167,0.466505,-0.011747,0.332777,-0.163238,0.095235,1.190171,-0.095462,0.034665,-0.000295,0.999982,-0.000816,0.000476,0.005951,0.482521,0.639161,0.290971,-0.523433,87.502384,71.789689,-25.224685
29427,-9.581793,3.549114,-0.173160,0.414048,0.162916,0.396999,-0.235978,0.113465,1.201848,-0.096030,0.034912,-0.001719,0.999981,-0.001180,0.000567,0.006009,0.486286,0.640622,0.287970,-0.519811,87.637287,71.098243,-24.939257
29428,-9.462247,3.598974,-0.389036,0.460844,0.374892,0.300863,-0.243201,0.099925,1.211595,-0.094840,0.035411,-0.003886,0.999981,-0.001216,0.000500,0.006058,0.490102,0.642019,0.284915,-0.516174,87.732577,70.400611,-24.689655
29429,-9.351581,3.737805,-0.413744,0.509178,0.379635,0.246624,-0.162489,0.094005,1.228242,-0.093745,0.036799,-0.004123,0.999981,-0.000812,0.000470,0.006141,0.493689,0.643597,0.281569,-0.512613,87.852701,69.693277,-24.462303
29430,-9.268011,3.935201,-0.419908,0.590190,0.348497,0.241516,-0.053214,0.091188,1.270280,-0.092929,0.038761,-0.004167,0.999980,-0.000266,0.000456,0.006351,0.497020,0.645471,0.277794,-0.509086,88.021429,68.961447,-24.248090
29431,-9.282374,4.296943,-0.290876,0.723968,0.148192,0.393349,0.037189,0.079755,1.319569,-0.093106,0.042356,-0.002864,0.999978,0.000186,0.000399,0.006598,0.500175,0.647582,0.273585,-0.505582,88.213392,68.201118,-24.064259
29432,-9.238521,4.480192,0.078394,0.625614,-0.217322,0.433692,-0.009278,0.061669,1.358101,-0.092686,0.044173,0.000810,0.999977,-0.000046,0.000308,0.006790,0.503585,0.649554,0.269317,-0.501947,88.344084,67.417972,-23.915865
29433,-9.229997,4.569847,0.386149,0.457075,-0.482980,0.472333,-0.210934,0.113247,1.371921,-0.092608,0.045068,0.003866,0.999976,-0.001055,0.000566,0.006860,0.507586,0.651135,0.265621,-0.497821,88.420028,66.627899,-23.701582
29434,-9.209984,4.340515,0.153568,0.228020,-0.136924,0.366464,-0.456459,0.171420,1.367424,-0.092392,0.042778,0.001517,0.999974,-0.002282,0.000857,0.006837,0.512277,0.652198,0.262691,-0.493156,88.423079,65.840906,-23.410840
29435,-9.303118,4.054080,-0.152525,-0.064259,0.315122,0.331362,-0.510804,0.189768,1.379826,-0.093309,0.039894,-0.001539,0.999972,-0.002554,0.000949,0.006899,0.517119,0.653148,0.259882,-0.488311,88.408186,65.047468,-23.104914
29436,-9.311504,4.049429,-0.454470,-0.092537,0.654995,0.329758,-0.370741,0.131669,1.409584,-0.093400,0.039828,-0.004558,0.999973,-0.001854,0.000658,0.007048,0.521629,0.654321,0.256474,-0.483724,88.395555,64.235728,-22.882119
29437,-9.212399,4.230863,-0.321221,-0.084876,0.512374,0.316485,-0.215293,0.067768,1.448220,-0.092428,0.041637,-0.003226,0.999973,-0.001076,0.000339,0.007241,0.525771,0.655759,0.252378,-0.479428,88.391054,63.401209,-22.749140
29438,-9.086541,4.485133,-0.260558,0.018378,0.407391,0.315559,-0.134980,0.101463,1.466228,-0.091192,0.044182,-0.002589,0.999973,-0.000675,0.000507,0.007331,0.529627,0.657475,0.248112,-0.475039,88.466603,62.556555,-22.575768
29439,-9.107179,4.686719,-0.385238,0.080342,0.514187,0.423608,-0.155669,0.147164,1.451446,-0.091412,0.046202,-0.003821,0.999973,-0.000778,0.000736,0.007257,0.533425,0.659192,0.244044,-0.470497,88.570593,61.721237,-22.356714
29440,-9.156872,4.581888,-0.390941,-0.168271,0.609308,0.414405,-0.196843,0.181196,1.445340,-0.091900,0.045152,-0.003871,0.999973,-0.000984,0.000906,0.007227,0.537279,0.660835,0.240179,-0.465772,88.678033,60.889401,-22.103822
29441,-9.180387,4.573869,-0.632956,-0.241924,0.887540,0.422170,-0.102819,0.170113,1.439933,-0.092135,0.045073,-0.006275,0.999974,-0.000514,0.000851,0.007200,0.540788,0.662662,0.236061,-0.461197,88.816466,60.060563,-21.876473
29442,-9.062114,4.745660,-0.600976,-0.202961,0.826437,0.398989,0.043430,0.111601,1.453377,-0.090966,0.046798,-0.005949,0.999973,0.000217,0.000558,0.007267,0.543889,0.664731,0.231400,-0.456916,88.972709,59.222866,-21.722363
29443,-8.823197,4.847131,-0.223631,-0.285769,0.438313,0.243052,0.172991,0.085138,1.461007,-0.088584,0.047827,-0.002157,0.999973,0.000865,0.000426,0.007305,0.546572,0.667063,0.226324,-0.452838,89.168565,58.380548,-21.608707
29444,-8.629244,4.995499,-0.144087,-0.245389,0.317115,0.151100,0.274068,0.098778,1.459903,-0.086655,0.049325,-0.001330,0.999972,0.001370,0.000494,0.007299,0.548875,0.669666,0.221058,-0.448796,89.427571,57.538574,-21.486529
29445,-8.490453,5.196789,-0.009249,-0.209646,0.134508,0.138729,0.280331,0.116420,1.444216,-0.085277,0.051353,0.000029,0.999973,0.001402,0.000582,0.007221,0.551066,0.672269,0.215856,-0.444731,89.695241,56.705539,-21.358489
29446,-8.363593,5.261275,0.173862,-0.302310,-0.050136,0.064829,0.171004,0.143342,1.428205,-0.084007,0.052012,0.001843,0.999974,0.000855,0.000717,0.007141,0.553535,0.674579,0.211024,-0.440467,89.915911,55.881329,-21.209185
29447,-8.326918,5.245351,0.131866,-0.417553,0.018648,0.020541,0.023721,0.210871,1.385354,-0.083628,0.051875,0.001413,0.999975,0.000119,0.001054,0.006927,0.556302,0.676549,0.206826,-0.435926,90.099340,55.081496,-21.002473
29448,-8.357162,5.078137,-0.067082,-0.621842,0.292714,-0.057673,-0.087386,0.239982,1.345123,-0.083911,0.050218,-0.000592,0.999977,-0.000437,0.001200,0.006726,0.559304,0.678201,0.203088,-0.431253,90.235797,54.304277,-20.772232
29449,-8.379789,5.100704,-0.378803,-0.633652,0.614668,-0.035122,-0.051998,0.222963,1.315475,-0.084135,0.050453,-0.003708,0.999978,-0.000260,0.001115,0.006577,0.562109,0.679851,0.199307,-0.426746,90.370438,53.543851,-20.568188
29450,-8.319460,5.329640,-0.314246,-0.577245,0.507971,0.042494,0.025391,0.156615,1.288924,-0.083538,0.052759,-0.003070,0.999979,0.000127,0.000783,0.006445,0.564639,0.681523,0.195265,-0.422589,90.493173,52.798707,-20.431511
29451,-8.059533,5.497944,0.040765,-0.553776,0.105657,-0.072769,0.050332,0.130768,1.265014,-0.080941,0.054468,0.000474,0.999980,0.000252,0.000654,0.006325,0.567032,0.683157,0.191161,-0.418603,90.605178,52.067190,-20.325979
29452,-7.937739,5.707455,-0.105977,-0.397088,0.187872,-0.045407,0.034539,0.172392,1.232772,-0.079728,0.056584,-0.000981,0.999981,0.000173,0.000862,0.006164,0.569350,0.684777,0.187321,-0.414526,90.735594,51.353879,-20.183679
29453,-7.913403,5.992059,-0.212221,-0.254670,0.232918,0.109584,-0.048484,0.165848,1.186509,-0.079489,0.059449,-0.002071,0.999982,-0.000242,0.000829,0.005933,0.571840,0.686076,0.183775,-0.410518,90.808875,50.666822,-20.053035
29454,-7.793525,5.993715,0.190803,-0.434533,-0.133113,0.010370,-0.196003,0.127817,1.149898,-0.078277,0.059490,0.001900,0.999983,-0.000980,0.000639,0.005749,0.574776,0.686819,0.180552,-0.406587,90.770105,50.001218,-19.956249
29455,-7.651989,5.912624,0.015439,-0.448000,0.064405,-0.153159,-0.316747,0.191561,1.107491,-0.076846,0.058702,0.000135,0.999983,-0.001584,0.000958,0.005537,0.577962,0.687281,0.177888,-0.402444,90.703540,49.359293,-19.804891
29456,-7.709900,5.812840,-0.304680,-0.540326,0.447990,-0.177806,-0.452357,0.215772,1.064448,-0.077410,0.057710,-0.003094,0.999983,-0.002262,0.001079,0.005322,0.581485,0.687338,0.175717,-0.398201,90.575278,48.742304,-19.630454
29457,-7.820084,5.616093,-0.299316,-0.841233,0.564968,-0.233746,-0.464576,0.173088,1.012826,-0.078487,0.055757,-0.003055,0.999984,-0.002323,0.000865,0.005064,0.584967,0.687206,0.173608,-0.394237,90.410774,48.155130,-19.493938
29458,-7.600140,5.593349,-0.204256,-0.837794,0.475064,-0.423273,-0.301636,0.116495,0.972638,-0.076273,0.055560,-0.002082,0.999987,-0.001508,0.000582,0.004863,0.587839,0.687385,0.171155,-0.390710,90.304429,47.591786,-19.403375
29459,-7.273593,5.808878,-0.096128,-0.599732,0.283391,-0.527386,-0.245799,0.123482,0.940742,-0.073009,0.057745,-0.000987,0.999988,-0.001229,0.000617,0.004704,0.590437,0.687694,0.168710,-0.387295,90.233187,47.046405,-19.308053
29460,-6.996162,5.726868,-0.016358,-0.583166,0.200986,-0.792570,-0.337205,0.166155,0.913318,-0.070222,0.056948,-0.000202,0.999988,-0.001686,0.000831,0.004567,0.593244,0.687779,0.166666,-0.383724,90.136190,46.517260,-19.175310
29461,-6.971855,5.570276,-0.177633,-0.695869,0.418693,-0.924142,-0.331715,0.193804,0.874165,-0.069963,0.055394,-0.001801,0.999989,-0.001659,0.000969,0.004371,0.595922,0.687882,0.164816,-0.380173,90.057072,46.010154,-19.021095
29462,-7.084938,5.639400,-0.237977,-0.775307,0.515829,-0.802241,-0.278152,0.143925,0.835078,-0.071086,0.056094,-0.002407,0.999990,-0.001391,0.000720,0.004175,0.598365,0.688005,0.162854,-0.376944,89.979083,45.526209,-18.906972
29463,-7.113037,5.606781,0.048764,-0.976615,0.285860,-0.812810,-0.207144,0.142543,0.759598,-0.071342,0.055798,0.000481,0.999992,-0.001036,0.000713,0.003798,0.600417,0.688261,0.161003,-0.373998,89.939170,45.084982,-18.795480
29464,-6.841854,5.460724,-0.225017,-0.867912,0.535789,-1.115536,-0.127089,0.191240,0.695467,-0.068610,0.054367,-0.002219,0.999993,-0.000635,0.000956,0.003477,0.602019,0.688789,0.159374,-0.371137,89.972729,44.681277,-18.644438
29465,-6.649561,5.330263,-0.582071,-0.774728,0.865942,-1.350019,0.138135,0.243259,0.720862,-0.066694,0.053066,-0.005703,0.999993,0.000691,0.001216,0.003604,0.602710,0.690220,0.157313,-0.368225,90.184152,44.262002,-18.454930
29466,-6.629267,5.691304,-0.567789,-0.600882,0.755648,-1.110512,0.626801,0.153637,0.828186,-0.066532,0.056655,-0.005449,0.999986,0.003134,0.000768,0.004141,0.601963,0.693031,0.153715,-0.365677,90.622199,43.781738,-18.341270
29467,-6.649788,6.466826,0.030664,-0.397333,-0.012631,-0.545472,1.111066,0.020788,0.985286,-0.066815,0.064337,0.000672,0.999972,0.005555,0.000104,0.004926,0.599909,0.697145,0.148274,-0.363473,91.257347,43.211089,-18.342674
29468,-6.957001,7.500531,0.663917,-0.279286,-0.832502,0.401305,1.373950,-0.023300,1.036214,-0.069958,0.074596,0.007144,0.999963,0.006870,-0.000117,0.005181,0.597018,0.701963,0.142043,-0.361443,92.013508,42.613032,-18.388316
29469,-6.986422,8.638089,0.926856,0.191301,-1.406498,1.244853,1.030926,0.042878,0.930925,-0.070263,0.086005,0.009728,0.999976,0.005155,0.000214,0.004655,0.595064,0.705756,0.136983,-0.359226,92.603025,42.073182,-18.389325
29470,-6.986784,8.545036,0.668089,0.105239,-1.168647,1.182835,0.376277,0.156496,0.796914,-0.070202,0.085158,0.006896,0.999990,0.001881,0.000782,0.003985,0.595073,0.707691,0.133910,-0.356551,92.876129,41.607864,-18.303271
29471,-7.067343,8.025109,0.202776,-0.202090,-0.584549,0.864752,0.214756,0.168541,0.728359,-0.070963,0.079991,0.002173,0.999992,0.001074,0.000843,0.003642,0.595521,0.709106,0.131396,-0.353919,93.061227,41.180234,-18.208699
29472,-6.994523,8.300170,0.623888,-0.207721,-1.061410,1.005594,0.095729,0.118495,0.674509,-0.070221,0.082762,0.006320,0.999994,0.000479,0.000592,0.003373,0.596312,0.710035,0.129135,-0.351547,93.153503,40.785686,-18.151899
29473,-6.892327,8.118787,0.708108,-0.336236,-1.095220,0.798977,-0.280956,0.122510,0.580958,-0.069154,0.080997,0.007010,0.999995,-0.001405,0.000613,0.002905,0.598274,0.709778,0.127876,-0.349187,93.033409,40.443658,-18.088355
29474,-6.846296,7.711106,0.355916,-0.471463,-0.629458,0.475207,-0.560454,0.106710,0.521861,-0.068662,0.076942,0.003380,0.999993,-0.002802,0.000534,0.002609,0.601120,0.708610,0.127266,-0.346885,92.747857,40.136953,-18.033820
29475,-6.613553,7.467227,-0.047057,-0.347444,-0.190397,0.154431,-0.627073,0.054059,0.507358,-0.066325,0.074502,-0.000686,0.999992,-0.003135,0.000270,0.002537,0.604208,0.707130,0.126663,-0.344756,92.399871,39.839265,-18.015482
29476,-6.243665,7.408557,-0.174089,-0.104066,-0.084520,-0.123415,-0.648525,0.029897,0.530952,-0.062633,0.073913,-0.001971,0.999991,-0.003243,0.000149,0.002655,0.607410,0.705547,0.125936,-0.342633,92.029331,39.529613,-18.014480
29477,-6.117397,7.126455,-0.384235,-0.144607,0.209613,-0.416343,-0.667213,0.044808,0.537946,-0.061366,0.071086,-0.004066,0.999991,-0.003336,0.000224,0.002690,0.610676,0.703923,0.125262,-0.340407,91.656398,39.214783,-17.998974
29478,-6.134098,6.632103,-0.552646,-0.431023,0.537885,-0.788168,-0.577049,0.063002,0.537190,-0.061521,0.066140,-0.005698,0.999992,-0.002885,0.000315,0.002686,0.613595,0.702594,0.124488,-0.338181,91.345233,38.901117,-17.968732
29479,-6.117807,6.198263,-0.539807,-0.718657,0.656999,-1.141524,-0.319432,0.038866,0.553626,-0.061350,0.061804,-0.005485,0.999995,-0.001597,0.000194,0.002768,0.615650,0.702014,0.123147,-0.336134,91.171032,38.577519,-17.953864
29480,-6.069395,6.266344,-0.573594,-0.677262,0.687499,-1.123494,0.004825,0.011573,0.587972,-0.060878,0.062485,-0.005731,0.999996,0.000024,0.000058,0.002940,0.616628,0.702402,0.121055,-0.334285,91.170486,38.235616,-17.959945
29481,-5.846781,6.748004,-0.464367,-0.318128,0.439218,-0.888469,0.192560,0.019626,0.606487,-0.058673,0.067307,-0.004573,0.999995,0.000963,0.000098,0.003032,0.616975,0.703385,0.118608,-0.332450,91.280421,37.881981,-17.959802
29482,-5.787118,7.258487,-0.381793,-0.063470,0.239900,-0.525048,0.253402,0.069627,0.604132,-0.058091,0.072414,-0.003706,0.999995,0.001267,0.000348,0.003021,0.617059,0.704632,0.116220,-0.330491,91.447090,37.530137,-17.925522
29483,-5.799674,7.724844,-0.432801,0.148800,0.190469,-0.146353,0.210614,0.098549,0.592606,-0.058227,0.077081,-0.004218,0.999995,0.001053,0.000493,0.002963,0.617260,0.705779,0.114033,-0.328425,91.600629,37.183254,-17.870562
29484,-5.831453,7.991098,-0.159662,0.127217,-0.116326,0.079683,0.132721,0.108222,0.559603,-0.058539,0.079748,-0.001512,0.999996,0.000664,0.000541,0.002798,0.617662,0.706677,0.112118,-0.326391,91.713528,36.856127,-17.810141
29485,-5.944497,8.055296,-0.244194,0.047500,-0.018777,0.201383,0.071732,0.139097,0.523869,-0.059657,0.080398,-0.002372,0.999996,0.000359,0.000695,0.002619,0.618207,0.707410,0.110524,-0.324309,91.803861,36.547721,-17.726956
29486,-5.943814,7.897871,-0.337489,-0.062333,0.111023,0.076840,-0.021204,0.107528,0.510859,-0.059641,0.078826,-0.003351,0.999997,-0.000106,0.000538,0.002554,0.619064,0.707793,0.109028,-0.322337,91.827421,36.248361,-17.667532
29487,-5.800234,7.497506,-0.333082,-0.224544,0.167424,-0.331780,0.001393,0.098562,0.509087,-0.058195,0.074827,-0.003302,0.999997,0.000007,0.000493,0.002545,0.619847,0.708225,0.107474,-0.320401,91.859309,35.949069,-17.613946
29488,-5.655745,7.441132,-0.384544,-0.176607,0.198840,-0.462027,0.116030,0.103437,0.501483,-0.056746,0.074271,-0.003773,0.999997,0.000580,0.000517,0.002507,0.620197,0.709012,0.105777,-0.318542,91.958825,35.655096,-17.558246
29489,-5.560501,7.571731,-0.179369,-0.148467,-0.047457,-0.418118,0.206399,0.113380,0.500401,-0.055795,0.075580,-0.001684,0.999996,0.001032,0.000567,0.002502,0.620223,0.710088,0.103970,-0.316685,92.112957,35.360333,-17.495653
29490,-5.614936,7.773399,-0.377037,-0.071922,0.101755,-0.216875,0.296861,0.130538,0.492574,-0.056343,0.077601,-0.003618,0.999996,0.001484,0.000653,0.002463,0.619893,0.711463,0.102100,-0.314847,92.325336,35.070634,-17.423119
29491,-5.681692,8.196354,-0.255123,0.006873,-0.100490,0.163108,0.329738,0.113976,0.491656,-0.057020,0.081828,-0.002384,0.999995,0.001649,0.000570,0.002458,0.619456,0.712905,0.100129,-0.313074,92.548307,34.780514,-17.362813
29492,-5.642101,8.507090,-0.149123,0.112297,-0.288061,0.391737,0.224353,0.112051,0.477724,-0.056625,0.084937,-0.001364,0.999996,0.001122,0.000560,0.002389,0.619360,0.714007,0.098365,-0.311307,92.709762,34.499374,-17.305715
29493,-5.768208,8.410078,-0.132611,-0.094068,-0.252602,0.382723,0.035139,0.108669,0.439489,-0.057867,0.083974,-0.001280,0.999997,0.000176,0.000543,0.002197,0.619886,0.714492,0.097022,-0.309563,92.761094,34.239001,-17.249597
29494,-5.652949,8.054399,-0.111450,-0.237517,-0.212095,0.022965,-0.131680,0.075262,0.414596,-0.056697,0.080426,-0.001146,0.999998,-0.000658,0.000376,0.002073,0.620975,0.714394,0.095921,-0.307946,92.704422,33.994887,-17.216924
29495,-5.497521,7.561945,-0.020098,-0.434002,-0.212185,-0.476057,-0.184050,0.067420,0.380931,-0.055119,0.075514,-0.000252,0.999998,-0.000920,0.000337,0.001905,0.622207,0.714100,0.094997,-0.306422,92.615016,33.769188,-17.187276
29496,-5.429816,7.231434,-0.347729,-0.475867,0.169127,-0.777073,-0.157483,0.094238,0.333712,-0.054420,0.072221,-0.003509,0.999998,-0.000787,0.000471,0.001669,0.623249,0.713906,0.094283,-0.304975,92.552231,33.570987,-17.138679
29497,-5.364058,7.013186,-0.529553,-0.506755,0.381644,-0.990228,-0.025109,0.098317,0.325979,-0.053757,0.070044,-0.005278,0.999999,-0.000126,0.000492,0.001630,0.623810,0.714123,0.093408,-0.303584,92.566524,33.375996,-17.085810
29498,-5.409598,7.151078,-0.438488,-0.533895,0.277719,-0.855475,0.213090,0.073664,0.345411,-0.054221,0.071422,-0.004289,0.999998,0.001065,0.000368,0.001727,0.623551,0.715054,0.092023,-0.302346,92.707616,33.171679,-17.052207
29499,-5.488891,7.734108,-0.307523,-0.380365,0.042458,-0.331533,0.313317,0.040495,0.348387,-0.055024,0.077250,-0.002943,0.999997,0.001567,0.000202,0.001742,0.622959,0.716243,0.090373,-0.301248,92.892879,32.965299,-17.040796
29500,-5.498175,8.141134,-0.110996,-0.284026,-0.237877,0.004793,0.263232,0.013309,0.327861,-0.055115,0.081322,-0.000999,0.999998,0.001316,0.000067,0.001639,0.622516,0.717224,0.088786,-0.300301,93.039661,32.772715,-17.049381
29501,-5.333956,8.330595,0.074343,-0.152348,-0.500465,0.065655,0.172804,0.014752,0.297050,-0.053463,0.083226,0.000819,0.999999,0.000864,0.000074,0.001485,0.622356,0.717908,0.087451,-0.299389,93.135228,32.596457,-17.054866
29502,-5.300273,8.364848,-0.168602,-0.059521,-0.284835,0.087176,-0.002606,0.040212,0.255337,-0.053110,0.083581,-0.001676,0.999999,-0.000013,0.000201,0.001277,0.622742,0.718065,0.086604,-0.298455,93.140555,32.444547,-17.043397
29503,-5.329411,8.105482,-0.265249,-0.203753,-0.121514,-0.111374,-0.094934,0.032752,0.233997,-0.053389,0.080991,-0.002682,0.999999,-0.000475,0.000164,0.001170,0.623439,0.717911,0.085951,-0.297556,93.090474,32.303805,-17.034448
29504,-5.297868,8.003336,-0.305944,-0.235190,-0.055759,-0.212900,-0.093947,0.010702,0.219023,-0.053066,0.079974,-0.003094,0.999999,-0.000470,0.000054,0.001095,0.624109,0.717722,0.085277,-0.296801,93.033524,32.173591,-17.041555
29505,-5.290773,7.960801,-0.410185,-0.234469,0.064254,-0.248392,-0.096105,-0.011017,0.195875,-0.052985,0.079554,-0.004143,0.999999,-0.000481,-0.000055,0.000979,0.624770,0.717481,0.084627,-0.296177,92.967900,32.055990,-17.060516
29506,-5.172806,7.985688,-0.322363,-0.169500,-0.039505,-0.294140,-0.078399,-0.027072,0.172282,-0.051796,0.079811,-0.003262,1.000000,-0.000392,-0.000135,0.000861,0.625330,0.717263,0.083979,-0.295710,92.907393,31.953649,-17.091229
29507,-5.062074,7.987716,-0.335121,-0.087015,-0.041713,-0.350596,-0.110856,-0.015888,0.144579,-0.050678,0.079839,-0.003399,1.000000,-0.000554,-0.000079,0.000723,0.625969,0.716945,0.083519,-0.295257,92.832746,31.865506,-17.111382
29508,-5.155595,7.726764,-0.246697,-0.328181,-0.035297,-0.526411,-0.128226,-0.002791,0.119646,-0.051602,0.077235,-0.002517,1.000000,-0.000641,-0.000014,0.000598,0.626618,0.716583,0.083210,-0.294846,92.753477,31.792554,-17.123705
29509,-5.190739,7.402404,-0.222587,-0.530330,0.026120,-0.784567,-0.040216,-0.019087,0.081654,-0.051937,0.074002,-0.002246,1.000000,-0.000201,-0.000095,0.000408,0.626911,0.716456,0.082860,-0.294631,92.719422,31.740472,-17.143714
29510,-5.290284,7.038798,-0.229389,-0.794069,0.133676,-1.041372,0.059226,-0.017154,0.087001,-0.052933,0.070366,-0.002278,1.000000,0.000296,-0.000086,0.000435,0.626846,0.716646,0.082346,-0.294453,92.743071,31.686641,-17.164720
29511,-5.286449,6.894343,-0.124928,-0.907316,0.052130,-1.171616,0.425305,-0.065634,0.095243,-0.052897,0.068921,-0.001120,0.999998,0.002127,-0.000328,0.000476,0.625509,0.717912,0.081117,-0.294553,92.959058,31.628144,-17.216575
29512,-5.165850,8.092057,0.181328,-0.350223,-0.544441,-0.232449,0.711755,-0.140872,0.142070,-0.051717,0.080877,0.002065,0.999993,0.003559,-0.000704,0.000710,0.623227,0.719976,0.079054,-0.294912,93.311762,31.546922,-17.323448
29513,-5.347631,9.329857,0.500822,-0.035435,-1.096027,0.896727,0.489519,-0.173195,0.123403,-0.053538,0.093253,0.005190,0.999996,0.002448,-0.000866,0.000617,0.621733,0.721285,0.077292,-0.295332,93.526037,31.476436,-17.449189
29514,-5.367455,9.975457,0.379741,0.280854,-1.126172,1.461902,0.042583,-0.165376,0.058898,-0.053707,0.099738,0.003774,1.000000,0.000213,-0.000827,0.000294,0.621741,0.721188,0.076437,-0.295775,93.488318,31.444200,-17.569971
29515,-5.369711,10.122219,0.001465,0.477980,-0.774400,1.609431,-0.379088,-0.156347,0.012819,-0.053703,0.101218,-0.000219,0.999998,-0.001895,-0.000782,0.000064,0.623206,0.719774,0.076409,-0.296143,93.213309,31.436274,-17.679882
29516,-5.335350,9.953958,-0.343620,0.559673,-0.362766,1.466496,-0.697932,-0.168453,-0.022589,-0.053339,0.099533,-0.003828,0.999994,-0.003490,-0.000842,-0.000113,0.625756,0.717328,0.076932,-0.296565,92.751795,31.449728,-17.799704
29517,-5.193715,9.477163,-0.710167,0.597053,0.128043,1.000357,-0.969013,-0.158889,-0.063047,-0.051901,0.094752,-0.007602,0.999988,-0.004845,-0.000794,-0.000315,0.629213,0.714020,0.078041,-0.296945,92.139052,31.483813,-17.909017
29518,-5.147916,8.631432,-1.008971,0.357821,0.655844,0.260134,-1.034266,-0.127489,-0.111150,-0.051425,0.086289,-0.010569,0.999986,-0.005171,-0.000637,-0.000556,0.632793,0.710516,0.079505,-0.297354,91.499911,31.545110,-17.999555
29519,-4.989667,7.867837,-1.227567,0.216285,1.043514,-0.476180,-0.897631,-0.108991,-0.124677,-0.049841,0.078653,-0.012656,0.999990,-0.004488,-0.000545,-0.000623,0.635855,0.707449,0.080881,-0.297764,90.945415,31.611892,-18.075394
29520,-4.917067,7.421593,-1.490310,0.164965,1.413382,-0.899018,-0.665432,-0.098436,-0.107772,-0.049123,0.074192,-0.015174,0.999994,-0.003327,-0.000492,-0.000539,0.638096,0.705132,0.081877,-0.298192,90.527096,31.669600,-18.147337
29521,-4.728320,7.195211,-1.452980,0.212118,1.408980,-1.198229,-0.432091,-0.113476,-0.077310,-0.047247,0.071939,-0.014712,0.999997,-0.002160,-0.000567,-0.000387,0.639570,0.703543,0.082376,-0.298649,90.236865,31.708306,-18.227642
29522,-4.513166,7.157626,-1.151282,0.284486,1.098646,-1.348780,-0.242858,-0.095300,-0.038140,-0.045112,0.071571,-0.011621,0.999999,-0.001214,-0.000476,-0.000191,0.640419,0.702601,0.082509,-0.299010,90.061513,31.725527,-18.297625
29523,-4.370869,7.229901,-0.978101,0.387385,0.903051,-1.364785,-0.213722,-0.043338,-0.000289,-0.043706,0.072289,-0.009868,0.999999,-0.001069,-0.000217,-0.000001,0.641208,0.701844,0.082635,-0.299063,89.921026,31.719642,-18.331015
29524,-4.482452,7.170445,-0.750153,0.199540,0.743325,-1.358220,-0.240261,0.010537,0.012948,-0.044830,0.071692,-0.007585,0.999999,-0.001201,0.000053,0.000065,0.642079,0.701089,0.082927,-0.298885,89.784837,31.707431,-18.329126
29525,-4.764574,7.104491,-0.497238,-0.137472,0.601461,-1.266253,-0.153778,0.069801,-0.027105,-0.047638,0.071048,-0.005010,1.000000,-0.000769,0.000349,-0.000136,0.642569,0.700680,0.083420,-0.298652,89.718732,31.717074,-18.286362
29526,-4.849421,7.149888,-0.880121,-0.061757,0.984974,-1.184918,-0.109205,0.131931,-0.034186,-0.048488,0.071502,-0.008808,1.000000,-0.000546,0.000660,-0.000171,0.642858,0.700507,0.084073,-0.298253,89.700691,31.732241,-18.202507
29527,-4.977709,6.998989,-1.080723,-0.180439,1.229007,-1.245986,0.083807,0.128610,-0.012335,-0.049780,0.069997,-0.010746,1.000000,0.000419,0.000643,-0.000062,0.642513,0.700955,0.084349,-0.297865,89.791590,31.733575,-18.120072
29528,-5.011716,7.493771,-0.784025,-0.060711,0.850137,-0.803691,0.517045,0.108600,0.012066,-0.050126,0.074955,-0.007619,0.999997,0.002585,0.000543,0.000060,0.640684,0.702777,0.083834,-0.297659,90.124348,31.721975,-18.051402
29529,-5.050847,8.393625,-0.196344,0.156414,0.103326,-0.016408,0.673380,0.124995,0.015300,-0.050516,0.083938,-0.001649,0.999994,0.003367,0.000625,0.000076,0.638306,0.705115,0.083122,-0.297439,90.551685,31.706764,-17.971517
29530,-5.310933,8.489133,0.036172,-0.100190,-0.127561,0.199604,0.667938,0.221057,-0.021149,-0.053100,0.084895,0.000704,0.999994,0.003340,0.001105,-0.000106,0.635836,0.707558,0.082858,-0.297000,91.010810,31.712474,-17.826809
29531,-5.783248,8.541536,0.158016,-0.516029,-0.198907,0.488886,0.783256,0.180036,-0.044127,-0.057812,0.085421,0.001967,0.999992,0.003916,0.000900,-0.000221,0.632941,0.710284,0.082367,-0.296813,91.520908,31.729509,-17.709268
29532,-5.696177,8.912148,0.516946,-0.397823,-0.702994,0.746059,0.794761,0.066183,-0.053769,-0.056936,0.089115,0.005542,0.999992,0.003974,0.000331,-0.000269,0.630019,0.712865,0.081535,-0.297071,91.998266,31.754548,-17.668259
29533,-5.325575,9.222308,0.740295,-0.033824,-1.130848,0.802422,0.554955,0.029431,-0.072994,-0.053221,0.092221,0.007667,0.999996,0.002775,0.000147,-0.000365,0.627939,0.714617,0.081008,-0.297410,92.324818,31.789803,-17.651048
29534,-5.233113,9.128228,0.660320,0.014515,-1.099995,0.672339,0.258173,0.069281,-0.096042,-0.052285,0.091299,0.006739,0.999999,0.001291,0.000346,-0.000480,0.626857,0.715486,0.081130,-0.297569,92.496508,31.838549,-17.606891
29535,-5.319555,9.044542,0.750718,-0.124189,-1.166354,0.641458,0.092237,0.039944,-0.082141,-0.053157,0.090464,0.007560,1.000000,0.000461,0.000200,-0.000411,0.626410,0.715793,0.081356,-0.297710,92.561998,31.878680,-17.582041
29536,-5.352050,8.851695,0.721745,-0.227378,-1.092684,0.496153,-0.159305,0.018252,-0.083605,-0.053483,0.088545,0.007152,1.000000,-0.000797,0.000091,-0.000418,0.626861,0.715282,0.081892,-0.297845,92.476036,31.921471,-17.573016
29537,-5.501371,8.177811,0.266763,-0.517508,-0.474645,0.021930,-0.270848,-0.004907,-0.101357,-0.054972,0.081809,0.002556,0.999999,-0.001354,-0.000025,-0.000507,0.627701,0.714376,0.082587,-0.298058,92.317758,31.973726,-17.577966
29538,-5.495808,8.225785,0.063320,-0.408152,-0.276970,0.068007,-0.173994,-0.058929,-0.107304,-0.054914,0.082288,0.000545,0.999999,-0.000870,-0.000295,-0.000537,0.628199,0.713691,0.082985,-0.298539,92.195834,32.031881,-17.621125
29539,-5.433165,8.721401,-0.020579,-0.068100,-0.294699,0.458193,-0.229798,-0.082582,-0.141592,-0.054270,0.087252,-0.000328,0.999999,-0.001149,-0.000413,-0.000708,0.628862,0.712779,0.083518,-0.299172,92.033569,32.108794,-17.677865
29540,-5.373073,8.899188,-0.134907,0.131264,-0.210554,0.580672,-0.410706,-0.079872,-0.191898,-0.053645,0.089040,-0.001553,0.999997,-0.002054,-0.000399,-0.000959,0.630083,0.711279,0.084504,-0.299894,91.769060,32.215584,-17.733996
29541,-5.309611,8.351776,-0.376992,0.020558,0.144748,0.090071,-0.568678,-0.058642,-0.228261,-0.053000,0.083567,-0.004023,0.999995,-0.002843,-0.000293,-0.001141,0.631806,0.709293,0.085927,-0.300569,91.421481,32.341316,-17.773836
29542,-5.227824,7.402758,-0.371374,-0.356896,0.332773,-0.755613,-0.509132,-0.061863,-0.253300,-0.052183,0.074084,-0.003918,0.999996,-0.002546,-0.000309,-0.001266,0.633267,0.707473,0.087335,-0.301375,91.106595,32.482511,-17.818328
29543,-5.022318,6.710422,-0.633071,-0.430461,0.677596,-1.445506,-0.265571,-0.047863,-0.239180,-0.050141,0.067156,-0.006432,0.999998,-0.001328,-0.000239,-0.001196,0.633888,0.706447,0.088374,-0.302174,90.935671,32.614046,-17.852323
29544,-5.128105,6.550566,-0.332373,-0.672812,0.447920,-1.526282,0.231331,-0.093583,-0.198542,-0.051214,0.065560,-0.003272,0.999999,0.001157,-0.000468,-0.000993,0.632823,0.706944,0.088369,-0.303242,91.032440,32.724077,-17.919911
29545,-5.110129,7.442303,0.058339,-0.321828,-0.116524,-0.791189,0.568035,-0.146656,-0.154793,-0.051044,0.074461,0.000757,0.999995,0.002840,-0.000733,-0.000774,0.630664,0.708440,0.087535,-0.304488,91.302142,32.808497,-18.022062
29546,-5.286146,8.239479,0.146831,-0.081888,-0.340911,-0.028471,0.453611,-0.126321,-0.190265,-0.052784,0.082441,0.001622,0.999997,0.002268,-0.000632,-0.000951,0.628833,0.709587,0.087060,-0.305740,91.514330,32.914727,-18.111431
29547,-5.421509,8.712491,0.197763,0.048821,-0.471752,0.439842,0.179496,-0.101984,-0.287971,-0.054091,0.087201,0.002028,0.999998,0.000897,-0.000510,-0.001440,0.627821,0.709861,0.087431,-0.307074,91.579243,33.075302,-18.180216
29548,-5.721384,9.003081,0.091031,0.028248,-0.352862,0.849042,-0.216642,-0.113977,-0.386776,-0.057040,0.090142,0.000780,0.999997,-0.001083,-0.000570,-0.001934,0.628056,0.708829,0.088717,-0.308605,91.413386,33.293988,-18.257924
29549,-5.896337,8.863961,-0.080121,-0.066052,-0.090347,0.832963,-0.620773,-0.166376,-0.534338,-0.058725,0.088794,-0.001126,0.999991,-0.003104,-0.000832,-0.002672,0.629522,0.706372,0.090990,-0.310584,90.996095,33.596119,-18.368859
29550,-5.786546,8.494153,-0.404286,0.018013,0.314327,0.468262,-1.005393,-0.172761,-0.678966,-0.057573,0.085115,-0.004520,0.999981,-0.005027,-0.000864,-0.003395,0.632097,0.702610,0.094343,-0.312876,90.354014,33.981656,-18.489076
29551,-5.657722,7.526946,-0.590707,-0.235191,0.706177,-0.407456,-1.236697,-0.157823,-0.788652,-0.056275,0.075453,-0.006418,0.999973,-0.006183,-0.000789,-0.003943,0.635288,0.698056,0.098491,-0.315320,89.580899,34.427430,-18.603037
29552,-5.531054,6.471584,-0.551127,-0.620198,0.884898,-1.350478,-1.191282,-0.129398,-0.882187,-0.055021,0.064924,-0.005933,0.999972,-0.005956,-0.000647,-0.004411,0.638113,0.693609,0.102975,-0.317985,88.839472,34.927131,-18.707951
29553,-5.529839,5.777714,-0.401389,-0.956123,0.901976,-1.913716,-0.898607,-0.101786,-0.949594,-0.055021,0.058020,-0.004302,0.999979,-0.004493,-0.000509,-0.004748,0.639781,0.690069,0.107315,-0.320886,88.270926,35.463442,-18.800263
29554,-5.347945,5.829094,-0.002509,-0.825941,0.486242,-1.960318,-0.439882,-0.079433,-0.940997,-0.053204,0.058541,-0.000175,0.999986,-0.002199,-0.000397,-0.004705,0.639835,0.688015,0.110954,-0.323937,87.970785,35.996210,-18.884218
29555,-5.640719,6.893111,0.987475,-0.664798,-0.555034,-0.893208,-0.094995,0.065564,-1.000155,-0.056058,0.069217,0.009860,0.999987,-0.000475,0.000328,-0.005001,0.638521,0.687247,0.114702,-0.326842,87.925921,36.564077,-18.867257
29556,-6.033863,7.625338,1.339556,-0.553167,-0.924625,-0.056366,-0.278018,0.098464,-1.064333,-0.059925,0.076592,0.013319,0.999985,-0.001390,0.000492,-0.005322,0.637682,0.685895,0.119067,-0.329746,87.789003,37.171058,-18.831787
29557,-6.170407,7.728987,0.806454,-0.323184,-0.401790,0.096623,-0.572843,0.016809,-1.103393,-0.061276,0.077651,0.007848,0.999981,-0.002864,0.000084,-0.005517,0.637829,0.683420,0.123792,-0.332847,87.444990,37.796933,-18.856969
29558,-6.034684,6.975061,-0.404186,-0.192370,0.855376,-0.622345,-0.861139,-0.033883,-1.133012,-0.059950,0.070073,-0.004353,0.999975,-0.004306,-0.000169,-0.005665,0.638902,0.679894,0.128925,-0.336046,86.908261,38.439819,-18.929226
29559,-5.774602,5.658352,-0.556586,-0.641494,1.159104,-1.817891,-0.943380,0.039566,-1.218712,-0.057401,0.056907,-0.005822,0.999970,-0.004717,0.000198,-0.006094,0.640041,0.676135,0.134721,-0.339174,86.349876,39.131981,-18.956987
29560,-5.980946,5.136920,0.049869,-1.179946,0.719118,-2.050491,-0.847878,0.166426,-1.359724,-0.059458,0.051776,0.000329,0.999968,-0.004239,0.000832,-0.006799,0.640480,0.672762,0.141226,-0.342390,85.896207,39.911207,-18.908531
29561,-6.071963,5.476570,0.235872,-0.964538,0.524498,-1.706497,-1.089747,0.206505,-1.471560,-0.060312,0.055222,0.002121,0.999958,-0.005449,0.001033,-0.007358,0.641479,0.668553,0.148643,-0.345611,85.314020,40.754646,-18.842598
29562,-5.624642,5.372534,-1.105020,-0.224152,1.737222,-2.154200,-1.357504,0.281091,-1.506813,-0.055856,0.054071,-0.011338,0.999948,-0.006787,0.001405,-0.007534,0.643181,0.663527,0.156862,-0.348489,84.607357,41.624399,-18.736873
29563,-5.460951,4.417533,-0.633064,-0.750605,1.376375,-2.936738,-0.951684,0.281494,-1.472042,-0.054292,0.044545,-0.006465,0.999961,-0.004758,0.001407,-0.007360,0.643553,0.659772,0.164249,-0.351515,84.129043,42.473220,-18.636181
29564,-5.643333,4.051254,0.052999,-1.199134,0.795808,-3.016317,-0.597976,0.247478,-1.384480,-0.056150,0.040903,0.000478,0.999971,-0.002990,0.001237,-0.006922,0.642881,0.657125,0.170605,-0.354661,83.837498,43.272645,-18.563287
29565,-5.749262,4.323696,0.239087,-1.041786,0.589198,-2.715342,-0.163191,0.249321,-1.301833,-0.057207,0.043612,0.002427,0.999978,-0.000816,0.001247,-0.006509,0.640908,0.655913,0.175916,-0.357866,83.799614,44.023207,-18.482025
29566,-5.748945,5.214046,-0.315557,-0.205952,0.982030,-2.110181,0.255106,0.277872,-1.221363,-0.057174,0.052494,-0.003009,0.999980,0.001276,0.001389,-0.006107,0.637638,0.656140,0.180298,-0.361096,84.025366,44.731794,-18.370653
29567,-5.991146,5.588715,-0.036575,-0.094392,0.660248,-1.646715,0.529968,0.339169,-1.161560,-0.059586,0.056234,-0.000116,0.999978,0.002650,0.001696,-0.005808,0.633510,0.657377,0.184177,-0.364142,84.452443,45.407109,-18.195657
29568,-6.472131,5.562493,0.321869,-0.447415,0.339355,-1.291132,0.867158,0.428211,-1.076030,-0.064413,0.055957,0.003599,0.999974,0.004336,0.002141,-0.005380,0.628300,0.659895,0.187435,-0.366941,85.139782,46.039284,-17.931883
29569,-7.603114,6.222593,0.872051,-0.804458,-0.158962,0.016569,1.507653,0.337138,-0.929108,-0.075726,0.062509,0.009319,0.999959,0.007538,0.001686,-0.004645,0.621307,0.664348,0.188733,-0.370133,86.159236,46.578460,-17.716008
29570,-8.503851,7.433806,1.770506,-0.735655,-1.186967,1.534503,2.156265,0.154942,-0.728326,-0.084753,0.074450,0.018573,0.999935,0.010781,0.000775,-0.003642,0.612620,0.670603,0.187578,-0.373902,87.461225,46.996174,-17.627189
29571,-8.636578,8.794965,2.324754,-0.018887,-2.139224,2.547140,2.446130,0.093099,-0.595384,-0.086093,0.087913,0.024363,0.999921,0.012230,0.000465,-0.002977,0.603197,0.677654,0.185219,-0.377666,88.904479,47.332681,-17.569656
29572,-8.575547,10.222720,1.273383,1.307730,-1.663713,3.422977,2.158256,0.076762,-0.543311,-0.085472,0.102314,0.013870,0.999938,0.010791,0.000384,-0.002716,0.594759,0.683762,0.183146,-0.381037,90.182446,47.640565,-17.516478
29573,-8.967347,11.089554,1.895872,1.451561,-2.602537,4.262151,2.036213,0.019435,-0.491570,-0.089399,0.110915,0.020097,0.999945,0.010181,0.000097,-0.002458,0.586839,0.689362,0.180942,-0.384266,91.361067,47.916060,-17.499702
29574,-9.134957,12.077091,2.231917,1.910839,-3.326442,5.005075,1.309981,0.006300,-0.482851,-0.091057,0.120841,0.023113,0.999976,0.006550,0.000031,-0.002414,0.581386,0.692762,0.180041,-0.386855,92.120397,48.188559,-17.490797
29575,-8.780415,11.934115,1.575686,2.272811,-2.849069,4.634396,0.268553,0.031151,-0.472048,-0.087520,0.119527,0.015931,0.999996,0.001343,0.000156,-0.002360,0.579542,0.693170,0.181194,-0.388350,92.301278,48.452253,-17.454005
29576,-8.297094,11.813883,1.250640,2.652057,-2.630295,4.188084,-0.161455,-0.035606,-0.339698,-0.082772,0.118290,0.012396,0.999998,-0.000807,-0.000178,-0.001698,0.579486,0.692320,0.182514,-0.389329,92.189048,48.643206,-17.483076
29577,-7.841728,11.929870,1.116174,3.116783,-2.583400,3.923082,-0.705783,-0.041215,-0.148074,-0.078331,0.119395,0.010724,0.999993,-0.003529,-0.000206,-0.000740,0.581704,0.690051,0.184227,-0.389244,91.756372,48.722914,-17.520122
29578,-8.095437,10.759270,0.768833,2.289633,-1.808105,3.354548,-1.211744,0.043137,0.017032,-0.080962,0.107630,0.007054,0.999982,-0.006059,0.000216,0.000085,0.585884,0.686609,0.186581,-0.387937,91.084397,48.707613,-17.492670
29579,-8.484098,9.260749,0.135334,1.210375,-0.646908,2.672308,-1.271951,0.036870,0.138997,-0.084905,0.092555,0.000780,0.999980,-0.006360,0.000184,0.000695,0.590503,0.683065,0.188623,-0.386198,90.373867,48.621738,-17.467750
29580,-8.267535,8.319918,-0.602258,0.900114,0.329871,1.892707,-0.838593,-0.044695,0.334638,-0.082813,0.083034,-0.006389,0.999990,-0.004193,-0.000223,0.001673,0.594069,0.680807,0.188897,-0.384579,89.858456,48.424724,-17.516255
29581,-7.961420,7.900714,-0.756067,0.805215,0.574257,1.385465,-0.163610,-0.200679,0.548879,-0.079823,0.078782,-0.007705,0.999995,-0.000818,-0.001003,0.002744,0.595897,0.680446,0.186693,-0.383465,89.632946,48.103697,-17.692210
29582,-7.430037,7.791566,-1.507024,1.232439,1.240442,0.917042,0.145982,-0.138782,0.656512,-0.074545,0.077682,-0.015065,0.999994,0.000730,-0.000694,0.003283,0.596806,0.681219,0.183700,-0.382122,89.626054,47.721558,-17.815609
29583,-7.309619,7.236630,-1.825834,0.943089,1.648806,0.459827,0.369802,0.033890,0.717004,-0.073358,0.072137,-0.018112,0.999992,0.001849,0.000169,0.003585,0.596909,0.683035,0.180598,-0.380193,89.856819,47.304802,-17.789370
29584,-7.555856,6.911650,-1.081749,0.246452,1.048256,0.428002,0.712513,0.026600,0.833730,-0.075847,0.068839,-0.010562,0.999985,0.003563,0.000133,0.004169,0.596051,0.685950,0.176414,-0.378251,90.276160,46.821549,-17.774770
29585,-7.424381,7.333501,-0.584387,0.371282,0.430390,0.623745,0.803543,-0.090569,0.940105,-0.074585,0.073008,-0.005584,0.999981,0.004018,-0.000453,0.004700,0.595170,0.688984,0.171343,-0.376451,90.672781,46.277369,-17.861980
29586,-6.829786,7.925125,-0.435364,1.012803,0.013644,0.609222,0.592068,-0.127481,0.987425,-0.068685,0.078925,-0.004163,0.999983,0.002960,-0.000637,0.004937,0.595111,0.691335,0.166388,-0.374451,90.923808,45.707163,-17.984957
29587,-6.612134,8.031952,-0.383165,1.109067,-0.099183,0.538093,0.165404,-0.018091,0.967446,-0.066508,0.080002,-0.003771,0.999988,0.000827,-0.000090,0.004837,0.596386,0.692585,0.162625,-0.371757,90.994443,45.147151,-18.018184
29588,-6.827031,7.534714,-1.328020,0.843023,0.988467,0.358617,-0.207221,0.135318,0.878128,-0.068609,0.075033,-0.013312,0.999990,-0.001036,0.000677,0.004391,0.598645,0.692919,0.160315,-0.368492,90.940264,44.637118,-17.926557
29589,-6.909350,6.629019,-1.008809,0.003961,0.952014,-0.231780,-0.378772,0.170103,0.826100,-0.069375,0.065985,-0.010154,0.999989,-0.001894,0.000851,0.004130,0.601363,0.692748,0.158605,-0.365112,90.807537,44.156402,-17.805407
29590,-6.934429,5.829194,-1.027481,-0.604601,1.194569,-0.794455,-0.386356,0.125616,0.766987,-0.069574,0.058005,-0.010343,0.999991,-0.001932,0.000628,0.003835,0.604021,0.692413,0.156977,-0.362052,90.646298,43.710352,-17.718388
29591,-6.949071,5.370045,-0.675266,-1.086944,0.998356,-1.129115,-0.089190,-0.082433,0.736704,-0.069685,0.053441,-0.006805,0.999993,-0.000446,-0.000412,0.003684,0.605751,0.692562,0.154284,-0.360029,90.542310,43.282783,-17.794544
29592,-6.432262,4.928122,-0.247436,-1.209670,0.591892,-1.818462,0.568099,-0.213156,0.775092,-0.064510,0.049038,-0.002404,0.999988,0.002840,-0.001066,0.003875,0.605360,0.694483,0.149879,-0.358844,90.745494,42.834543,-17.973289
29593,-5.953441,4.274198,-0.343897,-1.328368,0.717886,-2.632839,0.997761,-0.189420,0.815344,-0.059705,0.042515,-0.003283,0.999979,0.004989,-0.000947,0.004077,0.603513,0.697754,0.144627,-0.357763,91.206228,42.363346,-18.136509
29594,-6.205788,5.168509,-0.375044,-0.999582,0.591033,-1.811628,1.072471,-0.367516,0.936417,-0.062292,0.051413,-0.003589,0.999973,0.005362,-0.001838,0.004682,0.601718,0.700985,0.138277,-0.356979,91.615109,41.826895,-18.443008
29595,-6.292249,7.598761,-0.338421,0.346717,-0.010206,0.052743,1.188750,-0.633923,1.065122,-0.063316,0.075670,-0.003134,0.999963,0.005944,-0.003170,0.005326,0.599895,0.704134,0.130456,-0.356795,91.954128,41.222327,-18.958320
29596,-6.050915,11.027336,0.593264,2.172724,-1.803017,2.459013,0.824988,-0.462221,0.880669,-0.061008,0.109980,0.006246,0.999979,0.004125,-0.002311,0.004403,0.598871,0.706338,0.124444,-0.356305,92.177770,40.722456,-19.337909
29597,-5.914584,10.933576,0.646001,2.105661,-1.823371,2.319221,-0.642418,-0.068755,0.670307,-0.059514,0.109157,0.006089,0.999989,-0.003212,-0.000344,0.003352,0.602396,0.704694,0.122959,-0.354127,91.761049,40.334089,-19.412045
29598,-6.597047,8.379602,-0.592349,0.477678,0.233486,0.855300,-1.114435,0.085581,0.555743,-0.066206,0.083578,-0.006361,0.999981,-0.005572,0.000428,0.002779,0.607266,0.701810,0.123177,-0.351451,91.153539,40.008908,-19.363385
29599,-7.131402,6.767627,-1.295354,-0.664605,1.489929,-0.031401,-0.857901,0.082643,0.448412,-0.071471,0.067460,-0.013214,0.999988,-0.004289,0.000413,0.002242,0.611031,0.699611,0.123306,-0.349257,90.694555,39.745298,-19.311877
29600,-6.928197,5.707786,-1.239525,-1.203307,1.675935,-0.988956,-0.479979,0.011834,0.447913,-0.069410,0.056893,-0.012528,0.999995,-0.002400,0.000059,0.002240,0.613505,0.698432,0.122561,-0.347539,90.419930,39.482974,-19.310787
29601,-6.594920,5.073346,-0.879075,-1.492523,1.420114,-1.703426,-0.089381,-0.072990,0.444987,-0.066059,0.050583,-0.008837,0.999997,-0.000447,-0.000365,0.002225,0.614658,0.698295,0.120884,-0.346363,90.329627,39.222301,-19.371701
29602,-6.063157,5.381497,-1.118092,-0.877001,1.456215,-1.807521,0.277758,-0.105336,0.541234,-0.060771,0.053666,-0.011138,0.999995,0.001389,-0.000527,0.002706,0.614708,0.699284,0.118140,-0.345223,90.435208,38.907242,-19.456183
29603,-6.096777,6.039277,0.064308,-0.956768,0.205475,-1.286852,0.640968,-0.146020,0.437226,-0.061100,0.060257,0.000792,0.999992,0.003205,-0.000730,0.002186,0.613327,0.701248,0.115001,-0.344755,90.729808,38.651613,-19.571430
29604,-5.758268,6.891498,0.359062,-0.349845,-0.366217,-0.839244,0.440292,0.010606,0.236311,-0.057664,0.068839,0.003745,0.999997,0.002201,0.000053,0.001182,0.612203,0.702745,0.113397,-0.344237,90.982503,38.510965,-19.570525
29605,-5.731278,7.106819,0.604714,-0.308045,-0.656836,-0.691626,-0.177293,0.067067,0.091182,-0.057343,0.071047,0.006003,0.999999,-0.000886,0.000335,0.000456,0.612969,0.702361,0.113532,-0.343611,90.907392,38.452138,-19.527238
29606,-5.905818,6.104384,0.093083,-0.841532,0.107290,-1.360993,-0.459890,0.149040,-0.022458,-0.059051,0.061052,0.000834,0.999997,-0.002299,0.000745,-0.000112,0.614478,0.701187,0.114806,-0.342888,90.708921,38.458634,-19.422666
29607,-5.926966,5.558116,-0.164250,-1.077673,0.493189,-1.772545,-0.499184,0.086456,-0.079104,-0.059248,0.055600,-0.001756,0.999997,-0.002496,0.000432,-0.000396,0.616065,0.699747,0.116150,-0.342530,90.459290,38.497470,-19.363448
29608,-5.559876,5.343788,-0.293883,-0.874423,0.589113,-2.167891,-0.540411,-0.015691,-0.094169,-0.055573,0.053456,-0.003088,0.999996,-0.002702,-0.000078,-0.000471,0.617820,0.697993,0.117304,-0.342555,90.139808,38.546422,-19.379458
29609,-5.100023,5.591146,-1.059992,-0.120767,1.165862,-2.261472,-0.504339,0.027936,-0.106547,-0.050972,0.055912,-0.010734,0.999997,-0.002522,0.000140,-0.000533,0.619404,0.696411,0.118572,-0.342479,89.860292,38.601454,-19.363557
29610,-5.268702,6.301538,-0.970586,0.152934,0.995894,-1.603215,-0.164052,0.029945,-0.049220,-0.052673,0.063020,-0.009750,1.000000,-0.000820,0.000150,-0.000246,0.619890,0.695920,0.119067,-0.342425,89.777194,38.624740,-19.346301
29611,-5.501217,7.442944,-0.302986,0.437188,0.195847,-0.564816,0.058527,0.004766,-0.003405,-0.055011,0.074431,-0.003007,1.000000,0.000293,0.000024,-0.000017,0.619703,0.696100,0.118938,-0.342442,89.809599,38.620673,-19.347362
29612,-5.299913,8.529336,-1.804311,1.721736,1.349069,0.152742,-0.331796,0.128334,-0.021544,-0.053002,0.085269,-0.018151,0.999998,-0.001659,0.000642,-0.000108,0.620761,0.695273,0.119930,-0.341858,89.675591,38.628338,-19.257614
29613,-5.593675,8.438921,-1.153396,1.245990,0.848621,0.265121,-0.408124,0.225220,-0.095093,-0.055910,0.084392,-0.011643,0.999997,-0.002041,0.001126,-0.000475,0.621905,0.694326,0.121603,-0.341113,89.541369,38.677664,-19.097381
29614,-5.582696,7.700733,-1.060134,0.801429,0.934873,-0.321892,-0.841574,0.300534,-0.142846,-0.055788,0.077002,-0.010842,0.999990,-0.004208,0.001503,-0.000714,0.624415,0.692124,0.124424,-0.339985,89.194230,38.756203,-18.880794
29615,-5.501498,5.305446,-0.785540,-0.638467,1.141479,-2.241648,-0.839595,0.323872,-0.154739,-0.054987,0.053064,-0.007989,0.999990,-0.004198,0.001619,-0.000774,0.626874,0.689943,0.127342,-0.338810,88.857880,38.841930,-18.649114
29616,-5.358476,3.861055,-0.546564,-1.473497,1.140530,-3.452838,0.252469,0.333253,0.045776,-0.053603,0.038605,-0.005328,0.999998,0.001262,0.001666,0.000229,0.625887,0.691324,0.127760,-0.337660,89.154508,38.813801,-18.406001
29617,-6.044977,4.458521,0.264838,-1.915134,0.368989,-2.554229,2.452189,0.025861,0.507982,-0.060562,0.044394,0.003201,0.999922,0.012261,0.000129,0.002540,0.618227,0.699305,0.121881,-0.337509,90.568617,38.516771,-18.390681
29618,-6.789193,8.360264,1.340601,-0.685870,-1.459920,0.919034,4.896044,-0.729184,0.905323,-0.068322,0.082937,0.015193,0.999683,0.024478,-0.003646,0.004526,0.602904,0.713535,0.108120,-0.340125,93.029523,38.006718,-18.946466
29619,-6.440790,17.096832,3.685425,3.315205,-6.297286,7.411870,3.910115,-0.964898,0.761534,-0.065244,0.169961,0.039870,0.999790,0.019549,-0.004824,0.003807,0.590669,0.723934,0.095768,-0.343304,94.815293,37.603495,-19.687304
29620,-6.611522,19.379081,4.088082,4.225654,-7.311832,9.282629,-2.478527,-0.175098,-0.683865,-0.065485,0.194502,0.038416,0.999917,-0.012392,-0.000875,-0.003419,0.598521,0.715920,0.101923,-0.344736,93.336097,37.996529,-19.783314
29621,-8.137395,10.336800,-0.490361,0.162768,0.178669,3.348055,-7.367299,1.066092,-2.164437,-0.080289,0.103977,-0.008297,0.999249,-0.036827,0.005329,-0.010819,0.620188,0.694067,0.125423,-0.343375,89.624338,39.214299,-18.965902
29622,-6.927298,4.073855,-6.265371,-0.706668,6.996782,-2.439059,-9.026116,2.365182,-3.067913,-0.069415,0.038946,-0.063618,0.998794,-0.045112,0.011821,-0.015333,0.644028,0.667382,0.158680,-0.338601,85.526612,41.021394,-17.298280
29623,-3.964991,-3.182344,-10.962838,-2.573594,11.788295,-10.433711,-7.817610,1.439831,-2.780661,-0.040908,-0.035504,-0.107997,0.999114,-0.039076,0.007197,-0.013899,0.663714,0.641851,0.185628,-0.336235,81.618575,42.690170,-16.441211
29624,-3.252163,-14.666870,-0.806541,-12.198686,2.276562,-18.318615,0.786217,-0.726848,-0.774696,-0.033058,-0.146508,-0.008761,0.999978,0.003931,-0.003634,-0.003873,0.660570,0.642507,0.184350,-0.341830,81.625947,43.063442,-17.090783
29625,-1.090066,-0.361900,0.003537,-1.009862,0.273148,-9.338746,8.659014,-1.081446,1.377483,-0.010875,-0.003689,-0.000182,0.999025,0.043281,-0.005405,0.006885,0.635493,0.669888,0.161328,-0.348385,86.094838,42.206354,-17.817175
29626,-11.517839,14.314146,0.664005,0.693944,-0.565954,8.545855,9.838156,-1.234017,2.703454,-0.117162,0.141034,0.012895,0.998680,0.049169,-0.006167,0.013511,0.607431,0.700282,0.130974,-0.351395,91.140069,40.637222,-18.712899
29627,-6.930917,27.197678,10.871379,8.017294,-14.639183,15.234259,-0.465558,-1.564707,-0.216270,-0.069859,0.272303,0.107535,0.999966,-0.002328,-0.007823,-0.001081,0.609710,0.695947,0.127739,-0.357203,90.099752,40.764862,-19.898405
29628,-3.173266,7.352548,-2.179970,3.049494,1.410645,-2.224640,-6.067294,1.581444,-1.226207,-0.031467,0.073018,-0.023771,0.999490,-0.030331,0.007906,-0.006130,0.627330,0.679132,0.147543,-0.351380,87.397226,41.481881,-18.721575
29629,-5.949681,2.888464,-4.387410,-1.120108,5.115563,-3.848867,-1.932313,1.880368,-1.081899,-0.059752,0.028785,-0.043592,0.999895,-0.009661,0.009402,-0.005409,0.630563,0.675500,0.160440,-0.346914,87.223338,42.145498,-17.321096
29630,-10.432890,5.712219,-2.697132,-2.924416,3.915254,1.361531,1.821518,1.029576,-0.489358,-0.104324,0.057617,-0.025911,0.999942,0.009107,0.005148,-0.002447,0.622719,0.682597,0.162120,-0.346409,88.792033,42.440657,-16.541301
29631,-9.971580,9.432751,-2.079326,-0.335175,2.365206,3.862915,2.931223,-0.642996,-0.050924,-0.099627,0.094647,-0.019728,0.999887,0.014656,-0.003215,-0.000255,0.613104,0.690486,0.155143,-0.351087,90.130600,42.460326,-17.045689
29632,-6.587851,11.560766,1.350680,2.392465,-2.221535,3.157109,1.281867,-0.869463,-0.100508,-0.065880,0.115552,0.013961,0.999970,0.006409,-0.004347,-0.000503,0.609179,0.692789,0.150534,-0.355366,90.406799,42.515631,-17.723237
29633,-4.869211,8.982411,2.813543,1.519202,-3.486160,0.079076,-0.666214,0.444952,-0.602352,-0.048359,0.090063,0.027944,0.999987,-0.003331,0.002225,-0.003012,0.610100,0.691082,0.155104,-0.355142,90.258261,42.853281,-17.378612
29634,-6.406470,6.329145,1.172189,-0.696609,-1.044920,-0.818399,-0.861331,0.991402,-0.780271,-0.063759,0.063591,0.011765,0.999971,-0.004307,0.004957,-0.003901,0.610921,0.689590,0.162296,-0.353413,90.295209,43.292325,-16.602983
29635,-6.606882,6.093305,-0.027504,-0.594803,0.152356,-0.845927,-0.087222,0.686740,-0.382312,-0.065953,0.061059,-0.000075,0.999992,-0.000436,0.003434,-0.001912,0.610010,0.690217,0.165811,-0.352128,90.615038,43.502263,-16.064061
29636,-6.641282,7.382278,-0.327221,0.305261,0.132221,0.117095,0.999050,-0.014957,0.219888,-0.066494,0.073765,-0.002909,0.999987,0.004995,-0.000075,0.001099,0.606973,0.693410,0.163197,-0.352325,91.174615,43.371356,-16.083042
29637,-5.908533,8.086447,0.396308,0.999906,-0.930505,0.116634,1.540299,-0.224188,0.592142,-0.059329,0.080656,0.004518,0.999965,0.007701,-0.001121,0.002961,0.602864,0.698144,0.157691,-0.352539,91.923982,43.029775,-16.276886
29638,-6.707661,8.456059,1.801871,0.136072,-2.291528,0.886469,1.702939,0.186193,0.713921,-0.067360,0.084163,0.018799,0.999957,0.008515,0.000931,0.003570,0.598025,0.704135,0.152704,-0.351056,92.979194,42.611473,-16.159967
29639,-8.958100,8.987857,3.383869,-1.778871,-3.589046,2.694461,1.908303,0.320594,0.835703,-0.089899,0.089174,0.034836,0.999944,0.009541,0.001603,0.004178,0.592522,0.710998,0.147308,-0.348856,94.208337,42.116314,-15.957808
29640,-10.016691,12.118658,1.266200,-0.119889,-2.341131,5.785252,2.273505,-0.019026,0.860952,-0.100688,0.120600,0.014026,0.999926,0.011367,-0.000095,0.004305,0.585932,0.718277,0.140165,-0.348017,95.460332,41.620941,-16.033561
29641,-9.850370,17.126398,0.087888,3.239072,-2.802708,9.474627,1.376692,-0.655928,0.630182,-0.099047,0.170942,0.001732,0.999966,0.006883,-0.003280,0.003151,0.582550,0.721580,0.133525,-0.349471,95.883105,41.293157,-16.585703
29642,-6.828454,18.625799,1.725743,5.660419,-5.387627,8.502803,-0.652737,-0.510978,0.241478,-0.068552,0.186230,0.016475,0.999991,-0.003264,-0.002555,0.001207,0.585684,0.718933,0.132244,-0.350173,95.237480,41.178601,-16.998104
29643,-5.954871,14.440974,1.500711,3.931510,-3.947096,4.857212,-2.656657,0.080261,0.085119,-0.059605,0.144567,0.013111,0.999912,-0.013283,0.000401,0.000426,0.595303,0.711280,0.136758,-0.347839,93.748066,41.120671,-16.947645
29644,-6.844488,9.265585,0.621589,0.563050,-1.273833,1.638725,-3.919962,0.272548,0.035682,-0.068455,0.092743,0.004492,0.999807,-0.019599,0.001363,0.000178,0.609032,0.699966,0.144172,-0.344009,91.632783,41.086732,-16.748061
29645,-6.615389,4.061624,-1.308634,-1.848343,1.872716,-2.393286,-4.257792,0.559872,-0.117192,-0.066168,0.040367,-0.013762,0.999769,-0.021287,0.002799,-0.000586,0.623212,0.687713,0.153523,-0.339248,89.470134,41.144812,-16.326278
29646,-6.443307,-0.347443,-3.604956,-3.936436,4.878515,-5.896592,-3.576827,0.584331,-0.180427,-0.064541,-0.004058,-0.035792,0.999835,-0.017883,0.002921,-0.000902,0.634684,0.677297,0.161959,-0.334985,87.707260,41.250651,-15.888841
29647,-7.034715,-2.998798,-3.359038,-6.212430,5.108040,-7.559666,-2.107557,-0.258479,0.079565,-0.070292,-0.030368,-0.033363,0.999944,-0.010538,-0.001292,0.000398,0.642153,0.670197,0.164336,-0.333870,86.368896,41.191290,-16.086660
29648,-5.906910,-2.906282,-1.659638,-5.745744,3.236550,-8.199354,2.041935,-0.545074,0.722785,-0.058918,-0.029103,-0.017054,0.999938,0.010209,-0.002725,0.003614,0.636945,0.676392,0.156694,-0.335026,87.285023,40.755150,-16.473926
29649,-5.625982,2.434033,-1.886707,-2.068431,2.646205,-4.348792,5.643560,-0.691453,1.505867,-0.056380,0.024439,-0.018373,0.999568,0.028214,-0.003457,0.007528,0.620674,0.694087,0.139826,-0.336832,90.195276,39.877876,-16.972940
29650,-7.031866,9.611503,-0.914693,0.825210,0.358765,2.096260,7.339829,-1.523201,1.751014,-0.071104,0.095758,-0.006167,0.999259,0.036690,-0.007614,0.008753,0.598776,0.715000,0.116504,-0.341570,93.653838,38.900060,-18.151522
29651,-4.185342,19.429175,6.114990,5.704954,-9.762893,7.637776,2.071725,-1.633300,1.406601,-0.043724,0.193344,0.062804,0.999888,0.010358,-0.008166,0.007033,0.594680,0.719145,0.102980,-0.344356,94.050737,38.153054,-19.419278
29652,-3.207586,12.348005,1.246668,4.092062,-3.542548,1.806913,-2.379249,0.651475,0.219009,-0.032174,0.123582,0.011102,0.999923,-0.011896,0.003257,0.001095,0.603248,0.713242,0.108159,-0.340116,92.969742,38.000129,-18.962403
29653,-7.009520,8.502142,-1.590314,0.143576,1.220295,1.252489,-1.899368,0.810006,0.042207,-0.070179,0.084852,-0.016425,0.999947,-0.009497,0.004050,0.000211,0.609647,0.708868,0.113621,-0.336045,92.239045,37.949046,-18.380535
29654,-7.667685,7.806869,-2.017519,-0.602476,2.065977,1.104196,-1.472320,-0.030194,0.275302,-0.076781,0.077812,-0.020760,0.999972,-0.007362,-0.000151,0.001376,0.615351,0.704456,0.114960,-0.334468,91.373909,37.786284,-18.415590
29655,-6.111597,7.568578,-1.817190,0.359270,1.667316,-0.064519,-1.268639,-0.386466,0.310877,-0.061198,0.075473,-0.018769,0.999977,-0.006343,-0.001932,0.001554,0.620571,0.700062,0.114740,-0.334125,90.470426,37.605805,-18.703648
29656,-5.457217,6.560575,-1.859289,0.286865,1.859650,-1.284038,-1.321865,-0.169693,0.184175,-0.054616,0.065430,-0.019072,0.999977,-0.006609,-0.000848,0.000921,0.625611,0.695759,0.115722,-0.333375,89.634942,37.494900,-18.831201
29657,-5.329255,5.268655,-1.750724,-0.395804,2.051962,-2.406125,-1.126356,-0.021107,0.074665,-0.053310,0.052567,-0.017809,0.999984,-0.005632,-0.000106,0.000373,0.629680,0.692226,0.117217,-0.332546,88.977569,37.445929,-18.850189
29658,-4.895194,4.335785,-2.149342,-0.488556,2.534966,-3.431717,-0.797174,0.091391,0.040708,-0.048971,0.043262,-0.021644,0.999992,-0.003986,0.000457,0.000204,0.632469,0.689881,0.118641,-0.331620,88.558686,37.418293,-18.787185
29659,-4.907697,4.120683,-2.445861,-0.539729,2.877760,-3.609871,-0.214904,0.098459,0.097943,-0.049109,0.041156,-0.024479,0.999999,-0.001075,0.000492,0.000490,0.633338,0.689416,0.118916,-0.330830,88.476688,37.357559,-18.718676
29660,-5.161395,4.475981,-1.759745,-0.743900,2.225477,-3.159498,0.458490,-0.049026,0.171824,-0.051648,0.044756,-0.017508,0.999997,0.002292,-0.000245,0.000859,0.632090,0.690881,0.117366,-0.330712,88.717373,37.253065,-18.753973
29661,-5.061029,5.269532,-0.969542,-0.466382,1.288222,-2.570805,0.777958,-0.123802,0.171700,-0.050650,0.052689,-0.009522,0.999992,0.003890,-0.000619,0.000859,0.629778,0.693224,0.115039,-0.331039,89.107607,37.147288,-18.845001
29662,-4.606886,5.912020,-0.744729,0.160622,0.812096,-2.326392,0.555599,-0.010774,0.062973,-0.046087,0.059126,-0.007286,0.999996,0.002778,-0.000054,0.000315,0.627982,0.694984,0.113828,-0.331178,89.419477,37.105975,-18.854404
29663,-4.380725,5.759704,-1.037028,0.328172,1.034730,-2.583443,0.155918,0.255619,-0.059098,-0.043803,0.057618,-0.010269,0.999999,0.000780,0.001278,-0.000295,0.627220,0.695856,0.114523,-0.330552,89.616311,37.135033,-18.675500
29664,-4.954994,5.123694,-0.600982,-0.613850,0.855765,-2.737655,0.408940,0.426165,-0.115535,-0.049533,0.051278,-0.005799,0.999995,0.002045,0.002131,-0.000578,0.625378,0.697770,0.115542,-0.329650,90.033522,37.196769,-18.372198
29665,-5.691873,5.615653,-0.502065,-0.927675,0.799094,-1.895268,0.827494,0.335788,-0.151429,-0.056884,0.056219,-0.004693,0.999990,0.004137,0.001679,-0.000757,0.622065,0.700810,0.115701,-0.329415,90.651055,37.276398,-18.134421
29666,-5.877801,6.263341,-0.351979,-0.753884,0.504214,-1.264071,1.013933,0.144891,-0.172887,-0.058726,0.062701,-0.003159,0.999987,0.005070,0.000724,-0.000864,0.618153,0.704090,0.115041,-0.330014,91.294539,37.369019,-18.031132
29667,-5.943039,7.166602,0.039266,-0.425769,-0.123236,-0.513000,1.256785,0.088903,-0.199579,-0.059359,0.071721,0.000870,0.999980,0.006284,0.000445,-0.000998,0.613359,0.707985,0.113888,-0.331024,92.052810,37.475935,-17.967524
29668,-6.143711,8.623723,0.579640,0.059526,-1.004433,0.743661,1.105585,0.029486,-0.266098,-0.061321,0.086285,0.006282,0.999984,0.005528,0.000147,-0.001330,0.608998,0.711258,0.113051,-0.332344,92.701988,37.622816,-17.940707
29669,-6.108910,8.852428,1.216681,0.012766,-1.740281,0.870735,0.346935,0.103944,-0.466551,-0.060876,0.088645,0.012352,0.999996,0.001735,0.000520,-0.002333,0.606951,0.712214,0.114395,-0.333579,92.953584,37.881047,-17.853675
29670,-6.179799,7.870943,0.190239,-0.207246,-0.559690,0.178375,-0.182047,0.219690,-0.619948,-0.061552,0.078902,0.001898,0.999994,-0.000910,0.001098,-0.003100,0.606454,0.711666,0.117526,-0.334564,92.959513,38.224421,-17.674789
29671,-6.408608,7.796238,0.369479,-0.418612,-0.670086,0.255255,-0.330830,0.183148,-0.647701,-0.063830,0.078175,0.003624,0.999993,-0.001654,0.000916,-0.003238,0.606460,0.710577,0.120884,-0.335669,92.864451,38.583903,-17.521929
29672,-6.776975,8.255695,0.855522,-0.513541,-1.151365,0.828077,-0.473313,0.110211,-0.684034,-0.067482,0.082808,0.008397,0.999991,-0.002367,0.000551,-0.003420,0.606941,0.708902,0.124397,-0.337054,92.656337,38.967493,-17.420758
29673,-6.911036,8.677941,0.954123,-0.304316,-1.282896,1.243525,-0.902278,-0.065758,-0.717168,-0.068802,0.087068,0.009126,0.999983,-0.004511,-0.000329,-0.003586,0.608986,0.705589,0.128203,-0.338886,92.119072,39.373763,-17.452148
29674,-6.429291,9.146850,0.171628,0.695607,-0.680680,1.326464,-1.457082,-0.103854,-0.733244,-0.063958,0.091712,0.001015,0.999967,-0.007285,-0.000519,-0.003666,0.612942,0.700482,0.132873,-0.340547,91.242308,39.790383,-17.520444
29675,-5.986710,9.554999,-0.211868,1.510052,-0.385882,1.356541,-1.730955,0.014023,-0.718725,-0.059523,0.095741,-0.002943,0.999956,-0.008655,0.000070,-0.003594,0.617769,0.694686,0.138320,-0.341525,90.258281,40.196083,-17.507675
29676,-6.488072,8.879718,0.457838,0.653042,-0.656027,1.155219,-1.699917,0.210215,-0.791870,-0.064524,0.089088,0.003890,0.999955,-0.008499,0.001051,-0.003959,0.622171,0.689210,0.144567,-0.342042,89.382396,40.644903,-17.355876
29677,-6.852664,6.998679,-0.289967,-0.448242,0.576987,-0.040827,-1.865672,0.414702,-0.941236,-0.068203,0.070278,-0.003413,0.999943,-0.009328,0.002073,-0.004706,0.626681,0.683391,0.152229,-0.342162,88.507254,41.182404,-17.059225
29678,-6.158040,5.081780,-1.881428,-0.645886,2.334234,-1.975629,-1.778773,0.539373,-0.889819,-0.061405,0.050922,-0.019101,0.999947,-0.008894,0.002697,-0.004449,0.630813,0.678024,0.159945,-0.341726,87.743249,41.696712,-16.673705
29679,-5.915631,4.115396,-2.077210,-1.009903,2.635273,-2.864209,-0.540811,0.491914,-0.570226,-0.059090,0.041266,-0.020738,0.999989,-0.002704,0.002460,-0.002851,0.631297,0.676691,0.164298,-0.341408,87.670582,42.028306,-16.317576
29680,-7.823054,5.032726,0.514614,-2.425456,0.342818,-0.824231,1.549429,0.103005,-0.173000,-0.078184,0.050353,0.005576,0.999969,0.007747,0.000515,-0.000865,0.625665,0.681598,0.162486,-0.342878,88.605928,42.123713,-16.250332
29681,-8.450102,7.650512,2.531460,-1.757074,-2.014816,1.553643,2.579835,-0.420632,0.031807,-0.084568,0.076158,0.026121,0.999915,0.012899,-0.002103,0.000159,0.617242,0.688910,0.156572,-0.346266,89.862858,42.096224,-16.579529
29682,-6.358379,11.054665,1.240812,2.198528,-2.004220,2.650123,1.649656,-0.383631,0.112061,-0.063670,0.110404,0.013197,0.999964,0.008248,-0.001918,0.000560,0.612042,0.693401,0.152075,-0.348528,90.606589,42.027894,-16.883203
29683,-5.628130,12.551034,1.627049,3.513886,-2.937650,3.259194,0.430469,0.131075,-0.110700,-0.056201,0.125506,0.016577,0.999997,0.002152,0.000655,-0.000553,0.610282,0.694856,0.152055,-0.348728,90.917987,42.084364,-16.785839
29684,-7.155371,11.740169,1.039818,2.099151,-1.900328,3.681545,-0.485895,0.381811,-0.135092,-0.071455,0.117475,0.010249,0.999995,-0.002429,0.001909,-0.000675,0.611460,0.693930,0.154482,-0.347438,90.835192,42.153151,-16.494643
29685,-7.383190,9.922223,-0.029400,1.120610,-0.405660,2.497547,-1.075710,0.241153,-0.073533,-0.073796,0.099246,-0.000739,0.999985,-0.005379,0.001206,-0.000368,0.614895,0.690987,0.157287,-0.345979,90.340647,42.187900,-16.312537
29686,-6.602133,7.893163,-0.519262,0.536492,0.369612,0.470066,-1.007061,0.198925,-0.044264,-0.066009,0.078919,-0.005524,0.999987,-0.005035,0.000995,-0.000221,0.618127,0.688203,0.159666,-0.344677,89.863346,42.206413,-16.174777
29687,-6.514283,6.570447,-1.288623,-0.033361,1.380339,-0.573601,-0.774334,0.408411,-0.046393,-0.065154,0.065669,-0.013007,0.999990,-0.003872,0.002042,-0.000232,0.620405,0.686465,0.162367,-0.342782,89.628213,42.228017,-15.863763
29688,-6.562630,5.508963,-1.739763,-0.639836,2.024425,-1.331186,-0.491099,0.499597,-0.044369,-0.065657,0.055062,-0.017369,0.999994,-0.002455,0.002498,-0.000222,0.621639,0.685748,0.164888,-0.340772,89.603528,42.250231,-15.477336
29689,-6.672632,4.745634,-1.126789,-1.388638,1.577616,-1.819097,-0.003123,0.293942,0.110272,-0.066769,0.047419,-0.011171,0.999999,-0.000016,0.001470,0.000551,0.621620,0.686325,0.165375,-0.339407,89.751191,42.181980,-15.254231
29690,-6.461021,5.344989,-0.873351,-0.942260,1.158915,-1.515385,0.874206,0.089235,0.365199,-0.064712,0.053369,-0.008471,0.999989,0.004371,0.000446,0.001826,0.619179,0.689488,0.162864,-0.338673,90.295588,41.967277,-15.189511
29691,-6.329211,7.439782,-0.251028,0.270028,0.079103,-0.045837,1.895054,-0.149134,0.639424,-0.063528,0.074215,-0.001854,0.999950,0.009475,-0.000746,0.003197,0.613844,0.695583,0.156927,-0.338722,91.296768,41.596193,-15.315811
29692,-6.026521,9.765016,1.309021,1.402951,-2.059529,1.464481,1.957834,-0.279887,0.811928,-0.060680,0.097271,0.013959,0.999943,0.009789,-0.001399,0.004060,0.608612,0.701714,0.149862,-0.338718,92.261608,41.130874,-15.554371
29693,-5.762017,10.423769,0.393206,2.132044,-1.482257,1.817702,1.047147,-0.049369,0.801168,-0.058038,0.103983,0.004463,0.999978,0.005236,-0.000247,0.004006,0.606344,0.705397,0.145069,-0.337219,92.815717,40.667710,-15.623725
29694,-6.723798,9.925762,1.141281,0.765812,-1.960281,2.044861,1.125758,0.002486,0.883304,-0.067675,0.098893,0.011971,0.999974,0.005629,0.000012,0.004416,0.603869,0.709434,0.140021,-0.335320,93.435908,40.156975,-15.660466
29695,-7.521539,10.466944,2.125326,0.042407,-2.942786,2.914533,1.412783,0.072804,0.929877,-0.075693,0.104165,0.022018,0.999964,0.007064,0.000364,0.004649,0.600369,0.714441,0.134515,-0.333221,94.246566,39.616856,-15.657903
29696,-8.654641,11.163891,1.657537,-0.400458,-2.499210,4.182829,0.793173,-0.139118,0.825650,-0.087018,0.111214,0.016957,0.999983,0.003966,-0.000696,0.004128,0.599020,0.717127,0.129777,-0.331754,94.602213,39.145969,-15.812080
29697,-7.997092,10.541111,0.285193,0.058360,-1.158688,3.370745,-0.184684,-0.480790,0.694541,-0.080343,0.105135,0.002562,0.999991,-0.000923,-0.002404,0.003473,0.601165,0.716214,0.126097,-0.331265,94.245815,38.764755,-16.209910
29698,-6.346458,9.385416,-1.466557,1.137653,0.495240,1.544002,-0.334708,-0.266980,0.474836,-0.063667,0.093678,-0.014907,0.999995,-0.001674,-0.001335,0.002374,0.603333,0.715056,0.124071,-0.330590,93.912332,38.498460,-16.438797
29699,-6.049152,8.312146,-1.306093,0.656758,0.589038,0.512592,-0.383507,0.063342,0.369140,-0.060649,0.082984,-0.013201,0.999996,-0.001918,0.000317,0.001846,0.605297,0.714224,0.123521,-0.329001,93.706562,38.279266,-16.415576
29700,-6.917185,7.680022,0.134204,-0.855533,-0.386150,0.481332,-0.381155,-0.073877,0.482682,-0.069357,0.076635,0.001170,0.999995,-0.001906,-0.000369,0.002413,0.607532,0.713230,0.122174,-0.327538,93.437406,38.000566,-16.492301
29701,-6.852913,7.658382,0.703134,-1.043515,-0.872759,0.397913,-0.310774,-0.431872,0.658923,-0.068796,0.076368,0.006764,0.999991,-0.001554,-0.002159,0.003295,0.610001,0.711969,0.118965,-0.326874,93.047540,37.631844,-16.836996
29702,-5.568859,7.491549,-0.559316,0.195389,0.138622,-0.464406,-0.469661,-0.374346,0.640978,-0.055917,0.074723,-0.005873,0.999990,-0.002348,-0.001872,0.003205,0.612987,0.710280,0.116323,-0.325911,92.597007,37.270964,-17.124305
29703,-5.150775,6.499157,-1.268266,0.146251,1.001178,-1.484792,-0.809097,-0.013519,0.491085,-0.051666,0.064813,-0.012949,0.999989,-0.004045,-0.000068,0.002455,0.616685,0.708049,0.115800,-0.323969,92.115463,36.984305,-17.153295
29704,-5.560528,5.589925,-0.934765,-0.809134,1.033599,-1.982155,-0.851757,0.104633,0.391661,-0.055720,0.055750,-0.009556,0.999989,-0.004259,0.000523,0.001958,0.620292,0.705806,0.116085,-0.321869,91.664720,36.752992,-17.088557
29705,-5.796730,4.880493,-0.857742,-1.434752,1.205895,-2.420519,-0.616955,-0.001366,0.378556,-0.058059,0.048668,-0.008728,0.999993,-0.003085,-0.000007,0.001893,0.623099,0.704099,0.115682,-0.320328,91.303239,36.530287,-17.101163
29706,-5.525888,4.739898,-1.425961,-1.153390,1.740192,-2.693925,-0.122343,-0.122997,0.396877,-0.055344,0.047280,-0.014323,0.999998,-0.000612,-0.000615,0.001984,0.624272,0.703737,0.114094,-0.319408,91.174964,36.299791,-17.191823
29707,-5.191676,5.389801,-1.422503,-0.558162,1.543085,-2.373988,0.282847,-0.189428,0.400285,-0.052011,0.053814,-0.014198,0.999997,0.001414,-0.000947,0.002001,0.624045,0.704536,0.111588,-0.318974,91.250937,36.066874,-17.336840
29708,-4.838153,5.912894,-1.152503,-0.105860,1.094297,-2.164842,0.397431,-0.069546,0.340911,-0.048478,0.059069,-0.011424,0.999997,0.001987,-0.000348,0.001705,0.623257,0.705845,0.109531,-0.318334,91.444468,35.868099,-17.388987
29709,-4.874479,6.225047,-1.617197,0.157641,1.467997,-1.878763,0.259822,0.153269,0.210812,-0.048823,0.062220,-0.016054,0.999998,0.001299,0.000766,0.001054,0.622614,0.707006,0.108796,-0.317267,91.651146,35.739088,-17.289351
29710,-5.089956,6.637363,-1.993439,0.312997,1.777782,-1.405696,0.200066,0.164688,0.146903,-0.050965,0.066356,-0.019826,0.999999,0.001000,0.000823,0.000735,0.622121,0.707943,0.108552,-0.316226,91.828766,35.648048,-17.160803
29711,-5.157127,7.271920,-1.661984,0.485425,1.333347,-0.855821,0.254771,0.102547,0.135264,-0.051629,0.072705,-0.016501,0.999999,0.001274,0.000513,0.000676,0.621400,0.708963,0.107934,-0.315569,92.011759,35.562752,-17.096378
29712,-5.368444,7.125004,-0.888047,-0.015269,0.665276,-0.872237,0.154598,0.017743,0.061099,-0.053707,0.071240,-0.008821,1.000000,0.000773,0.000089,0.000305,0.620986,0.709488,0.107539,-0.315340,92.103578,35.522350,-17.080306
29713,-4.775799,6.185018,-1.051450,-0.018879,0.872465,-1.976445,-0.108690,-0.055501,0.024604,-0.047763,0.061839,-0.010561,1.000000,-0.000543,-0.000278,0.000123,0.621462,0.709069,0.107396,-0.315391,92.015089,35.503543,-17.124584
29714,-4.210273,4.976631,-0.314691,-0.469571,0.287310,-3.309669,0.113733,0.008870,0.026273,-0.042109,0.049763,-0.003117,1.000000,0.000569,0.000044,0.000131,0.621117,0.709448,0.107126,-0.315313,92.082087,35.483711,-17.119086
29715,-4.324993,4.456313,0.140352,-0.991924,-0.029630,-3.680878,0.683306,0.134848,-0.032854,-0.043242,0.044565,0.001585,0.999994,0.003417,0.000674,-0.000164,0.618588,0.711754,0.106529,-0.315289,92.525985,35.493570,-17.027984
29716,-5.157527,5.931695,-0.467557,-0.662819,0.375126,-1.975399,1.261487,0.127957,-0.062257,-0.051560,0.059361,-0.004268,0.999980,0.006307,0.000640,-0.000311,0.613949,0.715802,0.105142,-0.315656,93.300325,35.520818,-16.934366
29717,-6.303456,8.223146,0.724378,-0.721299,-1.072867,0.492968,1.076579,-0.143441,-0.222601,-0.062948,0.082261,0.007641,0.999985,0.005383,-0.000717,-0.001113,0.609833,0.718746,0.103743,-0.317403,93.860877,35.647484,-17.030233
29718,-6.725999,10.009889,1.613009,-0.333999,-2.259094,2.138154,-0.439298,-0.167980,-0.804759,-0.066870,0.100404,0.015854,0.999989,-0.002196,-0.000840,-0.004024,0.610242,0.716706,0.106785,-0.320208,93.558310,36.108792,-17.113910
29719,-6.414697,7.889238,0.103922,-0.589645,-0.337270,0.332871,-2.804508,0.324136,-1.528751,-0.063541,0.079385,0.000032,0.999871,-0.014022,0.001621,-0.007643,0.617616,0.707753,0.117673,-0.322163,92.117659,36.968598,-16.833849
29720,-5.393178,4.174547,-1.855524,-1.139441,2.179522,-3.186526,-3.886692,0.905266,-1.977290,-0.053604,0.041909,-0.019126,0.999752,-0.019432,0.004526,-0.009886,0.627542,0.695854,0.133697,-0.322650,90.304009,38.085466,-16.146437
29721,-4.301880,1.619303,-2.724183,-1.530782,3.278719,-5.881258,-3.628088,0.984994,-1.893332,-0.043000,0.016105,-0.027323,0.999779,-0.018139,0.004925,-0.009466,0.636337,0.684635,0.149144,-0.322655,88.665046,39.169235,-15.441056
29722,-4.361710,0.068826,-2.109836,-2.681525,2.933064,-7.040106,-1.966762,-0.072253,-1.136380,-0.043605,0.000728,-0.021121,0.999935,-0.009834,-0.000361,-0.005682,0.641262,0.677372,0.155914,-0.325026,87.484257,39.813419,-15.527486
29723,-5.348557,1.366116,-0.098668,-3.066781,1.014498,-5.335115,1.789015,-0.362162,-0.452084,-0.053453,0.013791,-0.000961,0.999956,0.008945,-0.001811,-0.002260,0.634747,0.682132,0.153316,-0.329069,88.324480,40.058566,-15.814600
29724,-8.567479,6.680304,0.666183,-2.331766,0.013829,0.818724,5.212505,-0.520550,-0.223387,-0.085620,0.066699,0.008178,0.999656,0.026060,-0.002602,-0.001117,0.616763,0.697430,0.143666,-0.335491,91.057263,40.179169,-16.222278
29725,-8.390401,15.512421,3.747415,2.199774,-5.029981,7.360709,3.130740,-1.412801,-0.325505,-0.083925,0.154655,0.039305,0.999851,0.015653,-0.007064,-0.001627,0.606248,0.704371,0.135118,-0.343609,92.166149,40.382475,-17.280875
29726,-4.041711,12.935593,1.427295,4.591430,-3.265613,2.594773,-2.500820,-0.038612,-1.264778,-0.039600,0.129773,0.012644,0.999902,-0.012504,-0.000193,-0.006324,0.612864,0.695794,0.143649,-0.345880,90.724635,41.101700,-17.297573
29727,-5.749901,6.170568,-1.750988,0.305538,1.702256,-1.374039,-2.696884,1.391141,-1.718315,-0.057091,0.061957,-0.017946,0.999848,-0.013484,0.006955,-0.008591,0.618208,0.688591,0.158478,-0.344306,89.887769,42.075984,-16.229670
29728,-8.763744,5.826091,-1.669292,-1.969484,2.287803,0.405818,-0.489229,1.125135,-1.604995,-0.087259,0.058922,-0.016345,0.999949,-0.002446,0.005626,-0.008025,0.616225,0.687706,0.168249,-0.344992,90.195376,42.989582,-15.361408
29729,-10.001063,7.371085,-1.877295,-1.658443,2.345025,2.419526,1.150479,-0.252065,-0.913060,-0.099649,0.074273,-0.018473,0.999972,0.005752,-0.001260,-0.004565,0.610915,0.690024,0.168570,-0.349619,90.718764,43.507900,-15.558875
29730,-8.148646,10.168773,-0.462483,1.177940,-0.025698,3.173023,1.714859,-1.095738,-0.670651,-0.081121,0.101997,-0.004196,0.999943,0.008574,-0.005479,-0.003353,0.604715,0.692754,0.164444,-0.356890,91.105252,43.896403,-16.428297
29731,-5.322864,11.931192,1.237032,3.884605,-2.654892,2.437884,-0.127269,-0.452946,-0.964463,-0.052680,0.119575,0.012175,0.999986,-0.000636,-0.002265,-0.004822,0.603825,0.690753,0.166586,-0.361254,90.785070,44.447279,-16.782438
29732,-5.341797,8.127505,0.387127,1.719069,-0.996608,-0.284268,-1.385200,0.561218,-1.204647,-0.052917,0.081620,0.003456,0.999954,-0.006926,0.002806,-0.006023,0.605932,0.686565,0.174811,-0.361823,90.313547,45.127363,-16.335793
29733,-7.049569,6.277718,0.594145,-0.634134,-0.476782,-0.387785,-0.547178,0.695662,-1.064406,-0.070139,0.063167,0.006013,0.999976,-0.002736,0.003478,-0.005322,0.605290,0.685215,0.181505,-0.362162,90.404373,45.728754,-15.767527
29734,-7.975860,6.209289,0.210014,-1.121154,0.025741,0.234968,0.321514,0.400401,-0.737939,-0.079524,0.062383,0.002360,0.999990,0.001608,0.002002,-0.003690,0.602472,0.686259,0.184527,-0.363355,90.827156,46.141698,-15.447804
29735,-7.682885,6.737405,-0.479713,-0.323953,0.461804,0.401561,0.710147,-0.017960,-0.480663,-0.076666,0.067575,-0.004564,0.999991,0.003551,-0.000090,-0.002403,0.599200,0.687911,0.184778,-0.365505,91.224138,46.411313,-15.460852
29736,-7.294056,7.555070,-0.009077,0.384027,-0.310658,0.677199,1.317575,-0.149068,-0.227809,-0.072855,0.075632,0.000353,0.999977,0.006588,-0.000745,-0.001139,0.594366,0.691380,0.182572,-0.367955,91.889143,46.537258,-15.596640
29737,-7.549462,9.005545,1.248904,0.819312,-1.901091,1.822048,1.593962,-0.149408,-0.002697,-0.075503,0.089953,0.013150,0.999968,0.007970,-0.000747,-0.000013,0.588996,0.695813,0.179146,-0.369912,92.707760,46.536393,-15.726411
29738,-7.840895,10.429139,1.744123,1.394497,-2.773797,2.979842,1.064613,0.048280,0.069000,-0.078441,0.104169,0.018015,0.999986,0.005323,0.000241,0.000345,0.585362,0.699102,0.176954,-0.370533,93.340128,46.489267,-15.705926
29739,-8.647851,11.351277,2.120899,1.319357,-3.289025,4.172171,0.425105,0.162248,0.156932,-0.086550,0.113399,0.021520,0.999997,0.002126,0.000811,0.000785,0.584049,0.700779,0.176039,-0.369872,93.670899,46.388076,-15.584950
29740,-9.353902,12.063310,2.285742,1.234401,-3.525748,5.163584,0.159188,0.044098,0.262764,-0.093692,0.120492,0.022974,0.999999,0.000796,0.000220,0.001314,0.583937,0.701567,0.174837,-0.369126,93.773579,46.229845,-15.577846
29741,-8.475409,12.077214,0.815481,2.241256,-2.277527,4.614575,-0.158854,-0.138469,0.425702,-0.085016,0.120598,0.008000,0.999997,-0.000794,-0.000692,0.002129,0.585427,0.701213,0.173179,-0.368219,93.579456,45.985776,-15.720289
29742,-8.046484,11.980350,-0.681980,2.872401,-0.857234,4.320731,-0.244415,-0.112266,0.593931,-0.080816,0.119555,-0.007011,0.999995,-0.001222,-0.000561,0.002970,0.587480,0.700805,0.171119,-0.366685,93.347184,45.643811,-15.854725
29743,-8.502647,12.417552,-0.008326,2.578890,-1.433934,4.944767,-0.534303,-0.168071,0.658734,-0.085435,0.123894,-0.000486,0.999991,-0.002672,-0.000840,0.003294,0.590725,0.699480,0.169242,-0.364869,92.917997,45.266424,-16.026749
29744,-8.163342,12.200518,0.102835,2.584283,-1.390237,4.570919,-1.448667,-0.282656,0.594984,-0.081996,0.121764,0.000030,0.999968,-0.007243,-0.001413,0.002975,0.597132,0.695157,0.168922,-0.362842,91.906722,44.926769,-16.279700
29745,-7.183055,10.275249,-0.121657,2.039588,-0.661956,2.539855,-2.929505,-0.159694,0.448039,-0.072059,0.102558,-0.002777,0.999890,-0.014647,-0.000798,0.002240,0.608223,0.686418,0.172131,-0.359535,90.128777,44.665810,-16.420217
29746,-6.332403,6.857295,-1.117500,0.624858,1.101835,-0.498183,-4.106834,0.286675,0.259712,-0.063430,0.068243,-0.012488,0.999787,-0.020533,0.001433,0.001298,0.622434,0.674519,0.179385,-0.354149,87.935303,44.512991,-16.193697
29747,-5.179993,4.047555,-3.201150,-0.015307,3.546140,-3.418623,-4.019178,0.827601,0.249863,-0.051984,0.039759,-0.032600,0.999789,-0.020094,0.004138,0.001249,0.635584,0.663554,0.188144,-0.346888,86.100652,44.388530,-15.524506
29748,-4.291333,1.529387,-4.567565,-0.952482,5.098922,-5.977438,-2.484703,0.760538,0.656113,-0.043136,0.014585,-0.045696,0.999910,-0.012423,0.003803,0.003280,0.644234,0.657522,0.192660,-0.339868,85.124564,44.041314,-14.876482
29749,-5.786967,-0.296083,-3.082633,-3.642270,4.112583,-6.221142,0.111121,0.111793,1.539236,-0.057862,-0.003389,-0.030796,0.999970,0.000556,0.000559,0.007696,0.646383,0.659530,0.187712,-0.334625,85.315645,43.161533,-14.691076
29750,-7.521271,0.017798,-2.073493,-4.903196,3.424580,-4.802719,3.419416,-0.125903,1.800271,-0.075199,-0.000144,-0.020783,0.999813,0.017096,-0.000629,0.009001,0.638159,0.671925,0.175624,-0.332304,87.268523,42.122596,-14.691923
29751,-7.586217,3.209423,-1.353365,-3.084124,2.288218,-2.401044,5.863825,-0.565668,1.996374,-0.076143,0.031718,-0.012815,0.999516,0.029314,-0.002828,0.009980,0.621992,0.691116,0.157233,-0.332810,90.358748,40.966390,-15.097755
29752,-7.967451,8.756318,-0.773422,-0.254938,0.566355,2.033916,6.731036,-1.368597,2.324176,-0.080645,0.086837,-0.005353,0.999343,0.033648,-0.006841,0.011618,0.603302,0.711133,0.133669,-0.335335,93.511679,39.659294,-16.178359
29753,-4.720332,19.336279,4.000508,6.421866,-7.589092,7.887254,3.718940,-1.155644,1.825580,-0.049205,0.192135,0.043305,0.999769,0.018593,-0.005778,0.009127,0.593797,0.721462,0.117372,-0.336335,95.037608,38.659899,-17.135562
29754,-3.029201,16.130690,0.645527,6.671168,-4.117108,4.621053,-1.246281,0.697491,0.802982,-0.030919,0.161220,0.005558,0.999966,-0.006231,0.003487,0.004015,0.599245,0.719371,0.118619,-0.330666,94.605480,38.163455,-16.677195
29755,-6.094691,10.843059,-2.488092,2.348423,1.045411,2.608953,-1.656785,0.874285,0.679957,-0.061425,0.108013,-0.025509,0.999950,-0.008284,0.004371,0.003400,0.605804,0.716214,0.121471,-0.324476,94.019300,37.731601,-16.085987
29756,-7.366167,8.560753,-1.584586,-0.276134,1.149296,1.530108,-1.413316,0.420041,0.783952,-0.074030,0.085204,-0.016294,0.999965,-0.007066,0.002100,0.003920,0.611872,0.713072,0.122165,-0.319715,93.370453,37.261750,-15.824124
29757,-6.900726,6.816516,-0.806508,-1.206928,0.801965,-0.188000,-1.353512,0.276959,0.696519,-0.069255,0.067868,-0.008429,0.999970,-0.006767,0.001385,0.003483,0.617647,0.709772,0.122634,-0.315750,92.695266,36.849048,-15.656869
29758,-6.310587,5.383583,-1.845948,-1.303549,2.040850,-1.667191,-1.183092,0.327838,0.610122,-0.063300,0.053533,-0.018673,0.999977,-0.005915,0.001639,0.003051,0.622637,0.706976,0.123342,-0.311923,92.142356,36.486829,-15.438766
29759,-6.070518,3.990723,-1.675222,-2.000844,2.142569,-2.957825,-0.743995,0.262735,0.635619,-0.060854,0.039652,-0.016820,0.999987,-0.003720,0.001314,0.003178,0.626111,0.705446,0.123017,-0.308541,91.814125,36.111804,-15.272357
29760,-5.743445,2.755906,-1.655075,-2.489313,2.301448,-4.171064,-0.103592,0.131949,0.726084,-0.057545,0.027342,-0.016527,0.999993,-0.000518,0.000660,0.003630,0.627574,0.705738,0.121092,-0.305649,91.796367,35.690397,-15.183280
29761,-5.587950,3.088253,-2.304668,-2.043748,2.823276,-3.988084,1.062811,0.043565,0.789362,-0.056006,0.030783,-0.022871,0.999978,0.005314,0.000218,0.003947,0.625012,0.709596,0.116761,-0.303644,92.408108,35.231663,-15.177650
29762,-6.216770,5.518818,-0.644157,-1.753192,0.848839,-1.705587,2.304684,-0.368697,0.908335,-0.062406,0.054975,-0.005922,0.999922,0.011523,-0.001843,0.004542,0.618401,0.716712,0.108873,-0.303400,93.561397,34.719213,-15.465818
29763,-5.664903,9.524083,2.616438,-0.300886,-3.320508,1.074231,2.063758,-0.601489,0.807548,-0.057113,0.094735,0.026972,0.999934,0.010319,-0.003007,0.004038,0.612539,0.722566,0.100926,-0.304152,94.482104,34.276113,-15.927118
29764,-3.833734,10.574731,1.183426,2.059673,-2.664131,0.984676,-0.286338,0.311669,0.169493,-0.038409,0.105732,0.011743,0.999997,-0.001432,0.001558,0.000847,0.613709,0.722235,0.101727,-0.302308,94.432003,34.162051,-15.714962
29765,-5.296832,6.933136,-0.938639,-0.323213,0.532587,-1.059545,-1.307300,0.761621,-0.244068,-0.052920,0.069334,-0.009638,0.999971,-0.006536,0.003808,-0.001220,0.617678,0.719222,0.106863,-0.299622,93.982669,34.263790,-15.181093
29766,-5.981535,5.065659,-1.863553,-1.554290,1.995749,-2.163269,-1.300562,0.687881,-0.389314,-0.059781,0.050651,-0.018759,0.999971,-0.006503,0.003439,-0.001947,0.621450,0.715980,0.112393,-0.297558,93.512518,34.456753,-14.675316
29767,-5.602822,3.899744,-2.430749,-1.699883,2.716730,-3.313619,-1.193137,0.472067,-0.414598,-0.056005,0.038968,-0.024408,0.999977,-0.005966,0.002360,-0.002073,0.624847,0.712719,0.117061,-0.296468,93.021104,34.672726,-14.335666
29768,-5.401125,2.749275,-1.321340,-2.454928,1.841498,-4.422066,-0.663601,0.248092,-0.369215,-0.053977,0.027549,-0.013238,0.999992,-0.003318,0.001240,-0.001846,0.626548,0.710781,0.120134,-0.296301,92.744578,34.872420,-14.146624
29769,-5.002157,2.101220,-0.779135,-2.623788,1.355961,-5.195239,0.015245,0.140135,-0.325956,-0.049993,0.021094,-0.007755,0.999998,0.000076,0.000701,-0.001630,0.625949,0.710834,0.121654,-0.296822,92.812550,35.049260,-14.042383
29770,-4.439056,2.518980,-1.196466,-1.827223,1.546799,-5.148936,0.894926,0.097756,-0.229493,-0.044367,0.025294,-0.011830,0.999989,0.004475,0.000489,-0.001147,0.622378,0.713632,0.121420,-0.297712,93.368346,35.173353,-13.966049
29771,-4.722610,4.089238,-0.955206,-1.262143,1.012961,-3.703857,1.765616,-0.078239,-0.107881,-0.047200,0.041000,-0.009209,0.999961,0.008828,-0.000391,-0.000539,0.615963,0.718911,0.118874,-0.299376,94.348083,35.232306,-14.020500
29772,-5.203351,6.224121,0.385433,-0.889896,-0.717264,-1.771811,2.028320,-0.293425,-0.059281,-0.052021,0.062214,0.004409,0.999947,0.010141,-0.001467,-0.000296,0.608730,0.724649,0.115079,-0.301809,95.392315,35.275960,-14.228420
