PacketCounter,Acc_X,Acc_Y,Acc_Z,FreeAcc_E,FreeAcc_N,FreeAcc_U,Gyr_X,Gyr_Y,Gyr_Z,VelInc_X,VelInc_Y,VelInc_Z,OriInc_q0,OriInc_q1,OriInc_q2,OriInc_q3,Quat_q0,Quat_q1,Quat_q2,Quat_q3,Roll,Pitch,Yaw
02962,-3.957128,-0.866798,9.072125,0.134315,-0.089678,0.121474,0.192356,0.029921,-0.049673,-0.039560,-0.008745,0.090719,0.999999,0.000962,0.000150,-0.000248,-0.582590,-0.134236,-0.164614,0.784520,-6.389450,23.730007,-108.148042
02963,-3.775737,-0.593200,9.074866,0.331737,-0.319557,0.023424,0.135991,0.019720,-0.027407,-0.037749,-0.005989,0.090748,1.000000,0.000680,0.000099,-0.000137,-0.582413,-0.134661,-0.164171,0.784672,-6.321065,23.738264,-108.161424
02964,-3.854931,-0.741255,8.973402,0.205256,-0.166411,-0.021770,0.089275,0.015911,-0.015348,-0.038543,-0.007450,0.089734,1.000000,0.000446,0.000080,-0.000077,-0.582327,-0.134919,-0.163836,0.784761,-6.272287,23.738983,-108.165433
02965,-3.721635,-0.608117,9.025650,0.287999,-0.338927,-0.041049,0.057950,0.011225,-0.016146,-0.037212,-0.006104,0.090257,1.000000,0.000290,0.000056,-0.000081,-0.582254,-0.135092,-0.163666,0.784821,-6.245557,23.743127,-108.171215
02966,-3.738175,-0.522992,9.089336,0.371184,-0.373303,0.015149,-0.008560,0.019061,-0.019625,-0.037374,-0.005222,0.090897,1.000000,-0.000043,0.000095,-0.000098,-0.582215,-0.135075,-0.163727,0.784840,-6.253937,23.745400,-108.178070
02967,-3.731446,-0.740863,9.109523,0.163312,-0.331699,0.052366,-0.051175,0.021011,-0.019819,-0.037306,-0.007382,0.091101,1.000000,-0.000256,0.000105,-0.000099,-0.582192,-0.134966,-0.164016,0.784815,-6.290923,23.754886,-108.186807
02968,-3.808591,-0.824169,9.032591,0.112603,-0.213096,0.021652,-0.068070,0.028219,-0.023185,-0.038074,-0.008207,0.090334,1.000000,-0.000340,0.000141,-0.000116,-0.582172,-0.134809,-0.164339,0.784789,-6.334483,23.762140,-108.196488
02969,-3.858759,-0.874263,9.074263,0.085465,-0.177907,0.084668,-0.082893,0.024639,-0.034224,-0.038578,-0.008698,0.090751,1.000000,-0.000414,0.000123,-0.000171,-0.582111,-0.134610,-0.164774,0.784778,-6.393365,23.772764,-108.214457
02970,-3.962907,-1.167578,9.093996,-0.159178,-0.020301,0.174449,-0.055067,0.030827,-0.044666,-0.039618,-0.011642,0.090949,1.000000,-0.000275,0.000154,-0.000223,-0.581996,-0.134483,-0.165067,0.784823,-6.434946,23.780137,-108.237709
02971,-3.988218,-1.137451,9.032172,-0.117580,0.015286,0.125408,-0.011545,0.034483,-0.047684,-0.039869,-0.011360,0.090329,1.000000,-0.000058,0.000172,-0.000238,-0.581826,-0.134519,-0.165259,0.784903,-6.456619,23.795476,-108.264764
02972,-3.897636,-1.115943,9.088115,-0.123074,-0.094514,0.137521,0.011848,0.035013,-0.039247,-0.038963,-0.011157,0.090887,1.000000,0.000059,0.000175,-0.000196,-0.581683,-0.134608,-0.165300,0.784985,-6.458716,23.805624,-108.284986
02973,-3.849955,-1.043941,9.089416,-0.068520,-0.158958,0.112004,0.022082,0.042359,-0.031517,-0.038482,-0.010443,0.090901,1.000000,0.000110,0.000212,-0.000158,-0.581547,-0.134786,-0.165372,0.785040,-6.457300,23.826483,-108.302545
02974,-3.922570,-0.919589,9.077301,0.070390,-0.126479,0.117501,0.013283,0.040011,-0.030825,-0.039209,-0.009196,0.090780,1.000000,0.000066,0.000200,-0.000154,-0.581433,-0.134906,-0.165416,0.785095,-6.456669,23.840048,-108.317905
02975,-3.870913,-1.030410,9.000872,-0.049385,-0.112892,0.038516,0.006086,0.034821,-0.026437,-0.038695,-0.010302,0.090015,1.000000,0.000030,0.000174,-0.000132,-0.581334,-0.135012,-0.165526,0.785127,-6.462936,23.856943,-108.331776
02976,-3.851979,-0.963065,9.020371,0.008084,-0.157082,0.041631,0.027260,0.032554,-0.025128,-0.038506,-0.009638,0.090209,1.000000,0.000136,0.000163,-0.000126,-0.581238,-0.135148,-0.165490,0.785182,-6.452685,23.866667,-108.343076
02977,-3.874245,-0.948702,9.024679,0.027017,-0.145929,0.053042,0.007390,0.032057,-0.016067,-0.038729,-0.009487,0.090253,1.000000,0.000037,0.000160,-0.000080,-0.581181,-0.135256,-0.165579,0.785187,-6.455519,23.882658,-108.350297
02978,-3.913316,-1.143325,8.943588,-0.148106,-0.027418,0.015146,0.022787,0.039762,-0.007792,-0.039116,-0.011442,0.089442,1.000000,0.000114,0.000199,-0.000039,-0.581150,-0.135422,-0.165570,0.785183,-6.443695,23.897633,-108.351319
02979,-3.771069,-0.965355,9.028474,-0.023139,-0.237295,0.016319,0.031971,0.042379,-0.006953,-0.037692,-0.009667,0.090291,1.000000,0.000160,0.000212,-0.000035,-0.581104,-0.135649,-0.165587,0.785174,-6.430441,23.920088,-108.353585
02980,-3.838180,-1.023225,9.173903,-0.065978,-0.226548,0.181482,0.032432,0.053148,-0.003091,-0.038358,-0.010247,0.091748,1.000000,0.000162,0.000266,-0.000015,-0.581074,-0.135899,-0.165577,0.785156,-6.412336,23.943012,-108.352627
02981,-4.153784,-1.539641,9.254434,-0.478072,0.149050,0.435151,0.101326,0.072018,-0.016471,-0.041506,-0.015440,0.092551,1.000000,0.000507,0.000360,-0.000082,-0.580918,-0.136436,-0.165414,0.785212,-6.362587,23.981739,-108.362871
02982,-4.257910,-1.609319,9.104814,-0.525763,0.320159,0.347942,0.208352,0.066989,-0.029727,-0.042551,-0.016182,0.091046,0.999999,0.001042,0.000335,-0.000149,-0.580651,-0.137229,-0.164772,0.785406,-6.250920,24.010904,-108.379454
02983,-4.033612,-1.384701,8.869823,-0.391607,0.164933,0.019940,0.298076,0.057145,-0.015038,-0.040312,-0.013976,0.088689,0.999999,0.001490,0.000286,-0.000075,-0.580378,-0.138280,-0.163791,0.785629,-6.087617,24.041282,-108.387645
02984,-3.918115,-0.791542,8.990086,0.111942,-0.142508,0.024329,0.323094,0.060298,0.005911,-0.039154,-0.008062,0.089900,0.999999,0.001615,0.000301,0.000030,-0.580175,-0.139408,-0.162656,0.785815,-5.901096,24.068949,-108.381429
02985,-3.884019,-0.406156,9.118052,0.439520,-0.328136,0.091278,0.278937,0.056389,0.014028,-0.038814,-0.004191,0.091186,0.999999,0.001395,0.000282,0.000070,-0.580027,-0.140423,-0.161728,0.785935,-5.741258,24.100629,-108.371226
02986,-3.999904,-0.545006,9.125978,0.315858,-0.189889,0.159467,0.226128,0.052423,0.012180,-0.039975,-0.005556,0.091264,0.999999,0.001131,0.000262,0.000061,-0.579922,-0.141245,-0.160945,0.786026,-5.608346,24.124164,-108.360368
02987,-4.033950,-0.531247,8.908002,0.326668,-0.071055,-0.025160,0.212349,0.028533,0.001135,-0.040327,-0.005407,0.089080,0.999999,0.001062,0.000143,0.000006,-0.579791,-0.141947,-0.160207,0.786147,-5.489187,24.139200,-108.356362
02988,-3.765327,-0.390803,8.915599,0.367094,-0.341960,-0.139704,0.161340,0.024439,0.000539,-0.037642,-0.003980,0.089157,1.000000,0.000807,0.000122,0.000003,-0.579707,-0.142461,-0.159605,0.786239,-5.395568,24.146166,-108.350950
02989,-3.860451,-0.454092,8.878124,0.323630,-0.225811,-0.128957,0.100133,0.039545,0.005236,-0.038587,-0.004586,0.088787,1.000000,0.000501,0.000198,0.000026,-0.579662,-0.142885,-0.159337,0.786249,-5.339896,24.167692,-108.344975
02990,-3.887255,-0.595586,8.833210,0.190416,-0.144933,-0.146571,0.046127,0.035254,0.006861,-0.038857,-0.005978,0.088338,1.000000,0.000231,0.000176,0.000034,-0.579676,-0.143113,-0.159215,0.786222,-5.310830,24.181176,-108.336172
02991,-3.787127,-0.650175,8.918466,0.102276,-0.254049,-0.105521,0.023560,0.032885,0.005205,-0.037856,-0.006513,0.089190,1.000000,0.000118,0.000164,0.000026,-0.579692,-0.143288,-0.159228,0.786176,-5.298866,24.198895,-108.329802
02992,-3.972464,-0.614379,9.061942,0.181912,-0.164461,0.097741,0.001837,0.027143,0.004252,-0.039712,-0.006145,0.090625,1.000000,0.000009,0.000136,0.000021,-0.579734,-0.143355,-0.159258,0.786127,-5.295628,24.207635,-108.322139
02993,-3.989306,-0.734604,8.971543,0.075590,-0.080525,0.032646,-0.008794,0.007755,-0.005284,-0.039890,-0.007341,0.089717,1.000000,-0.000044,0.000039,-0.000026,-0.579751,-0.143329,-0.159333,0.786103,-5.304291,24.210462,-108.320869
02994,-4.061579,-0.874603,8.950518,-0.036007,0.030490,0.054982,-0.003965,-0.005043,-0.004571,-0.040618,-0.008743,0.089504,1.000000,-0.000020,-0.000025,-0.000023,-0.579788,-0.143245,-0.159299,0.786098,-5.305871,24.200417,-108.316856
02995,-4.142720,-0.738730,8.851408,0.121578,0.106745,-0.013244,0.025144,-0.036691,-0.005340,-0.041444,-0.007397,0.088506,1.000000,0.000126,-0.000183,-0.000027,-0.579817,-0.143143,-0.159112,0.786134,-5.294047,24.177884,-108.313042
02996,-3.956376,-0.527349,8.872797,0.270141,-0.116697,-0.087928,-0.002742,-0.047145,-0.005542,-0.039585,-0.005271,0.088719,1.000000,-0.000014,-0.000236,-0.000028,-0.579882,-0.142897,-0.158953,0.786162,-5.294219,24.143854,-108.307217
02997,-3.765278,-0.440090,9.001987,0.297917,-0.355814,-0.056079,-0.048805,-0.057418,-0.005581,-0.037679,-0.004378,0.090010,1.000000,-0.000244,-0.000287,-0.000028,-0.579979,-0.142499,-0.158996,0.786154,-5.324338,24.109484,-108.302348
02998,-3.803289,-0.668802,9.208741,0.088823,-0.341405,0.166729,-0.072057,-0.038595,-0.015887,-0.038051,-0.006652,0.092082,1.000000,-0.000360,-0.000193,-0.000079,-0.580046,-0.142078,-0.159142,0.786151,-5.367003,24.079809,-108.303440
02999,-4.292458,-1.035029,8.978447,-0.105004,0.282074,0.188232,-0.043951,-0.050501,-0.024905,-0.042949,-0.010325,0.089776,1.000000,-0.000220,-0.000253,-0.000125,-0.580058,-0.141705,-0.159200,0.786198,-5.399416,24.048352,-108.311004
03000,-3.956027,-0.864554,8.964663,-0.032632,-0.044264,0.023966,-0.001188,-0.082971,-0.039778,-0.039599,-0.008637,0.089630,1.000000,-0.000006,-0.000415,-0.000199,-0.580016,-0.141297,-0.158955,0.786352,-5.406513,23.992130,-108.324390
03001,-3.836062,-0.623343,8.982180,0.167767,-0.215181,-0.029588,-0.011852,-0.073438,-0.040149,-0.038395,-0.006220,0.089808,1.000000,-0.000059,-0.000367,-0.000201,-0.579963,-0.140915,-0.158831,0.786485,-5.423827,23.946761,-108.340088
03002,-3.776685,-0.616345,9.039890,0.161696,-0.285735,-0.001722,-0.053909,-0.068624,-0.041470,-0.037799,-0.006131,0.090388,1.000000,-0.000270,-0.000343,-0.000207,-0.579940,-0.140409,-0.158837,0.786591,-5.461875,23.898658,-108.355343
03003,-3.716584,-0.622571,9.129925,0.144645,-0.369555,0.056387,-0.081086,-0.052823,-0.041878,-0.037191,-0.006181,0.091292,1.000000,-0.000405,-0.000264,-0.000209,-0.579912,-0.139906,-0.159046,0.786659,-5.519741,23.864933,-108.373279
03004,-3.637839,-0.695896,9.234546,0.059559,-0.458553,0.126183,-0.115150,-0.030630,-0.044226,-0.036394,-0.006898,0.092344,1.000000,-0.000576,-0.000153,-0.000221,-0.579891,-0.139369,-0.159405,0.786698,-5.594412,23.838306,-108.392447
03005,-4.264229,-1.072868,9.080941,-0.103573,0.252461,0.273130,-0.079801,-0.022452,-0.044947,-0.042655,-0.010683,0.090809,1.000000,-0.000399,-0.000112,-0.000225,-0.579825,-0.138987,-0.159699,0.786754,-5.653015,23.821688,-108.414067
03006,-3.924212,-0.917519,9.006660,-0.042380,-0.052636,0.054260,-0.047202,-0.044186,-0.042433,-0.039264,-0.009146,0.090060,1.000000,-0.000236,-0.000221,-0.000212,-0.579774,-0.138595,-0.159750,0.786851,-5.687967,23.787434,-108.431243
03007,-3.828940,-0.888347,9.032059,-0.035909,-0.151407,0.036364,-0.047281,-0.037056,-0.027650,-0.038307,-0.008857,0.090316,1.000000,-0.000236,-0.000185,-0.000138,-0.579765,-0.138263,-0.159862,0.786892,-5.723194,23.763447,-108.441144
03008,-3.788129,-0.910870,8.989576,-0.061536,-0.160330,-0.016637,-0.058791,-0.031070,-0.010326,-0.037896,-0.009080,0.089893,1.000000,-0.000294,-0.000155,-0.000052,-0.579838,-0.137915,-0.159975,0.786877,-5.757074,23.738524,-108.439120
03009,-3.755301,-0.859430,9.186862,-0.021904,-0.283535,0.145148,-0.053216,-0.017147,-0.001715,-0.037561,-0.008570,0.091868,1.000000,-0.000266,-0.000086,-0.000009,-0.579919,-0.137665,-0.160150,0.786825,-5.789685,23.727370,-108.434090
03010,-4.116106,-1.204489,9.172070,-0.243239,0.132538,0.308738,-0.020150,-0.009028,-0.005330,-0.041166,-0.012035,0.091720,1.000000,-0.000101,-0.000045,-0.000027,-0.579967,-0.137520,-0.160171,0.786812,-5.800762,23.715301,-108.430345
03011,-4.151436,-1.389602,9.062807,-0.407278,0.261387,0.240456,0.057315,-0.021190,-0.007529,-0.041524,-0.013920,0.090620,1.000000,0.000287,-0.000106,-0.000038,-0.579952,-0.137570,-0.159904,0.786868,-5.771398,23.701508,-108.428677
03012,-3.824992,-1.175359,8.949054,-0.300765,-0.028478,-0.014406,0.139352,-0.022636,-0.001747,-0.038260,-0.011816,0.089478,1.000000,0.000697,-0.000113,-0.000009,-0.579915,-0.137836,-0.159257,0.786980,-5.690010,23.681970,-108.421926
03013,-3.744627,-0.609483,9.062860,0.202948,-0.296181,0.005674,0.127898,-0.009329,0.005411,-0.037450,-0.006154,0.090623,1.000000,0.000639,-0.000047,0.000027,-0.579893,-0.138148,-0.158737,0.787046,-5.617278,23.675666,-108.412968
03014,-3.826565,-0.565704,9.006205,0.261625,-0.208991,-0.016657,0.076838,-0.009130,0.015433,-0.038269,-0.005695,0.090058,1.000000,0.000384,-0.000046,0.000077,-0.579955,-0.138300,-0.158364,0.787049,-5.567804,23.664792,-108.396401
03015,-3.789016,-0.708518,8.959806,0.110966,-0.180089,-0.061174,0.037026,-0.015956,0.016744,-0.037897,-0.007105,0.089594,1.000000,0.000185,-0.000080,0.000084,-0.580046,-0.138331,-0.158174,0.787015,-5.544154,23.655324,-108.379999
03016,-3.819267,-0.768908,9.123595,0.053901,-0.200576,0.105723,0.019595,-0.016845,0.013771,-0.038200,-0.007701,0.091232,1.000000,0.000098,-0.000084,0.000069,-0.580146,-0.138285,-0.158005,0.786983,-5.527690,23.639970,-108.364000
03017,-3.973294,-0.821415,9.025338,0.050081,-0.009675,0.082559,0.026033,-0.013872,0.000115,-0.039739,-0.008226,0.090250,1.000000,0.000130,-0.000069,0.000001,-0.580178,-0.138279,-0.157877,0.786986,-5.514548,23.630765,-108.358085
03018,-3.782503,-0.761851,9.015784,0.051192,-0.185085,-0.007831,0.013845,-0.015576,-0.000361,-0.037832,-0.007625,0.090154,1.000000,0.000069,-0.000078,-0.000002,-0.580226,-0.138211,-0.157744,0.786989,-5.504963,23.615389,-108.350975
03019,-3.719595,-0.590007,9.029178,0.197468,-0.291339,-0.035894,-0.004127,-0.011628,-0.004478,-0.037201,-0.005897,0.090290,1.000000,-0.000021,-0.000058,-0.000022,-0.580258,-0.138123,-0.157744,0.786981,-5.510304,23.607210,-108.348057
03020,-3.838816,-0.541280,9.015162,0.281846,-0.193985,-0.005264,-0.047217,-0.010055,-0.006342,-0.038393,-0.005390,0.090151,1.000000,-0.000236,-0.000050,-0.000032,-0.580321,-0.137894,-0.157871,0.786950,-5.537315,23.594665,-108.344996
03021,-3.729627,-0.738470,9.005506,0.068582,-0.231080,-0.040457,-0.082019,-0.013006,-0.010324,-0.037303,-0.007346,0.090056,1.000000,-0.000410,-0.000065,-0.000052,-0.580385,-0.137570,-0.158177,0.786898,-5.588706,23.585378,-108.345624
03022,-3.950755,-0.907371,9.166108,-0.027503,-0.057989,0.209548,-0.062404,-0.000748,-0.012375,-0.039508,-0.009043,0.091664,1.000000,-0.000312,-0.000004,-0.000062,-0.580426,-0.137330,-0.158396,0.786865,-5.626117,23.577826,-108.346863
03023,-3.974476,-1.009761,9.100956,-0.111479,0.016463,0.168834,-0.030446,-0.003593,-0.014633,-0.039747,-0.010081,0.091010,1.000000,-0.000152,-0.000018,-0.000073,-0.580430,-0.137189,-0.158529,0.786860,-5.649256,23.573663,-108.350736
03024,-3.877274,-0.916527,9.215591,-0.051471,-0.139657,0.226149,-0.004113,-0.005900,-0.020901,-0.038776,-0.009159,0.092155,1.000000,-0.000021,-0.000030,-0.000105,-0.580403,-0.137091,-0.158510,0.786901,-5.655321,23.562741,-108.356984
03025,-4.116474,-0.926764,9.026452,0.014164,0.149497,0.150170,0.027799,-0.005964,-0.018892,-0.041168,-0.009276,0.090262,1.000000,0.000139,-0.000030,-0.000094,-0.580352,-0.137106,-0.158411,0.786956,-5.646088,23.556985,-108.363359
03026,-3.799672,-0.726180,9.125543,0.110216,-0.219351,0.095900,0.027584,-0.011369,-0.020773,-0.038003,-0.007270,0.091252,1.000000,0.000138,-0.000057,-0.000104,-0.580307,-0.137079,-0.158251,0.787026,-5.633869,23.543015,-108.369211
03027,-3.890680,-0.708687,9.081607,0.153622,-0.125145,0.090643,0.028779,-0.011689,-0.014287,-0.038913,-0.007097,0.090813,1.000000,0.000144,-0.000058,-0.000071,-0.580278,-0.137078,-0.158128,0.787072,-5.622789,23.534255,-108.372373
03028,-3.880260,-0.961201,9.094311,-0.092754,-0.066743,0.120779,0.022491,-0.009699,-0.006918,-0.038807,-0.009621,0.090940,1.000000,0.000112,-0.000048,-0.000035,-0.580289,-0.137054,-0.157984,0.787097,-5.610078,23.522045,-108.369710
03029,-3.892150,-1.137488,9.058891,-0.259923,0.009212,0.108934,0.068211,-0.010851,-0.000714,-0.038926,-0.011406,0.090583,1.000000,0.000341,-0.000054,-0.000004,-0.580286,-0.137182,-0.157699,0.787134,-5.573057,23.514523,-108.364487
03030,-4.047030,-1.099228,9.312592,-0.194498,0.034740,0.398682,0.111587,-0.008171,0.004973,-0.040474,-0.011045,0.093118,1.000000,0.000558,-0.000041,0.000025,-0.580282,-0.137431,-0.157201,0.787193,-5.506478,23.503876,-108.354569
03031,-4.388534,-1.271580,9.078378,-0.264907,0.481641,0.335756,0.180029,-0.034267,0.009875,-0.043900,-0.012800,0.090765,1.000000,0.000900,-0.000171,0.000049,-0.580262,-0.137799,-0.156400,0.787303,-5.402222,23.483564,-108.341391
03032,-3.866614,-0.878251,9.023197,-0.053801,-0.048036,0.043015,0.222969,-0.060277,0.019851,-0.038692,-0.008887,0.090210,0.999999,0.001115,-0.000301,0.000099,-0.580279,-0.138178,-0.155303,0.787441,-5.267085,23.444062,-108.319275
03033,-3.638182,-0.734531,9.087999,-0.001615,-0.302008,-0.000634,0.192360,-0.048395,0.032823,-0.036403,-0.007439,0.090864,0.999999,0.000962,-0.000242,0.000164,-0.580351,-0.138545,-0.154397,0.787502,-5.149824,23.416830,-108.291127
03034,-3.972459,-0.728076,9.106299,0.084563,-0.008764,0.148635,0.181544,-0.051521,0.015894,-0.039747,-0.007367,0.091046,1.000000,0.000908,-0.000258,0.000079,-0.580373,-0.138834,-0.153492,0.787612,-5.039717,23.382052,-108.272142
03035,-3.807090,-0.748971,9.125868,0.001975,-0.144378,0.102729,0.175923,-0.059944,0.015952,-0.038098,-0.007573,0.091241,1.000000,0.000880,-0.000300,0.000080,-0.580398,-0.139094,-0.152628,0.787716,-4.935866,23.347289,-108.253986
03036,-3.896880,-0.747505,9.040105,0.018215,-0.020075,0.059859,0.188240,-0.059447,0.018423,-0.038995,-0.007564,0.090382,1.000000,0.000941,-0.000297,0.000092,-0.580431,-0.139374,-0.151672,0.787827,-4.821231,23.308089,-108.233155
03037,-3.622614,-0.324129,8.984756,0.333281,-0.345137,-0.131571,0.162244,-0.060081,0.013808,-0.036253,-0.003317,0.089834,1.000000,0.000811,-0.000300,0.000069,-0.580455,-0.139592,-0.150863,0.787925,-4.725823,23.273084,-108.216476
03038,-3.448556,-0.150623,8.970086,0.440574,-0.531181,-0.226165,0.077882,-0.033128,0.020033,-0.034500,-0.001545,0.089695,1.000000,0.000389,-0.000166,0.000100,-0.580551,-0.139656,-0.150416,0.787929,-4.674604,23.248957,-108.196110
03039,-3.553582,-0.096707,9.009554,0.518054,-0.466946,-0.152307,-0.008222,-0.015557,0.014109,-0.035543,-0.000966,0.090093,1.000000,-0.000041,-0.000078,0.000071,-0.580662,-0.139555,-0.150408,0.787867,-4.677726,23.239365,-108.181578
03040,-3.745931,-0.617536,9.194752,0.069417,-0.226332,0.132200,-0.067224,0.007469,0.019665,-0.037455,-0.006148,0.091951,1.000000,-0.000336,0.000037,0.000098,-0.580827,-0.139358,-0.150650,0.787734,-4.710427,23.238372,-108.163465
03041,-4.340258,-1.385543,9.204638,-0.493365,0.503118,0.433600,0.002586,-0.012918,0.022903,-0.043407,-0.013862,0.092043,1.000000,0.000013,-0.000065,0.000115,-0.580963,-0.139305,-0.150600,0.787652,-4.705254,23.230708,-108.143598
03042,-3.974881,-1.022595,9.055056,-0.248467,0.147288,0.124917,0.100396,-0.038517,0.023636,-0.039765,-0.010276,0.090538,1.000000,0.000502,-0.000193,0.000118,-0.581061,-0.139417,-0.150047,0.787665,-4.640145,23.203707,-108.120730
03043,-3.622637,-0.504758,9.147848,0.134247,-0.335673,0.032652,0.093079,-0.036857,0.034649,-0.036242,-0.005096,0.091469,1.000000,0.000465,-0.000184,0.000173,-0.581198,-0.139542,-0.149563,0.787634,-4.579798,23.182881,-108.092387
03044,-3.667863,-0.472319,9.015237,0.178082,-0.246557,-0.073165,0.045405,-0.022097,0.033523,-0.036688,-0.004750,0.090147,1.000000,0.000227,-0.000110,0.000168,-0.581361,-0.139566,-0.149268,0.787566,-4.544187,23.165697,-108.064266
03045,-3.693764,-0.573219,9.077406,0.083078,-0.217759,0.001458,0.020615,-0.009621,0.016796,-0.036942,-0.005745,0.090772,1.000000,0.000103,-0.000048,0.000084,-0.581458,-0.139573,-0.149161,0.787513,-4.530278,23.159585,-108.048392
03046,-3.969129,-0.823006,9.165580,-0.083531,0.060864,0.208715,0.024149,-0.019856,0.007185,-0.039700,-0.008243,0.091651,1.000000,0.000121,-0.000099,0.000036,-0.581530,-0.139525,-0.148974,0.787504,-4.513323,23.142481,-108.036752
03047,-3.895367,-1.117271,9.077212,-0.385527,0.117359,0.119862,0.069386,-0.026831,0.010048,-0.038965,-0.011206,0.090763,1.000000,0.000347,-0.000134,0.000050,-0.581579,-0.139602,-0.148630,0.787519,-4.472797,23.126224,-108.024238
03048,-3.754930,-0.841081,9.003797,-0.165321,-0.046742,-0.022603,0.126501,-0.035257,0.007617,-0.037565,-0.008469,0.090026,1.000000,0.000633,-0.000176,0.000038,-0.581592,-0.139791,-0.147996,0.787595,-4.396931,23.100388,-108.011658
03049,-3.489031,-0.552246,9.033232,0.024999,-0.366344,-0.120280,0.104128,-0.008794,0.008289,-0.034894,-0.005571,0.090328,1.000000,0.000521,-0.000044,0.000041,-0.581597,-0.140038,-0.147568,0.787628,-4.337288,23.094333,-108.001134
03050,-3.659895,-0.564644,9.019809,0.054554,-0.204572,-0.064571,0.075677,0.009003,0.007491,-0.036595,-0.005682,0.090198,1.000000,0.000378,0.000045,0.000037,-0.581612,-0.140253,-0.147263,0.787636,-4.291450,23.093754,-107.990773
03051,-3.944760,-0.746272,9.144799,-0.051151,0.047325,0.174331,0.070390,0.012628,0.009236,-0.039441,-0.007497,0.091448,1.000000,0.000352,0.000063,0.000046,-0.581628,-0.140487,-0.147030,0.787626,-4.251300,23.099964,-107.980665
03052,-4.070327,-1.030477,9.106109,-0.294092,0.255518,0.207236,0.114544,-0.005314,0.013661,-0.040705,-0.010360,0.091054,1.000000,0.000573,-0.000027,0.000068,-0.581650,-0.140764,-0.146526,0.787654,-4.181461,23.091485,-107.965820
03053,-3.827512,-0.665842,9.084520,-0.024779,-0.045308,0.067546,0.168546,-0.019436,0.011790,-0.038284,-0.006737,0.090836,1.000000,0.000843,-0.000097,0.000059,-0.581630,-0.141159,-0.145812,0.787731,-4.083881,23.079454,-107.952671
03054,-3.692406,-0.213357,9.236032,0.348671,-0.343190,0.124329,0.145118,-0.016756,0.015752,-0.036932,-0.002203,0.092356,1.000000,0.000726,-0.000084,0.000079,-0.581647,-0.141481,-0.145154,0.787782,-3.995922,23.064550,-107.936077
03055,-3.770951,-0.535532,9.131105,0.057429,-0.137406,0.079823,0.105603,-0.014238,0.014601,-0.037716,-0.005406,0.091306,1.000000,0.000528,-0.000071,0.000073,-0.581678,-0.141715,-0.144700,0.787800,-3.933831,23.055566,-107.921447
03056,-4.056723,-0.603235,9.181383,0.061100,0.118207,0.242211,0.125433,-0.023451,0.001529,-0.040578,-0.006090,0.091805,1.000000,0.000627,-0.000117,0.000008,-0.581658,-0.141943,-0.144110,0.787882,-3.860479,23.036257,-107.913423
03057,-3.984467,-0.573866,9.166368,0.059588,0.059728,0.198330,0.135090,-0.046815,-0.000619,-0.039866,-0.005800,0.091650,1.000000,0.000675,-0.000234,-0.000003,-0.581631,-0.142123,-0.143456,0.787989,-3.784682,23.008034,-107.906923
03058,-3.947868,-0.615604,9.206297,-0.003694,0.034020,0.223216,0.145736,-0.061302,0.006293,-0.039507,-0.006224,0.092046,1.000000,0.000729,-0.000307,0.000031,-0.581642,-0.142265,-0.142672,0.788098,-3.697996,22.967327,-107.894464
03059,-3.771112,-0.489498,9.211697,0.054887,-0.148172,0.151813,0.167345,-0.061059,0.005306,-0.037739,-0.004973,0.092101,1.000000,0.000837,-0.000305,0.000027,-0.581625,-0.142488,-0.141846,0.788219,-3.602109,22.931158,-107.883816
03060,-3.626909,-0.567803,9.055991,-0.063424,-0.180721,-0.042777,0.142078,-0.059318,0.009892,-0.036296,-0.005744,0.090545,1.000000,0.000710,-0.000297,0.000049,-0.581650,-0.142629,-0.141080,0.788313,-3.516771,22.891722,-107.869345
03061,-3.701349,-0.461391,9.213491,0.038254,-0.197682,0.125155,0.153349,-0.041778,0.024512,-0.037032,-0.004689,0.092124,1.000000,0.000767,-0.000209,0.000123,-0.581704,-0.142900,-0.140351,0.788354,-3.424612,22.867216,-107.847629
03062,-3.832180,-0.666608,9.183166,-0.132876,-0.003262,0.159415,0.161797,-0.042981,0.034897,-0.038340,-0.006747,0.091818,1.000000,0.000809,-0.000215,0.000174,-0.581802,-0.143181,-0.139537,0.788375,-3.322271,22.837931,-107.818377
03063,-3.833653,-0.532667,9.074340,-0.011663,0.011867,0.052604,0.178278,-0.055953,0.035289,-0.038361,-0.005414,0.090728,1.000000,0.000891,-0.000280,0.000176,-0.581890,-0.143476,-0.138660,0.788411,-3.213099,22.805598,-107.789575
03064,-3.623794,-0.236630,9.102074,0.196194,-0.255988,-0.018221,0.166905,-0.055281,0.044106,-0.036263,-0.002450,0.091009,1.000000,0.000835,-0.000276,0.000221,-0.582027,-0.143729,-0.137784,0.788417,-3.105590,22.769517,-107.754328
03065,-3.693497,-0.274039,9.202440,0.160844,-0.213554,0.103483,0.124868,-0.044840,0.044577,-0.036955,-0.002806,0.092014,1.000000,0.000624,-0.000224,0.000223,-0.582182,-0.143919,-0.137143,0.788380,-3.025018,22.743733,-107.720271
03066,-4.293264,-0.600155,9.351089,-0.004099,0.359002,0.488101,0.124247,-0.059470,0.045521,-0.042959,-0.006069,0.093494,1.000000,0.000621,-0.000297,0.000228,-0.582358,-0.144032,-0.136422,0.788355,-2.941613,22.705207,-107.684125
03067,-3.974973,-0.577314,9.230266,-0.075097,0.130967,0.252534,0.157935,-0.093645,0.053528,-0.039791,-0.005857,0.092279,1.000000,0.000790,-0.000468,0.000268,-0.582557,-0.144132,-0.135502,0.788348,-2.839448,22.651658,-107.643092
03068,-3.710844,-0.429282,9.145015,-0.014633,-0.095983,0.065394,0.163430,-0.096749,0.060059,-0.037151,-0.004379,0.091429,1.000000,0.000817,-0.000484,0.000300,-0.582786,-0.144223,-0.134508,0.788332,-2.729886,22.592197,-107.596996
03069,-3.811708,-0.302218,9.130860,0.123090,-0.023882,0.085661,0.158581,-0.095668,0.059106,-0.038160,-0.003106,0.091288,1.000000,0.000793,-0.000478,0.000296,-0.583007,-0.144319,-0.133576,0.788310,-2.626173,22.537500,-107.552698
03070,-3.602937,-0.032465,9.079127,0.315233,-0.250533,-0.053046,0.134496,-0.095532,0.047213,-0.036073,-0.000394,0.090774,1.000000,0.000672,-0.000478,0.000236,-0.583204,-0.144322,-0.132709,0.788310,-2.536451,22.478296,-107.514859
03071,-3.433871,-0.158384,9.143682,0.134629,-0.377232,-0.052409,0.081205,-0.062821,0.043569,-0.034367,-0.001628,0.091425,1.000000,0.000406,-0.000314,0.000218,-0.583397,-0.144312,-0.132188,0.788257,-2.481243,22.441891,-107.481283
03072,-3.643038,-0.264859,9.113252,0.086424,-0.142414,0.003905,0.075225,-0.049187,0.044222,-0.036452,-0.002691,0.091123,1.000000,0.000376,-0.000246,0.000221,-0.583594,-0.144323,-0.131691,0.788192,-2.426719,22.409056,-107.446667
03073,-3.493326,-0.208146,9.188758,0.087943,-0.312825,0.014537,0.058951,-0.032489,0.039359,-0.034948,-0.002115,0.091881,1.000000,0.000295,-0.000162,0.000197,-0.583766,-0.144365,-0.131350,0.788114,-2.385621,22.389857,-107.416573
03074,-3.791834,-0.278166,9.191040,0.098120,-0.024812,0.133184,0.047484,-0.027684,0.050364,-0.037930,-0.002813,0.091904,1.000000,0.000237,-0.000138,0.000252,-0.583993,-0.144383,-0.131021,0.787997,-2.345799,22.369430,-107.378764
03075,-3.633977,-0.066060,9.215396,0.251703,-0.229181,0.087707,0.035770,-0.025270,0.047016,-0.036351,-0.000686,0.092149,1.000000,0.000179,-0.000126,0.000235,-0.584207,-0.144391,-0.130786,0.787876,-2.316280,22.354506,-107.344147
03076,-3.584534,-0.024482,9.169265,0.279684,-0.263386,0.024858,-0.012627,-0.021049,0.042197,-0.035855,-0.000247,0.091689,1.000000,-0.000063,-0.000105,0.000211,-0.584441,-0.144254,-0.130719,0.787738,-2.312896,22.337690,-107.311580
03077,-3.613691,-0.209775,9.214884,0.108416,-0.201195,0.085021,-0.040314,-0.006408,0.041913,-0.036139,-0.002087,0.092148,1.000000,-0.000202,-0.000032,0.000210,-0.584677,-0.144111,-0.130843,0.787569,-2.328368,22.333440,-107.280604
03078,-4.092027,-0.573329,9.460208,-0.124842,0.233514,0.507139,-0.033993,-0.018800,0.057634,-0.040928,-0.005729,0.094599,1.000000,-0.000170,-0.000094,0.000288,-0.584986,-0.143931,-0.130855,0.787370,-2.333600,22.318286,-107.238529
03079,-4.012396,-0.716693,9.330551,-0.275047,0.254985,0.362355,0.008916,-0.037850,0.081256,-0.040139,-0.007187,0.093298,1.000000,0.000045,-0.000189,0.000406,-0.585362,-0.143833,-0.130665,0.787140,-2.311341,22.296950,-107.182425
03080,-3.884944,-0.779211,9.413698,-0.380724,0.134795,0.392926,0.042228,-0.042300,0.111007,-0.038865,-0.007834,0.094127,1.000000,0.000211,-0.000212,0.000555,-0.585841,-0.143819,-0.130271,0.786852,-2.260313,22.269623,-107.106816
03081,-4.102891,-1.055503,9.501357,-0.603202,0.378325,0.565972,0.103837,-0.029990,0.140224,-0.041036,-0.010633,0.095002,1.000000,0.000519,-0.000150,0.000701,-0.586375,-0.144069,-0.129688,0.786505,-2.169985,22.253996,-107.014481
03082,-4.112706,-0.995097,9.336909,-0.547473,0.439993,0.414193,0.170924,-0.033314,0.144324,-0.041135,-0.010060,0.093354,0.999999,0.000855,-0.000167,0.000722,-0.586885,-0.144488,-0.128792,0.786195,-2.037778,22.232365,-106.918643
03083,-3.855019,-0.851386,9.404584,-0.508217,0.154723,0.373084,0.247049,0.005637,0.164572,-0.038540,-0.008662,0.094036,0.999999,0.001235,0.000028,0.000823,-0.587387,-0.145313,-0.127732,0.785841,-1.860057,22.237216,-106.812093
03084,-4.036464,0.035375,9.501866,0.354125,0.041040,0.504898,0.279481,0.028639,0.149687,-0.040351,0.000191,0.095025,0.999999,0.001397,0.000143,0.000748,-0.587797,-0.146297,-0.126588,0.785536,-1.665091,22.250711,-106.714307
03085,-2.576591,1.421037,9.712596,1.253359,-1.713653,0.111281,0.176187,0.096821,0.071883,-0.025724,0.014116,0.097151,0.999999,0.000881,0.000484,0.000359,-0.587926,-0.147212,-0.126142,0.785340,-1.550222,22.305709,-106.666647
03086,-1.948389,1.864066,10.126847,1.467020,-2.558836,0.243363,-0.042201,0.214764,-0.015759,-0.019374,0.018664,0.101285,0.999999,-0.000211,0.001074,-0.000079,-0.587805,-0.147878,-0.126928,0.785180,-1.579266,22.422810,-106.674232
03087,-0.833322,3.022832,10.871967,2.231589,-4.177750,0.463391,-0.266474,0.339133,-0.184826,-0.008121,0.030381,0.108693,0.999997,-0.001332,0.001696,-0.000924,-0.587097,-0.148280,-0.129121,0.785276,-1.780473,22.612327,-106.790125
03088,-1.393716,2.080112,11.211168,1.492394,-3.603622,0.992191,-0.732404,0.428853,-0.289627,-0.013666,0.021231,0.112064,0.999990,-0.003662,0.002144,-0.001448,-0.586266,-0.147580,-0.133438,0.785307,-2.272211,22.845782,-106.973217
03089,-2.067114,-0.185655,11.504314,-0.444518,-2.564330,1.583899,-0.859772,0.389623,-0.313758,-0.020449,-0.001330,0.115090,0.999988,-0.004299,0.001948,-0.001569,-0.585439,-0.146351,-0.138200,0.785330,-2.847338,23.059233,-107.174172
03090,-0.682717,-2.421040,12.124964,-2.938710,-3.463011,1.707444,-0.502754,0.263538,-0.147000,-0.006685,-0.023901,0.121319,0.999996,-0.002514,0.001318,-0.000735,-0.585093,-0.145764,-0.141016,0.785197,-3.173266,23.198813,-107.267909
03091,0.607772,0.598948,13.067242,-0.447084,-5.820473,1.909215,0.319302,0.086130,0.077166,0.006132,0.005783,0.130679,0.999999,0.001597,0.000431,0.000386,-0.585139,-0.147063,-0.139972,0.785107,-2.974713,23.248967,-107.217819
03092,3.822987,2.964400,13.748879,0.889246,-9.553110,1.159180,-0.019255,-0.118834,0.129034,0.038129,0.029682,0.137509,1.000000,-0.000096,-0.000594,0.000645,-0.585791,-0.146575,-0.139564,0.784784,-2.951238,23.176833,-107.127340
03093,2.843025,-0.324433,13.076845,-1.949845,-7.504514,1.099334,0.078670,-0.262278,0.166764,0.028261,-0.003272,0.130804,0.999999,0.000393,-0.001311,0.000834,-0.586608,-0.145865,-0.138379,0.784516,-2.864418,23.030092,-107.010387
03094,3.911695,0.179226,12.401707,-1.716621,-8.275873,0.071566,0.363851,-0.504713,0.178688,0.038802,0.001601,0.124118,0.999995,0.001819,-0.002524,0.000893,-0.587440,-0.145007,-0.135286,0.784592,-2.605204,22.736145,-106.877951
03095,4.528869,0.820536,11.555594,-1.221594,-8.614709,-0.923948,0.297055,-0.577870,0.166546,0.044948,0.008071,0.115698,0.999994,0.001485,-0.002889,0.000833,-0.588304,-0.143697,-0.132315,0.784693,-2.391645,22.407984,-106.754191
03096,3.774396,0.628385,10.741170,-1.154232,-7.530502,-1.329026,0.230683,-0.596897,0.103923,0.037420,0.006179,0.107531,0.999995,0.001153,-0.002984,0.000520,-0.588990,-0.142021,-0.129513,0.784951,-2.227660,22.056622,-106.668570
03097,3.100058,0.401265,10.727804,-1.191884,-6.813150,-1.036741,0.108651,-0.551401,-0.001018,0.030705,0.003954,0.107365,0.999996,0.000543,-0.002757,-0.000005,-0.589301,-0.140147,-0.127477,0.785387,-2.163112,21.739339,-106.651300
03098,-0.499478,-0.385385,12.274597,-1.095068,-3.895670,1.792819,0.169338,-0.617843,-0.086390,-0.005376,-0.003956,0.122726,0.999995,0.000847,-0.003089,-0.000432,-0.589287,-0.138073,-0.124976,0.786166,-2.078488,21.370035,-106.683941
03099,-3.226144,-1.278048,12.170539,-1.213292,-1.074869,2.738585,0.315745,-1.042885,-0.125126,-0.032903,-0.012952,0.121515,0.999985,0.001579,-0.005214,-0.000626,-0.589257,-0.134795,-0.120761,0.787415,-1.919563,20.768789,-106.733564
03100,-1.822254,0.343526,10.617398,0.075809,-2.092963,0.759902,0.445220,-1.336331,-0.101261,-0.018930,0.003209,0.106056,0.999975,0.002226,-0.006682,-0.000506,-0.589403,-0.130685,-0.115059,0.788851,-1.675404,19.987429,-106.763530
03101,-2.129300,-0.396339,9.072479,-0.443717,-0.954926,-0.544960,0.398579,-1.302125,0.002953,-0.021883,-0.004144,0.090575,0.999977,0.001993,-0.006511,0.000015,-0.589927,-0.126694,-0.109659,0.789879,-1.441745,19.240076,-106.735429
03102,-3.342941,-0.696179,8.774984,-0.386441,0.450806,-0.415541,0.497431,-1.246907,0.101359,-0.033972,-0.007197,0.087521,0.999977,0.002487,-0.006234,0.000507,-0.590734,-0.123191,-0.103872,0.790612,-1.129890,18.512619,-106.651021
03103,-4.505896,-1.125327,8.632111,-0.482513,1.796349,-0.188665,0.428148,-1.196000,0.136646,-0.045566,-0.011469,0.086025,0.999980,0.002141,-0.005980,0.000683,-0.591656,-0.119767,-0.098575,0.791127,-0.857662,17.827165,-106.551418
03104,-4.984410,-2.058396,7.820144,-1.195365,2.854589,-0.831746,0.376012,-1.155701,0.087875,-0.050286,-0.020753,0.077873,0.999981,0.001880,-0.005778,0.000439,-0.592387,-0.116251,-0.093540,0.791715,-0.622591,17.151527,-106.483800
03105,-5.825567,-1.856394,7.387327,-0.745744,3.796199,-1.038418,0.425097,-1.035467,0.007032,-0.058636,-0.018723,0.073531,0.999984,0.002125,-0.005177,0.000035,-0.592679,-0.113383,-0.088800,0.792458,-0.379030,16.556611,-106.469514
03106,-6.531242,-1.256478,7.226886,0.037478,4.413905,-1.038920,0.258028,-0.954512,-0.098033,-0.065662,-0.012626,0.071940,0.999988,0.001290,-0.004773,-0.000490,-0.592609,-0.110226,-0.084937,0.793379,-0.246309,15.996078,-106.519323
03107,-7.291039,-1.964728,6.509333,-0.367411,5.585273,-1.562846,0.272144,-0.860927,-0.146243,-0.073204,-0.019682,0.064752,0.999990,0.001361,-0.004305,-0.000731,-0.592274,-0.107524,-0.081402,0.794370,-0.116462,15.500819,-106.600138
03108,-8.596357,-1.072482,6.949447,0.829045,6.498664,-0.844871,0.286341,-0.801992,-0.154535,-0.086250,-0.010757,0.069134,0.999991,0.001432,-0.004010,-0.000773,-0.591873,-0.105035,-0.077915,0.795351,0.023430,15.029194,-106.686136
03109,-8.629535,-0.913253,5.901420,1.086843,6.809758,-1.902246,0.200405,-0.756261,-0.169913,-0.086525,-0.009118,0.058678,0.999992,0.001002,-0.003781,-0.000850,-0.591418,-0.102523,-0.074985,0.796298,0.109406,14.594261,-106.782762
03110,-8.081656,-0.590606,5.420576,1.299383,6.372458,-2.549922,0.085829,-0.528048,-0.187392,-0.080965,-0.005853,0.053990,0.999996,0.000429,-0.002640,-0.000937,-0.590867,-0.100527,-0.073132,0.797134,0.130335,14.281637,-106.889027
03111,-9.362322,-0.995838,5.789171,1.267479,7.620410,-1.908133,0.058376,-0.341138,-0.204744,-0.093732,-0.009879,0.057729,0.999998,0.000292,-0.001706,-0.001024,-0.590181,-0.099234,-0.072010,0.797906,0.130997,14.084702,-107.005907
03112,-8.398574,-0.178938,5.936765,1.787556,6.473144,-2.020628,-0.016153,-0.266574,-0.202534,-0.084067,-0.001699,0.059256,0.999999,-0.000081,-0.001333,-0.001013,-0.589518,-0.097984,-0.071354,0.798609,0.092039,13.923729,-107.120643
03113,-7.933671,-0.486952,5.956540,1.380416,6.137214,-2.125708,-0.082091,-0.100615,-0.166675,-0.079371,-0.004779,0.059527,0.999999,-0.000410,-0.000503,-0.000833,-0.588964,-0.097250,-0.071483,0.799096,0.018320,13.864434,-107.214502
03114,-8.091514,0.223750,6.779783,2.063955,5.885684,-1.292892,-0.101983,-0.024967,-0.121521,-0.080922,0.002321,0.067787,1.000000,-0.000510,-0.000125,-0.000608,-0.588578,-0.096752,-0.071851,0.799408,-0.058078,13.843318,-107.281085
03115,-7.444037,0.678351,7.357727,2.294748,5.013158,-0.890115,-0.356238,-0.022330,-0.081790,-0.074446,0.006945,0.073557,0.999998,-0.001781,-0.000112,-0.000409,-0.588466,-0.095554,-0.073265,0.799506,-0.276771,13.828665,-107.324729
03116,-6.031561,-0.766531,6.984912,0.563407,4.208889,-1.583227,-0.430803,0.026208,-0.084272,-0.060310,-0.007489,0.069873,0.999998,-0.002154,0.000131,-0.000421,-0.588363,-0.094316,-0.075086,0.799560,-0.536219,13.838064,-107.369424
03117,-6.049379,0.314044,8.182151,1.551637,3.614659,-0.422916,-0.210861,0.096357,-0.083892,-0.060453,0.003252,0.081847,0.999999,-0.001054,0.000482,-0.000419,-0.588126,-0.094019,-0.076268,0.799657,-0.672085,13.891075,-107.414936
03118,-4.062322,1.263555,8.781229,1.871887,1.338957,-0.330487,-0.394659,0.036175,-0.095592,-0.040601,0.012828,0.087794,0.999998,-0.001973,0.000181,-0.000478,-0.587953,-0.092930,-0.077985,0.799746,-0.912586,13.906823,-107.466519
03119,-1.991703,1.442683,9.450919,1.430498,-0.802283,-0.185744,-0.256971,0.081855,-0.019892,-0.019877,0.014550,0.094499,0.999999,-0.001285,0.000409,-0.000099,-0.587996,-0.092463,-0.079279,0.799641,-1.065884,13.951861,-107.474488
03120,0.326455,3.087722,11.740038,2.221483,-3.984965,1.441384,-0.177243,0.060976,0.091774,0.003286,0.030983,0.117372,0.999999,-0.000886,0.000305,0.000459,-0.588459,-0.092189,-0.080111,0.799249,-1.154933,13.983829,-107.415797
03121,2.411115,2.464913,13.172610,0.974216,-6.078875,2.332476,-0.250042,0.032591,0.221966,0.024105,0.024841,0.131691,0.999999,-0.001250,0.000163,0.001110,-0.589483,-0.091642,-0.081120,0.798455,-1.269639,14.003548,-107.280552
03122,0.641813,0.891932,12.763569,0.038435,-3.896200,2.391171,-0.292694,0.106152,0.497192,0.006463,0.009122,0.127619,0.999996,-0.001463,0.000531,0.002486,-0.591597,-0.091367,-0.082350,0.796796,-1.366198,14.065914,-106.983048
03123,-4.839554,-3.194276,10.230669,-2.184944,2.935370,1.363213,-0.400350,0.139383,0.759539,-0.048203,-0.031921,0.102404,0.999991,-0.002002,0.000697,0.003798,-0.594778,-0.091020,-0.084026,0.794289,-1.489741,14.154972,-106.531893
03124,-4.901580,-6.024782,8.695542,-4.843482,4.106377,-0.034452,-0.078861,0.175902,0.743830,-0.048715,-0.060395,0.087022,0.999993,-0.000394,0.000880,0.003719,-0.597729,-0.091756,-0.084501,0.791934,-1.427695,14.261408,-106.089713
03125,-1.717649,-6.761186,8.247697,-6.436803,1.406086,-1.252401,0.387901,0.253098,0.530992,-0.016892,-0.067817,0.082367,0.999994,0.001940,0.001265,0.002655,-0.599579,-0.094111,-0.083493,0.790366,-1.131537,14.411545,-105.774496
03126,0.266505,-4.858365,8.498148,-5.202892,-1.037891,-1.581937,0.823084,0.404442,0.228175,0.002892,-0.048930,0.084775,0.999989,0.004115,0.002022,0.001141,-0.599956,-0.098225,-0.081334,0.789803,-0.628561,14.640326,-105.638158
03127,0.599323,-3.008835,7.882696,-3.556570,-1.704873,-2.329878,1.093970,0.636374,0.026011,0.006248,-0.030518,0.078641,0.999980,0.005470,0.003182,0.000130,-0.599286,-0.103998,-0.078924,0.789817,-0.001315,15.003305,-105.620210
03128,-1.036169,-0.283405,8.432735,-0.654853,-1.081013,-1.406377,1.339281,0.865818,-0.031610,-0.009997,-0.003397,0.084350,0.999968,0.006696,0.004329,-0.000158,-0.598144,-0.111360,-0.076236,0.789944,0.759517,15.493906,-105.630826
03129,-3.672697,1.885167,9.446199,1.903834,0.465428,0.308098,1.138986,0.878334,-0.136076,-0.036299,0.018338,0.094727,0.999974,0.005695,0.004392,-0.000680,-0.596658,-0.118150,-0.074453,0.790251,1.389892,15.996708,-105.697430
03130,-3.225004,2.462539,9.132191,2.264099,-0.096896,-0.080016,0.831575,0.896662,-0.268668,-0.031807,0.024288,0.091567,0.999980,0.004158,0.004483,-0.001343,-0.594800,-0.124018,-0.073991,0.790796,1.823460,16.508912,-105.837915
03131,-4.449240,2.752522,10.228103,2.659724,0.576805,1.348769,0.593459,0.883408,-0.314127,-0.043997,0.027291,0.102557,0.999985,0.002967,0.004417,-0.001571,-0.592890,-0.129127,-0.074480,0.791366,2.111713,17.019062,-106.003050
03132,-5.905593,2.226689,10.971180,2.385885,1.776411,2.489829,0.430625,0.743113,-0.260618,-0.058619,0.022107,0.109978,0.999990,0.002153,0.003716,-0.001303,-0.591339,-0.133197,-0.075135,0.791790,2.315693,17.444847,-106.137097
03133,-5.636439,1.984041,10.865910,2.043832,1.558477,2.318567,0.316391,0.512088,-0.166369,-0.056069,0.019715,0.108834,0.999995,0.001582,0.002560,-0.000832,-0.590311,-0.136066,-0.075521,0.792032,2.467894,17.740056,-106.219584
03134,-4.237642,0.849885,10.389570,0.613936,0.697523,1.401565,0.179996,0.372788,-0.140451,-0.042177,0.008435,0.103982,0.999998,0.000900,0.001864,-0.000702,-0.589532,-0.137977,-0.075992,0.792237,2.547037,17.952076,-106.289145
03135,-4.351722,1.241266,10.271574,1.010728,0.688477,1.344722,0.189736,0.260952,-0.162087,-0.043373,0.012350,0.102784,0.999998,0.000949,0.001305,-0.000810,-0.588695,-0.139478,-0.076136,0.792582,2.625022,18.103695,-106.375031
03136,-4.211773,1.453234,10.149814,1.179791,0.510359,1.197183,0.037032,0.163234,-0.169834,-0.042023,0.014549,0.101535,0.999999,0.000185,0.000816,-0.000849,-0.587975,-0.140129,-0.076577,0.792960,2.614823,18.196927,-106.467700
03137,-3.668037,0.390720,9.738488,0.076337,0.431666,0.591789,-0.042334,0.097907,-0.154519,-0.036630,0.003956,0.097402,1.000000,-0.000212,0.000490,-0.000773,-0.587392,-0.140303,-0.077155,0.793305,2.559568,18.255028,-106.553558
03138,-3.630558,0.217180,9.667843,-0.082400,0.459589,0.506096,-0.043527,0.049425,-0.171665,-0.036280,0.002224,0.096687,1.000000,-0.000218,0.000247,-0.000858,-0.586763,-0.140267,-0.077583,0.793735,2.501767,18.283211,-106.650554
03139,-3.157358,-0.135688,9.494185,-0.515988,0.177045,0.178773,-0.033684,0.049728,-0.211660,-0.031551,-0.001307,0.094950,0.999999,-0.000168,0.000249,-0.001058,-0.585964,-0.140253,-0.078025,0.794284,2.440102,18.314981,-106.772278
03140,-3.646331,0.328088,10.094024,-0.009149,0.303942,0.920448,-0.020197,-0.004536,-0.262655,-0.036461,0.003339,0.100939,0.999999,-0.000101,-0.000023,-0.001313,-0.584977,-0.140035,-0.078266,0.795026,2.377789,18.314358,-106.925633
03141,-2.846547,0.907084,9.258156,0.443131,-0.359781,-0.101186,-0.059704,-0.043078,-0.259022,-0.028474,0.009135,0.092573,0.999999,-0.000299,-0.000215,-0.001295,-0.584043,-0.139557,-0.078573,0.795766,2.291495,18.293828,-107.078279
03142,-3.331462,0.560387,9.445489,0.236945,0.131379,0.215100,-0.045167,-0.036300,-0.226940,-0.033325,0.005663,0.094448,0.999999,-0.000226,-0.000181,-0.001135,-0.583226,-0.139154,-0.078796,0.796413,2.221523,18.273873,-107.210821
03143,-3.354968,0.701936,9.371130,0.403509,0.129868,0.156610,-0.114394,-0.061839,-0.205683,-0.033571,0.007107,0.093697,0.999999,-0.000572,-0.000309,-0.001028,-0.582548,-0.138463,-0.079229,0.796987,2.113985,18.241023,-107.331633
03144,-3.210645,0.550002,9.456824,0.226719,0.021850,0.186830,-0.123342,-0.074957,-0.221244,-0.032136,0.005594,0.094553,0.999999,-0.000617,-0.000375,-0.001106,-0.581822,-0.137680,-0.079646,0.797611,2.000265,18.198466,-107.461453
03145,-2.938293,0.191208,9.543401,-0.181648,-0.138282,0.172024,-0.137203,-0.066676,-0.248184,-0.029412,0.002014,0.095423,0.999999,-0.000686,-0.000333,-0.001241,-0.580990,-0.136886,-0.080184,0.798301,1.871848,18.163205,-107.607786
03146,-3.129052,0.444382,9.319115,0.163882,0.021541,0.026367,-0.130541,-0.104282,-0.262219,-0.031333,0.004546,0.093172,0.999999,-0.000653,-0.000521,-0.001311,-0.580114,-0.135949,-0.080573,0.799058,1.746405,18.104085,-107.762610
03147,-2.425362,-0.019860,9.097158,-0.433857,-0.404340,-0.416447,-0.090637,-0.058007,-0.258105,-0.024280,-0.000126,0.090965,0.999999,-0.000453,-0.000290,-0.001291,-0.579205,-0.135320,-0.080957,0.799785,1.643158,18.073373,-107.914531
03148,-2.960525,0.412710,9.444252,0.106964,-0.155815,0.091514,-0.091434,-0.055320,-0.265561,-0.029626,0.004210,0.094432,0.999999,-0.000457,-0.000277,-0.001328,-0.578267,-0.134689,-0.081333,0.800532,1.540011,18.041774,-108.070263
03149,-2.213089,0.396388,8.881127,-0.045956,-0.667492,-0.675858,-0.066631,-0.006102,-0.255624,-0.022128,0.004022,0.088809,0.999999,-0.000333,-0.000031,-0.001278,-0.577328,-0.134338,-0.081769,0.801224,1.451401,18.040252,-108.219719
03150,-2.017418,1.125379,9.120799,0.567305,-1.152844,-0.492037,-0.076031,0.058969,-0.212698,-0.020135,0.011310,0.091210,0.999999,-0.000380,0.000295,-0.001063,-0.576544,-0.134231,-0.082378,0.801744,1.367537,18.072849,-108.341801
03151,-2.499749,1.682183,9.036696,1.259230,-0.885791,-0.412153,-0.143741,0.111944,-0.118361,-0.024937,0.016902,0.090369,0.999999,-0.000719,0.000560,-0.000592,-0.576156,-0.134187,-0.083371,0.801927,1.260787,18.136691,-108.406953
03152,-2.756690,1.321936,9.383697,0.971618,-0.655901,-0.013386,-0.295939,0.137077,-0.024384,-0.027501,0.013362,0.093836,0.999999,-0.001480,0.000685,-0.000122,-0.576240,-0.133837,-0.084957,0.801759,1.086597,18.211217,-108.414684
03153,-2.575775,-0.232319,9.140535,-0.500152,-0.271591,-0.330391,-0.356355,0.159063,-0.048725,-0.025686,-0.002154,0.091430,0.999998,-0.001782,0.000795,-0.000244,-0.576252,-0.133397,-0.086892,0.801616,0.871036,18.301007,-108.437792
03154,-3.088129,-0.761482,9.183734,-0.827186,0.321411,-0.134375,-0.290026,0.190650,-0.111532,-0.030798,-0.007464,0.091878,0.999998,-0.001450,0.000953,-0.000558,-0.575956,-0.133240,-0.088666,0.801661,0.683672,18.406796,-108.498231
03155,-2.229954,-0.971681,8.811896,-1.225100,-0.299899,-0.758655,-0.190393,0.237381,-0.157876,-0.022203,-0.009615,0.088155,0.999999,-0.000952,0.001187,-0.000789,-0.575381,-0.133544,-0.090232,0.801848,0.542183,18.541983,-108.587400
03156,-2.843707,-1.300733,9.267264,-1.394721,0.194931,-0.133977,-0.054089,0.292647,-0.148829,-0.028311,-0.012961,0.092718,0.999999,-0.000270,0.001463,-0.000744,-0.574729,-0.134456,-0.091380,0.802033,0.482251,18.706095,-108.670522
03157,-3.014286,-1.410895,8.992258,-1.421786,0.439253,-0.340477,0.085793,0.326959,-0.189287,-0.030009,-0.014119,0.089966,0.999998,0.000429,0.001635,-0.000946,-0.573800,-0.135898,-0.092118,0.802372,0.492392,18.892572,-108.778724
03158,-3.273603,-0.547674,9.185747,-0.564964,0.306637,-0.066865,0.216976,0.354952,-0.199919,-0.032578,-0.005544,0.091909,0.999997,0.001085,0.001775,-0.001000,-0.572727,-0.137812,-0.092393,0.802780,0.576905,19.092689,-108.892654
03159,-3.556411,-0.133343,9.365569,-0.132655,0.341721,0.199566,0.249790,0.354790,-0.182915,-0.035399,-0.001418,0.093717,0.999997,0.001249,0.001774,-0.000915,-0.571692,-0.139837,-0.092547,0.803149,0.681713,19.295324,-108.996572
03160,-3.842021,0.158064,9.520333,0.184685,0.426651,0.444339,0.250412,0.325559,-0.167848,-0.038264,0.001494,0.095268,0.999998,0.001252,0.001628,-0.000839,-0.570733,-0.141743,-0.092582,0.803493,0.791078,19.478825,-109.090794
03161,-3.517128,1.686547,9.763650,1.469996,-0.470563,0.587363,0.222284,0.285537,-0.138010,-0.035020,0.016781,0.097705,0.999998,0.001111,0.001428,-0.000690,-0.569925,-0.143431,-0.092617,0.803763,0.888620,19.641768,-109.167471
03162,-3.555485,0.908942,9.318824,0.788574,-0.064372,0.171403,0.012777,0.270066,-0.148099,-0.035422,0.009110,0.093237,0.999999,0.000064,0.001350,-0.000740,-0.569237,-0.144446,-0.093433,0.803975,0.865475,19.793615,-109.249841
03163,-3.339637,0.516630,9.286797,0.354934,-0.144607,0.062418,-0.079362,0.290750,-0.171390,-0.033257,0.005232,0.092914,0.999998,-0.000397,0.001454,-0.000857,-0.568506,-0.145280,-0.094718,0.804191,0.782822,19.959799,-109.347005
03164,-3.229477,0.656080,9.288811,0.456318,-0.323074,0.027499,-0.108569,0.311134,-0.234683,-0.032142,0.006649,0.092935,0.999998,-0.000543,0.001556,-0.001173,-0.567535,-0.146074,-0.096201,0.804557,0.671633,20.135655,-109.482417
03165,-2.819940,0.706940,9.016146,0.420797,-0.654766,-0.371461,-0.221730,0.368909,-0.279785,-0.028023,0.007209,0.090205,0.999997,-0.001109,0.001845,-0.001399,-0.566430,-0.146764,-0.098359,0.804949,0.483753,20.346851,-109.646278
03166,-2.681275,0.597894,9.362759,0.249222,-0.900519,-0.100085,-0.315059,0.431605,-0.318651,-0.026601,0.006169,0.093676,0.999995,-0.001575,0.002158,-0.001593,-0.565206,-0.147415,-0.101073,0.805354,0.235099,20.591177,-109.834110
03167,-2.704430,-1.823968,9.381427,-2.000371,-0.116447,-0.084553,-0.319712,0.522518,-0.392821,-0.026835,-0.018037,0.093913,0.999993,-0.001599,0.002613,-0.001964,-0.563630,-0.148388,-0.104141,0.805889,-0.035579,20.889207,-110.069471
03168,-4.683738,2.634370,11.540478,2.588733,-0.707887,2.631445,-0.354943,0.538924,-0.548826,-0.046453,0.026676,0.115483,0.999991,-0.001775,0.002695,-0.002744,-0.561439,-0.149234,-0.107487,0.806822,-0.360986,21.192705,-110.402135
03169,-0.882592,1.159296,8.951065,0.325007,-2.722886,-1.168386,-0.792180,0.619263,-0.634170,-0.008511,0.011975,0.089490,0.999982,-0.003961,0.003096,-0.003171,-0.559167,-0.149137,-0.112908,0.807677,-0.961025,21.541618,-110.791883
03170,-1.470035,2.935047,11.232054,1.986892,-3.736682,1.097015,-1.002600,0.843085,-0.724442,-0.014119,0.029965,0.112232,0.999972,-0.005013,0.004215,-0.003622,-0.556542,-0.149289,-0.119838,0.808464,-1.705828,22.010589,-111.245184
03171,-1.119190,0.959712,11.173665,0.127042,-3.478596,0.906628,-1.466251,1.076157,-0.964118,-0.010542,0.010468,0.111720,0.999947,-0.007331,0.005381,-0.004821,-0.553103,-0.148945,-0.129488,0.809398,-2.784613,22.603508,-111.863039
03172,-2.197724,-0.889791,12.069520,-1.164694,-2.446202,2.185075,-1.950635,1.466279,-1.315781,-0.021144,-0.007578,0.120930,0.999904,-0.009753,0.007331,-0.006579,-0.548274,-0.148581,-0.142385,0.810584,-4.242828,23.391149,-112.730350
03173,-3.696534,-2.523109,13.666695,-2.114199,-1.507180,4.331459,-1.527994,1.847022,-1.615556,-0.035897,-0.023891,0.137188,0.999896,-0.007640,0.009235,-0.008077,-0.541528,-0.150686,-0.154841,0.812444,-5.568817,24.365052,-113.832878
03174,-2.228419,0.564356,15.964898,0.141266,-5.160468,5.467963,-1.047707,2.099700,-1.808069,-0.020550,0.006672,0.159838,0.999890,-0.005238,0.010498,-0.009040,-0.533335,-0.154922,-0.166107,0.814838,-6.706274,25.445586,-115.104000
03175,1.419638,4.940791,17.798385,2.637469,-10.981473,4.871966,-0.919621,2.180830,-1.858751,0.016598,0.050078,0.177582,0.999887,-0.004598,0.010904,-0.009293,-0.524643,-0.159768,-0.177106,0.817226,-7.827422,26.549254,-116.450043
03176,5.024389,6.104027,16.487202,2.267449,-14.074922,1.635761,-0.803970,2.107733,-1.838427,0.052538,0.061225,0.164081,0.999894,-0.004020,0.010538,-0.009192,-0.515902,-0.164582,-0.187336,0.819550,-8.907946,27.584806,-117.810510
03177,7.831677,7.429455,16.242812,2.156759,-16.959340,-0.428158,-0.614209,2.003945,-1.728500,0.080578,0.074101,0.161401,0.999908,-0.003071,0.010019,-0.008642,-0.507441,-0.169552,-0.196442,0.821685,-9.882580,28.554969,-119.124952
03178,8.351604,7.722575,17.210478,1.900443,-18.172597,-0.235828,-0.291379,1.673965,-1.585034,0.085562,0.076803,0.171282,0.999933,-0.001457,0.008370,-0.007925,-0.499557,-0.174068,-0.203157,0.823936,-10.632750,29.328720,-120.332540
03179,9.866337,7.799280,17.011033,1.061526,-19.394680,-1.430752,0.143625,1.155835,-1.462806,0.100211,0.077142,0.169590,0.999956,0.000718,0.005779,-0.007314,-0.492251,-0.177673,-0.206732,0.826670,-11.089884,29.820321,-121.417047
03180,11.513940,7.940760,16.155755,0.236860,-20.297384,-3.135285,0.578858,0.519839,-1.220633,0.116039,0.078234,0.161484,0.999974,0.002894,0.002599,-0.006103,-0.486208,-0.179914,-0.206608,0.829787,-11.177108,29.966225,-122.264394
03181,13.480328,6.996424,15.069708,-1.664565,-20.750675,-4.873231,0.927041,-0.061976,-0.808624,0.135036,0.068719,0.151059,0.999981,0.004635,-0.000310,-0.004043,-0.482116,-0.181050,-0.203350,0.832727,-10.905012,29.841791,-122.775708
03182,11.948162,3.768429,16.002748,-4.090891,-18.570285,-2.639889,1.313646,-0.691660,-0.373908,0.118996,0.036408,0.160681,0.999971,0.006568,-0.003458,-0.001870,-0.480133,-0.180867,-0.196425,0.835570,-10.219441,29.398018,-122.922555
03183,10.004749,1.874953,15.973597,-4.990640,-16.091964,-1.158542,1.699423,-1.523715,-0.089053,0.098834,0.017343,0.160643,0.999935,0.008497,-0.007618,-0.000445,-0.479732,-0.178459,-0.185751,0.838753,-9.193654,28.527939,-122.806467
03184,10.802604,0.029588,14.349808,-6.893752,-14.806700,-2.340336,1.619075,-2.094461,0.097026,0.106516,-0.000820,0.144615,0.999912,0.008095,-0.010472,0.000485,-0.480674,-0.173526,-0.173690,0.841827,-8.128914,27.331292,-122.527773
03185,7.311427,-1.797549,14.594307,-6.909997,-11.161616,0.053153,1.741835,-2.488441,0.208283,0.071312,-0.019176,0.146674,0.999884,0.008709,-0.012442,0.001041,-0.482187,-0.167376,-0.160194,0.844878,-6.979367,25.932460,-122.180580
03186,6.219703,-1.566405,13.856604,-6.118071,-9.796901,0.173114,1.502748,-2.822654,0.244811,0.060254,-0.016634,0.139303,0.999871,0.007513,-0.014113,0.001224,-0.484238,-0.159118,-0.146659,0.847753,-5.956169,24.319323,-121.814330
03187,3.381800,-3.051126,14.434233,-6.103661,-6.750571,2.280751,1.378153,-2.875474,0.328897,0.031791,-0.031454,0.144595,0.999872,0.006890,-0.014377,0.001644,-0.486623,-0.150463,-0.133593,0.850125,-5.018512,22.696072,-121.432981
03188,-1.365069,-2.319941,15.760676,-3.318969,-3.401965,5.452645,1.468929,-3.173989,0.478959,-0.016090,-0.024392,0.157188,0.999844,0.007344,-0.015869,0.002395,-0.489671,-0.140692,-0.119083,0.852201,-4.000321,20.880451,-120.974445
03189,-2.693773,-0.251416,13.645300,-0.575176,-2.121524,3.922708,1.315228,-3.331620,0.681438,-0.029195,-0.003506,0.135958,0.999834,0.006576,-0.016657,0.003407,-0.493591,-0.130073,-0.104842,0.853497,-3.065124,18.997800,-120.429978
03190,-4.118235,0.903065,11.009143,1.467177,-0.261639,1.880978,1.228677,-3.084221,0.951770,-0.042914,0.008155,0.109490,0.999851,0.006143,-0.015420,0.004759,-0.498465,-0.120266,-0.091191,0.853670,-2.147911,17.232207,-119.763490
03191,-7.549598,0.205633,11.363153,2.438467,3.239642,3.214312,1.208441,-2.672719,1.328914,-0.077014,0.000865,0.112617,0.999870,0.006042,-0.013363,0.006644,-0.504603,-0.112433,-0.078580,0.852385,-1.219852,15.722265,-118.918233
03192,-12.206524,0.323478,11.252394,4.630497,7.605663,4.201781,1.373259,-2.663971,1.707683,-0.123567,0.001419,0.110899,0.999851,0.006866,-0.013319,0.008538,-0.512144,-0.105042,-0.064877,0.849980,-0.159204,14.183013,-117.878787
03193,-8.114606,-0.378984,7.899203,2.409714,5.565320,-0.242026,0.949365,-2.467868,1.903727,-0.082069,-0.004940,0.077961,0.999867,0.004747,-0.012339,0.009518,-0.520506,-0.097560,-0.053533,0.846575,0.641614,12.762655,-116.758768
03194,-10.350363,-2.533872,7.933515,1.326103,8.765837,0.080814,0.965414,-1.887904,1.958297,-0.103988,-0.026735,0.078228,0.999896,0.004827,-0.009439,0.009791,-0.528833,-0.092449,-0.043426,0.842557,1.439322,11.637364,-115.624202
03195,-13.830611,-4.062481,9.041383,1.114519,12.571448,1.599515,0.662009,-1.805713,1.694468,-0.138762,-0.042095,0.089025,0.999918,0.003310,-0.009028,0.008472,-0.536051,-0.086922,-0.035095,0.838965,1.999748,10.572210,-114.662446
03196,-15.873655,-7.308877,8.252897,-1.097185,16.126740,0.780269,0.801506,-1.810699,1.333081,-0.158980,-0.074474,0.080794,0.999929,0.004007,-0.009053,0.006665,-0.541627,-0.081566,-0.026170,0.836243,2.591022,9.483692,-113.923460
03197,-17.510215,-5.457199,6.944463,1.228150,17.227080,-0.522049,0.890647,-1.988825,0.871578,-0.175539,-0.055640,0.067454,0.999931,0.004453,-0.009944,0.004358,-0.545167,-0.075740,-0.016722,0.834732,3.167030,8.318577,-113.472172
03198,-14.269280,-5.627610,2.275792,0.222461,15.016153,-5.950001,0.503447,-1.739607,0.475339,-0.142748,-0.056670,0.021374,0.999956,0.002517,-0.008698,0.002377,-0.547130,-0.069768,-0.009598,0.834080,3.487189,7.289764,-113.250630
03199,-16.615861,-4.794205,1.296692,1.969445,16.966543,-6.811578,0.447790,-1.084041,0.329178,-0.166146,-0.048243,0.011959,0.999981,0.002239,-0.005420,0.001646,-0.548423,-0.066455,-0.004669,0.833543,3.758359,6.655966,-113.096183
03200,-17.031394,-2.914629,1.098297,3.840090,16.646943,-7.001736,0.009888,-0.668826,0.246361,-0.170313,-0.029357,0.010412,0.999994,0.000049,-0.003344,0.001232,-0.549503,-0.063598,-0.002638,0.833064,3.778052,6.249712,-112.974663
03201,-16.499556,-2.996170,0.920999,3.547012,16.223990,-7.310417,-0.359395,-0.184944,0.229650,-0.164969,-0.030135,0.009111,0.999997,-0.001797,-0.000925,0.001148,-0.550609,-0.061811,-0.003573,0.832464,3.581963,6.133504,-112.845079
03202,-17.209140,-2.918131,2.117554,3.735666,16.762075,-6.040230,-0.568212,0.117412,0.290618,-0.172036,-0.029371,0.021360,0.999995,-0.002841,0.000587,0.001453,-0.552030,-0.060662,-0.006120,0.831592,3.274937,6.179794,-112.668941
03203,-15.790257,-0.792524,2.092499,5.093172,14.639725,-6.060832,-0.734669,0.247435,0.484731,-0.157857,-0.008230,0.021150,0.999990,-0.003673,0.001237,0.002424,-0.554289,-0.059645,-0.009730,0.830127,2.881497,6.304475,-112.377931
03204,-14.211728,-0.563684,2.742119,4.570208,13.057622,-5.520758,-1.039273,0.551325,0.794587,-0.142017,-0.006057,0.027844,0.999975,-0.005196,0.002757,0.003973,-0.557894,-0.059035,-0.015304,0.827668,2.338728,6.591974,-111.900986
03205,-14.683218,0.494610,4.552350,5.469807,12.939917,-3.551423,-1.025431,0.591370,1.115715,-0.146722,0.004362,0.045934,0.999967,-0.005127,0.002957,0.005579,-0.562785,-0.058673,-0.020886,0.824254,1.824616,6.905468,-111.240897
03206,-10.046652,1.518685,3.398337,4.740333,8.405311,-5.157627,-1.327013,0.782998,1.156759,-0.100419,0.014833,0.034277,0.999954,-0.006635,0.003915,0.005784,-0.567869,-0.058250,-0.028202,0.820571,1.148067,7.332461,-110.556753
03207,3.557701,-0.158075,6.952632,-1.809324,-4.089362,-3.407757,-0.742953,1.504427,0.716125,0.036103,-0.001194,0.069261,0.999958,-0.003715,0.007522,0.003581,-0.570822,-0.062379,-0.035331,0.817938,0.776703,8.185615,-110.123652
03208,14.133559,9.122452,26.556509,2.076262,-20.048714,14.309936,-0.254979,2.960120,0.699761,0.144923,0.092064,0.263321,0.999884,-0.001275,0.014800,0.003499,-0.573210,-0.073844,-0.044586,0.814855,0.697586,9.872625,-109.690790
03209,-24.381436,-7.483736,14.341815,-0.088231,22.733474,8.607415,-2.412634,1.177848,2.119633,-0.242162,-0.075661,0.145757,0.999854,-0.012063,0.005889,0.010598,-0.582425,-0.072159,-0.057019,0.807665,-0.469229,10.543327,-108.450959
03210,-2.751356,-14.697978,3.560103,-13.330113,6.425118,-5.654296,-0.605125,1.574597,1.602220,-0.026052,-0.147083,0.036255,0.999932,-0.003026,0.007873,0.008011,-0.588661,-0.077180,-0.063453,0.802181,-0.639257,11.450991,-107.519712
03211,-5.421624,-16.098953,11.291528,-14.376715,7.602509,2.498940,0.270880,1.405077,0.424221,-0.053080,-0.161256,0.113073,0.999972,0.001354,0.007025,0.002121,-0.589831,-0.083715,-0.066353,0.800430,-0.437836,12.256598,-107.274545
03212,-0.606343,-8.554506,9.917500,-8.593848,1.038610,0.034640,0.772247,1.503697,-0.786794,-0.005657,-0.085904,0.098887,0.999957,0.003861,0.007518,-0.003934,-0.585871,-0.091706,-0.068035,0.802319,-0.100941,13.113157,-107.736166
03213,-4.105977,-1.718640,9.037665,-1.076784,2.326621,-0.070101,1.203297,1.471358,-1.119093,-0.040491,-0.017503,0.090571,0.999939,0.006016,0.007357,-0.005595,-0.580329,-0.100716,-0.068044,0.805260,0.431673,13.956287,-108.388596
03214,-4.401940,6.525530,10.805476,6.559769,-0.554529,1.822369,1.064174,1.432408,-0.637158,-0.043035,0.064816,0.108711,0.999955,0.005321,0.007162,-0.003186,-0.576752,-0.109306,-0.068252,0.806692,0.946279,14.778406,-108.750822
03215,-4.729140,8.193989,10.992932,8.088380,-1.003052,2.183969,0.561248,1.267069,-0.086139,-0.046558,0.081651,0.110455,0.999976,0.002806,0.006335,-0.000431,-0.575688,-0.115973,-0.069704,0.806397,1.255323,15.503378,-108.782926
03216,-5.808536,6.131046,11.056990,6.396193,0.513896,2.532724,-0.127619,1.071335,0.125681,-0.057531,0.061345,0.110840,0.999985,-0.000638,0.005357,0.000628,-0.575924,-0.119933,-0.073237,0.805335,1.203845,16.112908,-108.689716
03217,-7.085002,1.958512,11.487654,2.793259,2.810949,3.237001,-0.508595,0.788447,0.007976,-0.070397,0.019875,0.115104,0.999989,-0.002543,0.003942,0.000040,-0.576003,-0.121615,-0.077566,0.804621,0.913371,16.562677,-108.671663
03218,-6.133093,-0.964486,11.034066,-0.175947,2.916459,2.506326,-0.608166,0.509221,-0.223801,-0.061060,-0.009241,0.110525,0.999992,-0.003041,0.002546,-0.001119,-0.575307,-0.121799,-0.081621,0.804689,0.525967,16.854098,-108.796812
03219,-5.880052,-1.767389,11.146666,-0.972026,2.850839,2.551547,-0.383124,0.268135,-0.327385,-0.058680,-0.017364,0.111579,0.999996,-0.001916,0.001341,-0.001637,-0.574149,-0.121612,-0.084148,0.805284,0.246871,17.007225,-108.987170
03220,-4.049371,-1.882080,10.122602,-1.500020,1.480564,1.048452,-0.339397,0.086026,-0.423021,-0.040490,-0.018563,0.101275,0.999996,-0.001697,0.000430,-0.002115,-0.572650,-0.120783,-0.086030,0.806277,-0.023671,17.055641,-109.235730
03221,-3.056079,-2.392002,9.802953,-2.222867,0.827417,0.460254,-0.180094,0.047407,-0.507256,-0.030598,-0.023754,0.098058,0.999996,-0.000900,0.000237,-0.002536,-0.570729,-0.120211,-0.087214,0.807596,-0.218891,17.080463,-109.535165
03222,-3.305486,-1.122538,9.850092,-0.923390,0.611666,0.578839,-0.025031,0.008208,-0.542664,-0.033081,-0.011123,0.098504,0.999996,-0.000125,0.000041,-0.002713,-0.568583,-0.119912,-0.087680,0.809102,-0.331118,17.082457,-109.855726
03223,-2.645444,-0.028658,9.739905,-0.079858,-0.323175,0.274637,-0.009047,-0.023504,-0.497989,-0.026466,-0.000216,0.097396,0.999997,-0.000045,-0.000118,-0.002490,-0.566620,-0.119543,-0.087964,0.810502,-0.426687,17.065399,-110.149450
03224,-2.966430,0.811141,9.469626,0.852237,-0.249285,0.104117,0.019172,-0.047190,-0.355649,-0.029672,0.008155,0.094690,0.999998,0.000096,-0.000236,-0.001778,-0.565224,-0.119225,-0.087981,0.811521,-0.480590,17.035536,-110.357652
03225,-2.457569,1.626853,9.238838,1.477169,-0.924525,-0.272999,0.007934,-0.033173,-0.212215,-0.024574,0.016291,0.092385,0.999999,0.000040,-0.000166,-0.001061,-0.564409,-0.118990,-0.087998,0.812121,-0.516006,17.013777,-110.479975
03226,-2.067774,1.996692,8.998558,1.725056,-1.339930,-0.622189,-0.133603,0.010398,-0.123879,-0.020661,0.020040,0.089973,1.000000,-0.000668,0.000052,-0.000619,-0.564018,-0.118577,-0.088658,0.812381,-0.616482,17.017796,-110.549489
03227,-2.732081,0.926121,9.213523,0.940727,-0.441666,-0.214203,-0.203212,0.046622,-0.098360,-0.027295,0.009368,0.092132,0.999999,-0.001016,0.000233,-0.000492,-0.563755,-0.118121,-0.089689,0.812517,-0.753052,17.042151,-110.604093
03228,-2.871834,0.733793,9.543023,0.802372,-0.355359,0.141457,-0.322232,0.043387,-0.121034,-0.028693,0.007509,0.095424,0.999998,-0.001611,0.000217,-0.000605,-0.563470,-0.117312,-0.091204,0.812663,-0.960917,17.064677,-110.672155
03229,-2.582969,-0.437031,9.279285,-0.338073,-0.148273,-0.177778,-0.327468,0.057436,-0.168308,-0.025807,-0.004197,0.092807,0.999998,-0.001637,0.000287,-0.000842,-0.562989,-0.116517,-0.092811,0.812929,-1.181127,17.094126,-110.768983
03230,-2.675385,-0.223437,9.249058,-0.073696,-0.149805,-0.183321,-0.314895,0.084580,-0.188437,-0.026717,-0.002064,0.092505,0.999998,-0.001574,0.000423,-0.000942,-0.562403,-0.115864,-0.094450,0.813239,-1.396918,17.138854,-110.878181
03231,-2.780032,0.339310,9.343304,0.510647,-0.300379,-0.076675,-0.312326,0.104997,-0.185483,-0.027748,0.003565,0.093442,0.999998,-0.001562,0.000525,-0.000927,-0.561816,-0.115296,-0.096139,0.813527,-1.611934,17.194584,-110.986330
03232,-2.680616,0.843143,9.664206,0.954511,-0.680520,0.183268,-0.389738,0.113342,-0.120172,-0.026746,0.008636,0.096641,0.999998,-0.001949,0.000567,-0.000601,-0.561534,-0.114582,-0.098123,0.813586,-1.858916,17.256124,-111.055531
03233,-2.834311,0.745859,9.497644,0.965078,-0.485711,0.067971,-0.448667,0.104326,-0.021353,-0.028293,0.007675,0.094974,0.999997,-0.002243,0.000522,-0.000107,-0.561689,-0.113708,-0.100269,0.813340,-2.123180,17.313858,-111.065799
03234,-2.548276,-0.230687,8.969945,0.026957,-0.271158,-0.488931,-0.483846,0.126800,0.058523,-0.025425,-0.002097,0.089721,0.999997,-0.002419,0.000634,0.000293,-0.562174,-0.112872,-0.102568,0.812835,-2.392323,17.386486,-111.028713
03235,-2.083469,-0.841154,8.785755,-0.659239,-0.447809,-0.779272,-0.448221,0.192598,0.076768,-0.020747,-0.008223,0.087896,0.999997,-0.002241,0.000963,0.000384,-0.562675,-0.112406,-0.104904,0.812254,-2.639579,17.497123,-110.983000
03236,-2.210549,-2.057876,8.427277,-1.708380,0.157490,-1.026513,-0.397027,0.269895,0.069570,-0.021985,-0.020419,0.084343,0.999997,-0.001985,0.001349,0.000348,-0.563076,-0.112399,-0.107246,0.811672,-2.858315,17.652150,-110.944016
03237,-1.612020,-3.396954,8.205987,-3.139676,0.111554,-1.350657,-0.270218,0.391599,0.006642,-0.015958,-0.033859,0.082137,0.999997,-0.001351,0.001958,0.000033,-0.563080,-0.113202,-0.109457,0.811262,-3.018302,17.874915,-110.947350
03238,-1.899448,-3.874589,8.751870,-3.524312,0.324011,-0.719301,0.007370,0.508030,-0.142553,-0.018800,-0.038736,0.087565,0.999997,0.000037,0.002540,-0.000713,-0.562255,-0.115180,-0.110950,0.811352,-3.047597,18.159790,-111.044395
03239,-3.303366,-2.598749,9.183589,-1.898672,0.960555,0.060316,0.317408,0.556510,-0.252963,-0.032811,-0.026092,0.091886,0.999994,0.001587,0.002783,-0.001265,-0.560771,-0.118161,-0.111388,0.811890,-2.921789,18.469167,-111.209579
03240,-4.741880,-0.409178,10.154764,0.541070,1.131195,1.331791,0.419435,0.513197,-0.293960,-0.047164,-0.004235,0.101660,0.999993,0.002097,0.002566,-0.001470,-0.559078,-0.121228,-0.111313,0.812616,-2.745537,18.752955,-111.397621
03241,-3.692890,0.675959,9.665932,1.192390,-0.059737,0.487751,0.257575,0.436028,-0.317124,-0.036707,0.006693,0.096748,0.999996,0.001288,0.002180,-0.001586,-0.557426,-0.123514,-0.111693,0.813354,-2.666634,18.992401,-111.597118
03242,-3.715653,0.963210,9.633506,1.446709,-0.171534,0.454528,0.163231,0.417692,-0.293116,-0.036941,0.009608,0.096420,0.999996,0.000816,0.002088,-0.001466,-0.555936,-0.125477,-0.112389,0.813977,-2.637415,19.222280,-111.781551
03243,-3.829494,0.811879,9.685110,1.330069,-0.076154,0.548321,-0.011438,0.367362,-0.304803,-0.038105,0.008182,0.096921,0.999997,-0.000057,0.001837,-0.001524,-0.554533,-0.126741,-0.113664,0.814562,-2.711143,19.422860,-111.972032
03244,-3.772544,0.159927,9.475012,0.724619,0.133924,0.360333,-0.146130,0.347658,-0.363059,-0.037558,0.001737,0.094814,0.999997,-0.000731,0.001738,-0.001815,-0.552985,-0.127521,-0.115466,0.815238,-2.873988,19.610362,-112.197850
03245,-3.398789,0.497994,9.385980,0.930245,-0.329102,0.133293,-0.223503,0.332858,-0.409408,-0.033821,0.005154,0.093910,0.999996,-0.001118,0.001664,-0.002047,-0.551302,-0.127995,-0.117575,0.816002,-3.091995,19.787109,-112.452401
03246,-3.039262,0.468359,9.297211,0.805011,-0.648074,-0.074808,-0.349251,0.344758,-0.396346,-0.030223,0.004906,0.093016,0.999995,-0.001746,0.001724,-0.001982,-0.549742,-0.128182,-0.120216,0.816641,-3.379947,19.970269,-112.700371
03247,-2.990942,-0.716615,9.173108,-0.275694,-0.262426,-0.145214,-0.355410,0.389044,-0.321947,-0.029742,-0.006955,0.091802,0.999995,-0.001777,0.001945,-0.001610,-0.548456,-0.128572,-0.122958,0.817035,-3.658356,20.179973,-112.906129
03248,-4.247482,-1.851585,9.354589,-0.857342,1.130880,0.529635,-0.302396,0.381631,-0.299486,-0.042324,-0.018311,0.093655,0.999996,-0.001512,0.001908,-0.001497,-0.547229,-0.129094,-0.125444,0.817398,-3.901933,20.385586,-113.099000
03249,-3.430993,-2.582873,8.876088,-1.776190,0.817539,-0.148089,-0.254641,0.395485,-0.373866,-0.034182,-0.025652,0.088861,0.999995,-0.001273,0.001977,-0.001869,-0.545653,-0.129752,-0.127824,0.817978,-4.136064,20.595193,-113.339210
03250,-3.018876,-4.436858,9.310914,-3.663110,0.962039,0.244571,-0.057912,0.462647,-0.400996,-0.030062,-0.044281,0.093192,0.999995,-0.000290,0.002313,-0.002005,-0.543791,-0.131205,-0.129597,0.818707,-4.265273,20.841582,-113.599982
03251,-5.161667,-0.023314,11.572020,1.037231,0.295403,2.812349,0.324053,0.498490,-0.490055,-0.051329,-0.000295,0.115848,0.999993,0.001620,0.002492,-0.002450,-0.541284,-0.133782,-0.129963,0.819893,-4.197418,21.104299,-113.917552
03252,-1.428406,1.751528,9.971035,1.385973,-3.049248,-0.152955,-0.442898,0.414011,-0.656141,-0.014020,0.017782,0.099700,0.999990,-0.002214,0.002070,-0.003281,-0.538654,-0.133828,-0.133354,0.821072,-4.605976,21.310836,-114.334239
03253,0.263153,4.797235,11.881663,3.420492,-6.439938,0.726873,-0.625076,0.654241,-0.877389,0.003231,0.048330,0.118656,0.999980,-0.003125,0.003271,-0.004387,-0.535062,-0.134216,-0.138283,0.822540,-5.176097,21.640115,-114.901911
03254,1.213163,4.515778,12.421381,2.809482,-7.471083,0.791082,-1.417041,0.764805,-1.243556,0.012890,0.045958,0.123842,0.999948,-0.007085,0.003824,-0.006218,-0.530383,-0.132678,-0.146992,0.824308,-6.290745,22.003286,-115.707464
03255,-0.095184,1.594254,13.513868,0.722463,-5.827803,2.462643,-1.708861,0.908148,-1.523269,-0.000211,0.017100,0.134998,0.999924,-0.008544,0.004541,-0.007616,-0.524570,-0.130734,-0.157459,0.826403,-7.651602,22.412666,-116.706406
03256,0.263234,-0.118290,14.422164,-0.891484,-5.995792,3.276742,-1.375070,0.954979,-1.650319,0.003317,-0.000217,0.144211,0.999931,-0.006875,0.004775,-0.008251,-0.517904,-0.129738,-0.166711,0.828946,-8.862262,22.815944,-117.799497
03257,2.329315,5.787144,15.955904,3.478418,-10.912770,2.927551,-0.162379,1.065521,-1.662230,0.024623,0.057800,0.159383,0.999951,-0.000812,0.005328,-0.008311,-0.510246,-0.132317,-0.171231,0.832359,-9.398627,23.266588,-118.921545
03258,4.043241,10.564528,17.722644,6.809265,-15.259975,2.946853,-0.700468,1.028698,-1.359417,0.042062,0.105982,0.176642,0.999958,-0.003502,0.005143,-0.006797,-0.504195,-0.133610,-0.177647,0.834492,-10.176069,23.711475,-119.861398
03259,4.813583,9.700079,17.436709,5.602120,-15.576912,2.322873,-0.134520,0.917538,-0.845752,0.049345,0.096911,0.174077,0.999980,-0.000673,0.004588,-0.004229,-0.499971,-0.136322,-0.181101,0.835852,-10.508600,24.140743,-120.481051
03260,9.679240,12.882955,18.050395,6.051403,-21.178179,0.204161,-0.325804,0.586916,-0.418244,0.097591,0.128920,0.180008,0.999992,-0.001629,0.002935,-0.002091,-0.497961,-0.137546,-0.184171,0.836180,-10.825608,24.421503,-120.800192
03261,13.608886,10.067651,16.352778,1.753516,-22.322938,-2.561223,0.173702,0.362269,-0.095065,0.136433,0.100470,0.163368,0.999998,0.000869,0.001811,-0.000475,-0.497150,-0.139382,-0.184429,0.836302,-10.770232,24.614317,-120.896586
03262,13.075522,8.766263,18.484705,0.668356,-22.281703,-0.190915,0.699365,-0.049566,0.117519,0.130658,0.087092,0.185185,0.999994,0.003497,-0.000248,0.000588,-0.497254,-0.140973,-0.181223,0.836674,-10.329748,24.590186,-120.809236
03263,13.577117,6.348909,17.748170,-1.752959,-21.207749,-0.496265,1.225762,-0.733288,0.296253,0.135025,0.062598,0.178363,0.999973,0.006129,-0.003666,0.001481,-0.498321,-0.141194,-0.174076,0.837519,-9.520779,24.204647,-120.540992
03264,12.789117,3.697578,16.528219,-3.730778,-18.743991,-0.585067,1.435049,-1.276139,0.518823,0.126738,0.036114,0.166355,0.999951,0.007175,-0.006381,0.002594,-0.500629,-0.139803,-0.164407,0.838329,-8.509008,23.516730,-120.085112
03265,10.728108,1.096207,15.590904,-5.078028,-15.369185,0.054398,1.608810,-1.713147,0.555847,0.105911,0.009998,0.156903,0.999927,0.008044,-0.008566,0.002779,-0.503246,-0.137072,-0.152993,0.839373,-7.397353,22.587576,-119.589696
03266,7.726015,-1.341302,14.747417,-5.866583,-11.285188,1.012855,1.673236,-2.007002,0.495809,0.075811,-0.014461,0.148122,0.999912,0.008366,-0.010035,0.002479,-0.505736,-0.133137,-0.140443,0.840703,-6.259935,21.463725,-119.128455
03267,3.735095,-3.166386,14.269957,-5.707259,-6.729473,2.424018,1.804476,-2.298255,0.468764,0.035786,-0.032867,0.142824,0.999891,0.009022,-0.011491,0.002344,-0.508103,-0.128329,-0.126737,0.842200,-5.077293,20.178614,-118.698461
03268,2.886413,-2.116114,12.911210,-4.333445,-5.688095,1.517089,1.725844,-2.479057,0.515509,0.027319,-0.022204,0.129269,0.999883,0.008629,-0.012395,0.002577,-0.510741,-0.122479,-0.112696,0.843470,-3.936535,18.767729,-118.258970
03269,1.525245,-4.271528,11.203107,-5.518337,-2.727713,0.588391,1.440884,-2.440344,0.630841,0.014023,-0.043476,0.111896,0.999895,0.007204,-0.012201,0.003154,-0.513879,-0.116183,-0.100008,0.844054,-2.968310,17.392358,-117.786109
03270,-0.658001,-4.582375,12.262265,-4.953359,-0.747510,2.298936,1.401840,-2.311230,0.746698,-0.007821,-0.046709,0.122212,0.999902,0.007009,-0.011556,0.003733,-0.517383,-0.110274,-0.087580,0.844088,-2.012339,16.068576,-117.271717
03271,-4.111462,-5.924158,11.941379,-4.638832,3.213647,2.944257,1.261446,-2.447368,0.788143,-0.042333,-0.060156,0.118523,0.999897,0.006307,-0.012236,0.003941,-0.521070,-0.103515,-0.075501,0.843843,-1.157678,14.677753,-116.758702
03272,-2.172625,-5.543221,9.766037,-4.960561,2.172985,0.261481,1.070291,-2.351025,0.743943,-0.022662,-0.056036,0.097099,0.999910,0.005351,-0.011755,0.003720,-0.524553,-0.096530,-0.064347,0.843437,-0.428329,13.317075,-116.293064
03273,-4.596245,-6.129109,9.460565,-4.443408,4.844388,0.433088,1.134222,-2.083183,0.749159,-0.046711,-0.061998,0.093771,0.999923,0.005671,-0.010416,0.003746,-0.527832,-0.090924,-0.053752,0.842756,0.315571,12.122192,-115.847280
03274,-5.122526,-3.537173,9.482849,-1.927943,4.395161,0.465305,0.901633,-1.935041,0.714791,-0.052011,-0.035982,0.094166,0.999937,0.004508,-0.009675,0.003574,-0.530976,-0.085206,-0.044408,0.841922,0.916883,10.989688,-115.434929
03275,-7.108170,-6.993652,10.936863,-4.366151,7.614597,2.103785,0.440136,-1.755699,0.638650,-0.071813,-0.070405,0.108586,0.999954,0.002201,-0.008778,0.003193,-0.533878,-0.079091,-0.037639,0.841012,1.229945,9.975248,-115.077550
03276,-10.378859,-6.339808,10.329994,-2.378974,10.573612,1.898469,0.969880,-2.020005,0.542751,-0.104649,-0.064178,0.101936,0.999934,0.004849,-0.010100,0.002714,-0.536174,-0.073153,-0.027855,0.840470,1.833755,8.791355,-114.787792
03277,-6.334300,-4.737114,7.491106,-2.355788,6.827509,-1.657174,0.446545,-1.909470,0.392674,-0.063960,-0.047663,0.074196,0.999950,0.002233,-0.009547,0.001963,-0.537935,-0.066346,-0.020734,0.840116,2.113208,7.688323,-114.594241
03278,-10.598740,-5.366633,8.600251,-1.272391,10.979340,-0.172770,0.743397,-1.559998,0.332248,-0.106563,-0.054160,0.084972,0.999961,0.003717,-0.007800,0.001661,-0.539274,-0.061700,-0.013224,0.839763,2.558997,6.770297,-114.433592
03279,-12.450283,-3.807604,8.735657,0.892251,12.160102,0.043699,0.430960,-1.736760,0.164680,-0.125223,-0.038366,0.086189,0.999960,0.002155,-0.008684,0.000823,-0.539960,-0.055546,-0.006700,0.839829,2.807494,5.769941,-114.381256
03280,-9.662724,-5.019258,5.868968,-1.078205,10.484245,-3.338059,0.412311,-1.571169,0.023781,-0.097078,-0.050324,0.057825,0.999967,0.002062,-0.007856,0.000119,-0.540026,-0.049947,-0.000657,0.840165,3.039884,4.855122,-114.408373
03281,-11.460403,-3.778956,6.246717,0.788601,11.677266,-2.909118,0.427907,-1.356848,-0.108144,-0.115044,-0.037860,0.061607,0.999975,0.002140,-0.006784,-0.000541,-0.539490,-0.045368,0.004757,0.840756,3.273074,4.080321,-114.509013
03282,-10.308635,-3.220981,5.727850,0.899133,10.503514,-3.622626,0.295435,-1.162440,-0.167575,-0.103444,-0.032207,0.056630,0.999982,0.001477,-0.005812,-0.000838,-0.538724,-0.041178,0.009142,0.841426,3.431659,3.407992,-114.638980
03283,-11.736825,-2.246196,6.120127,2.385927,11.444028,-3.210084,0.118585,-1.023805,-0.104101,-0.117691,-0.022437,0.060586,0.999987,0.000593,-0.005119,-0.000521,-0.538241,-0.037162,0.012357,0.841880,3.490523,2.824067,-114.729735
03284,-11.147756,-1.760726,4.940369,2.702484,10.777648,-4.491227,-0.067751,-0.824509,0.000107,-0.111680,-0.017591,0.048950,0.999991,-0.000339,-0.004123,0.000001,-0.538240,-0.033417,0.014322,0.842007,3.447883,2.341606,-114.753343
03285,-12.086919,-0.310003,4.854535,4.430830,11.053745,-4.527021,-0.210809,-0.526829,0.169116,-0.120994,-0.003151,0.048230,0.999996,-0.001054,-0.002634,0.000846,-0.538980,-0.030586,0.014859,0.841632,3.326130,2.032564,-114.670057
03286,-12.965770,0.154735,4.378593,5.241580,11.688491,-4.994803,-0.484504,-0.259936,0.422108,-0.129717,0.001379,0.043614,0.999994,-0.002423,-0.001300,0.002111,-0.540846,-0.028079,0.013604,0.840543,3.053585,1.861762,-114.431950
03287,-12.518602,0.531757,3.902152,5.389324,11.154849,-5.482656,-0.748094,0.063277,0.714491,-0.125192,0.005016,0.039042,0.999987,-0.003740,0.000316,0.003572,-0.543984,-0.026240,0.010368,0.838621,2.634351,1.875708,-114.016712
03288,-13.755199,-0.014876,5.127182,5.252800,12.516400,-4.223352,-0.903587,0.348498,0.984288,-0.137460,-0.000593,0.051513,0.999976,-0.004518,0.001742,0.004921,-0.548271,-0.025133,0.005767,0.835903,2.133278,2.045602,-113.439988
03289,-11.607615,0.495586,5.896653,4.745577,10.345713,-3.472502,-0.941575,0.388297,1.108172,-0.115988,0.004591,0.059170,0.999972,-0.004708,0.001941,0.005541,-0.553049,-0.024110,0.000885,0.832799,1.613853,2.245325,-112.793284
03290,-9.284494,-0.370561,5.810281,2.981863,8.545270,-3.633299,-0.906492,0.485522,1.144450,-0.092681,-0.003972,0.058346,0.999970,-0.004532,0.002428,0.005722,-0.557944,-0.023578,-0.004099,0.829534,1.118978,2.504084,-112.126076
03291,-7.354711,0.537102,5.764230,3.042472,6.406938,-3.705248,-0.799117,0.573915,1.140222,-0.073411,0.005183,0.057832,0.999972,-0.003996,0.002870,0.005701,-0.562772,-0.023719,-0.008900,0.826224,0.687786,2.820771,-111.462546
03292,-7.434905,0.332394,4.919040,2.855912,6.574698,-4.502147,-0.678354,0.815388,1.007862,-0.074164,0.003117,0.049482,0.999973,-0.003392,0.004077,0.005039,-0.566997,-0.025192,-0.013889,0.823217,0.327183,3.280685,-110.875749
03293,-2.872591,0.819921,7.784679,1.578526,1.945914,-1.859932,-0.368051,1.105620,0.578079,-0.028319,0.008260,0.077989,0.999979,-0.001840,0.005528,0.002890,-0.569367,-0.028707,-0.018485,0.821374,0.133409,3.911072,-110.536890
03294,23.181737,6.634710,19.482747,-2.591379,-25.373548,7.805963,0.709414,2.234733,-0.396966,0.234107,0.065198,0.192453,0.999929,0.003547,0.011173,-0.001985,-0.567421,-0.039842,-0.022004,0.822169,0.519651,5.191512,-110.753361
03295,-22.308084,4.274379,23.022459,10.846400,17.239220,15.309088,-1.539053,1.666301,1.873236,-0.221553,0.042443,0.231747,0.999892,-0.007695,0.008331,0.009366,-0.575216,-0.042495,-0.032702,0.816242,-0.259195,6.142065,-109.668191
03296,-4.653032,-14.303429,-1.033499,-11.956141,9.176194,-10.197511,-0.871404,1.313555,1.540474,-0.045490,-0.143430,-0.009410,0.999939,-0.004357,0.006568,0.007702,-0.581471,-0.045578,-0.039711,0.811318,-0.659864,6.900070,-108.781464
03297,-4.341530,-12.100904,13.104065,-10.519426,6.282364,3.857066,0.250816,1.668050,0.781925,-0.041847,-0.121339,0.131242,0.999957,0.001254,0.008340,0.003910,-0.584263,-0.053195,-0.043382,0.808656,-0.462915,7.858450,-108.334686
03298,2.863617,-9.272781,8.701720,-10.043728,-0.967266,-1.560963,0.437305,1.695411,-0.563067,0.029110,-0.092999,0.086569,0.999958,0.002186,0.008477,-0.002815,-0.581512,-0.061174,-0.046740,0.809887,-0.264467,8.826772,-108.662530
03299,-4.098136,-3.784239,9.498852,-2.748326,3.594506,0.230628,0.766889,1.725949,-1.118799,-0.040373,-0.037980,0.095193,0.999940,0.003834,0.008630,-0.005594,-0.576343,-0.070096,-0.049010,0.812720,0.066043,9.812838,-109.309350
03300,-3.778131,4.252197,11.509944,4.518710,0.153008,2.203416,0.754584,1.639192,-0.986838,-0.036626,0.042269,0.115563,0.999947,0.003773,0.008196,-0.004934,-0.571671,-0.078650,-0.051043,0.815108,0.391524,10.753040,-109.875794
03301,-5.266505,4.751574,10.806419,5.433400,1.279210,1.846227,0.359597,1.457653,-0.654094,-0.051720,0.047491,0.108529,0.999966,0.001798,0.007288,-0.003270,-0.568508,-0.085418,-0.054017,0.816446,0.521594,11.589407,-110.246487
03302,-6.826820,4.043531,11.690556,5.170461,2.616519,3.073044,0.092722,1.225249,-0.420350,-0.067465,0.040523,0.117339,0.999979,0.000464,0.006126,-0.002102,-0.566445,-0.090540,-0.057328,0.817103,0.521130,12.292737,-110.481731
03303,-6.733543,2.505951,12.020520,3.648339,2.857253,3.402362,-0.149717,0.874411,-0.377821,-0.066761,0.025276,0.120479,0.999988,-0.000749,0.004372,-0.001889,-0.564747,-0.093548,-0.060604,0.817702,0.384906,12.793665,-110.694898
03304,-5.113564,0.724717,11.174040,1.504338,2.076962,2.227059,-0.274763,0.586595,-0.327594,-0.050796,0.007484,0.111880,0.999993,-0.001374,0.002933,-0.001638,-0.563389,-0.095051,-0.063563,0.818241,0.181327,13.130594,-110.881400
03305,-4.215886,-0.426269,11.093993,0.145928,1.616977,1.951488,-0.267335,0.398516,-0.312480,-0.041944,-0.004049,0.111029,0.999996,-0.001337,0.001993,-0.001562,-0.562145,-0.095799,-0.065945,0.818820,-0.017008,13.357442,-111.060433
03306,-3.654642,-1.320602,10.535538,-0.814074,1.501791,1.285948,-0.224508,0.256389,-0.341945,-0.036434,-0.013025,0.105417,0.999997,-0.001123,0.001282,-0.001710,-0.560800,-0.096088,-0.067777,0.819559,-0.195773,13.504269,-111.257756
03307,-3.366805,-0.721302,10.313363,-0.316664,1.043279,1.005461,-0.128087,0.156792,-0.360954,-0.033600,-0.007086,0.103165,0.999998,-0.000640,0.000784,-0.001805,-0.559365,-0.096218,-0.068932,0.820428,-0.322167,13.591454,-111.466325
03308,-2.814342,0.010052,9.917294,0.217891,0.343215,0.488187,-0.131037,0.106716,-0.340507,-0.028090,0.000213,0.099188,0.999998,-0.000655,0.000534,-0.001703,-0.558027,-0.096156,-0.069963,0.821258,-0.448081,13.651750,-111.663126
03309,-2.798795,0.873856,10.022943,1.022797,-0.028096,0.580066,-0.103417,0.065127,-0.252526,-0.027944,0.008826,0.100234,0.999999,-0.000517,0.000326,-0.001263,-0.557053,-0.096017,-0.070708,0.821872,-0.545663,13.686113,-111.807771
03310,-2.722668,1.014203,9.781589,1.161413,-0.106998,0.324405,-0.176534,0.007475,-0.151078,-0.027215,0.010249,0.097808,0.999999,-0.000883,0.000037,-0.000755,-0.556548,-0.095487,-0.071557,0.822202,-0.671265,13.690000,-111.892534
03311,-1.801973,0.600930,9.423843,0.491509,-0.712966,-0.238394,-0.207541,0.009560,-0.093162,-0.018012,0.006115,0.094233,0.999999,-0.001038,0.000048,-0.000466,-0.556296,-0.094885,-0.072499,0.822359,-0.806256,13.693112,-111.942946
03312,-2.060511,0.271970,9.409835,0.300871,-0.365023,-0.187675,-0.216239,0.027680,-0.090562,-0.020591,0.002831,0.094098,0.999999,-0.001081,0.000138,-0.000453,-0.556050,-0.094350,-0.073537,0.822495,-0.946049,13.708682,-111.992198
03313,-1.710783,-0.363772,8.829718,-0.353872,-0.325507,-0.824262,-0.241119,0.064378,-0.122718,-0.017082,-0.003521,0.088307,0.999999,-0.001206,0.000322,-0.000614,-0.555671,-0.093870,-0.074783,0.822694,-1.104586,13.742650,-112.060642
03314,-1.039470,-0.046868,8.989470,-0.298188,-1.101931,-0.835492,-0.226950,0.163501,-0.164220,-0.010322,-0.000358,0.089904,0.999999,-0.001135,0.000818,-0.000821,-0.555075,-0.093835,-0.076276,0.822964,-1.261344,13.834811,-112.155079
03315,-1.788118,0.065942,9.403934,0.068586,-0.591127,-0.258555,-0.251545,0.210876,-0.184760,-0.017781,0.000794,0.094057,0.999998,-0.001258,0.001054,-0.000924,-0.554387,-0.093904,-0.078001,0.823257,-1.435387,13.951480,-112.262411
03316,-2.076539,-0.193950,9.199721,-0.034150,-0.219090,-0.382141,-0.283100,0.261102,-0.167264,-0.020647,-0.001792,0.092027,0.999998,-0.001416,0.001306,-0.000836,-0.553763,-0.094113,-0.079996,0.823462,-1.625629,14.098766,-112.360827
03317,-1.780784,0.338463,9.407676,0.354260,-0.768935,-0.269459,-0.285365,0.314678,-0.164723,-0.017657,0.003533,0.094100,0.999997,-0.001427,0.001573,-0.000824,-0.553128,-0.094523,-0.082137,0.823631,-1.817359,14.274546,-112.459084
03318,-2.756208,0.368722,9.289965,0.771624,0.079105,-0.146550,-0.371086,0.337757,-0.172067,-0.027402,0.003883,0.092939,0.999996,-0.001855,0.001689,-0.000860,-0.552489,-0.094800,-0.084707,0.823768,-2.059916,14.464857,-112.563077
03319,-2.528172,1.270390,9.803073,1.517999,-0.636578,0.256867,-0.457321,0.353080,-0.132775,-0.025100,0.012945,0.098046,0.999996,-0.002287,0.001765,-0.000664,-0.552044,-0.094905,-0.087646,0.823747,-2.346689,14.662520,-112.645000
03320,-2.588373,1.754875,9.642122,2.033696,-0.773891,0.087547,-0.549274,0.318035,-0.021256,-0.025729,0.017816,0.096414,0.999995,-0.002746,0.001590,-0.000106,-0.552109,-0.094675,-0.090821,0.823385,-2.669476,14.844327,-112.661303
03321,-1.372043,0.255477,8.582012,0.290331,-1.076898,-1.189790,-0.669416,0.362300,0.123979,-0.013567,0.002834,0.085836,0.999993,-0.003347,0.001811,0.000620,-0.552805,-0.094345,-0.094535,0.822538,-3.039780,15.053678,-112.593890
03322,-1.321916,-1.681435,9.028801,-1.512404,-0.575200,-0.676204,-0.577197,0.460390,0.220210,-0.012993,-0.016568,0.090366,0.999993,-0.002886,0.002302,0.001101,-0.553796,-0.094732,-0.098100,0.821409,-3.342740,15.324329,-112.473975
03323,-1.543912,-3.191818,8.605927,-2.789592,0.225841,-0.935743,-0.481240,0.540725,0.111914,-0.015188,-0.031719,0.086177,0.999993,-0.002406,0.002704,0.000560,-0.554251,-0.095646,-0.101538,0.820578,-3.608836,15.635997,-112.422342
03324,-1.956083,-3.850577,8.711057,-3.244420,0.738713,-0.676857,-0.288558,0.654266,-0.045572,-0.019284,-0.038376,0.087229,0.999994,-0.001443,0.003271,-0.000228,-0.553901,-0.097490,-0.104580,0.820215,-3.791171,16.008494,-112.469972
03325,-2.767564,-2.424422,9.465478,-1.656490,0.662287,0.184790,-0.131493,0.694837,-0.178968,-0.027368,-0.024157,0.094766,0.999993,-0.000657,0.003474,-0.000895,-0.552901,-0.099853,-0.107148,0.820274,-3.906832,16.397392,-112.599607
03326,-3.423548,-0.593644,9.702567,0.267021,0.437159,0.480519,-0.095752,0.672712,-0.247850,-0.033916,-0.005848,0.097143,0.999993,-0.000479,0.003364,-0.001239,-0.551604,-0.102195,-0.109550,0.820541,-4.014989,16.772145,-112.770651
03327,-3.863554,-0.232730,9.825662,0.751646,0.588810,0.704574,-0.098117,0.619879,-0.193301,-0.038333,-0.002242,0.098377,0.999995,-0.000491,0.003099,-0.000967,-0.550556,-0.104333,-0.111778,0.820676,-4.115295,17.117150,-112.907699
03328,-3.996290,-0.697089,9.823210,0.367230,0.813133,0.777655,-0.151571,0.553777,-0.190487,-0.039697,-0.006858,0.098347,0.999995,-0.000758,0.002769,-0.000952,-0.549577,-0.106063,-0.114050,0.820798,-4.246242,17.425804,-113.041345
03329,-3.766158,-0.836423,9.695979,0.160367,0.642539,0.601569,-0.151741,0.500898,-0.225105,-0.037428,-0.008248,0.097060,0.999996,-0.000759,0.002504,-0.001126,-0.548483,-0.107545,-0.116185,0.821037,-4.383429,17.700885,-113.194109
03330,-3.614958,-0.629784,9.806300,0.293908,0.345614,0.647810,-0.150323,0.448953,-0.245431,-0.035937,-0.006180,0.098148,0.999996,-0.000752,0.002245,-0.001227,-0.547329,-0.108816,-0.118193,0.821353,-4.524087,17.946722,-113.357785
03331,-3.312093,-0.710504,9.583471,0.122394,0.131705,0.350244,-0.168666,0.421222,-0.234357,-0.032927,-0.006986,0.095910,0.999997,-0.000843,0.002106,-0.001172,-0.546245,-0.109917,-0.120183,0.821639,-4.673340,18.175150,-113.514116
03332,-3.458116,-0.573503,9.477164,0.315050,0.195576,0.285156,-0.136022,0.396582,-0.188254,-0.034398,-0.005638,0.094844,0.999997,-0.000680,0.001983,-0.000941,-0.545342,-0.111045,-0.121955,0.821826,-4.795965,18.393054,-113.642494
03333,-3.279262,-0.597607,9.307030,0.238030,0.061051,0.070175,-0.177871,0.378439,-0.130804,-0.032620,-0.005872,0.093137,0.999998,-0.000889,0.001892,-0.000654,-0.544709,-0.112008,-0.123807,0.821838,-4.931626,18.601397,-113.735800
03334,-3.241530,-1.845650,9.108720,-0.915067,0.520228,-0.026238,-0.142641,0.398490,-0.094042,-0.032242,-0.018376,0.091165,0.999998,-0.000713,0.001992,-0.000470,-0.544190,-0.113182,-0.125558,0.821755,-5.041160,18.824564,-113.808825
03335,-3.680778,-2.545497,9.221225,-1.402995,1.088223,0.282159,0.013053,0.408934,-0.132809,-0.036636,-0.025437,0.092286,0.999998,0.000065,0.002045,-0.000664,-0.543417,-0.114787,-0.126709,0.821868,-5.069348,19.049913,-113.905949
03336,-3.520145,-2.066644,9.167318,-1.034874,0.752771,0.140424,0.147977,0.419546,-0.201961,-0.035030,-0.020699,0.091731,0.999997,0.000740,0.002098,-0.001010,-0.542270,-0.116768,-0.127386,0.822241,-5.035102,19.279599,-114.045828
03337,-3.419164,-2.221123,9.833282,-1.274554,0.469638,0.745358,0.201635,0.425078,-0.215382,-0.034007,-0.022274,0.098383,0.999997,0.001008,0.002125,-0.001077,-0.541033,-0.118898,-0.127852,0.822679,-4.972868,19.510118,-114.193829
03338,-4.973804,-2.961441,10.301801,-1.415094,1.904690,1.763386,0.390383,0.382112,-0.221166,-0.049574,-0.029761,0.103055,0.999996,0.001952,0.001911,-0.001106,-0.539680,-0.121366,-0.127441,0.823271,-4.804166,19.717863,-114.343156
03339,-5.044984,1.469965,9.954076,2.685790,0.353943,1.112398,0.120894,0.218230,-0.323424,-0.050317,0.014721,0.099605,0.999998,0.000604,0.001091,-0.001617,-0.538173,-0.122357,-0.127745,0.824063,-4.807546,19.825578,-114.545654
03340,-2.238903,1.139737,8.420122,1.374636,-1.422082,-1.251255,0.078789,0.315355,-0.236252,-0.022243,0.011391,0.084241,0.999998,0.000394,0.001577,-0.001181,-0.536985,-0.123701,-0.128445,0.824528,-4.820036,19.994867,-114.700744
03341,-2.367978,3.041512,10.180896,3.061234,-2.704365,0.278081,-0.419752,0.377393,-0.332422,-0.023437,0.030668,0.101789,0.999995,-0.002099,0.001887,-0.001662,-0.535667,-0.123889,-0.131410,0.824890,-5.139289,20.192406,-114.917900
03342,-2.150569,2.540531,9.794262,2.582663,-2.630465,-0.147474,-0.761659,0.499477,-0.573076,-0.021188,0.025839,0.097898,0.999986,-0.003808,0.002497,-0.002865,-0.533476,-0.123516,-0.136269,0.825578,-5.709470,20.446724,-115.290670
03343,-0.263889,2.468002,10.340781,1.800678,-4.494787,-0.344598,-1.250894,0.633488,-0.855714,-0.002204,0.025336,0.103258,0.999966,-0.006254,0.003167,-0.004279,-0.530305,-0.122180,-0.143663,0.826565,-6.626485,20.753660,-115.848158
03344,1.118306,3.937040,11.422216,2.606938,-6.764870,-0.083610,-1.342680,0.782388,-0.979149,0.011824,0.040079,0.113909,0.999958,-0.006713,0.003912,-0.004896,-0.526531,-0.121131,-0.151900,0.827659,-7.632145,21.129029,-116.498887
03345,-0.160227,4.519471,13.143436,3.716909,-6.746635,1.757172,-1.792391,0.819653,-0.909419,-0.000856,0.046375,0.131027,0.999941,-0.008962,0.004098,-0.004547,-0.523239,-0.119080,-0.162034,0.828122,-8.889082,21.517840,-117.119871
03346,-1.402800,0.445565,12.538043,0.711790,-4.028401,2.130104,-1.411199,0.863250,-0.710162,-0.013469,0.005389,0.125404,0.999959,-0.007056,0.004316,-0.003551,-0.520457,-0.118368,-0.170561,0.828265,-9.890658,21.939007,-117.633585
03347,-1.149206,1.293662,13.318269,1.413382,-5.039547,2.555592,-0.373712,0.876951,-0.467860,-0.010877,0.013211,0.133207,0.999986,-0.001869,0.004385,-0.002339,-0.518025,-0.120601,-0.174683,0.828608,-10.250319,22.385918,-118.008392
03348,1.554253,8.836875,15.915722,6.953898,-11.491255,2.573103,-0.171049,0.958202,-0.315743,0.016444,0.088479,0.159004,0.999987,-0.000855,0.004791,-0.001579,-0.516017,-0.123834,-0.178065,0.828664,-10.463927,22.892522,-118.302576
03349,2.376956,6.275189,15.572355,4.249393,-11.111673,2.270245,-0.201835,0.973350,-0.118087,0.024564,0.062895,0.155542,0.999987,-0.001009,0.004867,-0.000590,-0.514819,-0.127216,-0.181501,0.828152,-10.653882,23.427478,-118.480975
03350,7.467054,6.918511,15.167289,2.582594,-15.404385,-0.341545,-0.259580,0.831559,0.036834,0.075287,0.069395,0.151271,0.999990,-0.001298,0.004158,0.000184,-0.514421,-0.130005,-0.184677,0.827263,-10.830627,23.897371,-118.548975
03351,10.518359,5.802617,14.427689,0.220365,-17.148360,-2.174119,0.232422,0.894463,0.051616,0.105813,0.057886,0.143872,0.999989,0.001162,0.004472,0.000258,-0.513691,-0.134325,-0.185997,0.826730,-10.729457,24.405475,-118.617050
03352,7.562399,3.624451,16.648187,-0.625021,-14.939511,1.318669,0.570018,0.636244,-0.096506,0.076171,0.035734,0.166342,0.999991,0.002850,0.003181,-0.000483,-0.512362,-0.138300,-0.185302,0.827056,-10.454774,24.749183,-118.743332
03353,8.619484,2.512469,16.005609,-2.205892,-15.038059,0.472066,0.754533,0.083146,-0.453718,0.086317,0.024325,0.160113,0.999990,0.003773,0.000416,-0.002269,-0.509922,-0.140131,-0.182724,0.828827,-10.146281,24.748658,-119.029197
03354,8.142176,0.110659,15.675968,-4.301708,-13.437047,0.816505,1.077881,-0.316494,-0.731462,0.081175,-0.000036,0.156890,0.999978,0.005389,-0.001582,-0.003657,-0.506466,-0.140855,-0.177906,0.831867,-9.698852,24.491041,-119.441168
03355,7.895898,0.643039,14.996439,-3.874837,-13.014637,0.348412,1.463090,-0.842623,-0.919205,0.078351,0.004970,0.150335,0.999954,0.007315,-0.004213,-0.004596,-0.502379,-0.140207,-0.170343,0.836027,-9.060856,23.927888,-119.919506
03356,6.994824,-0.432512,13.548724,-4.523011,-11.008248,-0.271506,1.616783,-1.133288,-0.938125,0.069154,-0.005748,0.135838,0.999940,0.008084,-0.005666,-0.004691,-0.498314,-0.138667,-0.161320,0.840494,-8.318287,23.195803,-120.384123
03357,4.316037,-0.459773,13.357378,-3.457410,-8.556100,0.774527,1.767428,-1.374261,-0.902972,0.042217,-0.005972,0.133817,0.999927,0.008837,-0.006871,-0.004515,-0.494407,-0.136533,-0.151101,0.845038,-7.477489,22.343687,-120.817515
03358,2.972036,-0.340753,12.186700,-2.760467,-6.834792,0.342235,1.770353,-1.503954,-0.788726,0.028786,-0.004602,0.122049,0.999925,0.008852,-0.007520,-0.003944,-0.491022,-0.133881,-0.140356,0.849278,-6.595660,21.422396,-121.179074
03359,1.899036,-0.136062,11.320394,-2.096302,-5.523756,0.029264,1.687799,-1.473277,-0.577148,0.018150,-0.002370,0.113323,0.999933,0.008439,-0.007366,-0.002886,-0.488482,-0.131330,-0.129968,0.852787,-5.722350,20.546426,-121.429268
03360,0.212480,-0.278395,11.814305,-1.526367,-4.053778,1.184244,1.495040,-1.440376,-0.280609,0.001269,-0.003669,0.118129,0.999945,0.007475,-0.007202,-0.001403,-0.487270,-0.128575,-0.120174,0.855333,-4.891274,19.698018,-121.510626
03361,-0.417901,-1.294317,11.791491,-2.147330,-2.810542,1.517553,1.301773,-1.506746,0.030874,-0.005065,-0.013711,0.117791,0.999950,0.006509,-0.007534,0.000154,-0.487487,-0.125289,-0.110928,0.856945,-4.118084,18.837398,-121.415284
03362,-1.713635,-2.291127,12.929901,-2.534035,-1.373861,3.112227,1.291132,-1.569934,0.335390,-0.018110,-0.023775,0.129008,0.999947,0.006456,-0.007850,0.001677,-0.489016,-0.121808,-0.101274,0.857770,-3.290414,17.939694,-121.144404
03363,-4.934488,-3.437814,13.395159,-2.031035,1.986887,4.592707,1.277555,-1.954257,0.534535,-0.050555,-0.035365,0.133238,0.999928,0.006388,-0.009771,0.002673,-0.491525,-0.116786,-0.090702,0.858218,-2.447796,16.835214,-120.760414
03364,-0.937122,-3.314098,10.853101,-3.611875,-0.379856,0.978797,1.042885,-2.139363,0.604736,-0.010429,-0.033736,0.108248,0.999925,0.005214,-0.010697,0.003024,-0.494499,-0.110350,-0.080533,0.858375,-1.732553,15.610163,-120.346176
03365,-2.681232,-4.409293,10.665569,-3.697300,1.912289,1.280229,1.148429,-2.058506,0.686153,-0.027754,-0.044797,0.106117,0.999925,0.005742,-0.010292,0.003431,-0.497640,-0.104595,-0.070149,0.858192,-0.964524,14.438676,-119.905867
03366,-2.648744,-3.537538,10.469528,-2.946345,1.749175,1.022223,1.026740,-2.102781,0.728072,-0.027455,-0.036010,0.104226,0.999925,0.005134,-0.010514,0.003640,-0.500980,-0.098286,-0.060054,0.857760,-0.267543,13.225407,-119.456357
03367,-2.820779,-4.028781,9.658999,-3.212783,2.527380,0.225766,0.938253,-1.997085,0.787193,-0.029009,-0.040853,0.096112,0.999931,0.004691,-0.009985,0.003936,-0.504498,-0.092272,-0.050656,0.856972,0.367934,12.079027,-118.990590
03368,-4.487169,-4.694775,10.193128,-3.081255,4.395611,1.015756,0.913244,-1.886551,0.818156,-0.045635,-0.047597,0.101287,0.999937,0.004566,-0.009433,0.004091,-0.508079,-0.086601,-0.041539,0.855938,0.985860,10.979634,-118.519063
03369,-6.912504,-4.269855,10.680663,-1.654162,6.437324,1.845302,0.919210,-1.915372,0.764401,-0.069977,-0.043453,0.105941,0.999936,0.004596,-0.009577,0.003822,-0.511355,-0.080862,-0.032426,0.854942,1.585245,9.870822,-118.094421
03370,-5.825301,-4.768908,9.025584,-2.438503,6.175760,-0.114881,0.601892,-1.907220,0.578204,-0.058971,-0.048129,0.089551,0.999946,0.003009,-0.009536,0.002891,-0.513914,-0.074246,-0.024686,0.854266,1.979274,8.755863,-117.787516
03371,-8.218744,-4.274558,9.682189,-0.973407,8.150943,0.778517,0.767228,-1.720833,0.503425,-0.082907,-0.043323,0.095945,0.999952,0.003836,-0.008604,0.002517,-0.516003,-0.068895,-0.016819,0.853646,2.451658,7.757581,-117.530372
03372,-8.915434,-3.524324,9.184144,0.049198,8.658999,0.250536,0.607466,-1.760951,0.453455,-0.089877,-0.035724,0.090944,0.999954,0.003037,-0.008805,0.002267,-0.517900,-0.062892,-0.009483,0.853073,2.826094,6.726260,-117.310082
03373,-8.825730,-4.123633,7.764732,-0.390712,9.142127,-1.359657,0.599130,-1.648196,0.481789,-0.088792,-0.041681,0.076793,0.999959,0.002996,-0.008241,0.002409,-0.519859,-0.057403,-0.002528,0.852318,3.190457,5.766762,-117.078259
03374,-9.549783,-4.024829,7.076385,0.073940,9.918669,-2.126072,0.545614,-1.456053,0.455255,-0.095917,-0.040658,0.069956,0.999967,0.002728,-0.007280,0.002276,-0.521688,-0.052537,0.003744,0.851509,3.521175,4.908522,-116.860548
03375,-10.572031,-3.870202,6.590002,0.699007,10.889519,-2.664147,0.453733,-1.228003,0.351957,-0.106053,-0.039037,0.065161,0.999977,0.002269,-0.006140,0.001760,-0.523067,-0.048453,0.008951,0.850866,3.789791,4.191489,-116.699332
03376,-10.858265,-3.454756,6.005749,1.240700,11.060442,-3.329475,0.303459,-0.984547,0.213383,-0.108839,-0.034754,0.059469,0.999986,0.001517,-0.004923,0.001067,-0.523892,-0.044973,0.012886,0.850499,3.966812,3.611871,-116.610296
03377,-11.214110,-2.872671,5.912763,1.926587,11.176713,-3.461485,0.195749,-0.741402,0.111846,-0.112343,-0.028847,0.058683,0.999992,0.000979,-0.003707,0.000559,-0.524306,-0.042293,0.015665,0.850335,4.077103,3.181588,-116.571788
03378,-11.268886,-2.426322,6.032934,2.344866,11.065901,-3.384774,0.045179,-0.581965,0.080555,-0.112854,-0.024322,0.059996,0.999996,0.000226,-0.002910,0.000403,-0.524631,-0.039867,0.017404,0.850218,4.100913,2.838981,-116.544670
03379,-10.764994,-1.778373,5.632269,2.739536,10.359947,-3.817990,-0.108627,-0.440631,0.132728,-0.107762,-0.017825,0.056095,0.999997,-0.000543,-0.002203,0.000664,-0.525211,-0.037665,0.018103,0.849946,4.037473,2.579713,-116.482352
03380,-10.228027,-1.510670,5.202807,2.775573,9.782109,-4.283641,-0.344625,-0.227525,0.273707,-0.102319,-0.015157,0.051938,0.999997,-0.001723,-0.001138,0.001369,-0.526454,-0.035715,0.017281,0.849277,3.842762,2.433986,-116.330068
03381,-10.669802,-0.923104,5.688257,3.444390,9.922897,-3.752548,-0.421119,-0.049821,0.449367,-0.106691,-0.009351,0.056876,0.999995,-0.002106,-0.000249,0.002247,-0.528464,-0.034323,0.015683,0.848116,3.608250,2.386753,-116.070450
03382,-9.672372,-0.908752,5.596560,3.000614,9.028393,-3.880870,-0.629852,0.080226,0.630857,-0.096672,-0.009216,0.056033,0.999990,-0.003149,0.000401,0.003154,-0.531284,-0.032908,0.012892,0.846456,3.258597,2.407840,-115.702091
03383,-8.850738,-0.908737,5.735149,2.603601,8.284812,-3.759894,-0.747764,0.214724,0.781211,-0.088410,-0.009218,0.057481,0.999985,-0.003739,0.001074,0.003906,-0.534753,-0.031747,0.009264,0.844361,2.845652,2.504893,-115.243811
03384,-8.062521,-1.465686,5.995988,1.717788,7.790604,-3.530983,-0.853714,0.344995,0.791286,-0.080463,-0.014719,0.060162,0.999982,-0.004269,0.001725,0.003956,-0.538268,-0.030853,0.004838,0.842195,2.373245,2.680119,-114.777087
03385,-7.935684,-1.641410,6.260991,1.464965,7.713615,-3.238265,-0.825744,0.422071,0.713433,-0.079166,-0.016438,0.062845,0.999983,-0.004129,0.002110,0.003567,-0.541434,-0.030358,0.000314,0.840195,1.916557,2.904581,-114.354681
03386,-8.685292,-1.616374,6.331930,1.768846,8.349976,-3.082972,-0.807683,0.407339,0.683242,-0.086668,-0.016204,0.063561,0.999984,-0.004038,0.002037,0.003416,-0.544452,-0.029858,-0.004110,0.838251,1.470345,3.126034,-113.951676
03387,-8.127716,-1.784822,5.127071,1.414117,7.930200,-4.276973,-0.744156,0.369243,0.735066,-0.081116,-0.017955,0.051487,0.999985,-0.003721,0.001846,0.003675,-0.547661,-0.029362,-0.008146,0.836145,1.064072,3.326397,-113.520854
03388,-7.251437,-1.674142,5.033037,1.131600,7.064080,-4.378033,-0.693125,0.453726,0.868504,-0.072327,-0.016881,0.050553,0.999982,-0.003466,0.002269,0.004342,-0.551397,-0.029381,-0.012198,0.833636,0.692565,3.579813,-113.014240
03389,-1.329395,-1.477135,8.107221,-1.147289,1.354913,-1.656464,0.145345,0.438724,0.723969,-0.013062,-0.014878,0.081090,0.999991,0.000727,0.002194,0.003620,-0.554395,-0.031623,-0.012716,0.831556,0.799029,3.823972,-112.590897
03390,40.738245,13.209234,21.513716,-4.838618,-43.805978,9.013752,2.653971,1.223502,-1.290555,0.409524,0.126606,0.214341,0.999872,0.013269,0.006117,-0.006453,-0.548492,-0.043968,-0.005320,0.834982,2.262140,4.546134,-113.309153
03391,-1.680436,30.087958,34.241654,26.137417,-12.390764,25.456007,-1.208578,1.428426,2.150968,-0.017616,0.302755,0.340715,0.999898,-0.006043,0.007142,0.010754,-0.557677,-0.046638,-0.013830,0.828631,1.674608,5.319889,-112.040293
03392,-17.053142,-17.788849,-10.065916,-9.912233,23.105525,-18.551850,-2.446517,0.355971,2.883393,-0.168108,-0.181535,-0.098153,0.999820,-0.012232,0.001780,0.014416,-0.570099,-0.041461,-0.024285,0.820170,0.428081,5.491576,-110.373188
03393,-16.520262,-10.554273,13.977255,-5.029151,17.737529,5.670368,0.540633,1.477546,2.352729,-0.162906,-0.107848,0.140692,0.999900,0.002703,0.007387,0.011763,-0.579432,-0.049310,-0.025809,0.813118,0.874620,6.321022,-109.003960
03394,6.599952,-14.429220,9.946669,-16.278205,-2.527117,-0.905939,-0.117284,1.032193,0.155051,0.066624,-0.144182,0.099208,0.999986,-0.000586,0.005161,0.000775,-0.579981,-0.053172,-0.029268,0.812366,0.815232,6.911771,-108.901598
03395,0.455862,-3.556506,9.016844,-4.013559,-0.288072,-0.982761,0.395240,1.230842,-0.708071,0.004987,-0.035760,0.090068,0.999973,0.001976,0.006154,-0.003540,-0.576838,-0.059181,-0.031438,0.814105,0.987798,7.621486,-109.294889
03396,-1.221630,3.080425,9.043272,2.722783,-1.025522,-0.631452,0.419388,1.363672,-0.622713,-0.011503,0.030651,0.090577,0.999970,0.002097,0.006818,-0.003114,-0.573981,-0.065815,-0.033884,0.815516,1.175035,8.409323,-109.635909
03397,-3.439004,4.301702,10.480599,4.442868,0.303283,1.157326,0.133272,1.330365,-0.249524,-0.033638,0.042989,0.105060,0.999977,0.000666,0.006652,-0.001248,-0.572715,-0.071546,-0.037259,0.815776,1.228297,9.172570,-109.759910
03398,-5.233163,2.798685,11.104910,3.537833,2.251964,2.059475,-0.092510,1.174804,-0.134653,-0.051659,0.028073,0.111341,0.999982,-0.000463,0.005874,-0.000673,-0.572003,-0.076024,-0.041080,0.815687,1.160506,9.847165,-109.819615
03399,-5.201003,1.642691,11.856927,2.374279,2.364517,2.801029,-0.371521,0.949236,-0.313857,-0.051421,0.016728,0.118783,0.999986,-0.001858,0.004746,-0.001569,-0.570697,-0.078736,-0.045447,0.816113,0.913945,10.392389,-109.987773
03400,-4.893288,0.428737,11.118094,1.213903,2.499100,2.020317,-0.483526,0.706989,-0.347324,-0.048532,0.004641,0.111342,0.999989,-0.002418,0.003535,-0.001737,-0.569335,-0.080145,-0.049607,0.816684,0.596871,10.800593,-110.180546
03401,-3.728792,-0.947025,10.649108,-0.399081,1.892944,1.343527,-0.468108,0.554672,-0.295762,-0.037006,-0.009166,0.106616,0.999992,-0.002341,0.002773,-0.001479,-0.568209,-0.080972,-0.053233,0.817159,0.293039,11.117934,-110.346124
03402,-3.318382,-1.285919,10.805310,-0.832867,1.535764,1.428635,-0.380568,0.437094,-0.342487,-0.032969,-0.012597,0.108149,0.999994,-0.001903,0.002185,-0.001712,-0.566876,-0.081571,-0.056203,0.817826,0.032297,11.369835,-110.541259
03403,-3.345864,-1.403209,10.179615,-0.858655,1.665840,0.830425,-0.264209,0.326223,-0.414928,-0.033321,-0.013828,0.101869,0.999996,-0.001321,0.001631,-0.002075,-0.565228,-0.082008,-0.058395,0.818768,-0.170581,11.554732,-110.779528
03404,-2.624918,0.008122,10.037338,0.246936,0.491999,0.547583,-0.254438,0.252527,-0.412547,-0.026122,0.000263,0.100406,0.999996,-0.001272,0.001263,-0.002063,-0.563600,-0.082188,-0.060356,0.819730,-0.369166,11.699402,-111.017346
03405,-2.068717,0.054846,9.646557,0.142389,0.007532,0.052313,-0.204219,0.234781,-0.325088,-0.020573,0.000680,0.096489,0.999997,-0.001021,0.001174,-0.001625,-0.562315,-0.082446,-0.062006,0.820463,-0.528406,11.830760,-111.204124
03406,-2.285063,0.337522,9.903891,0.481514,0.022631,0.345562,-0.177969,0.209181,-0.255941,-0.022743,0.003493,0.099060,0.999998,-0.000890,0.001046,-0.001280,-0.561305,-0.082710,-0.063467,0.821016,-0.665512,11.950213,-111.351049
03407,-1.834676,0.283313,9.580434,0.306043,-0.331804,-0.064499,-0.194261,0.192345,-0.213072,-0.018252,0.002946,0.095819,0.999998,-0.000971,0.000962,-0.001065,-0.560485,-0.082857,-0.064910,0.821449,-0.806269,12.057165,-111.472732
03408,-1.996415,-0.077611,9.608637,0.039594,-0.085410,0.001011,-0.182242,0.199752,-0.160785,-0.019869,-0.000673,0.096107,0.999999,-0.000911,0.000999,-0.000804,-0.559867,-0.083101,-0.066322,0.821733,-0.934745,12.171325,-111.564509
03409,-1.773078,0.104842,9.165561,0.167404,-0.290221,-0.482628,-0.148647,0.209238,-0.131879,-0.017634,0.001128,0.091673,0.999999,-0.000743,0.001046,-0.000659,-0.559353,-0.083470,-0.067591,0.821942,-1.039915,12.288232,-111.639352
03410,-1.418052,0.424194,9.128200,0.345220,-0.748223,-0.602054,-0.138454,0.269799,-0.079439,-0.014056,0.004311,0.091298,0.999999,-0.000692,0.001349,-0.000397,-0.559025,-0.084151,-0.068984,0.821980,-1.133728,12.443011,-111.684717
03411,-1.533696,0.254178,9.406812,0.216504,-0.670143,-0.304330,-0.181361,0.317180,0.003206,-0.015188,0.002627,0.094090,0.999998,-0.000907,0.001586,0.000016,-0.559040,-0.084919,-0.070632,0.821751,-1.241221,12.623099,-111.682108
03412,-2.352857,0.137055,9.731229,0.385517,0.012788,0.192444,-0.129499,0.316111,0.067041,-0.023375,0.001426,0.097348,0.999998,-0.000647,0.001581,0.000335,-0.559291,-0.085865,-0.072054,0.821358,-1.311408,12.806012,-111.642629
03413,-2.077053,-0.609427,9.325728,-0.382661,0.087516,-0.247094,-0.179810,0.320637,0.057897,-0.020619,-0.006016,0.093296,0.999998,-0.000899,0.001603,0.000289,-0.559525,-0.086670,-0.073682,0.820969,-1.410958,12.988831,-111.608486
03414,-1.896399,-0.967162,9.423867,-0.783410,-0.004390,-0.183195,-0.166688,0.355398,-0.003272,-0.018797,-0.009593,0.094280,0.999998,-0.000833,0.001777,-0.000016,-0.559485,-0.087647,-0.075396,0.820738,-1.511814,13.193323,-111.611485
03415,-1.728601,-1.917137,9.165644,-1.712586,0.207029,-0.448043,-0.116021,0.410351,-0.089196,-0.017106,-0.019111,0.091703,0.999998,-0.000580,0.002052,-0.000446,-0.559050,-0.088943,-0.077077,0.820738,-1.594967,13.425352,-111.665920
03416,-2.093260,-1.953453,9.385539,-1.633252,0.460995,-0.148014,-0.016339,0.446059,-0.227666,-0.020745,-0.019503,0.093903,0.999997,-0.000082,0.002230,-0.001138,-0.557982,-0.090625,-0.078528,0.821143,-1.641359,13.678042,-111.803202
03417,-1.937842,-0.968246,9.116917,-0.765872,-0.016671,-0.473313,0.034885,0.492972,-0.340808,-0.019170,-0.009666,0.091215,0.999995,0.000174,0.002465,-0.001704,-0.556407,-0.092582,-0.079932,0.821858,-1.674422,13.953122,-112.007995
03418,-1.860914,0.305711,9.290590,0.365381,-0.641958,-0.361461,0.024016,0.554852,-0.333911,-0.018346,0.003077,0.092957,0.999995,0.000120,0.002774,-0.001670,-0.554833,-0.094779,-0.081567,0.822511,-1.715111,14.266069,-112.210603
03419,-2.246041,0.139590,9.659278,0.314056,-0.376913,0.093112,-0.025034,0.578003,-0.287618,-0.022179,0.001440,0.096657,0.999995,-0.000125,0.002890,-0.001438,-0.553460,-0.096939,-0.083427,0.822998,-1.777420,14.590467,-112.386466
03420,-2.712340,-0.127976,9.665143,0.227686,0.081237,0.223718,-0.067726,0.563811,-0.300976,-0.026853,-0.001206,0.096728,0.999995,-0.000339,0.002819,-0.001505,-0.552050,-0.098929,-0.085447,0.823500,-1.868196,14.908620,-112.571039
03421,-2.676327,-0.557722,9.594556,-0.185814,0.171563,0.160530,-0.054151,0.566140,-0.328041,-0.026501,-0.005508,0.096022,0.999995,-0.000271,0.002831,-0.001640,-0.550518,-0.100941,-0.087412,0.824075,-1.955641,15.224958,-112.772126
03422,-2.568994,0.214629,9.651793,0.477309,-0.288456,0.161859,-0.071484,0.563522,-0.316009,-0.025414,0.002221,0.096589,0.999995,-0.000357,0.002818,-0.001580,-0.549037,-0.102911,-0.089452,0.824601,-2.053340,15.542066,-112.967224
03423,-3.102770,0.348895,9.591263,0.798907,0.091729,0.241878,-0.074536,0.553773,-0.232462,-0.030758,0.003561,0.095997,0.999995,-0.000373,0.002769,-0.001162,-0.547903,-0.104857,-0.091416,0.824894,-2.139596,15.852699,-113.112862
03424,-3.427080,-0.336228,9.665352,0.278057,0.564549,0.428439,-0.123211,0.516082,-0.166474,-0.034024,-0.003274,0.096744,0.999996,-0.000616,0.002580,-0.000832,-0.547077,-0.106555,-0.093459,0.824996,-2.244461,16.145301,-113.219479
03425,-3.225754,-1.096494,9.579112,-0.498241,0.650376,0.321203,-0.070481,0.484101,-0.156579,-0.032034,-0.010906,0.095873,0.999997,-0.000352,0.002421,-0.000783,-0.546278,-0.108257,-0.095175,0.825107,-2.317079,16.417324,-113.319670
03426,-3.440184,-0.514040,9.714907,0.100803,0.530457,0.492010,0.005073,0.458555,-0.187239,-0.034184,-0.005111,0.097227,0.999997,0.000025,0.002293,-0.000936,-0.545317,-0.110058,-0.096542,0.825346,-2.352907,16.676303,-113.438363
03427,-3.286310,0.271657,9.612488,0.765331,0.075147,0.320526,-0.058062,0.426544,-0.192973,-0.032655,0.002776,0.096194,0.999997,-0.000290,0.002133,-0.000965,-0.544383,-0.111538,-0.098068,0.825584,-2.425377,16.914326,-113.559685
03428,-3.504570,0.167445,9.771496,0.737265,0.217113,0.541120,-0.103716,0.395237,-0.155866,-0.034851,0.001752,0.097783,0.999998,-0.000519,0.001976,-0.000779,-0.543636,-0.112796,-0.099693,0.825711,-2.518739,17.137604,-113.658912
03429,-3.765530,0.236520,9.809794,0.899883,0.365822,0.652658,-0.153421,0.332325,-0.120826,-0.037491,0.002463,0.098158,0.999998,-0.000767,0.001662,-0.000604,-0.543095,-0.113663,-0.101315,0.825751,-2.633492,17.323176,-113.735552
03430,-3.532694,-0.821738,9.393403,-0.123968,0.657671,0.234361,-0.187624,0.297937,-0.105453,-0.035191,-0.008111,0.093994,0.999998,-0.000938,0.001490,-0.000527,-0.542648,-0.114316,-0.102992,0.825747,-2.765921,17.491813,-113.802920
03431,-3.578755,-1.574823,9.446693,-0.796802,0.942399,0.336424,-0.111586,0.286913,-0.123714,-0.035662,-0.015673,0.094527,0.999999,-0.000558,0.001435,-0.000619,-0.542090,-0.115106,-0.104319,0.825837,-2.857543,17.651013,-113.880899
03432,-3.562229,-1.644146,9.383657,-0.861587,0.945042,0.277417,-0.015370,0.266806,-0.156261,-0.035510,-0.016406,0.093885,0.999999,-0.000077,0.001334,-0.000781,-0.541348,-0.116071,-0.105231,0.826073,-2.900963,17.800228,-113.978541
03433,-3.150530,-2.041456,9.239885,-1.381596,0.764086,0.034962,0.102262,0.256884,-0.184625,-0.031405,-0.020433,0.092429,0.999999,0.000511,0.001284,-0.000923,-0.540428,-0.117283,-0.105628,0.826453,-2.881515,17.940381,-114.092592
03434,-3.064050,-1.732497,9.237754,-1.149558,0.552618,-0.009672,0.259451,0.260604,-0.171688,-0.030535,-0.017419,0.092395,0.999998,0.001297,0.001303,-0.000858,-0.539462,-0.118956,-0.105397,0.826875,-2.770978,18.085714,-114.199383
03435,-3.037855,-1.279790,9.055129,-0.760728,0.395166,-0.214417,0.381151,0.281451,-0.120465,-0.030259,-0.012952,0.090569,0.999997,0.001906,0.001407,-0.000602,-0.538625,-0.121056,-0.104669,0.827208,-2.580349,18.242050,-114.275113
03436,-2.478879,-0.545895,9.318917,-0.372753,-0.471654,-0.173007,0.446044,0.319838,-0.028793,-0.024641,-0.005663,0.093216,0.999996,0.002230,0.001599,-0.000144,-0.538101,-0.123550,-0.103740,0.827297,-2.336770,18.425424,-114.296519
03437,-3.429035,-0.129978,9.869808,0.273289,0.004263,0.633042,0.495599,0.345178,0.058726,-0.034120,-0.001554,0.098753,0.999995,0.002478,0.001726,0.000294,-0.537894,-0.126313,-0.102599,0.827157,-2.046718,18.622776,-114.264285
03438,-4.536324,0.579043,10.530991,1.236297,0.456244,1.592508,0.306002,0.343791,-0.016545,-0.045182,0.005633,0.105396,0.999997,0.001530,0.001719,-0.000083,-0.537489,-0.128534,-0.102305,0.827114,-1.880760,18.820208,-114.277178
03439,-4.634432,3.047209,10.784084,3.501594,-0.567002,1.783731,-0.334330,0.277588,-0.324923,-0.046145,0.030727,0.107854,0.999996,-0.001672,0.001388,-0.001625,-0.536254,-0.128588,-0.104659,0.827613,-2.140517,18.971048,-114.474970
03440,-0.529305,1.611375,8.976906,0.803511,-3.023328,-1.229293,-0.817960,0.453435,-0.678251,-0.005034,0.016498,0.089714,0.999983,-0.004090,0.002267,-0.003391,-0.533762,-0.127902,-0.109728,0.828673,-2.750898,19.215068,-114.893282
03441,0.343040,3.901515,10.957701,2.427752,-5.441170,0.182668,-1.341799,0.712765,-1.218323,0.004061,0.039726,0.109298,0.999953,-0.006709,0.003564,-0.006092,-0.529194,-0.126572,-0.117981,0.830671,-3.775844,19.581578,-115.651974
03442,1.752353,4.633817,11.933640,2.529818,-7.444066,0.440758,-1.901174,1.008202,-1.755729,0.018536,0.047309,0.118798,0.999904,-0.009506,0.005041,-0.008778,-0.522495,-0.124667,-0.129674,0.833452,-5.246149,20.079022,-116.761842
03443,0.172700,3.991569,14.119581,2.616710,-6.884204,2.878571,-2.539265,1.333192,-2.086369,0.003095,0.041676,0.140657,0.999843,-0.012696,0.006666,-0.010431,-0.514476,-0.122191,-0.145035,0.836271,-7.176088,20.707839,-118.112912
03444,-0.190561,5.432638,15.989788,4.096103,-8.246182,4.344624,-1.456906,1.567010,-2.070588,-0.000084,0.055496,0.159502,0.999889,-0.007284,0.007835,-0.010353,-0.505552,-0.123466,-0.156427,0.839466,-8.512920,21.435531,-119.498867
03445,2.839550,10.940588,18.102809,7.481304,-14.322291,4.128242,-1.145049,1.623239,-1.702352,0.030796,0.110184,0.180155,0.999914,-0.005725,0.008116,-0.008512,-0.497841,-0.126018,-0.166391,0.841777,-9.615562,22.199314,-120.689171
03446,6.705979,17.120692,20.363874,10.900379,-21.446766,3.377006,-0.914351,1.556031,-0.908095,0.069417,0.171822,0.202320,0.999949,-0.004572,0.007780,-0.004540,-0.493315,-0.129515,-0.174680,0.842231,-10.417306,22.986102,-121.406634
03447,9.805342,12.656354,16.456961,5.633928,-20.442351,-1.008224,-0.722016,1.422229,0.012340,0.099210,0.127161,0.163409,0.999968,-0.003610,0.007111,0.000062,-0.492617,-0.133706,-0.181233,0.840599,-10.895280,23.787349,-121.558128
03448,11.390565,11.989798,17.570661,4.276449,-21.985471,-0.836552,-0.492107,1.390779,0.620428,0.114749,0.120684,0.174614,0.999968,-0.002461,0.006954,0.003102,-0.494323,-0.138880,-0.186282,0.837649,-11.085629,24.634745,-121.335466
03449,11.221312,6.051747,18.122056,-0.843930,-19.574729,0.534541,0.051188,0.998083,0.918422,0.112836,0.060988,0.180674,0.999977,0.000256,0.004990,0.004592,-0.497233,-0.144015,-0.187910,0.834691,-10.868449,25.295488,-120.880577
03450,11.676059,3.857918,19.020705,-3.028534,-19.430619,1.424756,0.571875,0.259075,0.941338,0.116825,0.038585,0.190166,0.999984,0.002859,0.001295,0.004707,-0.500549,-0.147371,-0.185438,0.832673,-10.296730,25.535212,-120.316092
03451,14.006659,0.930058,16.482113,-6.537645,-18.804856,-1.307004,0.850349,-0.539611,0.711574,0.139589,0.009096,0.165237,0.999981,0.004252,-0.002698,0.003558,-0.503416,-0.147886,-0.180037,0.832039,-9.595227,25.300160,-119.807183
03452,14.183827,-1.617388,14.832507,-8.794307,-17.031145,-2.302971,1.106412,-1.100976,0.403514,0.141053,-0.016712,0.149012,0.999968,0.005532,-0.005505,0.002018,-0.505307,-0.146401,-0.172293,0.832795,-8.802099,24.706168,-119.435879
03453,11.324353,-2.863519,14.957587,-8.699621,-14.122883,-0.592023,1.499441,-1.624370,0.101434,0.112040,-0.029703,0.150269,0.999939,0.007497,-0.008122,0.000507,-0.506040,-0.143479,-0.161878,0.834945,-7.858375,23.792646,-119.219832
03454,7.760313,-3.800336,14.941307,-8.033901,-10.578021,1.207903,1.710386,-2.208026,-0.129441,0.075925,-0.039334,0.149925,0.999902,0.008552,-0.011040,-0.000647,-0.506069,-0.138401,-0.149153,0.838149,-6.835358,22.517419,-119.115655
03455,6.309399,-4.046998,13.276024,-7.549432,-8.290503,0.516688,1.807504,-2.629511,-0.299908,0.061283,-0.041765,0.133200,0.999872,0.009037,-0.013147,-0.001499,-0.505497,-0.131689,-0.135131,0.841945,-5.803959,20.999846,-119.116027
03456,3.722175,-4.396398,11.880643,-6.626228,-5.142125,0.383891,1.818344,-2.718931,-0.373504,0.035522,-0.045112,0.118890,0.999865,0.009091,-0.013594,-0.001867,-0.504555,-0.124484,-0.120753,0.845782,-4.783198,19.416044,-119.182040
03457,1.859779,-2.868150,10.979243,-4.380335,-3.663275,0.167878,1.685169,-2.577303,-0.364885,0.017130,-0.029639,0.109772,0.999880,0.008426,-0.012886,-0.001824,-0.503497,-0.117575,-0.107356,0.849200,-3.853095,17.926430,-119.279911
03458,-2.593190,-4.524374,13.149843,-3.980740,0.515110,3.751586,1.389786,-2.278051,-0.214816,-0.027474,-0.046126,0.130873,0.999910,0.006949,-0.011390,-0.001074,-0.503004,-0.111181,-0.095758,0.851737,-3.066922,16.602297,-119.318558
03459,-9.099002,-5.093337,12.860830,-1.423391,6.722565,5.250310,1.897057,-2.464558,0.118211,-0.092531,-0.052197,0.126983,0.999879,0.009485,-0.012322,0.000591,-0.503611,-0.105472,-0.081422,0.853594,-1.945933,15.193003,-119.179306
03460,-7.141782,-3.502830,10.230232,-0.736774,5.365943,1.959476,1.632691,-2.459566,0.498641,-0.072577,-0.036037,0.101123,0.999888,0.008163,-0.012297,0.002493,-0.505879,-0.099182,-0.067917,0.854188,-0.925059,13.777734,-118.840901
03461,-8.111479,-3.919041,8.432774,-0.534791,7.086041,0.274884,1.584142,-2.072495,0.887162,-0.081804,-0.040214,0.083167,0.999905,0.007920,-0.010362,0.004436,-0.509575,-0.094601,-0.055483,0.853408,0.100607,12.592270,-118.305511
03462,-9.697981,-4.465203,8.433826,-0.398359,8.952112,0.425007,1.366441,-1.607914,1.186597,-0.097383,-0.045800,0.083246,0.999927,0.006832,-0.008039,0.005933,-0.514454,-0.091450,-0.044927,0.851443,1.028998,11.651333,-117.613035
03463,-13.987847,-4.250681,10.431102,1.368240,12.473198,3.035307,0.945445,-1.527615,1.212083,-0.140406,-0.043846,0.103035,0.999941,0.004727,-0.007638,0.006060,-0.519532,-0.087616,-0.036435,0.849166,1.700843,10.757932,-116.922048
03464,-14.069861,-8.914757,8.506358,-2.674557,15.196579,0.755711,0.725268,-1.702297,1.069424,-0.140934,-0.090206,0.083539,0.999943,0.003626,-0.008511,0.005347,-0.524085,-0.082376,-0.028413,0.847196,2.221383,9.750526,-116.327726
03465,-13.185578,-6.533693,6.682128,-0.850101,13.768325,-1.392480,1.027237,-1.730322,0.794265,-0.132164,-0.066200,0.065340,0.999941,0.005136,-0.008651,0.003971,-0.527278,-0.077815,-0.019218,0.845904,2.873352,8.737948,-115.907345
03466,-10.811388,-7.001555,3.741290,-2.028361,12.322454,-4.919365,0.550933,-1.398968,0.414996,-0.108225,-0.070341,0.036463,0.999970,0.002755,-0.006995,0.002075,-0.528984,-0.073309,-0.013005,0.845360,3.216248,7.915013,-115.704893
03467,-13.161305,-6.915181,3.987241,-0.987569,14.419309,-4.517044,0.563043,-0.871451,0.141037,-0.131736,-0.069355,0.039104,0.999986,0.002815,-0.004357,0.000705,-0.529459,-0.071091,-0.008288,0.845311,3.542179,7.409820,-115.648824
03468,-16.419932,-6.874023,5.000412,0.336722,17.279723,-3.242588,0.532530,-0.704664,-0.031182,-0.164384,-0.068846,0.049242,0.999990,0.002663,-0.003523,-0.000156,-0.529206,-0.069449,-0.004167,0.845636,3.839276,6.999873,-115.687735
03469,-16.736748,-5.241658,4.746043,2.002112,16.918276,-3.497654,0.246773,-0.893274,-0.224392,-0.167636,-0.052286,0.046648,0.999989,0.001234,-0.004466,-0.001122,-0.528220,-0.066288,-0.000857,0.846516,3.957737,6.495958,-115.847595
03470,-12.762340,-6.172881,1.900529,-0.174025,14.012790,-6.948357,0.083428,-0.629894,-0.335928,-0.127786,-0.061522,0.018577,0.999994,0.000417,-0.003149,-0.001680,-0.526811,-0.063781,0.001047,0.847585,3.978032,6.143412,-116.060964
03471,-14.261529,-3.272814,2.985135,3.012075,13.996632,-5.565941,-0.106848,-0.272437,-0.364395,-0.142715,-0.032452,0.029674,0.999997,-0.000534,-0.001362,-0.001822,-0.525333,-0.062315,0.001175,0.848611,3.889829,5.999973,-116.276862
03472,-13.903891,-3.123026,3.341167,3.006477,13.577698,-5.247405,-0.652371,-0.066762,-0.243155,-0.139088,-0.030952,0.033467,0.999994,-0.003262,-0.000334,-0.001216,-0.524540,-0.060272,-0.001509,0.849248,3.497020,5.966927,-116.414418
03473,-14.554142,-2.509684,4.187911,3.787095,13.810705,-4.282551,-0.745738,0.032212,0.090317,-0.145523,-0.025006,0.041996,0.999993,-0.003729,0.000161,0.000452,-0.525179,-0.058421,-0.004754,0.848971,3.071567,5.980402,-116.357051
03474,-14.073233,-2.204717,5.015796,3.766120,13.178461,-3.470819,-1.069233,0.011285,0.456098,-0.140679,-0.022099,0.050284,0.999983,-0.005346,0.000056,0.002280,-0.527454,-0.055636,-0.009217,0.847710,2.481670,5.972443,-116.089835
03475,-11.604791,-1.917775,5.077132,2.911337,10.838974,-3.634750,-1.162664,-0.026583,0.782889,-0.115979,-0.019336,0.050868,0.999975,-0.005813,-0.000133,0.003914,-0.531119,-0.052461,-0.013877,0.845558,1.858518,5.938336,-115.635348
03476,-9.609451,-2.649552,4.973184,1.362148,9.366450,-3.938331,-1.018675,0.210737,0.824956,-0.095932,-0.026637,0.049968,0.999978,-0.005093,0.001054,0.004125,-0.534881,-0.050680,-0.018566,0.843202,1.319883,6.046047,-115.152663
03477,-1.998222,-1.918945,7.690015,-1.409162,1.947730,-2.000386,0.191429,0.451246,0.040201,-0.019805,-0.019267,0.076927,0.999997,0.000957,0.002256,0.000201,-0.534993,-0.053067,-0.018976,0.842974,1.429055,6.302124,-115.118839
03478,18.865837,18.341433,20.546275,6.739004,-26.714076,9.037978,2.293011,1.218204,-1.508640,0.191278,0.179615,0.206377,0.999887,0.011465,0.006091,-0.007543,-0.527884,-0.064166,-0.013012,0.846789,2.639602,7.031145,-115.959457
03479,-3.903470,18.690686,23.636239,16.384790,-7.052985,14.784381,-2.062469,1.143343,0.705570,-0.038355,0.189196,0.234640,0.999924,-0.010312,0.005717,0.003528,-0.531453,-0.063573,-0.024555,0.844342,1.509466,7.669266,-115.523800
03480,-14.972961,-2.201528,0.322895,4.225654,14.348816,-7.491973,-1.189007,0.726921,2.148986,-0.149468,-0.023600,0.003910,0.999918,-0.005945,0.003635,0.010745,-0.540803,-0.063723,-0.030839,0.838165,0.996947,8.058093,-114.267792
03481,-7.764086,-7.374275,8.523574,-4.294151,8.914991,-0.358269,-0.952354,1.067199,2.524338,-0.076248,-0.074303,0.085998,0.999895,-0.004762,0.005336,0.012621,-0.551498,-0.065972,-0.036928,0.830743,0.661395,8.646790,-112.792704
03482,4.416874,-11.013187,9.240983,-12.491446,-1.113194,-1.511309,-0.029957,1.159861,1.455896,0.045504,-0.109790,0.092165,0.999957,-0.000150,0.005799,0.007279,-0.557348,-0.070963,-0.039797,0.826283,0.774239,9.301725,-111.935817
