PacketCounter,Acc_X,Acc_Y,Acc_Z,FreeAcc_E,FreeAcc_N,FreeAcc_U,Gyr_X,Gyr_Y,Gyr_Z,VelInc_X,VelInc_Y,VelInc_Z,OriInc_q0,OriInc_q1,OriInc_q2,OriInc_q3,Quat_q0,Quat_q1,Quat_q2,Quat_q3,Roll,Pitch,Yaw
30247,-4.286523,1.131012,8.989049,-0.018453,-0.032353,0.210041,-0.001197,0.002042,0.004548,-0.042865,0.011310,0.089891,1.000000,-0.000006,0.000010,0.000023,0.443297,0.223367,0.049413,-0.866691,7.154465,25.530371,-124.199200
30248,-4.264181,1.140339,8.988783,-0.022283,-0.054294,0.201222,-0.005020,0.003063,0.004122,-0.042641,0.011405,0.089888,1.000000,-0.000025,0.000015,0.000021,0.443290,0.223358,0.049409,-0.866697,7.154107,25.529266,-124.200472
30249,-4.293479,1.146276,9.006357,-0.008462,-0.040801,0.230253,-0.006820,0.004932,0.001486,-0.042933,0.011466,0.090064,1.000000,-0.000034,0.000025,0.000007,0.443274,0.223343,0.049412,-0.866709,7.152333,25.528032,-124.203214
30250,-4.235188,1.132818,9.005548,-0.047987,-0.075803,0.202897,-0.005164,-0.002776,0.002871,-0.042353,0.011330,0.090055,1.000000,-0.000026,-0.000014,0.000014,0.443263,0.223308,0.049397,-0.866724,7.151355,25.523697,-124.205736
30251,-4.257810,1.122911,9.005752,-0.043895,-0.052665,0.211719,-0.009134,0.005891,0.004483,-0.042576,0.011232,0.090058,1.000000,-0.000046,0.000029,0.000022,0.443264,0.223293,0.049409,-0.866727,7.149097,25.522800,-124.206402
30252,-4.293989,1.144829,9.006298,-0.008124,-0.039121,0.230260,-0.005125,0.002405,0.001466,-0.042939,0.011450,0.090063,1.000000,-0.000026,0.000012,0.000007,0.443245,0.223280,0.049407,-0.866740,7.147936,25.521509,-124.209399
30253,-4.271742,1.153790,9.006039,-0.011863,-0.060842,0.221449,-0.008741,0.004746,0.006354,-0.042716,0.011540,0.090061,1.000000,-0.000044,0.000024,0.000032,0.443254,0.223261,0.049412,-0.866741,7.146368,25.519834,-124.208987
30254,-4.274430,1.095792,9.022713,-0.061686,-0.028819,0.231028,-0.012171,0.004624,0.007800,-0.042743,0.010962,0.090227,1.000000,-0.000061,0.000023,0.000039,0.443270,0.223244,0.049438,-0.866735,7.142964,25.519353,-124.207819
30255,-4.258701,1.120492,9.039917,-0.055699,-0.060177,0.242431,-0.006220,0.005107,0.008671,-0.042585,0.011206,0.090400,1.000000,-0.000031,0.000026,0.000043,0.443285,0.223233,0.049432,-0.866731,7.143478,25.517724,-124.205983
30256,-4.265964,1.136538,9.022703,-0.033577,-0.059426,0.231947,-0.001778,0.005653,0.006121,-0.042657,0.011365,0.090228,1.000000,-0.000009,0.000028,0.000031,0.443282,0.223243,0.049417,-0.866731,7.145608,25.517948,-124.205792
30257,-4.289381,1.127417,8.988138,-0.017155,-0.026391,0.210061,-0.006511,0.006914,0.009457,-0.042891,0.011275,0.089882,1.000000,-0.000033,0.000035,0.000047,0.443301,0.223239,0.049414,-0.866722,7.146228,25.517295,-124.203265
30258,-4.296367,1.143083,9.005386,-0.007347,-0.035545,0.230274,-0.002172,0.006800,0.004250,-0.042961,0.011431,0.090055,1.000000,-0.000011,0.000034,0.000021,0.443290,0.223253,0.049406,-0.866725,7.147665,25.518305,-124.204161
30259,-4.281090,1.168381,8.988019,0.010945,-0.057017,0.210983,-0.008350,0.003604,0.008225,-0.042810,0.011686,0.089880,1.000000,-0.000042,0.000018,0.000041,0.443306,0.223231,0.049405,-0.866722,7.146784,25.515871,-124.202682
30260,-4.268091,1.135802,8.987502,-0.020749,-0.047146,0.201262,-0.013683,0.004693,0.004377,-0.042679,0.011363,0.089875,1.000000,-0.000068,0.000023,0.000022,0.443309,0.223209,0.049442,-0.866724,7.141588,25.515674,-124.203664
30261,-4.254738,1.102760,9.021494,-0.064661,-0.046943,0.222243,-0.008847,0.004092,0.003698,-0.042546,0.011031,0.090215,1.000000,-0.000044,0.000020,0.000018,0.443306,0.223187,0.049450,-0.866731,7.139207,25.513844,-124.204992
30262,-4.261904,1.118323,9.004385,-0.042538,-0.046206,0.211757,-0.006429,0.003791,0.003358,-0.042618,0.011185,0.090044,1.000000,-0.000032,0.000019,0.000017,0.443297,0.223178,0.049454,-0.866738,7.137859,25.513207,-124.206688
30263,-4.269071,1.134053,8.987257,-0.020317,-0.045259,0.201272,-0.006326,0.004451,0.006015,-0.042689,0.011342,0.089873,1.000000,-0.000032,0.000022,0.000030,0.443300,0.223163,0.049449,-0.866740,7.137561,25.511422,-124.206572
30264,-4.256098,1.101981,8.986656,-0.052008,-0.035377,0.191550,-0.003908,0.004150,0.005675,-0.042559,0.011020,0.089867,1.000000,-0.000020,0.000021,0.000028,0.443298,0.223162,0.049441,-0.866742,7.138299,25.510824,-124.206779
30265,-4.291986,1.123990,9.021612,-0.028439,-0.031520,0.240779,-0.004488,0.007762,0.007249,-0.042917,0.011240,0.090218,1.000000,-0.000022,0.000039,0.000036,0.443305,0.223166,0.049434,-0.866737,7.139491,25.510840,-124.205545
30266,-4.257153,1.101824,8.986175,-0.051750,-0.034189,0.191555,-0.002173,0.006802,0.004252,-0.042569,0.011018,0.089863,1.000000,-0.000011,0.000034,0.000021,0.443294,0.223180,0.049426,-0.866740,7.140927,25.511850,-124.206439
30267,-4.276958,1.148988,9.038467,-0.022405,-0.062398,0.252204,-0.006225,0.005112,0.008672,-0.042768,0.011491,0.090385,1.000000,-0.000031,0.000026,0.000043,0.443309,0.223169,0.049419,-0.866735,7.141422,25.510269,-124.204622
30268,-4.293659,1.124116,8.986508,-0.015780,-0.019975,0.210078,-0.002214,0.001621,0.005654,-0.042936,0.011241,0.089865,1.000000,-0.000011,0.000008,0.000028,0.443306,0.223160,0.049398,-0.866741,7.143039,25.508234,-124.205043
30269,-4.226512,1.152528,8.985789,-0.027453,-0.086572,0.183706,0.002084,0.009811,0.005147,-0.042261,0.011523,0.089860,1.000000,0.000010,0.000049,0.000026,0.443295,0.223187,0.049370,-0.866741,7.147494,25.509582,-124.205117
30270,-4.307693,1.156481,9.020854,0.003921,-0.038064,0.250514,0.005286,0.007216,0.008549,-0.043074,0.011561,0.090210,1.000000,0.000026,0.000036,0.000043,0.443294,0.223220,0.049325,-0.866735,7.154384,25.510522,-124.203272
30271,-4.294952,1.125397,9.020025,-0.027665,-0.027958,0.240791,0.005184,0.006557,0.005892,-0.042947,0.011250,0.090202,1.000000,0.000026,0.000033,0.000029,0.443284,0.223241,0.049275,-0.866738,7.160699,25.509968,-124.203008
30272,-4.286565,1.167806,8.985485,0.012546,-0.049456,0.211021,0.006589,0.005833,0.006658,-0.042863,0.011674,0.089856,1.000000,0.000033,0.000029,0.000033,0.443274,0.223270,0.049224,-0.866738,7.167775,25.510257,-124.202464
30273,-4.267011,1.120731,9.001667,-0.041086,-0.039571,0.211792,0.007312,0.008063,0.006340,-0.042667,0.011203,0.090019,1.000000,0.000037,0.000040,0.000032,0.443263,0.223302,0.049168,-0.866739,7.175488,25.510539,-124.201901
30274,-4.264371,1.178537,9.053589,-0.015810,-0.090416,0.263664,0.012438,0.005652,0.004875,-0.042641,0.011779,0.090538,1.000000,0.000062,0.000028,0.000024,0.443239,0.223343,0.049093,-0.866745,7.185426,25.510852,-124.202493
30275,-4.293594,1.056299,8.983192,-0.074390,0.025527,0.199419,0.004009,0.009999,0.000280,-0.042931,0.010561,0.089834,1.000000,0.000020,0.000050,0.000001,0.443206,0.223374,0.049063,-0.866756,7.189675,25.512678,-124.205440
30276,-4.288586,1.171215,9.018377,0.000725,-0.056954,0.241744,0.013741,0.004269,0.002985,-0.042884,0.011705,0.090185,1.000000,0.000069,0.000021,0.000015,0.443172,0.223411,0.048981,-0.866768,7.199798,25.512341,-124.207334
30277,-4.295715,1.188376,9.001057,0.022942,-0.056052,0.231255,0.006776,0.003369,0.003214,-0.042956,0.011880,0.090012,1.000000,0.000034,0.000017,0.000016,0.443149,0.223421,0.048920,-0.866781,7.206188,25.510193,-124.209083
30278,-4.240058,1.118642,9.016835,-0.066511,-0.059362,0.213519,0.005762,0.002947,0.004319,-0.042399,0.011183,0.090169,1.000000,0.000029,0.000015,0.000022,0.443131,0.223435,0.048869,-0.866789,7.212057,25.509008,-124.210242
30279,-4.285482,1.100787,9.016861,-0.058398,-0.013802,0.231080,0.010018,0.005958,0.005215,-0.042852,0.011002,0.090170,1.000000,0.000050,0.000030,0.000026,0.443113,0.223463,0.048798,-0.866795,7.220934,25.508193,-124.210477
30280,-4.269954,1.127237,9.033768,-0.052573,-0.045377,0.242525,0.012246,0.008125,0.008320,-0.042696,0.011265,0.090340,1.000000,0.000061,0.000041,0.000042,0.443103,0.223516,0.048725,-0.866791,7.231781,25.509664,-124.208703
30281,-4.277445,1.144655,9.016239,-0.030356,-0.044483,0.232035,0.007510,0.009392,0.011654,-0.042771,0.011441,0.090165,1.000000,0.000038,0.000047,0.000058,0.443113,0.223555,0.048665,-0.866779,7.241084,25.510343,-124.204812
30282,-4.271361,1.129630,9.032804,-0.052321,-0.044194,0.242532,0.005091,0.009695,0.011993,-0.042710,0.011291,0.090330,1.000000,0.000025,0.000048,0.000060,0.443127,0.223599,0.048623,-0.866763,7.248882,25.512441,-124.200598
30283,-4.265878,1.114931,8.980419,-0.049532,-0.024047,0.191596,0.000835,0.006685,0.011097,-0.042656,0.011147,0.089806,1.000000,0.000004,0.000033,0.000055,0.443145,0.223612,0.048587,-0.866752,7.254104,25.511626,-124.197050
30284,-4.295297,1.122068,8.997747,-0.035759,-0.010757,0.220591,0.004656,0.005659,0.011526,-0.042951,0.011216,0.089979,1.000000,0.000023,0.000028,0.000058,0.443158,0.223637,0.048539,-0.866742,7.261388,25.511462,-124.193454
30285,-4.279689,1.147732,9.014783,-0.029851,-0.042134,0.232046,-0.002074,0.007473,0.006906,-0.042794,0.011477,0.090149,1.000000,-0.000010,0.000037,0.000035,0.443161,0.223646,0.048522,-0.866739,7.263833,25.511412,-124.192442
30286,-4.287042,1.163795,8.997477,-0.007731,-0.041458,0.221552,-0.006521,0.006933,0.009453,-0.042868,0.011639,0.089976,1.000000,-0.000033,0.000035,0.000047,0.443178,0.223651,0.048527,-0.866729,7.264194,25.512122,-124.190048
30287,-4.258264,1.156697,9.014163,-0.033584,-0.063396,0.223285,-0.010343,0.007961,0.009024,-0.042580,0.011570,0.090143,1.000000,-0.000052,0.000040,0.000045,0.443198,0.223644,0.048544,-0.866719,7.262490,25.512202,-124.187782
30288,-4.287921,1.162381,9.031558,-0.019809,-0.050103,0.252278,-0.014166,0.008990,0.008596,-0.042876,0.011628,0.090317,1.000000,-0.000071,0.000045,0.000043,0.443219,0.223642,0.048588,-0.866707,7.258309,25.514143,-124.185763
30289,-4.288591,1.161161,9.031397,-0.019635,-0.049418,0.252282,-0.021132,0.008094,0.008823,-0.042883,0.011619,0.090314,1.000000,-0.000106,0.000040,0.000044,0.443251,0.223611,0.048653,-0.866694,7.250371,25.514317,-124.183510
30290,-4.275993,1.127768,9.030844,-0.051309,-0.039483,0.242557,-0.016885,0.007310,0.000961,-0.042757,0.011285,0.090309,1.000000,-0.000084,0.000037,0.000005,0.443242,0.223594,0.048713,-0.866700,7.242503,25.515856,-124.186435
30291,-4.306519,1.133312,8.979197,-0.012769,-0.006381,0.210100,-0.022105,0.012861,0.008526,-0.043060,0.011341,0.089793,1.000000,-0.000111,0.000064,0.000043,0.443273,0.223582,0.048793,-0.866683,7.234081,25.518763,-124.183940
30292,-4.291224,1.156786,8.996387,-0.006973,-0.037959,0.221567,-0.022251,0.007017,0.007270,-0.042910,0.011576,0.089964,1.000000,-0.000111,0.000035,0.000036,0.443298,0.223552,0.048869,-0.866674,7.224841,25.519680,-124.182915
30293,-4.285052,1.138689,9.013382,-0.028841,-0.037451,0.232068,-0.028495,0.008355,0.007179,-0.042847,0.011398,0.090134,1.000000,-0.000142,0.000042,0.000036,0.443331,0.223507,0.048969,-0.866663,7.212241,25.520138,-124.181737
30294,-4.279107,1.120763,8.995919,-0.038471,-0.027338,0.211843,-0.025497,0.004437,0.005268,-0.042789,0.011218,0.089959,1.000000,-0.000127,0.000022,0.000026,0.443351,0.223458,0.049055,-0.866660,7.200508,25.519732,-124.182179
30295,-4.272586,1.102821,9.013047,-0.060337,-0.026825,0.222344,-0.020272,0.002682,0.006463,-0.042725,0.011036,0.090130,1.000000,-0.000101,0.000013,0.000032,0.443373,0.223406,0.049107,-0.866660,7.192222,25.517021,-124.181952
30296,-4.286392,1.133511,8.979077,-0.016176,-0.026006,0.201348,-0.019646,0.004252,0.003490,-0.042862,0.011343,0.089791,1.000000,-0.000098,0.000021,0.000017,0.443378,0.223370,0.049169,-0.866663,7.183353,25.516638,-124.183528
30297,-4.286298,1.131579,9.013685,-0.028336,-0.035116,0.232078,-0.017953,0.001719,0.003468,-0.042862,0.011323,0.090136,1.000000,-0.000090,0.000009,0.000017,0.443385,0.223317,0.049212,-0.866670,7.175549,25.513604,-124.185276
30298,-4.257246,1.123487,9.030632,-0.054304,-0.057225,0.233827,-0.016017,0.005691,0.007366,-0.042570,0.011241,0.090307,1.000000,-0.000080,0.000028,0.000037,0.443403,0.223296,0.049258,-0.866664,7.169861,25.513761,-124.184297
30299,-4.244689,1.090965,8.995580,-0.073545,-0.037297,0.193374,-0.013307,0.003578,0.006240,-0.042446,0.010914,0.089956,1.000000,-0.000067,0.000018,0.000031,0.443416,0.223263,0.049282,-0.866664,7.165532,25.511593,-124.184090
30300,-4.257885,1.122053,9.030509,-0.054055,-0.056054,0.233835,-0.000483,0.004277,0.004236,-0.042577,0.011220,0.090306,1.000000,-0.000002,0.000021,0.000021,0.443404,0.223269,0.049261,-0.866670,7.167846,25.511169,-124.185194
30301,-4.287596,1.128974,9.013395,-0.027831,-0.032784,0.232087,-0.001789,0.005665,0.006128,-0.042874,0.011289,0.090135,1.000000,-0.000009,0.000028,0.000031,0.443402,0.223271,0.049240,-0.866672,7.170152,25.510197,-124.185019
30302,-4.236454,1.132002,8.995485,-0.045485,-0.067548,0.194365,-0.002805,0.005244,0.007232,-0.042363,0.011320,0.089956,1.000000,-0.000014,0.000026,0.000036,0.443405,0.223277,0.049227,-0.866670,7.171982,25.510109,-124.184160
30303,-4.295228,1.145204,8.995958,-0.005536,-0.031472,0.221590,-0.003194,0.006393,0.005362,-0.042950,0.011452,0.089961,1.000000,-0.000016,0.000032,0.000027,0.443402,0.223278,0.049215,-0.866671,7.173287,25.509605,-124.184264
30304,-4.272971,1.154541,8.995724,-0.009475,-0.053425,0.212847,-0.002224,0.001627,0.005655,-0.042729,0.011545,0.089957,1.000000,-0.000011,0.000008,0.000028,0.443399,0.223270,0.049194,-0.866677,7.174898,25.507574,-124.184685
30305,-4.279703,1.170151,9.013117,0.000400,-0.062373,0.233083,-0.006630,0.006279,0.006804,-0.042795,0.011703,0.090132,1.000000,-0.000033,0.000031,0.000034,0.443406,0.223263,0.049195,-0.866674,7.174628,25.506913,-124.183854
30306,-4.296066,1.144353,9.029990,-0.017541,-0.039591,0.252329,-0.006921,0.008089,0.007593,-0.042957,0.011445,0.090301,1.000000,-0.000035,0.000040,0.000038,0.443415,0.223273,0.049206,-0.866667,7.174294,25.508417,-124.182542
30307,-4.281018,1.169650,8.978234,0.012985,-0.051456,0.202355,-0.013310,0.003584,0.006239,-0.042809,0.011701,0.089782,1.000000,-0.000067,0.000018,0.000031,0.443428,0.223240,0.049231,-0.866667,7.169950,25.506269,-124.182239
30308,-4.267696,1.136522,9.012268,-0.031016,-0.051245,0.223363,-0.009584,0.001890,0.004009,-0.042676,0.011369,0.090123,1.000000,-0.000048,0.000009,0.000020,0.443426,0.223216,0.049244,-0.866674,7.166906,25.504505,-124.183676
30309,-4.274386,1.151654,9.029746,-0.021144,-0.060191,0.243600,-0.008761,0.004780,0.006353,-0.042742,0.011519,0.090298,1.000000,-0.000044,0.000024,0.000032,0.443434,0.223198,0.049251,-0.866674,7.165245,25.503036,-124.183286
30310,-4.274994,1.151355,8.995171,-0.008729,-0.049953,0.212866,-0.013312,0.003587,0.006239,-0.042749,0.011518,0.089952,1.000000,-0.000067,0.000018,0.000031,0.443445,0.223173,0.049282,-0.866673,7.160729,25.502077,-124.183183
30311,-4.275255,1.150385,8.995171,-0.008561,-0.049281,0.212870,-0.012393,0.003348,0.002477,-0.042751,0.011509,0.089952,1.000000,-0.000062,0.000017,0.000012,0.443439,0.223141,0.049305,-0.866683,7.155896,25.500079,-124.185562
30312,-4.284566,1.107682,9.029267,-0.048527,-0.026610,0.242613,-0.013410,0.002928,0.003580,-0.042845,0.011082,0.090293,1.000000,-0.000067,0.000015,0.000018,0.443439,0.223112,0.049338,-0.866688,7.150580,25.498935,-124.187186
30313,-4.262527,1.116237,8.994713,-0.040051,-0.038631,0.203144,-0.015929,0.002578,0.001259,-0.042624,0.011169,0.089947,1.000000,-0.000080,0.000013,0.000006,0.443432,0.223068,0.049377,-0.866701,7.143358,25.496589,-124.190331
30314,-4.269018,1.130944,9.012344,-0.030275,-0.047762,0.223382,-0.007989,-0.001305,0.001327,-0.042691,0.011313,0.090123,1.000000,-0.000040,-0.000007,0.000007,0.443417,0.223033,0.049379,-0.866717,7.140394,25.493199,-124.193708
30315,-4.285290,1.105176,8.994904,-0.035762,-0.015034,0.211879,-0.009248,0.005272,0.001826,-0.042851,0.011056,0.089950,1.000000,-0.000046,0.000026,0.000009,0.443408,0.223015,0.049395,-0.866726,7.137233,25.492349,-124.195843
30316,-4.269805,1.130046,8.977758,-0.017685,-0.036869,0.192647,-0.008473,0.002973,0.005565,-0.042697,0.011303,0.089778,1.000000,-0.000042,0.000015,0.000028,0.443411,0.222999,0.049404,-0.866728,7.135286,25.491089,-124.196213
30317,-4.269677,1.129147,9.012257,-0.029855,-0.045933,0.223392,-0.007069,0.002245,0.006331,-0.042696,0.011293,0.090123,1.000000,-0.000035,0.000011,0.000032,0.443416,0.222974,0.049398,-0.866732,7.134487,25.488198,-124.196238
30318,-4.279256,1.087552,9.011738,-0.057465,-0.013500,0.222388,-0.007360,0.004054,0.007121,-0.042791,0.010877,0.090118,1.000000,-0.000037,0.000020,0.000036,0.443424,0.222965,0.049403,-0.866730,7.133636,25.487442,-124.195543
30319,-4.286492,1.104095,8.960138,-0.022915,-0.002994,0.181140,-0.002131,0.002287,0.008316,-0.042864,0.011040,0.089602,1.000000,-0.000011,0.000011,0.000042,0.443433,0.222952,0.049373,-0.866731,7.136215,25.484450,-124.194328
30320,-4.263963,1.112914,8.994444,-0.039226,-0.034672,0.203162,-0.005617,0.006705,0.005705,-0.042637,0.011130,0.089946,1.000000,-0.000028,0.000034,0.000029,0.443432,0.222958,0.049378,-0.866729,7.136068,25.485302,-124.194315
30321,-4.264178,1.112432,9.028730,-0.051396,-0.043726,0.233910,-0.001696,0.006326,0.008793,-0.042639,0.011123,0.090289,1.000000,-0.000008,0.000032,0.000044,0.443443,0.222963,0.049356,-0.866724,7.139139,25.484572,-124.192203
30322,-4.300568,1.135840,8.994594,-0.003190,-0.020590,0.221619,0.003340,0.003239,0.004668,-0.043004,0.011356,0.089947,1.000000,0.000017,0.000016,0.000023,0.443428,0.222974,0.049315,-0.866731,7.143726,25.483528,-124.193117
30323,-4.285102,1.161607,8.977330,0.014966,-0.042268,0.202395,-0.004118,0.006636,0.009130,-0.042849,0.011616,0.089774,1.000000,-0.000021,0.000033,0.000046,0.443443,0.222975,0.049304,-0.866724,7.145507,25.482954,-124.190899
30324,-4.285241,1.161123,9.011653,0.002699,-0.051497,0.233144,-0.002906,0.004588,0.004577,-0.042851,0.011612,0.090117,1.000000,-0.000015,0.000023,0.000023,0.443434,0.222978,0.049293,-0.866728,7.146536,25.482683,-124.191763
30325,-4.278808,1.144764,9.028527,-0.019169,-0.050929,0.243655,-0.005037,0.003088,0.004124,-0.042787,0.011449,0.090286,1.000000,-0.000025,0.000015,0.000021,0.443428,0.222961,0.049283,-0.866736,7.146324,25.480461,-124.193113
30326,-4.272580,1.128640,9.010944,-0.028783,-0.040827,0.223417,-0.008476,0.002978,0.005565,-0.042725,0.011289,0.090110,1.000000,-0.000042,0.000015,0.000028,0.443430,0.222944,0.049292,-0.866739,7.144376,25.479204,-124.193482
30327,-4.256830,1.153119,9.028314,-0.022986,-0.072218,0.234949,-0.008136,0.006358,0.003383,-0.042566,0.011534,0.090284,1.000000,-0.000041,0.000032,0.000017,0.443425,0.222934,0.049304,-0.866743,7.142297,25.478900,-124.194837
30328,-4.280068,1.143576,8.993750,-0.006499,-0.039587,0.212914,-0.009976,0.003050,0.002139,-0.042799,0.011440,0.089938,1.000000,-0.000050,0.000015,0.000011,0.443414,0.222914,0.049323,-0.866753,7.138563,25.477928,-124.197358
30329,-4.257438,1.151852,9.028188,-0.022744,-0.071066,0.234957,-0.006055,0.002669,0.005228,-0.042573,0.011520,0.090282,1.000000,-0.000030,0.000013,0.000026,0.443415,0.222893,0.049316,-0.866758,7.138052,25.475401,-124.197773
30330,-4.280793,1.142341,8.993562,-0.006253,-0.038441,0.212919,-0.014579,0.010180,0.006743,-0.042804,0.011429,0.089937,1.000000,-0.000073,0.000051,0.000034,0.443428,0.222894,0.049366,-0.866748,7.133170,25.478155,-124.196833
30331,-4.290547,1.100274,8.992999,-0.033741,-0.005807,0.211895,-0.007992,-0.001298,0.001324,-0.042906,0.011006,0.089929,1.000000,-0.000040,-0.000006,0.000007,0.443416,0.222851,0.049363,-0.866766,7.130365,25.473659,-124.199930
30332,-4.274599,1.124490,9.010506,-0.028044,-0.037374,0.223433,-0.011672,0.005592,0.002165,-0.042744,0.011250,0.090106,1.000000,-0.000058,0.000028,0.000011,0.443407,0.222838,0.049395,-0.866772,7.125753,25.474130,-124.202235
30333,-4.252292,1.132560,9.044824,-0.044299,-0.068843,0.245484,-0.007120,0.006781,0.002281,-0.042520,0.011328,0.090449,1.000000,-0.000036,0.000034,0.000011,0.443399,0.222832,0.049405,-0.866777,7.123978,25.474171,-124.203835
30334,-4.266327,1.163983,9.045033,-0.012500,-0.077889,0.255222,-0.005957,0.013050,0.002448,-0.042658,0.011642,0.090453,1.000000,-0.000030,0.000065,0.000012,0.443382,0.222864,0.049429,-0.866776,7.122969,25.478862,-124.205374
30335,-4.296715,1.169734,9.062049,0.001433,-0.064394,0.284174,-0.009443,0.017474,-0.000161,-0.042959,0.011702,0.090624,1.000000,-0.000047,0.000087,-0.000001,0.443361,0.222898,0.049476,-0.866775,7.119548,25.485141,-124.207955
30336,-4.251316,0.926552,9.091938,-0.224736,0.038087,0.264195,-0.010033,0.024883,0.010193,-0.042502,0.009268,0.090924,1.000000,-0.000050,0.000124,0.000051,0.443380,0.222974,0.049535,-0.866743,7.118703,25.496009,-124.203685
30337,-4.426159,1.025556,9.007181,-0.030530,0.132230,0.274608,0.014084,0.024902,0.012940,-0.044251,0.010246,0.090078,1.000000,0.000070,0.000125,0.000065,0.443385,0.223097,0.049481,-0.866711,7.132567,25.505592,-124.197679
30338,-4.339128,1.196591,8.921514,0.086957,-0.011163,0.179589,0.020758,0.017870,0.018954,-0.043384,0.011953,0.089220,1.000000,0.000104,0.000089,0.000095,0.443410,0.223213,0.049381,-0.866675,7.151506,25.511847,-124.188440
30339,-4.301875,1.232651,8.938071,0.088639,-0.065016,0.182441,0.001192,0.019045,0.016322,-0.043011,0.012322,0.089385,1.000000,0.000006,0.000095,0.000082,0.443444,0.223282,0.049366,-0.866640,7.158702,25.517881,-124.180936
30340,-4.293029,1.272965,9.007127,0.091646,-0.115869,0.244999,-0.010470,0.007340,0.006376,-0.042927,0.012733,0.090072,1.000000,-0.000052,0.000037,0.000032,0.443452,0.223280,0.049392,-0.866635,7.155979,25.519045,-124.180450
30341,-4.209917,1.324322,9.024477,0.085127,-0.214605,0.230475,-0.026978,0.009775,0.000434,-0.042095,0.013255,0.090245,1.000000,-0.000135,0.000049,0.000002,0.443452,0.223243,0.049496,-0.866639,7.142433,25.520955,-124.183507
30342,-4.246324,1.342508,9.094058,0.096299,-0.220561,0.310433,-0.045280,0.014100,-0.008142,-0.042456,0.013447,0.090941,1.000000,-0.000226,0.000071,-0.000041,0.443434,0.223190,0.049705,-0.866650,7.116053,25.526996,-124.191635
30343,-4.247314,1.207640,9.040349,0.012150,-0.127084,0.247615,-0.061800,0.016554,-0.014081,-0.042465,0.012107,0.090403,1.000000,-0.000309,0.000083,-0.000070,0.443410,0.223101,0.049991,-0.866668,7.078856,25.533764,-124.203124
30344,-4.288024,1.167355,8.988263,0.023083,-0.062446,0.213992,-0.066503,0.019267,-0.020904,-0.042870,0.011708,0.089883,1.000000,-0.000333,0.000096,-0.000105,0.443359,0.223020,0.050317,-0.866697,7.037017,25.543633,-124.218901
30345,-4.338069,1.085491,8.935560,0.006485,0.034365,0.179316,-0.067972,0.014827,-0.020281,-0.043373,0.010890,0.089355,1.000000,-0.000340,0.000074,-0.000101,0.443316,0.222909,0.050634,-0.866729,6.994562,25.549851,-124.234421
30346,-4.295881,0.909809,8.932698,-0.147910,0.105099,0.139323,-0.063712,0.004328,-0.022712,-0.042956,0.009131,0.089325,1.000000,-0.000319,0.000022,-0.000114,0.443257,0.222768,0.050916,-0.866778,6.953323,25.551329,-124.252508
30347,-4.318925,0.895274,8.898601,-0.131285,0.137856,0.117241,-0.047632,-0.002160,-0.017257,-0.043189,0.008978,0.088983,1.000000,-0.000238,-0.000011,-0.000086,0.443206,0.222630,0.051103,-0.866829,6.922756,25.547670,-124.267797
30348,-4.202490,0.993634,8.952290,-0.126769,-0.025138,0.125875,-0.035994,-0.012958,-0.018045,-0.042030,0.009956,0.089518,1.000000,-0.000180,-0.000065,-0.000090,0.443141,0.222477,0.051222,-0.866895,6.898100,25.538975,-124.284262
30349,-4.224877,1.109804,9.007299,-0.038242,-0.094876,0.197419,-0.032847,-0.011034,-0.018686,-0.042253,0.011117,0.090069,1.000000,-0.000164,-0.000055,-0.000093,0.443071,0.222332,0.051327,-0.866961,6.875287,25.530358,-124.300890
30350,-4.250127,1.168000,9.078571,0.000551,-0.132806,0.278428,-0.044054,-0.009687,-0.020763,-0.042504,0.011704,0.090781,1.000000,-0.000220,-0.000048,-0.000104,0.443002,0.222174,0.051492,-0.867027,6.845390,25.523696,-124.318810
30351,-4.243556,1.147944,9.027234,0.003385,-0.112905,0.227419,-0.049161,-0.002041,-0.020666,-0.042435,0.011506,0.090269,1.000000,-0.000246,-0.000010,-0.000103,0.442936,0.222032,0.051689,-0.867086,6.813002,25.520305,-124.336438
30352,-4.268957,1.075675,9.043918,-0.042063,-0.057983,0.245562,-0.048924,0.000709,-0.025496,-0.042688,0.010784,0.090437,1.000000,-0.000245,0.000004,-0.000127,0.442850,0.221908,0.051902,-0.867149,6.779371,25.519861,-124.356552
30353,-4.288382,0.988852,9.008187,-0.084743,0.016354,0.212682,-0.044291,0.006309,-0.013928,-0.042880,0.009911,0.090081,1.000000,-0.000221,0.000032,-0.000070,0.442808,0.221814,0.052090,-0.867183,6.751902,25.520765,-124.369029
30354,-4.301073,0.886833,8.989149,-0.149525,0.090500,0.190310,-0.031387,0.002425,-0.011885,-0.043009,0.008885,0.089891,1.000000,-0.000157,0.000012,-0.000059,0.442760,0.221740,0.052216,-0.867219,6.732072,25.520365,-124.380432
30355,-4.268367,0.804490,9.004548,-0.234805,0.110299,0.181348,-0.012185,0.006123,-0.002344,-0.042681,0.008051,0.090046,1.000000,-0.000061,0.000031,-0.000012,0.442733,0.221719,0.052252,-0.867236,6.726116,25.520393,-124.385472
30356,-4.279077,0.892944,9.023609,-0.165736,0.059593,0.212399,0.006061,0.001091,0.003547,-0.042790,0.008926,0.090237,1.000000,0.000030,0.000005,0.000018,0.442712,0.221726,0.052196,-0.867248,6.731891,25.518195,-124.387244
30357,-4.341652,0.981564,8.991027,-0.053954,0.063570,0.219512,0.021723,0.004030,0.011865,-0.043415,0.009803,0.089912,1.000000,0.000109,0.000020,0.000059,0.442709,0.221775,0.052064,-0.867245,6.749103,25.516076,-124.383535
30358,-4.300302,1.074567,9.061279,-0.027532,-0.041684,0.274511,0.022927,0.005753,0.016088,-0.043001,0.010732,0.090615,1.000000,0.000115,0.000029,0.000080,0.442722,0.221842,0.051931,-0.867229,6.768098,25.515686,-124.377053
30359,-4.307408,1.093616,9.043866,-0.005329,-0.041019,0.263997,0.021611,0.007143,0.017987,-0.043072,0.010923,0.090441,1.000000,0.000108,0.000036,0.000090,0.442745,0.221906,0.051800,-0.867209,6.786998,25.514932,-124.369282
30360,-4.256193,1.098793,9.060255,-0.035533,-0.085432,0.257178,0.024374,0.010222,0.015481,-0.042558,0.010974,0.090606,1.000000,0.000122,0.000051,0.000077,0.442753,0.221996,0.051672,-0.867190,6.806802,25.517123,-124.362847
30361,-4.276907,1.149955,9.043313,0.018375,-0.094365,0.256404,0.026504,0.011721,0.015942,-0.042765,0.011484,0.090437,1.000000,0.000133,0.000059,0.000080,0.442760,0.222090,0.051532,-0.867170,6.828083,25.519098,-124.356079
30362,-4.313879,1.174985,9.043066,0.054287,-0.081023,0.274813,0.013009,0.019234,0.015488,-0.043131,0.011741,0.090436,1.000000,0.000065,0.000096,0.000077,0.442778,0.222194,0.051472,-0.867138,6.841671,25.526410,-124.348958
30363,-4.293311,1.186600,9.007535,0.062680,-0.093221,0.235378,0.011462,0.023870,0.008026,-0.042923,0.011859,0.090081,1.000000,0.000057,0.000119,0.000040,0.442767,0.222305,0.051434,-0.867117,6.852607,25.535848,-124.345974
30364,-4.346802,1.184398,9.024009,0.080698,-0.057443,0.272967,-0.000809,0.019595,0.008421,-0.043460,0.011843,0.090244,1.000000,-0.000004,0.000098,0.000042,0.442769,0.222378,0.051443,-0.867097,6.856373,25.543847,-124.343277
30365,-4.315644,1.104925,9.004207,0.007783,-0.028001,0.233235,-0.007161,0.020312,0.005666,-0.043148,0.011051,0.090046,1.000000,-0.000036,0.000102,0.000028,0.442768,0.222432,0.051480,-0.867081,6.855907,25.551434,-124.342123
30366,-4.297531,1.056308,9.019652,-0.045869,-0.017909,0.234016,-0.008183,0.019892,0.006767,-0.042967,0.010565,0.090200,1.000000,-0.000041,0.000099,0.000034,0.442772,0.222490,0.051523,-0.867062,6.855009,25.559715,-124.340445
30367,-4.224502,1.064949,9.174002,-0.129598,-0.122973,0.341668,-0.002355,0.024234,0.000960,-0.042234,0.010650,0.091745,1.000000,-0.000012,0.000121,0.000005,0.442744,0.222571,0.051553,-0.867054,6.856133,25.569857,-124.341989
30368,-4.308623,1.196133,9.296630,-0.025991,-0.176816,0.501883,-0.016260,0.036680,0.007416,-0.043070,0.011967,0.092973,1.000000,-0.000081,0.000183,0.000037,0.442755,0.222683,0.051668,-0.867013,6.851334,25.587643,-124.338630
30369,-4.460867,1.170710,9.260819,0.043097,-0.041480,0.532799,-0.037383,0.041764,0.010128,-0.044590,0.011722,0.092615,1.000000,-0.000187,0.000209,0.000051,0.442801,0.222765,0.051878,-0.866955,6.835458,25.607113,-124.333111
30370,-4.494860,1.306746,9.158849,0.202923,-0.073113,0.470762,-0.036505,0.036343,0.007741,-0.044932,0.013082,0.091594,1.000000,-0.000183,0.000182,0.000039,0.442836,0.222831,0.052080,-0.866909,6.819135,25.624687,-124.329580
30371,-4.333906,1.355847,8.968625,0.226194,-0.172098,0.236020,-0.059697,0.031628,0.005237,-0.043325,0.013584,0.089689,1.000000,-0.000298,0.000158,0.000026,0.442887,0.222818,0.052369,-0.866868,6.788841,25.638747,-124.328110
30372,-4.252769,1.275525,8.828075,0.172323,-0.149363,0.066376,-0.083017,0.039805,0.003454,-0.042510,0.012791,0.088284,1.000000,-0.000415,0.000199,0.000017,0.442954,0.222795,0.052785,-0.866815,6.744803,25.658584,-124.327045
30373,-4.249975,1.249384,8.913262,0.125710,-0.167872,0.138468,-0.103672,0.050439,-0.003486,-0.042477,0.012541,0.089137,1.000000,-0.000518,0.000252,-0.000017,0.443012,0.222764,0.053317,-0.866761,6.687559,25.683939,-124.329581
30374,-4.279903,1.173147,8.893733,0.092726,-0.103285,0.125776,-0.117233,0.049081,-0.011356,-0.042777,0.011786,0.088941,1.000000,-0.000586,0.000245,-0.000057,0.443050,0.222702,0.053918,-0.866720,6.620140,25.710040,-124.337229
30375,-4.219370,1.131039,8.944087,0.018467,-0.147472,0.140047,-0.126115,0.045812,-0.025220,-0.042172,0.011372,0.089443,1.000000,-0.000631,0.000229,-0.000126,0.443039,0.222595,0.054560,-0.866713,6.543938,25.734193,-124.353999
30376,-4.185495,1.147907,9.134135,-0.041932,-0.249326,0.296939,-0.129884,0.053640,-0.037138,-0.041828,0.011546,0.091345,1.000000,-0.000649,0.000268,-0.000186,0.442978,0.222518,0.055254,-0.866720,6.462293,25.764544,-124.377693
30377,-4.110422,1.127409,9.236602,-0.123065,-0.335083,0.353629,-0.130590,0.062763,-0.052340,-0.041072,0.011345,0.092372,1.000000,-0.000653,0.000314,-0.000262,0.442851,0.222467,0.055984,-0.866751,6.376552,25.800027,-124.410226
30378,-3.884260,1.056346,9.406239,-0.344900,-0.523483,0.399446,-0.109958,0.077000,-0.057463,-0.038803,0.010626,0.094072,1.000000,-0.000550,0.000385,-0.000287,0.442673,0.222528,0.056666,-0.866782,6.301362,25.844905,-124.445248
30379,-3.730199,1.087019,9.663904,-0.482515,-0.746808,0.565003,-0.076847,0.121596,-0.069645,-0.037239,0.010920,0.096658,1.000000,-0.000384,0.000608,-0.000348,0.442392,0.222846,0.057311,-0.866801,6.243316,25.914828,-124.485123
30380,-3.221437,1.080514,10.023585,-0.869951,-1.242646,0.661873,-0.027591,0.150666,-0.083793,-0.032134,0.010832,0.100259,1.000000,-0.000138,0.000753,-0.000419,0.441986,0.223401,0.057829,-0.866831,6.210111,26.003239,-124.531871
30381,-3.119404,1.154087,10.469794,-1.023942,-1.510387,1.020106,0.062230,0.185661,-0.099753,-0.031091,0.011524,0.104730,0.999999,0.000311,0.000928,-0.000499,0.441400,0.224294,0.058046,-0.866885,6.225130,26.111297,-124.586534
30382,-2.895583,1.332630,10.711513,-1.097183,-1.865311,1.151508,0.166686,0.140746,-0.105735,-0.028873,0.013252,0.107147,0.999999,0.000833,0.000704,-0.000529,0.440684,0.225228,0.057724,-0.867028,6.296646,26.195454,-124.647914
30383,-2.486192,1.602649,10.853106,-1.166609,-2.370893,1.121541,0.284025,0.077030,-0.102774,-0.024812,0.015885,0.108563,0.999999,0.001420,0.000385,-0.000514,0.439869,0.226135,0.056742,-0.867271,6.434485,26.241665,-124.711641
30384,-2.349131,2.285912,11.243334,-0.862465,-2.988705,1.478019,0.344860,-0.002651,-0.097426,-0.023482,0.022677,0.112472,0.999998,0.001724,-0.000013,-0.000487,0.439026,0.226841,0.055323,-0.867605,6.605900,26.243901,-124.777771
30385,-1.971997,2.624055,11.487503,-0.901577,-3.519654,1.568711,0.324327,-0.127618,-0.088175,-0.019782,0.026063,0.114905,0.999998,0.001622,-0.000638,-0.000441,0.438284,0.226948,0.053697,-0.868054,6.764481,26.172569,-124.847105
30386,-1.447057,2.777337,11.539329,-1.087253,-3.980707,1.409406,0.290722,-0.241954,-0.050454,-0.014603,0.027609,0.115416,0.999998,0.001454,-0.001210,-0.000252,0.437769,0.226509,0.051934,-0.868536,6.910157,26.035794,-124.901562
30387,-1.266505,2.830931,11.743613,-1.218246,-4.161885,1.533018,0.258374,-0.338017,-0.009738,-0.012862,0.028158,0.117451,0.999998,0.001292,-0.001690,-0.000049,0.437495,0.225574,0.050041,-0.869029,7.045957,25.839095,-124.937700
30388,-1.224297,2.743566,11.878346,-1.354656,-4.125534,1.644438,0.227018,-0.447604,0.039615,-0.012514,0.027298,0.118787,0.999997,0.001135,-0.002238,0.000198,0.437491,0.224122,0.048002,-0.869521,7.172872,25.579244,-124.952046
30389,-1.409595,2.422924,12.066061,-1.565892,-3.777178,1.880375,0.267811,-0.584546,0.116706,-0.014463,0.024059,0.120651,0.999995,0.001339,-0.002923,0.000584,0.437812,0.222160,0.045381,-0.870003,7.339894,25.232797,-124.929159
30390,-1.984162,2.147229,12.109533,-1.484597,-3.102799,2.160443,0.360639,-0.787925,0.206349,-0.020341,0.021233,0.121054,0.999990,0.001803,-0.003940,0.001032,0.438453,0.219554,0.041830,-0.870520,7.575198,24.767289,-124.868571
30391,-1.869558,1.998831,11.927378,-1.578137,-2.928530,1.963751,0.463088,-0.996061,0.286508,-0.019318,0.019685,0.119224,0.999984,0.002315,-0.004980,0.001433,0.439369,0.216254,0.037265,-0.871091,7.881963,24.173404,-124.777845
30392,-1.734054,2.031198,11.591093,-1.486282,-2.822973,1.646193,0.534287,-1.140206,0.346781,-0.018036,0.019972,0.115863,0.999979,0.002671,-0.005701,0.001734,0.440475,0.212509,0.032029,-0.871663,8.235951,23.496217,-124.666999
30393,-1.440888,2.145805,11.263969,-1.413781,-2.883438,1.288778,0.542820,-1.204290,0.383093,-0.015128,0.021124,0.112608,0.999976,0.002714,-0.006021,0.001915,0.441727,0.208472,0.026550,-0.872188,8.599035,22.774784,-124.544384
30394,-1.479790,2.102580,11.004153,-1.313139,-2.617390,1.101748,0.525819,-1.213433,0.400811,-0.015507,0.020706,0.110004,0.999976,0.002629,-0.006067,0.002004,0.443046,0.204378,0.021130,-0.872636,8.951678,22.050195,-124.417705
30395,-1.621737,1.923687,10.878216,-1.309447,-2.224954,1.050058,0.509019,-1.181365,0.421391,-0.016900,0.018925,0.108732,0.999977,0.002545,-0.005907,0.002107,0.444457,0.200348,0.015806,-0.872966,9.298039,21.336477,-124.280337
30396,-1.445469,2.020443,10.899667,-1.308333,-2.278806,1.053212,0.513595,-1.159846,0.453051,-0.015132,0.019891,0.108962,0.999977,0.002568,-0.005799,0.002265,0.445971,0.196447,0.010503,-0.873160,9.650172,20.635871,-124.127347
30397,-1.363007,1.935206,10.861461,-1.383645,-2.139380,1.007707,0.540047,-1.117987,0.514054,-0.014286,0.019023,0.108588,0.999977,0.002700,-0.005590,0.002570,0.447711,0.192747,0.005091,-0.873142,10.029081,19.946963,-123.938336
30398,-1.689391,1.977004,10.913207,-1.181459,-1.773192,1.201791,0.595967,-1.090002,0.598603,-0.017547,0.019393,0.109096,0.999976,0.002980,-0.005450,0.002993,0.449736,0.189323,-0.000558,-0.872866,10.452929,19.269061,-123.701998
30399,-2.124695,2.156197,10.893013,-0.796888,-1.380892,1.380046,0.639038,-1.078517,0.689597,-0.021908,0.021139,0.108881,0.999974,0.003195,-0.005393,0.003448,0.452104,0.185998,-0.006483,-0.872333,10.915602,18.580875,-123.416383
30400,-2.521646,2.542004,10.903072,-0.283484,-1.137244,1.603161,0.620759,-1.075286,0.762880,-0.025898,0.024984,0.108971,0.999973,0.003104,-0.005376,0.003814,0.454776,0.182671,-0.012360,-0.871583,11.375122,17.889621,-123.094327
30401,-2.990021,2.792431,10.938052,0.156404,-0.751326,1.840109,0.529422,-1.085630,0.822196,-0.030607,0.027510,0.109289,0.999973,0.002647,-0.005428,0.004111,0.457775,0.179040,-0.017946,-0.870669,11.787553,17.177890,-122.745068
30402,-3.107813,2.723047,10.811188,0.223115,-0.437069,1.750715,0.419758,-1.107924,0.856190,-0.031792,0.026869,0.107994,0.999973,0.002099,-0.005540,0.004281,0.460984,0.175086,-0.023105,-0.869658,12.135221,16.452974,-122.385249
30403,-3.148638,2.563890,10.684442,0.186850,-0.137701,1.614857,0.341906,-1.126134,0.885183,-0.032200,0.025315,0.106708,0.999973,0.001710,-0.005631,0.004426,0.464369,0.170823,-0.028022,-0.868560,12.437218,15.706840,-122.016190
30404,-3.118672,2.443019,10.494676,0.167713,0.080165,1.403204,0.292240,-1.103614,0.892189,-0.031873,0.024136,0.104808,0.999974,0.001461,-0.005518,0.004461,0.467796,0.166570,-0.032645,-0.867384,12.705773,14.976218,-121.645622
30405,-3.649938,2.774948,10.752105,0.653565,0.456972,1.848881,0.253650,-1.073907,0.867573,-0.037196,0.027453,0.107358,0.999975,0.001268,-0.005369,0.004338,0.471138,0.162314,-0.037039,-0.866205,12.944756,14.258268,-121.289696
30406,-5.229671,3.284256,11.928170,1.529018,1.541050,3.442560,0.137338,-1.139291,0.806186,-0.053107,0.032548,0.119003,0.999975,0.000687,-0.005696,0.004031,0.474265,0.157541,-0.041002,-0.865201,13.100435,13.516044,-120.981708
30407,-8.061667,2.984698,13.516817,2.278385,4.148069,5.490903,0.099899,-1.484609,0.803514,-0.081736,0.029453,0.134579,0.999964,0.000499,-0.007423,0.004018,0.477318,0.151141,-0.045645,-0.864431,13.219646,12.575598,-120.724165
30408,-9.262585,2.896965,13.745124,2.857900,5.472155,5.839517,0.038603,-2.194644,0.804922,-0.094242,0.028566,0.136429,0.999932,0.000193,-0.010973,0.004025,0.480203,0.141545,-0.051686,-0.864117,13.277898,11.243788,-120.563948
30409,-7.254344,2.371800,12.979848,1.839981,4.442611,4.455743,-0.052328,-2.892108,0.828047,-0.074508,0.023446,0.128724,0.999887,-0.000262,-0.014460,0.004140,0.482991,0.128657,-0.059039,-0.864107,13.265893,9.515642,-120.485105
30410,-3.782732,1.483993,10.466083,0.279934,2.361007,1.159344,-0.033362,-3.294431,0.830583,-0.039606,0.014695,0.104016,0.999856,-0.000167,-0.016471,0.004153,0.485528,0.114072,-0.067408,-0.864122,13.253792,7.567098,-120.458517
30411,-0.990138,1.614946,8.756262,-0.401904,0.185877,-0.865207,0.112506,-3.165611,0.746351,-0.011346,0.016060,0.087400,0.999868,0.000563,-0.015827,0.003732,0.487531,0.100369,-0.076048,-0.863977,13.321373,5.697772,-120.463103
30412,-0.744815,2.420558,8.915055,0.233733,-0.186357,-0.550033,0.124736,-2.829038,0.567577,-0.008777,0.024126,0.089048,0.999896,0.000624,-0.014145,0.002838,0.488764,0.088219,-0.083793,-0.863890,13.390630,4.043434,-120.525321
30413,-1.332801,2.855268,10.149839,0.738371,0.405308,0.781292,-0.025314,-2.584840,0.342078,-0.014687,0.028541,0.101311,0.999915,-0.000127,-0.012924,0.001710,0.489102,0.076809,-0.090198,-0.864144,13.370778,2.551485,-120.681533
30414,-2.225020,2.459903,11.052871,0.826847,1.678490,1.574119,-0.221412,-2.596301,0.184741,-0.023705,0.024700,0.110200,0.999915,-0.001107,-0.012981,0.000924,0.488742,0.064954,-0.095687,-0.864729,13.239271,1.077341,-120.924945
30415,-1.501867,1.561875,10.807608,-0.061104,1.719249,1.074580,-0.271503,-2.680412,0.094015,-0.016472,0.015758,0.107840,0.999909,-0.001357,-0.013402,0.000470,0.487883,0.052621,-0.101138,-0.865432,13.085701,-0.435900,-121.226128
30416,-1.417904,1.025248,10.932862,-0.401328,2.169819,1.036854,-0.083836,-2.684042,0.075136,-0.015648,0.010293,0.109121,0.999910,-0.000419,-0.013420,0.000376,0.486800,0.040753,-0.107368,-0.865932,13.047169,-1.945819,-121.535881
30417,-3.228574,1.394841,11.570195,0.908316,3.883770,1.603090,0.207211,-2.861598,0.167001,-0.033948,0.013801,0.115238,0.999897,0.001036,-0.014307,0.000835,0.485867,0.028746,-0.115304,-0.865917,13.183048,-3.569617,-121.818989
30418,-2.336221,2.785845,10.935644,1.869898,2.615942,1.253319,0.254611,-3.178323,0.277490,-0.025135,0.027685,0.109002,0.999872,0.001273,-0.015891,0.001387,0.485108,0.015434,-0.124187,-0.865454,13.352920,-5.380689,-122.086950
30419,0.373722,3.476758,9.424702,1.402876,-0.028105,0.140972,0.041129,-3.219370,0.365711,0.002156,0.034753,0.094297,0.999869,0.000206,-0.016096,0.001828,0.484596,0.001351,-0.132234,-0.864684,13.405025,-7.228358,-122.315269
30420,1.911396,2.657624,7.926372,0.247122,-1.010921,-1.300614,-0.093854,-2.967275,0.451388,0.017875,0.026655,0.079523,0.999887,-0.000469,-0.014836,0.002257,0.484503,-0.012009,-0.139042,-0.863586,13.375070,-8.944293,-122.462813
30421,2.715622,2.430017,7.466447,-0.189607,-1.487604,-1.641124,-0.059206,-2.603645,0.565988,0.026112,0.024397,0.075002,0.999911,-0.000296,-0.013018,0.002830,0.485062,-0.023809,-0.145097,-0.862029,13.350460,-10.475278,-122.496600
30422,2.645043,2.734305,7.835916,0.183510,-1.300443,-1.201885,-0.012017,-2.253485,0.685766,0.025471,0.027436,0.078648,0.999931,-0.000060,-0.011267,0.003429,0.486319,-0.034052,-0.150456,-0.860056,13.330788,-11.824388,-122.414626
30423,2.171213,3.001926,8.334980,0.727864,-0.725601,-0.749681,-0.023765,-2.014166,0.793707,0.020752,0.030113,0.083558,0.999941,-0.000119,-0.010071,0.003968,0.488157,-0.043389,-0.155159,-0.857756,13.282746,-13.056910,-122.237625
30424,2.343283,3.120585,8.564297,0.836907,-0.695151,-0.464455,-0.098982,-1.860114,0.873500,0.022498,0.031348,0.085840,0.999947,-0.000495,-0.009300,0.004367,0.490385,-0.052288,-0.159114,-0.855261,13.171033,-14.211065,-121.991302
30425,2.430292,2.418167,8.546444,0.307670,-0.298333,-0.614356,-0.131682,-1.710455,0.927922,0.023458,0.024348,0.085651,0.999952,-0.000658,-0.008552,0.004640,0.492906,-0.060683,-0.162549,-0.852607,13.022623,-15.290887,-121.689749
30426,2.413271,1.758969,8.371807,-0.136497,0.090432,-0.925834,-0.052846,-1.579776,0.957884,0.023386,0.017725,0.083900,0.999957,-0.000264,-0.007899,0.004789,0.495641,-0.068328,-0.165957,-0.849782,12.902668,-16.298244,-121.349035
30427,2.841535,1.617224,8.061495,-0.368350,-0.187511,-1.123326,0.040198,-1.418757,0.944829,0.027766,0.016288,0.080817,0.999964,0.000201,-0.007094,0.004724,0.498445,-0.075059,-0.169369,-0.846896,12.826333,-17.216081,-120.991227
30428,3.096261,1.364428,7.365938,-0.611826,-0.436118,-1.741748,0.109784,-1.177746,0.872233,0.030468,0.013737,0.073847,0.999973,0.000549,-0.005889,0.004361,0.501142,-0.080513,-0.172475,-0.844172,12.786402,-17.987045,-120.641031
30429,3.035442,1.893833,7.168603,-0.057759,-0.614447,-1.824699,0.136022,-0.846959,0.755620,0.029979,0.019003,0.071826,0.999984,0.000680,-0.004235,0.003778,0.503620,-0.084418,-0.174919,-0.841810,12.765434,-18.560927,-120.313762
30430,2.018195,2.223594,7.305746,0.752718,0.183125,-1.951959,0.035206,-0.539431,0.569068,0.019921,0.022280,0.073115,0.999992,0.000176,-0.002697,0.002845,0.505527,-0.087100,-0.176222,-0.840120,12.705187,-18.936453,-120.054024
30431,1.602915,2.420424,7.444955,1.148130,0.522172,-1.921921,-0.181558,-0.271887,0.256784,0.015897,0.024292,0.074449,0.999998,-0.000908,-0.001359,0.001284,0.506258,-0.088948,-0.176089,-0.839514,12.568575,-19.125516,-119.942612
30432,1.811265,1.603849,7.245319,0.362563,0.620790,-2.208034,-0.461282,-0.009009,-0.176298,0.018124,0.016190,0.072417,0.999997,-0.002306,-0.000045,-0.000881,0.505277,-0.090001,-0.174291,-0.840368,12.343285,-19.110969,-120.052341
30433,2.039989,-0.178519,6.696297,-1.283461,0.967609,-2.997247,-0.480581,0.242301,-0.571597,0.020476,-0.001683,0.066942,0.999992,-0.002403,0.001212,-0.002858,0.502838,-0.089717,-0.171970,-0.842337,12.173270,-18.910502,-120.364069
30434,2.333656,-0.044981,6.575773,-1.307511,0.596464,-2.984562,-0.303300,0.543890,-0.885163,0.023513,-0.000454,0.065695,0.999985,-0.001516,0.002719,-0.004426,0.499408,-0.087430,-0.169758,-0.845062,12.149526,-18.501245,-120.822323
30435,2.174258,0.759489,6.920545,-0.562496,0.452149,-2.554802,-0.282366,0.864554,-1.151846,0.022085,0.007566,0.069100,0.999973,-0.001412,0.004323,-0.005759,0.495110,-0.083522,-0.166958,-0.848537,12.170423,-17.882683,-121.395882
30436,1.696629,0.944008,7.489705,-0.221242,0.889717,-2.129981,-0.351898,1.149608,-1.356942,0.017460,0.009454,0.074781,0.999959,-0.001759,0.005748,-0.006785,0.490119,-0.078384,-0.163217,-0.852643,12.168709,-17.077123,-122.051204
30437,0.632462,0.644209,8.216433,-0.003161,2.052111,-1.805663,-0.351744,1.303838,-1.427669,0.006906,0.006539,0.082109,0.999952,-0.001759,0.006519,-0.007138,0.484907,-0.072539,-0.159126,-0.856903,12.163736,-16.179057,-122.725633
30438,-0.454736,0.804791,8.964307,0.632852,3.001497,-1.339055,-0.215315,1.262357,-1.376713,-0.003926,0.008173,0.089660,0.999956,-0.001077,0.006312,-0.006883,0.479886,-0.066559,-0.155673,-0.860840,12.218836,-15.307724,-123.372068
30439,-0.882932,1.414051,9.569363,1.310635,3.140939,-0.715033,-0.124016,1.063736,-1.240088,-0.008232,0.014252,0.095730,0.999966,-0.000620,0.005319,-0.006200,0.475292,-0.061329,-0.153043,-0.864242,12.302992,-14.565471,-123.960844
30440,-0.978587,1.304886,9.578153,1.229393,3.183595,-0.715767,-0.067825,0.817604,-1.038008,-0.009326,0.013131,0.095816,0.999978,-0.000339,0.004088,-0.005190,0.471373,-0.057167,-0.151159,-0.867001,12.390524,-13.982885,-124.461021
30441,-0.836693,1.503708,9.208942,1.297333,2.788047,-0.963440,0.067161,0.573862,-0.767510,-0.008045,0.015037,0.092118,0.999988,0.000336,0.002869,-0.003838,0.468466,-0.053956,-0.150360,-0.868919,12.521253,-13.570655,-124.834229
30442,-0.286463,2.330320,8.533158,1.675508,1.672017,-1.284845,0.118887,0.398620,-0.518706,-0.002634,0.023260,0.085351,0.999994,0.000594,0.001993,-0.002594,0.466514,-0.051561,-0.150119,-0.870156,12.650745,-13.285181,-125.085315
30443,0.013482,3.093097,8.158053,2.128584,0.887304,-1.398241,-0.012924,0.395300,-0.437832,0.000364,0.030936,0.081578,0.999996,-0.000065,0.001976,-0.002189,0.464872,-0.049555,-0.149297,-0.871291,12.693214,-13.012425,-125.289741
30444,0.688810,2.281028,8.312123,1.054582,0.775753,-1.265482,-0.350791,0.470679,-0.489574,0.007140,0.022939,0.083064,0.999993,-0.001754,0.002353,-0.002448,0.462972,-0.047960,-0.146832,-0.872810,12.545196,-12.690166,-125.514109
30445,0.504964,-0.366448,8.108638,-1.012234,2.208458,-2.051425,-0.337366,0.517935,-0.518094,0.005250,-0.003541,0.081079,0.999992,-0.001687,0.002590,-0.002590,0.460978,-0.046111,-0.144327,-0.874381,12.406387,-12.339302,-125.749458
30446,-0.279081,-0.615925,8.694768,-0.810261,3.098509,-1.701039,-0.026455,0.462285,-0.551740,-0.002607,-0.006140,0.086955,0.999994,-0.000132,0.002311,-0.002759,0.458862,-0.043759,-0.143309,-0.875781,12.449461,-12.014806,-126.010984
30447,-0.388494,0.141914,9.322501,-0.186466,2.937702,-0.957455,0.170941,0.310959,-0.581493,-0.003736,0.001350,0.093232,0.999994,0.000855,0.001555,-0.002907,0.456546,-0.041598,-0.143510,-0.877064,12.611755,-11.771357,-126.307883
30448,-0.336459,0.934203,9.457889,0.391287,2.498245,-0.645180,0.242291,0.134052,-0.575936,-0.003274,0.009237,0.094592,0.999995,0.001211,0.000670,-0.002880,0.454136,-0.040051,-0.144422,-0.878236,12.817613,-11.625986,-126.623367
30449,0.221685,1.543275,9.311390,0.542444,1.687742,-0.539605,0.212718,-0.014063,-0.524928,0.002251,0.015328,0.093130,0.999996,0.001064,-0.000070,-0.002625,0.451833,-0.039259,-0.145529,-0.879276,13.003776,-11.569036,-126.928467
30450,0.772065,1.861117,9.042034,0.472290,1.014946,-0.616765,0.204584,-0.098133,-0.405058,0.007714,0.018503,0.090443,0.999997,0.001023,-0.000491,-0.002025,0.449991,-0.038940,-0.146766,-0.880029,13.173761,-11.573400,-127.176242
30451,1.376889,2.488615,8.861159,0.614725,0.159444,-0.527979,0.181545,-0.126025,-0.246751,0.013744,0.024789,0.088643,0.999999,0.000908,-0.000630,-0.001234,0.448819,-0.038912,-0.147931,-0.880434,13.313099,-11.613468,-127.337609
30452,1.699283,2.615560,8.693153,0.525573,-0.195786,-0.593954,0.138549,-0.089340,-0.049452,0.016960,0.026091,0.086957,1.000000,0.000693,-0.000447,-0.000247,0.448534,-0.038965,-0.148788,-0.880433,13.404477,-11.658862,-127.381877
30453,1.359634,2.691771,8.817244,0.776288,0.076379,-0.526701,0.107151,-0.044117,0.160611,0.013555,0.026881,0.088190,1.000000,0.000536,-0.000221,0.000803,0.449200,-0.039045,-0.149362,-0.879992,13.452348,-11.706926,-127.300493
30454,1.125564,2.659170,8.981921,0.880922,0.336832,-0.425276,0.041991,-0.026297,0.354967,0.011197,0.026593,0.089826,0.999998,0.000210,-0.000131,0.001775,0.450721,-0.039338,-0.149573,-0.879165,13.439922,-11.771004,-127.106092
30455,1.032489,2.253046,8.941017,0.621885,0.629495,-0.576833,-0.008199,-0.027690,0.524673,0.010253,0.022561,0.089411,0.999997,-0.000041,-0.000138,0.002623,0.452975,-0.039876,-0.149532,-0.877989,13.378690,-11.858164,-126.815149
30456,1.205872,1.964653,8.927460,0.303487,0.654093,-0.620649,-0.033985,-0.022152,0.657160,0.011984,0.019701,0.089273,0.999995,-0.000170,-0.000111,0.003286,0.455805,-0.040548,-0.149337,-0.876525,13.286471,-11.959481,-126.447755
30457,1.573524,1.740396,8.910807,-0.072562,0.483899,-0.611166,-0.060381,0.017389,0.712962,0.015681,0.017487,0.089101,0.999994,-0.000302,0.000087,0.003565,0.458899,-0.041146,-0.148923,-0.874952,13.170726,-12.045173,-126.042924
30458,1.580755,1.786376,9.105364,-0.032637,0.508323,-0.413853,-0.092743,0.081222,0.698891,0.015782,0.017961,0.091039,0.999994,-0.000464,0.000406,0.003494,0.461967,-0.041530,-0.148223,-0.873437,13.035854,-12.092784,-125.637355
30459,1.557956,1.789672,9.540317,-0.025043,0.643648,-0.002854,-0.170278,0.110052,0.597094,0.015578,0.018024,0.095379,0.999995,-0.000851,0.000550,0.002985,0.464590,-0.041889,-0.147135,-0.872211,12.867614,-12.109888,-125.285943
30460,1.602652,1.301584,9.728005,-0.442536,0.904062,0.080919,-0.208514,0.090489,0.472932,0.016040,0.013155,0.097259,0.999997,-0.001043,0.000452,0.002365,0.466646,-0.042333,-0.145953,-0.871291,12.692868,-12.121445,-125.007968
30461,1.874945,1.255636,9.828110,-0.618876,0.724262,0.226046,-0.179823,0.046074,0.342108,0.018750,0.012677,0.098265,0.999998,-0.000899,0.000230,0.001711,0.468102,-0.042805,-0.145023,-0.870641,12.551229,-12.140349,-124.810414
30462,1.980758,1.350019,9.811506,-0.580149,0.574307,0.254346,-0.165898,0.012524,0.208144,0.019800,0.013602,0.098103,0.999999,-0.000829,0.000063,0.001041,0.468954,-0.043296,-0.144264,-0.870285,12.434686,-12.161338,-124.693745
30463,2.078143,1.424837,9.564252,-0.541800,0.377495,0.055833,-0.136501,-0.009291,0.105932,0.020769,0.014325,0.095634,1.000000,-0.000683,-0.000046,0.000530,0.469350,-0.043737,-0.143702,-0.870142,12.347561,-12.181383,-124.638220
30464,2.099733,1.721095,9.562071,-0.296599,0.200864,0.120888,-0.101147,-0.002314,0.036954,0.020993,0.017263,0.095612,1.000000,-0.000506,-0.000012,0.000185,0.469459,-0.044017,-0.143296,-0.870136,12.289116,-12.189404,-124.621363
30465,1.569994,1.959946,9.481519,0.207735,0.475963,-0.018006,-0.070242,-0.000443,0.016596,0.015698,0.019634,0.094808,1.000000,-0.000351,-0.000002,0.000083,0.469488,-0.044200,-0.143020,-0.870157,12.250427,-12.193508,-124.615839
30466,1.356179,2.214374,9.442647,0.545164,0.503034,-0.047647,-0.047974,-0.013439,0.034573,0.013552,0.022169,0.094422,1.000000,-0.000240,-0.000067,0.000173,0.469590,-0.044402,-0.142872,-0.870116,12.223022,-12.207446,-124.601715
30467,1.038676,2.126648,9.776034,0.632953,0.902544,0.185168,0.013852,-0.023789,0.088326,0.010366,0.021264,0.097763,1.000000,0.000069,-0.000119,0.000442,0.469932,-0.044539,-0.143001,-0.869903,12.224435,-12.233235,-124.557991
30468,0.554941,2.120527,10.325137,0.865188,1.469537,0.603882,0.145146,-0.157886,0.188100,0.005448,0.021135,0.103271,0.999999,0.000726,-0.000789,0.000940,0.470641,-0.045025,-0.143999,-0.869330,12.292760,-12.346730,-124.473877
30469,1.131566,2.602166,10.562034,0.935298,0.864376,1.049454,0.245671,-0.345614,0.313780,0.011092,0.025909,0.105672,0.999997,0.001228,-0.001728,0.001569,0.471782,-0.046178,-0.145840,-0.868343,12.407642,-12.580172,-124.341333
30470,1.788382,3.128484,10.833721,1.007741,0.208646,1.558139,0.288756,-0.508042,0.461419,0.017536,0.031169,0.108427,0.999993,0.001444,-0.002540,0.002307,0.473450,-0.048044,-0.148222,-0.866930,12.532849,-12.923677,-124.145144
30471,2.338425,3.338741,10.550780,0.925016,-0.345758,1.454895,0.283180,-0.664028,0.638030,0.022927,0.033312,0.105632,0.999988,0.001416,-0.003320,0.003190,0.475758,-0.050725,-0.150898,-0.865050,12.634824,-13.376040,-123.867857
30472,3.442796,3.362404,9.857019,0.428451,-1.374241,1.061430,0.274349,-0.721353,0.817815,0.033935,0.033628,0.098739,0.999984,0.001372,-0.003607,0.004089,0.478785,-0.053814,-0.153628,-0.862709,12.707167,-13.884248,-123.494788
30473,3.934101,3.238684,9.309068,0.143953,-1.798596,0.645252,0.313337,-0.634237,0.999425,0.038883,0.032436,0.093265,0.999981,0.001567,-0.003171,0.004997,0.482657,-0.056566,-0.156259,-0.859899,12.770254,-14.366405,-123.005516
30474,3.796533,2.809015,8.930899,-0.077782,-1.524894,0.173967,0.428977,-0.489896,1.199850,0.037578,0.028125,0.089462,0.999977,0.002145,-0.002449,0.005999,0.487515,-0.058579,-0.158980,-0.856518,12.861962,-14.794776,-122.381284
30475,3.602802,2.618340,8.786746,-0.097033,-1.253608,-0.042254,0.678681,-0.346167,1.444148,0.035687,0.026143,0.088018,0.999967,0.003393,-0.001731,0.007221,0.493579,-0.059553,-0.162338,-0.852338,13.051049,-15.175219,-121.596677
30476,3.421678,2.969565,8.711366,0.320271,-1.214498,-0.074314,0.980886,-0.225276,1.768609,0.033857,0.029568,0.087297,0.999948,0.004904,-0.001126,0.008843,0.501172,-0.059529,-0.166576,-0.847075,13.354407,-15.534481,-120.608285
30477,3.072912,3.606026,8.707928,1.050720,-1.109572,-0.017893,1.292001,-0.124303,2.210452,0.030278,0.035833,0.087330,0.999918,0.006460,-0.000622,0.011052,0.510746,-0.058655,-0.171725,-0.840362,13.757229,-15.902325,-119.350778
30478,3.589656,4.793760,8.445450,1.885638,-2.001267,0.168731,1.484490,-0.038837,2.691824,0.035236,0.047786,0.084816,0.999882,0.007422,-0.000194,0.013459,0.522370,-0.057335,-0.177290,-0.832112,14.181570,-16.298352,-117.802744
30479,4.100475,5.777992,8.145290,2.609652,-2.767825,0.290324,1.491453,0.184608,3.154279,0.040169,0.057808,0.081847,0.999847,0.007457,0.000923,0.015771,0.535976,-0.055457,-0.182121,-0.822488,14.515412,-16.645579,-115.953934
30480,3.795133,5.348143,8.185170,2.417724,-2.177275,0.157992,1.419793,0.448621,3.569301,0.037180,0.053567,0.082148,0.999813,0.007099,0.002243,0.017845,0.551328,-0.053049,-0.185771,-0.811611,14.716920,-16.914992,-113.823498
30481,3.925193,3.811106,7.905091,1.063004,-1.778016,-0.424937,1.499989,0.680476,3.944527,0.038767,0.038285,0.079205,0.999772,0.007499,0.003402,0.019721,0.568209,-0.049801,-0.188938,-0.799350,14.882450,-17.117365,-111.438790
30482,3.789961,3.367512,7.987457,0.738503,-1.426282,-0.489423,1.788763,0.932051,4.285468,0.037549,0.033767,0.080001,0.999720,0.008943,0.004660,0.021425,0.586475,-0.045029,-0.192357,-0.785505,15.135776,-17.239480,-108.815897
30483,4.181688,4.172490,7.837233,1.441952,-1.948496,-0.302605,1.920658,1.196230,4.436757,0.041358,0.041892,0.078526,0.999690,0.009602,0.005981,0.022181,0.605271,-0.038948,-0.195380,-0.770686,15.424507,-17.250472,-106.063787
30484,4.123288,4.287033,8.020040,1.585725,-1.780618,-0.116525,1.768325,1.542229,4.404336,0.040905,0.043064,0.080264,0.999689,0.008841,0.007710,0.022019,0.623877,-0.031943,-0.196646,-0.755703,15.618044,-17.076296,-103.275757
30485,2.953174,3.365743,8.035290,0.980195,-0.524281,-0.681439,1.654230,1.808269,4.270215,0.029540,0.033623,0.080364,0.999697,0.008270,0.009040,0.021349,0.641835,-0.024134,-0.196563,-0.740830,15.770296,-16.743122,-100.525685
30486,1.730341,2.861801,8.303588,0.614639,0.746172,-0.913332,1.538057,1.927541,3.989534,0.017537,0.028327,0.083086,0.999725,0.007690,0.009637,0.019946,0.658489,-0.015970,-0.195577,-0.726559,15.913972,-16.306564,-97.921698
30487,1.342898,1.766544,8.102036,-0.412483,1.053402,-1.488858,1.404084,1.940605,3.564560,0.013904,0.017342,0.081009,0.999769,0.007020,0.009702,0.017821,0.673266,-0.007772,-0.194008,-0.713451,16.070990,-15.802891,-95.564670
30488,1.709251,0.899025,7.939129,-1.307952,0.560986,-1.767045,1.327143,2.009385,2.968610,0.017759,0.008724,0.079274,0.999817,0.006635,0.010046,0.014842,0.685708,0.000990,-0.191865,-0.702134,16.294054,-15.173125,-93.540901
30489,0.804132,0.979133,8.835714,-1.487783,1.527630,-1.145209,1.183697,2.093174,2.265292,0.008858,0.009366,0.088324,0.999864,0.005918,0.010465,0.011326,0.695541,0.010231,-0.188877,-0.693141,16.559638,-14.392279,-91.907209
30490,-0.653407,0.848946,9.752387,-1.919642,2.994874,-0.669446,0.965361,1.948729,1.581342,-0.005648,0.007971,0.097621,0.999910,0.004827,0.009743,0.007906,0.702724,0.018854,-0.185546,-0.686583,16.820763,-13.584865,-90.686566
30491,-0.296759,-0.001876,9.375179,-2.723885,2.349254,-1.150073,0.785316,1.701534,0.960297,-0.002169,-0.000399,0.093771,0.999945,0.003927,0.008508,0.004801,0.707459,0.026572,-0.182387,-0.682298,17.085577,-12.814953,-89.858480
30492,1.491420,-0.101079,8.303158,-2.562658,0.222948,-1.777877,0.830158,1.613112,0.422957,0.015586,-0.001323,0.082903,0.999957,0.004151,0.008065,0.002115,0.710207,0.034631,-0.179597,-0.679818,17.453897,-12.006177,-89.344791
30493,2.467611,1.040546,7.942910,-1.409283,-0.861204,-1.594913,0.915355,1.727860,0.024760,0.025360,0.010046,0.079258,0.999952,0.004577,0.008639,0.000124,0.711623,0.043739,-0.176609,-0.678593,17.918669,-11.069273,-89.028378
30494,2.553459,2.943374,7.938646,0.343871,-0.959010,-1.028319,0.838158,1.927050,-0.236220,0.026333,0.029071,0.079258,0.999944,0.004191,0.009635,-0.001181,0.712275,0.053472,-0.172570,-0.678251,18.362774,-9.979696,-88.813747
30495,2.321064,4.559247,8.212485,1.734046,-0.748043,-0.323263,0.563846,2.144775,-0.327202,0.024165,0.045322,0.081997,0.999937,0.002819,0.010724,-0.001636,0.712794,0.063040,-0.166785,-0.678331,18.655027,-8.756933,-88.602854
30496,1.137857,4.658882,8.655324,1.629795,0.284810,-0.057001,0.251122,2.288145,-0.270158,0.012431,0.046464,0.086473,0.999933,0.001256,0.011440,-0.001351,0.713633,0.071923,-0.159421,-0.678336,18.763528,-7.467303,-88.330361
30497,0.092945,3.884871,9.096473,0.716729,1.104160,-0.009119,0.084753,2.296443,-0.160241,0.002005,0.038809,0.090962,0.999934,0.000424,0.011482,-0.000801,0.714815,0.080145,-0.151487,-0.677988,18.776035,-6.194040,-87.995829
30498,-0.919981,3.186842,9.732391,-0.185640,1.906822,0.289161,0.018794,2.201745,-0.108667,-0.008110,0.031864,0.097420,0.999939,0.000094,0.011009,-0.000543,0.716038,0.087759,-0.143664,-0.677458,18.756338,-4.981316,-87.651463
30499,-2.065858,2.392866,10.239239,-1.146149,2.821039,0.461553,-0.039467,1.978409,-0.148207,-0.019627,0.023964,0.102585,0.999951,-0.000197,0.009892,-0.000741,0.716912,0.094431,-0.136414,-0.677135,18.715840,-3.882437,-87.371188
30500,-2.235505,0.639329,9.875207,-2.693540,2.674860,-0.404527,0.038977,1.668176,-0.277079,-0.021521,0.006404,0.098935,0.999964,0.000195,0.008341,-0.001385,0.717042,0.100409,-0.130465,-0.677309,18.732176,-2.928022,-87.218601
30501,-1.538579,0.786902,9.538046,-2.422514,1.824486,-0.606078,0.281122,1.458235,-0.477667,-0.014671,0.007770,0.095500,0.999970,0.001406,0.007291,-0.002388,0.716186,0.106674,-0.125980,-0.678106,18.896508,-2.050376,-87.212394
30502,-1.047217,2.507576,9.541679,-0.795954,1.288150,-0.007920,0.319424,1.357730,-0.696277,-0.009737,0.024958,0.095524,0.999970,0.001597,0.006789,-0.003481,0.714462,0.112861,-0.121860,-0.679674,19.086217,-1.186712,-87.340665
30503,-0.537875,2.950375,9.405711,-0.326675,0.653160,0.032424,0.192121,1.315014,-0.838337,-0.004637,0.029434,0.094118,0.999969,0.000961,0.006575,-0.004192,0.712257,0.118533,-0.117370,-0.681809,19.202379,-0.318645,-87.551526
30504,-0.458443,3.260891,9.263574,0.009945,0.438673,0.008868,0.096205,1.319510,-0.864515,-0.003832,0.032582,0.092678,0.999969,0.000481,0.006597,-0.004323,0.709979,0.123882,-0.112517,-0.684049,19.260106,0.556624,-87.774356
30505,0.004765,3.031323,8.967035,-0.087556,-0.176380,-0.349287,-0.042087,1.382242,-0.928397,0.000808,0.030330,0.089660,0.999965,-0.000210,0.006911,-0.004642,0.707555,0.128988,-0.106918,-0.686510,19.234921,1.478518,-88.019682
30506,0.038042,2.513769,8.826492,-0.506674,-0.377586,-0.657052,-0.333070,1.588828,-1.217683,0.001235,0.025279,0.088215,0.999949,-0.001665,0.007944,-0.006088,0.704377,0.133912,-0.099396,-0.689957,19.034263,2.565522,-88.384801
30507,-1.316666,0.610783,8.923372,-2.327006,0.778711,-1.111588,-0.528046,1.767274,-1.597088,-0.012327,0.006444,0.089328,0.999926,-0.002640,0.008836,-0.007985,0.700020,0.138940,-0.090305,-0.694632,18.704678,3.818405,-88.928183
30508,-2.028786,0.688841,8.838878,-2.169650,1.319872,-1.079800,-0.570454,1.870182,-2.020490,-0.019388,0.007340,0.088552,0.999901,-0.002852,0.009351,-0.010102,0.694148,0.144341,-0.080398,-0.700615,18.320805,5.200312,-89.692190
30509,-3.264113,0.710988,9.278175,-2.198062,2.320588,-0.484075,-0.653464,1.867852,-2.351614,-0.031684,0.007790,0.093056,0.999882,-0.003267,0.009339,-0.011758,0.687023,0.149550,-0.069947,-0.707631,17.850529,6.634807,-90.649965
30510,-3.858783,1.769700,9.504147,-1.144387,2.632704,0.192561,-0.461704,1.671092,-2.336905,-0.037580,0.018360,0.095316,0.999894,-0.002308,0.008355,-0.011684,0.679586,0.154679,-0.060851,-0.714517,17.462384,7.951481,-91.647592
30511,-2.197566,4.592444,9.074825,1.721421,0.614775,0.430615,-0.559219,1.580806,-2.205842,-0.020748,0.046412,0.090786,0.999904,-0.002796,0.007904,-0.011029,0.672526,0.159088,-0.051794,-0.720914,17.002487,9.190118,-92.601141
30512,-1.481890,3.940466,8.419035,1.350750,-0.183294,-0.499256,-0.875552,1.708300,-2.152933,-0.013672,0.039924,0.084136,0.999896,-0.004378,0.008541,-0.010764,0.665808,0.162843,-0.041209,-0.726969,16.346987,10.479812,-93.519515
30513,-3.104260,1.869185,9.274432,-0.669538,1.274599,0.039568,-0.987004,1.746786,-2.125274,-0.030027,0.019473,0.092915,0.999893,-0.004935,0.008734,-0.010626,0.659147,0.166331,-0.030096,-0.732771,15.607378,11.776231,-94.435970
30514,-4.550283,0.786550,10.190996,-1.727373,2.455498,0.965152,-0.725678,1.490891,-2.063845,-0.044655,0.008700,0.102214,0.999912,-0.003628,0.007454,-0.010319,0.652329,0.169697,-0.020837,-0.738400,14.993483,12.910231,-95.376910
30515,-3.728216,0.700600,10.403231,-1.828138,1.450569,1.011742,-0.533724,1.174296,-2.068395,-0.036594,0.007665,0.104229,0.999926,-0.002669,0.005871,-0.010342,0.645191,0.172499,-0.013302,-0.744174,14.457243,13.861391,-96.383478
30516,-3.149907,1.502404,10.409080,-1.043112,0.604509,1.099345,-0.277138,0.961970,-1.944137,-0.030849,0.015470,0.104219,0.999940,-0.001386,0.004810,-0.009720,0.638195,0.175301,-0.007521,-0.749613,14.060528,14.667884,-97.361458
30517,-2.889916,4.483309,10.805371,1.713435,-0.437217,2.106970,-0.202122,0.776835,-1.620676,-0.028114,0.045172,0.108118,0.999959,-0.001011,0.003884,-0.008103,0.632272,0.177623,-0.002884,-0.754104,13.733176,15.322184,-98.188215
30518,-2.047422,4.534895,10.414630,1.796944,-1.316136,1.512450,-0.400325,0.676236,-1.279965,-0.019830,0.045686,0.104123,0.999972,-0.002002,0.003381,-0.006400,0.627767,0.178918,0.001869,-0.757558,13.332053,15.868369,-98.838464
30519,-2.342585,2.182806,10.544158,-0.377494,-0.692189,1.178606,-0.544911,0.714706,-1.179654,-0.022919,0.022252,0.105464,0.999973,-0.002725,0.003573,-0.005898,0.623733,0.179901,0.007210,-0.760618,12.857563,16.419392,-99.431431
30520,-4.002963,0.085004,11.255896,-2.237337,1.075273,1.873339,-0.321795,0.590026,-1.210554,-0.039690,0.001272,0.112675,0.999976,-0.001609,0.002950,-0.006053,0.619356,0.181090,0.011331,-0.763856,12.494777,16.899236,-100.064444
30521,-4.235495,0.622713,11.759852,-1.762158,0.972331,2.539240,-0.103106,0.325306,-1.294846,-0.042122,0.006561,0.117664,0.999978,-0.000516,0.001627,-0.006474,0.614443,0.181936,0.013884,-0.767572,12.226590,17.239079,-100.785055
30522,-2.932729,1.171058,11.083651,-1.261328,-0.269785,1.639635,0.062411,0.175420,-1.276255,-0.029155,0.011862,0.110866,0.999979,0.000312,0.000877,-0.006381,0.609436,0.182704,0.015313,-0.771345,12.047254,17.488865,-101.516049
30523,-2.619703,3.100097,10.940109,0.554156,-1.075022,1.793186,0.105638,0.215190,-1.227340,-0.025889,0.031103,0.109445,0.999980,0.000528,0.001076,-0.006137,0.604549,0.183757,0.016663,-0.774904,11.898276,17.754269,-102.215322
30524,-3.681245,1.651411,11.468256,-0.716843,0.111353,2.322921,-0.035855,0.187948,-1.281818,-0.036598,0.016770,0.114714,0.999979,-0.000179,0.000940,-0.006409,0.599559,0.184261,0.018516,-0.778610,11.654672,18.007339,-102.951790
30525,-4.445763,0.076972,12.012302,-2.138213,1.093172,2.769005,0.150725,-0.033255,-1.421514,-0.044471,0.000995,0.120116,0.999974,0.000754,-0.000166,-0.007108,0.593845,0.184444,0.019120,-0.782919,11.480131,18.150774,-103.799506
30526,-4.268395,-0.471065,12.310678,-2.727754,1.027736,2.895450,0.320457,-0.270791,-1.700149,-0.042890,-0.004544,0.123041,0.999962,0.001602,-0.001354,-0.008501,0.586870,0.184161,0.018597,-0.788240,11.342065,18.189145,-104.840879
30527,-5.034770,-1.297125,12.829068,-3.386792,1.920007,3.471078,0.444702,-0.582951,-2.149812,-0.050859,-0.012711,0.128114,0.999936,0.002223,-0.002915,-0.010749,0.577975,0.182951,0.017096,-0.795099,11.180006,18.100866,-106.185196
30528,-5.774580,-1.778942,13.161604,-3.615821,2.800459,3.928408,0.637210,-1.052153,-2.725130,-0.058676,-0.017413,0.131253,0.999888,0.003186,-0.005261,-0.013625,0.566556,0.180351,0.013982,-0.803923,11.012817,17.807487,-107.921860
30529,-4.637129,-0.867981,12.183509,-2.717390,1.846236,2.832352,0.933338,-1.529100,-3.175348,-0.047437,-0.008500,0.121435,0.999834,0.004666,-0.007645,-0.015876,0.552934,0.176588,0.008748,-0.814251,10.929832,17.292391,-109.974547
30530,-1.909878,2.524949,10.625787,-0.066860,-1.438106,1.180792,1.259115,-1.592886,-3.121740,-0.019555,0.024883,0.106261,0.999827,0.006295,-0.007964,-0.015608,0.539058,0.173410,0.001942,-0.824222,11.062618,16.735306,-111.996783
30531,-2.126379,5.878142,10.558231,2.966861,-2.579539,1.810295,1.026572,-1.473765,-2.847402,-0.021208,0.058541,0.105727,0.999858,0.005133,-0.007368,-0.014236,0.526342,0.170040,-0.003803,-0.833088,11.128910,16.219233,-113.840279
30532,-3.440867,4.167189,10.816740,1.896474,-0.682145,2.109757,0.716738,-1.512268,-2.664657,-0.034670,0.041745,0.108055,0.999876,0.003584,-0.007561,-0.013323,0.514510,0.165649,-0.008533,-0.841289,11.065995,15.660498,-115.575846
30533,-3.439256,2.604792,10.697450,0.637673,0.138460,1.703471,0.685130,-1.658013,-2.583954,-0.034941,0.026131,0.106776,0.999876,0.003426,-0.008290,-0.012919,0.502909,0.160516,-0.013554,-0.849196,11.010343,15.009942,-117.275582
30534,-2.424577,2.242498,9.898974,0.169543,-0.342600,0.615629,0.732377,-1.719557,-2.491602,-0.024817,0.022370,0.098860,0.999879,0.003662,-0.008597,-0.012458,0.491535,0.155198,-0.019017,-0.856706,11.016158,14.313227,-118.922582
30535,-1.869343,2.555754,9.311518,0.375636,-0.807075,-0.017917,0.730439,-1.579629,-2.332117,-0.019131,0.025439,0.093058,0.999894,0.003652,-0.007898,-0.011660,0.480745,0.150420,-0.024232,-0.863522,11.064883,13.679103,-120.457117
30536,-2.032464,2.812303,8.979299,0.783816,-0.695126,-0.243478,0.698560,-1.420356,-2.096719,-0.020668,0.028025,0.089745,0.999914,0.003493,-0.007102,-0.010483,0.470923,0.146199,-0.029114,-0.869488,11.149229,13.109652,-121.834045
30537,-2.396938,3.517291,8.798098,1.614366,-0.713427,-0.199787,0.586521,-1.263604,-1.880560,-0.024195,0.035142,0.087932,0.999932,0.002933,-0.006318,-0.009403,0.462072,0.142338,-0.033279,-0.874712,11.212465,12.606526,-123.066508
30538,-3.353813,3.438710,9.056654,2.023547,0.130503,0.236379,0.406359,-1.170478,-1.702465,-0.033774,0.034490,0.090439,0.999945,0.002032,-0.005852,-0.008512,0.454086,0.138423,-0.036578,-0.879379,11.209039,12.136033,-124.183536
30539,-3.848951,3.278708,9.363329,2.145536,0.636707,0.590533,0.264908,-1.220745,-1.541543,-0.038807,0.032962,0.093441,0.999951,0.001325,-0.006104,-0.007708,0.446848,0.133921,-0.039464,-0.883648,11.150855,11.619358,-125.211729
30540,-3.058057,2.586456,9.432719,1.219528,0.455902,0.352043,0.115651,-1.307065,-1.442422,-0.031009,0.026033,0.094140,0.999952,0.000578,-0.006535,-0.007212,0.440088,0.128673,-0.041959,-0.887697,11.028040,11.041101,-126.189721
30541,-1.623944,1.569097,8.966183,-0.195243,0.016297,-0.568632,0.114881,-1.267211,-1.333513,-0.016702,0.015750,0.089566,0.999958,0.000574,-0.006336,-0.006667,0.433780,0.123565,-0.044417,-0.891400,10.926122,10.472177,-127.098043
30542,-1.174520,1.715822,8.568749,-0.191493,-0.350579,-1.004343,0.233887,-1.126290,-1.203761,-0.012124,0.017130,0.085640,0.999965,0.001169,-0.005631,-0.006019,0.427974,0.119305,-0.047188,-0.894638,10.918367,9.966921,-127.914344
30543,-2.165755,2.567674,9.279501,0.915341,-0.072505,0.013253,0.230092,-1.009874,-1.103738,-0.021984,0.025691,0.092714,0.999971,0.001150,-0.005049,-0.005519,0.422618,0.115526,-0.049738,-0.897538,10.925855,9.516898,-128.659682
30544,-3.928381,2.341986,10.473163,1.600622,1.471945,1.406702,0.165051,-1.123174,-1.056059,-0.039747,0.023543,0.104529,0.999970,0.000825,-0.005616,-0.005280,0.417460,0.111083,-0.052272,-0.900364,10.906160,8.997283,-129.389043
30545,-4.722355,2.047820,11.129671,1.828245,2.339922,2.084537,0.149514,-1.462990,-1.050474,-0.047928,0.020646,0.110963,0.999959,0.000748,-0.007315,-0.005252,0.412218,0.105069,-0.055432,-0.903307,10.879156,8.286311,-130.151118
30546,-3.865986,1.983866,10.722083,1.469693,1.828289,1.515993,0.156292,-1.841356,-1.121220,-0.039533,0.019975,0.106875,0.999942,0.000781,-0.009207,-0.005606,0.406506,0.097369,-0.059373,-0.906503,10.857160,7.369018,-130.992631
30547,-1.342003,1.854583,9.705935,0.095766,0.113752,0.158325,0.134625,-1.974909,-1.213050,-0.014265,0.018565,0.096934,0.999933,0.000673,-0.009874,-0.006065,0.400297,0.089037,-0.063421,-0.909842,10.827607,6.387133,-131.898579
30548,-0.363690,1.969349,8.935324,-0.204080,-0.600532,-0.677779,0.214812,-1.900582,-1.224787,-0.004366,0.019623,0.089335,0.999936,0.001074,-0.009503,-0.006124,0.393970,0.081193,-0.067685,-0.913025,10.860685,5.447323,-132.801339
30549,-0.129325,3.006099,8.836782,0.470974,-1.373720,-0.591414,0.210494,-1.784851,-1.163814,-0.001907,0.029978,0.088384,0.999943,0.001052,-0.008924,-0.005819,0.387914,0.073841,-0.071704,-0.915930,10.908453,4.567637,-133.656451
30550,0.557945,2.974593,8.510135,0.101800,-1.773805,-0.956947,0.197077,-1.624400,-1.023465,0.005040,0.029635,0.085173,0.999953,0.000985,-0.008122,-0.005117,0.382523,0.067136,-0.075408,-0.918413,10.969365,3.762798,-134.414680
30551,0.015384,3.003598,8.617932,0.536823,-1.308818,-0.796671,0.215043,-1.434137,-0.840433,-0.000338,0.029944,0.086210,0.999965,0.001075,-0.007171,-0.004202,0.378006,0.061267,-0.078875,-0.920400,11.056847,3.046720,-135.049329
30552,-0.924407,3.491072,9.355091,1.468749,-0.834858,0.071886,0.166584,-1.335182,-0.715773,-0.009744,0.034867,0.093516,0.999971,0.000833,-0.006676,-0.003579,0.374093,0.055706,-0.081976,-0.922080,11.129164,2.372618,-135.603456
30553,-1.205795,2.639543,9.566681,1.129705,0.061619,0.120160,0.056838,-1.336499,-0.665293,-0.012609,0.026410,0.095591,0.999972,0.000284,-0.006682,-0.003326,0.370421,0.049914,-0.084573,-0.923658,11.145213,1.693390,-136.129584
30554,-0.647476,1.836577,9.566872,0.266757,0.324150,-0.058717,0.092958,-1.324942,-0.635182,-0.007050,0.018343,0.095632,0.999973,0.000465,-0.006625,-0.003176,0.366863,0.044222,-0.087329,-0.925111,11.189526,1.016821,-136.637670
30555,-1.111196,2.173450,10.083874,0.838414,0.555185,0.513524,0.165321,-1.380694,-0.626093,-0.011740,0.021687,0.100777,0.999971,0.000827,-0.006903,-0.003130,0.363286,0.038403,-0.090508,-0.926475,11.280536,0.309340,-137.147550
30556,0.249954,2.609945,9.744423,0.261790,-0.639175,0.254572,0.115285,-1.434768,-0.644733,0.001884,0.026037,0.097474,0.999969,0.000576,-0.007174,-0.003224,0.359586,0.032245,-0.093555,-0.927850,11.350196,-0.426544,-137.674953
30557,1.678141,2.381846,9.009447,-0.780012,-1.455399,-0.488960,0.088380,-1.329208,-0.646621,0.016259,0.023725,0.090214,0.999973,0.000442,-0.006646,-0.003233,0.355909,0.026532,-0.096272,-0.929170,11.409967,-1.101466,-138.192329
30558,1.851384,2.914424,9.064992,-0.513159,-1.866300,-0.307506,0.148977,-1.126820,-0.604964,0.018091,0.029022,0.090774,0.999979,0.000745,-0.005634,-0.003025,0.352499,0.021841,-0.098920,-0.930313,11.509797,-1.667619,-138.664339
30559,1.500237,3.239005,9.150864,-0.007056,-1.783840,-0.153623,0.167095,-0.980297,-0.532419,0.014640,0.032274,0.091608,0.999984,0.000835,-0.004901,-0.002662,0.349483,0.017829,-0.101391,-0.931270,11.621744,-2.158353,-139.079890
30560,1.503206,3.744098,9.270818,0.339726,-2.070142,0.077947,0.178401,-0.856563,-0.401054,0.014710,0.037329,0.092805,0.999988,0.000892,-0.004283,-0.002005,0.347131,0.014343,-0.103715,-0.931954,11.740653,-2.594692,-139.408465
30561,1.043406,3.828056,9.600493,0.744143,-1.714868,0.405791,0.119710,-0.740891,-0.253349,0.010127,0.038210,0.096066,0.999992,0.000599,-0.003704,-0.001267,0.345524,0.011220,-0.105568,-0.932385,11.823114,-2.982384,-139.641383
30562,-0.181131,3.048459,10.347629,1.148681,-0.154850,0.913705,0.039572,-0.722966,-0.173407,-0.002159,0.030466,0.103475,0.999993,0.000198,-0.003615,-0.000867,0.344299,0.007998,-0.107024,-0.932706,11.859183,-3.369652,-139.827815
30563,0.317005,2.104904,10.013214,0.246751,0.207198,0.419188,0.017484,-0.785135,-0.188088,0.002797,0.021038,0.100145,0.999992,0.000087,-0.003926,-0.000940,0.342968,0.004458,-0.108479,-0.933052,11.884545,-3.789470,-140.030099
30564,0.198868,1.654360,10.019396,0.101521,0.670269,0.321648,0.071851,-0.761400,-0.217887,0.001625,0.016506,0.100207,0.999992,0.000359,-0.003807,-0.001089,0.341504,0.001135,-0.110147,-0.933403,11.943858,-4.192786,-140.246746
30565,-0.951948,2.025997,10.785913,1.216072,1.345146,1.052756,0.155382,-0.860958,-0.233122,-0.009960,0.020188,0.107833,0.999990,0.000777,-0.004305,-0.001166,0.339907,-0.002498,-0.112369,-0.933719,12.053902,-4.649239,-140.484537
30566,0.163788,2.599821,10.199281,0.827909,0.156677,0.680187,0.120820,-1.025667,-0.236983,0.001146,0.025935,0.102015,0.999986,0.000604,-0.005128,-0.001185,0.338190,-0.006960,-0.114712,-0.934034,12.148580,-5.197603,-140.745376
30567,1.333124,2.528939,9.338003,-0.000594,-0.646131,-0.068308,0.092510,-0.978604,-0.226291,0.012903,0.025231,0.093456,0.999987,0.000463,-0.004893,-0.001131,0.336541,-0.011252,-0.116834,-0.934325,12.228072,-5.719826,-140.995511
30568,0.942713,2.462138,9.561351,0.301920,-0.236953,0.098035,0.102757,-0.897335,-0.234595,0.009027,0.024561,0.095667,0.999989,0.000514,-0.004487,-0.001173,0.334892,-0.015145,-0.118870,-0.934606,12.315536,-6.195856,-141.241383
30569,0.955223,2.569112,9.597477,0.410224,-0.253112,0.156839,0.136404,-0.894699,-0.242859,0.009154,0.025614,0.096034,0.999989,0.000682,-0.004473,-0.001214,0.333202,-0.018961,-0.121053,-0.934860,12.424579,-6.668324,-141.492598
30570,1.402174,2.863407,9.176488,0.315556,-0.787233,-0.135223,0.142578,-0.865905,-0.203567,0.013653,0.028555,0.091845,0.999990,0.000713,-0.004330,-0.001018,0.331706,-0.022659,-0.123214,-0.935027,12.536565,-7.129719,-141.719266
30571,1.550868,2.668679,9.020755,0.128127,-0.712610,-0.306035,0.123256,-0.773419,-0.159100,0.015181,0.026619,0.090283,0.999992,0.000616,-0.003867,-0.000795,0.330467,-0.025980,-0.125121,-0.935126,12.634404,-7.543896,-141.910273
30572,0.949850,2.271522,9.296059,0.380996,0.074700,-0.203959,0.118531,-0.704054,-0.125716,0.009185,0.022654,0.093007,0.999993,0.000593,-0.003520,-0.000629,0.329422,-0.029009,-0.126888,-0.935168,12.727489,-7.923822,-142.074532
30573,0.699856,1.852980,9.403071,0.352620,0.620401,-0.229814,0.157937,-0.706115,-0.122303,0.006678,0.018451,0.094069,0.999993,0.000790,-0.003531,-0.000612,0.328392,-0.031980,-0.128838,-0.935167,12.843926,-8.304399,-142.237973
30574,0.608305,1.765482,9.550910,0.406221,0.836562,-0.125502,0.203518,-0.735620,-0.145103,0.005744,0.017553,0.095549,0.999992,0.001018,-0.003678,-0.000726,0.327240,-0.035004,-0.131054,-0.935154,12.990387,-8.698796,-142.419164
30575,0.624952,1.796865,9.535453,0.454680,0.858738,-0.138002,0.198860,-0.784543,-0.184570,0.005892,0.017868,0.095396,0.999991,0.000994,-0.003923,-0.000923,0.325864,-0.038232,-0.133329,-0.935187,13.139839,-9.114198,-142.630273
30576,1.148664,1.968444,9.397840,0.195303,0.439592,-0.154440,0.192481,-0.795325,-0.195614,0.011132,0.019583,0.094042,0.999991,0.000962,-0.003977,-0.000978,0.324423,-0.041518,-0.135596,-0.935222,13.288859,-9.534347,-142.850419
30577,1.282511,2.125402,9.483582,0.230388,0.329321,-0.017870,0.203993,-0.822369,-0.145841,0.012450,0.021148,0.094909,0.999991,0.001020,-0.004112,-0.000729,0.323193,-0.044940,-0.137943,-0.935146,13.441901,-9.974790,-143.047419
30578,1.025644,2.486120,9.892867,0.702548,0.396536,0.407394,0.225183,-0.889142,-0.073424,0.009826,0.024746,0.099001,0.999989,0.001126,-0.004446,-0.000367,0.322254,-0.048694,-0.140483,-0.934904,13.603551,-10.462397,-143.214058
30579,1.222724,2.457343,9.740207,0.588874,0.332903,0.284181,0.201320,-1.009148,0.001701,0.011735,0.024475,0.097487,0.999987,0.001007,-0.005046,0.000009,0.321567,-0.053093,-0.143078,-0.934508,13.748190,-11.025682,-143.356252
30580,1.737461,1.820540,9.363492,-0.143724,0.472982,-0.129564,0.127647,-1.059320,-0.018126,0.016880,0.018144,0.093737,0.999986,0.000638,-0.005297,-0.000091,0.320724,-0.057835,-0.145415,-0.934155,13.856197,-11.614731,-143.518269
30581,2.720155,1.381932,8.700431,-1.132739,0.098730,-0.663211,0.153067,-1.013603,-0.077946,0.026765,0.013742,0.087151,0.999987,0.000765,-0.005068,-0.000390,0.319633,-0.062271,-0.147806,-0.933869,13.986035,-12.168867,-143.709382
30582,2.495709,1.640563,8.960983,-0.735577,0.187279,-0.397674,0.189371,-0.907131,-0.099625,0.024558,0.016308,0.089737,0.999989,0.000947,-0.004536,-0.000498,0.318523,-0.066142,-0.150205,-0.933599,14.138473,-12.661258,-143.899474
30583,1.819962,1.975375,9.361970,0.065910,0.523797,-0.087386,0.225526,-0.896730,-0.049306,0.017784,0.019644,0.093722,0.999989,0.001128,-0.004484,-0.000247,0.317661,-0.069936,-0.152730,-0.933206,14.306464,-13.153619,-144.061093
30584,1.253499,2.314762,9.827587,0.793656,0.820840,0.297028,0.238447,-0.962465,0.037502,0.012057,0.023033,0.098362,0.999988,0.001192,-0.004812,0.000188,0.317151,-0.074088,-0.155392,-0.932620,14.474852,-13.695174,-144.184713
30585,0.764208,2.154225,10.077226,1.159759,1.387739,0.360961,0.257724,-1.124895,0.157588,0.007058,0.021418,0.100841,0.999983,0.001289,-0.005624,0.000788,0.317072,-0.079051,-0.158346,-0.931742,14.644768,-14.342843,-144.265675
30586,1.185746,2.834678,9.910067,1.324192,0.685204,0.455028,0.383282,-1.344960,0.324596,0.011145,0.028175,0.099231,0.999974,0.001916,-0.006725,0.001623,0.317633,-0.084975,-0.162167,-0.930371,14.872831,-15.137440,-144.286856
30587,2.170429,3.128520,9.343817,0.801060,-0.165739,0.243842,0.512594,-1.492244,0.585828,0.020915,0.031107,0.093676,0.999965,0.002563,-0.007461,0.002929,0.319325,-0.091578,-0.166696,-0.928363,15.141558,-16.051106,-144.184191
30588,2.372271,3.428809,9.285442,0.938125,-0.377606,0.315390,0.699796,-1.611662,0.916098,0.022816,0.034068,0.093160,0.999951,0.003499,-0.008058,0.004580,0.322510,-0.098711,-0.172125,-0.925536,15.468691,-17.082320,-143.914508
30589,3.424774,3.643377,8.973875,0.366299,-1.088891,0.395651,0.702257,-1.663717,1.174416,0.033285,0.036315,0.090146,0.999942,0.003511,-0.008318,0.005872,0.326811,-0.106284,-0.177498,-0.922167,15.750600,-18.182280,-143.507810
30590,3.034683,1.861405,9.143971,-0.335977,0.637974,-0.026796,0.724023,-1.597879,1.265008,0.029498,0.018471,0.091745,0.999942,0.003620,-0.007989,0.006325,0.331562,-0.113595,-0.182801,-0.918557,16.018541,-19.263179,-143.040606
30591,3.256629,1.928857,9.247059,-0.332519,0.650787,0.152107,0.702653,-1.651496,1.183999,0.031687,0.019152,0.092802,0.999942,0.003513,-0.008257,0.005920,0.335841,-0.121092,-0.188115,-0.914965,16.285437,-20.361580,-142.632052
30592,5.231452,1.892314,8.027033,-1.826368,-0.835958,-0.255203,0.538315,-1.502071,0.950002,0.051619,0.018953,0.080711,0.999957,0.002692,-0.007510,0.004750,0.339058,-0.127958,-0.192553,-0.911916,16.492079,-21.342740,-142.337465
30593,5.597501,1.339485,8.077345,-2.358530,-0.541041,-0.194312,0.269241,-1.140151,0.591211,0.055474,0.013450,0.081109,0.999978,0.001346,-0.005701,0.002956,0.340792,-0.133268,-0.195363,-0.909909,16.595437,-22.066302,-142.192449
30594,3.100610,0.727732,9.490535,-0.714471,2.015571,-0.033132,0.391881,-0.994510,0.364903,0.030521,0.007147,0.095072,0.999984,0.001959,-0.004973,0.001825,0.341708,-0.137488,-0.198631,-0.908228,16.809700,-22.674063,-142.157407
30595,2.333511,2.809498,9.990649,1.374361,1.350490,0.648536,0.440499,-1.251725,0.308740,0.022666,0.027910,0.100111,0.999977,0.002202,-0.006259,0.001544,0.342134,-0.142726,-0.202583,-0.906385,17.083241,-23.412635,-142.204908
30596,3.876400,3.419844,8.616629,0.586693,-0.448675,0.208319,0.515235,-1.392478,0.440106,0.038087,0.034060,0.086521,0.999970,0.002576,-0.006962,0.002201,0.343047,-0.148605,-0.207018,-0.904090,17.381350,-24.251218,-142.204483
30597,4.445330,4.264710,8.070829,0.777756,-1.464265,0.204072,0.726820,-1.397501,0.788618,0.043719,0.042526,0.081170,0.999961,0.003634,-0.006987,0.003943,0.345665,-0.154487,-0.212137,-0.900915,17.715067,-25.151697,-142.000315
30598,4.202046,4.943359,8.586854,1.599530,-1.374840,0.740779,0.900554,-1.405749,1.249138,0.041106,0.049304,0.086382,0.999946,0.004503,-0.007029,0.006246,0.350449,-0.160588,-0.217684,-0.896666,18.027739,-26.139725,-141.523471
30599,4.818409,4.714338,8.349074,1.114565,-1.520590,0.750948,0.881289,-1.433598,1.633231,0.047198,0.047162,0.084039,0.999931,0.004406,-0.007168,0.008166,0.356867,-0.167237,-0.222854,-0.891636,18.219088,-27.212216,-140.818661
30600,5.889286,3.319723,7.777073,-0.539907,-1.375079,0.385427,0.854349,-1.290626,1.837663,0.058082,0.033400,0.078290,0.999928,0.004272,-0.006453,0.009188,0.364282,-0.173509,-0.227451,-0.886261,18.310074,-28.246229,-139.955584
30601,5.985204,2.470158,7.934957,-1.055006,-0.703276,0.349894,0.807810,-1.084249,1.814016,0.059195,0.024919,0.079772,0.999936,0.004039,-0.005421,0.009070,0.371737,-0.178894,-0.231453,-0.881044,18.344875,-29.163618,-139.058154
30602,5.647811,1.841715,8.186577,-1.144647,0.098841,0.236611,0.730175,-0.914432,1.591674,0.055955,0.018564,0.082190,0.999951,0.003651,-0.004572,0.007958,0.378298,-0.183404,-0.234973,-0.876380,18.371387,-29.949908,-138.257580
30603,5.614566,1.555584,8.128205,-1.256771,0.330115,0.103037,0.568755,-0.799546,1.239723,0.055723,0.015670,0.081550,0.999969,0.002844,-0.003998,0.006199,0.383274,-0.187282,-0.237869,-0.872608,18.393408,-30.609610,-137.649082
30604,5.297976,1.481562,8.422362,-1.000921,0.786544,0.166223,0.473002,-0.704430,0.881205,0.052617,0.014848,0.084444,0.999981,0.002365,-0.003522,0.004406,0.386689,-0.190499,-0.240492,-0.869681,18.459786,-31.153897,-137.244421
30605,4.722198,2.015549,8.648530,-0.146479,1.005383,0.193599,0.432676,-0.730121,0.606642,0.046845,0.020111,0.086700,0.999986,0.002163,-0.003651,0.003033,0.388830,-0.193565,-0.243239,-0.867283,18.592939,-31.662004,-137.018737
30606,5.085332,2.699524,8.187013,0.131691,0.209887,0.192969,0.391762,-0.753858,0.457315,0.050482,0.026950,0.082114,0.999988,0.001959,-0.003769,0.002287,0.390244,-0.196631,-0.245997,-0.865177,18.754597,-32.156849,-136.894117
30607,4.913142,2.982251,8.186188,0.500847,0.223790,0.174548,0.401538,-0.735168,0.440173,0.048764,0.029765,0.082101,0.999989,0.002008,-0.003676,0.002201,0.391608,-0.199566,-0.248767,-0.863094,18.924875,-32.637890,-136.777270
30608,5.157994,3.380179,8.041042,0.684412,-0.148280,0.296599,0.452985,-0.767692,0.550961,0.051178,0.033761,0.080684,0.999986,0.002265,-0.003838,0.002755,0.393451,-0.202680,-0.251711,-0.860673,19.089770,-33.158312,-136.597367
30609,6.021282,3.579809,7.315634,0.262773,-1.106925,0.251815,0.486855,-0.717168,0.745932,0.059816,0.035843,0.073459,0.999984,0.002434,-0.003586,0.003730,0.396219,-0.205742,-0.254492,-0.857854,19.196724,-33.687522,-136.279913
30610,6.193600,3.401350,7.370575,0.094110,-1.002538,0.348048,0.495642,-0.596835,0.928491,0.061557,0.034117,0.073974,0.999982,0.002478,-0.002984,0.004642,0.399918,-0.208502,-0.256880,-0.854754,19.224239,-34.187210,-135.815040
30611,5.936745,2.722129,7.541180,-0.196727,-0.317373,0.156477,0.548162,-0.545301,1.092614,0.059012,0.027337,0.075648,0.999978,0.002741,-0.002726,0.005463,0.404424,-0.211134,-0.259205,-0.851279,19.209280,-34.689237,-135.227967
30612,6.508062,2.973294,7.324166,-0.290579,-0.859690,0.386063,0.641980,-0.479547,1.248367,0.064718,0.029902,0.073493,0.999972,0.003210,-0.002398,0.006242,0.409756,-0.213493,-0.261622,-0.847393,19.174280,-35.185586,-134.519208
30613,5.842668,2.754836,7.610595,0.028533,-0.126782,0.168774,0.624564,-0.406856,1.312478,0.058090,0.027692,0.076311,0.999972,0.003123,-0.002034,0.006562,0.415414,-0.215646,-0.263730,-0.843430,19.087152,-35.653310,-133.746234
30614,5.596967,2.182514,7.717306,-0.221400,0.425992,-0.044612,0.579549,-0.391729,1.267125,0.055679,0.021955,0.077346,0.999974,0.002898,-0.001959,0.006336,0.420829,-0.217763,-0.265655,-0.839589,18.981809,-36.104002,-132.994678
30615,5.269722,1.868564,7.779028,-0.238920,0.859285,-0.274396,0.565863,-0.379981,1.143176,0.052442,0.018765,0.077943,0.999978,0.002829,-0.001900,0.005716,0.425704,-0.219679,-0.267616,-0.836002,18.908714,-36.523623,-132.318704
30616,5.375861,1.967170,7.440810,-0.218257,0.574743,-0.444815,0.518467,-0.380381,0.992713,0.053519,0.019745,0.074561,0.999983,0.002592,-0.001902,0.004964,0.429881,-0.221492,-0.269538,-0.832762,18.863136,-36.915688,-131.740508
30617,5.303290,2.104715,7.471964,-0.022546,0.611001,-0.431274,0.471145,-0.321053,0.858188,0.052822,0.021098,0.074854,0.999987,0.002356,-0.001605,0.004291,0.433512,-0.222967,-0.271273,-0.829918,18.832331,-37.249631,-131.236819
30618,5.058256,2.434824,7.517077,0.421786,0.668298,-0.464103,0.442373,-0.305190,0.781927,0.050372,0.024379,0.075302,0.999989,0.002212,-0.001526,0.003910,0.436806,-0.224335,-0.272935,-0.827273,18.810893,-37.561432,-130.779228
30619,5.779801,2.529313,7.021413,0.094701,-0.093979,-0.374161,0.428500,-0.251482,0.777452,0.057611,0.025367,0.070341,0.999989,0.002142,-0.001257,0.003887,0.440129,-0.225494,-0.274419,-0.824702,18.772420,-37.842269,-130.310050
30620,5.479422,2.871349,7.291841,0.607295,0.137646,-0.270584,0.456235,-0.181776,0.830985,0.054608,0.028774,0.073034,0.999988,0.002281,-0.000909,0.004155,0.443791,-0.226379,-0.275800,-0.822032,18.714380,-38.095645,-129.785843
30621,5.683475,2.723147,7.215442,0.402875,0.061843,-0.241183,0.433573,-0.171539,0.900706,0.056650,0.027330,0.072262,0.999987,0.002168,-0.000858,0.004504,0.447716,-0.227356,-0.276977,-0.819233,18.608673,-38.354813,-129.208712
30622,6.407066,2.418710,6.682859,-0.244099,-0.568814,-0.263973,0.533507,-0.087728,1.008377,0.063919,0.024331,0.066921,0.999984,0.002668,-0.000439,0.005042,0.452299,-0.227915,-0.278248,-0.816124,18.498177,-38.588073,-128.534829
30623,5.671280,3.156682,7.246461,0.859859,-0.044686,-0.122604,0.636867,-0.014599,1.162712,0.056524,0.031665,0.072569,0.999978,0.003184,-0.000073,0.005814,0.457714,-0.228142,-0.279586,-0.812577,18.365214,-38.807603,-127.733703
30624,5.602908,2.745444,7.329570,0.583416,0.254008,-0.208129,0.583931,-0.037252,1.239302,0.055845,0.027587,0.073387,0.999977,0.002920,-0.000186,0.006196,0.463327,-0.228685,-0.280664,-0.808863,18.166923,-39.052223,-126.880825
30625,6.178263,2.088490,6.882523,-0.268459,-0.112312,-0.335504,0.629535,0.015705,1.251161,0.061657,0.021054,0.068886,0.999975,0.003148,0.000079,0.006256,0.469093,-0.228908,-0.281774,-0.805082,17.976807,-39.266976,-126.003696
30626,5.585496,2.413945,7.300282,0.369212,0.420284,-0.325540,0.625462,0.071872,1.209076,0.055735,0.024248,0.073058,0.999977,0.003127,0.000359,0.006045,0.474741,-0.228850,-0.282773,-0.801429,17.790580,-39.442341,-125.140049
30627,5.447821,1.787988,7.352886,-0.092912,0.796849,-0.523073,0.527939,0.051320,1.119060,0.054397,0.017990,0.073562,0.999981,0.002640,0.000257,0.005595,0.479868,-0.228962,-0.283519,-0.798073,17.588210,-39.610097,-124.341925
30628,6.295498,1.535744,6.752577,-0.714792,-0.047897,-0.481246,0.524314,0.084825,1.021039,0.062905,0.015502,0.067540,0.999983,0.002622,0.000424,0.005105,0.484630,-0.228809,-0.284275,-0.794964,17.420168,-39.741551,-123.603382
30629,6.364951,1.764396,6.646291,-0.521713,-0.252072,-0.460516,0.594312,0.186797,0.984688,0.063624,0.017760,0.066456,0.999983,0.002972,0.000934,0.004923,0.489457,-0.228015,-0.285091,-0.791937,17.292344,-39.808664,-122.866558
30630,6.052870,2.599581,6.925389,0.408315,-0.163533,-0.264778,0.655395,0.254702,1.042039,0.060481,0.026084,0.069262,0.999980,0.003277,0.001274,0.005210,0.494659,-0.226882,-0.285910,-0.788729,17.162695,-39.847967,-122.073059
30631,6.210144,2.584522,6.863413,0.347328,-0.302174,-0.213725,0.730769,0.303723,1.167304,0.062054,0.025957,0.068635,0.999975,0.003654,0.001519,0.005836,0.500489,-0.225533,-0.286747,-0.785126,17.011401,-39.879160,-121.178962
30632,6.025413,3.225451,7.054278,1.045199,-0.261780,-0.049955,0.869283,0.366745,1.370671,0.060162,0.032360,0.070573,0.999965,0.004346,0.001834,0.006853,0.507334,-0.223874,-0.287727,-0.780837,16.836740,-39.908632,-120.125297
30633,6.286390,3.240511,6.818971,0.980006,-0.590541,-0.055195,0.924925,0.416896,1.607189,0.062745,0.032594,0.068209,0.999955,0.004625,0.002084,0.008036,0.515196,-0.222194,-0.288507,-0.775865,16.577753,-39.945621,-118.891129
30634,6.442728,2.395952,6.808640,0.182945,-0.450371,-0.149851,0.975999,0.507043,1.767770,0.064387,0.024197,0.068041,0.999946,0.004880,0.002535,0.008839,0.523817,-0.220249,-0.289049,-0.770427,16.260842,-39.955176,-117.521963
30635,5.996148,1.770197,7.261919,-0.190736,0.317882,-0.237442,1.037405,0.562598,1.807145,0.060005,0.017868,0.072543,0.999942,0.005187,0.002813,0.009036,0.532678,-0.217954,-0.289604,-0.764774,15.954121,-39.933874,-116.113371
30636,6.420321,1.516291,7.127586,-0.547550,-0.026227,-0.116221,1.102519,0.578849,1.815923,0.064270,0.015354,0.071174,0.999939,0.005512,0.002894,0.009079,0.541605,-0.215418,-0.290323,-0.758928,15.679114,-39.900321,-114.695586
30637,6.531638,2.241681,7.337228,0.137728,-0.167946,0.260794,1.144112,0.645700,1.848101,0.065345,0.022601,0.073290,0.999936,0.005720,0.003228,0.009240,0.550728,-0.212529,-0.290946,-0.752915,15.406754,-39.828814,-113.242876
30638,5.566413,2.598617,8.252734,0.795103,1.030086,0.392805,0.962085,0.625059,1.799682,0.055687,0.026090,0.082479,0.999943,0.004810,0.003125,0.008998,0.559379,-0.210129,-0.290958,-0.747184,15.057310,-39.756176,-111.830812
30639,6.478071,1.337281,7.549508,-0.638348,0.139877,0.203374,0.805504,0.559038,1.641446,0.064880,0.013601,0.075368,0.999954,0.004027,0.002795,0.008207,0.567121,-0.208154,-0.290706,-0.741981,14.702129,-39.689298,-110.547677
30640,6.616391,1.479284,7.626615,-0.505512,0.022889,0.379165,0.697932,0.603123,1.414371,0.066288,0.014996,0.076118,0.999964,0.003490,0.003016,0.007072,0.573927,-0.205982,-0.290144,-0.737561,14.387045,-39.560370,-109.421811
30641,6.628587,0.997656,7.499396,-0.941703,-0.036813,0.201600,0.577825,0.625430,1.172641,0.066461,0.010150,0.074815,0.999974,0.002889,0.003127,0.005863,0.579715,-0.203702,-0.289304,-0.733989,14.116010,-39.379712,-108.469439
30642,6.698858,1.302930,7.790614,-0.655690,0.000271,0.523452,0.646626,0.674859,1.054865,0.067182,0.013132,0.077722,0.999975,0.003233,0.003374,0.005274,0.585183,-0.200867,-0.288680,-0.730669,13.936843,-39.153148,-107.596163
30643,5.496308,2.734058,8.770972,0.975108,1.280490,0.771446,0.657039,0.579156,1.034858,0.055075,0.027337,0.087640,0.999977,0.003285,0.002896,0.005174,0.590422,-0.198306,-0.288379,-0.727264,13.788168,-38.974377,-106.757715
30644,5.952073,2.256883,8.447819,0.428895,0.769788,0.728173,0.453894,0.454294,0.929219,0.059607,0.022654,0.084394,0.999984,0.002269,0.002271,0.004646,0.594874,-0.196646,-0.287803,-0.724310,13.587211,-38.849572,-106.018875
30645,6.621885,1.182887,7.744364,-0.708425,-0.082516,0.420346,0.428660,0.402981,0.777578,0.066329,0.011921,0.077336,0.999988,0.002143,0.002015,0.003888,0.598660,-0.195015,-0.287428,-0.721776,13.447943,-38.730438,-105.399257
30646,6.585389,1.335324,7.934995,-0.555501,0.017741,0.570260,0.422975,0.421437,0.627791,0.065979,0.013393,0.079239,0.999991,0.002115,0.002107,0.003139,0.601915,-0.193123,-0.287118,-0.719698,13.371863,-38.581108,-104.884572
30647,6.145663,1.522586,8.362362,-0.313518,0.573762,0.655788,0.381208,0.384555,0.526194,0.061577,0.015228,0.083534,0.999993,0.001906,0.001923,0.002631,0.604701,-0.191333,-0.286861,-0.717941,13.322939,-38.437597,-104.449980
30648,5.785495,1.696683,8.659518,-0.098150,0.994753,0.691537,0.281588,0.294483,0.413347,0.057947,0.016965,0.086534,0.999996,0.001408,0.001472,0.002067,0.606850,-0.190011,-0.286625,-0.716571,13.277166,-38.330020,-104.111490
30649,5.845081,1.247761,8.476345,-0.538262,0.857981,0.509349,0.157395,0.190118,0.230391,0.058517,0.012478,0.084718,0.999999,0.000787,0.000951,0.001152,0.608074,-0.189169,-0.286431,-0.715834,13.252637,-38.255484,-103.921171
30650,6.503412,0.901955,8.065328,-0.974500,0.112797,0.540816,0.119122,0.137410,0.055617,0.065087,0.008990,0.080614,1.000000,0.000596,0.000687,0.000278,0.608559,-0.188388,-0.286427,-0.715629,13.288417,-38.188314,-103.863730
30651,6.131860,1.292349,8.416945,-0.561957,0.573402,0.650115,0.120132,0.107292,-0.057226,0.061367,0.012855,0.084144,1.000000,0.000601,0.000536,-0.000286,0.608598,-0.187544,-0.286621,-0.715741,13.377493,-38.122101,-103.891402
30652,5.779283,1.683183,8.802743,-0.157651,1.047866,0.798562,0.043083,-0.001452,-0.125757,0.057803,0.016777,0.088031,1.000000,0.000215,-0.000007,-0.000629,0.608162,-0.187232,-0.286938,-0.716065,13.463492,-38.108319,-103.985769
30653,5.565072,1.372990,8.865003,-0.434671,1.287500,0.656162,-0.103242,-0.152073,-0.289599,0.055603,0.013695,0.088685,0.999999,-0.000516,-0.000760,-0.001448,0.606787,-0.187661,-0.287337,-0.716959,13.553191,-38.155351,-104.221824
30654,5.898698,0.693866,8.477962,-1.140821,0.872464,0.438615,-0.247568,-0.285183,-0.572295,0.058886,0.006875,0.084855,0.999994,-0.001238,-0.001426,-0.002861,0.604067,-0.188605,-0.287891,-0.718784,13.698573,-38.239022,-104.681355
30655,6.433068,0.737712,7.789492,-1.170450,0.048846,0.248738,-0.281999,-0.328890,-0.804675,0.064232,0.007228,0.077990,0.999990,-0.001410,-0.001644,-0.004023,0.600407,-0.189466,-0.288661,-0.721311,13.931843,-38.312868,-105.313942
30656,7.004709,1.902278,7.007141,-0.130018,-0.994511,0.226163,-0.193366,-0.255535,-0.789521,0.070032,0.018814,0.070143,0.999991,-0.000967,-0.001278,-0.003948,0.596978,-0.189821,-0.289516,-0.723716,14.202324,-38.347026,-105.923761
30657,7.316295,3.326538,6.568444,1.182614,-1.674070,0.362640,-0.023379,-0.097058,-0.473307,0.073210,0.033100,0.065716,0.999997,-0.000117,-0.000485,-0.002367,0.595079,-0.189544,-0.290204,-0.725076,14.413607,-38.334899,-106.281233
30658,6.682262,4.045318,6.764375,1.983434,-1.159723,0.261786,0.099074,0.067568,-0.061644,0.066858,0.040399,0.067641,1.000000,0.000495,0.000338,-0.000308,0.595023,-0.188910,-0.290461,-0.725185,14.495991,-38.290655,-106.317609
30659,6.562600,3.348877,6.776640,1.326958,-0.982224,0.060507,0.143833,0.186054,0.229162,0.065651,0.033515,0.067729,0.999999,0.000719,0.000930,0.001146,0.596237,-0.188128,-0.290249,-0.724476,14.463422,-38.221389,-106.126905
30660,6.232573,2.077527,7.107546,0.141577,-0.382046,-0.142515,0.214535,0.327067,0.364931,0.062404,0.020813,0.070996,0.999996,0.001073,0.001635,0.001825,0.598209,-0.186827,-0.289747,-0.723387,14.396755,-38.094072,-105.815084
30661,5.295537,1.502599,8.124209,-0.295292,1.022283,-0.057127,0.247087,0.372716,0.372841,0.053079,0.015025,0.081162,0.999996,0.001235,0.001864,0.001864,0.600302,-0.185267,-0.289214,-0.722266,14.341516,-37.941407,-105.490360
30662,4.761343,1.258505,8.612915,-0.465838,1.744035,-0.056776,0.203413,0.269548,0.287689,0.047711,0.012566,0.086078,0.999998,0.001017,0.001348,0.001438,0.601894,-0.184093,-0.288913,-0.721362,14.310231,-37.834626,-105.244643
30663,5.729171,1.058211,7.852482,-0.806452,0.524692,-0.082374,0.145382,0.191369,0.139520,0.057359,0.010565,0.078478,0.999999,0.000727,0.000957,0.000698,0.602784,-0.183153,-0.288769,-0.720915,14.318709,-37.749195,-105.117445
30664,6.012261,1.760952,7.373105,-0.148631,-0.086605,-0.138945,0.180371,0.198904,0.057825,0.060191,0.017560,0.073687,0.999999,0.000902,0.000995,0.000289,0.603420,-0.181970,-0.288806,-0.720667,14.381576,-37.649066,-105.046236
30665,6.331926,2.855500,7.139297,0.861202,-0.608708,0.092084,0.241631,0.235788,0.139549,0.063383,0.028513,0.071353,0.999998,0.001208,0.001179,0.000698,0.604460,-0.180580,-0.288874,-0.720119,14.440678,-37.539156,-104.911129
30666,6.660814,3.319475,6.813221,1.270354,-1.127393,0.133192,0.370038,0.314669,0.411002,0.066647,0.033206,0.068089,0.999995,0.001850,0.001573,0.002055,0.606701,-0.178916,-0.288923,-0.718628,14.449472,-37.425367,-104.572126
30667,6.580172,3.431978,6.781484,1.406688,-1.107932,0.079701,0.492217,0.437207,0.741693,0.065822,0.034397,0.067756,0.999988,0.002461,0.002186,0.003708,0.610407,-0.176908,-0.288736,-0.716058,14.376054,-37.289640,-103.981069
30668,6.276630,2.758958,6.879391,0.815499,-0.768654,-0.164992,0.600382,0.547540,0.996535,0.062817,0.027696,0.068705,0.999979,0.003002,0.002738,0.004983,0.615260,-0.174544,-0.288367,-0.712625,14.247184,-37.128868,-103.194054
30669,6.031165,2.086582,7.303668,0.174737,-0.288310,-0.119465,0.688317,0.637003,1.108378,0.060428,0.020949,0.072916,0.999974,0.003442,0.003185,0.005542,0.620688,-0.171736,-0.287924,-0.708769,14.116175,-36.931828,-102.316108
30670,5.338295,1.637701,7.608841,-0.174092,0.434440,-0.386409,0.742337,0.664579,1.126538,0.053543,0.016396,0.075971,0.999972,0.003712,0.003323,0.005633,0.626233,-0.168688,-0.287557,-0.704760,14.009426,-36.721384,-101.423305
30671,5.748997,1.805328,7.409652,-0.049175,-0.058738,-0.262445,0.793240,0.681452,1.112207,0.057642,0.018080,0.073972,0.999971,0.003966,0.003407,0.005561,0.631759,-0.165383,-0.287310,-0.700701,13.940974,-36.497643,-100.540759
30672,5.804216,2.253446,7.313838,0.397682,-0.215733,-0.218191,0.841903,0.750642,1.145200,0.058187,0.022560,0.073015,0.999968,0.004209,0.003753,0.005726,0.637502,-0.161727,-0.286973,-0.696479,13.884164,-36.240033,-99.626312
30673,5.741545,2.442376,7.383815,0.584649,-0.166229,-0.164802,0.860599,0.802622,1.177804,0.057568,0.024445,0.073712,0.999965,0.004303,0.004013,0.005889,0.643405,-0.157858,-0.286488,-0.692124,13.825724,-35.956430,-98.684422
30674,5.634167,2.378678,7.713771,0.487270,0.076824,0.018930,0.868743,0.829986,1.205602,0.056518,0.023792,0.077007,0.999964,0.004344,0.004150,0.006028,0.649405,-0.153905,-0.285902,-0.687639,13.763626,-35.661406,-97.722312
30675,5.504944,2.044865,7.750288,0.167558,0.154204,-0.091536,0.859522,0.830243,1.199194,0.055248,0.020447,0.077362,0.999964,0.004298,0.004151,0.005996,0.655328,-0.149953,-0.285268,-0.683141,13.705756,-35.363760,-96.768897
30676,5.512490,1.726608,7.673864,-0.133098,0.045249,-0.208683,0.884009,0.849470,1.207435,0.055346,0.017261,0.076580,0.999963,0.004420,0.004247,0.006037,0.661279,-0.145863,-0.284628,-0.678543,13.662530,-35.056632,-95.810151
30677,5.305516,1.955217,7.914350,0.062414,0.307488,-0.091081,0.873521,0.868487,1.186164,0.053283,0.019522,0.078998,0.999963,0.004368,0.004342,0.005931,0.667128,-0.141695,-0.283884,-0.673998,13.627007,-34.734723,-94.867076
30678,5.241522,1.744155,7.759477,-0.114780,0.204370,-0.290614,0.827431,0.887785,1.124355,0.052661,0.017417,0.077433,0.999966,0.004137,0.004439,0.005622,0.672717,-0.137526,-0.282944,-0.669687,13.593075,-34.394046,-93.966228
30679,5.404636,1.967510,7.965741,0.050115,0.140475,0.011347,0.833608,0.923937,1.077233,0.054308,0.019636,0.079489,0.999966,0.004168,0.004620,0.005386,0.678158,-0.133131,-0.281916,-0.665508,13.584734,-34.025828,-93.095606
30680,5.250146,2.183013,7.994011,0.257897,0.239489,-0.009136,0.779870,0.933546,1.046366,0.052760,0.021794,0.079779,0.999968,0.003899,0.004668,0.005232,0.683430,-0.128842,-0.280680,-0.661470,13.562454,-33.648705,-92.247641
30681,5.442085,1.547280,8.050360,-0.382890,-0.014758,0.019473,0.745868,0.950625,0.986926,0.054727,0.015443,0.080302,0.999970,0.003729,0.004753,0.004935,0.688463,-0.124513,-0.279292,-0.657655,13.548715,-33.253075,-91.440982
30682,5.400825,1.458365,7.986207,-0.455958,-0.098338,-0.073221,0.760593,0.959707,0.929645,0.054323,0.014532,0.079657,0.999970,0.003803,0.004798,0.004648,0.693290,-0.120024,-0.277942,-0.653981,13.569378,-32.845523,-90.674168
30683,5.296868,1.767642,7.983927,-0.158428,-0.051917,-0.071220,0.761384,0.985670,0.855848,0.053286,0.017601,0.079644,0.999971,0.003807,0.004928,0.004279,0.697872,-0.115330,-0.276532,-0.650541,13.621759,-32.413222,-89.955707
30684,5.268475,1.791712,7.639406,-0.059876,-0.280471,-0.365738,0.730495,1.022308,0.777931,0.053005,0.017844,0.076189,0.999973,0.003652,0.005111,0.003890,0.702195,-0.110519,-0.274924,-0.647399,13.686292,-31.951365,-89.285286
30685,5.944044,1.215191,6.974096,-0.451258,-1.357267,-0.680336,0.763843,1.141567,0.696905,0.059795,0.012094,0.069447,0.999970,0.003819,0.005708,0.003484,0.706397,-0.105079,-0.273033,-0.644526,13.794873,-31.412241,-88.651986
30686,5.354413,2.498269,7.996286,0.511859,-0.251418,0.113315,0.954352,1.306705,0.677320,0.053981,0.024784,0.079730,0.999962,0.004772,0.006533,0.003387,0.710815,-0.098408,-0.271166,-0.641504,14.011433,-30.780829,-88.006635
30687,3.348000,3.715268,9.522326,1.194018,2.309424,0.624120,0.823813,1.227261,0.684205,0.033938,0.036876,0.095168,0.999967,0.004119,0.006136,0.003421,0.715031,-0.092451,-0.269140,-0.638551,14.164900,-30.195713,-87.371781
30688,3.262274,2.486950,9.425836,-0.005433,2.044448,0.261700,0.633406,1.005786,0.653058,0.033016,0.024679,0.094171,0.999977,0.003167,0.005029,0.003265,0.718723,-0.087841,-0.267297,-0.635825,14.242553,-29.730943,-86.794483
30689,4.072599,1.480453,9.192956,-0.895831,0.976376,0.263615,0.588008,0.829804,0.509486,0.041070,0.014639,0.091803,0.999984,0.002940,0.004149,0.002547,0.721674,-0.083750,-0.265993,-0.633577,14.358750,-29.343550,-86.339391
30690,4.750900,1.282812,8.886785,-0.984654,0.135539,0.296874,0.557418,0.735122,0.329871,0.047814,0.012659,0.088728,0.999988,0.002787,0.003676,0.001649,0.723898,-0.079837,-0.265004,-0.631958,14.522670,-28.984857,-86.014088
30691,4.912499,1.895507,8.564009,-0.320825,-0.104972,0.234873,0.554610,0.709551,0.219518,0.049408,0.018772,0.085517,0.999989,0.002773,0.003548,0.001098,0.725722,-0.075858,-0.264133,-0.630720,14.723016,-28.624361,-85.762986
30692,4.915669,2.565043,8.070352,0.437559,-0.261461,-0.034464,0.527373,0.712213,0.213186,0.049417,0.025490,0.080595,0.999990,0.002637,0.003561,0.001066,0.727504,-0.071969,-0.263167,-0.629525,14.909931,-28.263132,-85.514580
30693,5.813908,1.787946,6.879045,0.090991,-1.787751,-0.806313,0.524883,0.831010,0.198859,0.058407,0.017757,0.068595,0.999987,0.002624,0.004155,0.000994,0.729379,-0.067685,-0.261757,-0.628418,15.092243,-27.833850,-85.255126
30694,6.116046,1.886837,6.943241,0.175177,-2.089574,-0.605250,0.707196,1.115926,0.143551,0.061533,0.018668,0.069156,0.999978,0.003536,0.005580,0.000718,0.731490,-0.061775,-0.259893,-0.627345,15.373641,-27.240552,-84.980720
30695,3.114417,3.976257,9.210804,1.205528,1.839095,0.459231,0.768863,1.214931,0.192841,0.031665,0.039439,0.092069,0.999974,0.003844,0.006075,0.000964,0.733867,-0.055383,-0.257832,-0.626014,15.671294,-26.600762,-84.657250
30696,1.879336,3.887535,10.020438,0.717845,3.149873,0.609219,0.631965,0.979600,0.323137,0.019222,0.038589,0.100233,0.999982,0.003160,0.004898,0.001616,0.736280,-0.050403,-0.256159,-0.624287,15.874588,-26.112920,-84.292662
30697,3.424868,2.246929,9.052360,-0.428303,0.956264,0.067864,0.534279,0.766617,0.313282,0.034560,0.022282,0.090451,0.999988,0.002671,0.003833,0.001566,0.738340,-0.046423,-0.254959,-0.622651,16.043961,-25.740996,-83.971381
30698,4.320288,1.630454,8.631687,-0.816476,-0.216056,-0.059972,0.550143,0.764781,0.163952,0.043519,0.016103,0.086195,0.999989,0.002751,0.003824,0.000820,0.739921,-0.042209,-0.253845,-0.621529,16.262792,-25.348184,-83.740766
30699,4.361191,2.250890,8.775710,-0.300923,-0.135803,0.236692,0.511198,0.775777,0.061302,0.043945,0.022298,0.087644,0.999989,0.002556,0.003879,0.000307,0.741172,-0.037963,-0.252583,-0.620826,16.486786,-24.932588,-83.569949
30700,5.146328,1.881073,8.091023,-0.367477,-1.257840,-0.129194,0.478305,0.792974,0.016302,0.051782,0.018622,0.080750,0.999989,0.002392,0.003965,0.000082,0.742283,-0.033738,-0.251160,-0.620320,16.701931,-24.501748,-83.421741
30701,5.813289,1.742646,7.476202,-0.242709,-2.199608,-0.441093,0.522625,0.958501,-0.056801,0.058495,0.017215,0.074527,0.999985,0.002613,0.004792,-0.000284,0.743363,-0.028734,-0.249265,-0.620043,16.949425,-23.967679,-83.286351
30702,4.461518,2.351029,8.428276,-0.161721,-0.601417,-0.010683,0.629111,1.124861,-0.123806,0.045103,0.023218,0.084103,0.999979,0.003146,0.005624,-0.000619,0.744432,-0.022743,-0.247084,-0.619882,17.261417,-23.332700,-83.157889
30703,2.407650,3.722815,9.892897,0.356625,1.972240,0.841296,0.626662,1.032431,-0.099001,0.024605,0.036906,0.098919,0.999982,0.003133,0.005162,-0.000495,0.745433,-0.017069,-0.245226,-0.619599,17.573611,-22.752467,-83.029010
30704,2.264063,3.045397,9.620298,-0.242353,1.758948,0.375402,0.553299,0.794969,-0.049016,0.023030,0.030182,0.096196,0.999988,0.002766,0.003975,-0.000245,0.746270,-0.012473,-0.244015,-0.619179,17.849014,-22.311859,-82.912410
30705,3.401407,2.684294,8.926833,-0.248078,0.326406,0.101677,0.575374,0.738302,-0.111812,0.034358,0.026567,0.089219,0.999989,0.002877,0.003691,-0.000559,0.746827,-0.007884,-0.243080,-0.618950,18.155730,-21.890645,-82.841776
30706,2.983953,3.037118,9.080104,-0.062798,0.761121,0.186934,0.520427,0.739128,-0.180274,0.030202,0.030108,0.090768,0.999989,0.002602,0.003696,-0.000901,0.747156,-0.003423,-0.241971,-0.619029,18.444750,-21.457929,-82.808660
30707,3.451595,2.457657,8.572113,-0.399783,-0.040353,-0.259014,0.483245,0.731557,-0.205141,0.034854,0.024334,0.085653,0.999990,0.002416,0.003658,-0.001026,0.747381,0.000915,-0.240769,-0.619234,18.718334,-21.023960,-82.789575
30708,3.825964,2.579919,8.472907,-0.241149,-0.471158,-0.179244,0.522505,0.823193,-0.259759,0.038641,0.025528,0.084637,0.999987,0.002613,0.004116,-0.001299,0.747531,0.005740,-0.239342,-0.619580,19.017914,-20.531265,-82.781506
30709,3.427109,2.320369,8.530412,-0.584378,-0.234243,-0.352246,0.528746,0.852652,-0.279420,0.034667,0.022930,0.085218,0.999986,0.002644,0.004263,-0.001397,0.747635,0.010712,-0.237815,-0.619976,19.322650,-20.018027,-82.776336
30710,4.778277,1.450899,7.552519,-0.901394,-2.060698,-1.042416,0.612948,0.949754,-0.343448,0.048165,0.014195,0.075341,0.999983,0.003065,0.004749,-0.001717,0.747629,0.016366,-0.236178,-0.620486,19.679784,-19.441085,-82.784840
30711,5.739641,1.158224,6.660877,-0.760866,-3.374470,-1.646615,0.712963,1.263660,-0.539863,0.057846,0.011190,0.066285,0.999970,0.003565,0.006318,-0.002699,0.747340,0.023607,-0.233648,-0.621558,20.108613,-18.655877,-82.836477
30712,5.294789,2.298927,6.828826,0.131265,-2.797316,-1.321051,0.723698,1.703706,-0.770635,0.053615,0.022537,0.067916,0.999950,0.003618,0.008518,-0.003853,0.746788,0.032515,-0.229464,-0.623376,20.552223,-17.588771,-82.919685
30713,2.939034,4.279455,8.915535,0.825567,0.164244,0.469583,0.730839,2.040573,-0.884490,0.030487,0.042336,0.089003,0.999931,0.003654,0.010203,-0.004422,0.746176,0.042632,-0.223998,-0.625483,20.993719,-16.317068,-82.986053
30714,-4.234211,7.228823,14.008837,0.643710,8.491174,4.112471,0.675989,1.619702,-0.555614,-0.041004,0.071929,0.140668,0.999958,0.003380,0.008098,-0.002778,0.746051,0.050850,-0.219976,-0.626444,21.374383,-15.338299,-82.950397
30715,-2.486701,3.859944,12.059690,-1.535562,5.564592,1.728346,0.598537,0.523460,-0.007460,-0.024550,0.038239,0.120776,0.999992,0.002993,0.002617,-0.000037,0.746419,0.054749,-0.219926,-0.625694,21.693223,-15.058343,-82.844960
30716,4.265872,2.230474,8.653621,-0.921888,-1.960881,-0.150262,0.803027,0.292334,0.025497,0.042782,0.021963,0.086562,0.999991,0.004015,0.001462,0.000127,0.746568,0.058642,-0.221387,-0.624648,22.137165,-14.909928,-82.770602
30717,3.754548,4.639222,9.599653,0.754983,-0.837451,1.434542,0.677324,0.584540,-0.247494,0.037883,0.046020,0.096042,0.999989,0.003387,0.002923,-0.001237,0.746209,0.063288,-0.221275,-0.624664,22.530833,-14.546547,-82.779104
30718,0.486833,3.839056,10.622734,-0.836733,2.248207,1.235518,0.409656,0.447728,-0.190027,0.005143,0.038168,0.106294,0.999995,0.002048,0.002239,-0.000950,0.745951,0.066435,-0.220857,-0.624792,22.770144,-14.269343,-82.785243
30719,2.767974,2.501925,8.790634,-1.053616,-0.595934,-0.340040,0.555048,0.240593,-0.064850,0.027794,0.024766,0.087942,0.999995,0.002775,0.001203,-0.000324,0.745800,0.069348,-0.221699,-0.624358,23.087762,-14.128080,-82.769617
30720,3.913790,4.121711,8.313227,0.694179,-1.482178,0.123951,0.637767,0.443101,-0.188492,0.039361,0.040915,0.083176,0.999992,0.003189,0.002215,-0.000942,0.745449,0.073328,-0.222005,-0.624213,23.457034,-13.853611,-82.772890
30721,1.560176,4.554196,9.419553,0.283713,1.000729,0.714440,0.403207,0.555921,-0.212079,0.015912,0.045335,0.094243,0.999994,0.002016,0.002780,-0.001060,0.745225,0.076820,-0.221141,-0.624368,23.688607,-13.513337,-82.760882
30722,1.718580,3.380544,9.034994,-0.620136,0.479782,-0.045518,0.437046,0.497034,-0.149136,0.017435,0.033595,0.090380,0.999994,0.002185,0.002485,-0.000746,0.745110,0.080175,-0.220629,-0.624264,23.934357,-13.219682,-82.727464
30723,1.718754,4.384090,9.324296,0.117517,0.674705,0.610719,0.441421,0.512006,-0.172387,0.017464,0.043620,0.093295,0.999994,0.002207,0.002560,-0.000862,0.744928,0.083626,-0.220057,-0.624231,24.184839,-12.911678,-82.701732
30724,1.595044,3.873430,9.366206,-0.402472,0.636048,0.419936,0.296103,0.493807,-0.182024,0.016217,0.038581,0.093679,0.999995,0.001481,0.002469,-0.000910,0.744750,0.086480,-0.219098,-0.624392,24.353729,-12.612232,-82.684384
30725,2.261699,3.368974,8.966158,-0.618477,-0.227850,0.006810,0.303640,0.501909,-0.200965,0.022876,0.033531,0.089655,0.999995,0.001518,0.002510,-0.001005,0.744510,0.089417,-0.218116,-0.624608,24.528910,-12.302816,-82.674330
30726,2.132452,4.091060,9.372006,-0.189223,0.039848,0.631489,0.267848,0.549973,-0.245864,0.021632,0.040759,0.093716,0.999995,0.001339,0.002750,-0.001229,0.744192,0.092409,-0.216828,-0.625000,24.685694,-11.958986,-82.675526
30727,1.423348,3.988229,9.601210,-0.486665,0.674471,0.647860,0.205911,0.511138,-0.215004,0.014522,0.039768,0.096016,0.999996,0.001030,0.002556,-0.001075,0.743948,0.095025,-0.215496,-0.625358,24.805663,-11.641471,-82.669007
30728,1.785365,3.858441,9.222651,-0.404451,0.191879,0.332840,0.200713,0.461869,-0.188492,0.018103,0.038475,0.092224,0.999996,0.001004,0.002309,-0.000942,0.743732,0.097428,-0.214349,-0.625640,24.921905,-11.357262,-82.659855
30729,2.138508,3.661459,8.983839,-0.441603,-0.273935,0.107925,0.159434,0.482124,-0.234994,0.021645,0.036518,0.089816,0.999996,0.000797,0.002411,-0.001175,0.743405,0.099800,-0.212965,-0.626127,25.018462,-11.049954,-82.669806
30730,1.999811,3.393290,8.906780,-0.672204,-0.257511,-0.100533,0.151490,0.519431,-0.297388,0.020280,0.033835,0.089041,0.999995,0.000757,0.002597,-0.001487,0.742921,0.102315,-0.211393,-0.626827,25.114586,-10.709471,-82.702971
30731,2.017703,3.564557,8.883673,-0.516050,-0.307693,-0.048699,0.146248,0.569439,-0.376898,0.020497,0.035542,0.088805,0.999994,0.000731,0.002847,-0.001884,0.742235,0.105059,-0.209567,-0.627799,25.212907,-10.322314,-82.765036
30732,1.533560,3.805309,8.941416,-0.392934,0.146757,0.016083,0.085046,0.610868,-0.441591,0.015693,0.037981,0.089383,0.999993,0.000425,0.003054,-0.002208,0.741412,0.107763,-0.207367,-0.629042,25.279660,-9.899105,-82.850245
30733,1.695405,3.634570,8.600424,-0.374215,-0.152715,-0.331763,0.053913,0.658587,-0.515833,0.017331,0.036278,0.085957,0.999991,0.000270,0.003293,-0.002579,0.740410,0.110586,-0.204841,-0.630559,25.332451,-9.431606,-82.962010
30734,0.867843,4.467419,9.236487,-0.012626,0.783288,0.454214,0.028047,0.723260,-0.573226,0.009140,0.044635,0.092339,0.999989,0.000140,0.003616,-0.002866,0.739293,0.113565,-0.201965,-0.632265,25.371564,-8.917754,-83.087303
30735,0.411372,3.788782,9.191349,-0.642743,1.025059,0.063579,-0.014770,0.615627,-0.494190,0.004490,0.037884,0.091897,0.999992,-0.000074,0.003078,-0.002471,0.738327,0.115972,-0.199386,-0.633774,25.382878,-8.477636,-83.197507
30736,1.888693,3.571851,8.150657,-0.200810,-0.619802,-0.738901,0.097630,0.627445,-0.483544,0.019229,0.035633,0.081464,0.999992,0.000488,0.003137,-0.002418,0.737331,0.118811,-0.197130,-0.635112,25.456428,-8.035278,-83.298795
30737,2.114612,4.787301,7.997641,0.976019,-0.737874,-0.333542,-0.007720,0.848349,-0.614888,0.021632,0.047810,0.079883,0.999986,-0.000039,0.004242,-0.003074,0.736181,0.122098,-0.193634,-0.636895,25.470469,-7.444853,-83.413210
30738,1.570395,4.457375,8.025220,0.628569,-0.359570,-0.527598,-0.257965,1.056106,-0.719356,0.016288,0.044619,0.080110,0.999979,-0.001290,0.005280,-0.003597,0.735028,0.125214,-0.188514,-0.639154,25.340273,-6.722703,-83.531133
30739,1.343638,3.919979,7.963711,0.187457,-0.341237,-0.843894,-0.332403,1.217218,-0.784147,0.014074,0.039278,0.079488,0.999972,-0.001662,0.006086,-0.003921,0.733829,0.128634,-0.182507,-0.641591,25.165468,-5.900268,-83.644928
30740,1.203873,3.745969,7.959852,0.061017,-0.359800,-0.941054,-0.378663,1.353632,-0.890945,0.012744,0.037554,0.079443,0.999965,-0.001893,0.006768,-0.004455,0.732397,0.132404,-0.175779,-0.644333,24.964732,-4.982759,-83.783698
30741,0.779432,4.028497,8.465572,0.101030,-0.035327,-0.405864,-0.400535,1.481232,-1.023834,0.008627,0.040412,0.084513,0.999957,-0.002003,0.007406,-0.005119,0.730607,0.136619,-0.168405,-0.647448,24.752449,-3.966191,-83.964016
30742,-0.006496,3.978344,8.915012,-0.156330,0.579990,-0.068918,-0.522255,1.496697,-1.101578,0.000822,0.040013,0.089042,0.999953,-0.002611,0.007483,-0.005508,0.728596,0.140485,-0.160519,-0.650880,24.469583,-2.925022,-84.185410
30743,-0.043093,3.334055,8.824849,-0.641415,0.377658,-0.408472,-0.444648,1.443740,-1.134483,0.000396,0.033536,0.088173,0.999955,-0.002223,0.007219,-0.005672,0.726315,0.144483,-0.153033,-0.654349,24.228713,-1.903497,-84.441034
30744,-0.207113,4.299433,8.928130,0.232451,0.472635,0.084756,-0.403848,1.419110,-1.155222,-0.001189,0.043183,0.089205,0.999956,-0.002019,0.007095,-0.005776,0.723854,0.148543,-0.145749,-0.657820,24.007125,-0.892282,-84.717279
30745,-0.296255,4.104846,8.656110,0.215288,0.382854,-0.238224,-0.439132,1.389600,-1.149311,-0.002125,0.041252,0.086487,0.999957,-0.002196,0.006948,-0.005746,0.721353,0.152370,-0.138440,-0.661262,23.760570,0.102262,-85.001283
30746,-0.523441,4.358508,8.824688,0.418015,0.457981,0.023906,-0.442539,1.391187,-1.130232,-0.004374,0.043807,0.088183,0.999957,-0.002213,0.006956,-0.005651,0.718858,0.156155,-0.131124,-0.664578,23.507179,1.090711,-85.279290
30747,-0.967111,4.034184,8.942071,0.100252,0.708176,0.018718,-0.476736,1.349223,-1.087539,-0.008848,0.040605,0.089386,0.999960,-0.002384,0.006746,-0.005438,0.716444,0.159646,-0.123860,-0.667743,23.229767,2.047428,-85.548998
30748,-1.107427,3.614634,8.816309,-0.183820,0.676764,-0.245804,-0.468938,1.296400,-1.098123,-0.010303,0.036411,0.088146,0.999961,-0.002345,0.006482,-0.005491,0.713900,0.162973,-0.116801,-0.670928,22.951348,2.976023,-85.841007
30749,-1.155959,3.371933,8.762107,-0.328009,0.568027,-0.376149,-0.482872,1.288948,-1.168634,-0.010797,0.033995,0.087610,0.999959,-0.002414,0.006445,-0.005843,0.711068,0.166263,-0.109646,-0.674327,22.657603,3.916296,-86.176825
30750,-1.098574,3.215941,8.674959,-0.369450,0.361088,-0.510281,-0.557783,1.332765,-1.322859,-0.010194,0.032470,0.086729,0.999952,-0.002789,0.006664,-0.006614,0.707741,0.169495,-0.101954,-0.678218,22.309232,4.910243,-86.590611
30751,-1.357480,2.996063,8.724206,-0.530612,0.447785,-0.515056,-0.675908,1.408471,-1.534159,-0.012729,0.030355,0.087232,0.999940,-0.003379,0.007042,-0.007671,0.703758,0.172664,-0.093394,-0.682781,21.875854,5.988558,-87.108091
30752,-1.666632,2.374310,8.764112,-1.049958,0.577971,-0.659269,-0.755359,1.461073,-1.733318,-0.015817,0.024214,0.087668,0.999929,-0.003777,0.007305,-0.008666,0.699098,0.175795,-0.084203,-0.687945,21.374937,7.131232,-87.731090
30753,-1.272776,2.355811,8.622115,-0.903684,0.029355,-0.829956,-0.874823,1.588564,-2.035157,-0.011800,0.024058,0.086213,0.999907,-0.004374,0.007943,-0.010175,0.693441,0.179053,-0.073866,-0.693990,20.772261,8.399784,-88.503130
30754,-2.510848,1.532748,9.344052,-1.840648,0.979229,-0.241218,-0.998924,1.666605,-2.369698,-0.024142,0.016084,0.093565,0.999883,-0.004994,0.008333,-0.011848,0.686620,0.182229,-0.062523,-0.701025,20.052074,9.766650,-89.458726
30755,-4.552313,0.394828,10.199724,-3.075414,2.722837,0.581382,-0.730127,1.396241,-2.453325,-0.044754,0.004874,0.102295,0.999894,-0.003651,0.006981,-0.012266,0.679021,0.185373,-0.052948,-0.708353,19.442787,10.994465,-90.533152
30756,-3.869622,2.588975,10.300160,-0.912592,1.701112,1.324616,-0.434376,1.029557,-2.356094,-0.037855,0.026563,0.103141,0.999915,-0.002172,0.005148,-0.011780,0.671267,0.188154,-0.045757,-0.715476,18.976347,11.993987,-91.640192
30757,-2.418366,3.615838,9.564768,0.358729,0.146549,0.687519,-0.464647,0.881827,-2.219431,-0.023357,0.036643,0.095667,0.999926,-0.002323,0.004409,-0.011097,0.663887,0.190250,-0.039059,-0.722173,18.481705,12.880909,-92.711594
30758,-1.504181,3.819810,9.444758,0.634147,-0.922999,0.424465,-0.686228,1.004449,-2.292787,-0.014126,0.038687,0.094388,0.999916,-0.003431,0.005022,-0.011464,0.656374,0.192031,-0.031094,-0.728924,17.836760,13.835400,-93.814426
30759,-3.709966,1.138691,10.095441,-1.854198,1.274443,0.766181,-0.758256,1.007111,-2.357368,-0.036450,0.012202,0.101094,0.999911,-0.003791,0.005035,-0.011786,0.648579,0.193569,-0.022776,-0.735771,17.119079,14.791392,-94.969464
30760,-4.474964,1.844692,10.760404,-1.202311,1.606464,1.814227,-0.430284,0.707905,-2.301885,-0.044150,0.019189,0.107720,0.999925,-0.002151,0.003539,-0.011509,0.640531,0.195024,-0.016699,-0.742567,16.563962,15.559845,-96.159858
30761,-3.125107,2.495724,10.409983,-0.504977,0.137808,1.326717,-0.476510,0.511359,-2.385406,-0.030682,0.025574,0.104118,0.999923,-0.002382,0.002557,-0.011927,0.632103,0.195585,-0.010978,-0.749715,15.941576,16.223613,-97.443244
30762,-4.130695,0.127121,10.588478,-2.550607,1.424624,1.171725,-0.472008,0.385392,-2.543282,-0.041080,0.002045,0.105960,0.999915,-0.002360,0.001927,-0.012716,0.622970,0.195658,-0.005533,-0.757361,15.274200,16.826397,-98.849415
30763,-4.705040,1.653194,11.068413,-1.060173,1.438855,2.195009,0.033110,0.068727,-2.394276,-0.046810,0.017075,0.110703,0.999928,0.000166,0.000344,-0.011971,0.613798,0.196075,-0.003114,-0.764720,14.891218,17.221272,-100.228427
30764,-3.027167,3.891460,10.690816,0.941321,-0.679925,1.902751,-0.005859,-0.117783,-2.269584,-0.029890,0.039258,0.106889,0.999935,-0.000029,-0.000589,-0.011348,0.605057,0.195626,-0.001258,-0.771774,14.491262,17.483751,-101.568404
30765,-2.666822,1.428713,10.261407,-1.241394,-0.317360,0.808400,-0.029512,-0.140087,-2.306318,-0.026573,0.014609,0.102593,0.999933,-0.000148,-0.000700,-0.011531,0.596114,0.194998,0.000676,-0.778860,14.061975,17.731632,-102.937227
30766,-3.177436,2.335134,10.768944,-0.399589,-0.263600,1.645484,0.257760,-0.162643,-2.248916,-0.031598,0.023569,0.107694,0.999936,0.001289,-0.000813,-0.011244,0.587039,0.195108,0.001350,-0.785695,13.801703,17.949336,-104.278791
30767,-2.544804,3.951098,10.362188,1.083953,-1.305105,1.438252,0.334783,-0.264679,-2.012108,-0.025187,0.039592,0.103655,0.999947,0.001674,-0.001323,-0.010060,0.578748,0.195025,0.001210,-0.791843,13.617795,18.074848,-105.498855
30768,-1.355017,6.340645,9.851696,3.110795,-3.130726,1.124255,0.335602,-0.165507,-1.503982,-0.013155,0.063341,0.098612,0.999970,0.001678,-0.000828,-0.007520,0.572421,0.195321,0.000838,-0.796356,13.530305,18.182796,-106.407856
30769,-2.028737,6.377342,10.153603,3.212990,-2.667531,1.608454,-0.009098,0.006499,-1.033455,-0.019954,0.063882,0.101534,0.999987,-0.000045,0.000032,-0.005167,0.568276,0.195312,0.001888,-0.799320,13.335873,18.323303,-107.017864
30770,-3.177492,3.269572,10.428987,0.637707,-0.641029,1.533348,-0.166210,0.035100,-0.817228,-0.031622,0.032912,0.104268,0.999991,-0.000831,0.000176,-0.004086,0.565138,0.194965,0.003419,-0.801621,13.092409,18.447770,-107.497551
30771,-4.005616,0.832066,10.849895,-1.430864,0.865169,1.661696,-0.086625,-0.073251,-0.888841,-0.040058,0.008546,0.108481,0.999990,-0.000433,-0.000366,-0.004444,0.561625,0.194407,0.004409,-0.804216,12.874467,18.520426,-108.035137
30772,-4.407508,-0.125720,10.962626,-2.171165,1.557052,1.697418,0.120739,-0.263825,-1.104784,-0.044226,-0.001079,0.109567,0.999984,0.000604,-0.001319,-0.005524,0.557033,0.193651,0.004226,-0.807586,12.727451,18.511096,-108.725574
30773,-3.897522,0.511832,10.676207,-1.625249,0.945372,1.407772,0.314137,-0.424632,-1.289587,-0.039168,0.005203,0.106687,0.999976,0.001571,-0.002123,-0.006448,0.551486,0.192776,0.003009,-0.811598,12.649193,18.435189,-109.546380
30774,-3.579145,2.133196,10.241415,-0.115337,0.147520,1.242279,0.439646,-0.523241,-1.379423,-0.035912,0.021354,0.102367,0.999970,0.002198,-0.002616,-0.006897,0.545427,0.191832,0.001081,-0.815909,12.624903,18.313376,-110.432275
30775,-1.918831,3.432439,9.033452,0.865894,-1.584750,-0.127361,0.491508,-0.517631,-1.259855,-0.019206,0.034223,0.090369,0.999974,0.002458,-0.002588,-0.006299,0.539774,0.191044,-0.001141,-0.819845,12.653166,18.181059,-111.246749
30776,-1.314757,6.056734,8.270846,3.185352,-3.063221,-0.469803,0.524576,-0.237907,-0.833981,-0.012994,0.060405,0.082852,0.999987,0.002623,-0.001190,-0.004170,0.535816,0.191480,-0.003168,-0.822330,12.792708,18.151151,-111.773045
