PacketCounter,Acc_X,Acc_Y,Acc_Z,FreeAcc_E,FreeAcc_N,FreeAcc_U,Gyr_X,Gyr_Y,Gyr_Z,VelInc_X,VelInc_Y,VelInc_Z,OriInc_q0,OriInc_q1,OriInc_q2,OriInc_q3,Quat_q0,Quat_q1,Quat_q2,Quat_q3,Roll,Pitch,Yaw
32426,-4.222720,0.813958,9.114603,-0.018184,-0.153640,0.264314,0.007003,0.007551,-0.000095,-0.042224,0.008136,0.091148,1.000000,0.000035,0.000038,-0.000000,0.421458,0.215430,0.062074,-0.878698,4.608306,25.525824,-127.707203
32427,-4.186262,0.798940,9.077317,-0.038119,-0.158647,0.213985,-0.000338,0.007593,0.002781,-0.041859,0.007989,0.090775,1.000000,-0.000002,0.000038,0.000014,0.421443,0.215431,0.062044,-0.878707,4.611172,25.524536,-127.708716
32428,-4.215522,0.808928,9.060315,-0.009330,-0.139016,0.212026,0.004821,0.006652,0.002029,-0.042152,0.008087,0.090605,1.000000,0.000024,0.000033,0.000010,0.421414,0.215458,0.062006,-0.878717,4.615983,25.525530,-127.711075
32429,-4.196433,0.759096,9.068452,-0.061187,-0.122608,0.207508,-0.000299,0.008009,0.005489,-0.041961,0.007590,0.090686,1.000000,-0.000001,0.000040,0.000027,0.421411,0.215462,0.061974,-0.878720,4.619628,25.524357,-127.710849
32430,-4.219489,0.750178,9.065561,-0.054944,-0.099430,0.214194,0.003729,0.006202,0.003091,-0.042192,0.007499,0.090657,1.000000,0.000019,0.000031,0.000015,0.421388,0.215485,0.061939,-0.878727,4.624093,25.525045,-127.712558
32431,-4.167622,0.756991,9.050742,-0.073958,-0.135456,0.179021,0.007062,0.002575,0.003503,-0.041675,0.007566,0.090508,1.000000,0.000035,0.000013,0.000018,0.421370,0.215480,0.061866,-0.878743,4.631290,25.520865,-127.713869
32432,-4.217393,0.811019,9.059257,-0.008490,-0.136068,0.212067,0.005613,0.003912,0.005525,-0.042172,0.008106,0.090594,1.000000,0.000028,0.000020,0.000028,0.421357,0.215497,0.061815,-0.878748,4.637447,25.520132,-127.714155
32433,-4.217263,0.857700,9.120931,0.006861,-0.182783,0.270908,0.000773,0.002652,0.002607,-0.042172,0.008576,0.091210,1.000000,0.000004,0.000013,0.000013,0.421341,0.215479,0.061770,-0.878763,4.640802,25.516041,-127.716028
32434,-4.231371,0.842699,9.064650,0.021540,-0.146493,0.225270,-0.004028,0.001808,0.002397,-0.042313,0.008428,0.090647,1.000000,-0.000020,0.000009,0.000012,0.421325,0.215466,0.061761,-0.878775,4.640537,25.514252,-127.718401
32435,-4.225416,0.823274,9.078703,-0.000705,-0.141963,0.233935,-0.007042,0.003234,-0.001684,-0.042253,0.008236,0.090787,1.000000,-0.000035,0.000016,-0.000008,0.421298,0.215433,0.061756,-0.878796,4.638275,25.510696,-127.722952
32436,-4.219598,0.803159,9.092753,-0.023144,-0.137891,0.242593,-0.018451,0.004669,0.000879,-0.042194,0.008040,0.090928,1.000000,-0.000092,0.000023,0.000004,0.421291,0.215402,0.061818,-0.878803,4.629395,25.510611,-127.726139
32437,-4.212587,0.789562,9.072951,-0.029898,-0.128585,0.220772,-0.011767,0.003222,0.003524,-0.042125,0.007900,0.090730,1.000000,-0.000059,0.000016,0.000018,0.421292,0.215361,0.061829,-0.878812,4.625854,25.506813,-127.727392
32438,-4.203804,0.828954,9.081227,-0.006325,-0.162649,0.227299,-0.017265,0.000559,0.006123,-0.042038,0.008296,0.090812,1.000000,-0.000086,0.000003,0.000031,0.421308,0.215315,0.061871,-0.878812,4.618994,25.504138,-127.727471
32439,-4.193116,0.736829,9.081508,-0.081637,-0.111628,0.216261,-0.020203,0.002819,0.007460,-0.041930,0.007376,0.090815,1.000000,-0.000101,0.000014,0.000037,0.421336,0.215256,0.061913,-0.878811,4.611691,25.499932,-127.726250
32440,-4.181063,0.697741,9.109667,-0.126620,-0.103965,0.233572,-0.013180,0.004977,0.008256,-0.041809,0.006982,0.091097,1.000000,-0.000066,0.000025,0.000041,0.421355,0.215239,0.061944,-0.878803,4.607848,25.499682,-127.724753
32441,-4.187595,0.716195,9.095442,-0.103765,-0.106564,0.224934,-0.004349,0.004010,0.006068,-0.041874,0.007163,0.090955,1.000000,-0.000022,0.000020,0.000030,0.421359,0.215217,0.061921,-0.878808,4.609264,25.496220,-127.724357
32442,-4.206717,0.773038,9.052867,-0.036011,-0.116790,0.198982,-0.003200,0.010684,0.009539,-0.042063,0.007730,0.090531,1.000000,-0.000016,0.000053,0.000048,0.421371,0.215247,0.061919,-0.878795,4.611614,25.499170,-127.721758
32443,-4.214565,0.785604,9.072376,-0.028648,-0.124150,0.220832,0.001206,0.001694,0.007065,-0.042145,0.007854,0.090724,1.000000,0.000006,0.000008,0.000035,0.421375,0.215228,0.061866,-0.878802,4.616427,25.494342,-127.720852
32444,-4.192452,0.794954,9.074810,-0.034694,-0.146310,0.214185,-0.006158,0.007136,0.009053,-0.041922,0.007950,0.090749,1.000000,-0.000031,0.000036,0.000045,0.421389,0.215235,0.061870,-0.878793,4.616872,25.495288,-127.718741
32445,-4.199012,0.813696,9.060548,-0.011846,-0.148929,0.205547,-0.006535,0.003114,0.008191,-0.041989,0.008138,0.090606,1.000000,-0.000033,0.000016,0.000041,0.421405,0.215206,0.061852,-0.878794,4.617591,25.491222,-127.717049
32446,-4.185727,0.782017,9.054813,-0.041338,-0.136508,0.192369,-0.009153,0.003172,0.005858,-0.041856,0.007823,0.090548,1.000000,-0.000046,0.000016,0.000029,0.421410,0.215189,0.061864,-0.878795,4.615364,25.490052,-127.717162
32447,-4.223269,0.796761,9.091611,-0.020758,-0.129518,0.242710,-0.009907,0.006332,0.005073,-0.042230,0.007971,0.090917,1.000000,-0.000050,0.000032,0.000025,0.421415,0.215166,0.061871,-0.878797,4.613378,25.487972,-127.717276
32448,-4.195391,0.740280,9.046308,-0.064360,-0.100446,0.185851,-0.007704,0.001836,0.003835,-0.041953,0.007405,0.090463,1.000000,-0.000039,0.000009,0.000019,0.421410,0.215146,0.061877,-0.878805,4.611401,25.486131,-127.718737
32449,-4.194117,0.792572,9.074249,-0.033567,-0.142387,0.214246,-0.007327,0.005859,0.004698,-0.041939,0.007928,0.090743,1.000000,-0.000037,0.000029,0.000023,0.421411,0.215126,0.061872,-0.878809,4.610781,25.483804,-127.719112
32450,-4.173280,0.794664,9.110564,-0.055114,-0.169267,0.238106,-0.006970,0.004073,0.003736,-0.041731,0.007949,0.091106,1.000000,-0.000035,0.000020,0.000019,0.421403,0.215117,0.061879,-0.878815,4.609246,25.483246,-127.720522
32451,-4.202512,0.803548,9.093650,-0.026100,-0.149229,0.236109,-0.015823,0.010441,0.005040,-0.042021,0.008042,0.090938,1.000000,-0.000079,0.000052,0.000025,0.421414,0.215099,0.061921,-0.878811,4.603956,25.483519,-127.720446
32452,-4.184711,0.745743,9.135689,-0.093616,-0.137906,0.262082,-0.009515,0.004963,0.006821,-0.041845,0.007460,0.091358,1.000000,-0.000048,0.000025,0.000034,0.421422,0.215090,0.061937,-0.878808,4.601823,25.483327,-127.719858
32453,-4.190135,0.770807,9.087577,-0.055286,-0.135825,0.222945,-0.009873,0.006751,0.007783,-0.041899,0.007711,0.090877,1.000000,-0.000049,0.000034,0.000039,0.421439,0.215069,0.061942,-0.878804,4.600608,25.481366,-127.718234
32454,-4.232790,0.811251,9.076350,0.003140,-0.128181,0.234120,-0.009874,0.006751,0.007784,-0.042325,0.008115,0.090765,1.000000,-0.000049,0.000034,0.000039,0.421452,0.215067,0.061963,-0.878797,4.598570,25.482151,-127.716946
32455,-4.239007,0.875552,9.124055,0.040969,-0.178439,0.284373,-0.013228,0.004577,0.005549,-0.042388,0.008760,0.091241,1.000000,-0.000066,0.000023,0.000028,0.421464,0.215030,0.061981,-0.878800,4.594782,25.479057,-127.716846
32456,-4.224303,0.712335,9.109952,-0.087481,-0.081267,0.253550,-0.006632,0.007685,0.001892,-0.042240,0.007126,0.091101,1.000000,-0.000033,0.000038,0.000009,0.421447,0.215036,0.061996,-0.878805,4.593018,25.480645,-127.719238
32457,-4.253315,0.716446,9.548792,-0.212927,-0.191481,0.661157,0.022529,0.044011,-0.023898,-0.042511,0.007159,0.095498,1.000000,0.000113,0.000220,-0.000119,0.421278,0.215239,0.061971,-0.878838,4.602567,25.501431,-127.735759
32458,-4.911148,0.583421,9.477983,0.065516,0.381697,0.871035,0.080899,0.056218,-0.047654,-0.049083,0.005808,0.094796,1.000000,0.000404,0.000281,-0.000238,0.420934,0.215628,0.061757,-0.878923,4.638517,25.533025,-127.767023
32459,-5.264528,0.669719,9.267382,0.387186,0.645871,0.840062,0.176528,-0.031663,-0.026429,-0.052659,0.006622,0.092671,1.000000,0.000883,-0.000158,-0.000132,0.420611,0.215821,0.060899,-0.879090,4.733895,25.510777,-127.789048
32460,-5.254145,0.792080,9.115514,0.517782,0.623270,0.707266,0.215470,-0.162891,0.012020,-0.052616,0.007819,0.091121,0.999999,0.001077,-0.000814,0.000060,0.420451,0.215548,0.059568,-0.879325,4.858252,25.414497,-127.794080
32461,-4.848272,0.343057,9.292963,-0.113250,0.601047,0.656716,0.271644,-0.230277,0.014762,-0.048590,0.003301,0.092878,0.999998,0.001358,-0.001151,0.000074,0.420265,0.215081,0.057830,-0.879644,5.014646,25.277118,-127.800993
32462,-5.392975,0.299921,9.959122,-0.069199,0.874173,1.482845,0.376208,-0.328997,0.029601,-0.054094,0.002804,0.099508,0.999997,0.001881,-0.001645,0.000148,0.420054,0.214418,0.055424,-0.880061,5.231590,25.085175,-127.804924
32463,-5.091124,0.640123,10.128704,-0.037691,0.457812,1.532288,0.460922,-0.489372,0.077613,-0.051161,0.006148,0.101176,0.999994,0.002305,-0.002447,0.000388,0.420008,0.213224,0.052243,-0.880568,5.506103,24.796814,-127.788770
32464,-5.319146,1.020185,10.083710,0.394131,0.473437,1.616884,0.466822,-0.644440,0.172215,-0.053525,0.009921,0.100688,0.999992,0.002334,-0.003222,0.000861,0.420403,0.211397,0.048622,-0.881027,5.803279,24.417005,-127.724793
32465,-4.093912,1.692248,9.451359,0.441466,-0.582607,0.599661,0.393676,-0.726147,0.236274,-0.041302,0.016688,0.094397,0.999991,0.001968,-0.003631,0.001181,0.421174,0.209053,0.045070,-0.881407,6.072043,23.984297,-127.628128
32466,-3.307239,1.645095,8.834975,0.186730,-0.886911,-0.279636,0.205149,-0.640709,0.234421,-0.033374,0.016321,0.088260,0.999994,0.001026,-0.003204,0.001172,0.422104,0.206700,0.042543,-0.881642,6.232568,23.602303,-127.529187
32467,-3.151136,0.966065,8.435275,-0.268024,-0.408302,-0.769566,0.137440,-0.519685,0.214152,-0.031741,0.009569,0.084277,0.999996,0.000687,-0.002598,0.001071,0.422988,0.204716,0.040576,-0.881774,6.352269,23.287973,-127.435547
32468,-2.786364,1.245513,8.352359,-0.216566,-0.787714,-0.957774,0.119111,-0.428503,0.181685,-0.028054,0.012380,0.083471,0.999997,0.000596,-0.002143,0.000908,0.423722,0.203102,0.038930,-0.881869,6.454545,23.029781,-127.356812
32469,-2.555611,1.351689,8.393837,-0.265224,-0.999201,-0.995325,0.062515,-0.321593,0.137835,-0.025700,0.013473,0.083901,0.999998,0.000313,-0.001608,0.000689,0.424302,0.201814,0.037789,-0.881936,6.517025,22.832775,-127.297928
32470,-2.562433,1.286754,8.528345,-0.344327,-0.960057,-0.873215,0.036609,-0.224918,0.108999,-0.025727,0.012838,0.085257,0.999999,0.000183,-0.001125,0.000545,0.424758,0.200908,0.037012,-0.881956,6.559398,22.695043,-127.250548
32471,-2.483643,1.462878,8.560487,-0.256899,-1.120323,-0.853374,0.015969,-0.136390,0.092985,-0.024902,0.014610,0.085589,1.000000,0.000080,-0.000682,0.000465,0.425150,0.200328,0.036514,-0.881920,6.589251,22.606144,-127.206588
32472,-2.340588,1.228107,8.276959,-0.421017,-1.002434,-1.192216,-0.037509,-0.011781,0.081880,-0.023416,0.012287,0.082766,1.000000,-0.000188,-0.000059,0.000409,0.425521,0.200199,0.036543,-0.881769,6.588367,22.591469,-127.160939
32473,-2.379100,0.919177,8.225236,-0.620259,-0.769926,-1.258040,-0.060344,0.143387,0.067068,-0.023735,0.009209,0.082267,1.000000,-0.000302,0.000717,0.000335,0.425825,0.200684,0.037002,-0.881493,6.576048,22.663328,-127.113051
32474,-2.527055,0.886830,8.409490,-0.629946,-0.699544,-1.037395,-0.068467,0.275005,0.053879,-0.025157,0.008890,0.084127,0.999999,-0.000342,0.001375,0.000269,0.426049,0.201747,0.037806,-0.881108,6.558746,22.813742,-127.064253
32475,-2.935291,0.736492,8.676684,-0.617481,-0.393249,-0.652602,-0.107199,0.377561,0.015367,-0.029190,0.007409,0.086818,0.999998,-0.000536,0.001888,0.000077,0.426127,0.203153,0.039021,-0.880694,6.513808,23.022146,-127.031703
32476,-3.136361,0.646851,8.844664,-0.644253,-0.265510,-0.431987,-0.145270,0.446082,-0.040894,-0.031165,0.006539,0.088512,0.999997,-0.000726,0.002230,-0.000204,0.425976,0.204787,0.040624,-0.880316,6.434434,23.276149,-127.029683
32477,-3.331208,0.543583,8.867551,-0.638449,-0.106803,-0.346609,-0.169110,0.501659,-0.107383,-0.033087,0.005529,0.088754,0.999996,-0.000846,0.002508,-0.000537,0.425547,0.206579,0.042500,-0.880016,6.327158,23.563017,-127.065215
32478,-3.300478,0.739227,8.766144,-0.488432,-0.279916,-0.433578,-0.196829,0.571640,-0.165107,-0.032748,0.007506,0.087748,0.999995,-0.000984,0.002858,-0.000826,0.424870,0.208627,0.044724,-0.879750,6.190194,23.896295,-127.132941
32479,-3.310726,0.993513,8.762176,-0.302975,-0.494053,-0.411229,-0.261324,0.663240,-0.217116,-0.032806,0.010085,0.087718,0.999993,-0.001307,0.003316,-0.001086,0.424011,0.210905,0.047463,-0.879478,6.005361,24.281668,-127.227952
32480,-3.958314,1.353812,9.342172,0.121106,-0.481042,0.411331,-0.317378,0.739440,-0.255649,-0.039220,0.013737,0.093545,0.999991,-0.001587,0.003697,-0.001278,0.423012,0.213408,0.050667,-0.879176,5.778338,24.715502,-127.344291
32481,-5.337724,1.821822,10.549090,0.824225,-0.196611,2.119407,-0.369574,0.662967,-0.235092,-0.053006,0.018476,0.105633,0.999992,-0.001848,0.003315,-0.001175,0.422176,0.215446,0.053899,-0.878889,5.523868,25.100992,-127.454546
32482,-6.456504,1.667045,10.720217,1.267269,0.581379,2.734990,-0.392277,0.307975,-0.148951,-0.064387,0.016929,0.107268,0.999997,-0.001961,0.001540,-0.000745,0.421830,0.215917,0.056405,-0.878782,5.268306,25.282029,-127.534114
32483,-5.198912,1.184202,9.374424,0.669546,0.319815,0.946501,-0.326484,0.120466,-0.103892,-0.051926,0.012022,0.093756,0.999998,-0.001632,0.000602,-0.000519,0.421666,0.215696,0.058160,-0.878801,5.058433,25.350510,-127.596449
32484,-5.206392,0.907087,9.043244,0.588102,0.566209,0.629680,-0.272114,0.118874,-0.086304,-0.052006,0.009216,0.090451,0.999999,-0.001361,0.000594,-0.000432,0.421515,0.215605,0.059671,-0.878794,4.883299,25.419958,-127.648440
32485,-5.242391,0.431536,9.251074,0.190011,0.812448,0.796508,-0.224864,0.062292,-0.062425,-0.052394,0.004436,0.092522,0.999999,-0.001124,0.000311,-0.000312,0.421438,0.215355,0.060812,-0.878814,4.741272,25.453061,-127.688181
32486,-4.435538,0.066059,8.983652,-0.435645,0.532244,0.182876,-0.128269,-0.002379,-0.037629,-0.044356,0.000727,0.089836,1.000000,-0.000641,-0.000012,-0.000188,0.421382,0.215050,0.061383,-0.878876,4.658852,25.450762,-127.716085
32487,-4.054277,0.396020,9.065376,-0.412278,0.020010,0.117300,-0.064956,0.018205,-0.022224,-0.040534,0.003994,0.090656,1.000000,-0.000325,0.000091,-0.000111,0.421323,0.214955,0.061686,-0.878906,4.618217,25.456836,-127.732836
32488,-4.131255,0.599339,9.209159,-0.257824,-0.099707,0.294670,-0.024818,0.009812,-0.003618,-0.041308,0.006006,0.092093,1.000000,-0.000124,0.000049,-0.000018,0.421300,0.214932,0.061792,-0.878915,4.604584,25.459893,-127.738604
32489,-4.122246,0.782455,9.158022,-0.104493,-0.209155,0.258055,-0.014142,0.011509,-0.006954,-0.041217,0.007832,0.091582,1.000000,-0.000071,0.000058,-0.000035,0.421256,0.214919,0.061842,-0.878936,4.597003,25.461414,-127.746068
32490,-4.289984,0.997889,9.141644,0.159358,-0.223585,0.330982,-0.017448,0.015569,-0.004650,-0.042892,0.009988,0.091419,1.000000,-0.000087,0.000078,-0.000023,0.421219,0.214936,0.061928,-0.878944,4.587436,25.467805,-127.752198
32491,-4.334465,0.983561,9.102309,0.187623,-0.172718,0.313614,-0.034518,0.001516,-0.011308,-0.043343,0.009854,0.091022,1.000000,-0.000173,0.000008,-0.000057,0.421180,0.214836,0.062051,-0.878978,4.566803,25.463815,-127.762915
32492,-4.288315,0.866684,9.099409,0.076498,-0.132581,0.282688,-0.047382,0.004750,-0.004014,-0.042881,0.008689,0.090993,1.000000,-0.000237,0.000024,-0.000020,0.421182,0.214742,0.062245,-0.878986,4.540022,25.463994,-127.769192
32493,-4.228729,0.718086,9.090678,-0.064016,-0.079999,0.238567,-0.045965,0.003006,-0.008747,-0.042286,0.007204,0.090906,1.000000,-0.000230,0.000015,-0.000044,0.421166,0.214625,0.062419,-0.879010,4.513595,25.460751,-127.778198
32494,-4.224603,0.642421,9.076577,-0.116782,-0.032853,0.218739,-0.034832,0.004153,-0.004914,-0.042244,0.006441,0.090766,1.000000,-0.000174,0.000021,-0.000025,0.421151,0.214555,0.062557,-0.879025,4.493747,25.460625,-127.785074
32495,-4.204080,0.596260,9.051034,-0.153102,-0.011633,0.183685,-0.020748,0.003024,-0.002424,-0.042039,0.005973,0.090510,1.000000,-0.000104,0.000015,-0.000012,0.421136,0.214493,0.062614,-0.879043,4.483471,25.457114,-127.790086
32496,-4.304656,0.694881,9.102406,-0.037668,-0.018281,0.280130,-0.005190,0.006365,-0.000121,-0.043044,0.006951,0.091025,1.000000,-0.000026,0.000032,-0.000001,0.421109,0.214497,0.062622,-0.879055,4.481958,25.458034,-127.793820
32497,-4.221276,0.750506,9.099092,-0.039893,-0.111708,0.245237,-0.001394,0.002162,0.007447,-0.042212,0.007504,0.090991,1.000000,-0.000007,0.000011,0.000037,0.421116,0.214475,0.062580,-0.879059,4.485415,25.453604,-127.792639
32498,-4.230679,0.710321,9.090381,-0.063082,-0.076540,0.238600,-0.000284,0.008426,0.008229,-0.042303,0.007102,0.090906,1.000000,-0.000001,0.000042,0.000041,0.421120,0.214501,0.062562,-0.879052,4.489027,25.455327,-127.790988
32499,-4.205774,0.779396,9.087327,-0.023233,-0.136629,0.230036,0.003384,0.002578,0.004954,-0.042057,0.007791,0.090874,1.000000,0.000017,0.000013,0.000025,0.421112,0.214490,0.062504,-0.879063,4.494546,25.451254,-127.791366
32500,-4.221287,0.758412,9.064564,-0.023899,-0.105182,0.214733,-0.000285,0.008427,0.008229,-0.042209,0.007583,0.090647,1.000000,-0.000001,0.000042,0.000041,0.421116,0.214516,0.062486,-0.879056,4.498158,25.452978,-127.789715
32501,-4.199444,0.767847,9.066979,-0.029879,-0.126902,0.208192,0.000045,0.006227,0.004552,-0.041992,0.007677,0.090671,1.000000,0.000000,0.000031,0.000023,0.421108,0.214514,0.062450,-0.879063,4.501735,25.451015,-127.790166
32502,-4.229987,0.771237,9.083703,-0.016452,-0.111992,0.236614,0.003005,0.009772,0.005052,-0.042296,0.007710,0.090839,1.000000,0.000015,0.000049,0.000025,0.421094,0.214551,0.062424,-0.879063,4.506397,25.453649,-127.790457
32503,-4.198028,0.827924,9.060702,0.016327,-0.163836,0.206200,-0.001806,0.008947,0.004834,-0.041976,0.008279,0.090609,1.000000,-0.000009,0.000045,0.000024,0.421088,0.214558,0.062402,-0.879065,4.509051,25.453235,-127.790592
32504,-4.186614,0.789527,9.088445,-0.028600,-0.155868,0.223538,-0.010300,0.008155,0.006049,-0.041863,0.007899,0.090886,1.000000,-0.000051,0.000041,0.000030,0.421093,0.214561,0.062429,-0.879060,4.506326,25.454901,-127.790334
32505,-4.218939,0.738910,9.076893,-0.045325,-0.097586,0.223440,-0.016256,0.011876,0.003309,-0.042184,0.007396,0.090771,1.000000,-0.000081,0.000059,0.000017,0.421096,0.214549,0.062478,-0.879058,4.500360,25.456232,-127.791284
32506,-4.218144,0.790551,9.104914,-0.014884,-0.140004,0.251971,-0.009940,0.006367,0.005082,-0.042179,0.007909,0.091050,1.000000,-0.000050,0.000032,0.000025,0.421097,0.214544,0.062502,-0.879057,4.497540,25.456921,-127.791726
32507,-4.204012,0.765041,9.065099,-0.028688,-0.122531,0.208250,-0.018092,0.009194,0.004461,-0.042036,0.007658,0.090652,1.000000,-0.000090,0.000046,0.000022,0.421107,0.214518,0.062552,-0.879055,4.490779,25.456675,-127.792081
32508,-4.207755,0.704307,9.070321,-0.074368,-0.083612,0.210259,-0.014379,0.009572,0.005740,-0.042073,0.007048,0.090705,1.000000,-0.000072,0.000048,0.000029,0.421115,0.214518,0.062601,-0.879048,4.485663,25.459165,-127.791948
32509,-4.214623,0.722403,9.056005,-0.051566,-0.086406,0.201603,-0.011794,0.009091,0.005366,-0.042142,0.007228,0.090562,1.000000,-0.000059,0.000045,0.000027,0.421122,0.214505,0.062622,-0.879046,4.482749,25.458826,-127.791737
32510,-4.233305,0.686818,9.100695,-0.083151,-0.063995,0.247344,-0.006218,0.012564,0.008206,-0.042328,0.006869,0.091009,1.000000,-0.000031,0.000063,0.000041,0.421131,0.214536,0.062639,-0.879033,4.483044,25.462915,-127.789896
32511,-4.203108,0.690946,9.049329,-0.080721,-0.072945,0.188415,0.004187,0.011454,0.012134,-0.042026,0.006905,0.090496,1.000000,0.000021,0.000057,0.000061,0.421151,0.214569,0.062588,-0.879019,4.491168,25.463632,-127.785291
32512,-4.204082,0.737813,9.110834,-0.065767,-0.119870,0.247495,0.007882,0.017238,0.012546,-0.042033,0.007372,0.091112,1.000000,0.000039,0.000086,0.000063,0.421162,0.214651,0.062548,-0.878997,4.500822,25.470195,-127.780470
32513,-4.114474,0.828171,9.149260,-0.060345,-0.252522,0.249932,0.005983,0.024958,0.009251,-0.041134,0.008277,0.091498,1.000000,0.000030,0.000125,0.000046,0.421162,0.214746,0.062521,-0.878975,4.509472,25.478759,-127.777017
32514,-4.053629,0.881835,9.319880,-0.110705,-0.380940,0.381053,0.006307,0.033987,0.006551,-0.040521,0.008814,0.093206,1.000000,0.000032,0.000170,0.000033,0.421144,0.214898,0.062530,-0.878946,4.516954,25.495158,-127.775150
32515,-3.526538,0.968134,9.674796,-0.453593,-0.917754,0.479417,-0.015211,0.051442,0.004314,-0.035241,0.009688,0.096756,1.000000,-0.000076,0.000257,0.000022,0.421137,0.215063,0.062656,-0.878900,4.512705,25.519042,-127.773489
32516,-3.147052,1.141703,9.618678,-0.514200,-1.289062,0.276926,-0.040461,0.085597,0.003622,-0.031430,0.011436,0.096198,1.000000,-0.000202,0.000428,0.000018,0.421140,0.215341,0.062982,-0.878808,4.493702,25.565052,-127.770905
32517,-3.090245,1.291130,10.056687,-0.573449,-1.564401,0.655234,-0.118689,0.116606,0.002317,-0.030844,0.012971,0.100577,1.000000,-0.000593,0.000583,0.000012,0.421215,0.215573,0.063702,-0.878663,4.431053,25.626058,-127.767291
32518,-2.576742,1.248425,10.178991,-0.923212,-1.958532,0.537279,-0.224806,0.120851,-0.003365,-0.025706,0.012599,0.101791,0.999999,-0.001124,0.000604,-0.000017,0.421374,0.215615,0.064920,-0.878487,4.305203,25.692518,-127.767547
32519,-1.902957,1.238294,10.548943,-1.409031,-2.568558,0.572486,-0.302470,0.153299,-0.065250,-0.018945,0.012549,0.105485,0.999999,-0.001512,0.000766,-0.000326,0.421338,0.215596,0.066595,-0.878384,4.119359,25.777027,-127.805343
32520,-1.545005,1.069197,11.104389,-1.898953,-2.919489,0.897497,-0.343932,0.212762,-0.184294,-0.015322,0.010897,0.111042,0.999998,-0.001720,0.001064,-0.000921,0.420798,0.215731,0.068724,-0.878446,3.876743,25.903245,-127.916897
32521,-1.670512,0.901098,11.443326,-2.050725,-2.868440,1.238046,-0.293998,0.196482,-0.356646,-0.016576,0.009209,0.114436,0.999997,-0.001470,0.000982,-0.001783,0.419455,0.215814,0.070764,-0.878905,3.614987,26.022509,-128.139022
32522,-1.065165,0.565284,11.266754,-2.575314,-3.065506,0.787511,-0.197621,0.158494,-0.526577,-0.010547,0.005792,0.112670,0.999996,-0.000988,0.000792,-0.002633,0.417267,0.215895,0.072504,-0.879785,3.358421,26.128718,-128.472088
32523,-0.812397,0.401052,11.459768,-2.901966,-3.222696,0.833434,-0.024383,0.167286,-0.687308,-0.008014,0.004052,0.114604,0.999994,-0.000122,0.000836,-0.003437,0.414183,0.216286,0.073650,-0.881050,3.156244,26.239681,-128.907608
32524,-1.642350,0.951909,12.280626,-2.292164,-3.266960,1.955495,0.206150,0.113834,-0.813108,-0.016315,0.009459,0.122825,0.999991,0.001031,0.000569,-0.004066,0.410303,0.216899,0.073828,-0.882698,3.047682,26.327212,-129.426432
32525,-2.462132,1.651588,13.410750,-1.683038,-3.496636,3.362247,0.384666,-0.117970,-0.851516,-0.024631,0.016363,0.134125,0.999989,0.001923,-0.000590,-0.004258,0.406143,0.216802,0.072757,-0.884732,3.028020,26.277738,-129.977306
32526,-4.394269,2.680319,15.035991,-0.338112,-3.288613,5.732241,0.589099,-0.568455,-0.700347,-0.044277,0.026515,0.150313,0.999985,0.002945,-0.002842,-0.003502,0.402578,0.215211,0.069726,-0.886991,3.161758,25.971369,-130.447088
32527,-5.402712,4.044623,15.272936,1.223444,-3.436751,6.481459,0.626409,-1.336475,-0.415208,-0.054963,0.040082,0.152490,0.999971,0.003132,-0.006682,-0.002076,0.400494,0.210342,0.064644,-0.889484,3.388900,25.212119,-130.762205
32528,-2.946226,5.663264,14.148878,1.430649,-5.678193,4.562598,0.413829,-1.915114,-0.146556,-0.030775,0.056362,0.141315,0.999952,0.002069,-0.009575,-0.000733,0.399976,0.202581,0.059092,-0.891901,3.558431,24.119160,-130.931486
32529,-0.752505,5.635160,13.073892,0.576957,-6.661641,2.778213,0.176609,-2.102725,0.186351,-0.008952,0.056228,0.130699,0.999944,0.000883,-0.010513,0.000932,0.401206,0.193549,0.053840,-0.893686,3.676796,22.901314,-130.901159
32530,0.290634,4.346757,12.011711,-0.527455,-6.045732,1.431176,0.132507,-2.105746,0.556285,0.001521,0.043393,0.120167,0.999940,0.000663,-0.010529,0.002781,0.404076,0.184529,0.048454,-0.894608,3.852221,21.673719,-130.646895
32531,0.864240,3.537319,11.907520,-1.300445,-5.680025,1.191338,0.305342,-1.990864,0.904954,0.007297,0.035226,0.119206,0.999939,0.001527,-0.009954,0.004525,0.408279,0.176392,0.042152,-0.894660,4.200452,20.489881,-130.181214
32532,-0.452182,3.159872,12.614742,-0.860174,-4.412347,2.398162,0.543417,-1.990788,1.203739,-0.005966,0.031223,0.126178,0.999929,0.002717,-0.009954,0.006019,0.413545,0.168824,0.034563,-0.894027,4.730276,19.296275,-129.548250
32533,-0.675693,3.113675,13.043733,-0.758395,-4.024413,2.974406,0.665789,-2.166413,1.436143,-0.008391,0.030646,0.130455,0.999910,0.003329,-0.010832,0.007181,0.419720,0.160689,0.025809,-0.892944,5.356547,17.977132,-128.801256
32534,-0.818513,2.589947,13.022493,-0.944222,-3.257159,3.050098,0.776339,-2.356321,1.627415,-0.009927,0.025318,0.130214,0.999890,0.003882,-0.011781,0.008137,0.426590,0.151977,0.016058,-0.891441,6.049893,16.538414,-127.974020
32535,-0.597632,2.763112,12.690695,-0.734384,-3.131698,2.784374,0.869322,-2.563641,1.757250,-0.007842,0.027016,0.126933,0.999870,0.004346,-0.012818,0.008786,0.433891,0.142462,0.005291,-0.889615,6.789146,14.955294,-127.108183
32536,0.513901,2.819862,12.119497,-1.064909,-3.594864,2.062844,0.818510,-2.684500,1.808977,0.003258,0.027737,0.121361,0.999861,0.004092,-0.013422,0.009044,0.441335,0.132314,-0.005493,-0.887517,7.471096,13.297854,-126.248384
32537,1.794040,2.216544,11.368741,-1.956326,-3.827671,1.091044,0.785165,-2.644822,1.801838,0.016236,0.021870,0.113996,0.999864,0.003926,-0.013224,0.009009,0.448658,0.122176,-0.016095,-0.885167,8.107232,11.645140,-125.414431
32538,2.015211,1.691529,11.211736,-2.337076,-3.388781,0.942358,0.834727,-2.497858,1.729207,0.018605,0.016612,0.112426,0.999876,0.004173,-0.012489,0.008646,0.455514,0.112829,-0.026478,-0.882652,8.735747,10.081815,-124.633752
32539,1.313357,1.518324,11.503414,-2.046401,-2.446673,1.420141,0.928788,-2.403593,1.642477,0.011627,0.014748,0.115249,0.999883,0.004644,-0.012017,0.008212,0.461847,0.104034,-0.037068,-0.880057,9.390238,8.561546,-123.915330
32540,0.732012,1.858216,11.809268,-1.434246,-1.868717,1.929945,0.964153,-2.389434,1.545832,0.005767,0.018061,0.118256,0.999887,0.004821,-0.011947,0.007729,0.467622,0.095439,-0.047661,-0.877468,10.033316,7.060318,-123.271138
32541,-0.062216,2.468579,12.187888,-0.502636,-1.225694,2.551671,0.866754,-2.420626,1.405906,-0.002269,0.024145,0.121963,0.999893,0.004334,-0.012103,0.007029,0.472728,0.086425,-0.057883,-0.875048,10.595273,5.539151,-122.727354
32542,-0.285810,2.347504,12.114605,-0.368230,-0.645472,2.507794,0.637406,-2.488347,1.212332,-0.004506,0.023065,0.121171,0.999899,0.003187,-0.012441,0.006061,0.476959,0.076677,-0.067104,-0.872999,10.997919,4.006239,-122.314550
32543,-0.088197,1.251201,11.454293,-1.135099,0.052049,1.653577,0.508845,-2.501392,1.001117,-0.002376,0.012211,0.114551,0.999906,0.002544,-0.012507,0.005005,0.480228,0.066553,-0.075763,-0.871328,11.310930,2.476670,-122.032448
32544,-0.230487,0.695575,10.920560,-1.318035,0.702076,1.029781,0.543154,-2.409852,0.790677,-0.003647,0.006647,0.109185,0.999916,0.002716,-0.012049,0.003953,0.482509,0.057046,-0.084206,-0.869966,11.630285,1.031149,-121.866872
32545,-0.706539,1.055212,10.966590,-0.689712,1.180282,1.141958,0.563009,-2.260012,0.567415,-0.008333,0.010221,0.109606,0.999928,0.002815,-0.011300,0.002837,0.483807,0.048255,-0.092356,-0.868949,11.958371,-0.315256,-121.817292
32546,-1.477393,1.252662,11.029754,-0.050490,1.981678,1.208774,0.515479,-2.123158,0.360730,-0.015966,0.012214,0.110164,0.999939,0.002577,-0.010616,0.001804,0.484211,0.040101,-0.099847,-0.868310,12.257724,-1.550247,-121.874294
32547,-2.007389,1.400678,10.924288,0.448504,2.565691,1.075067,0.462193,-2.006596,0.209577,-0.021183,0.013733,0.109066,0.999946,0.002311,-0.010033,0.001048,0.483976,0.032328,-0.106839,-0.867933,12.532481,-2.710955,-122.007973
32548,-1.912587,1.662017,10.312304,0.786187,2.454006,0.488790,0.414891,-1.826829,0.111802,-0.020076,0.016395,0.102977,0.999956,0.002074,-0.009134,0.000559,0.483368,0.025337,-0.113108,-0.867710,12.782907,-3.748433,-122.179037
32549,-1.650943,2.164494,9.630265,1.231701,2.022042,-0.089264,0.336333,-1.528134,0.053891,-0.017251,0.021479,0.096209,0.999969,0.001682,-0.007641,0.000269,0.482655,0.019419,-0.118351,-0.867560,12.992845,-4.620260,-122.348832
32550,-1.704839,2.520541,9.080738,1.684734,1.902909,-0.579105,0.240316,-1.143837,0.029136,-0.017571,0.025094,0.090738,0.999983,0.001202,-0.005719,0.000146,0.482044,0.015013,-0.122190,-0.867455,13.145354,-5.264585,-122.485227
32551,-2.130984,2.795506,8.866971,2.205028,2.159465,-0.787539,0.141645,-0.724335,0.041636,-0.021637,0.027888,0.088612,0.999993,0.000708,-0.003622,0.000208,0.481743,0.012122,-0.124638,-0.867319,13.238655,-5.684958,-122.561273
32552,-2.840416,2.713797,8.846435,2.537693,2.838082,-0.913398,0.085651,-0.355684,0.117753,-0.028577,0.027083,0.088425,0.999998,0.000428,-0.001778,0.000589,0.481996,0.010707,-0.125908,-0.867013,13.289278,-5.900935,-122.546246
32553,-3.423854,2.604453,8.900499,2.754031,3.421898,-0.956575,0.091810,-0.095595,0.239102,-0.034312,0.025963,0.089001,0.999999,0.000459,-0.000478,0.001196,0.482941,0.010304,-0.126633,-0.866387,13.334726,-5.995932,-122.429159
32554,-3.602354,2.247261,8.615660,2.577642,3.710758,-1.336680,0.139082,0.064228,0.419244,-0.036043,0.022337,0.086184,0.999998,0.000695,0.000321,0.002096,0.484761,0.010647,-0.127137,-0.865292,13.392410,-6.017783,-122.189598
32555,-3.531166,2.198288,8.427414,2.496858,3.655977,-1.522797,0.224888,0.192126,0.597798,-0.035296,0.021783,0.084333,0.999994,0.001124,0.000961,0.002989,0.487428,0.011590,-0.127755,-0.863689,13.488910,-5.999604,-121.833174
32556,-3.219701,1.813891,8.150248,2.009067,3.542519,-1.844173,0.273980,0.301627,0.754461,-0.032142,0.017906,0.081576,0.999991,0.001370,0.001508,0.003772,0.490830,0.013073,-0.128281,-0.861661,13.601212,-5.934956,-121.373929
32557,-2.895804,2.266936,8.445246,2.129798,3.125278,-1.413687,0.286793,0.420975,0.841170,-0.028875,0.022427,0.084546,0.999988,0.001434,0.002105,0.004206,0.494672,0.015005,-0.128612,-0.859379,13.716724,-5.822830,-120.850136
32558,-3.278561,1.930922,8.492877,1.980763,3.632030,-1.476556,0.186025,0.475647,0.883438,-0.032668,0.019086,0.085024,0.999987,0.000930,0.002378,0.004417,0.498725,0.016935,-0.128335,-0.857040,13.770729,-5.680471,-120.294892
32559,-3.109119,1.686626,8.617570,1.617352,3.631503,-1.388318,0.153521,0.448544,0.905338,-0.030974,0.016660,0.086258,0.999987,0.000768,0.002243,0.004527,0.502846,0.018618,-0.128022,-0.854640,13.808211,-5.562209,-119.731383
32560,-3.019851,1.423226,8.685230,1.290383,3.692298,-1.369940,0.118012,0.379398,0.905423,-0.030098,0.014045,0.086918,0.999988,0.000590,0.001897,0.004527,0.506912,0.019951,-0.127690,-0.852255,13.825580,-5.477116,-119.177122
32561,-3.154114,1.008294,8.496054,0.987051,3.965967,-1.661324,0.135757,0.266169,0.881375,-0.031472,0.009886,0.085009,0.999989,0.000679,0.001331,0.004407,0.510791,0.020832,-0.127748,-0.849905,13.857853,-5.456810,-118.652121
32562,-3.145992,0.915994,8.234625,0.906713,3.961532,-1.936816,0.189382,0.126489,0.825593,-0.031445,0.008952,0.082375,0.999991,0.000947,0.000632,0.004128,0.514327,0.021320,-0.128350,-0.847667,13.924090,-5.502119,-118.177340
32563,-2.849603,0.976828,7.988132,0.828014,3.647158,-2.138237,0.202175,0.004605,0.719362,-0.028529,0.009585,0.079892,0.999993,0.001011,0.000023,0.003597,0.517326,0.021368,-0.129333,-0.845689,14.005611,-5.605237,-117.779019
32564,-2.123118,1.090252,7.812818,0.597173,2.946173,-2.216650,0.152354,-0.076026,0.579407,-0.021292,0.010781,0.078128,0.999995,0.000762,-0.000380,0.002897,0.519680,0.021061,-0.130271,-0.844108,14.065451,-5.730097,-117.469997
32565,-1.518845,0.942299,7.717240,0.195947,2.476322,-2.290719,0.097426,-0.095493,0.440474,-0.015246,0.009352,0.077170,0.999997,0.000487,-0.000477,0.002202,0.521437,0.020598,-0.131035,-0.842917,14.102239,-5.850170,-117.241504
32566,-1.673043,0.741742,7.590415,0.105514,2.687618,-2.482666,0.101662,-0.097537,0.338514,-0.016780,0.007350,0.075900,0.999998,0.000508,-0.000488,0.001693,0.522760,0.020226,-0.131788,-0.841989,14.145931,-5.953777,-117.070134
32567,-2.021666,1.018366,7.502433,0.513149,2.879533,-2.542499,0.130580,-0.131098,0.280425,-0.020280,0.010106,0.075018,0.999999,0.000653,-0.000655,0.001402,0.523812,0.019807,-0.132763,-0.841191,14.210517,-6.071089,-116.936137
32568,-2.004428,1.321919,7.332704,0.793985,2.722263,-2.636854,0.129691,-0.164975,0.237723,-0.020120,0.013148,0.073319,0.999999,0.000648,-0.000825,0.001189,0.524661,0.019291,-0.133799,-0.840510,14.276630,-6.198293,-116.830769
32569,-1.733169,1.576819,7.177111,0.918964,2.364316,-2.701666,0.109604,-0.194817,0.196565,-0.017417,0.015712,0.071763,0.999999,0.000548,-0.000974,0.000983,0.525317,0.018608,-0.134841,-0.839948,14.334587,-6.338879,-116.752858
32570,-1.175227,2.392479,7.371294,1.353048,1.591869,-2.257803,0.016774,-0.183795,0.166852,-0.011840,0.023909,0.073704,0.999999,0.000084,-0.000919,0.000834,0.525863,0.017764,-0.135446,-0.839528,14.340245,-6.466647,-116.689921
32571,-0.983107,2.738223,7.974592,1.479172,1.417311,-1.574865,-0.182683,-0.140741,0.116286,-0.009903,0.027449,0.079714,0.999999,-0.000913,-0.000704,0.000581,0.526244,0.016598,-0.135109,-0.839367,14.234619,-6.565403,-116.649098
32572,-1.698667,2.430717,8.811026,1.412587,2.359216,-0.931999,-0.335380,-0.200066,0.108460,-0.017088,0.024446,0.088052,0.999998,-0.001677,-0.001000,0.000542,0.526562,0.014798,-0.134272,-0.839336,14.042240,-6.693821,-116.620640
32573,-2.191627,2.136211,9.523796,1.297658,3.078915,-0.383721,-0.399226,-0.394934,0.137558,-0.022119,0.021537,0.095152,0.999996,-0.001996,-0.001975,0.000688,0.526873,0.011984,-0.133694,-0.839278,13.815103,-6.936179,-116.602591
32574,-2.169663,1.775222,9.817763,0.982323,3.300716,-0.200869,-0.421106,-0.698115,0.188264,-0.022056,0.017938,0.098063,0.999991,-0.002106,-0.003491,0.000941,0.527189,0.007816,-0.133812,-0.839110,13.576124,-7.352447,-116.596422
32575,-0.570523,1.268331,9.279638,-0.021565,2.029234,-0.651533,-0.379038,-0.981348,0.222336,-0.006175,0.012852,0.092743,0.999986,-0.001895,-0.004907,0.001112,0.527443,0.002541,-0.134861,-0.838814,13.364114,-7.932105,-116.607695
32576,1.471645,1.207294,8.411924,-0.786170,0.120262,-1.224877,-0.312028,-1.022870,0.204888,0.014274,0.012219,0.084174,0.999985,-0.001560,-0.005114,0.001024,0.527581,-0.002714,-0.136286,-0.838497,13.191915,-8.531602,-116.632259
32577,2.450176,1.267082,7.967152,-1.048749,-0.809001,-1.486251,-0.272261,-0.854239,0.101702,0.024155,0.012792,0.079758,0.999990,-0.001361,-0.004271,0.000509,0.527388,-0.007091,-0.137439,-0.838405,13.048451,-9.024552,-116.691353
32578,2.733594,1.015492,7.974788,-1.355370,-0.907846,-1.479648,-0.261687,-0.610396,-0.038974,0.027094,0.010254,0.079817,0.999994,-0.001308,-0.003052,-0.000195,0.526765,-0.010317,-0.137989,-0.838673,12.918458,-9.362486,-116.796993
32579,2.046132,0.521030,8.057442,-1.469825,-0.048813,-1.614051,-0.148914,-0.392059,-0.146877,0.020307,0.005255,0.080610,0.999998,-0.000745,-0.001960,-0.000734,0.525841,-0.012262,-0.138448,-0.839150,12.859227,-9.565979,-116.935035
32580,1.473555,0.858859,8.460681,-0.952471,0.438043,-1.245715,-0.000178,-0.246301,-0.212226,0.014640,0.008573,0.084625,0.999999,-0.000001,-0.001232,-0.001061,0.524752,-0.013153,-0.139144,-0.839703,12.888287,-9.678628,-117.091160
32581,0.999703,1.358831,8.896892,-0.351125,0.773761,-0.797228,0.082526,-0.156375,-0.250882,0.009944,0.013539,0.088982,0.999999,0.000413,-0.000782,-0.001254,0.523567,-0.013430,-0.139960,-0.840303,12.966843,-9.737135,-117.257671
32582,0.676085,2.028137,9.299646,0.330337,0.894164,-0.318205,0.097749,-0.115629,-0.251189,0.006733,0.020227,0.093010,0.999999,0.000489,-0.000578,-0.001256,0.522408,-0.013488,-0.140727,-0.840894,13.053264,-9.771445,-117.419097
32583,0.382572,2.722657,9.829252,1.008260,1.004596,0.294123,-0.011369,-0.134368,-0.231964,0.003791,0.027228,0.098294,0.999999,-0.000057,-0.000672,-0.001160,0.521310,-0.013931,-0.141087,-0.841509,13.075924,-9.819585,-117.572168
32584,0.350557,2.904882,10.222286,1.148631,1.060500,0.704550,-0.205823,-0.202715,-0.228117,0.003435,0.029150,0.102196,0.999998,-0.001029,-0.001014,-0.001141,0.520164,-0.015163,-0.140802,-0.842244,12.988440,-9.905426,-117.732008
32585,0.811113,2.149741,10.225940,0.306211,0.981799,0.617619,-0.360809,-0.300490,-0.203504,0.007980,0.021674,0.102232,0.999997,-0.001804,-0.001502,-0.001018,0.519038,-0.017233,-0.140120,-0.843012,12.812387,-10.050159,-117.890483
32586,1.209214,1.423625,10.031385,-0.449659,0.905537,0.340893,-0.334034,-0.388714,-0.171450,0.011909,0.014394,0.100313,0.999996,-0.001670,-0.001944,-0.000857,0.517984,-0.019622,-0.139772,-0.843665,12.650709,-10.247930,-118.041691
32587,1.997286,1.450715,9.831678,-0.726097,0.182171,0.296468,-0.275117,-0.449098,-0.148800,0.019763,0.014628,0.098341,0.999996,-0.001376,-0.002245,-0.000744,0.516986,-0.022133,-0.139828,-0.844206,12.522411,-10.483297,-118.187300
32588,2.646134,1.304557,9.369134,-1.071660,-0.408775,-0.057234,-0.202054,-0.428124,-0.146576,0.026270,0.013121,0.093734,0.999997,-0.001010,-0.002141,-0.000733,0.516016,-0.024364,-0.140135,-0.844687,12.435696,-10.706848,-118.328643
32589,2.757422,1.571216,9.208050,-0.848433,-0.634454,-0.130858,-0.126633,-0.336258,-0.159451,0.027432,0.015749,0.092117,0.999998,-0.000633,-0.001681,-0.000797,0.515063,-0.026009,-0.140526,-0.845154,12.391802,-10.878278,-118.465621
32590,2.528676,1.751673,9.296775,-0.576811,-0.470949,-0.048567,-0.088832,-0.232771,-0.162052,0.025193,0.017538,0.092989,0.999999,-0.000444,-0.001164,-0.000810,0.514175,-0.027112,-0.140808,-0.845613,12.367774,-10.990842,-118.591110
32591,2.101424,2.017958,9.471029,-0.149832,-0.157883,0.093934,-0.069419,-0.161617,-0.155156,0.020953,0.020196,0.094720,0.999999,-0.000347,-0.000808,-0.000776,0.513368,-0.027875,-0.140990,-0.846048,12.352501,-11.065317,-118.703749
32592,2.056783,2.271127,9.587205,0.089380,-0.189864,0.250057,-0.072212,-0.117729,-0.131147,0.020526,0.022732,0.095876,1.000000,-0.000361,-0.000589,-0.000656,0.512692,-0.028471,-0.141042,-0.846430,12.332178,-11.117356,-118.797244
32593,2.087733,2.451644,9.627298,0.237057,-0.280212,0.332229,-0.100858,-0.078307,-0.099569,0.020852,0.024555,0.096269,1.000000,-0.000504,-0.000392,-0.000498,0.512174,-0.029002,-0.140870,-0.846754,12.290979,-11.152101,-118.867776
32594,2.202103,2.285249,9.637979,0.045953,-0.303746,0.329693,-0.132324,-0.041377,-0.068457,0.022009,0.022909,0.096369,1.000000,-0.000662,-0.000207,-0.000342,0.511808,-0.029472,-0.140463,-0.847027,12.227558,-11.169151,-118.915973
32595,2.214153,2.186819,9.638234,-0.035834,-0.274870,0.311707,-0.120667,-0.002284,-0.028360,0.022144,0.021923,0.096369,1.000000,-0.000603,-0.000011,-0.000142,0.511641,-0.029781,-0.140002,-0.847193,12.165398,-11.170102,-118.936428
32596,1.933154,2.058556,9.919282,-0.032087,0.092269,0.500282,-0.101186,0.017019,0.012900,0.019339,0.020637,0.099181,1.000000,-0.000506,0.000085,0.000065,0.511665,-0.029981,-0.139565,-0.847244,12.109430,-11.164342,-118.930965
32597,1.349854,1.984562,10.422355,0.140967,0.759474,0.854525,-0.030194,-0.050526,0.065186,0.013466,0.019866,0.104224,1.000000,-0.000151,-0.000253,0.000326,0.511874,-0.030330,-0.139597,-0.847100,12.089899,-11.203597,-118.903906
32598,1.014104,2.234113,10.869023,0.486179,1.072383,1.267426,0.020919,-0.209306,0.118879,0.010014,0.022336,0.108703,0.999999,0.000105,-0.001047,0.000594,0.512206,-0.031250,-0.140240,-0.846759,12.097465,-11.337352,-118.865608
32599,1.411311,2.390290,10.847731,0.451847,0.690722,1.354099,0.037145,-0.387585,0.158383,0.013884,0.023894,0.108509,0.999998,0.000186,-0.001938,0.000792,0.512582,-0.032917,-0.141404,-0.846275,12.113983,-11.576460,-118.826570
32600,1.782495,2.290218,10.778169,0.216916,0.446927,1.338286,0.065004,-0.528087,0.204561,0.017517,0.022885,0.107836,0.999996,0.000325,-0.002640,0.001023,0.513055,-0.035133,-0.143035,-0.845624,12.144508,-11.899124,-118.778469
32601,1.835985,2.300133,10.836088,0.220874,0.480857,1.403448,0.146289,-0.672437,0.281206,0.017963,0.022947,0.108439,0.999993,0.000731,-0.003362,0.001406,0.513758,-0.037811,-0.145367,-0.844684,12.215810,-12.312543,-118.704521
32602,2.140183,2.513309,10.991135,0.279027,0.262750,1.657027,0.253577,-0.829356,0.384041,0.020898,0.025034,0.110030,0.999989,0.001268,-0.004147,0.001920,0.514792,-0.040945,-0.148532,-0.843357,12.339631,-12.825862,-118.591785
32603,2.042026,2.690117,10.977082,0.510563,0.382549,1.654417,0.351417,-1.002837,0.524072,0.019799,0.026761,0.109918,0.999982,0.001757,-0.005014,0.002620,0.516293,-0.044666,-0.152524,-0.841536,12.505290,-13.454308,-118.421601
32604,2.562686,3.236124,10.638011,0.813974,-0.256170,1.566108,0.418097,-1.164124,0.672675,0.024898,0.032223,0.106594,0.999975,0.002090,-0.005821,0.003363,0.518288,-0.049000,-0.157171,-0.839210,12.692127,-14.191498,-118.188128
32605,2.992899,3.702418,10.189723,1.110866,-0.804820,1.350279,0.399991,-1.216716,0.810042,0.029158,0.036939,0.102150,0.999971,0.002000,-0.006084,0.004050,0.520787,-0.053711,-0.161839,-0.836483,12.847743,-14.976599,-117.883723
32606,3.160514,3.784975,9.663437,1.203466,-1.000098,0.922591,0.398994,-1.192762,0.966573,0.030845,0.037807,0.096895,0.999969,0.001995,-0.005964,0.004833,0.523928,-0.058444,-0.166387,-0.833306,12.974075,-15.768633,-117.486348
32607,3.869969,3.551994,8.725096,0.805340,-1.683131,0.199162,0.659732,-1.070964,1.299234,0.038001,0.035480,0.087573,0.999959,0.003299,-0.005355,0.006496,0.528594,-0.062262,-0.171596,-0.829016,13.186767,-16.537456,-116.880249
32608,3.493019,5.202429,8.240004,2.537228,-1.993045,0.023524,1.081092,-0.932974,1.931673,0.034043,0.051909,0.082841,0.999928,0.005405,-0.004665,0.009658,0.536071,-0.064927,-0.177967,-0.822642,13.520333,-17.315329,-115.887849
32609,5.133952,7.370183,6.996179,4.013453,-4.420522,-0.118976,1.167623,-0.766398,2.652397,0.050090,0.073961,0.070587,0.999888,0.005838,-0.003832,0.013261,0.546589,-0.067307,-0.183988,-0.814161,13.755812,-18.103205,-114.450639
32610,6.895909,7.170760,5.411488,3.474167,-6.246775,-1.028788,1.146692,-0.222273,3.381442,0.067677,0.072547,0.054605,0.999840,0.005733,-0.001111,0.016906,0.560421,-0.068179,-0.188134,-0.803670,13.801467,-18.690495,-112.503792
32611,6.685783,5.760986,4.647887,2.575477,-5.750519,-2.080794,1.401840,0.471770,4.125443,0.065765,0.058647,0.046732,0.999760,0.007009,0.002359,0.020626,0.577754,-0.066223,-0.191049,-0.790768,13.805300,-18.995411,-110.015045
32612,6.057302,4.185051,4.054185,1.621972,-4.887067,-3.170244,1.893749,1.131144,4.759521,0.059790,0.042895,0.040605,0.999656,0.009468,0.005655,0.023795,0.598053,-0.060804,-0.193665,-0.775325,13.929230,-19.021900,-107.054756
32613,5.674992,3.794432,3.650876,1.649208,-4.522390,-3.750080,2.395754,1.706018,5.170739,0.056063,0.038963,0.036491,0.999558,0.011977,0.008529,0.025850,0.620181,-0.052013,-0.196255,-0.757730,14.242524,-18.799073,-103.770870
32614,6.272145,1.233937,1.910758,-0.400796,-5.294693,-5.773903,2.856980,2.369006,5.187833,0.062600,0.013697,0.018555,0.999491,0.014282,0.011843,0.025935,0.642558,-0.039242,-0.198322,-0.739085,14.806380,-18.232473,-100.381691
32615,5.407482,1.087331,1.274429,-0.006705,-4.746101,-6.727861,3.561669,3.410004,4.828145,0.054004,0.011959,0.012030,0.999405,0.017805,0.017047,0.024136,0.664064,-0.019974,-0.199530,-0.720283,15.840021,-17.084086,-97.045139
32616,0.774125,4.949340,4.260793,3.603540,0.445310,-4.329719,3.507846,4.251524,4.067774,0.007658,0.048894,0.043306,0.999413,0.017536,0.021253,0.020335,0.682887,0.002939,-0.197561,-0.703296,17.002376,-15.407974,-94.003768
32617,-6.455118,4.851171,7.960456,2.652232,8.398639,-2.673352,2.561361,4.221427,3.130256,-0.063581,0.046475,0.081557,0.999573,0.012805,0.021104,0.015649,0.697705,0.023425,-0.192186,-0.689728,17.845144,-13.642574,-91.492976
32618,-2.932332,-0.116289,6.737178,-2.146742,4.286226,-4.243789,1.296075,3.982381,1.745717,-0.027960,-0.001850,0.067927,0.999743,0.006480,0.019910,0.008728,0.707194,0.040002,-0.182955,-0.681765,18.217882,-11.784191,-89.798247
32619,0.204983,-5.385713,5.595013,-6.874460,0.397413,-6.216692,0.531793,4.429866,-0.248977,0.003219,-0.054009,0.055744,0.999750,0.002659,0.022147,-0.001245,0.710087,0.057199,-0.169071,-0.681117,18.404711,-9.334198,-89.129590
32620,-2.917833,-8.275719,7.286708,-10.205075,3.351550,-5.976303,0.370724,4.589262,-2.121736,-0.028375,-0.082589,0.073371,0.999679,0.001853,0.022944,-0.010608,0.706381,0.075923,-0.153416,-0.686822,18.664743,-6.456460,-89.453528
32621,-4.354159,-3.374453,8.923924,-6.080889,4.966110,-2.860544,0.486958,4.469254,-3.383128,-0.042099,-0.033243,0.090109,0.999604,0.002434,0.022343,-0.016913,0.697703,0.095546,-0.138010,-0.696444,19.034425,-3.410817,-90.468538
32622,-4.716231,0.462212,10.072399,-2.753530,5.098274,-0.309292,0.008322,4.045038,-3.861837,-0.045012,0.005501,0.101649,0.999609,0.000042,0.020223,-0.019307,0.686745,0.112291,-0.122065,-0.707724,19.087967,-0.499246,-91.807791
32623,-3.793516,2.311326,9.849233,-0.863197,3.680962,0.307807,-0.244175,3.715719,-3.920165,-0.035633,0.023948,0.099140,0.999635,-0.001221,0.018576,-0.019598,0.675003,0.126942,-0.106238,-0.719006,18.928820,2.242116,-93.242197
32624,-4.500559,2.849342,10.238672,-0.333059,3.875111,1.052597,-0.423963,3.396243,-3.682384,-0.042722,0.029512,0.103063,0.999684,-0.002120,0.016979,-0.018410,0.663598,0.139638,-0.090916,-0.729296,18.604711,4.761709,-94.620460
32625,-5.864756,2.993616,11.176752,-0.250475,4.693676,2.276972,-0.610323,2.968823,-3.408087,-0.056456,0.031253,0.112522,0.999740,-0.003051,0.014843,-0.017039,0.652749,0.149944,-0.076472,-0.738639,18.121479,6.988728,-95.948908
32626,-6.547721,0.431289,10.986575,-2.363693,5.331489,1.577530,-0.592551,2.417358,-3.145393,-0.064061,0.005655,0.110630,0.999799,-0.002963,0.012086,-0.015726,0.642343,0.158110,-0.064054,-0.747191,17.604795,8.858071,-97.255889
32627,-6.795440,-0.157810,10.815142,-2.663888,5.399556,1.452705,-0.352880,1.877106,-3.045330,-0.066947,-0.000362,0.108784,0.999838,-0.001764,0.009385,-0.015226,0.631715,0.164933,-0.054317,-0.755502,17.176091,10.404057,-98.622949
32628,-7.174269,-1.271560,11.208856,-3.588919,5.718497,1.725737,-0.406170,1.394273,-3.308678,-0.071154,-0.011307,0.112610,0.999837,-0.002031,0.006971,-0.016542,0.619800,0.169787,-0.045673,-0.764810,16.636424,11.717884,-100.238504
32629,-8.913430,-2.862569,12.560025,-4.915802,7.429693,3.072131,-0.380206,0.743459,-3.938053,-0.089204,-0.026630,0.125984,0.999797,-0.001901,0.003717,-0.019689,0.605080,0.172310,-0.038582,-0.776337,15.975348,12.759088,-102.336415
32630,-8.414623,-4.040330,12.782377,-5.791697,7.219514,3.026179,-0.200984,-0.025101,-4.670580,-0.085073,-0.038295,0.127852,0.999727,-0.001005,-0.000125,-0.023351,0.586926,0.172456,-0.033875,-0.790335,15.260996,13.463848,-104.990763
32631,-6.315641,-1.266246,12.243465,-3.239400,4.518323,2.855209,0.257076,-0.557969,-5.083274,-0.063795,-0.011204,0.122242,0.999672,0.001285,-0.002790,-0.025414,0.566302,0.171801,-0.032139,-0.805453,14.702202,13.907456,-107.976145
32632,-5.756058,5.015835,13.131841,2.234951,1.539221,5.132686,0.219856,-0.872459,-5.110197,-0.056829,0.051472,0.131126,0.999663,0.001099,-0.004362,-0.025548,0.545175,0.169668,-0.031126,-0.820383,14.090459,14.149230,-111.031562
32633,-4.931339,6.236526,13.380498,3.164757,0.036595,5.426210,-0.372296,-1.221642,-4.829338,-0.048600,0.063793,0.133389,0.999688,-0.001861,-0.006108,-0.024144,0.525291,0.164331,-0.028823,-0.834406,13.157091,14.120178,-113.979357
32634,-2.854199,5.749311,12.528015,2.380020,-1.670461,3.960219,-0.626649,-1.438394,-4.341564,-0.028179,0.058499,0.124894,0.999734,-0.003133,-0.007191,-0.021706,0.507318,0.157260,-0.026443,-0.846876,12.150302,13.858736,-116.670779
32635,-0.791374,4.729176,11.959945,0.914537,-3.000610,2.684932,-0.660501,-1.456308,-3.744705,-0.007891,0.047834,0.119385,0.999793,-0.003302,-0.007281,-0.018722,0.491652,0.149870,-0.024396,-0.857451,11.219032,13.475207,-119.011494
32636,-1.065588,5.629102,12.799908,1.659670,-3.363302,3.699998,-0.492580,-1.461672,-3.101697,-0.010712,0.056772,0.127781,0.999850,-0.002463,-0.007308,-0.015508,0.478442,0.142740,-0.023580,-0.866119,10.491473,12.985047,-120.970413
32637,-1.654507,5.625898,13.918500,1.780140,-2.990958,4.884109,-0.589846,-1.662816,-2.605483,-0.016962,0.056888,0.138878,0.999876,-0.002949,-0.008314,-0.013027,0.467294,0.134405,-0.023152,-0.873519,9.785895,12.308401,-122.652635
32638,-2.310932,2.541162,14.486873,-0.315310,-0.706203,5.055506,-0.572586,-1.960667,-2.348698,-0.024224,0.026106,0.144561,0.999879,-0.002863,-0.009803,-0.011743,0.457108,0.124750,-0.023682,-0.880301,9.142390,11.419133,-124.201623
32639,-3.931328,0.480708,14.926508,-0.896727,1.943469,5.480887,-0.112282,-2.472830,-2.308230,-0.041095,0.005358,0.148761,0.999857,-0.000561,-0.012364,-0.011541,0.446630,0.113850,-0.027410,-0.887022,8.786329,10.223679,-125.760489
32640,-4.041096,0.941056,15.548372,-0.286067,2.004331,6.151323,0.220792,-3.092845,-2.350861,-0.042696,0.009732,0.154846,0.999811,0.001104,-0.015463,-0.011754,0.435540,0.100917,-0.033984,-0.893849,8.648983,8.673677,-127.386244
32641,-3.632089,1.646183,14.994052,0.472650,1.623628,5.609416,0.505523,-3.640820,-2.342440,-0.038849,0.016529,0.149290,0.999763,0.002527,-0.018203,-0.011711,0.424065,0.086106,-0.042993,-0.900503,8.715587,6.812138,-129.046881
32642,-2.881637,3.665174,13.957934,2.055330,0.148047,4.757618,0.649408,-4.100500,-2.138129,-0.031280,0.036525,0.139074,0.999727,0.003247,-0.020501,-0.010690,0.413132,0.069447,-0.053711,-0.906429,8.932372,4.675879,-130.629473
32643,-1.069322,5.926314,12.796836,3.039577,-2.361982,3.795706,0.566492,-4.386614,-1.837715,-0.012956,0.059013,0.127868,0.999713,0.002832,-0.021931,-0.009188,0.403282,0.051198,-0.064697,-0.911349,9.169304,2.357604,-132.071065
32644,0.792928,5.794143,11.861703,2.084369,-3.364121,2.805691,0.337424,-4.322532,-1.536515,0.005806,0.057691,0.118855,0.999736,0.001687,-0.021611,-0.007682,0.394660,0.032656,-0.074573,-0.915214,9.338997,0.052276,-133.342238
32645,-1.906442,5.098704,12.976923,3.592536,-0.439991,3.785485,0.450940,-4.363083,-1.209587,-0.021583,0.050820,0.129431,0.999741,0.002255,-0.021814,-0.006047,0.387294,0.014011,-0.085046,-0.917918,9.620361,-2.301246,-134.441337
32646,-2.621569,5.557880,13.381653,4.740607,0.215672,4.125838,0.483486,-4.728141,-0.949609,-0.029108,0.055390,0.133285,0.999706,0.002417,-0.023638,-0.004748,0.380748,-0.006362,-0.096363,-0.919622,9.963311,-4.880717,-135.443925
32647,-0.223731,4.313919,11.453047,2.652553,-0.523968,2.124463,0.601269,-5.080021,-0.613599,-0.005015,0.042807,0.114556,0.999668,0.003006,-0.025397,-0.003068,0.375344,-0.028283,-0.108807,-0.920042,10.404941,-7.684794,-136.313366
32648,1.883832,4.651053,9.921362,1.741955,-2.096265,0.965137,1.030400,-5.183595,-0.100692,0.016278,0.045988,0.099896,0.999651,0.005151,-0.025915,-0.000503,0.372046,-0.050138,-0.123285,-0.918623,11.097410,-10.594209,-136.935775
32649,2.600563,5.501300,9.348278,2.109975,-2.853873,0.760615,1.300515,-5.182368,0.463031,0.023440,0.054457,0.094468,0.999640,0.006502,-0.025909,0.002315,0.371143,-0.071792,-0.138762,-0.915338,11.916914,-13.557954,-137.279409
32650,4.074412,5.812066,7.992252,1.527714,-3.995009,-0.017908,1.368764,-5.126589,0.942224,0.038399,0.057752,0.081323,0.999637,0.006843,-0.025630,0.004711,0.372226,-0.093349,-0.154186,-0.910473,12.732235,-16.544996,-137.386553
32651,6.489134,5.010054,6.172101,-0.562269,-5.249206,-1.014292,1.401729,-4.710471,1.276640,0.063089,0.050066,0.063572,0.999678,0.007008,-0.023550,0.006383,0.374911,-0.113139,-0.168719,-0.904530,13.507361,-19.340759,-137.285817
32652,6.453203,5.170790,5.694859,-0.197978,-5.167723,-1.207464,1.464912,-4.129166,1.486678,0.062948,0.051754,0.058638,0.999732,0.007324,-0.020644,0.007433,0.378852,-0.130299,-0.182235,-0.897933,14.253927,-21.843939,-137.013030
32653,6.112198,5.284222,5.867022,0.382423,-4.634720,-0.977390,1.385263,-3.562253,1.702611,0.059609,0.052941,0.060107,0.999781,0.006926,-0.017810,0.008512,0.384040,-0.145195,-0.194092,-0.890932,14.870338,-24.066497,-136.549536
32654,5.624720,4.896587,5.617769,0.630482,-3.915477,-1.360836,1.381392,-3.084838,2.014104,0.054874,0.049130,0.057370,0.999806,0.006907,-0.015423,0.010070,0.390919,-0.158218,-0.204707,-0.883314,15.361262,-26.075780,-135.832922
32655,6.354327,4.641630,5.270985,0.163176,-4.140484,-1.296513,1.425095,-2.604724,2.366017,0.062295,0.046777,0.053859,0.999820,0.007125,-0.013023,0.011829,0.399730,-0.169334,-0.214229,-0.875013,15.722736,-27.879084,-134.821230
32656,5.519030,3.884804,5.823176,0.392243,-2.675003,-1.318920,1.529839,-2.133168,2.652329,0.054045,0.039120,0.059111,0.999826,0.007649,-0.010665,0.013261,0.410247,-0.178426,-0.222941,-0.866117,15.987677,-29.472005,-133.540280
32657,4.742425,3.336560,6.403414,0.684004,-1.367207,-1.310669,1.600702,-1.855625,2.804970,0.046357,0.033505,0.064735,0.999827,0.008003,-0.009278,0.014024,0.421652,-0.186280,-0.231189,-0.856774,16.184320,-30.941531,-132.099939
32658,5.536215,3.505367,5.354032,0.408927,-2.363146,-1.698132,1.685660,-1.593504,2.959603,0.054409,0.035408,0.054274,0.999823,0.008428,-0.007967,0.014797,0.433957,-0.192945,-0.239012,-0.846952,16.310719,-32.294540,-130.492948
32659,6.456245,3.465850,4.580524,-0.026488,-3.234465,-1.799633,1.674441,-1.140814,3.128567,0.063750,0.035273,0.046464,0.999826,0.008372,-0.005704,0.015642,0.447350,-0.197854,-0.245572,-0.836915,16.284735,-33.427861,-128.669048
32660,6.579553,2.269491,4.063130,-0.966974,-2.961760,-2.380329,1.760337,-0.642517,3.268149,0.065286,0.023404,0.041046,0.999823,0.008801,-0.003212,0.016340,0.461873,-0.200585,-0.251138,-0.826661,16.161461,-34.306507,-126.632483
32661,6.267595,2.088635,4.207179,-0.786046,-2.547271,-2.448120,2.035897,-0.189088,3.446677,0.062269,0.021532,0.042348,0.999799,0.010179,-0.000945,0.017232,0.477798,-0.200960,-0.256540,-0.815789,16.046080,-34.961834,-124.369311
32662,5.548646,3.987057,4.600422,1.412616,-2.535386,-2.104165,2.216353,0.179884,3.683631,0.054788,0.040371,0.046400,0.999769,0.011081,0.000899,0.018417,0.495144,-0.199611,-0.261430,-0.804140,15.870217,-35.445042,-121.856168
32663,5.217651,4.591565,4.976848,2.278502,-2.190168,-1.870150,2.084680,0.527350,3.842917,0.051420,0.046387,0.050114,0.999758,0.010423,0.002637,0.019213,0.513212,-0.197313,-0.264667,-0.792232,15.496672,-35.753279,-119.154995
32664,4.672069,3.027078,4.959174,1.187936,-1.215801,-2.553600,1.956736,0.843483,3.898583,0.046335,0.030691,0.049695,0.999753,0.009783,0.004217,0.019491,0.531549,-0.194060,-0.266383,-0.780280,14.976802,-35.876059,-116.345544
32665,5.096855,1.702052,4.782380,-0.102931,-1.243989,-2.728404,1.943301,1.177727,3.786179,0.050921,0.017521,0.047692,0.999756,0.009716,0.005888,0.018929,0.549612,-0.189303,-0.267159,-0.768582,14.460003,-35.778768,-113.552794
32666,3.944132,1.289201,5.749192,-0.067250,0.269932,-2.727931,2.001144,1.482718,3.614270,0.039632,0.013033,0.057329,0.999759,0.010005,0.007413,0.018070,0.567218,-0.182887,-0.267330,-0.757200,14.024460,-35.466823,-110.831305
32667,3.053466,1.555579,6.566939,0.410102,1.343132,-2.539746,2.049875,1.591299,3.439834,0.030791,0.015411,0.065584,0.999768,0.010249,0.007956,0.017198,0.584078,-0.175611,-0.267433,-0.745985,13.699533,-35.058261,-108.226571
32668,3.360772,2.613435,7.002065,1.290376,1.150716,-1.802422,2.053643,1.673986,3.323551,0.033761,0.025976,0.070006,0.999774,0.010267,0.008369,0.016617,0.600359,-0.167770,-0.267266,-0.734841,13.438136,-34.574711,-105.702570
32669,2.507839,2.543578,7.436625,1.325842,2.071842,-1.937945,1.874333,1.695492,3.135094,0.025313,0.025134,0.074389,0.999797,0.009371,0.008477,0.015674,0.615562,-0.160074,-0.266441,-0.724202,13.174212,-34.047130,-103.321627
32670,2.264222,1.490335,7.541334,0.262474,2.387213,-2.167364,1.626298,1.640911,2.789589,0.023055,0.014610,0.075345,0.999836,0.008131,0.008204,0.013947,0.629026,-0.152812,-0.265044,-0.714651,12.928529,-33.494273,-101.197891
32671,2.494232,0.167368,6.933409,-1.066180,1.854180,-2.759647,1.525954,1.616115,2.391950,0.025483,0.001448,0.069141,0.999867,0.007629,0.008080,0.011959,0.640766,-0.145388,-0.263611,-0.706251,12.801112,-32.900826,-99.360682
32672,3.155378,-0.462491,5.690891,-1.650820,0.524691,-3.523425,1.428902,1.658138,1.970233,0.032070,-0.004716,0.056611,0.999892,0.007144,0.008290,0.009851,0.650854,-0.137530,-0.261923,-0.699193,12.788004,-32.226499,-97.809563
32673,5.316731,-1.627901,3.418786,-2.697981,-2.639887,-4.487698,1.466963,1.970541,1.533227,0.053624,-0.016117,0.033542,0.999895,0.007335,0.009852,0.007666,0.659707,-0.127861,-0.259614,-0.693570,12.949078,-31.325516,-96.511859
32674,7.288266,-1.264345,1.663852,-2.182205,-5.392095,-4.950093,1.530303,2.660188,1.021787,0.073158,-0.012392,0.015571,0.999869,0.007651,0.013300,0.005109,0.667572,-0.114891,-0.255499,-0.689832,13.288432,-29.976119,-95.451610
32675,7.704823,-1.563348,1.076176,-2.324830,-6.228823,-5.481922,1.694888,3.599397,0.517866,0.077264,-0.015516,0.009241,0.999799,0.008474,0.017996,0.002589,0.674767,-0.097465,-0.249040,-0.687873,13.837497,-28.045633,-94.573872
32676,5.609762,-0.355308,2.189685,-1.175201,-4.013843,-5.466214,2.103578,4.496900,0.275238,0.056575,-0.003697,0.020590,0.999691,0.010517,0.022482,0.001376,0.682105,-0.075209,-0.240932,-0.686315,14.650243,-25.589178,-93.696806
32677,3.909536,1.929380,2.518188,1.071722,-2.430648,-5.536257,2.093387,5.148258,0.040721,0.039726,0.019044,0.024365,0.999614,0.010466,0.025738,0.000204,0.688943,-0.050438,-0.230511,-0.685331,15.500707,-22.752500,-92.836019
32678,3.408796,3.430982,3.813129,2.192613,-1.623214,-4.291666,1.568559,5.966660,-0.543841,0.035303,0.033920,0.037357,0.999521,0.007842,0.029829,-0.002719,0.693996,-0.023935,-0.215399,-0.686586,16.160496,-19.380471,-92.162336
32679,0.195186,1.441288,5.146070,-0.014229,1.421859,-4.658553,0.786677,6.517720,-1.129127,0.003709,0.014193,0.051415,0.999445,0.003933,0.032583,-0.005645,0.696822,0.002380,-0.195565,-0.690064,16.481164,-15.620450,-91.717698
32680,-1.339498,-1.762334,4.971680,-3.041669,2.391995,-5.987009,0.469391,6.814880,-1.756796,-0.011847,-0.017632,0.050097,0.999378,0.002346,0.034067,-0.008782,0.696960,0.029246,-0.173340,-0.695230,16.717741,-11.592889,-91.566717
32681,-4.344102,-0.228534,7.652348,-2.270782,5.549485,-3.370821,0.244745,6.919861,-2.453926,-0.040784,-0.001869,0.077963,0.999325,0.001223,0.034592,-0.012267,0.693897,0.056240,-0.149664,-0.702100,16.895465,-7.396236,-91.773335
32682,-8.392618,-2.292189,9.353154,-4.594789,9.300316,-2.362085,0.117145,6.423223,-2.869818,-0.081184,-0.021800,0.096156,0.999381,0.000586,0.032109,-0.014346,0.688142,0.081308,-0.126931,-0.709745,17.013289,-3.398320,-92.279191
32683,-10.341791,-0.273107,11.772617,-3.235316,10.805454,1.065050,0.416028,5.690220,-3.123902,-0.100042,-0.001400,0.120601,0.999471,0.002080,0.028446,-0.015617,0.680112,0.104856,-0.107541,-0.717557,17.275311,0.240644,-93.032772
32684,-10.349698,1.939433,14.068559,-1.729484,10.030757,4.509484,0.233507,4.663612,-3.205761,-0.099853,0.020848,0.143066,0.999599,0.001167,0.023315,-0.016027,0.670697,0.124064,-0.090832,-0.725619,17.382164,3.336719,-93.994743
32685,-8.605515,3.392920,14.826808,-0.584009,7.429795,5.992631,-0.111551,3.635545,-3.200025,-0.082783,0.035355,0.149773,0.999707,-0.000558,0.018176,-0.015999,0.660586,0.138289,-0.076258,-0.733953,17.229190,5.868506,-95.133289
32686,-5.900730,2.961187,14.769087,-1.072912,4.188735,5.775385,-0.534593,2.759786,-3.141830,-0.056484,0.030908,0.148400,0.999778,-0.002673,0.013798,-0.015708,0.650305,0.147818,-0.063025,-0.742483,16.773319,7.905192,-96.405618
32687,-3.924442,1.374830,13.813626,-2.369626,2.114743,4.258825,-0.544017,2.141637,-2.942688,-0.037551,0.014686,0.138505,0.999831,-0.002720,0.010708,-0.014713,0.640321,0.154898,-0.051881,-0.750536,16.268363,9.559532,-97.692114
32688,-3.787535,2.957900,13.666854,-0.738842,1.372551,4.590006,-0.473777,1.616743,-2.737995,-0.036357,0.030408,0.136895,0.999871,-0.002369,0.008083,-0.013689,0.630723,0.160138,-0.042832,-0.758097,15.773443,10.880942,-98.968570
32689,-3.873932,2.898794,13.457592,-0.595635,1.193172,4.425657,-0.737026,1.184906,-2.701367,-0.037541,0.029997,0.134691,0.999884,-0.003685,0.005924,-0.013506,0.621227,0.162859,-0.034155,-0.765759,15.087359,11.945757,-100.310601
32690,-4.039242,0.287227,12.001040,-2.444836,1.949523,2.460898,-0.768730,0.761264,-2.647263,-0.039888,0.003864,0.120149,0.999898,-0.003844,0.003806,-0.013236,0.611756,0.163819,-0.026720,-0.773436,14.352158,12.751010,-101.702977
32691,-1.692506,4.040209,9.659604,1.362411,-1.011270,0.657021,-0.083423,0.743754,-2.068065,-0.016147,0.040612,0.096640,0.999940,-0.000417,0.003719,-0.010340,0.603861,0.166699,-0.022445,-0.779140,14.061882,13.453523,-102.779280
32692,-1.997250,8.754953,10.051096,5.752917,-2.265590,2.163436,-0.821809,1.046177,-1.584939,-0.018751,0.088114,0.100250,0.999946,-0.004109,0.005231,-0.007925,0.598429,0.168459,-0.014795,-0.783125,13.410670,14.249327,-103.545324
32693,-5.608088,0.396898,10.277892,-1.185192,3.253181,1.378882,-1.068084,1.047106,-1.330037,-0.055511,0.004889,0.103046,0.999950,-0.005340,0.005235,-0.006650,0.594140,0.169447,-0.006381,-0.786285,12.641284,15.003929,-104.177113
32694,-6.067879,-1.473395,10.994886,-2.893352,3.958675,1.842035,-0.583363,0.695420,-1.465454,-0.060400,-0.013970,0.110201,0.999963,-0.002917,0.003477,-0.007327,0.588845,0.170484,-0.000812,-0.790060,12.108192,15.570861,-104.942880
32695,-5.222302,-2.331930,11.968140,-4.039573,3.157361,2.420770,-0.410104,0.442527,-2.055123,-0.052192,-0.022537,0.119844,0.999943,-0.002050,0.002213,-0.010275,0.581016,0.171017,0.003846,-0.795713,11.561977,16.059225,-106.090957
32696,-6.706218,-2.194692,14.057283,-3.903985,4.018426,4.884401,-0.217350,-0.021785,-2.676202,-0.067362,-0.020894,0.140589,0.999910,-0.001087,-0.000109,-0.013381,0.570475,0.170227,0.006904,-0.803451,11.001710,16.344702,-107.663459
32697,-5.899217,-0.871571,15.150598,-2.980209,2.611648,5.979491,-0.233612,-0.697098,-3.187604,-0.059647,-0.007592,0.151308,0.999866,-0.001168,-0.003485,-0.015937,0.557787,0.166618,0.008557,-0.813043,10.320344,16.288925,-109.615081
32698,-4.046538,-0.829398,14.876857,-3.221986,1.069949,5.248882,-0.145469,-1.257502,-3.545719,-0.041537,-0.007456,0.148515,0.999823,-0.000727,-0.006287,-0.017728,0.543421,0.160913,0.008562,-0.823849,9.624985,15.928723,-111.831571
32699,-2.563736,1.440011,14.107031,-1.321704,-0.901731,4.508319,0.054927,-1.644738,-3.627611,-0.026530,0.014837,0.140859,0.999802,0.000275,-0.008223,-0.018137,0.528368,0.154086,0.006779,-0.834888,9.038763,15.334452,-114.124468
32700,-1.512047,3.309578,12.880907,0.340443,-2.326118,3.364161,0.184420,-1.817531,-3.468120,-0.015715,0.033246,0.128699,0.999808,0.000922,-0.009087,-0.017339,0.513681,0.146832,0.003846,-0.845315,8.578692,14.607126,-116.326093
32701,-2.547322,4.274119,12.716418,1.753811,-1.776085,3.612389,0.234650,-1.892410,-3.237469,-0.025980,0.043010,0.126970,0.999824,0.001173,-0.009461,-0.016186,0.499742,0.139330,0.000363,-0.854894,8.207638,13.803249,-118.386637
32702,-4.502241,3.477049,13.218136,1.999485,0.319095,4.434246,0.343980,-2.218535,-3.056844,-0.045949,0.035241,0.131735,0.999820,0.001720,-0.011092,-0.015283,0.486322,0.130668,-0.004553,-0.863942,7.954867,12.788365,-120.355893
32703,-4.640463,3.398920,13.257343,2.196995,0.624182,4.456875,0.438209,-2.676225,-2.957875,-0.047667,0.034398,0.132016,0.999799,0.002191,-0.013380,-0.014788,0.473071,0.120197,-0.011030,-0.872717,7.799082,11.499537,-122.292129
32704,-4.447971,2.095612,12.697979,1.383574,1.447053,3.655653,0.488925,-3.015309,-2.900080,-0.046081,0.021307,0.126345,0.999778,0.002444,-0.015075,-0.014499,0.459823,0.108320,-0.018582,-0.881183,7.724529,10.009479,-124.209214
32705,-4.318137,3.232955,12.173482,2.583739,0.960157,3.213613,0.677559,-3.361531,-2.792093,-0.044767,0.032536,0.121101,0.999756,0.003388,-0.016806,-0.013959,0.446702,0.095285,-0.027789,-0.889160,7.815089,8.315329,-126.082407
32706,-4.337287,3.298680,12.226595,2.887195,1.191429,3.203263,0.673003,-3.665220,-2.588332,-0.045177,0.033154,0.121560,0.999743,0.003365,-0.018325,-0.012941,0.434221,0.080820,-0.037759,-0.896379,7.975805,6.436282,-127.858180
32707,-5.111182,4.762415,12.704550,4.693138,1.175443,3.854287,0.697474,-4.132558,-2.343103,-0.053165,0.047798,0.126128,0.999712,0.003487,-0.020661,-0.011714,0.422504,0.064220,-0.048911,-0.902759,8.220028,4.279409,-129.531816
32708,-0.690390,4.253073,10.818676,2.071106,-1.659427,1.525444,0.354184,-4.409164,-2.091438,-0.008844,0.042425,0.108081,0.999701,0.001771,-0.022044,-0.010456,0.411717,0.045549,-0.059170,-0.908248,8.341527,1.949447,-131.087421
32709,1.819322,3.942352,9.349225,0.579196,-3.145259,-0.013610,0.424205,-4.231659,-1.755992,0.016553,0.039074,0.093937,0.999735,0.002121,-0.021156,-0.008779,0.402257,0.027706,-0.069407,-0.912472,8.566394,-0.302391,-132.442752
32710,0.794471,4.454895,10.840568,1.665080,-2.269194,1.591778,0.413620,-3.964548,-1.432510,0.006111,0.044276,0.108631,0.999776,0.002068,-0.019821,-0.007162,0.394169,0.010931,-0.079087,-0.915564,8.834081,-2.426140,-133.601715
32711,-3.579147,4.424911,13.247168,4.738904,1.570520,3.712525,0.340278,-4.178450,-1.166763,-0.038291,0.044243,0.131764,0.999763,0.001701,-0.020891,-0.005833,0.387036,-0.007076,-0.088817,-0.917750,9.095231,-4.688529,-134.640645
32712,-0.084621,3.658327,10.781297,2.221413,-0.468574,1.343274,0.005827,-4.574611,-1.074053,-0.003115,0.036593,0.107760,0.999724,0.000029,-0.022871,-0.005370,0.379940,-0.027587,-0.097744,-0.919419,9.208542,-7.180833,-135.674340
32713,3.064169,2.090265,8.789051,-0.795463,-1.654007,-0.451889,0.114203,-4.372097,-0.972296,0.028812,0.020709,0.088546,0.999749,0.000571,-0.021859,-0.004861,0.373227,-0.046990,-0.106707,-0.920384,9.417107,-9.563980,-136.643303
32714,1.143706,2.609472,9.422706,1.179339,-0.259467,-0.043657,0.554273,-4.238744,-0.742435,0.009532,0.025795,0.094514,0.999765,0.002771,-0.021192,-0.003712,0.367563,-0.065064,-0.117351,-0.920268,9.895153,-11.889269,-137.488553
32715,1.617854,4.509045,8.844882,2.358496,-1.741682,-0.191243,0.753782,-4.387361,-0.418562,0.014325,0.044725,0.088946,0.999750,0.003769,-0.021935,-0.002093,0.363189,-0.083608,-0.129014,-0.918945,10.488599,-14.322260,-138.191208
32716,3.524957,5.131134,6.929251,1.499440,-3.663256,-1.381283,1.106007,-4.335900,0.165725,0.033690,0.050953,0.070317,0.999749,0.005530,-0.021678,0.000829,0.361496,-0.101617,-0.141903,-0.915892,11.230861,-16.782251,-138.584234
32717,3.348201,7.012121,7.343683,3.171596,-4.387853,-0.594151,1.401435,-4.117555,0.915647,0.031634,0.069749,0.074590,0.999753,0.007007,-0.020586,0.004578,0.363363,-0.118567,-0.155292,-0.910930,12.025353,-19.200013,-138.547870
32718,0.835621,6.555205,8.205172,4.962658,-1.802151,-0.696812,1.451833,-4.132574,1.635715,0.006119,0.065010,0.082667,0.999727,0.007259,-0.020661,0.008178,0.368337,-0.135997,-0.168437,-0.904136,12.709516,-21.715780,-138.116300
32719,4.880469,5.420857,5.649423,1.318422,-4.226407,-1.719273,1.387574,-4.102143,2.166896,0.047039,0.054326,0.057848,0.999707,0.006937,-0.020509,0.010833,0.375484,-0.153768,-0.180778,-0.895928,13.220046,-24.285810,-137.379362
32720,8.247001,4.349914,3.714836,-1.681761,-6.197499,-2.100306,1.487620,-3.373280,2.598412,0.081252,0.044275,0.038853,0.999746,0.007437,-0.016865,0.012991,0.385096,-0.168402,-0.191769,-0.886886,13.602621,-26.513346,-136.276936
32721,7.075427,4.006088,4.667006,-0.728941,-4.614922,-1.685509,1.659998,-2.555936,3.018988,0.069536,0.040723,0.047900,0.999770,0.008299,-0.012779,0.015094,0.397311,-0.179396,-0.201510,-0.877129,13.868393,-28.348333,-134.780755
32722,5.778430,4.079021,5.623750,0.555663,-3.179169,-1.372903,1.827543,-2.062181,3.445148,0.056490,0.041251,0.057200,0.999757,0.009137,-0.010310,0.017224,0.411857,-0.188243,-0.210520,-0.866383,14.010656,-29.972826,-132.917483
32723,5.816507,4.330853,5.579733,0.986642,-3.168978,-1.286466,1.977697,-1.624926,3.789478,0.056880,0.043837,0.056695,0.999739,0.009888,-0.008124,0.018946,0.428284,-0.195150,-0.218862,-0.854745,14.034611,-31.404513,-130.735939
32724,5.643121,4.017807,5.080093,1.006676,-2.976272,-1.817940,2.056496,-1.226398,4.024306,0.055300,0.040771,0.051560,0.999726,0.010282,-0.006131,0.020120,0.446003,-0.200342,-0.226329,-0.842448,13.925127,-32.645685,-128.301814
32725,7.386965,3.360304,3.710558,-0.375335,-4.447089,-2.085992,2.213747,-0.670641,4.183188,0.073025,0.034721,0.037732,0.999714,0.011068,-0.003353,0.020914,0.464922,-0.202908,-0.232950,-0.829705,13.743008,-33.594649,-125.638930
32726,6.324634,3.483169,3.885283,0.536215,-3.606873,-2.469238,2.472758,-0.073003,4.431020,0.062447,0.035737,0.039314,0.999678,0.012362,-0.000365,0.022153,0.485551,-0.202560,-0.238847,-0.816187,13.513191,-34.235750,-122.682436
32727,5.565108,3.530913,4.103721,1.165543,-2.884345,-2.699596,2.601749,0.349629,4.676993,0.054886,0.036062,0.041407,0.999640,0.013007,0.001748,0.023382,0.507480,-0.200333,-0.243853,-0.801789,13.191894,-34.663180,-119.470995
32728,5.729517,3.339154,3.778677,1.110148,-3.048449,-2.904276,2.755877,0.816650,4.837196,0.056629,0.034244,0.038023,0.999604,0.013778,0.004083,0.024183,0.530400,-0.195886,-0.247928,-0.786661,12.830336,-34.833478,-116.061093
32729,5.885013,3.836717,3.687417,1.731997,-3.305471,-2.811249,2.874992,1.314213,4.993537,0.058120,0.039293,0.037051,0.999563,0.014373,0.006570,0.024964,0.554219,-0.189201,-0.250816,-0.770802,12.432739,-34.728351,-112.468063
32730,6.558703,3.385559,2.943846,1.328792,-4.098234,-3.136057,2.823477,1.845050,5.021400,0.064987,0.035078,0.029327,0.999543,0.014115,0.009224,0.025103,0.578275,-0.180476,-0.251760,-0.754747,11.968543,-34.305177,-108.788739
32731,6.614422,1.536958,3.262536,-0.228897,-3.626032,-3.213379,2.909889,2.542986,4.875874,0.066161,0.016514,0.032019,0.999516,0.014547,0.012713,0.024375,0.602185,-0.168522,-0.250937,-0.738921,11.608205,-33.454163,-105.142776
32732,2.803614,1.635411,5.764003,0.645114,0.761900,-3.273506,3.040487,2.929791,4.596213,0.028506,0.016131,0.057471,0.999513,0.015200,0.014647,0.022977,0.625084,-0.154226,-0.249395,-0.723386,11.469649,-32.338132,-101.674600
32733,-0.380175,1.519602,8.676965,0.642397,4.920164,-2.524759,2.794260,2.915615,3.984846,-0.002820,0.013919,0.087016,0.999598,0.013969,0.014576,0.019922,0.645000,-0.139861,-0.247286,-0.709411,11.488456,-31.160464,-98.658728
32734,-1.214276,-0.640972,8.666882,-1.649048,5.565871,-3.232988,2.251759,2.578997,3.044403,-0.010915,-0.007558,0.086734,0.999738,0.011258,0.012894,0.015221,0.660368,-0.127174,-0.244802,-0.698436,11.597843,-30.063856,-96.333941
32735,1.737889,-2.758824,6.757312,-3.916691,1.853605,-3.688087,1.920686,2.468319,1.948264,0.018481,-0.028058,0.067082,0.999830,0.009603,0.012341,0.009741,0.671271,-0.114575,-0.242143,-0.691111,11.924673,-28.911399,-94.753083
32736,3.993069,-3.617553,4.363441,-4.584440,-1.526975,-4.841004,1.806846,2.678191,0.962220,0.040682,-0.036370,0.042765,0.999858,0.009034,0.013390,0.004811,0.678755,-0.100399,-0.238852,-0.687140,12.501746,-27.530465,-93.777627
32737,4.945569,-2.426011,3.367724,-3.305567,-2.995554,-5.145695,1.962475,3.185791,0.238304,0.050010,-0.024524,0.032644,0.999824,0.009812,0.015928,0.001191,0.684216,-0.083064,-0.234680,-0.685474,13.360516,-25.786603,-93.176794
32738,4.084111,-0.065330,3.856636,-1.097171,-2.095594,-4.717768,2.203493,3.737108,-0.094901,0.041552,-0.001092,0.037784,0.999765,0.011017,0.018684,-0.000474,0.689005,-0.062581,-0.229471,-0.684616,14.415535,-23.697069,-92.673448
32739,2.697695,3.026006,5.440765,1.512355,-0.241389,-3.203240,2.222823,4.165564,-0.144413,0.028128,0.029637,0.054161,0.999721,0.011113,0.020826,-0.000722,0.693766,-0.040491,-0.222769,-0.683683,15.472438,-21.374690,-92.098470
32740,0.923485,3.406244,6.462628,1.553823,1.550382,-2.784547,1.915722,4.363572,-0.066416,0.010658,0.033439,0.064726,0.999716,0.009578,0.021816,-0.000332,0.698565,-0.018838,-0.214170,-0.682483,16.336557,-18.961790,-91.411959
32741,1.093693,1.763202,6.075325,-0.041426,0.881073,-3.454302,1.682234,4.595969,-0.141238,0.012343,0.017113,0.060626,0.999700,0.008410,0.022978,-0.000706,0.702926,0.002870,-0.203866,-0.681414,17.088893,-16.421111,-90.703237
32742,0.037154,2.810753,7.275657,0.522165,1.976279,-2.286345,1.325531,4.975605,-0.545502,0.002260,0.027620,0.072900,0.999665,0.006627,0.024875,-0.002727,0.705859,0.025040,-0.190857,-0.681696,17.704038,-13.609100,-90.133874
32743,-1.242552,0.112570,7.549109,-2.205443,2.727347,-3.013426,0.574785,5.188424,-1.189968,-0.010456,0.000974,0.075782,0.999642,0.002874,0.025939,-0.005949,0.706403,0.045873,-0.174345,-0.684466,17.982051,-10.574769,-89.870639
32744,-2.640526,-2.235874,8.109921,-4.644763,3.693254,-3.292405,0.255337,5.357246,-1.986488,-0.024442,-0.022214,0.081743,0.999591,0.001277,0.026783,-0.009931,0.703902,0.066825,-0.155808,-0.689768,18.152577,-7.305457,-90.006502
32745,-5.128985,-3.355165,9.824202,-6.227243,5.947745,-2.073050,0.145822,5.294681,-2.880122,-0.049143,-0.032906,0.099538,0.999546,0.000729,0.026469,-0.014398,0.697701,0.087804,-0.136694,-0.697724,18.300582,-3.911624,-90.632207
32746,-7.491483,-2.729423,12.079278,-6.224851,8.034625,0.489749,0.008976,4.849078,-3.663658,-0.072441,-0.025957,0.122568,0.999538,0.000045,0.024242,-0.018315,0.687883,0.107216,-0.118175,-0.708065,18.353206,-0.615864,-91.756104
32747,-8.355443,-2.840832,13.096536,-6.453865,8.466977,1.850326,-0.026089,4.128495,-4.143382,-0.081392,-0.026690,0.132664,0.999572,-0.000130,0.020640,-0.020714,0.675350,0.124136,-0.101647,-0.719833,18.317282,2.373851,-93.269561
32748,-7.624879,-0.097094,13.350669,-3.788465,7.093750,3.290216,0.202777,3.303453,-4.307084,-0.074030,0.000503,0.134742,0.999631,0.001014,0.016515,-0.021533,0.661127,0.138854,-0.088546,-0.731977,18.324493,4.944783,-95.024853
32749,-6.031900,3.452895,13.525056,-0.480938,4.604652,4.670769,0.016921,2.665033,-4.218377,-0.057764,0.035754,0.136035,0.999689,0.000085,0.013324,-0.021090,0.646626,0.150480,-0.076863,-0.743857,18.142453,7.150019,-96.856905
32750,-5.005119,4.914521,13.265757,0.992078,2.859154,4.884249,-0.420725,2.157039,-3.933989,-0.047634,0.050378,0.133075,0.999746,-0.002103,0.010784,-0.019668,0.632949,0.158616,-0.065378,-0.754946,17.653096,9.017139,-98.643818
32751,-4.823553,3.271984,12.889988,-0.283912,2.577295,4.093615,-0.794505,1.677530,-3.637007,-0.046541,0.034089,0.129161,0.999792,-0.003972,0.008387,-0.018184,0.620240,0.163583,-0.054189,-0.765250,16.904381,10.552945,-100.377525
32752,-5.020344,1.459380,13.042011,-1.791506,2.822597,3.834312,-0.771038,1.242257,-3.563641,-0.049116,0.015979,0.130668,0.999815,-0.003855,0.006211,-0.017817,0.607429,0.166878,-0.044494,-0.775372,16.117737,11.813828,-102.170957
32753,-5.921741,0.130436,13.774936,-2.829614,3.694579,4.440948,-0.791558,0.691612,-3.758790,-0.058695,0.002957,0.137943,0.999810,-0.003958,0.003458,-0.018793,0.593527,0.167953,-0.036191,-0.786262,15.235545,12.776507,-104.187909
32754,-6.030758,-1.452597,13.542310,-3.906790,4.169483,3.942973,-0.573041,0.102529,-3.947420,-0.060504,-0.012945,0.135493,0.999801,-0.002865,0.000513,-0.019736,0.578363,0.167333,-0.030344,-0.797857,14.404201,13.409846,-106.421428
32755,-4.530296,0.856592,12.527254,-1.664145,2.101337,3.264059,-0.134672,-0.377029,-3.880903,-0.045360,0.009530,0.125181,0.999810,-0.000673,-0.001885,-0.019403,0.562798,0.165986,-0.027649,-0.809286,13.792597,13.741321,-108.698665
32756,-3.065779,4.886739,12.146854,1.773341,-0.771208,3.494548,-0.321644,-0.484526,-3.708366,-0.030036,0.049623,0.121316,0.999824,-0.001608,-0.002422,-0.018541,0.547864,0.163598,-0.024660,-0.820044,13.084810,13.963007,-110.897671
32757,-4.099971,4.461976,12.452405,1.809825,0.128225,3.916269,-0.701287,-0.554228,-3.465760,-0.040558,0.045761,0.124252,0.999840,-0.003506,-0.002771,-0.017328,0.534043,0.159794,-0.020467,-0.829967,12.180527,14.086514,-112.970952
32758,-4.588136,4.587324,13.344543,2.059547,0.240842,4.879675,-0.829025,-0.859507,-3.200244,-0.045706,0.047158,0.133055,0.999854,-0.004145,-0.004297,-0.016000,0.521230,0.154311,-0.016794,-0.839181,11.233897,13.974095,-114.928642
32759,-2.956222,3.250392,13.011587,0.547175,-0.628645,3.895231,-0.901515,-1.146832,-2.987678,-0.029811,0.033534,0.129796,0.999862,-0.004507,-0.005734,-0.014938,0.509191,0.147368,-0.013698,-0.847832,10.272973,13.646817,-116.791091
32760,-2.794558,3.366492,13.493274,0.656153,-0.908680,4.327743,-0.684212,-1.309079,-2.765910,-0.028354,0.034516,0.134631,0.999877,-0.003421,-0.006545,-0.013829,0.497789,0.140240,-0.012122,-0.855799,9.480069,13.177302,-118.532317
32761,-4.008245,3.944362,15.402183,1.471049,-0.373149,6.513400,-0.735107,-1.707839,-2.611973,-0.040870,0.040539,0.153527,0.999872,-0.003675,-0.008539,-0.013059,0.486931,0.131229,-0.011401,-0.863450,8.687061,12.445816,-120.210483
32762,-3.918960,1.196354,15.685611,-0.621516,1.068117,6.351706,-0.689934,-2.260810,-2.563735,-0.040797,0.013020,0.156357,0.999848,-0.003449,-0.011303,-0.012818,0.476084,0.119906,-0.012275,-0.871100,7.947881,11.374030,-121.891245
32763,-6.180511,1.350577,16.369256,0.927651,3.026662,7.447989,-0.251548,-2.964356,-2.555202,-0.064041,0.014520,0.162737,0.999808,-0.001258,-0.014821,-0.012775,0.464804,0.106516,-0.016709,-0.878825,7.488202,9.885849,-123.603419
32764,-5.921412,3.379237,15.854948,2.999862,2.003744,7.063874,-0.135259,-3.815475,-2.628937,-0.061772,0.034700,0.157364,0.999731,-0.000676,-0.019076,-0.013144,0.452852,0.089619,-0.023609,-0.886756,7.135718,7.906520,-125.400923
32765,-4.570148,3.461691,14.716746,2.965706,1.268809,5.647426,-0.013779,-4.477695,-2.568165,-0.048531,0.035238,0.146100,0.999667,-0.000069,-0.022386,-0.012839,0.440764,0.069998,-0.032534,-0.894298,6.918515,5.538783,-127.191145
32766,-4.204102,5.288726,13.620869,4.795533,0.256273,4.612306,0.128622,-5.013556,-2.371189,-0.044807,0.053320,0.135143,0.999615,0.000643,-0.025065,-0.011854,0.429104,0.048215,-0.043347,-0.900925,6.870828,2.847324,-128.892844
32767,-0.859049,5.142554,10.873515,3.299400,-1.988591,1.613530,0.043453,-5.270113,-2.100099,-0.010911,0.051508,0.108479,0.999598,0.000217,-0.026347,-0.010499,0.418292,0.025000,-0.054334,-0.906341,6.857782,-0.007909,-130.452260
32768,0.344310,4.908110,10.047234,2.700545,-2.474600,0.757240,0.196093,-5.085751,-1.783999,0.001323,0.048964,0.100572,0.999636,0.000980,-0.025426,-0.008919,0.408621,0.002830,-0.065650,-0.910336,7.006574,-2.779858,-131.822609
32769,0.510832,5.440647,10.366072,3.226424,-2.577474,1.153127,0.161396,-4.846116,-1.534666,0.003011,0.054294,0.103794,0.999677,0.000807,-0.024228,-0.007673,0.399884,-0.018398,-0.076257,-0.913203,7.187840,-5.427670,-133.044708
32770,-0.015706,4.640779,10.116752,3.271354,-1.373160,0.736419,0.223829,-4.748578,-1.290403,-0.002260,0.046305,0.101182,0.999697,0.001119,-0.023740,-0.006451,0.392053,-0.039143,-0.086903,-0.914992,7.447091,-8.034698,-134.135709
32771,1.162421,3.886715,9.580333,2.170882,-1.473358,0.254210,0.403034,-4.683935,-1.003612,0.009570,0.038622,0.096122,0.999711,0.002015,-0.023417,-0.005018,0.385365,-0.059335,-0.098119,-0.915612,7.832740,-10.619082,-135.078278
32772,0.832486,4.421922,8.986145,3.000218,-1.399578,-0.324660,0.882435,-4.756754,-0.621195,0.006318,0.043800,0.090222,0.999703,0.004412,-0.023781,-0.003106,0.380307,-0.079097,-0.111515,-0.914699,8.498738,-13.268833,-135.837828
32773,3.177113,5.607419,7.782190,2.348190,-3.753272,-0.730725,1.286768,-4.827411,-0.081211,0.029898,0.055556,0.078917,0.999688,0.006433,-0.024135,-0.000406,0.377608,-0.098656,-0.126600,-0.911950,9.363540,-15.994684,-136.332782
32774,3.964317,6.817122,7.235108,2.830480,-4.870068,-0.713993,1.652198,-4.696159,0.611612,0.037714,0.067683,0.073812,0.999686,0.008260,-0.023478,0.003058,0.378092,-0.117314,-0.142694,-0.907151,10.350672,-18.707999,-136.457649
32775,5.083093,8.430498,5.776058,3.321979,-6.783865,-1.257368,1.739601,-4.553010,1.406943,0.048895,0.084140,0.059621,0.999678,0.008697,-0.022763,0.007034,0.382095,-0.135637,-0.158352,-0.900294,11.241365,-21.422263,-136.139084
32776,7.981384,6.869161,4.346909,0.371943,-7.818437,-1.536708,1.778182,-3.920843,2.233835,0.078163,0.069172,0.045626,0.999706,0.008890,-0.019602,0.011168,0.390112,-0.151626,-0.172323,-0.891699,11.930030,-23.882290,-135.273642
32777,5.204273,5.547532,5.799958,1.704797,-4.245619,-1.413271,1.981215,-3.305936,2.951053,0.050248,0.055642,0.059391,0.999705,0.009905,-0.016528,0.014754,0.401776,-0.164995,-0.185360,-0.881473,12.488031,-26.092633,-133.897484
32778,4.441221,4.146458,6.289637,1.442690,-2.353991,-1.515628,2.087037,-3.031420,3.398207,0.042742,0.041536,0.063986,0.999686,0.010434,-0.015156,0.016989,0.415512,-0.177266,-0.197824,-0.869938,12.910561,-28.217358,-132.196456
32779,7.433754,2.464945,4.299450,-1.681080,-4.083914,-2.046940,2.217364,-2.526844,3.628530,0.073327,0.025500,0.044205,0.999694,0.011086,-0.012633,0.018141,0.430600,-0.187180,-0.209493,-0.857706,13.241342,-30.099746,-130.258431
32780,6.491459,2.953654,4.493036,-0.461959,-3.466583,-2.143778,2.480896,-1.823806,3.794359,0.063930,0.030190,0.045888,0.999702,0.012403,-0.009118,0.018970,0.447128,-0.193583,-0.220484,-0.844979,13.549178,-31.622230,-128.081463
32781,6.156032,3.433511,4.572267,0.363421,-3.275834,-2.084734,2.608982,-1.286888,4.005152,0.060567,0.034951,0.046568,0.999694,0.013044,-0.006434,0.020024,0.464985,-0.197542,-0.230495,-0.831648,13.754798,-32.882900,-125.656746
32782,6.244252,4.496979,4.015002,1.423133,-3.966634,-2.225509,2.789082,-0.762632,4.375275,0.061292,0.045751,0.041020,0.999656,0.013944,-0.003813,0.021874,0.484867,-0.199206,-0.239504,-0.817226,13.822165,-33.907047,-122.870237
32783,6.015324,4.671006,3.746412,1.923464,-3.853650,-2.499761,2.842661,-0.208803,4.738166,0.058993,0.047577,0.038198,0.999618,0.014211,-0.001044,0.023688,0.506587,-0.198765,-0.246876,-0.801819,13.680974,-34.671800,-119.719786
32784,5.978720,3.061199,3.439697,0.707337,-3.294219,-3.060658,2.918314,0.299686,5.013157,0.059055,0.031593,0.034764,0.999578,0.014590,0.001498,0.025062,0.529714,-0.196276,-0.252770,-0.785484,13.380745,-35.179178,-116.269553
32785,6.179782,2.722594,3.197198,0.552437,-3.422364,-3.194425,3.214919,0.914251,5.213283,0.061216,0.028311,0.032141,0.999521,0.016072,0.004571,0.026062,0.554207,-0.190666,-0.257804,-0.768139,13.090886,-35.357038,-112.568468
32786,4.279151,3.133398,4.340452,1.723762,-1.339681,-3.316445,3.138716,1.462243,5.212980,0.042286,0.031757,0.043590,0.999510,0.015691,0.007310,0.026061,0.578806,-0.182978,-0.260751,-0.750674,12.702496,-35.209119,-108.777524
32787,4.876303,0.328420,3.458768,-0.996950,-1.806454,-4.192221,2.873341,1.935567,4.899444,0.049003,0.003990,0.034168,0.999550,0.014365,0.009676,0.024494,0.602049,-0.173704,-0.261405,-0.734187,12.273054,-34.737731,-105.147198
32788,5.064126,-0.753884,3.220624,-1.959507,-2.101672,-4.490558,2.829385,2.597870,4.276214,0.051205,-0.006896,0.031443,0.999587,0.014145,0.012988,0.021378,0.623324,-0.161165,-0.260191,-0.719579,12.054212,-33.800877,-101.874220
32789,0.934696,-0.278959,6.046683,-1.071630,2.660077,-4.401144,2.769332,2.998190,3.563492,0.010309,-0.003447,0.060272,0.999633,0.013845,0.014989,0.017815,0.642013,-0.146329,-0.257915,-0.707027,12.109019,-32.553436,-99.065909
32790,-0.883110,0.410216,7.125456,-0.479426,4.586945,-4.295109,2.510230,2.878139,2.904864,-0.007854,0.003088,0.071415,0.999712,0.012550,0.014389,0.014523,0.657621,-0.131795,-0.255390,-0.696377,12.321936,-31.295933,-96.742914
32791,2.985808,-0.711953,4.117218,-1.635737,-0.438086,-4.964664,2.127864,2.974420,2.197916,0.030544,-0.007221,0.040645,0.999772,0.010639,0.014871,0.010989,0.670292,-0.117220,-0.251579,-0.688242,12.604008,-29.908313,-94.893058
32792,5.146060,-1.641689,1.594569,-2.232585,-3.771633,-6.276393,2.069189,3.569293,1.540716,0.051857,-0.016176,0.014854,0.999758,0.010345,0.017845,0.007703,0.681110,-0.099906,-0.245813,-0.682411,13.065656,-28.112544,-93.393985
32793,5.350319,-0.924811,1.555955,-1.460624,-4.114122,-6.229838,2.271134,4.378811,0.975539,0.053870,-0.009153,0.014278,0.999684,0.011354,0.021892,0.004877,0.690708,-0.078404,-0.238151,-0.678276,13.800807,-25.807288,-92.135709
32794,1.714864,1.605850,3.862643,0.610897,0.137016,-5.335626,2.356278,4.953468,0.609265,0.018053,0.015659,0.038373,0.999619,0.011780,0.024764,0.003046,0.699309,-0.054159,-0.228745,-0.675063,14.684052,-23.144320,-91.001270
32795,-0.780899,3.585998,6.472116,1.806019,3.373449,-3.432669,2.103067,5.092517,0.410351,-0.006224,0.035162,0.065265,0.999618,0.010514,0.025459,0.002051,0.706791,-0.030075,-0.217907,-0.672353,15.501199,-20.393812,-89.943987
32796,-1.881442,3.397931,8.041983,1.032493,4.616866,-2.238932,1.698750,4.930305,0.316176,-0.016873,0.033264,0.081136,0.999659,0.008493,0.024649,0.001581,0.713215,-0.007826,-0.206111,-0.669912,16.152702,-17.727378,-88.948856
32797,-2.331613,2.088035,8.285811,-0.462627,4.646040,-2.286970,1.426340,4.633839,0.219513,-0.021409,0.020262,0.083515,0.999706,0.007131,0.023167,0.001097,0.718543,0.012554,-0.194358,-0.667655,16.717967,-15.221111,-88.044717
32798,-1.875953,0.796734,8.268111,-1.809169,3.721942,-2.371105,1.339731,4.359950,0.007838,-0.016951,0.007411,0.083115,0.999740,0.006698,0.021798,0.000039,0.722510,0.031917,-0.183153,-0.665895,17.306077,-12.835526,-87.291235
32799,-2.003862,0.289410,8.608524,-2.515197,3.512947,-2.097343,1.283812,4.178769,-0.380641,-0.018229,0.002376,0.086495,0.999759,0.006419,0.020892,-0.001903,0.724663,0.050810,-0.172283,-0.665282,17.940132,-10.491484,-86.768004
32800,-2.394389,0.008256,8.799731,-2.956633,3.549843,-1.950515,1.082782,4.014126,-0.960618,-0.022172,-0.000286,0.088453,0.999772,0.005413,0.020069,-0.004803,0.724460,0.068907,-0.161093,-0.666677,18.532042,-8.136637,-86.572602
32801,-2.652391,-0.299784,9.368990,-3.513512,3.492255,-1.425162,0.915178,3.903052,-1.642484,-0.024715,-0.003220,0.094170,0.999765,0.004576,0.019514,-0.008212,0.721618,0.086541,-0.149451,-0.670405,19.081413,-5.719509,-86.748139
32802,-4.492567,1.120334,10.763316,-2.778194,5.169548,0.327703,0.721756,3.675273,-2.128337,-0.042818,0.011276,0.108474,0.999768,0.003609,0.018375,-0.010641,0.716725,0.103040,-0.137689,-0.675818,19.534390,-3.330673,-87.208300
32803,-4.113932,1.218540,10.395001,-2.543308,4.394542,0.220799,0.429355,3.377784,-2.433039,-0.039225,0.012446,0.104650,0.999781,0.002147,0.016888,-0.012164,0.710425,0.117647,-0.125791,-0.682373,19.809095,-1.041264,-87.874145
32804,-2.836244,1.657641,9.978663,-1.907064,2.758878,0.142429,0.047361,3.316330,-2.845282,-0.026463,0.016938,0.100240,0.999761,0.000237,0.016580,-0.014225,0.702580,0.130895,-0.112503,-0.690356,19.837304,1.297471,-88.767524
32805,-3.703895,0.508154,10.292031,-3.040037,3.233041,0.197058,-0.216839,3.319420,-3.217041,-0.035235,0.005770,0.103509,0.999732,-0.001084,0.016596,-0.016084,0.693271,0.143368,-0.097991,-0.699442,19.668006,3.708860,-89.864667
32806,-6.071111,1.353975,11.449686,-2.521039,5.118146,1.901240,-0.156364,3.070287,-3.273489,-0.058711,0.014602,0.115397,0.999748,-0.000782,0.015350,-0.016366,0.683238,0.155134,-0.084464,-0.708509,19.481137,5.993103,-91.050812
32807,-5.117184,1.722265,11.394103,-2.039603,3.755605,2.048909,-0.248897,2.666686,-3.227452,-0.049359,0.018171,0.114585,0.999780,-0.001244,0.013332,-0.016136,0.672947,0.165061,-0.071975,-0.717438,19.187773,8.046240,-92.303331
32808,-4.434977,1.895747,12.184473,-2.038013,2.588189,2.870271,-0.419197,2.433931,-3.215378,-0.042548,0.019907,0.122329,0.999795,-0.002096,0.012169,-0.016076,0.662470,0.173506,-0.059646,-0.726273,18.745683,9.962186,-93.612560
32809,-5.037443,1.030040,12.489840,-2.774894,2.876353,3.088753,-0.502301,2.119271,-3.153065,-0.048874,0.011393,0.125394,0.999816,-0.002511,0.010596,-0.015764,0.651938,0.180448,-0.048073,-0.734918,18.204901,11.685968,-94.969523
32810,-5.452467,0.341217,13.193852,-3.449647,2.955138,3.725405,-0.596926,1.711902,-3.199304,-0.053325,0.004666,0.132386,0.999831,-0.002984,0.008559,-0.015996,0.640995,0.185530,-0.037436,-0.743843,17.546722,13.180398,-96.451864
32811,-6.346607,-1.608051,12.947188,-4.912536,3.986405,3.243499,-0.323373,1.153997,-3.274292,-0.062967,-0.014837,0.129861,0.999848,-0.001617,0.005770,-0.016371,0.629207,0.189369,-0.029502,-0.753238,16.970458,14.368326,-98.098916
32812,-5.668692,1.008176,13.393855,-2.513048,2.547985,4.320005,-0.167574,0.632246,-3.430668,-0.056078,0.011160,0.134107,0.999848,-0.000838,0.003161,-0.017152,0.616415,0.191698,-0.023660,-0.763364,16.405619,15.277949,-99.943177
32813,-4.654499,0.671036,13.120049,-2.720815,1.576193,3.765176,-0.434762,0.271908,-3.737947,-0.046227,0.007862,0.131247,0.999822,-0.002174,0.001359,-0.018689,0.602458,0.191799,-0.017578,-0.774564,15.590909,16.018127,-102.041212
32814,-4.799148,0.488196,12.819118,-2.567889,1.726943,3.529715,-0.241473,-0.027074,-3.820801,-0.047902,0.005952,0.128178,0.999817,-0.001207,-0.000135,-0.019103,0.587752,0.191264,-0.013088,-0.785999,14.835560,16.575684,-104.250526
32815,-4.766605,3.146713,13.235061,-0.072828,0.685383,4.585567,-0.272536,-0.325789,-3.766535,-0.047275,0.032540,0.132230,0.999820,-0.001363,-0.001629,-0.018832,0.573053,0.189385,-0.009367,-0.797280,14.034472,16.932828,-106.486543
32816,-4.745065,2.144418,13.304584,-0.808121,0.892480,4.423600,-0.420059,-0.632860,-3.735876,-0.047456,0.022610,0.132849,0.999818,-0.002100,-0.003164,-0.018678,0.558396,0.185794,-0.005998,-0.808479,13.133101,17.081002,-108.755538
32817,-4.328872,2.091772,13.053562,-0.690602,0.532868,4.070598,-0.303913,-0.910916,-3.699912,-0.043483,0.021919,0.130305,0.999817,-0.001519,-0.004554,-0.018498,0.543563,0.181328,-0.003870,-0.819539,12.287110,17.037893,-111.043641
32818,-4.726769,3.602029,13.534108,0.853718,0.134593,4.943262,-0.271978,-1.139241,-3.648618,-0.047368,0.037068,0.135022,0.999816,-0.001360,-0.005696,-0.018242,0.528708,0.175952,-0.002574,-0.830363,11.469335,16.827159,-113.326625
32819,-4.696226,4.562083,14.237786,1.698401,-0.490436,5.758183,-0.331130,-1.491625,-3.520693,-0.047206,0.046686,0.141950,0.999816,-0.001656,-0.007458,-0.017602,0.514235,0.168882,-0.002041,-0.840855,10.638425,16.374339,-115.568293
32820,-4.231419,4.207763,15.081154,1.205084,-0.869264,6.337780,-0.412841,-1.872364,-3.396280,-0.042997,0.043115,0.150323,0.999810,-0.002064,-0.009361,-0.016980,0.500159,0.159944,-0.002282,-0.851031,9.799321,15.661356,-117.762705
32821,-4.392617,3.205685,15.468127,0.600456,-0.202728,6.570952,-0.227415,-2.335139,-3.248580,-0.045197,0.032960,0.154121,0.999799,-0.001137,-0.011675,-0.016242,0.486361,0.149429,-0.004554,-0.860873,9.110520,14.646107,-119.897102
32822,-4.971303,4.030219,16.149306,1.704784,-0.059861,7.474108,0.041560,-2.909682,-3.073352,-0.051429,0.041050,0.160762,0.999776,0.000208,-0.014547,-0.015366,0.472898,0.137033,-0.009543,-0.870344,8.640059,13.268030,-121.958739
32823,-6.652740,4.986351,16.969362,3.536604,0.984413,8.723214,0.208577,-3.665032,-2.891668,-0.068894,0.050672,0.168498,0.999727,0.001043,-0.018323,-0.014457,0.459838,0.121663,-0.017133,-0.879462,8.331576,11.434049,-123.957645
32824,-5.287399,5.770853,15.834278,4.135331,-0.136959,7.358018,0.032693,-4.456704,-2.811727,-0.055566,0.058451,0.157134,0.999653,0.000163,-0.022281,-0.014057,0.446884,0.102331,-0.025838,-0.888344,7.997500,9.132494,-125.950595
32825,-2.503229,3.409901,13.710388,1.534797,-0.454371,4.444845,0.083194,-4.869123,-2.696376,-0.027898,0.034405,0.136462,0.999613,0.000416,-0.024342,-0.013480,0.434035,0.081190,-0.035700,-0.896519,7.780691,6.579750,-127.885692
32826,-2.670876,3.739149,12.603542,2.474617,-0.098858,3.370809,0.441616,-5.049634,-2.419190,-0.029428,0.037459,0.125398,0.999606,0.002208,-0.025245,-0.012094,0.421911,0.059904,-0.047673,-0.903399,7.874403,3.899534,-129.663913
32827,-2.493463,5.682299,12.000229,4.272168,-1.093601,2.956070,0.566601,-5.271199,-2.095919,-0.027493,0.056763,0.119461,0.999594,0.002833,-0.026352,-0.010478,0.410819,0.037758,-0.060711,-0.908909,8.129396,1.074622,-131.278517
32828,0.833089,6.380222,10.584422,3.053803,-3.781115,1.579944,0.373308,-5.228872,-1.799799,0.006131,0.063542,0.106142,0.999616,0.001866,-0.026141,-0.008998,0.400796,0.015285,-0.072817,-0.913141,8.354915,-1.745156,-132.732196
32829,1.570958,5.199746,10.173116,1.970617,-3.223534,1.082616,0.297652,-4.866236,-1.502584,0.013617,0.051738,0.102157,0.999675,0.001488,-0.024329,-0.007512,0.391984,-0.005798,-0.083802,-0.916129,8.594340,-4.377195,-133.999828
32830,-1.029476,5.212345,11.254039,3.995859,-0.843480,1.942510,0.390779,-4.773019,-1.241399,-0.012655,0.051977,0.112359,0.999694,0.001954,-0.023863,-0.006206,0.384160,-0.026383,-0.094991,-0.917988,8.933023,-6.974166,-135.128674
32831,0.268109,4.651680,9.748958,3.015096,-1.317288,0.478583,0.382358,-4.953925,-1.053977,0.000509,0.046324,0.097609,0.999678,0.001912,-0.024767,-0.005269,0.376869,-0.047879,-0.106389,-0.918890,9.307601,-9.682039,-136.189451
32832,4.442351,4.124440,6.790494,-0.129047,-4.163191,-1.719784,0.633911,-4.783049,-0.771443,0.042939,0.040859,0.069074,0.999702,0.003169,-0.023913,-0.003857,0.370792,-0.068244,-0.118502,-0.918593,9.848032,-12.313224,-137.101764
32833,4.411287,4.393808,6.281979,0.213186,-4.159035,-2.010523,1.177019,-4.391170,-0.250796,0.042771,0.043509,0.064026,0.999741,0.005885,-0.021954,-0.001254,0.367316,-0.086066,-0.132128,-0.916632,10.667647,-14.764516,-137.711731
32834,1.481144,6.367551,7.782260,3.936993,-2.825190,-0.879229,1.707604,-4.266113,0.486772,0.012986,0.063039,0.078653,0.999733,0.008537,-0.021329,0.002434,0.367337,-0.102789,-0.147580,-0.912534,11.707875,-17.218740,-137.924482
32835,1.458794,8.517312,6.998094,5.610188,-4.161220,-1.161871,1.724869,-4.418146,1.323238,0.012466,0.084651,0.071004,0.999697,0.008623,-0.022088,0.006616,0.370861,-0.120724,-0.162872,-0.906289,12.631067,-19.854223,-137.709813
32836,5.599164,6.933686,4.483816,1.628672,-6.318591,-2.267187,1.672853,-4.075196,2.217413,0.054284,0.069561,0.046537,0.999696,0.008363,-0.020374,0.011086,0.378459,-0.137865,-0.176657,-0.898084,13.318314,-22.416949,-136.948826
32837,4.212165,5.893500,4.888120,2.148592,-4.278848,-2.503203,1.937480,-3.446938,3.060936,0.040361,0.059080,0.050159,0.999687,0.009686,-0.017233,0.015303,0.390344,-0.152334,-0.189758,-0.887929,13.893277,-24.750376,-135.600933
32838,5.762513,5.094564,4.462902,0.799691,-4.674083,-2.290984,2.028315,-2.930989,3.730055,0.056000,0.051538,0.045978,0.999667,0.010140,-0.014653,0.018648,0.405509,-0.164882,-0.201616,-0.876200,14.254845,-26.901259,-133.756146
32839,5.957016,3.773249,4.246078,-0.053181,-3.901643,-2.565962,2.311651,-2.257618,4.368392,0.058247,0.038515,0.043566,0.999631,0.011557,-0.011287,0.021839,0.424092,-0.174425,-0.212697,-0.862833,14.475808,-28.777294,-131.382977
32840,4.665987,4.105062,5.087359,1.347876,-2.589565,-2.331284,2.493592,-1.718871,4.747441,0.045236,0.041494,0.051782,0.999604,0.012466,-0.008593,0.023734,0.444723,-0.181537,-0.222913,-0.848278,14.554431,-30.414812,-128.643181
32841,4.652723,2.577512,5.411471,0.338472,-1.440028,-2.370773,2.332035,-1.300392,4.761155,0.045552,0.026232,0.054717,0.999628,0.011659,-0.006501,0.023803,0.465383,-0.187103,-0.231349,-0.833600,14.417036,-31.821185,-125.782193
32842,5.116707,0.681942,4.174628,-1.473419,-1.492647,-3.514107,2.513373,-0.847893,4.665556,0.050820,0.007480,0.042053,0.999640,0.012565,-0.004239,0.023325,0.486004,-0.190121,-0.239389,-0.818748,14.296307,-32.956970,-122.862832
32843,5.585878,2.760902,3.830804,0.311106,-2.819710,-3.071203,2.779919,-0.340612,4.705885,0.055131,0.028375,0.038793,0.999625,0.013898,-0.001703,0.023526,0.507285,-0.190320,-0.247094,-0.803359,14.207243,-33.812996,-119.797333
32844,4.932220,3.638326,4.703143,1.615293,-2.032747,-2.536801,2.744382,0.153774,4.804318,0.048476,0.036905,0.047498,0.999617,0.013720,0.000769,0.024019,0.529162,-0.188604,-0.253101,-0.787627,13.962741,-34.399679,-116.551696
32845,4.230601,3.584767,4.528444,1.970982,-1.463576,-3.087702,2.694969,0.501742,4.944211,0.041527,0.036267,0.045666,0.999601,0.013473,0.002508,0.024718,0.551561,-0.185679,-0.257688,-0.771298,13.570660,-34.798255,-113.132937
32846,5.134582,3.388010,3.900576,1.650734,-2.358345,-3.121889,2.772228,0.954630,5.036693,0.050667,0.034619,0.039239,0.999575,0.013859,0.004772,0.025180,0.574527,-0.180761,-0.261001,-0.754402,13.120399,-34.934358,-109.561610
32847,4.440455,3.196334,4.348352,1.797216,-1.430621,-3.212386,2.684902,1.436113,4.967460,0.043915,0.032473,0.043601,0.999576,0.013423,0.007180,0.024834,0.597283,-0.174036,-0.262472,-0.737613,12.608228,-34.769968,-105.964292
32848,4.390283,0.980846,4.157463,-0.226146,-1.174812,-3.805308,2.535095,1.857425,4.708365,0.044048,0.010320,0.041295,0.999599,0.012674,0.009286,0.023539,0.619025,-0.165721,-0.262113,-0.721554,12.095800,-34.309514,-102.493466
32849,4.794365,0.149537,3.626512,-0.965941,-1.831709,-4.167409,2.478658,2.315790,4.222744,0.048320,0.002068,0.035730,0.999633,0.012392,0.011578,0.021111,0.639085,-0.155167,-0.260365,-0.706897,11.749302,-33.515697,-99.317649
32850,3.200035,-0.589643,5.324945,-1.627568,0.313735,-3.796683,2.370745,2.760839,3.484197,0.032834,-0.005956,0.052730,0.999683,0.011852,0.013803,0.017419,0.656605,-0.142315,-0.257177,-0.694605,11.638627,-32.373337,-96.610838
32851,-0.761177,-0.693496,7.880124,-1.821545,4.831908,-3.772540,2.263706,2.762335,2.688576,-0.006421,-0.007919,0.078809,0.999750,0.011318,0.013811,0.013442,0.670907,-0.128712,-0.254065,-0.684666,11.811251,-31.141787,-94.465152
32852,0.387353,-0.454568,6.784617,-1.654336,3.104295,-3.980855,1.916557,2.517324,1.888819,0.004773,-0.005153,0.067742,0.999830,0.009582,0.012586,0.009444,0.681667,-0.116036,-0.250962,-0.677410,12.113457,-29.957263,-92.893239
32853,4.586131,-1.652055,3.459946,-2.451666,-2.423938,-4.929670,1.701510,2.760265,1.208411,0.046432,-0.016531,0.033821,0.999850,0.008507,0.013801,0.006042,0.690078,-0.102384,-0.246643,-0.672664,12.527725,-28.564415,-91.736892
32854,6.790572,-1.885668,1.493944,-2.293397,-5.484499,-5.744077,1.846766,3.474740,0.659808,0.068212,-0.018762,0.013583,0.999801,0.009233,0.017373,0.003299,0.697366,-0.085112,-0.240518,-0.669767,13.166269,-26.709585,-90.825667
32855,5.192223,-0.423539,2.323711,-0.984374,-3.746639,-5.626219,2.114224,4.280707,0.319562,0.052410,-0.004389,0.022073,0.999714,0.010570,0.021401,0.001598,0.704255,-0.063771,-0.232533,-0.667748,14.023640,-24.373965,-89.994808
32856,3.011016,1.181329,4.122829,0.119533,-1.090508,-4.689114,2.301502,4.801580,0.219074,0.031078,0.011377,0.040622,0.999645,0.011506,0.024005,0.001095,0.711028,-0.039862,-0.223196,-0.665608,15.002062,-21.744160,-89.117905
32857,1.673917,2.056840,5.096253,0.613186,0.344152,-4.111522,2.291215,5.097216,0.187420,0.018016,0.020003,0.050746,0.999609,0.011455,0.025483,0.000937,0.717490,-0.014958,-0.212643,-0.663150,15.992916,-18.964200,-88.180306
32858,0.802681,3.430085,6.297101,1.456957,1.396970,-2.886080,1.956320,5.417743,-0.049431,0.009743,0.033682,0.063054,0.999585,0.009780,0.027085,-0.000247,0.722910,0.010087,-0.199648,-0.661393,16.850688,-15.980590,-87.293163
32859,-0.771481,1.594832,7.001291,-0.672338,2.494286,-3.069643,1.308440,5.651282,-0.541977,-0.005689,0.015506,0.070295,0.999576,0.006541,0.028252,-0.002710,0.726358,0.034032,-0.183504,-0.661492,17.437138,-12.800363,-86.619023
32860,-3.193061,-0.596813,8.100357,-3.304546,4.390460,-3.033959,0.893371,5.750565,-1.172709,-0.029621,-0.006154,0.081850,0.999560,0.004466,0.028749,-0.005863,0.727259,0.057362,-0.165332,-0.663679,17.882323,-9.458799,-86.257098
32861,-5.125435,-1.632023,8.851374,-4.681592,5.854919,-2.667186,0.565380,5.633407,-2.005577,-0.048898,-0.016075,0.089868,0.999549,0.002826,0.028163,-0.010026,0.724745,0.079735,-0.146134,-0.668604,18.223373,-6.038513,-86.354699
32862,-7.684836,-2.186415,11.057523,-6.030156,8.069207,-0.615278,0.210836,5.241372,-2.854782,-0.074219,-0.020910,0.112521,0.999554,0.001054,0.026203,-0.014272,0.718600,0.100075,-0.126680,-0.676426,18.394041,-2.675381,-86.970012
32863,-9.201192,-2.159478,12.048279,-6.267969,9.141152,0.751244,0.161813,4.613183,-3.487320,-0.089560,-0.020117,0.122551,0.999582,0.000809,0.023063,-0.017434,0.709322,0.118420,-0.108898,-0.686280,18.510248,0.461278,-88.033027
32864,-8.988265,-1.089218,13.294804,-5.428969,8.468703,2.737018,-0.117353,3.826116,-3.938089,-0.087508,-0.009075,0.134643,0.999623,-0.000587,0.019128,-0.019688,0.697670,0.133234,-0.092588,-0.697806,18.399010,3.253378,-89.484159
32865,-6.980840,-1.160140,13.169305,-5.209432,6.040882,2.830730,-0.011471,3.136463,-4.169017,-0.067954,-0.010164,0.132769,0.999660,-0.000057,0.015681,-0.020843,0.684322,0.146019,-0.078822,-0.710049,18.260457,5.709287,-91.195694
32866,-5.778735,2.341409,14.181676,-2.040263,4.139248,4.974984,-0.065198,2.550663,-4.185462,-0.055465,0.024637,0.142526,0.999700,-0.000326,0.012752,-0.020925,0.670284,0.156458,-0.066818,-0.722340,18.008886,7.842913,-93.036682
32867,-4.623855,3.198224,13.906938,-1.027523,2.482351,4.944486,-0.402186,2.044622,-4.003002,-0.044158,0.033160,0.139462,0.999745,-0.002011,0.010222,-0.020013,0.656628,0.163788,-0.055376,-0.734130,17.497447,9.657607,-94.889504
32868,-3.896210,3.634048,13.666108,-0.439801,1.326236,4.788076,-0.498097,1.656345,-3.659282,-0.037152,0.037372,0.136882,0.999795,-0.002490,0.008281,-0.018295,0.643901,0.169212,-0.045135,-0.744796,16.897570,11.182346,-96.644784
32869,-4.277259,2.897842,13.483751,-0.874253,1.499498,4.521909,-0.636685,1.255540,-3.383896,-0.041422,0.030117,0.135006,0.999832,-0.003183,0.006277,-0.016919,0.631986,0.172568,-0.035859,-0.754671,16.186920,12.423702,-98.338634
32870,-4.794585,1.393575,13.218362,-1.948523,2.081084,4.026384,-0.681301,0.862881,-3.421243,-0.047122,0.015197,0.132338,0.999839,-0.003406,0.004314,-0.017105,0.619690,0.174255,-0.027636,-0.764759,15.396543,13.431013,-100.140019
32871,-5.250276,-0.879753,12.520383,-3.587516,3.007829,2.961395,-0.430107,0.500370,-3.510017,-0.052330,-0.007609,0.125352,0.999841,-0.002150,0.002502,-0.017549,0.606585,0.175285,-0.021382,-0.775160,14.689409,14.229604,-102.068082
32872,-4.982281,2.053978,12.458853,-0.712073,1.879857,3.611950,-0.027978,0.137352,-3.431615,-0.049375,0.021407,0.124620,0.999853,-0.000140,0.000687,-0.017157,0.593207,0.176070,-0.017877,-0.785357,14.187590,14.794057,-104.018767
32873,-4.085377,3.815871,12.469382,0.840438,0.366382,3.821550,-0.251819,-0.035414,-3.366535,-0.040224,0.038996,0.124638,0.999858,-0.001259,-0.000177,-0.016832,0.580092,0.175450,-0.014025,-0.795307,13.538037,15.236329,-105.967403
32874,-5.374214,1.793684,12.989310,-0.656749,1.995768,4.201683,-0.401647,-0.270181,-3.392777,-0.053600,0.019108,0.129783,0.999853,-0.002008,-0.001351,-0.016963,0.566821,0.173418,-0.010265,-0.805317,12.779402,15.526004,-107.971253
32875,-5.969702,1.656852,13.990281,-0.662496,2.336618,5.293811,-0.272618,-0.710790,-3.529306,-0.059887,0.017815,0.139666,0.999837,-0.001363,-0.003554,-0.017646,0.552688,0.169924,-0.008116,-0.815841,12.047649,15.562623,-110.116710
32876,-5.941355,1.733705,14.418581,-0.456042,2.189301,5.717702,-0.216583,-1.231756,-3.744793,-0.059959,0.018612,0.143798,0.999805,-0.001083,-0.006158,-0.018723,0.537410,0.164414,-0.007484,-0.827105,11.305941,15.303448,-112.448747
32877,-5.717713,2.570918,14.765916,0.407407,1.610124,6.142478,-0.181388,-1.781798,-3.913783,-0.057970,0.026972,0.147121,0.999768,-0.000907,-0.008908,-0.019567,0.521153,0.156654,-0.008295,-0.838922,10.557239,14.725864,-114.933475
32878,-3.918045,2.395243,14.049554,0.006955,0.309225,4.964830,-0.135293,-2.292857,-3.941528,-0.040304,0.024834,0.140021,0.999740,-0.000676,-0.011463,-0.019706,0.504467,0.146799,-0.010644,-0.850794,9.856808,13.830631,-117.471076
32879,-1.932102,3.817255,12.993619,0.818586,-1.832482,3.719026,0.101383,-2.505193,-3.725328,-0.020232,0.038478,0.129706,0.999748,0.000507,-0.012525,-0.018625,0.488255,0.136545,-0.014649,-0.861828,9.358457,12.770849,-119.884289
32880,-2.850039,5.462118,12.836264,2.823567,-1.772724,4.029612,0.353966,-2.691428,-3.270682,-0.029329,0.054869,0.128069,0.999774,0.001770,-0.013456,-0.016352,0.473584,0.126012,-0.020540,-0.871446,9.111627,11.546944,-122.033417
32881,-4.443153,8.514988,13.387176,6.180936,-2.060841,5.320329,0.388785,-3.074945,-2.774233,-0.045300,0.085515,0.133346,0.999784,0.001944,-0.015374,-0.013870,0.460804,0.113777,-0.027759,-0.879741,8.980478,10.055725,-123.917690
32882,-4.243819,6.563736,12.912097,4.839929,-0.932127,4.453041,-0.087597,-3.470541,-2.379144,-0.043884,0.066210,0.128339,0.999779,-0.000438,-0.017351,-0.011895,0.449775,0.098606,-0.034042,-0.887029,8.665822,8.297299,-125.594895
32883,-3.093589,4.818458,11.554507,3.360595,-0.583551,2.623112,-0.108208,-3.797477,-2.114503,-0.032610,0.048586,0.114910,0.999764,-0.000541,-0.018986,-0.010572,0.439669,0.081849,-0.041056,-0.893480,8.408428,6.324413,-127.132320
32884,-1.352275,2.773324,10.346064,1.210446,-0.485574,0.904120,-0.170332,-3.823254,-1.982946,-0.015220,0.027966,0.103157,0.999768,-0.000852,-0.019115,-0.009914,0.429964,0.064773,-0.047912,-0.899244,8.179368,4.318066,-128.582508
32885,-1.074463,1.427728,9.905172,0.315891,0.377679,0.239809,0.140427,-3.775104,-1.839613,-0.012480,0.014317,0.098837,0.999779,0.000702,-0.018874,-0.009197,0.420620,0.048522,-0.056060,-0.904202,8.181865,2.326106,-129.939516
32886,-2.259340,3.013011,11.071588,2.355565,0.612685,1.625270,0.354696,-3.810824,-1.673813,-0.024446,0.030134,0.110315,0.999782,0.001773,-0.019053,-0.008368,0.411777,0.032488,-0.065293,-0.908362,8.359135,0.300765,-131.206673
32887,-1.831498,4.354405,11.434970,3.286991,-0.266502,2.111457,0.305702,-4.020012,-1.520272,-0.020278,0.043519,0.114022,0.999768,0.001528,-0.020099,-0.007601,0.403387,0.015344,-0.074705,-0.911846,8.551365,-1.850208,-132.410551
32888,-2.035773,4.352917,11.511655,3.691890,0.195089,2.100618,0.319560,-4.183282,-1.289633,-0.022480,0.043486,0.114731,0.999759,0.001598,-0.020915,-0.006448,0.395794,-0.002615,-0.084516,-0.914438,8.794611,-4.110742,-133.507627
32889,-1.076829,5.265224,11.276669,4.001457,-0.840008,1.990371,0.167350,-4.390944,-1.128390,-0.012944,0.052627,0.112542,0.999743,0.000837,-0.021953,-0.005641,0.388652,-0.021880,-0.093976,-0.916318,8.987516,-6.496740,-134.543105
32890,-0.058814,4.125821,10.003770,2.802398,-0.720972,0.613919,0.207804,-4.474908,-0.963096,-0.002628,0.041164,0.100037,0.999738,0.001039,-0.022373,-0.004815,0.382029,-0.041529,-0.103739,-0.917370,9.239114,-8.943389,-135.506503
32891,1.692589,4.191361,8.497084,1.863589,-2.014240,-0.588192,0.412454,-4.520764,-0.721823,0.015149,0.041681,0.085413,0.999736,0.002062,-0.022602,-0.003609,0.376331,-0.061085,-0.114405,-0.917363,9.627578,-11.430714,-136.355911
32892,3.158958,4.317296,7.262099,1.075720,-3.110085,-1.415328,0.836545,-4.380054,-0.301895,0.030051,0.042821,0.073470,0.999750,0.004182,-0.021898,-0.001509,0.372574,-0.079422,-0.126583,-0.915892,10.246379,-13.875188,-136.978252
32893,1.854149,5.382391,7.754770,2.957046,-2.514659,-1.011334,1.326843,-4.321782,0.313959,0.016771,0.053333,0.078278,0.999743,0.006634,-0.021607,0.001570,0.371679,-0.096912,-0.140575,-0.912525,11.086150,-16.341867,-137.273686
32894,2.169376,6.895545,7.583056,4.001467,-3.442341,-0.764016,1.496492,-4.434042,0.969924,0.019665,0.068482,0.076795,0.999715,0.007482,-0.022168,0.004849,0.373579,-0.115024,-0.155169,-0.907266,11.936078,-18.944424,-137.238353
32895,5.006596,6.248776,5.996332,1.671355,-5.041805,-1.336961,1.448652,-4.259695,1.547886,0.048284,0.062424,0.061457,0.999717,0.007243,-0.021296,0.007739,0.377993,-0.132797,-0.168794,-0.900553,12.643159,-21.517647,-136.872924
32896,6.675845,5.101788,4.615120,-0.177667,-5.594754,-2.031599,1.687794,-3.723378,2.151511,0.065328,0.051327,0.047809,0.999733,0.008438,-0.018615,0.010757,0.385530,-0.148160,-0.181994,-0.892353,13.312993,-23.875508,-136.094519
32897,5.381738,6.061351,6.099030,1.854843,-4.428902,-0.878004,1.804505,-3.133340,2.708950,0.052025,0.060768,0.062363,0.999745,0.009022,-0.015665,0.013544,0.395971,-0.161079,-0.194074,-0.882947,13.847999,-25.985485,-134.900880
32898,4.522959,4.364774,6.392665,1.417140,-2.400368,-1.292564,1.698304,-2.844559,3.149392,0.043622,0.043795,0.064926,0.999739,0.008491,-0.014222,0.015746,0.408351,-0.173294,-0.204654,-0.872545,14.134969,-28.005422,-133.382641
32899,7.591561,3.355324,4.764336,-1.177462,-4.365646,-1.378715,1.785578,-2.391678,3.410721,0.074754,0.034402,0.048847,0.999743,0.008927,-0.011957,0.017052,0.422191,-0.183516,-0.214371,-0.861465,14.305564,-29.814684,-131.609257
32900,6.904121,3.737104,5.392664,-0.100232,-3.627478,-1.007239,1.916324,-1.718525,3.605031,0.067890,0.038079,0.054876,0.999755,0.009581,-0.008592,0.018024,0.437505,-0.190697,-0.222931,-0.850015,14.371816,-31.282409,-129.573390
32901,5.509401,2.630159,6.389165,0.093990,-1.427547,-1.092520,1.966259,-1.348675,3.682645,0.054171,0.026672,0.064520,0.999759,0.009831,-0.006743,0.018412,0.453387,-0.196178,-0.230731,-0.838282,14.353263,-32.556204,-127.397708
32902,5.974771,2.718654,5.771754,0.037796,-1.985698,-1.300741,2.109901,-1.109342,3.759846,0.058908,0.027686,0.058336,0.999752,0.010549,-0.005546,0.018798,0.469797,-0.200337,-0.238383,-0.826032,14.308217,-33.707470,-125.097957
32903,7.388235,2.849338,4.373699,-0.460813,-3.708849,-1.574949,2.271987,-0.687150,3.904101,0.073162,0.029425,0.044320,0.999739,0.011359,-0.003435,0.019519,0.487219,-0.202432,-0.245470,-0.813255,14.213169,-34.642411,-122.601842
32904,7.104083,3.089855,3.692613,0.061408,-3.937226,-2.187755,2.500161,-0.169169,4.113572,0.070360,0.031885,0.037380,0.999710,0.012500,-0.000846,0.020566,0.506101,-0.202020,-0.251853,-0.799762,14.069024,-35.314432,-119.846293
32905,6.955316,3.558243,4.005628,0.812036,-3.734350,-1.908740,2.750797,0.356730,4.430235,0.068822,0.036558,0.040431,0.999659,0.013752,0.001783,0.022149,0.526833,-0.199140,-0.257457,-0.785179,13.861198,-35.732030,-116.766543
32906,5.971292,4.478217,4.363144,2.269948,-2.980950,-2.021429,2.809892,0.777273,4.750475,0.058807,0.045569,0.044038,0.999612,0.014048,0.003886,0.023749,0.549050,-0.194724,-0.261651,-0.769523,13.490843,-35.945016,-113.379204
32907,6.106387,3.502872,4.369209,1.510567,-2.724128,-2.135344,2.850415,1.228708,4.913822,0.060458,0.035895,0.043827,0.999578,0.014250,0.006143,0.024566,0.572066,-0.188516,-0.264426,-0.753180,13.031665,-35.909863,-109.803456
32908,5.814795,2.247829,4.395962,0.567388,-2.206414,-2.532821,2.840299,1.707484,4.936604,0.057954,0.023288,0.043791,0.999558,0.014199,0.008536,0.024679,0.595312,-0.180403,-0.265509,-0.736589,12.523494,-35.583394,-106.142924
32909,5.452780,1.911792,4.526475,0.465037,-1.836123,-2.721337,2.792845,2.208844,4.776215,0.054558,0.019792,0.044936,0.999556,0.013962,0.011043,0.023878,0.618048,-0.170217,-0.264874,-0.720336,12.053201,-34.934255,-102.546227
32910,4.212136,0.434472,6.291755,-0.840618,0.222034,-2.278872,2.604750,2.667216,4.280922,0.042862,0.004442,0.062407,0.999597,0.013022,0.013334,0.021402,0.638941,-0.158158,-0.262304,-0.705646,11.689688,-33.945269,-99.259294
32911,0.440872,-0.351791,9.050105,-1.536952,4.726481,-2.229057,2.503758,2.698747,3.674059,0.005706,-0.004553,0.090377,0.999662,0.012517,0.013492,0.018368,0.657169,-0.145405,-0.259603,-0.692527,11.568602,-32.860711,-96.423361
32912,-0.712931,-0.291778,9.567460,-1.683052,5.768959,-2.328890,2.206996,2.316785,2.969532,-0.005966,-0.004068,0.095708,0.999762,0.011034,0.011583,0.014846,0.671882,-0.133944,-0.257452,-0.681434,11.612501,-31.904333,-94.138553
32913,1.565654,-1.076880,7.834198,-2.489835,2.700817,-2.637181,1.790514,2.069561,2.134113,0.016584,-0.011295,0.078074,0.999849,0.008952,0.010347,0.010670,0.682882,-0.123601,-0.255202,-0.673251,11.767642,-30.995779,-92.459816
32914,4.428945,-2.044712,4.515217,-2.989270,-1.697038,-4.123656,1.548368,2.255057,1.337430,0.044931,-0.020494,0.044489,0.999884,0.007742,0.011275,0.006687,0.691116,-0.112407,-0.251899,-0.668035,12.062725,-29.891979,-91.285264
32915,7.002077,-2.105898,1.665925,-2.491561,-5.507470,-5.374906,1.682765,2.906861,0.825463,0.070338,-0.020903,0.015462,0.999850,0.008413,0.014534,0.004127,0.698346,-0.097905,-0.247039,-0.664605,12.578724,-28.370615,-90.355232
32916,6.926482,-0.361877,1.124205,-0.595095,-5.687758,-5.731040,2.063248,3.828565,0.557113,0.069473,-0.003532,0.009877,0.999760,0.010315,0.019141,0.002785,0.705745,-0.078636,-0.240234,-0.661837,13.350836,-26.306694,-89.455543
32917,3.932256,2.041478,3.102236,1.280492,-2.056201,-4.977053,2.242343,4.556414,0.451948,0.039973,0.020162,0.030344,0.999675,0.011211,0.022780,0.002259,0.713335,-0.056173,-0.231392,-0.659132,14.233383,-23.839162,-88.496162
32918,1.487451,2.705991,5.302451,1.244035,0.894077,-3.871517,2.227387,4.948108,0.367403,0.016136,0.026499,0.052933,0.999630,0.011136,0.024737,0.001837,0.720608,-0.032320,-0.220935,-0.656405,15.132580,-21.152074,-87.502426
32919,-0.886126,3.546169,7.224019,1.296054,3.582813,-2.670054,2.026496,5.034033,0.244609,-0.007076,0.034717,0.072788,0.999631,0.010131,0.025167,0.001223,0.727004,-0.008766,-0.209400,-0.653866,15.973242,-18.417120,-86.542292
32920,-1.602508,1.920609,7.338611,-0.474444,3.733018,-3.034911,1.715905,4.920824,0.013619,-0.014212,0.018572,0.073912,0.999661,0.008579,0.024601,0.000068,0.732004,0.013554,-0.197089,-0.652029,16.714978,-15.715738,-85.708855
32921,-0.769214,-0.713515,6.058363,-2.626495,1.922793,-4.597240,1.642551,4.911238,-0.430039,-0.006219,-0.007619,0.060687,0.999662,0.008212,0.024553,-0.002150,0.735055,0.035992,-0.184441,-0.651444,17.510538,-12.959132,-85.102228
32922,-1.820028,0.837564,7.060952,-1.652144,3.034030,-3.337917,1.647044,5.181527,-1.189507,-0.016314,0.007892,0.071115,0.999613,0.008234,0.025904,-0.005947,0.735354,0.060010,-0.170514,-0.653130,18.404296,-9.926673,-84.834081
32923,-3.995384,1.762106,9.160138,-1.731943,5.159280,-1.249245,0.943752,5.199282,-1.939336,-0.037383,0.017556,0.092679,0.999604,0.004718,0.025993,-0.009695,0.732853,0.082084,-0.153891,-0.657652,18.964346,-6.753262,-84.937930
32924,-5.685756,0.720697,10.366738,-3.256198,6.317818,-0.338067,0.369203,4.892806,-2.451521,-0.054207,0.007689,0.105029,0.999624,0.001846,0.024461,-0.012256,0.728105,0.101386,-0.136149,-0.664114,19.216747,-3.646388,-85.354242
32925,-5.961144,-1.371492,10.692327,-5.288644,5.943337,-0.409186,0.225909,4.434012,-2.841614,-0.057410,-0.013010,0.108197,0.999653,0.001129,0.022167,-0.014206,0.721295,0.118831,-0.119318,-0.671845,19.376622,-0.713608,-86.056084
32926,-6.698636,-0.521763,12.570501,-5.049117,6.273748,1.946553,0.010579,3.899360,-3.244423,-0.064592,-0.004163,0.126980,0.999678,0.000053,0.019495,-0.016220,0.712459,0.133869,-0.103359,-0.681027,19.374254,2.009099,-87.072656
32927,-6.399468,-2.439382,11.840988,-6.451538,5.550970,0.895327,-0.001615,3.288002,-3.497484,-0.062450,-0.023292,0.119445,0.999712,-0.000008,0.016438,-0.017486,0.702020,0.146829,-0.089301,-0.691111,19.304195,4.448854,-88.345702
32928,-5.148765,1.324647,12.333470,-2.893289,3.907456,2.706200,0.214810,2.839998,-3.565058,-0.049484,0.014007,0.124062,0.999740,0.001074,0.014199,-0.017824,0.690603,0.158953,-0.077467,-0.701285,19.294776,6.658107,-89.746395
32929,-5.033238,4.094587,12.551392,-0.224194,3.233102,3.939118,-0.230137,2.486165,-3.354248,-0.048070,0.041910,0.126073,0.999781,-0.001151,0.012430,-0.016770,0.679810,0.168140,-0.065408,-0.710851,18.982735,8.633547,-91.111270
32930,-5.066207,3.333996,12.149981,-0.654790,2.945400,3.426823,-0.559999,2.123012,-2.969280,-0.048864,0.034415,0.121930,0.999830,-0.002800,0.010614,-0.014846,0.670279,0.174726,-0.053727,-0.719243,18.460297,10.329947,-92.353170
32931,-4.393475,2.036241,11.634656,-1.575205,2.149931,2.503992,-0.770297,1.806600,-2.805240,-0.042586,0.021415,0.116654,0.999853,-0.003851,0.009033,-0.014026,0.661223,0.179370,-0.042453,-0.727192,17.783415,11.813791,-93.585962
32932,-5.179008,-1.085192,11.251490,-4.191092,3.125519,1.468061,-0.661208,1.543062,-2.824313,-0.051063,-0.009754,0.112944,0.999865,-0.003306,0.007715,-0.014121,0.651758,0.183370,-0.032440,-0.735210,17.123758,13.140762,-94.899601
32933,-6.121092,0.986744,11.709453,-2.131143,3.446374,2.801873,-0.266371,1.214652,-2.827330,-0.060349,0.010881,0.117449,0.999881,-0.001332,0.006073,-0.014136,0.641699,0.187402,-0.024908,-0.743292,16.641646,14.277702,-96.291703
32934,-5.251717,1.697858,12.024465,-1.486345,2.217380,3.145674,-0.494421,0.861531,-2.936019,-0.051739,0.018040,0.120425,0.999880,-0.002472,0.004307,-0.014680,0.631254,0.189359,-0.017583,-0.751899,15.971726,15.221923,-97.822135
32935,-5.306391,-0.555839,12.265019,-3.489479,2.525369,2.849803,-0.515482,0.538195,-3.212774,-0.052810,-0.004392,0.122805,0.999864,-0.002577,0.002691,-0.016063,0.619595,0.190009,-0.010897,-0.761499,15.202367,16.014474,-99.581948
32936,-5.597934,-1.308438,13.143500,-4.196967,2.713581,3.634138,-0.345320,0.155882,-3.657627,-0.056101,-0.011832,0.131500,0.999831,-0.001727,0.000779,-0.018287,0.605873,0.189697,-0.005653,-0.772594,14.419603,16.634574,-101.673488
32937,-5.896868,-1.106804,14.305082,-4.052275,2.671796,4.920544,-0.076772,-0.308863,-4.060994,-0.059397,-0.009810,0.142963,0.999793,-0.000384,-0.001544,-0.020304,0.590093,0.188337,-0.002424,-0.785056,13.676846,17.028649,-104.081717
32938,-5.360798,0.762172,14.528438,-2.282816,1.586052,5.440643,0.274816,-0.869256,-4.146587,-0.054068,0.008540,0.145061,0.999775,0.001374,-0.004346,-0.020731,0.573387,0.185739,-0.002193,-0.797950,13.091386,17.091957,-106.624154
32939,-3.822873,4.498380,14.075843,1.008808,-1.011924,5.383897,0.275830,-1.231462,-4.110273,-0.038162,0.045575,0.140586,0.999769,0.001379,-0.006157,-0.020550,0.556555,0.181604,-0.002984,-0.810715,12.495022,16.925988,-109.194522
32940,-4.345167,5.147153,14.470002,1.790035,-0.914042,6.021192,-0.044436,-1.487735,-4.056466,-0.043470,0.052385,0.144365,0.999767,-0.000222,-0.007438,-0.020281,0.539972,0.175462,-0.003291,-0.823185,11.733469,16.578036,-111.758582
32941,-4.387812,4.595485,14.720215,1.451224,-0.712684,6.138414,-0.143604,-1.865108,-3.937923,-0.044330,0.046930,0.146757,0.999762,-0.000718,-0.009325,-0.019688,0.523700,0.167403,-0.004261,-0.835282,10.940143,15.973627,-114.287217
32942,-2.970453,4.644312,14.338993,1.257369,-1.873732,5.382851,-0.212402,-2.171753,-3.789190,-0.030370,0.047166,0.143013,0.999761,-0.001062,-0.010858,-0.018944,0.507853,0.157810,-0.005919,-0.846845,10.162572,15.145441,-116.743265
32943,-2.010745,4.434283,13.402912,1.095184,-2.380974,4.204187,-0.123348,-2.291903,-3.504426,-0.020859,0.044787,0.133765,0.999781,-0.000617,-0.011459,-0.017521,0.492902,0.147842,-0.008436,-0.857391,9.511963,14.193749,-119.025089
32944,-3.033449,5.727564,13.261866,2.860013,-2.071609,4.519443,0.048157,-2.374829,-3.030330,-0.031034,0.057710,0.132267,0.999815,0.000241,-0.011873,-0.015151,0.479655,0.137872,-0.012284,-0.866471,9.071769,13.128746,-121.018431
32945,-4.633691,6.888858,13.390744,4.782398,-1.287439,5.144099,-0.003397,-2.669069,-2.560212,-0.047231,0.069492,0.133280,0.999829,-0.000017,-0.013345,-0.012800,0.468290,0.126414,-0.016897,-0.874322,8.694197,11.842848,-122.749201
32946,-6.302790,5.181304,13.790508,4.465281,1.150126,5.532461,-0.135669,-3.150281,-2.246667,-0.064601,0.052626,0.136860,0.999813,-0.000678,-0.015750,-0.011233,0.458171,0.112482,-0.022288,-0.881437,8.318154,10.245563,-124.322124
32947,-5.893325,3.462955,13.887362,3.222701,2.033573,5.188605,-0.229637,-3.677459,-2.150952,-0.061095,0.035437,0.137723,0.999772,-0.001148,-0.018386,-0.010754,0.448277,0.095950,-0.028484,-0.888273,7.937079,8.332764,-125.864274
32948,-5.268603,2.248322,13.832647,2.349883,2.569996,4.747503,-0.110944,-4.205763,-2.167418,-0.055330,0.023150,0.137169,0.999720,-0.000555,-0.021027,-0.010836,0.437951,0.077295,-0.036402,-0.894930,7.678663,6.111436,-127.438093
32949,-2.322979,2.357125,12.425067,1.313507,0.538358,2.966044,-0.075730,-4.563841,-2.164277,-0.025799,0.023888,0.123672,0.999681,-0.000379,-0.022817,-0.010820,0.427297,0.057072,-0.045206,-0.901175,7.499621,3.682654,-129.022086
32950,-0.293316,2.786283,11.102402,0.886959,-0.985750,1.559940,0.165376,-4.647239,-1.988842,-0.005235,0.027815,0.110943,0.999680,0.000827,-0.023234,-0.009943,0.417073,0.036908,-0.055330,-0.906436,7.534410,1.189271,-130.505097
32951,1.330418,4.837745,10.404757,1.703029,-3.248946,1.140106,0.236870,-4.549761,-1.781763,0.011362,0.048147,0.104378,0.999701,0.001184,-0.022747,-0.008908,0.407544,0.017259,-0.065546,-0.910667,7.670768,-1.260147,-131.865314
32952,1.492954,5.219266,9.850170,2.128361,-3.366006,0.705141,0.222588,-4.379016,-1.559474,0.013173,0.051975,0.098861,0.999729,0.001113,-0.021893,-0.007797,0.398850,-0.001730,-0.075364,-0.913913,7.853813,-3.628070,-133.094280
