PacketCounter,Acc_X,Acc_Y,Acc_Z,FreeAcc_E,FreeAcc_N,FreeAcc_U,Gyr_X,Gyr_Y,Gyr_Z,VelInc_X,VelInc_Y,VelInc_Z,OriInc_q0,OriInc_q1,OriInc_q2,OriInc_q3,Quat_q0,Quat_q1,Quat_q2,Quat_q3,Roll,Pitch,Yaw
30247,-9.606104,1.695532,-0.809106,0.048617,0.000709,-0.024717,-0.009480,0.009476,0.001213,-0.096062,0.016954,-0.008087,1.000000,-0.000047,0.000047,0.000006,-0.075031,-0.732583,0.046813,0.674908,114.182347,79.060363,-63.520598
30248,-9.578784,1.703095,-0.789809,0.031486,-0.012321,-0.051730,-0.008022,0.006413,0.001673,-0.095788,0.017030,-0.007896,1.000000,-0.000040,0.000032,0.000008,-0.075042,-0.732596,0.046799,0.674894,114.192051,79.059598,-63.508820
30249,-9.594973,1.685172,-0.791355,0.030598,0.008143,-0.038816,-0.012975,0.009486,0.001701,-0.095950,0.016850,-0.007910,1.000000,-0.000065,0.000047,0.000009,-0.075071,-0.732618,0.046770,0.674869,114.207794,79.058012,-63.488331
30250,-9.551305,1.648778,-0.837921,0.079138,0.038715,-0.084366,-0.008976,0.004417,0.001078,-0.095513,0.016487,-0.008378,1.000000,-0.000045,0.000022,0.000005,-0.075083,-0.732624,0.046752,0.674863,114.212123,79.057998,-63.481643
30251,-9.616467,1.638388,-0.775033,0.010555,0.056975,-0.027083,-0.002541,0.002006,0.001084,-0.096165,0.016383,-0.007750,1.000000,-0.000013,0.000010,0.000005,-0.075070,-0.732624,0.046759,0.674863,114.214373,79.058492,-63.480984
30252,-9.594790,1.685814,-0.792209,0.031036,0.007457,-0.038817,0.005644,0.000803,0.004845,-0.095948,0.016856,-0.007921,1.000000,0.000028,0.000004,0.000024,-0.075039,-0.732622,0.046807,0.674865,114.212753,79.057365,-63.489018
30253,-9.596579,1.717789,-0.741609,-0.018383,-0.026089,-0.035464,0.004423,-0.001739,0.000531,-0.095966,0.017178,-0.007417,1.000000,0.000022,-0.000009,0.000003,-0.074997,-0.732613,0.046836,0.674878,114.209543,79.059028,-63.497985
30254,-9.585619,1.707089,-0.722567,-0.036530,-0.018410,-0.049559,-0.003096,-0.000384,0.002069,-0.095856,0.017070,-0.007226,1.000000,-0.000015,-0.000002,0.000010,-0.074988,-0.732604,0.046845,0.674887,114.203089,79.059635,-63.505947
30255,-9.587333,1.676972,-0.738821,-0.021280,0.012320,-0.051825,-0.005108,0.000289,0.002593,-0.095874,0.016768,-0.007389,1.000000,-0.000026,0.000001,0.000013,-0.074989,-0.732598,0.046849,0.674894,114.197391,79.059744,-63.511887
30256,-9.603583,1.659068,-0.739628,-0.022130,0.032787,-0.038906,-0.006061,-0.001707,0.001998,-0.096036,0.016589,-0.007398,1.000000,-0.000030,-0.000009,0.000010,-0.074990,-0.732584,0.046850,0.674909,114.185707,79.060699,-63.523605
30257,-9.572745,1.665203,-0.753967,-0.004865,0.022131,-0.067006,-0.008447,0.003084,0.000518,-0.095728,0.016651,-0.007539,1.000000,-0.000042,0.000015,0.000003,-0.074996,-0.732586,0.046834,0.674907,114.188174,79.061236,-63.519280
30258,-9.547236,1.642373,-0.750389,-0.006879,0.040073,-0.096282,-0.012496,0.000704,0.001991,-0.095473,0.016422,-0.007505,1.000000,-0.000062,0.000004,0.000010,-0.075023,-0.732578,0.046810,0.674915,114.179489,79.061648,-63.523848
30259,-9.596310,1.656970,-0.808155,0.047142,0.036798,-0.041083,-0.009531,0.002027,0.002062,-0.095963,0.016568,-0.008081,1.000000,-0.000048,0.000010,0.000010,-0.075038,-0.732576,0.046796,0.674917,114.176602,79.061626,-63.524342
30260,-9.572599,1.666069,-0.753907,-0.004428,0.021444,-0.067005,-0.000816,-0.000511,0.005264,-0.095726,0.016658,-0.007539,1.000000,-0.000004,-0.000003,0.000026,-0.075032,-0.732566,0.046825,0.674925,114.167251,79.060599,-63.536617
30261,-9.576134,1.667783,-0.719457,-0.038728,0.018872,-0.065913,0.003339,-0.002795,0.002075,-0.095761,0.016677,-0.007196,1.000000,0.000017,-0.000014,0.000010,-0.074999,-0.732553,0.046857,0.674941,114.158678,79.061700,-63.550414
30262,-9.608944,1.700433,-0.776220,0.016317,-0.005110,-0.023637,0.007787,-0.000810,0.002182,-0.096090,0.017004,-0.007762,1.000000,0.000039,-0.000004,0.000011,-0.074950,-0.732547,0.046904,0.674950,114.157273,79.062375,-63.559663
30263,-9.587030,1.678934,-0.738290,-0.020149,0.010498,-0.051820,0.004821,-0.002134,0.002111,-0.095870,0.016789,-0.007384,1.000000,0.000024,-0.000011,0.000011,-0.074912,-0.732536,0.046940,0.674963,114.151293,79.063303,-63.571683
30264,-9.587012,1.679145,-0.738049,-0.019995,0.010268,-0.051820,-0.001639,-0.003446,0.002529,-0.095870,0.016790,-0.007382,1.000000,-0.000008,-0.000017,0.000013,-0.074898,-0.732518,0.046957,0.674984,114.136905,79.064403,-63.588583
30265,-9.576038,1.668541,-0.718969,-0.038163,0.017963,-0.065909,-0.006036,0.002017,0.001573,-0.095761,0.016684,-0.007189,1.000000,-0.000030,0.000010,0.000008,-0.074900,-0.732517,0.046954,0.674985,114.136587,79.064639,-63.588502
30266,-9.581580,1.708658,-0.755983,-0.000423,-0.018800,-0.050652,-0.013555,0.003373,0.003111,-0.095816,0.017085,-0.007559,1.000000,-0.000068,0.000017,0.000016,-0.074932,-0.732517,0.046931,0.674983,114.133062,79.063833,-63.587513
30267,-9.570592,1.698152,-0.736861,-0.018592,-0.011103,-0.064742,-0.009028,-0.003030,0.001926,-0.095706,0.016980,-0.007371,1.000000,-0.000045,-0.000015,0.000010,-0.074945,-0.732498,0.046920,0.675003,114.116940,79.065066,-63.601781
30268,-9.594182,1.689861,-0.790948,0.033295,0.003762,-0.038823,-0.005768,0.002562,0.005292,-0.095942,0.016896,-0.007909,1.000000,-0.000029,0.000013,0.000026,-0.074958,-0.732497,0.046930,0.675001,114.113137,79.063312,-63.605227
30269,-9.613963,1.673513,-0.757762,-0.001996,0.021891,-0.024804,-0.004155,0.002284,0.003188,-0.096140,0.016733,-0.007577,1.000000,-0.000021,0.000011,0.000016,-0.074958,-0.732498,0.046938,0.675000,114.112661,79.062640,-63.606404
30270,-9.606794,1.733190,-0.759378,0.002293,-0.037901,-0.021383,-0.000686,-0.001451,0.003124,-0.096068,0.017330,-0.007595,1.000000,-0.000003,-0.000007,0.000016,-0.074944,-0.732486,0.046959,0.675012,114.103514,79.062957,-63.618399
30271,-9.579526,1.740728,-0.739409,-0.014890,-0.050888,-0.048397,-0.004024,0.001345,0.001049,-0.095795,0.017407,-0.007394,1.000000,-0.000020,0.000007,0.000005,-0.074936,-0.732484,0.046961,0.675015,114.103163,79.063624,-63.619525
30272,-9.597525,1.692429,-0.756977,-0.000573,0.000516,-0.037728,-0.005612,0.005347,0.002728,-0.095976,0.016923,-0.007568,1.000000,-0.000028,0.000027,0.000014,-0.074940,-0.732494,0.046961,0.675004,114.109993,79.062541,-63.612398
30273,-9.586516,1.681831,-0.738376,-0.018740,0.008220,-0.051815,-0.003071,0.003340,0.001644,-0.095865,0.016817,-0.007382,1.000000,-0.000015,0.000017,0.000008,-0.074931,-0.732499,0.046968,0.675000,114.114867,79.062429,-63.608758
30274,-9.581157,1.710897,-0.756280,0.000691,-0.020626,-0.050655,-0.009826,-0.002240,-0.001235,-0.095811,0.017109,-0.007565,1.000000,-0.000049,-0.000011,-0.000006,-0.074936,-0.732482,0.046942,0.675019,114.103531,79.065190,-63.617671
30275,-9.582946,1.680514,-0.772404,0.015974,0.010086,-0.052911,-0.013295,0.001495,-0.001170,-0.095829,0.016805,-0.007724,1.000000,-0.000066,0.000007,-0.000006,-0.074954,-0.732478,0.046904,0.675025,114.100962,79.066983,-63.615646
30276,-9.571953,1.669917,-0.753592,-0.002166,0.017791,-0.066997,-0.020522,0.007118,0.003661,-0.095720,0.016697,-0.007534,1.000000,-0.000103,0.000036,0.000018,-0.075016,-0.732487,0.046859,0.675010,114.102963,79.065014,-63.604944
30277,-9.604435,1.634099,-0.755765,-0.003994,0.058938,-0.041139,-0.011147,0.002305,0.004163,-0.096045,0.016339,-0.007557,1.000000,-0.000056,0.000012,0.000021,-0.075044,-0.732485,0.046847,0.675010,114.097356,79.063828,-63.607266
30278,-9.597268,1.693729,-0.757332,0.000271,-0.000854,-0.037728,-0.009402,0.001089,-0.000080,-0.095973,0.016937,-0.007574,1.000000,-0.000047,0.000005,-0.000000,-0.075052,-0.732480,0.046826,0.675017,114.093923,79.065214,-63.608377
30279,-9.597249,1.693812,-0.757383,0.000399,-0.001082,-0.037728,-0.014355,0.004163,-0.000052,-0.095973,0.016938,-0.007573,1.000000,-0.000072,0.000021,-0.000000,-0.075079,-0.732484,0.046788,0.675013,114.096613,79.065798,-63.600377
30280,-9.628030,1.688036,-0.743057,-0.016561,0.009124,-0.009616,-0.011017,0.001366,0.002022,-0.096281,0.016879,-0.007431,1.000000,-0.000055,0.000007,0.000010,-0.075099,-0.732478,0.046770,0.675018,114.090471,79.066027,-63.603460
30281,-9.613490,1.675944,-0.758397,-0.000293,0.019146,-0.024798,-0.009801,0.001485,-0.001661,-0.096135,0.016760,-0.007584,1.000000,-0.000049,0.000007,-0.000008,-0.075103,-0.732475,0.046742,0.675023,114.090467,79.068079,-63.600861
30282,-9.564400,1.661509,-0.700508,-0.054045,0.022064,-0.079977,-0.010886,0.000427,-0.000118,-0.095644,0.016615,-0.007006,1.000000,-0.000054,0.000002,-0.000001,-0.075116,-0.732466,0.046716,0.675032,114.084448,79.069638,-63.603694
30283,-9.582614,1.682244,-0.772755,0.017101,0.008253,-0.052911,-0.012207,0.004970,0.005282,-0.095827,0.016819,-0.007726,1.000000,-0.000061,0.000025,0.000026,-0.075153,-0.732473,0.046704,0.675022,114.084099,79.067243,-63.600043
30284,-9.576962,1.642670,-0.736186,-0.020301,0.044601,-0.068143,-0.009377,0.004814,-0.000504,-0.095770,0.016427,-0.007360,1.000000,-0.000047,0.000024,-0.000003,-0.075161,-0.732480,0.046679,0.675015,114.091325,79.067982,-63.590154
30285,-9.598772,1.664616,-0.774295,0.016413,0.028479,-0.039979,-0.006169,0.002954,0.003711,-0.095988,0.016644,-0.007742,1.000000,-0.000031,0.000015,0.000019,-0.075170,-0.732482,0.046682,0.675012,114.090876,79.066880,-63.590127
30286,-9.571472,1.672275,-0.754471,-0.000758,0.015514,-0.066992,-0.005640,0.001620,0.003150,-0.095715,0.016721,-0.007544,1.000000,-0.000028,0.000008,0.000016,-0.075176,-0.732479,0.046685,0.675014,114.087163,79.066453,-63.593552
30287,-9.609586,1.676063,-0.793438,0.034988,0.020070,-0.025898,-0.000529,0.001334,0.000561,-0.096096,0.016760,-0.007934,1.000000,-0.000003,0.000007,0.000003,-0.075153,-0.732478,0.046696,0.675016,114.089372,79.067378,-63.594109
30288,-9.591494,1.724681,-0.776131,0.020928,-0.031781,-0.036583,-0.000131,0.000937,0.002140,-0.095915,0.017246,-0.007761,1.000000,-0.000001,0.000005,0.000011,-0.075133,-0.732475,0.046716,0.675021,114.088229,79.067665,-63.598582
30289,-9.595057,1.726170,-0.741845,-0.013378,-0.034302,-0.035481,0.000398,-0.000396,0.001580,-0.095951,0.017261,-0.007419,1.000000,0.000002,-0.000002,0.000008,-0.075110,-0.732469,0.046735,0.675029,114.085052,79.068461,-63.605166
30290,-9.580535,1.714050,-0.757018,0.002914,-0.024285,-0.050664,0.001986,-0.004397,-0.000102,-0.095805,0.017141,-0.007572,1.000000,0.000010,-0.000022,-0.000001,-0.075075,-0.732449,0.046754,0.675053,114.073357,79.071142,-63.621221
30291,-9.573174,1.642430,-0.770616,0.015116,0.045298,-0.069238,-0.009272,0.000152,-0.002223,-0.095732,0.016425,-0.007707,1.000000,-0.000046,0.000001,-0.000011,-0.075075,-0.732442,0.046726,0.675063,114.070723,79.073799,-63.621609
30292,-9.560441,1.662054,-0.735364,-0.018205,0.022100,-0.081069,-0.000791,0.003208,0.004841,-0.095605,0.016618,-0.007352,1.000000,-0.000004,0.000016,0.000024,-0.075068,-0.732445,0.046751,0.675058,114.072024,79.072111,-63.622865
30293,-9.585819,1.685471,-0.739120,-0.015929,0.003673,-0.051807,-0.008051,0.002688,0.002094,-0.095858,0.016853,-0.007391,1.000000,-0.000040,0.000013,0.000010,-0.075079,-0.732446,0.046743,0.675056,114.071736,79.071917,-63.621576
30294,-9.542171,1.649264,-0.785381,0.032653,0.034172,-0.097355,-0.013561,0.003371,0.003104,-0.095422,0.016491,-0.007853,1.000000,-0.000068,0.000017,0.000016,-0.075113,-0.732446,0.046719,0.675054,114.068299,79.071111,-63.620285
30295,-9.578276,1.614748,-0.753146,-0.003560,0.073028,-0.070374,-0.008739,0.001234,0.005215,-0.095783,0.016145,-0.007532,1.000000,-0.000044,0.000006,0.000026,-0.075136,-0.732441,0.046719,0.675057,114.059901,79.069624,-63.626855
30296,-9.589101,1.626096,-0.772369,0.014886,0.064840,-0.056296,0.007155,0.005181,0.004466,-0.095892,0.016259,-0.007721,1.000000,0.000036,0.000026,0.000022,-0.075099,-0.732454,0.046770,0.675043,114.071505,79.067664,-63.622380
30297,-9.616302,1.681120,-0.725512,-0.032465,0.013206,-0.023685,0.008187,-0.001211,0.003766,-0.096163,0.016810,-0.007255,1.000000,0.000041,-0.000006,0.000019,-0.075055,-0.732448,0.046824,0.675052,114.067938,79.067507,-63.633907
30298,-9.592818,1.758806,-0.726113,-0.027317,-0.067278,-0.033243,0.006862,0.000915,0.001168,-0.095928,0.017588,-0.007260,1.000000,0.000034,0.000005,0.000006,-0.075007,-0.732447,0.046862,0.675055,114.071990,79.068308,-63.636935
30299,-9.578242,1.746774,-0.741792,-0.011048,-0.057265,-0.048427,-0.003601,0.004673,0.002205,-0.095783,0.017467,-0.007416,1.000000,-0.000018,0.000023,0.000011,-0.075002,-0.732456,0.046868,0.675045,114.079493,79.067593,-63.630309
30300,-9.621687,1.721594,-0.763194,0.005490,-0.024104,-0.008474,0.003790,0.004254,0.002812,-0.096217,0.017215,-0.007630,1.000000,0.000019,0.000021,0.000014,-0.074974,-0.732466,0.046899,0.675035,114.088879,79.066743,-63.625695
30301,-9.625219,1.723105,-0.729342,-0.028817,-0.026602,-0.007366,-0.000105,0.004662,0.001719,-0.096253,0.017230,-0.007291,1.000000,-0.000001,0.000023,0.000009,-0.074954,-0.732477,0.046915,0.675025,114.098941,79.066284,-63.618501
30302,-9.554356,1.693954,-0.755960,0.002428,-0.008827,-0.079928,-0.003999,0.005069,0.000625,-0.095544,0.016939,-0.007558,1.000000,-0.000020,0.000025,0.000003,-0.074947,-0.732487,0.046911,0.675015,114.108668,79.066378,-63.609047
30303,-9.570622,1.675827,-0.757372,0.001611,0.011626,-0.066987,-0.005881,0.004804,-0.000992,-0.095706,0.016759,-0.007572,1.000000,-0.000029,0.000024,-0.000005,-0.074940,-0.732496,0.046897,0.675007,114.119091,79.067303,-63.598117
30304,-9.581528,1.686663,-0.776578,0.020050,0.003423,-0.052914,-0.008848,0.003482,-0.001067,-0.095815,0.016867,-0.007765,1.000000,-0.000044,0.000017,-0.000005,-0.074943,-0.732499,0.046874,0.675005,114.123711,79.068648,-63.591361
30305,-9.581479,1.686835,-0.776808,0.020178,0.003195,-0.052914,-0.016502,0.005774,0.002604,-0.095815,0.016866,-0.007767,1.000000,-0.000083,0.000029,0.000013,-0.074987,-0.732507,0.046837,0.674994,114.126314,79.067465,-63.582196
30306,-9.595971,1.699245,-0.761403,0.004182,-0.007277,-0.037732,-0.013855,-0.000893,-0.000199,-0.095960,0.016992,-0.007616,1.000000,-0.000069,-0.000004,-0.000001,-0.075008,-0.732493,0.046803,0.675009,114.115230,79.069402,-63.588761
30307,-9.599529,1.638656,-0.793863,0.034728,0.054326,-0.042210,-0.019234,-0.001147,-0.001331,-0.095995,0.016386,-0.007941,1.000000,-0.000096,-0.000006,-0.000007,-0.075047,-0.732478,0.046745,0.675025,114.102298,79.071897,-63.593825
30308,-9.592382,1.698181,-0.794956,0.038895,-0.005480,-0.038844,-0.009563,-0.001698,0.002474,-0.095924,0.016980,-0.007951,1.000000,-0.000048,-0.000008,0.000012,-0.075063,-0.732462,0.046735,0.675041,114.088223,79.072609,-63.605765
30309,-9.572296,1.646318,-0.773223,0.017663,0.041164,-0.069224,-0.009961,-0.001301,0.000894,-0.095723,0.016462,-0.007734,1.000000,-0.000050,-0.000007,0.000004,-0.075075,-0.732449,0.046717,0.675055,114.077484,79.073976,-63.614006
30310,-9.572292,1.646535,-0.772812,0.017811,0.040931,-0.069223,-0.004610,-0.004772,0.002446,-0.095723,0.016464,-0.007731,1.000000,-0.000023,-0.000024,0.000012,-0.075076,-0.732425,0.046719,0.675081,114.058070,79.075414,-63.633609
30311,-9.628556,1.663927,-0.761518,0.002995,0.032931,-0.011842,0.000769,-0.004519,0.003578,-0.096286,0.016638,-0.007617,1.000000,0.000004,-0.000023,0.000018,-0.075058,-0.732405,0.046749,0.675103,114.041504,79.076127,-63.654046
30312,-9.586781,1.659350,-0.756522,0.001942,0.030237,-0.054039,0.006677,-0.005599,0.004149,-0.095868,0.016592,-0.007567,1.000000,0.000033,-0.000028,0.000021,-0.075020,-0.732382,0.046798,0.675129,114.024214,79.076871,-63.678406
30313,-9.575820,1.648829,-0.737276,-0.016214,0.037994,-0.068107,0.007631,-0.003604,0.004748,-0.095758,0.016486,-0.007374,1.000000,0.000038,-0.000018,0.000024,-0.074981,-0.732367,0.046854,0.675146,114.012642,79.076756,-63.697760
30314,-9.594049,1.731635,-0.742147,-0.009933,-0.040031,-0.035499,0.004691,-0.001202,0.004252,-0.095941,0.017314,-0.007422,1.000000,0.000023,-0.000006,0.000021,-0.074951,-0.732358,0.046898,0.675156,114.005990,79.076428,-63.710451
30315,-9.588433,1.692195,-0.705208,-0.047306,-0.003606,-0.050688,0.000108,-0.002249,0.006279,-0.095885,0.016919,-0.007053,1.000000,0.000001,-0.000011,0.000031,-0.074944,-0.732344,0.046934,0.675169,113.991936,79.075195,-63.727943
30316,-9.568477,1.709385,-0.738354,-0.011792,-0.022269,-0.064750,-0.009405,0.001092,-0.000085,-0.095685,0.017094,-0.007384,1.000000,-0.000047,0.000005,-0.000000,-0.074951,-0.732338,0.046914,0.675176,113.988591,79.076593,-63.729166
30317,-9.604650,1.674570,-0.706203,-0.047953,0.016618,-0.037738,-0.008582,0.004022,0.002653,-0.096047,0.016744,-0.007061,1.000000,-0.000043,0.000020,0.000013,-0.074965,-0.732343,0.046905,0.675169,113.990944,79.075796,-63.724878
30318,-9.577348,1.682163,-0.686456,-0.065161,0.003706,-0.064753,-0.012079,0.004033,0.003138,-0.095774,0.016820,-0.006864,1.000000,-0.000060,0.000020,0.000016,-0.074994,-0.732346,0.046886,0.675164,113.990143,79.074813,-63.721793
30319,-9.599109,1.704257,-0.724632,-0.028465,-0.012504,-0.036619,-0.013934,0.007494,0.001101,-0.095991,0.017042,-0.007244,1.000000,-0.000070,0.000037,0.000006,-0.075024,-0.732361,0.046852,0.675147,114.000716,79.074020,-63.706010
30320,-9.586294,1.662038,-0.756783,0.003066,0.028398,-0.054034,-0.015975,0.004441,0.002043,-0.095863,0.016619,-0.007567,1.000000,-0.000080,0.000022,0.000010,-0.075064,-0.732364,0.046815,0.675142,114.000202,79.073534,-63.700261
30321,-9.597106,1.673292,-0.776249,0.021479,0.020175,-0.039968,-0.014039,0.012154,0.002822,-0.095972,0.016731,-0.007758,1.000000,-0.000070,0.000061,0.000014,-0.075101,-0.732394,0.046785,0.675107,114.021266,79.070753,-63.673731
30322,-9.597009,1.673568,-0.776852,0.021633,0.019943,-0.039968,-0.008981,0.004419,0.001072,-0.095970,0.016735,-0.007767,1.000000,-0.000045,0.000022,0.000005,-0.075109,-0.732400,0.046772,0.675101,114.025727,79.070771,-63.667540
30323,-9.571488,1.650805,-0.773658,0.019633,0.037941,-0.069215,-0.005218,0.004946,0.004308,-0.095715,0.016506,-0.007735,1.000000,-0.000026,0.000025,0.000022,-0.075117,-0.732409,0.046780,0.675090,114.030506,79.068893,-63.662744
30324,-9.578688,1.660761,-0.827398,0.072505,0.031937,-0.056269,-0.003045,0.007063,0.001226,-0.095787,0.016607,-0.008271,1.000000,-0.000015,0.000035,0.000006,-0.075106,-0.732425,0.046784,0.675073,114.045409,79.068209,-63.649026
30325,-9.576826,1.691251,-0.811538,0.057396,0.000804,-0.054039,0.005275,0.004912,0.002855,-0.095769,0.016911,-0.008113,1.000000,0.000026,0.000025,0.000014,-0.075071,-0.732438,0.046822,0.675060,114.057861,79.067097,-63.642538
30326,-9.605818,1.715716,-0.781268,0.025238,-0.019883,-0.023675,0.011315,0.002896,0.001288,-0.096058,0.017157,-0.007810,1.000000,0.000057,0.000014,0.000006,-0.075004,-0.732446,0.046879,0.675055,114.069600,79.067360,-63.640841
30327,-9.593082,1.735185,-0.746342,-0.008159,-0.043008,-0.035510,0.007817,0.002907,0.001772,-0.095931,0.017351,-0.007461,1.000000,0.000039,0.000015,0.000009,-0.074956,-0.732454,0.046922,0.675049,114.079387,79.067284,-63.638552
30328,-9.589420,1.733955,-0.781086,0.026425,-0.041016,-0.036631,0.001512,0.004386,-0.000381,-0.095894,0.017340,-0.007809,1.000000,0.000008,0.000022,-0.000002,-0.074923,-0.732464,0.046936,0.675041,114.091574,79.068047,-63.630134
30329,-9.540338,1.719449,-0.723763,-0.027383,-0.037900,-0.091771,-0.006542,0.007074,0.001708,-0.095404,0.017193,-0.007235,1.000000,-0.000033,0.000035,0.000009,-0.074928,-0.732480,0.046929,0.675024,114.104494,79.067029,-63.616274
30330,-9.600099,1.676071,-0.746492,-0.011681,0.015886,-0.038846,-0.017273,0.010295,-0.000980,-0.096001,0.016761,-0.007461,1.000000,-0.000086,0.000051,-0.000005,-0.074963,-0.732503,0.046875,0.674999,114.122680,79.066729,-63.590815
30331,-9.587234,1.633936,-0.778972,0.019854,0.056778,-0.056255,-0.015685,0.008704,0.005337,-0.095873,0.016336,-0.007787,1.000000,-0.000078,0.000044,0.000027,-0.075014,-0.732520,0.046850,0.674976,114.130367,79.063431,-63.576949
30332,-9.612567,1.657424,-0.782888,0.022128,0.038308,-0.027011,-0.010466,0.003758,0.001030,-0.096126,0.016573,-0.007828,1.000000,-0.000052,0.000019,0.000005,-0.075031,-0.732523,0.046828,0.674972,114.132459,79.063634,-63.571694
30333,-9.607092,1.686677,-0.801118,0.041443,0.009394,-0.025907,-0.006543,0.007074,0.001708,-0.096071,0.016866,-0.008008,1.000000,-0.000033,0.000035,0.000009,-0.075035,-0.732539,0.046821,0.674955,114.145367,79.062614,-63.557845
30334,-9.730426,1.732298,-0.798872,0.029999,-0.014422,0.102913,-0.017727,0.005650,0.006275,-0.097305,0.017319,-0.007988,1.000000,-0.000089,0.000028,0.000031,-0.075094,-0.732545,0.046796,0.674944,114.141912,79.059617,-63.554480
30335,-9.713916,1.689378,-0.864786,0.095980,0.028666,0.084382,-0.037950,-0.001211,0.004745,-0.097140,0.016890,-0.008652,1.000000,-0.000190,-0.000006,0.000024,-0.075222,-0.732520,0.046697,0.674963,114.110733,79.058950,-63.567206
30336,-9.733627,1.542586,-0.843448,0.069110,0.176276,0.076631,-0.034747,-0.003079,0.008958,-0.097337,0.015420,-0.008439,1.000000,-0.000174,-0.000015,0.000045,-0.075349,-0.732489,0.046628,0.674988,114.070677,79.056587,-63.591236
30337,-9.942380,1.637562,-0.919244,0.131994,0.122817,0.303885,-0.039580,-0.020497,0.006782,-0.099423,0.016370,-0.009206,1.000000,-0.000198,-0.000102,0.000034,-0.075486,-0.732398,0.046538,0.675077,113.983907,79.059349,-63.659632
30338,-9.612140,1.476687,-0.979128,0.217859,0.228863,-0.043721,-0.062867,-0.039856,0.006407,-0.096120,0.014761,-0.009815,1.000000,-0.000314,-0.000199,0.000032,-0.075699,-0.732233,0.046379,0.675243,113.831242,79.066866,-63.782006
30339,-9.494474,1.403377,-0.959165,0.210418,0.280909,-0.173636,-0.026087,-0.050881,0.004436,-0.094943,0.014030,-0.009618,1.000000,-0.000130,-0.000254,0.000022,-0.075771,-0.732045,0.046338,0.675441,113.672317,79.077808,-63.931759
30340,-9.442590,1.595657,-1.093866,0.360947,0.090037,-0.181136,0.006272,-0.057765,0.009928,-0.094424,0.015952,-0.010965,1.000000,0.000031,-0.000289,0.000050,-0.075744,-0.731845,0.046426,0.675655,113.506144,79.087452,-64.107257
30341,-9.513688,1.880197,-0.914468,0.191693,-0.185538,-0.075620,0.033116,-0.063969,0.016413,-0.095135,0.018796,-0.009172,1.000000,0.000166,-0.000320,0.000082,-0.075637,-0.731633,0.046633,0.675883,113.330699,79.094912,-64.308371
30342,-9.593817,1.951676,-0.885255,0.163740,-0.242696,0.013213,0.025104,-0.056232,0.009671,-0.095937,0.019513,-0.008877,1.000000,0.000126,-0.000281,0.000048,-0.075539,-0.731445,0.046785,0.676087,113.179141,79.104120,-64.480302
30343,-9.623186,1.784165,-0.929923,0.204873,-0.070018,0.016190,-0.017827,-0.040926,0.006974,-0.096231,0.017837,-0.009321,1.000000,-0.000089,-0.000205,0.000035,-0.075591,-0.731294,0.046778,0.676245,113.048131,79.111168,-64.606429
30344,-9.586621,1.612939,-0.794169,0.071389,0.086852,-0.059589,-0.037895,-0.042591,0.010905,-0.095865,0.016123,-0.007965,1.000000,-0.000189,-0.000213,0.000055,-0.075731,-0.731127,0.046716,0.676413,112.895990,79.116493,-64.742199
30345,-9.539469,1.569192,-0.748005,0.032850,0.120923,-0.116933,-0.039849,-0.050306,0.010103,-0.095394,0.015686,-0.007507,1.000000,-0.000199,-0.000252,0.000051,-0.075872,-0.730935,0.046649,0.676610,112.722634,79.123845,-64.898594
30346,-9.474067,1.574026,-0.683812,-0.020061,0.103439,-0.185019,-0.014085,-0.057580,0.018092,-0.094740,0.015731,-0.006867,1.000000,-0.000070,-0.000288,0.000090,-0.075943,-0.730725,0.046702,0.676825,112.534404,79.128557,-65.085392
30347,-9.457666,1.524264,-0.622486,-0.075646,0.147980,-0.214214,0.021081,-0.067020,0.009727,-0.094575,0.015239,-0.006255,1.000000,0.000105,-0.000335,0.000049,-0.075857,-0.730499,0.046846,0.677069,112.349833,79.139575,-65.288748
30348,-9.441465,1.673974,-0.603223,-0.083014,-0.002299,-0.205376,0.056668,-0.058628,0.011431,-0.094414,0.016736,-0.006055,1.000000,0.000283,-0.000293,0.000057,-0.075649,-0.730315,0.047113,0.677273,112.206433,79.147839,-65.470763
30349,-9.504105,1.886681,-0.439302,-0.240099,-0.207995,-0.118377,0.076655,-0.048589,0.008774,-0.095041,0.018864,-0.004409,1.000000,0.000383,-0.000243,0.000044,-0.075360,-0.730172,0.047434,0.677436,112.105199,79.155189,-65.621674
30350,-9.565549,2.006052,-0.394699,-0.282470,-0.316685,-0.040294,0.060992,-0.038556,0.005745,-0.095655,0.020059,-0.003959,1.000000,0.000305,-0.000193,0.000029,-0.075121,-0.730058,0.047687,0.677568,112.025813,79.162020,-65.741143
30351,-9.597202,2.007451,-0.499922,-0.177810,-0.307945,-0.001488,0.020776,-0.022442,-0.000497,-0.095971,0.020075,-0.005008,1.000000,0.000104,-0.000112,-0.000002,-0.075012,-0.729985,0.047776,0.677653,111.975240,79.168605,-65.807868
30352,-9.611828,1.888637,-0.495901,-0.185427,-0.188996,-0.008096,0.008936,-0.008155,-0.000696,-0.096118,0.018887,-0.004962,1.000000,0.000045,-0.000041,-0.000003,-0.074947,-0.729955,0.047819,0.677688,111.957400,79.172301,-65.834504
30353,-9.617417,1.728162,-0.490130,-0.196035,-0.031122,-0.030965,0.006526,-0.005762,-0.010156,-0.096173,0.017287,-0.004904,1.000000,0.000033,-0.000029,-0.000051,-0.074861,-0.729936,0.047818,0.677719,111.955752,79.180437,-65.843104
30354,-9.575433,1.653281,-0.431069,-0.253709,0.031693,-0.089381,0.015717,-0.001265,-0.006229,-0.095754,0.016536,-0.004310,1.000000,0.000079,-0.000006,-0.000031,-0.074758,-0.729934,0.047858,0.677730,111.967188,79.185594,-65.843302
30355,-9.539059,1.618694,-0.409317,-0.273967,0.057777,-0.132659,0.007183,0.006491,-0.003957,-0.095390,0.016189,-0.004089,1.000000,0.000036,0.000032,-0.000020,-0.074693,-0.729954,0.047877,0.677713,111.993050,79.187809,-65.824277
30356,-9.582848,1.592730,-0.430664,-0.257295,0.090854,-0.092668,-0.003862,0.005457,-0.009908,-0.095828,0.015932,-0.004304,1.000000,-0.000019,0.000027,-0.000050,-0.074650,-0.729969,0.047836,0.677706,112.016006,79.193480,-65.801456
30357,-9.583294,1.661160,-0.485983,-0.200594,0.025180,-0.076451,-0.003273,0.010258,-0.002884,-0.095833,0.016613,-0.004855,1.000000,-0.000016,0.000051,-0.000014,-0.074628,-0.729998,0.047822,0.677677,112.045174,79.194312,-65.772967
30358,-9.594656,1.740958,-0.560572,-0.125608,-0.048558,-0.046190,-0.018677,0.017103,-0.001765,-0.095947,0.017410,-0.005599,1.000000,-0.000093,0.000086,-0.000009,-0.074671,-0.730044,0.047752,0.677628,112.082990,79.193169,-65.725932
30359,-9.613216,1.761531,-0.633928,-0.054495,-0.062706,-0.019227,-0.044326,0.022117,-0.003449,-0.096133,0.017616,-0.006333,1.000000,-0.000222,0.000111,-0.000017,-0.074800,-0.730099,0.047593,0.677566,112.122254,79.191738,-65.663218
30360,-9.624939,1.649127,-0.788857,0.093991,0.056846,-0.016295,-0.058936,0.028161,0.000813,-0.096251,0.016489,-0.007880,1.000000,-0.000295,0.000141,0.000004,-0.075002,-0.730166,0.047394,0.677485,112.164479,79.186765,-65.588354
30361,-9.694231,1.585895,-0.881719,0.177803,0.135548,0.047364,-0.064519,0.021390,0.002647,-0.096943,0.015855,-0.008812,1.000000,-0.000323,0.000107,0.000013,-0.075225,-0.730209,0.047189,0.677428,112.183199,79.182242,-65.534775
30362,-9.695888,1.556740,-0.899060,0.193258,0.166180,0.045154,-0.053546,0.014964,0.009419,-0.096960,0.015560,-0.008988,1.000000,-0.000268,0.000075,0.000047,-0.075431,-0.730232,0.047046,0.677391,112.182195,79.175586,-65.507367
30363,-9.679731,1.514584,-0.965382,0.259305,0.209178,0.026628,-0.046687,0.000030,0.010066,-0.096798,0.015139,-0.009657,1.000000,-0.000233,0.000000,0.000050,-0.075609,-0.730207,0.046936,0.677405,112.143430,79.171745,-65.522716
30364,-9.672415,1.444592,-0.978878,0.271788,0.278726,0.008163,-0.016731,-0.005799,0.014427,-0.096725,0.014438,-0.009793,1.000000,-0.000084,-0.000029,0.000072,-0.075694,-0.730173,0.046941,0.677432,112.100479,79.166928,-65.559121
30365,-9.675290,1.508964,-0.875946,0.172441,0.212441,0.014857,0.020157,-0.019108,0.018623,-0.096753,0.015082,-0.008767,1.000000,0.000101,-0.000096,0.000093,-0.075652,-0.730107,0.047097,0.677497,112.037341,79.162659,-65.638279
30366,-9.644317,1.647289,-0.875419,0.181116,0.072355,0.008450,0.025162,-0.030575,0.017247,-0.096443,0.016466,-0.008767,1.000000,0.000126,-0.000153,0.000086,-0.075586,-0.730003,0.047267,0.677605,111.946521,79.161646,-65.748420
30367,-9.685898,1.784638,-0.863991,0.173974,-0.054861,0.072391,0.022151,-0.035623,0.017577,-0.096859,0.017839,-0.008655,1.000000,0.000111,-0.000178,0.000088,-0.075529,-0.729882,0.047432,0.677730,111.839927,79.161416,-65.872988
30368,-9.798885,1.959117,-0.946483,0.257336,-0.201713,0.219521,-0.023024,-0.045701,0.018368,-0.097988,0.019581,-0.009489,1.000000,-0.000115,-0.000229,0.000092,-0.075639,-0.729709,0.047448,0.677903,111.678306,79.162934,-66.027038
30369,-9.844317,2.037150,-0.965672,0.280791,-0.267205,0.279034,-0.086328,-0.037602,0.024845,-0.098444,0.020355,-0.009684,1.000000,-0.000432,-0.000188,0.000124,-0.076002,-0.729538,0.047272,0.678059,111.496063,79.159123,-66.165345
30370,-9.880590,1.874618,-0.940435,0.253301,-0.098890,0.284378,-0.157409,-0.035731,0.019393,-0.098806,0.018729,-0.009437,1.000000,-0.000787,-0.000179,0.000097,-0.076608,-0.729347,0.046833,0.678226,111.284127,79.157800,-66.292186
30371,-9.752221,1.576663,-1.154793,0.472568,0.185949,0.120456,-0.199218,-0.036114,0.012536,-0.097521,0.015749,-0.011581,0.999999,-0.000996,-0.000181,0.000063,-0.077342,-0.729140,0.046228,0.678407,111.054830,79.160068,-66.412547
30372,-9.638630,1.445048,-1.167022,0.495797,0.299814,-0.013831,-0.171103,-0.059015,0.012481,-0.096384,0.014434,-0.011711,1.000000,-0.000856,-0.000295,0.000062,-0.077968,-0.728866,0.045728,0.678664,110.777499,79.167029,-66.598185
30373,-9.593973,1.395409,-0.961021,0.301261,0.333472,-0.080623,-0.110194,-0.092974,0.019777,-0.095937,0.013939,-0.009662,1.000000,-0.000551,-0.000465,0.000099,-0.078389,-0.728498,0.045474,0.679028,110.431888,79.176655,-66.888895
30374,-9.465665,1.512564,-0.958320,0.323537,0.198798,-0.186638,-0.059178,-0.107297,0.019745,-0.094653,0.015113,-0.009638,1.000000,-0.000296,-0.000536,0.000099,-0.078625,-0.728101,0.045392,0.679431,110.074752,79.188853,-67.220148
30375,-9.493462,1.638584,-0.952891,0.332525,0.081774,-0.137900,-0.005698,-0.118972,0.020342,-0.094931,0.016376,-0.009586,1.000000,-0.000028,-0.000595,0.000102,-0.078662,-0.727685,0.045506,0.679865,109.713790,79.202566,-67.587415
30376,-9.582717,1.844258,-0.799355,0.192607,-0.111186,-0.023957,0.034573,-0.117939,0.018615,-0.095824,0.018435,-0.008047,1.000000,0.000173,-0.000590,0.000093,-0.078553,-0.727289,0.045741,0.680285,109.379915,79.216638,-67.949275
30377,-9.694271,1.941646,-0.697238,0.097797,-0.190888,0.096349,0.022840,-0.118054,0.023756,-0.096941,0.019406,-0.007027,1.000000,0.000114,-0.000590,0.000119,-0.078497,-0.726886,0.045963,0.680707,109.032791,79.227503,-68.319068
30378,-9.826073,1.961727,-0.629401,0.032780,-0.188216,0.225227,0.001393,-0.110555,0.034923,-0.098261,0.019600,-0.006348,1.000000,0.000007,-0.000553,0.000175,-0.078565,-0.726498,0.046143,0.681101,108.683669,79.230578,-68.677384
30379,-9.963131,2.062141,-0.702219,0.111426,-0.254878,0.382024,-0.020742,-0.116643,0.048223,-0.099632,0.020597,-0.007082,1.000000,-0.000104,-0.000583,0.000241,-0.078751,-0.726077,0.046305,0.681518,108.291315,79.227024,-69.067791
30380,-10.067160,2.362468,-0.706738,0.133396,-0.525248,0.537905,-0.014709,-0.126502,0.072138,-0.100676,0.023588,-0.007133,1.000000,-0.000074,-0.000633,0.000361,-0.078997,-0.725619,0.046575,0.681959,107.852476,79.211675,-69.508458
30381,-9.931235,2.638213,-0.550846,0.010054,-0.818454,0.445141,0.002529,-0.120898,0.110955,-0.099324,0.026327,-0.005568,1.000000,0.000013,-0.000604,0.000555,-0.079312,-0.725177,0.047046,0.682360,107.405900,79.173512,-69.967688
30382,-9.589435,2.823582,-0.256656,-0.244965,-1.062283,0.127498,0.036411,-0.086125,0.158359,-0.095916,0.028160,-0.002603,1.000000,0.000182,-0.000431,0.000792,-0.079675,-0.724855,0.047788,0.682608,107.039833,79.102904,-70.364527
30383,-9.189449,2.956456,-0.516101,0.048121,-1.233190,-0.224681,0.018135,-0.028683,0.211056,-0.091925,0.029468,-0.005172,0.999999,0.000091,-0.000143,0.001055,-0.080296,-0.724709,0.048639,0.682630,106.785799,78.993423,-70.636973
30384,-8.969907,3.251734,-0.574677,0.130921,-1.536669,-0.379517,0.041498,0.002902,0.287152,-0.089746,0.032390,-0.005739,0.999999,0.000207,0.000015,0.001436,-0.081101,-0.724660,0.049831,0.682501,106.575299,78.836737,-70.878673
30385,-8.723939,3.491776,-0.494955,0.070882,-1.791418,-0.575248,0.048681,0.044533,0.369189,-0.087305,0.034758,-0.004922,0.999998,0.000243,0.000223,0.001846,-0.082169,-0.724734,0.051329,0.682184,106.423155,78.628099,-71.065366
30386,-8.561471,3.695698,-0.615537,0.200050,-1.979271,-0.681522,0.007087,0.093585,0.444712,-0.085699,0.036767,-0.006114,0.999997,0.000035,0.000468,0.002224,-0.083662,-0.724936,0.052934,0.681665,106.325776,78.369823,-71.171342
30387,-8.526332,3.554843,-0.618411,0.187495,-1.803083,-0.733526,-0.005950,0.132264,0.552857,-0.085365,0.035312,-0.006129,0.999996,-0.000030,0.000661,0.002764,-0.085576,-0.725230,0.054874,0.680960,106.244201,78.045942,-71.254318
30388,-8.572434,3.434790,-0.631967,0.177476,-1.622095,-0.701114,0.049402,0.148231,0.649696,-0.085840,0.034071,-0.006248,0.999994,0.000247,0.000741,0.003248,-0.087626,-0.725570,0.057345,0.680134,106.167563,77.665997,-71.364338
30389,-8.544073,3.493151,-0.682859,0.211934,-1.620198,-0.702297,0.103315,0.175887,0.750757,-0.085577,0.034614,-0.006735,0.999992,0.000517,0.000879,0.003754,-0.089827,-0.725988,0.060355,0.679139,106.123426,77.226209,-71.473335
30390,-8.430976,3.640066,-0.542200,0.060070,-1.724007,-0.776699,0.148953,0.197208,0.839525,-0.084467,0.036050,-0.005312,0.999990,0.000745,0.000986,0.004198,-0.092173,-0.726460,0.063831,0.678001,106.099923,76.733845,-71.587985
30391,-8.492912,3.732975,-0.437831,-0.075185,-1.727886,-0.687753,0.168263,0.254504,0.928804,-0.085107,0.036938,-0.004239,0.999988,0.000841,0.001273,0.004644,-0.094763,-0.727091,0.067669,0.676594,106.163439,76.183540,-71.624964
30392,-8.737837,3.628471,-0.713106,0.142288,-1.470835,-0.440405,0.154129,0.307259,1.006044,-0.087570,0.035850,-0.006969,0.999986,0.000771,0.001536,0.005030,-0.097686,-0.727849,0.071714,0.674945,106.282841,75.581944,-71.595799
30393,-9.011943,3.878646,-0.887981,0.262371,-1.544267,-0.086800,0.179353,0.314171,1.080148,-0.090341,0.038307,-0.008704,0.999984,0.000897,0.001571,0.005401,-0.100763,-0.728593,0.076108,0.673206,106.380470,74.938845,-71.604271
30394,-9.167675,4.249661,-0.677387,0.007271,-1.767094,0.159315,0.190794,0.299290,1.159734,-0.091931,0.041970,-0.006596,0.999982,0.000954,0.001496,0.005799,-0.104060,-0.729238,0.080836,0.671452,106.405798,74.253970,-71.694366
30395,-9.279396,4.537073,-0.702320,-0.012575,-1.897404,0.364923,0.151411,0.287329,1.223244,-0.093079,0.044807,-0.006856,0.999980,0.000757,0.001437,0.006116,-0.107702,-0.729769,0.085665,0.669700,106.355059,73.536549,-71.840655
30396,-9.344056,4.648784,-0.798934,0.040971,-1.857468,0.488159,0.096848,0.271587,1.281380,-0.093747,0.045892,-0.007840,0.999978,0.000484,0.001358,0.006407,-0.111729,-0.730162,0.090534,0.667970,106.223122,72.789048,-72.039893
30397,-9.305552,4.469191,-0.379857,-0.411850,-1.581535,0.387250,0.062554,0.259932,1.336475,-0.093356,0.044070,-0.003664,0.999977,0.000313,0.001300,0.006682,-0.116052,-0.730440,0.095487,0.666237,106.039553,72.013496,-72.273280
30398,-9.302007,4.265611,-0.619701,-0.208516,-1.240242,0.361956,-0.034118,0.265167,1.389980,-0.093322,0.042007,-0.006081,0.999975,-0.000171,0.001326,0.006950,-0.120908,-0.730618,0.100310,0.664468,105.802196,71.206749,-72.506016
30399,-9.348146,4.114872,-0.742616,-0.122575,-0.933840,0.384495,-0.101067,0.268567,1.442494,-0.093785,0.040469,-0.007321,0.999973,-0.000505,0.001343,0.007212,-0.126173,-0.730703,0.105090,0.662654,105.529523,70.370825,-72.736681
30400,-9.382392,4.062075,-0.779935,-0.117135,-0.721942,0.414781,-0.141198,0.255657,1.482471,-0.094131,0.039918,-0.007708,0.999971,-0.000706,0.001278,0.007412,-0.131709,-0.730657,0.109890,0.660845,105.218693,69.513694,-72.984659
30401,-9.451552,4.032119,-0.977533,0.045628,-0.507554,0.496707,-0.176946,0.263897,1.506946,-0.094829,0.039599,-0.009686,0.999970,-0.000885,0.001319,0.007535,-0.137449,-0.730561,0.114646,0.658973,104.912874,68.642058,-73.206792
30402,-9.514394,4.028454,-1.070124,0.105890,-0.319967,0.569102,-0.194553,0.243001,1.525907,-0.095460,0.039547,-0.010624,0.999970,-0.000973,0.001215,0.007629,-0.143300,-0.730328,0.119425,0.657134,104.581808,67.761802,-73.446530
30403,-9.579178,4.105051,-1.078623,0.084810,-0.206483,0.662209,-0.212678,0.236964,1.541579,-0.096117,0.040299,-0.010716,0.999969,-0.001063,0.001185,0.007708,-0.149251,-0.730009,0.124194,0.655277,104.249307,66.873944,-73.678138
30404,-9.703572,4.101815,-1.088909,0.058388,0.008050,0.778069,-0.227909,0.230647,1.551698,-0.097363,0.040251,-0.010823,0.999969,-0.001140,0.001153,0.007758,-0.155283,-0.729605,0.128951,0.653403,103.917115,65.980095,-73.901375
30405,-9.744811,4.134523,-1.298743,0.241098,0.172957,0.848078,-0.261126,0.220511,1.556631,-0.097780,0.040568,-0.012933,0.999968,-0.001306,0.001103,0.007783,-0.161431,-0.729094,0.133613,0.651543,103.572505,65.085116,-74.118961
30406,-9.639558,4.071523,-1.101096,0.035708,0.342228,0.703494,-0.257646,0.210885,1.555662,-0.096720,0.039950,-0.010961,0.999968,-0.001288,0.001054,0.007778,-0.167551,-0.728509,0.138287,0.649676,103.237548,64.190696,-74.329597
30407,-9.251432,4.002707,-1.197815,0.157605,0.409238,0.328861,-0.356849,0.235757,1.521671,-0.092829,0.039300,-0.011939,0.999969,-0.001784,0.001179,0.007608,-0.173925,-0.727900,0.142481,0.647774,102.901233,63.312254,-74.480014
30408,-9.311223,3.154709,-1.070474,-0.013750,1.339929,-0.014752,-0.364770,0.329191,1.456187,-0.093356,0.030849,-0.010608,0.999970,-0.001824,0.001646,0.007281,-0.180175,-0.727588,0.146325,0.645555,102.691362,62.457517,-74.484369
30409,-9.644254,2.997966,-1.808688,0.641192,1.825362,0.263318,-0.379396,0.430381,1.350597,-0.096681,0.029293,-0.017935,0.999973,-0.001897,0.002152,0.006753,-0.186197,-0.727627,0.149634,0.643039,102.609315,61.649830,-74.334636
30410,-9.847782,3.683468,-2.197607,0.973199,1.483733,0.780978,-0.312593,0.480083,1.298321,-0.098766,0.036160,-0.021796,0.999975,-0.001563,0.002400,0.006492,-0.191840,-0.727888,0.152918,0.640306,102.624400,60.864552,-74.116600
30411,-9.738510,5.532324,-1.204060,0.002371,-0.130511,1.451232,-0.104693,0.345523,1.337450,-0.097773,0.054664,-0.011901,0.999976,-0.000523,0.001728,0.006687,-0.196735,-0.727854,0.157127,0.637836,102.611306,60.074877,-74.066225
30412,-9.218777,6.642570,-0.428184,-0.707894,-1.263896,1.465268,-0.071429,0.255372,1.382594,-0.092649,0.065785,-0.004187,0.999975,-0.000357,0.001277,0.006913,-0.201577,-0.727493,0.161692,0.635591,102.521104,59.270607,-74.126816
30413,-8.769993,5.924213,-0.877576,-0.247110,-0.672545,0.782782,-0.223371,0.318661,1.371979,-0.088117,0.058629,-0.008701,0.999975,-0.001117,0.001593,0.006860,-0.206974,-0.727153,0.165659,0.633220,102.408825,58.465006,-74.112042
30414,-8.992165,4.742635,-1.784347,0.561131,0.680416,0.471083,-0.345341,0.430358,1.317272,-0.090270,0.046802,-0.017731,0.999975,-0.001727,0.002152,0.006586,-0.212728,-0.727048,0.168921,0.630566,102.339161,57.675672,-73.964527
30415,-9.309964,4.347195,-1.700049,0.386219,1.311547,0.511685,-0.285947,0.392087,1.307302,-0.093414,0.042838,-0.016879,0.999976,-0.001430,0.001960,0.006536,-0.218188,-0.726859,0.172363,0.627982,102.270071,56.897335,-73.855554
30416,-9.224217,4.973044,-1.617979,0.299493,0.868914,0.750869,-0.209558,0.294939,1.327412,-0.092593,0.049100,-0.016095,0.999976,-0.001048,0.001475,0.006637,-0.223343,-0.726395,0.176219,0.625632,102.157847,56.119008,-73.849767
30417,-8.728018,5.615208,-0.911641,-0.336374,0.131267,0.599224,-0.143181,0.268974,1.332596,-0.087664,0.055562,-0.009039,0.999977,-0.000716,0.001345,0.006663,-0.228236,-0.725887,0.180318,0.623284,102.063486,55.341504,-73.868381
30418,-8.786045,5.586447,-0.853305,-0.433352,0.316277,0.620036,-0.229704,0.313548,1.273236,-0.088227,0.055294,-0.008459,0.999978,-0.001149,0.001568,0.006366,-0.233291,-0.725438,0.183877,0.620890,101.967395,54.591362,-73.828688
30419,-8.813500,5.498771,-1.449807,0.121779,0.602186,0.658092,-0.325219,0.321974,1.235442,-0.088496,0.054418,-0.014445,0.999978,-0.001626,0.001610,0.006177,-0.238569,-0.724908,0.186981,0.618572,101.830724,53.862033,-73.771241
30420,-8.833006,6.085281,-1.056692,-0.278332,0.223677,0.959507,-0.257790,0.245393,1.249561,-0.088721,0.060286,-0.010536,0.999979,-0.001289,0.001227,0.006248,-0.243569,-0.724177,0.190431,0.616424,101.673552,53.133267,-73.786771
30421,-8.509041,6.775971,-1.044332,-0.237296,-0.386241,1.105238,-0.274830,0.180117,1.245135,-0.085519,0.067214,-0.010459,0.999979,-0.001374,0.000901,0.006226,-0.248540,-0.723198,0.193882,0.614509,101.462616,52.415001,-73.857761
30422,-8.220785,6.612717,-0.624549,-0.615971,-0.339694,0.732601,-0.357522,0.148451,1.238173,-0.082620,0.065605,-0.006302,0.999979,-0.001788,0.000742,0.006191,-0.253752,-0.721996,0.197087,0.612771,101.187662,51.703495,-73.950467
30423,-8.007037,6.186608,-1.229450,0.004803,0.079079,0.379985,-0.537384,0.144032,1.225729,-0.080456,0.061341,-0.012402,0.999977,-0.002687,0.000720,0.006129,-0.259556,-0.720533,0.199690,0.611217,100.815273,50.999700,-74.036954
30424,-7.659000,6.283143,-0.897302,-0.251332,-0.120203,0.130366,-0.602949,0.131101,1.225158,-0.076979,0.062333,-0.009111,0.999976,-0.003015,0.000655,0.006126,-0.265573,-0.718912,0.202102,0.609746,100.403865,50.296700,-74.126101
30425,-7.478288,6.098588,-0.737637,-0.372505,0.017480,-0.142047,-0.648131,0.156910,1.225936,-0.075161,0.060502,-0.007514,0.999976,-0.003241,0.000785,0.006130,-0.271765,-0.717276,0.204331,0.608200,99.991684,49.590795,-74.183434
30426,-7.620621,5.558305,-1.464170,0.305353,0.750124,-0.301897,-0.666115,0.170902,1.224180,-0.076557,0.055066,-0.014760,0.999975,-0.003331,0.000855,0.006121,-0.278021,-0.715624,0.206474,0.606593,99.585286,48.883738,-74.220035
30427,-7.721655,5.264113,-1.217657,0.035684,1.125111,-0.455918,-0.515956,0.145843,1.232163,-0.077548,0.052133,-0.012255,0.999977,-0.002580,0.000729,0.006161,-0.283721,-0.714064,0.209123,0.604882,99.254086,48.174914,-74.271595
30428,-7.742313,5.105805,-1.459084,0.258100,1.414233,-0.535096,-0.374622,0.124494,1.237072,-0.077746,0.050550,-0.014638,0.999979,-0.001873,0.000622,0.006185,-0.288900,-0.712603,0.212240,0.603066,98.994858,47.464598,-74.335801
30429,-7.731011,5.386027,-1.746339,0.544324,1.361715,-0.342959,-0.187162,0.096549,1.234547,-0.077649,0.053365,-0.017476,0.999980,-0.000936,0.000483,0.006173,-0.293359,-0.711303,0.215943,0.601130,98.830407,46.758526,-74.418063
30430,-7.373641,5.966202,-1.497984,0.374288,0.776212,-0.248881,-0.072054,0.119441,1.204036,-0.074103,0.059211,-0.014957,0.999982,-0.000360,0.000597,0.006020,-0.297333,-0.710245,0.219844,0.599010,98.751263,46.067186,-74.474499
30431,-7.153029,6.054299,-1.777640,0.669110,0.719764,-0.325139,-0.091159,0.212751,1.144209,-0.071894,0.060124,-0.017728,0.999983,-0.000456,0.001064,0.005721,-0.301285,-0.709481,0.223327,0.596648,98.722456,45.401992,-74.446062
30432,-7.130055,6.067788,-1.552678,0.422958,0.762571,-0.362545,-0.000820,0.243039,1.098534,-0.071651,0.060285,-0.015440,0.999984,-0.000004,0.001215,0.005493,-0.304807,-0.708970,0.226866,0.594126,98.766008,44.759633,-74.388190
30433,-7.121974,5.313747,-1.861424,0.660223,1.439287,-0.873165,0.062090,0.303404,1.057292,-0.071527,0.052766,-0.018489,0.999985,0.000310,0.001517,0.005286,-0.308040,-0.708760,0.230345,0.591364,98.880965,44.135652,-74.279199
30434,-7.079719,4.622087,-2.119163,0.851304,2.023602,-1.377252,0.305609,0.302799,1.026639,-0.071065,0.045889,-0.021014,0.999985,0.001528,0.001514,0.005133,-0.310311,-0.708936,0.234431,0.588352,99.134223,43.528487,-74.170777
30435,-6.878462,5.102119,-1.920820,0.657397,1.590745,-1.206236,0.597760,0.287482,1.014733,-0.069070,0.050728,-0.018957,0.999982,0.002989,0.001437,0.005074,-0.311482,-0.709511,0.239348,0.585052,99.542900,42.929374,-74.078616
30436,-6.851796,6.066018,-1.564218,0.267487,0.920536,-0.578481,0.765320,0.265474,0.990234,-0.068838,0.060379,-0.015320,0.999980,0.003827,0.001327,0.004951,-0.311949,-0.710285,0.244695,0.581643,100.032813,42.345473,-74.007303
30437,-6.806937,6.601560,-0.918479,-0.425354,0.492827,-0.308278,0.746071,0.246642,0.938429,-0.068389,0.065729,-0.008855,0.999981,0.003730,0.001233,0.004692,-0.312297,-0.711009,0.249820,0.578384,100.501431,41.792541,-73.950457
30438,-6.736067,6.445725,-0.807317,-0.593795,0.602541,-0.492962,0.608895,0.262944,0.870766,-0.067651,0.064187,-0.007789,0.999985,0.003044,0.001315,0.004354,-0.312948,-0.711626,0.254275,0.575323,100.901638,41.275445,-73.877732
30439,-6.511033,6.337351,-0.798514,-0.617674,0.578132,-0.731012,0.464629,0.267252,0.798218,-0.065373,0.063131,-0.007751,0.999988,0.002323,0.001336,0.003991,-0.313899,-0.712103,0.258043,0.572529,101.224460,40.798555,-73.796172
30440,-6.378960,6.245676,-0.602510,-0.831582,0.574796,-0.922230,0.302967,0.271080,0.730923,-0.064025,0.062232,-0.005844,0.999991,0.001515,0.001355,0.003655,-0.315233,-0.712410,0.261097,0.570024,101.460212,40.358564,-73.705370
30441,-6.443542,6.235836,-0.809938,-0.682429,0.716672,-0.863877,0.141401,0.269604,0.656590,-0.064650,0.062152,-0.007968,0.999993,0.000707,0.001348,0.003283,-0.316923,-0.712545,0.263424,0.567844,101.607699,39.960423,-73.607047
30442,-6.338811,6.350257,-0.702217,-0.797006,0.599335,-0.868152,0.048724,0.247176,0.572223,-0.063578,0.063323,-0.006928,0.999995,0.000244,0.001236,0.002861,-0.318672,-0.712571,0.265221,0.565993,101.698245,39.611929,-73.513987
30443,-6.163355,6.332685,-0.881729,-0.607625,0.555066,-0.970189,0.025754,0.230263,0.517103,-0.061807,0.063168,-0.008738,0.999996,0.000129,0.001151,0.002586,-0.320320,-0.712581,0.266780,0.564316,101.771967,39.296361,-73.426009
30444,-5.961367,6.719797,-0.873444,-0.598760,0.193983,-0.809346,-0.015089,0.207351,0.473343,-0.059782,0.067056,-0.008678,0.999997,-0.000075,0.001037,0.002367,-0.321958,-0.712513,0.268103,0.562841,101.815133,39.007855,-73.348791
30445,-5.987063,6.057000,-1.366408,-0.126443,0.760104,-1.221682,-0.126664,0.242138,0.420891,-0.060014,0.060435,-0.013630,0.999997,-0.000633,0.001211,0.002104,-0.323890,-0.712429,0.268866,0.561472,101.814501,38.744757,-73.239044
30446,-6.226230,5.590510,-1.584012,0.025908,1.309585,-1.397639,-0.025627,0.215817,0.387440,-0.062387,0.055782,-0.015780,0.999998,-0.000128,0.001079,0.001937,-0.325331,-0.712476,0.269836,0.560113,101.862384,38.503411,-73.143696
30447,-6.107820,5.667816,-1.353742,-0.192472,1.163248,-1.453744,0.119593,0.178459,0.346908,-0.061188,0.056580,-0.013449,0.999998,0.000598,0.000892,0.001735,-0.326089,-0.712706,0.271128,0.558754,101.979935,38.289166,-73.069682
30448,-6.020069,6.005757,-1.546690,-0.016063,0.936008,-1.220474,0.202144,0.164232,0.305397,-0.060305,0.059981,-0.015357,0.999998,0.001011,0.000821,0.001527,-0.326417,-0.713084,0.272524,0.557399,102.141681,38.099741,-73.000357
30449,-6.116126,6.459302,-1.279995,-0.336495,0.695797,-0.858889,0.272671,0.131798,0.274577,-0.061258,0.064526,-0.012672,0.999998,0.001363,0.000659,0.001373,-0.326361,-0.713526,0.274059,0.556112,102.331834,37.931348,-72.950242
30450,-6.182343,6.977058,-1.087445,-0.583257,0.402293,-0.454209,0.298323,0.097885,0.235071,-0.061911,0.069714,-0.010740,0.999998,0.001492,0.000489,0.001175,-0.326056,-0.713967,0.275578,0.554973,102.525115,37.789152,-72.918807
30451,-6.124770,7.488320,-0.761134,-0.930784,-0.002737,-0.153462,0.236155,0.071080,0.206113,-0.061328,0.074829,-0.007501,0.999999,0.001181,0.000355,0.001031,-0.325855,-0.714270,0.276864,0.554061,102.673556,37.666384,-72.902342
30452,-6.158140,7.602356,-0.603996,-1.115446,-0.059829,-0.074336,0.120559,0.058317,0.177997,-0.061651,0.075972,-0.005976,0.999999,0.000603,0.000292,0.000890,-0.325971,-0.714386,0.277749,0.553399,102.752732,37.560976,-72.890767
30453,-6.347922,7.741988,-0.809895,-0.974775,0.042026,0.184234,0.007803,0.027522,0.137241,-0.063533,0.077377,-0.008087,1.000000,0.000039,0.000138,0.000686,-0.326333,-0.714290,0.278227,0.553070,102.758004,37.482169,-72.894475
30454,-6.361586,7.874005,-0.771786,-1.019629,-0.025411,0.288059,-0.095907,0.009602,0.090282,-0.063652,0.078708,-0.007753,1.000000,-0.000480,0.000048,0.000451,-0.326911,-0.714039,0.278280,0.553026,102.700652,37.431946,-72.903355
30455,-6.370500,7.604611,-1.144803,-0.640609,0.219605,0.150511,-0.181960,-0.004195,0.041228,-0.063720,0.076023,-0.011519,1.000000,-0.000910,-0.000021,0.000206,-0.327641,-0.713678,0.277942,0.553230,102.592968,37.410790,-72.914031
30456,-6.389586,7.464585,-1.438217,-0.339862,0.374799,0.104939,-0.202201,-0.045481,-0.004232,-0.063891,0.074633,-0.014472,0.999999,-0.001011,-0.000227,-0.000021,-0.328260,-0.713231,0.277453,0.553684,102.460225,37.420268,-72.946719
30457,-6.277460,7.387838,-1.440766,-0.290337,0.340756,-0.021773,-0.195763,-0.077192,-0.027980,-0.062759,0.073873,-0.014504,0.999999,-0.000979,-0.000386,-0.000140,-0.328746,-0.712740,0.276949,0.554280,102.319945,37.446778,-72.998007
30458,-6.075021,7.380669,-1.819072,0.144967,0.252952,-0.086222,-0.205796,-0.091463,-0.050142,-0.060723,0.073803,-0.018294,0.999999,-0.001029,-0.000457,-0.000251,-0.329186,-0.712222,0.276360,0.554978,102.169601,37.487445,-73.056193
30459,-5.861514,7.496584,-1.585430,-0.015036,-0.021010,-0.165460,-0.198626,-0.095766,-0.054400,-0.058587,0.074966,-0.015957,0.999999,-0.000993,-0.000479,-0.000272,-0.329583,-0.711710,0.275784,0.555686,102.021938,37.530776,-73.116824
30460,-5.757863,7.329684,-1.756157,0.201223,0.032820,-0.330086,-0.248265,-0.073094,-0.053441,-0.057553,0.073290,-0.017674,0.999999,-0.001241,-0.000365,-0.000267,-0.330189,-0.711176,0.275035,0.556381,101.855210,37.570872,-73.161862
30461,-5.731695,7.289644,-1.988920,0.457618,0.077206,-0.340010,-0.257513,-0.070939,-0.043626,-0.057294,0.072883,-0.020003,0.999999,-0.001288,-0.000355,-0.000218,-0.330858,-0.710618,0.274292,0.557062,101.683264,37.604984,-73.206883
30462,-5.686737,7.158395,-1.627413,0.140429,0.068157,-0.527986,-0.223084,-0.070626,-0.026211,-0.056852,0.071573,-0.016374,0.999999,-0.001115,-0.000353,-0.000131,-0.331453,-0.710093,0.273705,0.557667,101.529391,37.629303,-73.254451
30463,-5.711486,7.132601,-1.859250,0.379075,0.143645,-0.496705,-0.177135,-0.065076,-0.015817,-0.057103,0.071314,-0.018674,1.000000,-0.000886,-0.000325,-0.000079,-0.331921,-0.709645,0.273274,0.558170,101.403405,37.646943,-73.299571
30464,-5.835975,7.239991,-1.543551,0.055047,0.119925,-0.387127,-0.096520,-0.068749,0.002054,-0.058355,0.072392,-0.015491,1.000000,-0.000483,-0.000344,0.000010,-0.332148,-0.709295,0.273137,0.558547,101.320304,37.655013,-73.349977
30465,-6.015646,7.373359,-1.599616,0.075672,0.182534,-0.165193,-0.047574,-0.063596,-0.003801,-0.060150,0.073731,-0.016033,1.000000,-0.000238,-0.000318,-0.000019,-0.332191,-0.709049,0.273108,0.558847,101.268090,37.665628,-73.395830
30466,-6.251504,7.547278,-1.531306,-0.040267,0.239496,0.103391,-0.029995,-0.058492,-0.026763,-0.062500,0.075479,-0.015343,1.000000,-0.000150,-0.000292,-0.000134,-0.332115,-0.708877,0.273037,0.559145,101.230009,37.688673,-73.434915
30467,-6.289242,7.947922,-1.474314,-0.102953,0.002656,0.428749,-0.058793,-0.058520,-0.056721,-0.062866,0.079493,-0.014785,1.000000,-0.000294,-0.000293,-0.000284,-0.332058,-0.708699,0.272780,0.559530,101.178066,37.728409,-73.469766
30468,-6.191412,8.009383,-1.269008,-0.268863,-0.149710,0.385325,-0.160010,-0.048326,-0.093296,-0.061874,0.080113,-0.012769,1.000000,-0.000800,-0.000242,-0.000466,-0.332270,-0.708430,0.272093,0.560079,101.075507,37.787674,-73.492423
30469,-6.062884,7.825268,-1.457591,-0.035597,-0.106385,0.192578,-0.207270,-0.030149,-0.119644,-0.060580,0.078274,-0.014666,0.999999,-0.001036,-0.000151,-0.000598,-0.332601,-0.708169,0.271150,0.560670,100.956038,37.859601,-73.498573
30470,-5.958490,7.722371,-1.319255,-0.125090,-0.150601,0.028079,-0.248747,-0.023456,-0.121951,-0.059536,0.077244,-0.013296,0.999999,-0.001244,-0.000117,-0.000610,-0.333080,-0.707860,0.270071,0.561297,100.815667,37.932217,-73.499935
30471,-5.866225,7.580545,-1.214974,-0.182896,-0.153830,-0.153688,-0.247733,-0.037211,-0.097513,-0.058623,0.075819,-0.012255,0.999999,-0.001239,-0.000186,-0.000488,-0.333605,-0.707479,0.269104,0.561929,100.667782,37.992416,-73.514572
30472,-5.848357,7.493444,-1.395566,0.018882,-0.084996,-0.205660,-0.240001,-0.032460,-0.077216,-0.058452,0.074940,-0.014055,0.999999,-0.001200,-0.000162,-0.000386,-0.334166,-0.707096,0.268221,0.562500,100.524471,38.040775,-73.528829
30473,-5.968508,7.828349,-1.386139,0.001746,-0.208861,0.126319,-0.208182,-0.050469,-0.042254,-0.059665,0.078282,-0.013958,0.999999,-0.001041,-0.000252,-0.000211,-0.334688,-0.706668,0.267582,0.563032,100.388636,38.071159,-73.560650
30474,-6.104631,8.179861,-1.169238,-0.221351,-0.365181,0.451882,-0.187365,-0.056857,-0.028369,-0.061031,0.081796,-0.011786,1.000000,-0.000937,-0.000284,-0.000142,-0.335166,-0.706237,0.267060,0.563535,100.260574,38.094428,-73.599056
30475,-6.331912,8.359269,-1.011691,-0.405525,-0.332792,0.709612,-0.207175,-0.061271,-0.021655,-0.063307,0.083589,-0.010223,0.999999,-0.001036,-0.000306,-0.000108,-0.335727,-0.705751,0.266514,0.564068,100.118756,38.114174,-73.641472
30476,-6.438791,8.376828,-0.852128,-0.562082,-0.289216,0.768228,-0.242090,-0.065017,-0.033836,-0.064371,0.083769,-0.008644,0.999999,-0.001210,-0.000325,-0.000169,-0.336372,-0.705211,0.265832,0.564681,99.955999,38.141177,-73.685226
30477,-6.612104,8.107240,-0.686673,-0.737508,-0.016255,0.645541,-0.265947,-0.076512,-0.053045,-0.066097,0.081081,-0.007000,0.999999,-0.001330,-0.000383,-0.000265,-0.337031,-0.704623,0.265035,0.565397,99.776028,38.179949,-73.734839
30478,-6.484694,8.199001,-0.759715,-0.608409,-0.158743,0.649463,-0.294798,-0.101756,-0.076180,-0.064812,0.082003,-0.007751,0.999999,-0.001474,-0.000509,-0.000381,-0.337692,-0.703943,0.264115,0.566279,99.569691,38.234188,-73.800109
30479,-6.368116,8.342853,-0.815192,-0.493623,-0.329746,0.697695,-0.349106,-0.094594,-0.087301,-0.063641,0.083442,-0.008328,0.999998,-0.001746,-0.000473,-0.000437,-0.338520,-0.703205,0.262991,0.567223,99.336222,38.293740,-73.859057
30480,-6.313910,8.526237,-0.701789,-0.549868,-0.508270,0.793623,-0.422296,-0.116990,-0.094586,-0.063095,0.085277,-0.007235,0.999997,-0.002111,-0.000585,-0.000473,-0.339555,-0.702286,0.261669,0.568354,99.050786,38.359348,-73.933873
30481,-6.166196,8.221809,-0.750609,-0.427038,-0.418052,0.474497,-0.557599,-0.116472,-0.095942,-0.061618,0.082226,-0.007771,0.999996,-0.002788,-0.000582,-0.000480,-0.341060,-0.701136,0.259956,0.569657,98.688003,38.425251,-74.008524
30482,-6.107842,7.556969,-0.873043,-0.259448,-0.016550,-0.060359,-0.559783,-0.117032,-0.073431,-0.061045,0.075567,-0.008978,0.999996,-0.002799,-0.000585,-0.000367,-0.342633,-0.699945,0.258314,0.570923,98.321480,38.478149,-74.086820
30483,-5.829121,7.668876,-1.335876,0.303522,-0.205743,-0.094651,-0.513615,-0.130050,-0.040792,-0.058267,0.076666,-0.013594,0.999996,-0.002568,-0.000650,-0.000204,-0.344118,-0.698750,0.256939,0.572114,97.973383,38.513132,-74.178194
30484,-5.570831,7.711948,-1.503906,0.569492,-0.386280,-0.205590,-0.509306,-0.107444,-0.000410,-0.055700,0.077081,-0.015265,0.999997,-0.002547,-0.000537,-0.000002,-0.345730,-0.697569,0.255676,0.573148,97.634964,38.523075,-74.257686
30485,-5.767227,7.551477,-1.636280,0.691695,-0.099062,-0.196309,-0.478351,-0.064845,0.033339,-0.057680,0.075466,-0.016562,0.999997,-0.002392,-0.000324,0.000167,-0.347383,-0.696517,0.254545,0.573930,97.331789,38.510249,-74.309328
30486,-5.891268,8.032522,-1.629259,0.716735,-0.294572,0.251225,-0.449713,-0.031367,0.043611,-0.058928,0.080275,-0.016482,0.999997,-0.002249,-0.000157,0.000218,-0.349007,-0.695593,0.253473,0.574540,97.059391,38.489027,-74.337681
30487,-6.000017,8.177679,-1.875164,0.979225,-0.239187,0.452527,-0.545102,0.016689,0.032911,-0.060015,0.081715,-0.018969,0.999996,-0.002726,0.000083,0.000165,-0.350990,-0.694651,0.252003,0.575118,96.755004,38.470421,-74.329849
30488,-6.166067,7.401219,-2.686915,1.733807,0.551638,0.021304,-0.558802,0.027202,0.016174,-0.061670,0.073932,-0.027067,0.999996,-0.002794,0.000136,0.000081,-0.352984,-0.693730,0.250416,0.575702,96.448270,38.460704,-74.312986
30489,-6.081756,6.846877,-2.865078,1.924501,0.887543,-0.454021,-0.454127,0.046092,0.003004,-0.060825,0.068403,-0.028792,0.999997,-0.002271,0.000230,0.000015,-0.354598,-0.693062,0.249050,0.576108,96.210951,38.457334,-74.281122
30490,-6.030919,6.417697,-2.447616,1.522139,1.042728,-0.860289,-0.299569,0.037395,-0.016110,-0.060309,0.064145,-0.024561,0.999999,-0.001498,0.000187,-0.000081,-0.355609,-0.692663,0.248076,0.576384,96.059124,38.465503,-74.254124
30491,-6.115719,6.170935,-2.242836,1.299325,1.221225,-1.018762,-0.175122,0.076302,-0.069203,-0.061144,0.061711,-0.022459,0.999999,-0.000876,0.000382,-0.000346,-0.356084,-0.692663,0.247209,0.576464,95.998833,38.501589,-74.194686
30492,-5.931563,6.455974,-1.833531,0.961019,0.815281,-0.944958,-0.000196,0.061022,-0.079478,-0.059296,0.064583,-0.018317,1.000000,-0.000001,0.000305,-0.000397,-0.355903,-0.692942,0.246836,0.576399,96.032418,38.544529,-74.145533
30493,-5.669967,7.028697,-1.238626,0.470493,0.128991,-0.710638,0.109604,0.042749,-0.057473,-0.056682,0.070310,-0.012336,1.000000,0.000548,0.000214,-0.000287,-0.355384,-0.693337,0.246889,0.576222,96.119582,38.575928,-74.111350
30494,-5.505774,7.484805,-0.844138,0.141834,-0.368750,-0.491082,0.106989,0.066568,-0.031247,-0.055049,0.074861,-0.008383,1.000000,0.000535,0.000333,-0.000156,-0.354977,-0.693764,0.246983,0.575919,96.214944,38.590963,-74.061728
30495,-5.785120,7.721538,-0.221496,-0.519382,-0.441338,-0.185939,0.066595,0.078576,-0.017626,-0.057845,0.077221,-0.002167,1.000000,0.000333,0.000393,-0.000088,-0.354766,-0.694135,0.246986,0.575600,96.291870,38.597349,-74.004480
30496,-5.880743,8.044414,0.056705,-0.793997,-0.632544,0.100355,-0.067561,0.075711,-0.018644,-0.058800,0.080450,0.000562,1.000000,-0.000338,0.000379,-0.000093,-0.355013,-0.694263,0.246605,0.575458,96.290772,38.604530,-73.949169
30497,-5.993927,8.046058,-0.009581,-0.745310,-0.535964,0.178486,-0.254344,0.079860,-0.037313,-0.059924,0.080472,-0.000174,0.999999,-0.001272,0.000399,-0.000187,-0.355860,-0.694092,0.245614,0.575564,96.185400,38.622061,-73.889402
30498,-6.042118,7.705137,-0.192782,-0.578240,-0.247955,-0.039378,-0.449900,0.095098,-0.068809,-0.060396,0.077068,-0.002072,0.999997,-0.002249,0.000475,-0.000344,-0.357312,-0.693654,0.243923,0.575912,95.976466,38.656786,-73.816100
30499,-6.167597,6.969027,-0.882769,0.043203,0.454751,-0.475819,-0.569035,0.121292,-0.120171,-0.061640,0.069702,-0.008989,0.999996,-0.002845,0.000606,-0.000601,-0.359059,-0.693136,0.241662,0.576402,95.713576,38.719447,-73.719978
30500,-6.257742,6.607214,-1.228794,0.362236,0.822451,-0.673933,-0.533829,0.128586,-0.164600,-0.062531,0.066091,-0.012424,0.999996,-0.002669,0.000643,-0.000823,-0.360561,-0.692750,0.239334,0.576899,95.476134,38.807418,-73.615588
30501,-6.198074,6.505196,-1.125536,0.289563,0.811587,-0.798367,-0.360792,0.135024,-0.197232,-0.061924,0.065093,-0.011331,0.999998,-0.001804,0.000675,-0.000986,-0.361376,-0.692729,0.237378,0.577222,95.342209,38.913861,-73.504445
30502,-6.128642,6.314781,-1.157490,0.331907,0.874009,-0.986452,-0.192378,0.121052,-0.202040,-0.061230,0.063199,-0.011599,0.999999,-0.000962,0.000605,-0.001010,-0.361575,-0.692976,0.235916,0.577401,95.298715,39.024017,-73.403237
30503,-6.134545,7.030519,-0.532770,-0.206677,0.269565,-0.473026,-0.059828,0.124593,-0.217119,-0.061272,0.070370,-0.005311,0.999999,-0.000299,0.000623,-0.001086,-0.361276,-0.693489,0.234778,0.577436,95.333670,39.142500,-73.298272
30504,-6.035497,8.019948,0.001971,-0.606537,-0.569135,0.190060,-0.179559,0.119919,-0.220018,-0.060267,0.080266,-0.000016,0.999999,-0.000898,0.000600,-0.001100,-0.361376,-0.693774,0.233292,0.577633,95.298313,39.263005,-73.196331
30505,-5.784218,7.976956,-0.528625,-0.020458,-0.623820,0.035094,-0.422189,0.204976,-0.252672,-0.057747,0.079831,-0.005396,0.999996,-0.002111,0.001025,-0.001263,-0.362322,-0.693901,0.230838,0.577874,95.165194,39.397695,-73.029527
30506,-5.915452,7.401130,-1.045319,0.421940,-0.055764,-0.290042,-0.529528,0.224387,-0.242851,-0.059076,0.074055,-0.010583,0.999995,-0.002648,0.001122,-0.001214,-0.363687,-0.693873,0.228069,0.578149,94.979497,39.526248,-72.849171
30507,-6.076078,6.928788,-1.461896,0.766829,0.451402,-0.524409,-0.530573,0.236618,-0.236179,-0.060696,0.069321,-0.014731,0.999995,-0.002653,0.001183,-0.001181,-0.365087,-0.693864,0.225297,0.578364,94.798858,39.650746,-72.660400
30508,-6.168110,5.818157,-1.680967,0.852849,1.265602,-1.304275,-0.409060,0.280034,-0.231191,-0.061637,0.058218,-0.016842,0.999996,-0.002045,0.001400,-0.001156,-0.366124,-0.694191,0.222813,0.578279,94.708580,39.770771,-72.439711
30509,-6.533082,6.015697,-0.900870,0.036778,1.196172,-0.966835,-0.008926,0.236003,-0.241593,-0.065269,0.060235,-0.008934,0.999999,-0.000045,0.001180,-0.001208,-0.365693,-0.695131,0.221528,0.577916,94.827582,39.898697,-72.250730
30510,-6.555522,6.309502,-0.176893,-0.645556,0.817181,-0.772148,0.103929,0.212253,-0.276433,-0.065470,0.063186,-0.001667,0.999998,0.000520,0.001061,-0.001382,-0.364739,-0.696246,0.220491,0.577573,95.002308,40.047454,-72.076307
30511,-6.363189,7.074057,0.389049,-1.072562,0.014612,-0.350494,0.096171,0.232541,-0.316995,-0.063515,0.070839,0.003998,0.999998,0.000481,0.001163,-0.001585,-0.363718,-0.697447,0.219253,0.577239,95.184990,40.217760,-71.883120
30512,-6.037677,8.365976,0.249308,-0.713206,-1.044781,0.429623,-0.219748,0.222624,-0.307280,-0.060245,0.083755,0.002468,0.999998,-0.001099,0.001113,-0.001536,-0.363813,-0.698031,0.217154,0.577267,95.182485,40.382987,-71.697124
30513,-6.044721,7.984821,0.192893,-0.683417,-0.807870,0.147904,-0.425509,0.175332,-0.298287,-0.060326,0.079942,0.001812,0.999996,-0.002128,0.000877,-0.001491,-0.364600,-0.698090,0.214577,0.577663,95.039116,40.545493,-71.547086
30514,-6.660643,5.750017,-0.612511,-0.299804,1.259510,-1.087683,-0.551683,0.175352,-0.329315,-0.066517,0.057593,-0.006226,0.999994,-0.002758,0.000877,-0.001647,-0.365733,-0.697946,0.211525,0.578246,94.824944,40.726212,-71.395295
30515,-6.407125,5.055367,-0.568608,-0.351365,1.491004,-1.776227,-0.227883,0.113463,-0.326284,-0.063992,0.050652,-0.005707,0.999998,-0.001139,0.000567,-0.001631,-0.365677,-0.698206,0.209532,0.578692,94.765902,40.908293,-71.290550
30516,-6.098341,6.152381,0.012589,-0.687263,0.382397,-1.185805,0.084216,0.041911,-0.281282,-0.060897,0.061609,0.000165,0.999999,0.000421,0.000210,-0.001406,-0.364585,-0.698782,0.208728,0.578977,94.848775,41.068321,-71.242450
30517,-6.507438,7.097544,0.692524,-1.321278,-0.145637,-0.250553,0.201366,0.005771,-0.257241,-0.064983,0.071052,0.006999,0.999999,0.001007,0.000029,-0.001286,-0.363116,-0.699438,0.208414,0.579220,94.980123,41.216108,-71.222819
30518,-6.326417,8.987704,0.711101,-1.049408,-1.533793,1.043380,-0.045936,-0.000958,-0.257335,-0.063148,0.089960,0.007090,0.999999,-0.000230,-0.000005,-0.001287,-0.362502,-0.699625,0.207394,0.579745,94.966569,41.364513,-71.208079
30519,-6.188291,9.550046,-0.008662,-0.226270,-1.828336,1.416927,-0.338071,0.014921,-0.242520,-0.061767,0.095575,-0.000244,0.999998,-0.001690,0.000075,-0.001213,-0.362970,-0.699311,0.205551,0.580487,94.792875,41.503460,-71.182469
30520,-6.937310,7.509084,-0.651105,-0.021947,0.191603,0.429342,-0.547331,0.009831,-0.243733,-0.069282,0.075157,-0.006713,0.999996,-0.002737,0.000049,-0.001219,-0.364157,-0.698599,0.203103,0.581462,94.496208,41.643583,-71.161472
30521,-7.101960,5.786703,-1.067922,0.128441,1.530658,-0.718471,-0.164621,-0.019419,-0.249077,-0.070946,0.057947,-0.010734,0.999999,-0.000823,-0.000097,-0.001245,-0.363962,-0.698500,0.201802,0.582156,94.403906,41.787942,-71.163035
30522,-6.817617,6.879723,-0.747414,0.047464,0.507187,-0.111679,0.248917,-0.024798,-0.188768,-0.068110,0.068871,-0.007397,0.999999,0.001245,-0.000124,-0.000944,-0.362490,-0.699076,0.201923,0.582341,94.543327,41.898304,-71.172341
30523,-6.902564,8.458076,-0.103121,-0.387978,-0.666460,1.077689,0.390869,-0.052030,-0.145599,-0.068964,0.084633,-0.000884,0.999998,0.001954,-0.000260,-0.000728,-0.360620,-0.699784,0.202659,0.582396,94.748683,41.985086,-71.204739
30524,-6.850107,9.941989,0.132493,-0.416944,-1.764595,2.124522,0.179074,-0.031558,-0.134967,-0.068434,0.099465,0.001403,0.999999,0.000895,-0.000158,-0.000675,-0.359541,-0.700156,0.202776,0.582575,94.842791,42.065089,-71.221913
30525,-7.036914,8.005414,-0.842829,0.215168,-0.113663,0.876369,-0.079371,-0.012738,-0.169208,-0.070301,0.080110,-0.008465,1.000000,-0.000397,-0.000064,-0.000846,-0.359286,-0.700153,0.201988,0.583010,94.800136,42.163531,-71.222268
30526,-6.602245,5.628418,-1.624237,0.748458,1.343644,-1.121239,0.200465,0.009024,-0.135489,-0.065985,0.056345,-0.016183,0.999999,0.001002,0.000045,-0.000677,-0.358171,-0.700680,0.202093,0.583026,94.927518,42.241829,-71.208074
30527,-6.242869,5.821976,-1.621772,0.836420,0.943670,-1.215670,0.652897,0.010520,-0.055212,-0.062413,0.058290,-0.016024,0.999995,0.003264,0.000053,-0.000276,-0.355705,-0.701938,0.203796,0.582430,95.311650,42.274028,-71.197679
30528,-6.035939,6.513011,-1.683005,0.985165,0.331328,-0.834733,0.971523,0.040346,0.004527,-0.060364,0.065209,-0.016501,0.999988,0.004858,0.000202,0.000023,-0.352317,-0.703775,0.206578,0.581290,95.890953,42.270635,-71.168494
30529,-5.847682,6.516727,-2.014211,1.280570,0.253080,-0.923611,1.143703,0.099855,0.055017,-0.058505,0.065265,-0.019740,0.999983,0.005718,0.000499,0.000275,-0.348523,-0.706017,0.209929,0.579657,96.596848,42.234328,-71.097788
30530,-6.183027,5.449261,-0.917425,-0.054879,0.904944,-1.569912,1.499427,0.105946,0.149491,-0.061876,0.054513,-0.008733,0.999971,0.007497,0.000530,0.000747,-0.343737,-0.708765,0.214623,0.577438,97.503127,42.143342,-71.032123
30531,-6.283779,7.478167,0.038246,-0.930011,-0.629383,-0.109723,1.883158,0.034435,0.257344,-0.062934,0.074693,0.001097,0.999955,0.009416,0.000172,0.001287,-0.337801,-0.711798,0.220915,0.574832,98.583204,41.995871,-71.035038
30532,-5.796432,10.069002,-0.112939,-0.631359,-2.691796,1.472232,1.607431,0.070654,0.290715,-0.058111,0.100610,-0.000300,0.999967,0.008037,0.000353,0.001454,-0.332954,-0.714376,0.226454,0.572300,99.518673,41.826531,-71.017939
30533,-6.253752,9.682193,-0.592672,-0.441691,-2.008192,1.544096,1.063646,0.136875,0.236519,-0.062656,0.096777,-0.005369,0.999985,0.005318,0.000684,0.001183,-0.329955,-0.716264,0.230123,0.570210,100.178521,41.680918,-70.946813
30534,-6.663412,7.518658,-1.147002,-0.200973,-0.139207,0.296053,0.852501,0.142558,0.230304,-0.066729,0.075158,-0.011102,0.999990,0.004262,0.000713,0.001152,-0.327691,-0.717810,0.233152,0.568338,100.719116,41.537772,-70.872819
30535,-6.803375,6.426151,-1.747046,0.229175,0.822247,-0.330893,1.030483,0.087075,0.269633,-0.068128,0.064258,-0.017110,0.999986,0.005152,0.000435,0.001348,-0.324829,-0.719426,0.236913,0.566379,101.328878,41.377934,-70.848230
30536,-7.006628,7.014948,-1.439246,-0.187538,0.505325,0.191437,1.270376,0.034441,0.298249,-0.070173,0.070134,-0.013935,0.999979,0.006352,0.000172,0.001491,-0.321110,-0.721222,0.241533,0.564259,102.045427,41.208068,-70.869959
30537,-7.010222,8.271852,-1.210484,-0.492879,-0.386612,1.079451,1.262095,-0.013186,0.296695,-0.070224,0.082689,-0.011588,0.999979,0.006310,-0.000066,0.001483,-0.317345,-0.722843,0.246192,0.562299,102.732480,41.045017,-70.929458
30538,-6.935137,9.104253,-1.201314,-0.581150,-1.003401,1.636395,0.995753,-0.038380,0.244962,-0.069461,0.091016,-0.011573,0.999987,0.004979,-0.000192,0.001225,-0.314356,-0.724008,0.249945,0.560821,103.259095,40.914707,-71.000994
30539,-7.063076,8.674050,-1.169729,-0.713109,-0.623457,1.394317,0.668345,-0.042020,0.161124,-0.070698,0.086722,-0.011422,0.999994,0.003342,-0.000210,0.000806,-0.312306,-0.724740,0.252478,0.559886,103.605448,40.831887,-71.061570
30540,-6.992939,7.791164,-1.789423,-0.126456,0.028794,0.807508,0.478390,-0.050332,0.079847,-0.069956,0.077926,-0.017725,0.999997,0.002392,-0.000252,0.000399,-0.310704,-0.725247,0.254195,0.559343,103.848055,40.795772,-71.114294
30541,-6.730349,7.164425,-1.779653,-0.089243,0.258430,0.173249,0.441011,-0.060777,0.045398,-0.067314,0.071668,-0.017659,0.999997,0.002205,-0.000304,0.000227,-0.309126,-0.725707,0.255698,0.558935,104.068421,40.780317,-71.168445
30542,-6.634480,6.615011,-1.773106,-0.085029,0.554639,-0.294090,0.487720,-0.088631,0.053548,-0.066355,0.066175,-0.017599,0.999997,0.002439,-0.000443,0.000268,-0.307364,-0.726147,0.257402,0.558554,104.301010,40.764515,-71.244736
30543,-6.441891,6.442993,-1.955453,0.115715,0.554492,-0.511452,0.583255,-0.116763,0.061879,-0.064427,0.064467,-0.019404,0.999996,0.002916,-0.000584,0.000309,-0.305240,-0.726639,0.259445,0.558133,104.574003,40.748257,-71.343147
30544,-6.251782,6.936621,-1.761425,-0.075760,0.043992,-0.310249,0.559002,-0.087427,0.044025,-0.062525,0.069401,-0.017448,0.999996,0.002795,-0.000437,0.000220,-0.303189,-0.727192,0.261308,0.557662,104.849144,40.738116,-71.416875
30545,-6.187975,6.837042,-1.890168,0.040677,0.075597,-0.399851,0.377100,-0.040342,-0.008253,-0.061873,0.068408,-0.018785,0.999998,0.001885,-0.000202,-0.000041,-0.301714,-0.727665,0.262401,0.557331,105.049297,40.750051,-71.445937
30546,-6.208475,6.541445,-2.292772,0.420397,0.339890,-0.522899,0.253351,-0.006166,-0.049330,-0.062068,0.065459,-0.022847,0.999999,0.001267,-0.000031,-0.000247,-0.300619,-0.728098,0.262947,0.557100,105.199994,40.779803,-71.442015
30547,-5.997749,6.712907,-2.279026,0.434764,0.059805,-0.537050,0.205892,0.015663,-0.040375,-0.059966,0.067165,-0.022716,0.999999,0.001029,0.000078,-0.000202,-0.299749,-0.728509,0.263360,0.556836,105.332972,40.801166,-71.423722
30548,-5.960124,6.829044,-2.226537,0.373401,-0.061315,-0.486746,0.186407,0.011234,-0.010736,-0.059599,0.068314,-0.022198,1.000000,0.000932,0.000056,-0.000054,-0.299027,-0.728837,0.263833,0.556571,105.448702,40.806940,-71.414644
30549,-6.078898,6.897362,-2.101588,0.202525,-0.045881,-0.384001,0.305890,0.008158,0.029105,-0.060800,0.068997,-0.020908,0.999999,0.001529,0.000041,0.000146,-0.297976,-0.729283,0.264789,0.556097,105.626285,40.791035,-71.415774
30550,-6.301611,7.202171,-2.178844,0.181651,-0.088085,-0.000037,0.370725,0.023007,0.048341,-0.063036,0.072047,-0.021648,0.999998,0.001854,0.000115,0.000242,-0.296760,-0.729838,0.265972,0.555454,105.845346,40.762349,-71.410191
30551,-6.425911,7.933565,-1.899104,-0.192647,-0.540845,0.556048,0.387311,0.014885,0.054808,-0.064282,0.079355,-0.018833,0.999998,0.001937,0.000074,0.000274,-0.295491,-0.730384,0.267236,0.554806,106.069185,40.731232,-71.411926
30552,-6.367357,8.045415,-1.925467,-0.185165,-0.658295,0.604208,0.198849,0.024522,0.036668,-0.063691,0.080462,-0.019167,0.999999,0.000994,0.000123,0.000183,-0.294871,-0.730701,0.267895,0.554401,106.191900,40.708685,-71.403063
30553,-6.491489,7.974836,-2.241715,0.084675,-0.479117,0.700447,0.002010,0.046466,0.002586,-0.064921,0.079748,-0.022401,1.000000,0.000010,0.000232,0.000013,-0.294905,-0.730833,0.267852,0.554228,106.216995,40.701256,-71.371039
30554,-6.584788,7.755098,-2.197832,0.035313,-0.267710,0.592048,-0.133103,0.054712,-0.030132,-0.065842,0.077546,-0.022012,1.000000,-0.000666,0.000274,-0.000151,-0.295353,-0.730833,0.267303,0.554255,106.172949,40.710602,-71.326229
30555,-6.411983,7.122718,-2.446030,0.364359,0.073737,0.071214,-0.137696,0.043571,-0.037424,-0.064112,0.071222,-0.024495,1.000000,-0.000688,0.000218,-0.000187,-0.295783,-0.730805,0.266731,0.554339,106.122131,40.725678,-71.287880
30556,-6.201160,6.907854,-2.776769,0.753057,0.113403,-0.153323,-0.055354,0.048394,-0.039743,-0.062005,0.069083,-0.027772,1.000000,-0.000277,0.000242,-0.000199,-0.295911,-0.730914,0.266371,0.554299,106.120984,40.741354,-71.245630
30557,-6.229194,7.236614,-2.346510,0.305048,-0.152913,0.013864,0.106666,0.034895,-0.010019,-0.062292,0.072382,-0.023416,1.000000,0.000533,0.000174,-0.000050,-0.295512,-0.731186,0.266589,0.554048,106.202321,40.742726,-71.219332
30558,-6.059837,7.309710,-2.382292,0.364212,-0.322389,-0.035562,0.179658,0.013046,0.030092,-0.060611,0.073109,-0.023753,1.000000,0.000898,0.000065,0.000150,-0.294928,-0.731452,0.267188,0.553720,106.309505,40.725573,-71.217446
30559,-5.952113,7.515216,-1.991084,-0.019562,-0.593671,-0.039373,0.241956,0.047725,0.071979,-0.059553,0.075155,-0.019806,0.999999,0.001210,0.000239,0.000360,-0.294278,-0.731848,0.268061,0.553120,106.463005,40.679719,-71.199337
30560,-6.165393,7.667014,-2.064931,-0.032383,-0.531506,0.226014,0.204301,0.073507,0.097260,-0.061699,0.076661,-0.020548,0.999999,0.001022,0.000368,0.000486,-0.293870,-0.732226,0.268885,0.552438,106.603343,40.615781,-71.168227
30561,-6.234336,7.973256,-2.103103,-0.051101,-0.679006,0.502308,0.075520,0.083928,0.109295,-0.062396,0.079706,-0.020975,1.000000,0.000378,0.000420,0.000546,-0.293980,-0.732426,0.269381,0.551872,106.673036,40.543443,-71.132310
30562,-6.362231,7.982684,-2.176192,-0.019189,-0.572362,0.608880,-0.100220,0.090469,0.105246,-0.063674,0.079782,-0.021773,1.000000,-0.000501,0.000452,0.000526,-0.294732,-0.732390,0.269367,0.551524,106.645494,40.472252,-71.090942
30563,-6.494716,7.551679,-2.663554,0.453683,-0.103341,0.487176,-0.229415,0.096989,0.084981,-0.064992,0.075459,-0.026691,0.999999,-0.001147,0.000485,0.000425,-0.295909,-0.732209,0.268913,0.551356,106.549906,40.411146,-71.040380
30564,-6.609465,7.262741,-2.642844,0.433830,0.188027,0.345732,-0.223958,0.081437,0.080198,-0.066135,0.072571,-0.026483,0.999999,-0.001120,0.000407,0.000401,-0.297032,-0.731998,0.268480,0.551244,106.450771,40.355252,-70.999987
30565,-6.553917,6.796676,-2.562131,0.407073,0.466460,-0.048987,-0.156957,0.067120,0.075525,-0.065573,0.067922,-0.025653,1.000000,-0.000785,0.000336,0.000378,-0.297877,-0.731853,0.268234,0.551100,106.384095,40.304301,-70.968782
30566,-6.499107,6.683854,-2.799791,0.660065,0.546436,-0.116459,-0.065752,0.048136,0.059791,-0.065018,0.066810,-0.028004,1.000000,-0.000329,0.000241,0.000299,-0.298319,-0.731812,0.268211,0.550927,106.362933,40.265082,-70.947934
30567,-6.380528,7.216691,-2.482354,0.346828,0.061582,0.128629,0.003035,0.040735,0.064123,-0.063833,0.072147,-0.024809,1.000000,0.000015,0.000204,0.000321,-0.298511,-0.731847,0.268404,0.550682,106.377183,40.224679,-70.933304
30568,-6.161412,7.654896,-2.076126,-0.021844,-0.443810,0.220920,-0.033369,0.038431,0.076837,-0.061648,0.076522,-0.020762,1.000000,-0.000167,0.000192,0.000384,-0.298868,-0.731804,0.268547,0.550475,106.367742,40.177663,-70.923040
30569,-6.167768,7.258878,-2.256798,0.179155,-0.135701,-0.026203,-0.163829,0.056917,0.074697,-0.061711,0.072547,-0.022610,1.000000,-0.000819,0.000285,0.000373,-0.299722,-0.731620,0.268295,0.550379,106.292449,40.128848,-70.898980
30570,-6.271193,6.944030,-2.289569,0.210175,0.167665,-0.183708,-0.145644,0.067818,0.073210,-0.062745,0.069401,-0.022925,1.000000,-0.000728,0.000339,0.000366,-0.300519,-0.731495,0.268071,0.550220,106.232835,40.079110,-70.866720
30571,-6.195962,7.044473,-2.209049,0.147482,0.044432,-0.175742,-0.098942,0.075872,0.085982,-0.061998,0.070407,-0.022102,1.000000,-0.000495,0.000379,0.000430,-0.301192,-0.731444,0.268010,0.549949,106.201991,40.021089,-70.831307
30572,-6.243982,7.142124,-2.142701,0.065024,0.014060,-0.087258,-0.074854,0.076551,0.088066,-0.062479,0.071386,-0.021430,1.000000,-0.000374,0.000383,0.000440,-0.301782,-0.731428,0.268021,0.549640,106.184959,39.961814,-70.795838
30573,-6.236310,6.944718,-2.206980,0.139509,0.160912,-0.223836,-0.078730,0.087442,0.078404,-0.062400,0.069414,-0.022070,1.000000,-0.000394,0.000437,0.000392,-0.302375,-0.731449,0.267971,0.549311,106.171977,39.906134,-70.750553
30574,-6.244122,6.847785,-2.288189,0.219514,0.252411,-0.273027,-0.063341,0.091759,0.061555,-0.062473,0.068451,-0.022875,1.000000,-0.000317,0.000459,0.000308,-0.302871,-0.731528,0.267894,0.548971,106.172009,39.859034,-70.698685
30575,-6.298976,6.898379,-2.166681,0.082612,0.247017,-0.226687,-0.074793,0.102010,0.046201,-0.063017,0.068961,-0.021660,1.000000,-0.000374,0.000510,0.000231,-0.303380,-0.731637,0.267714,0.548632,106.172167,39.818755,-70.636321
30576,-6.326496,7.200534,-2.033553,-0.073887,0.048868,-0.014742,-0.043302,0.096039,0.027201,-0.063285,0.071992,-0.020321,1.000000,-0.000217,0.000480,0.000136,-0.303714,-0.731803,0.267559,0.548301,106.190132,39.789879,-70.574305
30577,-6.202296,7.253188,-1.707032,-0.362480,-0.122269,-0.125334,-0.071299,0.077069,0.020178,-0.062037,0.072520,-0.017072,1.000000,-0.000356,0.000385,0.000101,-0.304105,-0.731884,0.267331,0.548087,106.184233,39.767889,-70.524459
30578,-6.024920,7.074804,-1.551305,-0.455948,-0.151265,-0.403740,-0.117146,0.086290,0.009800,-0.060259,0.070736,-0.015528,1.000000,-0.000586,0.000431,0.000049,-0.304648,-0.731934,0.266926,0.547917,106.157659,39.750155,-70.465855
30579,-6.058826,6.939342,-1.841783,-0.171187,0.012805,-0.419789,-0.208586,0.084287,-0.003244,-0.060595,0.069375,-0.018465,0.999999,-0.001043,0.000421,-0.000016,-0.305487,-0.731856,0.266225,0.547895,106.079485,39.739955,-70.405986
30580,-6.017857,7.268267,-1.698634,-0.307548,-0.255439,-0.233136,-0.206221,0.075243,0.000366,-0.060185,0.072665,-0.017039,0.999999,-0.001031,0.000376,0.000002,-0.306315,-0.731751,0.265557,0.547897,105.998039,39.729271,-70.353335
30581,-6.180200,7.322739,-1.785577,-0.256279,-0.155060,-0.070208,-0.283683,0.081743,0.001002,-0.061810,0.073202,-0.017934,0.999999,-0.001418,0.000409,0.000005,-0.307436,-0.731543,0.264668,0.547976,105.875115,39.717279,-70.296134
30582,-6.388538,6.770763,-1.763448,-0.291995,0.368641,-0.349853,-0.216884,0.076782,0.006466,-0.063894,0.067686,-0.017683,0.999999,-0.001084,0.000384,0.000032,-0.308321,-0.731416,0.263990,0.547976,105.787450,39.703133,-70.243606
30583,-6.346096,6.627306,-1.714330,-0.316922,0.429926,-0.493472,-0.067077,0.061897,0.009042,-0.063469,0.066264,-0.017146,1.000000,-0.000335,0.000309,0.000045,-0.308645,-0.731475,0.263755,0.547828,105.778502,39.689918,-70.202236
30584,-6.369764,7.124343,-1.543974,-0.513836,0.086394,-0.146121,0.017184,0.066398,-0.011638,-0.063699,0.071248,-0.015412,1.000000,0.000086,0.000332,-0.000058,-0.308610,-0.731703,0.263668,0.547585,105.822511,39.687422,-70.153492
30585,-6.499272,7.681326,-1.086338,-1.019852,-0.271083,0.252592,-0.022460,0.081805,-0.047190,-0.064979,0.076827,-0.010845,1.000000,-0.000112,0.000409,-0.000236,-0.308643,-0.731960,0.263318,0.547392,105.855521,39.702058,-70.086449
30586,-6.415035,7.768365,-0.663234,-1.410078,-0.465852,0.174039,-0.107252,0.109442,-0.087300,-0.064120,0.077708,-0.006639,1.000000,-0.000536,0.000547,-0.000436,-0.308913,-0.732213,0.262547,0.547272,105.857759,39.734497,-69.991486
30587,-6.439978,7.491662,-0.815670,-1.253396,-0.245591,0.017486,-0.152590,0.127256,-0.117682,-0.064361,0.074948,-0.008173,0.999999,-0.000763,0.000636,-0.000588,-0.309288,-0.732484,0.261512,0.547191,105.846328,39.780862,-69.877440
30588,-6.542016,7.522856,-1.197295,-0.908225,-0.139329,0.186340,-0.147933,0.087873,-0.134129,-0.065375,0.075264,-0.012000,0.999999,-0.000740,0.000439,-0.000671,-0.309551,-0.732675,0.260491,0.547275,105.821540,39.842522,-69.788386
30589,-6.358335,7.537416,-2.123128,0.045038,-0.134747,0.273368,-0.237169,0.000214,-0.144396,-0.063529,0.075395,-0.021321,0.999999,-0.001186,0.000001,-0.000722,-0.309996,-0.732501,0.259323,0.547810,105.706851,39.923526,-69.760096
30590,-6.228414,7.935791,-2.142950,0.104647,-0.501185,0.487797,-0.236788,-0.055301,-0.144066,-0.062221,0.079377,-0.021541,0.999999,-0.001184,-0.000277,-0.000720,-0.310370,-0.732172,0.258243,0.548548,105.566334,40.013017,-69.772212
30591,-6.186968,7.574263,-2.496854,0.499021,-0.231638,0.265980,-0.378174,-0.048543,-0.126195,-0.061816,0.075734,-0.025127,0.999998,-0.001891,-0.000243,-0.000631,-0.311317,-0.731619,0.256829,0.549413,105.345627,40.091530,-69.783229
30592,-6.290887,6.547343,-3.533966,1.542391,0.718926,-0.219153,-0.556136,-0.040722,-0.106210,-0.062867,0.065408,-0.035534,0.999996,-0.002781,-0.000204,-0.000531,-0.312979,-0.730779,0.254986,0.550444,105.023518,40.157800,-69.793173
30593,-6.300961,7.133947,-2.961399,1.005793,0.236137,0.101834,-0.308125,-0.102295,-0.049563,-0.062977,0.071309,-0.029756,0.999999,-0.001541,-0.000511,-0.000248,-0.313810,-0.730082,0.254128,0.551292,104.807614,40.201730,-69.858922
30594,-6.296797,6.889569,-2.253111,0.354208,0.275550,-0.221499,-0.212884,-0.077288,-0.016222,-0.062954,0.068877,-0.022629,0.999999,-0.001064,-0.000386,-0.000081,-0.314417,-0.729560,0.253614,0.551874,104.653598,40.223401,-69.913193
30595,-6.390317,6.322687,-2.179985,0.285996,0.713144,-0.594527,-0.053693,-0.071896,-0.010564,-0.063892,0.063224,-0.021840,1.000000,-0.000268,-0.000359,-0.000053,-0.314465,-0.729295,0.253551,0.552225,104.592690,40.241056,-69.964600
30596,-6.595878,7.143351,-1.511670,-0.430073,0.185111,0.015791,0.187935,-0.100290,-0.018194,-0.065945,0.071454,-0.015083,0.999999,0.000940,-0.000501,-0.000091,-0.313574,-0.729341,0.254172,0.552386,104.657721,40.267092,-70.035266
30597,-6.720843,7.908055,-0.828120,-1.147819,-0.367699,0.528499,0.245280,-0.164316,-0.019819,-0.067194,0.079097,-0.008239,0.999999,0.001226,-0.000822,-0.000099,-0.312388,-0.729301,0.255045,0.552708,104.725792,40.303353,-70.152067
30598,-6.491447,8.159939,-1.043331,-0.888131,-0.670252,0.607198,0.089779,-0.194627,-0.032096,-0.064891,0.081614,-0.010460,0.999999,0.000449,-0.000973,-0.000160,-0.311696,-0.728948,0.255491,0.553358,104.691778,40.350905,-70.288725
30599,-6.348223,8.271562,-1.430551,-0.465572,-0.785067,0.672159,-0.144003,-0.173485,-0.047106,-0.063450,0.082720,-0.014420,0.999999,-0.000720,-0.000867,-0.000236,-0.311841,-0.728308,0.255202,0.554251,104.535550,40.403499,-70.407246
30600,-6.398532,8.089199,-1.840848,-0.045925,-0.554590,0.649399,-0.355988,-0.151543,-0.051701,-0.063950,0.080876,-0.018601,0.999998,-0.001780,-0.000758,-0.000259,-0.312773,-0.727402,0.254274,0.555342,104.268279,40.455206,-70.509412
30601,-6.352128,7.566291,-2.172100,0.338970,-0.172155,0.295310,-0.446217,-0.148182,-0.038261,-0.063491,0.075626,-0.021937,0.999997,-0.002231,-0.000741,-0.000191,-0.314073,-0.726344,0.253138,0.556511,103.949176,40.498554,-70.611854
30602,-6.208877,6.864106,-2.558046,0.801578,0.275154,-0.247577,-0.429925,-0.130214,-0.009333,-0.062069,0.068589,-0.025768,0.999997,-0.002150,-0.000651,-0.000047,-0.315416,-0.725320,0.252122,0.557546,103.644085,40.522926,-70.706859
30603,-6.165371,6.708372,-2.823141,1.103100,0.405716,-0.346819,-0.297382,-0.111172,0.021170,-0.061645,0.067035,-0.028365,0.999999,-0.001487,-0.000556,0.000106,-0.316385,-0.724519,0.251556,0.558294,103.420587,40.527419,-70.793303
30604,-6.117682,6.898327,-2.482322,0.803895,0.192125,-0.299976,-0.152596,-0.098571,0.055277,-0.061184,0.068947,-0.024906,1.000000,-0.000763,-0.000493,0.000276,-0.316941,-0.723937,0.251498,0.558760,103.282061,40.511025,-70.876550
30605,-6.018960,6.904315,-2.108882,0.478241,0.058761,-0.425854,-0.073455,-0.059213,0.069338,-0.060207,0.069015,-0.021132,1.000000,-0.000367,-0.000296,0.000347,-0.317298,-0.723572,0.251649,0.558961,103.206250,40.481503,-70.933192
30606,-6.241025,6.903635,-1.997270,0.318537,0.205970,-0.301864,0.003422,-0.021794,0.074325,-0.062434,0.069013,-0.019978,1.000000,0.000017,-0.000109,0.000372,-0.317439,-0.723428,0.251973,0.558922,103.191715,40.444266,-70.963259
30607,-6.339102,7.657491,-1.556432,-0.141488,-0.301633,0.243796,0.017977,-0.006325,0.072923,-0.063418,0.076553,-0.015559,1.000000,0.000090,-0.000032,0.000365,-0.317542,-0.723352,0.252308,0.558811,103.193138,40.405789,-70.981666
30608,-6.317835,7.825074,-1.188242,-0.494048,-0.487931,0.290608,-0.081087,0.020913,0.058604,-0.063203,0.078227,-0.011908,1.000000,-0.000405,0.000105,0.000293,-0.317998,-0.723212,0.252272,0.558749,103.152269,40.371732,-70.977698
30609,-6.581735,7.544447,-1.347587,-0.394504,-0.073800,0.281509,-0.205963,0.023248,0.036380,-0.065833,0.075419,-0.013546,0.999999,-0.001030,0.000116,0.000182,-0.318846,-0.722908,0.251802,0.558871,103.043523,40.349785,-70.968120
30610,-6.489934,7.826574,-1.149649,-0.549936,-0.356328,0.398422,-0.251356,-0.005433,0.032049,-0.064912,0.078241,-0.011597,0.999999,-0.001257,-0.000027,0.000160,-0.319810,-0.722456,0.251235,0.559160,102.895564,40.333947,-70.978843
30611,-6.151958,7.752308,-1.200496,-0.393358,-0.531033,0.134636,-0.373729,-0.002560,0.036368,-0.061534,0.077489,-0.012151,0.999998,-0.001869,-0.000013,0.000182,-0.321231,-0.721809,0.250337,0.559584,102.678549,40.315320,-70.988027
30612,-6.403734,6.942258,-1.449250,-0.185191,0.249770,-0.262488,-0.441184,-0.004451,0.036705,-0.064050,0.069379,-0.014647,0.999998,-0.002206,-0.000022,0.000184,-0.322893,-0.721044,0.249253,0.560097,102.421865,40.296681,-70.998665
30613,-6.396717,7.189523,-1.502799,-0.103335,0.102922,-0.073884,-0.354546,-0.041890,0.055964,-0.063984,0.071851,-0.015169,0.999998,-0.001773,-0.000209,0.000280,-0.324247,-0.720289,0.248540,0.560603,102.195292,40.271830,-71.039637
30614,-6.165494,7.412113,-1.626302,0.101763,-0.174742,-0.037381,-0.370883,-0.037200,0.064537,-0.061676,0.074071,-0.016412,0.999998,-0.001854,-0.000186,0.000323,-0.325690,-0.719506,0.247804,0.561097,101.960661,40.241471,-71.078485
30615,-6.336468,7.040491,-1.886854,0.335313,0.260627,-0.163899,-0.379334,-0.022117,0.061212,-0.063384,0.070350,-0.019009,0.999998,-0.001897,-0.000111,0.000306,-0.327171,-0.718754,0.247007,0.561550,101.728969,40.211100,-71.105443
30616,-6.420207,6.628161,-1.953801,0.396322,0.621409,-0.409196,-0.281037,-0.016424,0.056489,-0.064219,0.066236,-0.019636,0.999999,-0.001405,-0.000082,0.000282,-0.328292,-0.718182,0.246459,0.561868,101.556720,40.182629,-71.127459
30617,-6.444220,6.690574,-1.857157,0.312646,0.589008,-0.363027,-0.181325,-0.019872,0.050112,-0.064457,0.066873,-0.018639,1.000000,-0.000907,-0.000099,0.000251,-0.329032,-0.717772,0.246174,0.562085,101.440801,40.158110,-71.150846
30618,-6.366367,7.077573,-1.559522,0.059694,0.225226,-0.169012,-0.107870,-0.015309,0.031478,-0.063674,0.070757,-0.015638,1.000000,-0.000539,-0.000077,0.000157,-0.329462,-0.717517,0.246020,0.562226,101.370851,40.143517,-71.168136
30619,-6.392981,7.225939,-1.420071,-0.070638,0.123417,-0.061750,-0.143572,-0.003578,0.006642,-0.063932,0.072247,-0.014254,1.000000,-0.000718,-0.000018,0.000033,-0.329964,-0.717268,0.245658,0.562408,101.288486,40.141532,-71.173043
30620,-6.359874,7.369288,-1.209548,-0.251594,-0.033461,-0.006925,-0.184963,-0.019015,-0.009279,-0.063594,0.073685,-0.012170,1.000000,-0.000925,-0.000095,-0.000046,-0.330551,-0.716925,0.245147,0.562724,101.176488,40.150228,-71.187046
30621,-6.184851,7.262031,-1.111859,-0.288755,-0.105523,-0.214190,-0.250347,-0.014529,-0.024504,-0.061839,0.072614,-0.011214,0.999999,-0.001252,-0.000073,-0.000123,-0.331334,-0.716505,0.244391,0.563127,101.030655,40.166948,-71.195503
30622,-6.209856,6.766666,-1.418352,0.010124,0.304406,-0.524577,-0.297127,-0.005339,-0.033107,-0.062087,0.067656,-0.014286,0.999999,-0.001486,-0.000027,-0.000166,-0.332271,-0.716042,0.243455,0.563569,100.863010,40.187507,-71.196121
30623,-6.360935,6.676071,-1.130189,-0.290057,0.418011,-0.536381,-0.222714,-0.034158,-0.033226,-0.063596,0.066759,-0.011387,0.999999,-0.001114,-0.000171,-0.000166,-0.332906,-0.715621,0.242777,0.564021,100.724380,40.211207,-71.217940
30624,-5.991693,7.450127,-1.063987,-0.223831,-0.372255,-0.202894,-0.218385,-0.039853,-0.038418,-0.059900,0.074501,-0.010733,0.999999,-0.001092,-0.000199,-0.000192,-0.333503,-0.715196,0.242101,0.564498,100.585800,40.238433,-71.243413
30625,-6.212077,7.325886,-1.443946,0.108672,-0.050840,-0.100374,-0.351388,-0.004382,-0.043839,-0.062104,0.073247,-0.014570,0.999998,-0.001757,-0.000022,-0.000219,-0.334603,-0.714654,0.240971,0.565016,100.388451,40.264917,-71.241985
30626,-6.420806,6.894519,-1.439727,0.063880,0.387136,-0.290085,-0.331926,-0.022056,-0.055852,-0.064187,0.068939,-0.014519,0.999999,-0.001660,-0.000110,-0.000279,-0.335577,-0.714108,0.239882,0.565592,100.194644,40.300015,-71.252221
30627,-6.183396,6.904538,-1.591787,0.292073,0.242661,-0.416061,-0.268972,-0.024555,-0.055020,-0.061813,0.069041,-0.016018,0.999999,-0.001345,-0.000123,-0.000275,-0.336325,-0.713658,0.238978,0.566099,100.035672,40.334843,-71.264464
30628,-6.290281,6.783563,-1.595960,0.283400,0.400747,-0.437693,-0.212481,-0.020174,-0.065237,-0.062879,0.067839,-0.016038,0.999999,-0.001062,-0.000101,-0.000326,-0.336847,-0.713325,0.238189,0.566540,99.911834,40.375021,-71.272336
30629,-6.349016,6.695301,-1.399451,0.088612,0.457854,-0.491850,-0.128866,-0.025664,-0.067185,-0.063466,0.066965,-0.014046,1.000000,-0.000644,-0.000128,-0.000336,-0.337058,-0.713121,0.237639,0.566902,99.833474,40.416784,-71.284040
30630,-6.258559,7.041349,-0.948062,-0.302934,0.064665,-0.349442,-0.045279,-0.032283,-0.066276,-0.062561,0.070432,-0.009507,1.000000,-0.000226,-0.000161,-0.000331,-0.336966,-0.713036,0.237340,0.567188,99.799612,40.458734,-71.300895
30631,-6.206621,7.487280,-0.843469,-0.363525,-0.294721,-0.062102,-0.106007,-0.026771,-0.082324,-0.062034,0.074894,-0.008483,1.000000,-0.000530,-0.000134,-0.000412,-0.337052,-0.712885,0.236803,0.567553,99.734982,40.509137,-71.311603
30632,-6.318508,7.221487,-0.852568,-0.379841,-0.041990,-0.186981,-0.209017,-0.014578,-0.099164,-0.063149,0.072237,-0.008606,0.999999,-0.001045,-0.000073,-0.000496,-0.337471,-0.712613,0.235892,0.568024,99.618413,40.567926,-71.311313
30633,-6.506242,7.296776,-0.771381,-0.482068,0.020498,-0.017979,-0.228356,-0.025231,-0.111672,-0.065021,0.072995,-0.007805,0.999999,-0.001142,-0.000126,-0.000558,-0.337910,-0.712292,0.234900,0.568576,99.486629,40.634734,-71.317467
30634,-6.494456,7.885776,-0.819359,-0.381022,-0.373399,0.422063,-0.262259,-0.039602,-0.123563,-0.064894,0.078887,-0.008310,0.999999,-0.001311,-0.000198,-0.000618,-0.338419,-0.711885,0.233792,0.569239,99.329098,40.709665,-71.333197
30635,-6.339466,7.806464,-1.125608,-0.021737,-0.371216,0.299599,-0.376974,-0.036399,-0.129998,-0.063342,0.078084,-0.011415,0.999998,-0.001885,-0.000182,-0.000650,-0.339320,-0.711300,0.232330,0.570033,99.107812,40.787834,-71.345996
30636,-6.459190,6.918299,-1.424014,0.219982,0.364022,-0.250740,-0.391661,-0.024015,-0.136249,-0.064543,0.069199,-0.014383,0.999998,-0.001958,-0.000120,-0.000681,-0.340269,-0.710728,0.230781,0.570809,98.884197,40.868443,-71.349335
30637,-6.621662,6.828435,-1.116393,-0.096478,0.467717,-0.247534,-0.240203,-0.062416,-0.121417,-0.066172,0.068311,-0.011267,0.999999,-0.001201,-0.000312,-0.000607,-0.340677,-0.710286,0.229782,0.571519,98.727326,40.943964,-71.383395
30638,-6.175188,7.929721,-0.997603,-0.011349,-0.612837,0.268626,-0.209426,-0.093469,-0.105050,-0.061706,0.079319,-0.010088,0.999999,-0.001047,-0.000467,-0.000525,-0.340986,-0.709787,0.228981,0.572276,98.571196,41.012891,-71.443051
30639,-6.148330,8.011798,-1.296451,0.319608,-0.622733,0.345147,-0.383633,-0.059866,-0.106946,-0.061437,0.080126,-0.013137,0.999998,-0.001918,-0.000299,-0.000535,-0.341945,-0.709088,0.227617,0.573113,98.331827,41.079835,-71.477501
30640,-6.437543,7.296493,-1.513712,0.447215,0.107563,0.024000,-0.422910,-0.077454,-0.092455,-0.064336,0.072962,-0.015316,0.999998,-0.002115,-0.000387,-0.000462,-0.343064,-0.708251,0.226221,0.574032,98.059748,41.139914,-71.527299
30641,-6.321903,6.823871,-1.676600,0.629537,0.376709,-0.389080,-0.321658,-0.072372,-0.077378,-0.063187,0.068236,-0.016899,0.999999,-0.001608,-0.000362,-0.000387,-0.343872,-0.707583,0.225160,0.574789,97.847030,41.190843,-71.575125
30642,-6.471126,6.505370,-1.465807,0.386745,0.646232,-0.551116,-0.152972,-0.075039,-0.055137,-0.064688,0.065060,-0.014732,1.000000,-0.000765,-0.000375,-0.000276,-0.344143,-0.707171,0.224666,0.575327,97.727836,41.229290,-71.627569
30643,-6.425405,7.340775,-0.839900,-0.133145,-0.084662,-0.022215,0.022118,-0.086325,-0.034353,-0.064238,0.073420,-0.008419,1.000000,0.000111,-0.000432,-0.000172,-0.343842,-0.707004,0.224769,0.575671,97.701969,41.256713,-71.690670
30644,-6.151730,8.185580,-1.103264,0.260152,-0.782050,0.453052,-0.101435,-0.032136,-0.038095,-0.061500,0.081862,-0.011084,1.000000,-0.000507,-0.000161,-0.000190,-0.344028,-0.706785,0.224409,0.575970,97.632410,41.282129,-71.712576
30645,-6.447477,7.856067,-1.234769,0.305475,-0.322276,0.415470,-0.225857,0.010117,-0.033506,-0.064462,0.078557,-0.012433,0.999999,-0.001129,0.000051,-0.000168,-0.344713,-0.706468,0.223635,0.576250,97.512382,41.301671,-71.702998
30646,-6.559748,6.980830,-1.323426,0.307619,0.360057,-0.154041,-0.166334,0.003920,-0.016426,-0.065592,0.069803,-0.013291,1.000000,-0.000832,0.000020,-0.000082,-0.345231,-0.706215,0.223103,0.576455,97.422133,41.312002,-71.699911
30647,-6.478698,6.802620,-1.321404,0.316448,0.421359,-0.340751,-0.018635,-0.015409,0.007091,-0.064788,0.068023,-0.013225,1.000000,-0.000093,-0.000077,0.000035,-0.345273,-0.706136,0.223113,0.576523,97.405408,41.310385,-71.713706
30648,-6.374176,7.328369,-1.158821,0.226382,-0.038586,-0.033872,0.068853,-0.023116,0.012386,-0.063745,0.073284,-0.011570,1.000000,0.000344,-0.000116,0.000062,-0.345013,-0.706179,0.223407,0.576512,97.434564,41.306364,-71.733892
30649,-6.356225,7.838710,-1.161440,0.270976,-0.388977,0.334784,0.046223,0.007260,0.016705,-0.063569,0.078384,-0.011594,1.000000,0.000231,0.000036,0.000084,-0.344879,-0.706266,0.223599,0.576411,97.465690,41.297608,-71.731494
30650,-6.446411,7.492132,-1.177785,0.233364,-0.090707,0.137828,0.005947,0.032175,0.020679,-0.064474,0.074915,-0.011765,1.000000,0.000030,0.000161,0.000103,-0.344927,-0.706351,0.223646,0.576260,97.485864,41.284752,-71.710690
30651,-6.462156,6.965955,-1.166170,0.170334,0.267526,-0.244859,0.065586,0.026545,0.036367,-0.064636,0.069652,-0.011630,1.000000,0.000328,0.000133,0.000182,-0.344803,-0.706505,0.223929,0.576036,97.536396,41.263380,-71.695689
30652,-6.333447,7.094221,-1.038101,0.076324,0.062648,-0.246684,0.179033,0.012344,0.061048,-0.063357,0.070932,-0.010314,1.000000,0.000895,0.000062,0.000305,-0.344333,-0.706786,0.224651,0.575691,97.643160,41.229068,-71.693963
30653,-6.295951,7.729679,-1.205577,0.281973,-0.345107,0.219347,0.184023,0.018912,0.070849,-0.062988,0.077286,-0.011979,1.000000,0.000920,0.000095,0.000354,-0.343881,-0.707082,0.225411,0.575300,97.755355,41.188667,-71.688349
30654,-6.162221,7.803469,-1.383563,0.476454,-0.446275,0.205055,0.116115,0.048994,0.078037,-0.061656,0.078019,-0.013775,1.000000,0.000581,0.000245,0.000390,-0.343723,-0.707340,0.225949,0.574867,97.843001,41.141845,-71.660905
30655,-6.305260,6.730677,-1.631156,0.587685,0.426253,-0.475027,0.105381,0.071959,0.091755,-0.063089,0.067286,-0.016253,1.000000,0.000527,0.000360,0.000459,-0.343668,-0.707629,0.226464,0.574341,97.934849,41.085394,-71.617699
30656,-6.603180,6.293199,-1.002173,-0.144536,0.789932,-0.671257,0.334659,0.052653,0.111953,-0.066070,0.062912,-0.009899,0.999998,0.001673,0.000263,0.000560,-0.342838,-0.708233,0.227743,0.573587,98.146947,41.018940,-71.591382
30657,-6.658415,7.127024,-0.129949,-0.976571,0.085314,-0.107805,0.526361,0.010005,0.132816,-0.066632,0.071229,-0.001109,0.999996,0.002632,0.000050,0.000664,-0.341338,-0.709015,0.229717,0.572727,98.446054,40.944101,-71.599822
30658,-6.655100,9.013179,0.191613,-1.203263,-1.230958,1.259857,0.402545,-0.010370,0.124402,-0.066607,0.090086,0.002094,0.999998,0.002013,-0.000052,0.000622,-0.340227,-0.709533,0.231340,0.572093,98.664553,40.875826,-71.623034
30659,-6.474878,9.687658,-0.047476,-0.907723,-1.746766,1.672165,-0.020581,0.031770,0.082886,-0.064789,0.096850,-0.000474,1.000000,-0.000103,0.000159,0.000414,-0.340547,-0.709498,0.231533,0.571868,98.664282,40.827432,-71.610096
30660,-6.745218,8.035023,-0.980156,-0.159923,-0.245898,0.719842,-0.339102,0.056046,0.052299,-0.067476,0.080316,-0.009919,0.999998,-0.001696,0.000280,0.000261,-0.341937,-0.709024,0.230665,0.571977,98.495578,40.794275,-71.575538
30661,-6.717978,6.459886,-1.504958,0.271379,0.900890,-0.419020,-0.268209,0.028970,0.038516,-0.067194,0.064566,-0.015126,0.999999,-0.001341,0.000145,0.000193,-0.343004,-0.708608,0.229997,0.572122,98.355425,40.771305,-71.559524
30662,-6.401992,5.998488,-1.873402,0.681159,1.066827,-0.931533,-0.052883,0.000891,0.034392,-0.064030,0.059969,-0.018750,1.000000,-0.000264,0.000004,0.000172,-0.343264,-0.708485,0.229978,0.572126,98.325132,40.753006,-71.564107
30663,-6.330005,6.522158,-1.657389,0.521127,0.624053,-0.609784,0.129387,-0.009384,0.041623,-0.063313,0.065219,-0.016535,1.000000,0.000647,-0.000047,0.000208,-0.342887,-0.708638,0.230524,0.571944,98.393841,40.731484,-71.577105
30664,-6.204919,7.217160,-1.134369,0.079411,-0.039621,-0.227943,0.177234,-0.012269,0.050965,-0.062067,0.072166,-0.011284,1.000000,0.000886,-0.000061,0.000255,-0.342364,-0.708853,0.231244,0.571700,98.487822,40.704946,-71.593364
30665,-6.166164,7.567928,-0.654795,-0.365043,-0.402916,-0.043948,0.122433,-0.005772,0.059162,-0.061684,0.075665,-0.006503,1.000000,0.000612,-0.000029,0.000296,-0.342065,-0.708982,0.231825,0.571483,98.552990,40.673206,-71.605696
30666,-6.250093,7.630418,-0.537996,-0.500983,-0.405778,0.044327,0.010578,0.014979,0.051934,-0.062521,0.076288,-0.005371,1.000000,0.000053,0.000075,0.000260,-0.342166,-0.708988,0.232026,0.571334,98.564630,40.643809,-71.601782
30667,-6.430593,7.852902,-0.434755,-0.630295,-0.439684,0.317417,-0.066301,0.003530,0.052646,-0.064327,0.078511,-0.004372,1.000000,-0.000332,0.000018,0.000263,-0.342529,-0.708829,0.232029,0.571313,98.526664,40.614973,-71.606445
30668,-6.408410,8.007243,-0.826167,-0.227653,-0.463317,0.463484,-0.197713,0.006517,0.046486,-0.064103,0.080049,-0.008339,0.999999,-0.000989,0.000033,0.000232,-0.343343,-0.708459,0.231630,0.571444,98.415227,40.589369,-71.608233
30669,-6.478048,7.574056,-1.183665,0.090952,-0.039526,0.223378,-0.304749,0.015796,0.036520,-0.064795,0.075711,-0.011947,0.999999,-0.001524,0.000079,0.000183,-0.344518,-0.707943,0.230873,0.571683,98.247841,40.568645,-71.601833
30670,-6.396429,6.904820,-1.490916,0.382758,0.419755,-0.300015,-0.300853,0.001074,0.029038,-0.063974,0.069016,-0.015013,0.999999,-0.001504,0.000005,0.000145,-0.345640,-0.707399,0.230126,0.571981,98.075991,40.553358,-71.605632
30671,-6.362197,6.529299,-1.580283,0.466156,0.669547,-0.596344,-0.191210,0.006747,0.023712,-0.063630,0.065270,-0.015863,1.000000,-0.000956,0.000034,0.000119,-0.346365,-0.707065,0.229663,0.572141,97.970233,40.540650,-71.604496
30672,-6.412605,6.949416,-1.185794,0.109557,0.346327,-0.289556,-0.055404,-0.013733,0.024736,-0.064134,0.069483,-0.011882,1.000000,-0.000277,-0.000069,0.000124,-0.346589,-0.706907,0.229628,0.572215,97.932217,40.528989,-71.618778
30673,-6.246234,7.870770,-0.858230,-0.096861,-0.447712,0.261596,-0.057112,-0.023219,0.018977,-0.062469,0.078699,-0.008612,1.000000,-0.000286,-0.000116,0.000095,-0.346791,-0.706725,0.229584,0.572335,97.889093,40.521333,-71.639492
30674,-6.045376,7.850756,-0.818779,-0.077461,-0.583818,0.112255,-0.235564,0.007880,0.012164,-0.060459,0.078494,-0.008278,0.999999,-0.001178,0.000039,0.000061,-0.347641,-0.706329,0.228951,0.572561,97.759200,40.515094,-71.636319
30675,-6.196962,7.304168,-1.094211,0.130973,-0.047657,-0.172613,-0.330462,0.030721,-0.006234,-0.061969,0.073025,-0.011053,0.999999,-0.001652,0.000154,-0.000031,-0.348798,-0.705854,0.227941,0.572846,97.587313,40.517562,-71.614162
30676,-6.350005,6.830622,-1.086329,0.068890,0.376631,-0.431139,-0.296327,0.032116,0.000473,-0.063502,0.068290,-0.010954,0.999999,-0.001482,0.000161,0.000002,-0.349854,-0.705433,0.227050,0.573074,97.435148,40.516151,-71.591686
30677,-6.482991,7.302772,-0.910898,-0.080683,0.128949,-0.006249,-0.155428,-0.005639,0.008011,-0.064833,0.073018,-0.009168,1.000000,-0.000777,-0.000028,0.000040,-0.350392,-0.705141,0.226655,0.573261,97.344985,40.513287,-71.598102
30678,-6.436462,7.712314,-1.034012,0.095458,-0.139051,0.284270,-0.184713,0.000833,-0.011787,-0.064360,0.077117,-0.010411,1.000000,-0.000924,0.000004,-0.000059,-0.350984,-0.704838,0.226095,0.573494,97.242346,40.521197,-71.597845
30679,-6.493753,7.687340,-0.872163,-0.061337,-0.116869,0.287177,-0.224045,-0.008352,-0.029037,-0.064926,0.076873,-0.008810,0.999999,-0.001120,-0.000042,-0.000145,-0.351653,-0.704459,0.225377,0.573832,97.113825,40.539570,-71.602788
30680,-6.340823,7.692992,-0.762492,-0.109823,-0.254216,0.181952,-0.302541,-0.003149,-0.040154,-0.063393,0.076931,-0.007742,0.999999,-0.001513,-0.000016,-0.000201,-0.352573,-0.703967,0.224385,0.574259,96.943409,40.563883,-71.602920
30681,-6.282186,7.406996,-1.035090,0.167523,-0.041802,-0.046880,-0.369107,-0.002492,-0.048891,-0.062804,0.074066,-0.010488,0.999998,-0.001846,-0.000012,-0.000244,-0.353702,-0.703369,0.223169,0.574772,96.735690,40.593129,-71.601837
30682,-6.331390,7.017595,-1.106730,0.214805,0.268093,-0.302697,-0.354544,-0.000745,-0.048672,-0.063297,0.070172,-0.011192,0.999998,-0.001773,-0.000004,-0.000243,-0.354781,-0.702798,0.221992,0.575261,96.536988,40.622118,-71.599646
30683,-6.377103,6.958083,-0.973399,0.090847,0.310506,-0.329799,-0.244029,-0.026226,-0.031931,-0.063759,0.069579,-0.009827,0.999999,-0.001220,-0.000131,-0.000160,-0.355490,-0.702330,0.221237,0.575685,96.388237,40.643243,-71.618062
30684,-6.326067,7.347905,-0.783167,-0.025170,-0.023775,-0.085254,-0.203630,-0.014550,-0.031892,-0.063248,0.073481,-0.007911,0.999999,-0.001018,-0.000073,-0.000159,-0.356071,-0.701966,0.220577,0.576024,96.268229,40.663572,-71.627831
30685,-6.492437,7.552542,-0.954154,0.136413,0.006453,0.191530,-0.201008,-0.004394,-0.039042,-0.064909,0.075528,-0.009619,0.999999,-0.001005,-0.000022,-0.000195,-0.356632,-0.701644,0.219881,0.576335,96.155095,40.687333,-71.629403
30686,-6.535892,7.401119,-0.673270,-0.146265,0.067446,0.082856,-0.147487,-0.037523,-0.028794,-0.065347,0.074016,-0.006800,1.000000,-0.000737,-0.000188,-0.000144,-0.356999,-0.701309,0.219434,0.576686,96.055762,40.707266,-71.656795
30687,-6.218283,7.742796,-0.512468,-0.174319,-0.421909,0.120698,-0.218842,-0.020991,-0.044433,-0.062165,0.077436,-0.005216,0.999999,-0.001094,-0.000105,-0.000222,-0.357588,-0.700912,0.218697,0.577083,95.924466,40.735087,-71.670542
30688,-6.159684,7.377135,-0.956003,0.252900,-0.114734,-0.158643,-0.413298,0.019835,-0.073316,-0.061571,0.073774,-0.009706,0.999998,-0.002066,0.000099,-0.000367,-0.358819,-0.700314,0.217224,0.577601,95.703101,40.776958,-71.651524
30689,-6.166085,6.653253,-1.328369,0.557652,0.455440,-0.673076,-0.392756,0.032018,-0.079785,-0.061636,0.066531,-0.013404,0.999998,-0.001964,0.000160,-0.000399,-0.359971,-0.699792,0.215765,0.578063,95.499769,40.821900,-71.622994
30690,-6.082212,6.265561,-1.332482,0.556192,0.648930,-1.020896,-0.237797,0.027655,-0.056831,-0.060806,0.062657,-0.013391,0.999999,-0.001189,0.000138,-0.000284,-0.360642,-0.699510,0.214841,0.578330,95.381873,40.854039,-71.599579
30691,-6.197378,6.602505,-0.955544,0.212123,0.416199,-0.718985,-0.027449,0.008008,-0.025746,-0.061966,0.066032,-0.009562,1.000000,-0.000137,0.000040,-0.000129,-0.360646,-0.699517,0.214670,0.578383,95.373377,40.869529,-71.593202
30692,-6.323971,7.406287,-0.505858,-0.159457,-0.131272,-0.062870,0.069190,0.006874,-0.011280,-0.063236,0.074068,-0.005031,1.000000,0.000346,0.000034,-0.000056,-0.360352,-0.699680,0.214830,0.578311,95.419028,40.876841,-71.588699
30693,-6.507178,8.217756,-0.568138,-0.052643,-0.512367,0.672177,0.009769,0.026186,-0.014519,-0.065067,0.082183,-0.005669,1.000000,0.000049,0.000131,-0.000073,-0.360277,-0.699794,0.214773,0.578240,95.440320,40.884937,-71.569392
30694,-6.669656,8.357611,-0.825552,0.173907,-0.421393,0.902148,-0.065177,0.012632,-0.005011,-0.066695,0.083575,-0.008279,1.000000,-0.000326,0.000063,-0.000025,-0.360477,-0.699724,0.214557,0.578280,95.411523,40.888343,-71.561000
30695,-6.664175,7.878059,-0.546753,-0.141749,-0.184634,0.517840,-0.164938,0.020733,-0.013309,-0.066637,0.078780,-0.005526,1.000000,-0.000825,0.000104,-0.000067,-0.361011,-0.699506,0.214008,0.578414,95.329963,40.896057,-71.545902
30696,-6.514715,7.312399,-0.712314,0.002870,0.118287,0.005971,-0.321503,0.043535,-0.070550,-0.065123,0.073135,-0.007227,0.999999,-0.001608,0.000218,-0.000353,-0.361952,-0.699131,0.212766,0.578738,95.172552,40.935238,-71.509645
30697,-6.556532,7.156652,-0.977481,0.250837,0.316345,-0.065985,-0.342199,0.063615,-0.117423,-0.065526,0.071588,-0.009876,0.999998,-0.001711,0.000318,-0.000587,-0.362848,-0.698826,0.211262,0.579096,95.015272,41.000242,-71.455154
30698,-6.322438,6.749447,-1.289897,0.576324,0.491333,-0.505781,-0.276884,0.045105,-0.106660,-0.063191,0.067510,-0.012978,0.999999,-0.001384,0.000226,-0.000533,-0.363528,-0.698571,0.210018,0.579429,94.885692,41.060111,-71.415540
30699,-6.227537,6.604683,-0.876172,0.194480,0.403916,-0.703859,-0.110032,0.027986,-0.078019,-0.062251,0.066066,-0.008789,1.000000,-0.000550,0.000140,-0.000390,-0.363689,-0.698540,0.209388,0.579594,94.841948,41.104516,-71.390826
30700,-6.133643,7.006743,-0.585754,-0.005457,-0.005305,-0.482142,-0.040825,0.012942,-0.055163,-0.061317,0.070083,-0.005868,1.000000,-0.000204,0.000065,-0.000276,-0.363658,-0.698566,0.209066,0.579698,94.829436,41.136615,-71.378965
30701,-6.133663,7.616306,-0.552200,0.042829,-0.412078,-0.026819,-0.000960,0.000924,-0.009809,-0.061333,0.076166,-0.005522,1.000000,-0.000005,0.000005,-0.000049,-0.363608,-0.698583,0.209040,0.579719,94.831825,41.143393,-71.379148
30702,-6.201802,7.521659,-0.628256,0.087848,-0.281338,-0.048184,-0.017906,-0.007242,0.022231,-0.062026,0.075209,-0.006292,1.000000,-0.000090,-0.000036,0.000111,-0.363700,-0.698512,0.209092,0.579728,94.819115,41.132269,-71.387548
30703,-6.318631,7.132322,-0.525373,-0.088327,0.029581,-0.270023,-0.059183,0.024437,0.022819,-0.063195,0.071314,-0.005267,1.000000,-0.000296,0.000122,0.000114,-0.363972,-0.698457,0.208968,0.579668,94.798495,41.119289,-71.371994
30704,-6.485358,6.955153,-0.665431,-0.015031,0.301817,-0.284545,-0.080636,0.058757,-0.014262,-0.064851,0.069553,-0.006663,1.000000,-0.000403,0.000294,-0.000071,-0.364247,-0.698501,0.208590,0.579578,94.784273,41.125831,-71.328044
30705,-6.644999,7.250925,-0.820242,0.133961,0.263941,0.052256,-0.032074,0.069926,-0.025283,-0.066444,0.072516,-0.008191,1.000000,-0.000160,0.000350,-0.000126,-0.364332,-0.698677,0.208294,0.579419,94.803885,41.138140,-71.274943
30706,-6.726675,7.315306,-0.642748,-0.052330,0.229011,0.143205,0.041348,0.068511,-0.031354,-0.067257,0.073165,-0.006389,1.000000,0.000207,0.000343,-0.000157,-0.364142,-0.698989,0.208192,0.579199,94.865181,41.153959,-71.222471
30707,-6.735588,7.444393,-0.499907,-0.182681,0.106961,0.236801,0.086608,0.056487,-0.048055,-0.067339,0.074462,-0.004948,1.000000,0.000433,0.000282,-0.000240,-0.363732,-0.699365,0.208185,0.579005,94.947124,41.179848,-71.178019
30708,-6.533419,7.973605,-0.328191,-0.237670,-0.433842,0.489105,0.065793,0.046806,-0.047496,-0.065316,0.079753,-0.003240,1.000000,0.000329,0.000234,-0.000237,-0.363386,-0.699676,0.208136,0.578864,95.012372,41.205872,-71.140858
30709,-6.389526,7.976144,-0.315973,-0.217944,-0.547315,0.395040,-0.027980,0.063893,-0.044639,-0.063878,0.079775,-0.003150,1.000000,-0.000140,0.000319,-0.000223,-0.363395,-0.699862,0.207796,0.578756,95.032311,41.229371,-71.090910
30710,-6.409942,7.468907,-0.453394,-0.158611,-0.171429,0.037335,-0.009227,0.072945,-0.040596,-0.064086,0.074702,-0.004514,1.000000,-0.000046,0.000365,-0.000203,-0.363359,-0.700103,0.207507,0.578590,95.067389,41.250081,-71.034325
30711,-6.373119,7.570700,-0.674436,0.069388,-0.207917,0.103913,0.088471,0.054161,0.010279,-0.063737,0.075707,-0.006694,1.000000,0.000442,0.000271,0.000051,-0.363108,-0.700416,0.207713,0.578295,95.146788,41.242681,-70.995421
30712,-6.489702,7.396310,-0.711490,0.041101,-0.002086,0.052714,0.166249,0.029352,0.065143,-0.064922,0.073948,-0.007044,1.000000,0.000831,0.000147,0.000326,-0.362718,-0.700740,0.208381,0.577907,95.255818,41.205199,-70.979156
30713,-6.686239,7.263154,-0.750364,-0.003706,0.236708,0.085099,0.239482,-0.006572,0.090937,-0.066895,0.072610,-0.007419,0.999999,0.001197,-0.000033,0.000455,-0.362108,-0.701065,0.209416,0.577521,95.387595,41.154902,-70.992058
30714,-6.238315,7.888217,-0.056372,-0.495092,-0.669900,0.209779,0.041800,0.008430,0.049714,-0.062403,0.078867,-0.000545,1.000000,0.000209,0.000042,0.000249,-0.362087,-0.701119,0.209708,0.577363,95.415482,41.127312,-70.990727
30715,-6.518277,6.620526,0.298271,-1.060147,0.256568,-0.581300,-0.228648,0.128896,-0.104434,-0.065146,0.066243,0.002949,0.999999,-0.001143,0.000644,-0.000522,-0.362696,-0.701191,0.208461,0.577345,95.355722,41.181187,-70.887113
30716,-6.397377,6.882688,-1.083574,0.340959,0.361467,-0.366787,-0.228122,0.106193,-0.155208,-0.063926,0.068864,-0.010880,0.999999,-0.001141,0.000531,-0.000776,-0.363131,-0.701250,0.207078,0.577497,95.287333,41.265313,-70.797148
30717,-5.674013,7.007953,-1.320947,0.770217,-0.174646,-0.733756,-0.065695,0.066880,-0.024784,-0.056736,0.070082,-0.013214,1.000000,-0.000328,0.000334,-0.000124,-0.363333,-0.701355,0.206692,0.577381,95.286396,41.277154,-70.746142
30718,-6.483990,6.014057,-0.443306,-0.405483,0.806806,-1.004045,0.034029,0.093876,-0.007005,-0.064840,0.060144,-0.004392,1.000000,0.000170,0.000469,-0.000035,-0.363264,-0.701701,0.206608,0.577035,95.355285,41.277381,-70.675898
30719,-6.703696,7.236549,-0.031585,-0.706689,0.049821,0.026330,0.116305,0.062758,-0.049124,-0.067019,0.072382,-0.000253,1.000000,0.000582,0.000314,-0.000246,-0.362752,-0.702149,0.206669,0.576789,95.457759,41.303248,-70.626225
30720,-6.124584,8.540188,-0.509487,0.052850,-1.085484,0.652676,0.089606,0.044005,0.011027,-0.061252,0.085401,-0.005043,1.000000,0.000448,0.000220,0.000055,-0.362488,-0.702432,0.206899,0.576528,95.532641,41.295803,-70.595156
30721,-6.817397,7.469064,-0.643983,-0.132807,0.139061,0.318530,-0.061482,0.066247,0.003925,-0.068178,0.074687,-0.006440,1.000000,-0.000307,0.000331,0.000020,-0.362757,-0.702513,0.206628,0.576357,95.532479,41.291141,-70.546657
30722,-7.067822,6.978287,-0.369266,-0.520998,0.560267,0.096985,-0.055278,0.035295,-0.038196,-0.070666,0.069795,-0.003699,1.000000,-0.000276,0.000176,-0.000191,-0.362851,-0.702559,0.206283,0.576366,95.522354,41.312209,-70.518600
30723,-6.538718,7.527761,-0.587219,-0.108203,-0.116517,0.174383,0.020911,0.001729,-0.027756,-0.065377,0.075287,-0.005864,1.000000,0.000105,0.000009,-0.000139,-0.362673,-0.702636,0.206255,0.576394,95.538620,41.329179,-70.516743
30724,-6.685714,7.448402,-0.575730,-0.165973,0.031998,0.211302,-0.031317,0.028874,-0.050742,-0.066839,0.074500,-0.005759,1.000000,-0.000157,0.000144,-0.000254,-0.362640,-0.702720,0.205946,0.576423,95.539626,41.357771,-70.492628
30725,-6.666862,7.336238,-0.400130,-0.342245,0.038661,0.102398,-0.021036,0.009832,-0.061770,-0.066646,0.073383,-0.004006,1.000000,-0.000105,0.000049,-0.000309,-0.362519,-0.702779,0.205663,0.576527,95.537590,41.393691,-70.482102
30726,-6.290974,7.329604,-0.485539,-0.165211,-0.204191,-0.144896,-0.005219,0.000260,-0.035885,-0.062897,0.073307,-0.004857,1.000000,-0.000026,0.000001,-0.000179,-0.362408,-0.702812,0.205534,0.576603,95.538452,41.415399,-70.480830
30727,-6.469644,7.365407,-0.416974,-0.269052,-0.123093,-0.004943,-0.034180,0.001006,-0.034807,-0.064684,0.073665,-0.004182,1.000000,-0.000171,0.000005,-0.000174,-0.362402,-0.702795,0.205324,0.576703,95.523138,41.436430,-70.479000
30728,-6.539319,7.295003,-0.310448,-0.393458,-0.059807,-0.018927,-0.053324,-0.014510,-0.043553,-0.065377,0.072963,-0.003129,1.000000,-0.000267,-0.000073,-0.000218,-0.362422,-0.702706,0.205055,0.576894,95.489342,41.463320,-70.488433
30729,-6.378417,7.155861,-0.562721,-0.124127,-0.016289,-0.211046,-0.030308,-0.030340,-0.031686,-0.063772,0.071568,-0.005648,1.000000,-0.000152,-0.000152,-0.000158,-0.362380,-0.702601,0.204924,0.577095,95.460277,41.484286,-70.510718
30730,-6.405386,7.006075,-0.472583,-0.234721,0.073757,-0.311274,0.029977,-0.020737,-0.020182,-0.064046,0.070068,-0.004722,1.000000,0.000150,-0.000104,-0.000101,-0.362169,-0.702621,0.204989,0.577180,95.469893,41.498184,-70.526643
30731,-6.380986,7.031568,-0.591382,-0.113408,0.069591,-0.299962,0.078118,-0.020354,-0.010571,-0.063806,0.070321,-0.005893,1.000000,0.000391,-0.000102,-0.000053,-0.361816,-0.702720,0.205227,0.577196,95.506956,41.506564,-70.542872
30732,-6.391396,7.130964,-0.519589,-0.177141,-0.010121,-0.224200,0.105127,-0.015187,0.000964,-0.063914,0.071312,-0.005163,1.000000,0.000526,-0.000076,0.000005,-0.361407,-0.702870,0.205573,0.577146,95.561396,41.508117,-70.556119
30733,-6.688505,7.080571,-0.531857,-0.253089,0.232961,-0.064091,0.136542,-0.018030,-0.005947,-0.066882,0.070811,-0.005276,1.000000,0.000683,-0.000090,-0.000030,-0.360865,-0.703076,0.205992,0.577085,95.632889,41.513754,-70.570904
30734,-6.564424,7.347731,-0.595235,-0.135189,-0.016169,0.057296,0.136632,-0.031161,-0.006783,-0.065641,0.073484,-0.005912,1.000000,0.000683,-0.000156,-0.000034,-0.360307,-0.703244,0.206430,0.577073,95.697692,41.520660,-70.595738
30735,-6.600125,7.313071,-0.345644,-0.394206,-0.039213,0.036434,0.094883,-0.024476,-0.022755,-0.065993,0.073140,-0.003430,1.000000,0.000474,-0.000122,-0.000114,-0.359855,-0.703374,0.206680,0.577107,95.742916,41.536271,-70.614138
30736,-6.758325,7.523960,-0.674985,-0.095418,0.016887,0.322950,0.113976,-0.039195,-0.044552,-0.067565,0.075258,-0.006720,1.000000,0.000570,-0.000196,-0.000223,-0.359259,-0.703516,0.206935,0.577214,95.792579,41.565207,-70.642196
30737,-6.552214,7.772788,-0.858758,0.159854,-0.248615,0.385246,0.072767,-0.044959,-0.028849,-0.065509,0.077740,-0.008574,1.000000,0.000364,-0.000225,-0.000144,-0.358846,-0.703552,0.207137,0.577354,95.815088,41.585498,-70.675714
30738,-6.744520,7.428177,-1.001535,0.208087,0.147532,0.267212,0.000641,-0.045591,-0.033850,-0.067430,0.074293,-0.010030,1.000000,0.000003,-0.000228,-0.000169,-0.358673,-0.703461,0.207114,0.577581,95.796013,41.608711,-70.709472
30739,-6.709238,7.179349,-0.793873,-0.009001,0.227266,0.043044,0.010244,-0.069693,-0.048852,-0.067072,0.071810,-0.007958,1.000000,0.000051,-0.000348,-0.000244,-0.358397,-0.703334,0.207109,0.577909,95.771151,41.641824,-70.760342
30740,-6.377303,7.220952,-0.938290,0.220927,-0.000184,-0.135718,0.031972,-0.074574,-0.038993,-0.063755,0.072223,-0.009395,1.000000,0.000160,-0.000373,-0.000195,-0.358068,-0.703221,0.207210,0.578214,95.755544,41.669626,-70.815861
30741,-6.321215,7.165622,-1.138728,0.424454,0.045913,-0.199243,0.014149,-0.070195,-0.035221,-0.063196,0.071668,-0.011404,1.000000,0.000071,-0.000351,-0.000176,-0.357817,-0.703085,0.207265,0.578515,95.731880,41.694970,-70.868237
30742,-6.395355,6.871876,-1.175107,0.408785,0.297203,-0.365535,0.034007,-0.062809,-0.042017,-0.063935,0.068734,-0.011759,1.000000,0.000170,-0.000314,-0.000210,-0.357484,-0.703013,0.207340,0.578782,95.723513,41.723792,-70.914590
30743,-6.350009,6.783562,-1.008884,0.251172,0.274993,-0.473605,0.071699,-0.080005,-0.041378,-0.063482,0.067852,-0.010090,1.000000,0.000358,-0.000400,-0.000207,-0.357003,-0.702957,0.207557,0.579068,95.728071,41.753195,-70.974046
30744,-6.267754,6.929404,-0.834946,0.122803,0.070951,-0.433007,0.067433,-0.079886,-0.031568,-0.062663,0.069307,-0.008351,1.000000,0.000337,-0.000399,-0.000158,-0.356565,-0.702884,0.207796,0.579341,95.729601,41.777047,-71.034267
30745,-6.358894,7.156790,-0.837630,0.132612,-0.018595,-0.203376,0.047755,-0.072499,-0.050224,-0.063568,0.071586,-0.008382,1.000000,0.000239,-0.000362,-0.000251,-0.356149,-0.702816,0.207900,0.579642,95.724640,41.811065,-71.087356
30746,-6.345822,7.047623,-0.731746,0.024812,0.011886,-0.300951,-0.012404,-0.061344,-0.055434,-0.063436,0.070493,-0.007341,1.000000,-0.000062,-0.000307,-0.000277,-0.355942,-0.702679,0.207791,0.579975,95.691018,41.847449,-71.131629
30747,-6.427985,6.911397,-0.843558,0.102524,0.183228,-0.338834,-0.034860,-0.040092,-0.083312,-0.064249,0.069139,-0.008461,1.000000,-0.000174,-0.000200,-0.000417,-0.355754,-0.702592,0.207480,0.580306,95.656839,41.898459,-71.157494
30748,-6.379126,6.934349,-0.876020,0.155997,0.134844,-0.352067,-0.097937,0.004484,-0.107570,-0.063754,0.069373,-0.008793,1.000000,-0.000490,0.000022,-0.000538,-0.355764,-0.702548,0.206823,0.580589,95.610417,41.960829,-71.147501
30749,-6.371240,6.936854,-1.043514,0.327684,0.162659,-0.343384,-0.116984,0.043695,-0.125436,-0.063671,0.069402,-0.010462,1.000000,-0.000585,0.000218,-0.000627,-0.355829,-0.702601,0.205977,0.580785,95.574176,42.031155,-71.106062
30750,-6.420191,6.593918,-1.163535,0.395979,0.445714,-0.555422,-0.155832,0.104159,-0.143892,-0.064161,0.065976,-0.011653,0.999999,-0.000779,0.000521,-0.000719,-0.356039,-0.702779,0.204846,0.580841,95.547693,42.108716,-71.016849
30751,-6.496101,6.783445,-1.125096,0.370256,0.352700,-0.367117,-0.129650,0.098530,-0.145931,-0.064917,0.067875,-0.011263,0.999999,-0.000648,0.000493,-0.000730,-0.356145,-0.702989,0.203793,0.580893,95.533615,42.187724,-70.931689
30752,-6.351151,6.754026,-1.212416,0.491198,0.282967,-0.479811,-0.169336,0.130518,-0.150171,-0.063469,0.067578,-0.012140,0.999999,-0.000847,0.000653,-0.000751,-0.356410,-0.703224,0.202553,0.580879,95.513680,42.267471,-70.821522
30753,-6.266937,6.572129,-1.256481,0.535220,0.346316,-0.667211,-0.188706,0.184239,-0.151349,-0.062631,0.065757,-0.012569,0.999999,-0.000944,0.000921,-0.000757,-0.356793,-0.703580,0.201157,0.580697,95.510805,42.344883,-70.669705
30754,-6.333095,6.837382,-0.914366,0.222509,0.111799,-0.451495,0.006062,0.187674,-0.139856,-0.063292,0.068418,-0.009082,0.999999,0.000030,0.000938,-0.000699,-0.356527,-0.704282,0.200359,0.580286,95.621082,42.415519,-70.515808
30755,-6.626484,6.357949,-0.589683,-0.232785,0.532760,-0.628816,-0.013125,0.176647,-0.136380,-0.066227,0.063624,-0.005842,0.999999,-0.000066,0.000883,-0.000682,-0.356328,-0.704912,0.199539,0.579926,95.714784,42.484521,-70.370371
30756,-6.937127,5.870558,-0.200981,-0.756992,0.950759,-0.804327,0.128208,0.134699,-0.175227,-0.069321,0.058768,-0.001925,0.999999,0.000641,0.000673,-0.000876,-0.355475,-0.705711,0.199065,0.579641,95.870035,42.577950,-70.253922
30757,-6.653770,7.093145,0.172940,-0.897543,-0.184544,-0.128908,0.195965,0.064795,-0.178885,-0.066474,0.070989,0.001820,0.999999,0.000980,0.000324,-0.000894,-0.354302,-0.706429,0.198898,0.579540,96.028112,42.677289,-70.190815
30758,-6.176815,8.422407,-0.284107,-0.174593,-1.301074,0.552996,0.016264,0.066017,-0.160186,-0.061702,0.084274,-0.002814,1.000000,0.000081,0.000330,-0.000801,-0.353819,-0.706814,0.198274,0.579581,96.083116,42.765943,-70.127970
30759,-6.399999,8.129761,-0.355408,-0.191802,-0.945150,0.495037,-0.243078,0.092178,-0.143973,-0.063943,0.081339,-0.003623,0.999999,-0.001215,0.000461,-0.000720,-0.354325,-0.706798,0.196910,0.579756,96.002556,42.843662,-70.046065
30760,-7.148633,5.854045,-0.456903,-0.570313,1.114842,-0.646804,-0.199508,0.086561,-0.169867,-0.071439,0.058597,-0.004597,0.999999,-0.000998,0.000433,-0.000849,-0.354596,-0.706867,0.195590,0.579953,95.945434,42.936613,-69.966488
30761,-6.650743,5.986990,-1.118546,0.213863,0.851508,-0.837346,-0.028666,0.002502,-0.160771,-0.066459,0.059922,-0.011193,1.000000,-0.000143,0.000013,-0.000804,-0.354206,-0.706986,0.194946,0.580263,95.941247,43.029329,-69.953025
30762,-6.312838,7.569924,-0.540372,-0.045535,-0.619918,0.039280,0.228113,0.005311,-0.116710,-0.063084,0.075742,-0.005316,0.999999,0.001141,0.000027,-0.000584,-0.353039,-0.707523,0.195198,0.580235,96.083285,43.096887,-69.940864
30763,-7.294306,6.103330,-0.599243,-0.438826,1.043019,-0.350332,0.076524,0.018683,-0.132373,-0.072903,0.061084,-0.005962,1.000000,0.000383,0.000093,-0.000662,-0.352376,-0.707846,0.194931,0.580333,96.146689,43.172407,-69.916731
30764,-6.885352,5.791261,-0.715936,-0.276578,0.988359,-0.845752,0.486367,-0.074848,-0.127289,-0.068814,0.057974,-0.007044,0.999997,0.002432,-0.000374,-0.000636,-0.350184,-0.708613,0.196034,0.580353,96.394746,43.250981,-69.965863
30765,-5.770450,8.320811,-0.992220,0.564656,-1.433665,0.244357,0.494297,-0.029774,-0.028674,-0.057691,0.083241,-0.009725,0.999997,0.002471,-0.000149,-0.000143,-0.348292,-0.709423,0.197431,0.580028,96.665788,43.270500,-69.988084
30766,-6.824417,7.635837,-0.625267,-0.168165,-0.359371,0.439733,0.395765,0.013027,-0.024878,-0.068235,0.076379,-0.006097,0.999998,0.001979,0.000065,-0.000124,-0.346801,-0.710178,0.198479,0.579640,96.903075,43.285162,-69.977146
30767,-6.880258,7.107897,-0.551948,-0.348751,0.006555,0.088980,0.562997,-0.028156,0.002937,-0.068803,0.071093,-0.005329,0.999996,0.002815,-0.000141,0.000015,-0.344754,-0.711071,0.200181,0.579180,97.212405,43.286740,-70.000922
30768,-6.933118,8.029424,0.414313,-1.229960,-0.844864,0.698478,0.698175,-0.050882,0.051238,-0.069353,0.080261,0.004406,0.999994,0.003491,-0.000254,0.000256,-0.342340,-0.712077,0.202483,0.578577,97.583605,43.262777,-70.047378
