PacketCounter,Acc_X,Acc_Y,Acc_Z,FreeAcc_E,FreeAcc_N,FreeAcc_U,Gyr_X,Gyr_Y,Gyr_Z,VelInc_X,VelInc_Y,VelInc_Z,OriInc_q0,OriInc_q1,OriInc_q2,OriInc_q3,Quat_q0,Quat_q1,Quat_q2,Quat_q3,Roll,Pitch,Yaw
20312,-2.232452,9.353676,-1.570590,-0.143173,-0.054095,-0.070078,-0.051460,0.024851,-0.024138,-0.022315,0.093535,-0.015727,1.000000,-0.000257,0.000124,-0.000121,0.281419,0.152715,0.742013,0.588981,98.752808,13.753210,144.927829
20313,-2.225771,9.427336,-1.526907,-0.132541,0.001151,-0.007454,-0.021722,0.030654,-0.019382,-0.022251,0.094274,-0.015276,1.000000,-0.000109,0.000153,-0.000097,0.281376,0.152576,0.741987,0.589070,98.743374,13.756619,144.942701
20314,-2.230151,9.451573,-1.454045,-0.088175,0.062464,0.006089,0.013675,0.027192,-0.013523,-0.022297,0.094518,-0.014531,1.000000,0.000068,0.000136,-0.000068,0.281293,0.152525,0.742053,0.589039,98.753201,13.755696,144.955072
20315,-2.271801,9.473411,-1.401238,-0.023367,0.088258,0.029148,0.040038,0.018480,0.010084,-0.022724,0.094736,-0.013991,1.000000,0.000200,0.000092,0.000050,0.281161,0.152619,0.742170,0.588931,98.776834,13.743479,144.960198
20316,-2.350992,9.492924,-1.367853,0.062169,0.078142,0.061715,0.063373,0.006604,0.010793,-0.023515,0.094932,-0.013648,1.000000,0.000317,0.000033,0.000054,0.281047,0.152791,0.742334,0.588734,98.811711,13.730534,144.958067
20317,-2.262884,9.432938,-1.285812,0.052601,0.180989,-0.029092,0.083216,0.004823,0.003484,-0.022631,0.094334,-0.012818,1.000000,0.000416,0.000024,0.000017,0.280952,0.152960,0.742564,0.588445,98.858331,13.723250,144.955816
20318,-2.202513,9.419375,-1.254429,0.030200,0.241686,-0.061280,0.086856,0.009564,-0.005328,-0.022023,0.094200,-0.012502,1.000000,0.000434,0.000048,-0.000027,0.280853,0.153093,0.742814,0.588142,98.907477,13.719140,144.957503
20319,-2.195665,9.344878,-1.131465,0.110715,0.329389,-0.153125,0.083295,0.016316,-0.011657,-0.021952,0.093455,-0.011274,1.000000,0.000416,0.000082,-0.000058,0.280760,0.153173,0.743072,0.587840,98.956056,13.719407,144.963323
20320,-2.269755,9.375773,-1.153790,0.157618,0.285035,-0.102793,0.082595,0.012634,-0.016534,-0.022691,0.093764,-0.011498,1.000000,0.000413,0.000063,-0.000083,0.280686,0.153249,0.743323,0.587539,99.003427,13.721419,144.967813
20321,-2.221744,9.460105,-1.179787,0.098828,0.319690,-0.029556,0.068052,0.003217,-0.018041,-0.022209,0.094607,-0.011765,1.000000,0.000340,0.000016,-0.000090,0.280672,0.153322,0.743521,0.587275,99.041603,13.726466,144.966593
20322,-2.078146,9.463382,-1.165524,-0.003337,0.417616,-0.062902,0.083645,-0.003458,-0.008163,-0.020777,0.094640,-0.011616,1.000000,0.000418,-0.000017,-0.000041,0.280632,0.153477,0.743746,0.586969,99.087156,13.725225,144.960878
20323,-2.104616,9.536284,-1.126096,0.038272,0.459095,0.006985,0.079735,-0.013380,-0.005920,-0.021043,0.095368,-0.011224,1.000000,0.000399,-0.000067,-0.000030,0.280635,0.153661,0.743946,0.586665,99.129466,13.724921,144.948868
20324,-2.209574,9.576862,-1.216692,0.067102,0.344748,0.084559,0.059435,-0.025215,-0.008356,-0.022090,0.095773,-0.012141,1.000000,0.000297,-0.000126,-0.000042,0.280699,0.153849,0.744068,0.586431,99.158039,13.725706,144.929870
20325,-2.227650,9.558886,-1.216096,0.085689,0.334219,0.071369,0.048191,-0.031647,-0.013594,-0.022268,0.095593,-0.012141,1.000000,0.000241,-0.000158,-0.000068,0.280817,0.154013,0.744156,0.586220,99.179922,13.731423,144.907945
20326,-2.132400,9.554845,-1.263529,-0.016509,0.352395,0.052111,0.047806,-0.035159,-0.015169,-0.021315,0.095553,-0.012616,1.000000,0.000239,-0.000176,-0.000076,0.280947,0.154192,0.744233,0.586012,99.200532,13.736936,144.883507
20327,-2.210906,9.514768,-1.297080,0.030343,0.274324,0.037448,0.025253,-0.029637,-0.017558,-0.022099,0.095151,-0.012962,1.000000,0.000126,-0.000148,-0.000088,0.281087,0.154303,0.744260,0.585882,99.209636,13.744724,144.863128
20328,-2.239405,9.526121,-1.344365,0.023250,0.225475,0.062425,0.011121,-0.027197,-0.015909,-0.022385,0.095264,-0.013441,1.000000,0.000056,-0.000136,-0.000080,0.281213,0.154398,0.744243,0.585817,99.210433,13.749896,144.844313
20329,-2.241449,9.525649,-1.344302,0.023792,0.224764,0.062440,-0.000101,-0.025282,-0.019589,-0.022403,0.095259,-0.013446,1.000000,-0.000001,-0.000126,-0.000098,0.281362,0.154453,0.744203,0.585783,99.205654,13.758435,144.826661
20330,-2.181899,9.590907,-1.387923,-0.057941,0.241099,0.117621,-0.005951,-0.024461,-0.023895,-0.021806,0.095911,-0.013885,1.000000,-0.000030,-0.000122,-0.000119,0.281516,0.154486,0.744147,0.585772,99.197255,13.767982,144.810222
20331,-2.166545,9.573408,-1.388278,-0.070230,0.244299,0.097245,-0.004809,-0.030403,-0.007309,-0.021660,0.095735,-0.013888,1.000000,-0.000024,-0.000152,-0.000037,0.281651,0.154595,0.744076,0.585768,99.188787,13.770040,144.788428
20332,-2.203819,9.564395,-1.303713,0.010298,0.285873,0.084399,-0.008369,-0.031790,-0.000208,-0.022036,0.095643,-0.013045,1.000000,-0.000042,-0.000159,-0.000001,0.281763,0.154734,0.743984,0.585794,99.177441,13.766807,144.765557
20333,-2.233902,9.470884,-1.360626,0.008274,0.197517,0.010763,-0.015976,-0.041636,-0.000823,-0.022336,0.094708,-0.013618,1.000000,-0.000080,-0.000208,-0.000004,0.281930,0.154885,0.743860,0.585831,99.160874,13.766213,144.736610
20334,-2.242410,9.362802,-1.394644,0.003860,0.134895,-0.085546,-0.018443,-0.041070,-0.005531,-0.022419,0.093627,-0.013960,1.000000,-0.000092,-0.000205,-0.000028,0.282100,0.155015,0.743730,0.585881,99.142601,13.766813,144.709017
20335,-2.175197,9.328360,-1.401505,-0.052150,0.155768,-0.133482,-0.023163,-0.038068,-0.006672,-0.021746,0.093283,-0.014030,1.000000,-0.000116,-0.000190,-0.000033,0.282276,0.155123,0.743594,0.585940,99.122541,13.769185,144.682697
20336,-2.183738,9.366906,-1.526206,-0.126287,0.060529,-0.075268,-0.029325,-0.030629,-0.004371,-0.021833,0.093667,-0.015279,1.000000,-0.000147,-0.000153,-0.000022,0.282413,0.155215,0.743445,0.586039,99.099377,13.768099,144.660655
20337,-2.201059,9.384600,-1.521695,-0.112925,0.055912,-0.054867,-0.019608,-0.032993,0.012792,-0.022014,0.093843,-0.015230,1.000000,-0.000098,-0.000165,0.000064,0.282511,0.155386,0.743311,0.586116,99.081627,13.758980,144.635475
20338,-2.251932,9.471409,-1.517915,-0.078910,0.049114,0.039937,-0.023979,-0.037945,0.028360,-0.022530,0.094709,-0.015195,1.000000,-0.000120,-0.000190,0.000142,0.282577,0.155630,0.743141,0.586234,99.059812,13.740123,144.605871
20339,-2.274757,9.512145,-1.463793,-0.032040,0.084560,0.076192,-0.029576,-0.040277,0.029060,-0.022758,0.095116,-0.014657,1.000000,-0.000148,-0.000201,0.000145,0.282662,0.155868,0.742955,0.586366,99.035001,13.722437,144.574950
20340,-2.315793,9.508322,-1.500377,-0.021165,0.025883,0.087873,-0.041556,-0.038590,0.032145,-0.023170,0.095076,-0.015028,1.000000,-0.000208,-0.000193,0.000161,0.282730,0.156100,0.742731,0.586555,99.003021,13.701434,144.545167
20341,-2.426489,9.477468,-1.619052,-0.002911,-0.144177,0.102492,-0.057216,-0.026911,0.025567,-0.024275,0.094767,-0.016221,1.000000,-0.000286,-0.000135,0.000128,0.282797,0.156247,0.742486,0.586795,98.964319,13.684496,144.522378
20342,-2.506905,9.471460,-1.671294,0.028455,-0.238639,0.123539,-0.047710,-0.028030,0.017764,-0.025075,0.094708,-0.016739,1.000000,-0.000239,-0.000140,0.000089,0.282877,0.156391,0.742268,0.586994,98.930498,13.670627,144.499304
20343,-2.372502,9.462635,-1.616660,-0.045435,-0.128134,0.074947,-0.046734,-0.025943,0.019279,-0.023732,0.094620,-0.016192,1.000000,-0.000234,-0.000130,0.000096,0.282950,0.156526,0.742059,0.587186,98.898088,13.657136,144.477678
20344,-2.386226,9.378089,-1.599960,-0.016451,-0.150637,-0.005571,-0.036840,-0.011751,0.026230,-0.023874,0.093775,-0.016018,1.000000,-0.000184,-0.000059,0.000131,0.282935,0.156668,0.741889,0.587369,98.872580,13.636960,144.463527
20345,-2.349148,9.310274,-1.596756,-0.036485,-0.149324,-0.079974,-0.016236,-0.021464,0.025502,-0.023502,0.093098,-0.015978,1.000000,-0.000081,-0.000107,0.000128,0.282950,0.156857,0.741772,0.587461,98.858142,13.619532,144.443960
20346,-2.124376,9.285563,-1.538184,-0.174436,0.014508,-0.165406,0.015726,-0.026436,0.025006,-0.021253,0.092854,-0.015377,1.000000,0.000079,-0.000132,0.000125,0.282952,0.157111,0.741737,0.587436,98.860823,13.601453,144.421350
20347,-2.022065,9.353883,-1.566834,-0.276769,0.066868,-0.119506,0.018655,-0.018603,0.021232,-0.020229,0.093538,-0.015661,1.000000,0.000093,-0.000093,0.000106,0.282941,0.157325,0.741729,0.587394,98.866871,13.586189,144.403840
20348,-2.080167,9.428019,-1.514223,-0.204014,0.094158,-0.042477,0.020211,-0.014797,0.006026,-0.020803,0.094281,-0.015134,1.000000,0.000101,-0.000074,0.000030,0.282953,0.157482,0.741738,0.587334,98.874115,13.577776,144.389679
20349,-2.009906,9.420620,-1.428153,-0.205813,0.199198,-0.078964,0.002596,-0.022210,-0.000067,-0.020097,0.094206,-0.014283,1.000000,0.000013,-0.000111,-0.000000,0.283030,0.157604,0.741695,0.587319,98.870928,13.574890,144.372004
20350,-1.924357,9.334457,-1.434576,-0.269397,0.218108,-0.180808,-0.030343,-0.019317,-0.001080,-0.019242,0.093342,-0.014362,1.000000,-0.000152,-0.000097,-0.000005,0.283114,0.157671,0.741557,0.587435,98.848862,13.570904,144.356793
20351,-1.898366,9.192347,-1.471065,-0.299853,0.163788,-0.317935,-0.044529,-0.005269,-0.001173,-0.018983,0.091920,-0.014732,1.000000,-0.000223,-0.000026,-0.000006,0.283169,0.157673,0.741400,0.587606,98.821016,13.567144,144.349087
20352,-1.970042,9.122071,-1.470484,-0.237578,0.101646,-0.368705,-0.033918,0.000803,-0.002534,-0.019699,0.091218,-0.014720,1.000000,-0.000170,0.000004,-0.000013,0.283191,0.157676,0.741279,0.587747,98.799582,13.562220,144.344757
20353,-1.951223,9.132358,-1.373394,-0.195669,0.188970,-0.377675,-0.007590,0.000084,-0.007396,-0.019509,0.091324,-0.013737,1.000000,-0.000038,0.000000,-0.000037,0.283216,0.157691,0.741243,0.587776,98.793764,13.561508,144.340733
20354,-2.029784,9.161964,-1.410354,-0.159148,0.122378,-0.325307,-0.003034,-0.003013,-0.007918,-0.020294,0.091620,-0.014105,1.000000,-0.000015,-0.000015,-0.000040,0.283240,0.157725,0.741213,0.587793,98.789677,13.559928,144.335255
20355,-2.100481,9.265012,-1.407464,-0.112331,0.111661,-0.210170,0.008020,-0.001885,-0.022586,-0.020994,0.092653,-0.014071,1.000000,0.000040,-0.000009,-0.000113,0.283304,0.157713,0.741232,0.587742,98.792856,13.567989,144.331452
20356,-2.192235,9.391919,-1.503861,-0.111898,0.018574,-0.052422,0.010549,-0.010922,-0.032782,-0.021906,0.093924,-0.015035,1.000000,0.000053,-0.000055,-0.000164,0.283421,0.157699,0.741250,0.587667,98.795967,13.581184,144.323312
20357,-2.131533,9.449827,-1.448503,-0.134263,0.113324,-0.019324,0.005366,-0.013186,-0.042114,-0.021294,0.094503,-0.014484,1.000000,0.000027,-0.000066,-0.000211,0.283587,0.157643,0.741260,0.587589,98.796489,13.601293,144.314687
20358,-2.085127,9.465830,-1.460681,-0.182401,0.136034,-0.013121,0.003545,-0.012264,-0.040242,-0.020831,0.094663,-0.014606,1.000000,0.000018,-0.000061,-0.000201,0.283735,0.157595,0.741262,0.587528,98.795573,13.618779,144.306670
20359,-2.060665,9.384215,-1.407529,-0.163776,0.171633,-0.105232,-0.001590,-0.009322,-0.031329,-0.020591,0.093845,-0.014077,1.000000,-0.000008,-0.000047,-0.000157,0.283860,0.157558,0.741249,0.587494,98.792406,13.632442,144.299321
20360,-2.112038,9.376167,-1.471436,-0.163329,0.090936,-0.091402,-0.009472,-0.002640,-0.032105,-0.021105,0.093764,-0.014719,1.000000,-0.000047,-0.000013,-0.000161,0.283960,0.157495,0.741219,0.587501,98.785131,13.644452,144.295898
20361,-2.164377,9.402318,-1.539070,-0.168164,0.016289,-0.043947,-0.000863,0.005853,-0.041572,-0.021625,0.094028,-0.015390,1.000000,-0.000004,0.000029,-0.000208,0.284058,0.157376,0.741237,0.587462,98.784681,13.662586,144.298311
20362,-2.156123,9.546375,-1.482082,-0.156848,0.104686,0.083936,0.003498,0.007689,-0.040462,-0.021542,0.095468,-0.014818,1.000000,0.000017,0.000038,-0.000202,0.284134,0.157269,0.741267,0.587416,98.786496,13.678500,144.301810
20363,-2.121313,9.582467,-1.468452,-0.181900,0.145616,0.108285,-0.012381,0.012802,-0.030260,-0.021200,0.095827,-0.014689,1.000000,-0.000062,0.000064,-0.000151,0.284182,0.157155,0.741253,0.587441,98.780165,13.689621,144.307254
20364,-2.107763,9.633698,-1.475231,-0.204288,0.160354,0.155244,-0.033762,0.013897,-0.024339,-0.021067,0.096337,-0.014767,1.000000,-0.000169,0.000069,-0.000122,0.284216,0.157035,0.741170,0.587562,98.761169,13.695889,144.313103
20365,-2.173039,9.540501,-1.524361,-0.175830,0.058385,0.088454,-0.040299,0.016247,-0.015247,-0.021724,0.095404,-0.015261,1.000000,-0.000201,0.000081,-0.000076,0.284229,0.156928,0.741067,0.587714,98.738998,13.698211,144.319203
20366,-2.145243,9.538207,-1.551451,-0.216352,0.049301,0.083636,-0.042227,0.020417,-0.016727,-0.021446,0.095381,-0.015532,1.000000,-0.000211,0.000102,-0.000084,0.284225,0.156807,0.740961,0.587882,98.715837,13.699555,144.327819
20367,-2.146325,9.538505,-1.548119,-0.215822,0.048599,0.083651,-0.038658,0.028601,-0.013920,-0.021459,0.095384,-0.015497,1.000000,-0.000193,0.000143,-0.000070,0.284187,0.156671,0.740879,0.588039,98.696284,13.700058,144.340999
20368,-2.138383,9.578067,-1.501258,-0.199494,0.097482,0.112861,-0.031829,0.031438,-0.016446,-0.021378,0.095780,-0.015024,1.000000,-0.000159,0.000157,-0.000082,0.284134,0.156535,0.740819,0.588177,98.680593,13.700340,144.355768
20369,-2.184670,9.676439,-1.549421,-0.204152,0.056409,0.225345,-0.046971,0.036774,-0.013010,-0.021843,0.096762,-0.015513,1.000000,-0.000235,0.000184,-0.000065,0.284070,0.156366,0.740724,0.588373,98.657386,13.699630,144.373633
20370,-2.168334,9.694213,-1.550317,-0.221426,0.065303,0.238662,-0.055946,0.033099,-0.003573,-0.021684,0.096938,-0.015527,1.000000,-0.000280,0.000165,-0.000018,0.283994,0.156240,0.740584,0.588619,98.627800,13.692471,144.387906
20371,-2.029901,9.722096,-1.476221,-0.289845,0.203879,0.221918,-0.047428,0.038537,0.016985,-0.020310,0.097216,-0.014781,1.000000,-0.000237,0.000193,0.000085,0.283835,0.156176,0.740466,0.588860,98.603943,13.674634,144.404148
20372,-1.985095,9.553986,-1.438073,-0.284158,0.209765,0.044419,-0.051561,0.036949,0.032471,-0.019869,0.095533,-0.014402,1.000000,-0.000258,0.000185,0.000162,0.283630,0.156174,0.740319,0.589145,98.576746,13.646742,144.418320
20373,-2.034511,9.432785,-1.435906,-0.229948,0.146004,-0.060544,-0.049231,0.044625,0.037103,-0.020366,0.094321,-0.014378,1.000000,-0.000246,0.000223,0.000186,0.283391,0.156164,0.740188,0.589427,98.552265,13.617001,144.436358
20374,-2.116776,9.389989,-1.512035,-0.204032,0.023676,-0.071194,-0.019084,0.042215,0.030186,-0.021185,0.093895,-0.015125,1.000000,-0.000095,0.000211,0.000151,0.283148,0.156184,0.740145,0.589592,98.544435,13.589939,144.453869
20375,-2.190967,9.516011,-1.458971,-0.123437,0.052625,0.059769,-0.008236,0.038379,0.023929,-0.021924,0.095157,-0.014589,1.000000,-0.000041,0.000192,0.000120,0.282939,0.156202,0.740137,0.589698,98.542844,13.568200,144.469426
20376,-2.175743,9.626861,-1.398571,-0.106822,0.135060,0.154090,0.011589,0.035041,0.024926,-0.021772,0.096267,-0.013976,1.000000,0.000058,0.000175,0.000125,0.282715,0.156268,0.740178,0.589737,98.551699,13.544761,144.483005
20377,-2.206931,9.661772,-1.397058,-0.080519,0.126285,0.194796,0.010769,0.031447,0.033373,-0.022088,0.096615,-0.013962,1.000000,0.000054,0.000157,0.000167,0.282489,0.156368,0.740208,0.589780,98.559843,13.518260,144.493686
20378,-2.225178,9.677183,-1.420815,-0.077308,0.099333,0.217376,0.007383,0.031696,0.033768,-0.022270,0.096769,-0.014201,1.000000,0.000037,0.000158,0.000169,0.282253,0.156470,0.740225,0.589845,98.565615,13.489991,144.504706
20379,-2.204506,9.547847,-1.337013,-0.025318,0.141402,0.076104,0.005415,0.024345,0.047377,-0.022069,0.095474,-0.013365,1.000000,0.000027,0.000122,0.000237,0.282016,0.156635,0.740219,0.589923,98.569429,13.456159,144.510013
20380,-2.231892,9.445955,-1.320665,0.021420,0.109258,-0.017834,-0.007474,0.027273,0.047205,-0.022343,0.094454,-0.013207,1.000000,-0.000037,0.000136,0.000236,0.281768,0.156778,0.740176,0.590057,98.565834,13.420695,144.517387
20381,-2.258889,9.275305,-1.297106,0.078107,0.065757,-0.179104,-0.004622,0.025022,0.035240,-0.022607,0.092749,-0.012970,1.000000,-0.000023,0.000125,0.000176,0.281572,0.156882,0.740150,0.590156,98.564229,13.393683,144.524153
20382,-2.228098,9.376493,-1.338351,0.022376,0.074097,-0.082927,0.003275,0.034866,0.024229,-0.022295,0.093762,-0.013378,1.000000,0.000016,0.000174,0.000121,0.281357,0.156934,0.740166,0.590223,98.568260,13.370651,144.537707
20383,-2.257750,9.455662,-1.416143,-0.005512,0.014968,0.011374,0.003771,0.036702,0.020823,-0.022590,0.094555,-0.014156,1.000000,0.000019,0.000184,0.000104,0.281153,0.156962,0.740193,0.590279,98.573322,13.350808,144.552536
20384,-2.306694,9.637927,-1.325387,0.073128,0.103099,0.184870,-0.000926,0.033116,0.024733,-0.023081,0.096376,-0.013250,1.000000,-0.000005,0.000166,0.000124,0.280950,0.157019,0.740193,0.590361,98.574618,13.327632,144.564426
20385,-2.306891,9.628814,-1.247800,0.122809,0.158481,0.164918,-0.033338,0.017892,0.020373,-0.023080,0.096284,-0.012492,1.000000,-0.000167,0.000089,0.000102,0.280847,0.157049,0.740084,0.590539,98.555893,13.309651,144.568342
20386,-2.198472,9.467261,-1.323670,0.007159,0.114232,-0.004461,-0.052052,0.023268,0.007547,-0.021990,0.094668,-0.013259,1.000000,-0.000260,0.000116,0.000038,0.280766,0.156994,0.739935,0.590779,98.527008,13.297066,144.576855
20387,-2.102323,9.256649,-1.366613,-0.075287,0.076603,-0.223036,-0.053540,0.025942,0.004363,-0.021027,0.092562,-0.013688,1.000000,-0.000268,0.000130,0.000022,0.280696,0.156912,0.739790,0.591016,98.498110,13.287478,144.586869
20388,-2.032362,9.153876,-1.366556,-0.121129,0.086190,-0.338020,-0.029220,0.031079,0.003129,-0.020327,0.091536,-0.013676,1.000000,-0.000146,0.000155,0.000016,0.280586,0.156854,0.739720,0.591170,98.483356,13.276751,144.599588
20389,-2.098584,9.120253,-1.348970,-0.053916,0.051969,-0.357679,-0.007442,0.025276,0.012277,-0.020993,0.091201,-0.013490,1.000000,-0.000037,0.000126,0.000061,0.280458,0.156868,0.739705,0.591246,98.480620,13.262739,144.608533
20390,-2.255446,9.421133,-1.447564,-0.016943,-0.040513,-0.017877,-0.014214,0.025785,0.013060,-0.022562,0.094209,-0.014479,1.000000,-0.000071,0.000129,0.000065,0.280323,0.156880,0.739666,0.591357,98.473621,13.246802,144.617998
20391,-2.338165,9.682151,-1.430350,0.033257,-0.010776,0.249904,-0.035752,0.021668,-0.001025,-0.023383,0.096819,-0.014318,1.000000,-0.000179,0.000108,-0.000005,0.280270,0.156816,0.739572,0.591516,98.454444,13.240635,144.625998
20392,-2.162743,9.676540,-1.334395,-0.050191,0.157831,0.190615,-0.068545,0.024496,-0.015536,-0.021622,0.096762,-0.013374,1.000000,-0.000343,0.000122,-0.000078,0.280270,0.156653,0.739391,0.591785,98.416665,13.241077,144.636622
20393,-1.996711,9.372602,-1.454556,-0.228419,0.074785,-0.122977,-0.097643,0.040566,-0.022296,-0.019960,0.093721,-0.014587,1.000000,-0.000488,0.000203,-0.000111,0.280259,0.156367,0.739157,0.592158,98.364968,13.245397,144.657461
20394,-1.982592,9.147545,-1.453972,-0.220853,0.021494,-0.343102,-0.062108,0.043764,-0.019796,-0.019820,0.091473,-0.014564,1.000000,-0.000311,0.000219,-0.000099,0.280192,0.156137,0.739027,0.592413,98.333588,13.246656,144.680169
20395,-1.980208,9.036740,-1.341674,-0.145672,0.081635,-0.466239,-0.003506,0.030063,-0.008153,-0.019800,0.090368,-0.013415,1.000000,-0.000018,0.000150,-0.000041,0.280104,0.156067,0.739046,0.592449,98.334150,13.243851,144.693681
20396,-2.016754,9.208448,-1.352935,-0.139319,0.095619,-0.290887,0.026197,0.027518,-0.004901,-0.020167,0.092087,-0.013515,1.000000,0.000131,0.000138,-0.000025,0.279984,0.156063,0.739143,0.592386,98.350914,13.238012,144.705738
20397,-2.100979,9.468320,-1.340363,-0.089007,0.125231,-0.023093,0.032272,0.023354,-0.010556,-0.021006,0.094686,-0.013386,1.000000,0.000161,0.000117,-0.000053,0.279900,0.156054,0.739260,0.592282,98.371125,13.237122,144.715546
20398,-2.168551,9.710958,-1.328638,-0.051411,0.158680,0.224382,0.007714,0.021386,-0.014371,-0.021680,0.097112,-0.013280,1.000000,0.000039,0.000107,-0.000072,0.279848,0.156011,0.739300,0.592267,98.376607,13.237192,144.724200
20399,-2.104492,9.666033,-1.260902,-0.058295,0.236139,0.156856,-0.037319,0.020853,-0.017513,-0.021038,0.096660,-0.012625,1.000000,-0.000187,0.000104,-0.000088,0.279849,0.155887,0.739213,0.592409,98.356749,13.240452,144.733148
20400,-2.044014,9.420782,-1.294590,-0.104942,0.178959,-0.088385,-0.065987,0.035415,-0.025999,-0.020430,0.094206,-0.012973,1.000000,-0.000330,0.000177,-0.000130,0.279834,0.155653,0.739064,0.592663,98.322146,13.245919,144.751502
20401,-2.028567,9.274292,-1.378048,-0.156847,0.081370,-0.221266,-0.071680,0.042946,-0.033739,-0.020273,0.092741,-0.013809,1.000000,-0.000358,0.000215,-0.000169,0.279828,0.155355,0.738919,0.592925,98.285867,13.256561,144.774694
20402,-2.038420,9.261786,-1.321679,-0.117409,0.114599,-0.238986,-0.028553,0.041064,-0.027010,-0.020374,0.092619,-0.013226,1.000000,-0.000143,0.000205,-0.000135,0.279768,0.155156,0.738889,0.593043,98.273443,13.262147,144.795985
20403,-1.934159,9.393048,-1.229320,-0.159323,0.278649,-0.149432,0.008549,0.031742,-0.012866,-0.019338,0.093932,-0.012286,1.000000,0.000043,0.000159,-0.000064,0.279679,0.155080,0.738949,0.593030,98.281232,13.261889,144.810878
20404,-2.115009,9.491701,-1.255643,-0.040418,0.181364,-0.009231,0.003184,0.026218,-0.007226,-0.021148,0.094918,-0.012552,1.000000,0.000016,0.000131,-0.000036,0.279589,0.155040,0.738978,0.593047,98.284695,13.257527,144.822337
20405,-2.235413,9.543160,-1.239123,0.060480,0.140475,0.065622,0.011895,0.014818,-0.016437,-0.022347,0.095434,-0.012384,1.000000,0.000059,0.000074,-0.000082,0.279570,0.155006,0.739027,0.593003,98.292209,13.260688,144.827674
20406,-2.129933,9.510384,-1.232671,-0.015832,0.197625,0.008931,0.012183,0.006637,-0.014741,-0.021293,0.095106,-0.012320,1.000000,0.000061,0.000033,-0.000074,0.279568,0.155008,0.739061,0.592961,98.298331,13.262191,144.828236
20407,-2.027151,9.372378,-1.239632,-0.087726,0.215857,-0.146602,-0.006287,0.015558,-0.012722,-0.020267,0.093725,-0.012398,1.000000,-0.000031,0.000078,-0.000064,0.279549,0.154961,0.739055,0.592990,98.295454,13.263184,144.833689
20408,-2.147756,9.423916,-1.221956,0.013316,0.174748,-0.071768,-0.003776,0.024907,-0.014749,-0.021472,0.094241,-0.012219,1.000000,-0.000019,0.000125,-0.000074,0.279494,0.154888,0.739066,0.593021,98.294848,13.263199,144.844673
20409,-2.115477,9.518684,-1.137613,0.027707,0.283172,0.000253,-0.006450,0.022085,-0.019414,-0.021147,0.095189,-0.011377,1.000000,-0.000032,0.000110,-0.000097,0.279471,0.154796,0.739074,0.593046,98.292881,13.267446,144.854496
20410,-2.129546,9.538030,-1.110912,0.051766,0.300100,0.018405,-0.028680,0.021144,-0.013569,-0.021290,0.095380,-0.011121,1.000000,-0.000143,0.000106,-0.000068,0.279444,0.154704,0.739005,0.593169,98.277440,13.267010,144.863258
20411,-2.261749,9.662161,-1.243908,0.062186,0.148603,0.187024,-0.061991,0.020477,-0.016463,-0.022611,0.096620,-0.012467,1.000000,-0.000310,0.000102,-0.000082,0.279462,0.154550,0.738843,0.593402,98.243378,13.269722,144.871893
20412,-2.275169,9.613226,-1.206045,0.096224,0.154097,0.137792,-0.069255,0.004067,-0.023839,-0.022740,0.096131,-0.012093,1.000000,-0.000346,0.000020,-0.000119,0.279557,0.154412,0.738639,0.593647,98.202662,13.276563,144.871979
20413,-2.159365,9.448358,-1.130814,0.060587,0.232597,-0.057930,-0.079723,0.004651,-0.026006,-0.021582,0.094482,-0.011345,1.000000,-0.000399,0.000023,-0.000130,0.279676,0.154245,0.738410,0.593920,98.156506,13.285989,144.872187
20414,-2.112957,9.231358,-1.236144,-0.022656,0.115569,-0.262989,-0.101387,0.015494,-0.030326,-0.021117,0.092311,-0.012407,1.000000,-0.000507,0.000077,-0.000152,0.279777,0.154008,0.738129,0.594282,98.098946,13.295590,144.878756
20415,-2.156335,9.089719,-1.257881,0.007716,0.034183,-0.386458,-0.066852,0.014963,-0.035872,-0.021548,0.090897,-0.012608,1.000000,-0.000334,0.000075,-0.000179,0.279876,0.153792,0.737960,0.594502,98.061732,13.309783,144.885775
20416,-2.165583,9.156073,-1.283388,-0.012023,0.022754,-0.316907,-0.037785,0.010457,-0.045756,-0.021636,0.091563,-0.012850,1.000000,-0.000189,0.000052,-0.000229,0.279993,0.153601,0.737874,0.594604,98.040260,13.328605,144.890780
20417,-2.196908,9.237003,-1.333579,-0.029420,-0.014586,-0.224884,-0.010143,0.005460,-0.040498,-0.021951,0.092374,-0.013340,1.000000,-0.000051,0.000027,-0.000202,0.280097,0.153475,0.737863,0.594600,98.034349,13.346188,144.892630
20418,-2.179262,9.281267,-1.218023,0.018507,0.100024,-0.202051,0.029173,-0.003029,-0.048165,-0.021770,0.092820,-0.012167,1.000000,0.000146,-0.000015,-0.000241,0.280219,0.153409,0.737959,0.594441,98.049478,13.367489,144.889965
20419,-2.196563,9.238827,-1.289497,-0.007334,0.027762,-0.229223,0.036029,-0.015118,-0.047194,-0.021943,0.092396,-0.012880,1.000000,0.000180,-0.000076,-0.000236,0.280384,0.153384,0.738061,0.594242,98.067376,13.390523,144.880375
20420,-2.197796,9.273765,-1.271987,-0.001180,0.054534,-0.197699,0.044990,-0.023064,-0.056474,-0.021950,0.092747,-0.012702,1.000000,0.000225,-0.000115,-0.000282,0.280590,0.153366,0.738183,0.593998,98.089066,13.418131,144.867149
20421,-2.118253,9.315345,-1.196957,-0.025414,0.175323,-0.186475,0.067088,-0.020427,-0.057320,-0.021155,0.093164,-0.011940,1.000000,0.000335,-0.000102,-0.000287,0.280781,0.153364,0.738378,0.593666,98.124232,13.447346,144.855322
20422,-2.037473,9.322773,-1.119494,-0.044532,0.290234,-0.208915,0.055480,-0.013587,-0.046092,-0.020352,0.093236,-0.011170,1.000000,0.000277,-0.000068,-0.000230,0.280915,0.153373,0.738536,0.593404,98.152972,13.468314,144.846448
20423,-2.076311,9.355662,-1.119835,-0.018138,0.281241,-0.168306,0.026166,-0.005932,-0.041194,-0.020744,0.093562,-0.011187,1.000000,0.000131,-0.000030,-0.000206,0.281036,0.153329,0.738617,0.593257,98.166344,13.487215,144.841752
20424,-2.237787,9.516800,-1.206736,0.039161,0.164979,0.036405,0.002646,-0.002565,-0.045236,-0.022356,0.095173,-0.012066,1.000000,0.000013,-0.000013,-0.000226,0.281166,0.153233,0.738633,0.593200,98.166315,13.506807,144.839527
20425,-2.263958,9.644140,-1.313805,-0.021932,0.099166,0.179845,-0.021131,-0.006077,-0.062518,-0.022609,0.096447,-0.013149,1.000000,-0.000106,-0.000030,-0.000313,0.281386,0.153045,0.738590,0.593198,98.152981,13.537813,144.836528
20426,-2.195846,9.751144,-1.284845,-0.076772,0.187187,0.262849,-0.044807,-0.002802,-0.068214,-0.021925,0.097516,-0.012871,1.000000,-0.000224,-0.000014,-0.000341,0.281620,0.152795,0.738483,0.593284,98.126213,13.570469,144.836391
20427,-2.189090,9.696579,-1.301910,-0.094645,0.162999,0.211044,-0.063378,-0.007363,-0.072768,-0.021855,0.096970,-0.013051,1.000000,-0.000317,-0.000037,-0.000364,0.281908,0.152513,0.738321,0.593422,98.088687,13.607390,144.833464
20428,-2.180042,9.539056,-1.308280,-0.097561,0.121608,0.058152,-0.075305,-0.010754,-0.073089,-0.021765,0.095394,-0.013120,1.000000,-0.000377,-0.000054,-0.000365,0.282214,0.152232,0.738114,0.593606,98.043344,13.643506,144.828107
20429,-2.125174,9.457212,-1.256151,-0.109927,0.171638,-0.040708,-0.052620,-0.009483,-0.074003,-0.021216,0.094577,-0.012587,1.000000,-0.000263,-0.000047,-0.000370,0.282505,0.151967,0.737981,0.593701,98.011696,13.681293,144.823990
20430,-2.091266,9.329735,-1.322676,-0.169546,0.106058,-0.162463,-0.030471,-0.011682,-0.063160,-0.020882,0.093302,-0.013242,1.000000,-0.000152,-0.000058,-0.000316,0.282749,0.151788,0.737898,0.593733,97.991690,13.711765,144.817411
20431,-2.084412,9.369773,-1.252052,-0.142547,0.176890,-0.135216,-0.006428,-0.011426,-0.055873,-0.020817,0.093703,-0.012525,1.000000,-0.000032,-0.000057,-0.000279,0.282959,0.151660,0.737886,0.593681,97.985877,13.739418,144.810645
20432,-2.174874,9.385022,-1.236910,-0.067333,0.143807,-0.101177,-0.001390,-0.014259,-0.051427,-0.021724,0.093856,-0.012371,1.000000,-0.000007,-0.000071,-0.000257,0.283151,0.151569,0.737878,0.593622,97.982038,13.763445,144.802339
20433,-2.240994,9.430622,-1.278537,-0.048932,0.086673,-0.036010,-0.015385,-0.011857,-0.048207,-0.022386,0.094311,-0.012794,1.000000,-0.000077,-0.000059,-0.000241,0.283346,0.151458,0.737833,0.593614,97.970875,13.786781,144.794687
20434,-2.289494,9.573144,-1.406685,-0.107393,-0.005534,0.129851,-0.015333,-0.008512,-0.049907,-0.022870,0.095736,-0.014075,1.000000,-0.000077,-0.000043,-0.000250,0.283527,0.151338,0.737790,0.593612,97.959723,13.809442,144.789093
20435,-2.236086,9.628834,-1.371157,-0.139492,0.067165,0.165821,-0.020816,-0.004197,-0.052658,-0.022335,0.096293,-0.013722,1.000000,-0.000104,-0.000021,-0.000263,0.283711,0.151181,0.737742,0.593623,97.946596,13.834693,144.786269
20436,-2.148734,9.719586,-1.345192,-0.207149,0.159347,0.228660,-0.013132,-0.004108,-0.028514,-0.021473,0.097198,-0.013459,1.000000,-0.000066,-0.000021,-0.000143,0.283806,0.151126,0.737697,0.593648,97.937000,13.844894,144.782126
20437,-2.178151,9.652472,-1.306700,-0.155470,0.155252,0.165977,-0.030686,-0.001483,-0.011547,-0.021776,0.096524,-0.013082,1.000000,-0.000153,-0.000007,-0.000058,0.283866,0.151099,0.737593,0.593756,97.917793,13.846599,144.777530
20438,-2.177109,9.583746,-1.298831,-0.144937,0.143040,0.098593,-0.007152,-0.004763,-0.007506,-0.021767,0.095838,-0.012992,1.000000,-0.000036,-0.000024,-0.000038,0.283903,0.151139,0.737547,0.593785,97.911002,13.844975,144.770122
20439,-2.122640,9.543463,-1.379956,-0.232490,0.098912,0.057659,0.000272,-0.003280,-0.010018,-0.021221,0.095436,-0.013800,1.000000,0.000001,-0.000016,-0.000050,0.283941,0.151166,0.737531,0.593780,97.909251,13.845953,144.764351
20440,-2.103506,9.597241,-1.364036,-0.244098,0.135436,0.102677,0.005173,0.005499,-0.007287,-0.021032,0.095974,-0.013637,1.000000,0.000026,0.000027,-0.000036,0.283931,0.151194,0.737535,0.593772,97.910941,13.843361,144.762933
20441,-2.174883,9.699227,-1.361399,-0.196699,0.123577,0.217496,0.017245,0.008993,-0.005331,-0.021747,0.096994,-0.013605,1.000000,0.000086,0.000045,-0.000027,0.283897,0.151226,0.737584,0.593720,97.920540,13.840711,144.763955
20442,-2.221924,9.717768,-1.330628,-0.141784,0.126361,0.242483,0.006334,0.001041,0.000949,-0.022220,0.097178,-0.013303,1.000000,0.000032,0.000005,0.000005,0.283876,0.151297,0.737580,0.593717,97.922165,13.833815,144.759570
20443,-2.186869,9.683869,-1.333916,-0.167108,0.134050,0.201960,-0.012300,0.013096,-0.000365,-0.021869,0.096838,-0.013344,1.000000,-0.000062,0.000065,-0.000002,0.283834,0.151294,0.737543,0.593784,97.915312,13.828023,144.762586
20444,-2.261302,9.610024,-1.361966,-0.115981,0.049870,0.152506,-0.012640,0.011314,0.004687,-0.022616,0.096099,-0.013624,1.000000,-0.000063,0.000057,0.000023,0.283779,0.151323,0.737494,0.593864,97.907384,13.818106,144.763766
20445,-2.204473,9.535716,-1.439756,-0.198670,0.000167,0.077864,-0.008161,0.011533,0.000847,-0.022046,0.095356,-0.014400,1.000000,-0.000041,0.000058,0.000004,0.283737,0.151334,0.737466,0.593916,97.902661,13.811751,144.765771
20446,-2.200988,9.432600,-1.431304,-0.183275,-0.017625,-0.023253,0.012987,0.013911,0.005128,-0.022013,0.094326,-0.014305,1.000000,0.000065,0.000070,0.000026,0.283648,0.151389,0.737497,0.593905,97.909850,13.801390,144.769067
20447,-2.163149,9.390068,-1.336814,-0.148825,0.068032,-0.085772,0.031017,0.015032,0.021441,-0.021643,0.093900,-0.013352,1.000000,0.000155,0.000075,0.000107,0.283502,0.151522,0.737575,0.593844,97.927661,13.783071,144.771441
20448,-2.152115,9.429060,-1.295784,-0.132059,0.116652,-0.056316,0.042815,0.011842,0.040144,-0.021541,0.094289,-0.012936,1.000000,0.000214,0.000059,0.000201,0.283296,0.151756,0.737665,0.593771,97.950976,13.753081,144.770361
20449,-2.110294,9.466491,-1.285493,-0.156704,0.157577,-0.031537,0.039202,0.018694,0.048833,-0.021127,0.094662,-0.012834,1.000000,0.000196,0.000093,0.000244,0.283049,0.151990,0.737752,0.593721,97.973448,13.718925,144.772621
20450,-2.137875,9.546183,-1.365414,-0.184335,0.097888,0.062580,0.031897,0.025623,0.054599,-0.021407,0.095458,-0.013636,1.000000,0.000159,0.000128,0.000273,0.282757,0.152221,0.737818,0.593719,97.992146,13.679647,144.778498
20451,-2.251569,9.676674,-1.432993,-0.142469,0.011631,0.224276,0.013855,0.034559,0.046549,-0.022541,0.096762,-0.014319,1.000000,0.000069,0.000173,0.000233,0.282477,0.152364,0.737853,0.593772,98.002319,13.645522,144.790187
20452,-2.242920,9.740150,-1.316227,-0.081222,0.121792,0.267602,-0.000723,0.028323,0.041552,-0.022451,0.097397,-0.013159,1.000000,-0.000004,0.000142,0.000208,0.282241,0.152495,0.737835,0.593872,98.002884,13.613421,144.798223
20453,-2.186702,9.690060,-1.320674,-0.119515,0.133761,0.206840,-0.022327,0.025742,0.032314,-0.021884,0.096896,-0.013215,1.000000,-0.000112,0.000129,0.000162,0.282064,0.152560,0.737761,0.594032,97.991378,13.588075,144.805929
20454,-2.188960,9.549114,-1.353849,-0.120279,0.066538,0.076253,-0.042117,0.030600,0.022818,-0.021903,0.095486,-0.013555,1.000000,-0.000211,0.000153,0.000114,0.281901,0.152552,0.737640,0.594262,97.968983,13.566356,144.817730
20455,-2.140300,9.417176,-1.298047,-0.109997,0.101356,-0.069657,-0.018104,0.027423,0.016826,-0.021413,0.094169,-0.012986,1.000000,-0.000091,0.000137,0.000084,0.281760,0.152561,0.737592,0.594385,97.960421,13.549669,144.827696
20456,-2.058665,9.319650,-1.253390,-0.135243,0.155692,-0.188633,-0.003198,0.025465,0.023511,-0.020599,0.093194,-0.012533,1.000000,-0.000016,0.000127,0.000118,0.281587,0.152628,0.737578,0.594468,97.959567,13.527998,144.836126
20457,-2.091656,9.214437,-1.263075,-0.099805,0.102179,-0.280855,0.017682,0.021037,0.029550,-0.020931,0.092142,-0.012620,1.000000,0.000088,0.000105,0.000148,0.281405,0.152753,0.737618,0.594473,97.970387,13.504598,144.841325
20458,-2.158234,9.282926,-1.259254,-0.047305,0.084324,-0.199828,0.033321,0.016019,0.031177,-0.021598,0.092828,-0.012575,1.000000,0.000167,0.000080,0.000156,0.281217,0.152929,0.737692,0.594424,97.988967,13.479292,144.843280
20459,-2.183753,9.424963,-1.219830,-0.014443,0.135800,-0.062403,0.013340,0.019187,0.028370,-0.021852,0.094247,-0.012190,1.000000,0.000067,0.000096,0.000142,0.281048,0.153050,0.737718,0.594441,97.997063,13.456707,144.847483
20460,-2.168921,9.466479,-1.151847,0.012909,0.206312,-0.035036,-0.008582,0.024809,0.017431,-0.021699,0.094662,-0.011520,1.000000,-0.000043,0.000124,0.000087,0.280899,0.153087,0.737691,0.594535,97.993172,13.438588,144.856122
20461,-2.166580,9.406782,-1.244445,-0.036679,0.116532,-0.080507,-0.039413,0.033364,0.012451,-0.021674,0.094064,-0.012459,1.000000,-0.000197,0.000167,0.000062,0.280766,0.153032,0.737592,0.594735,97.973265,13.423908,144.869901
20462,-2.193033,9.314904,-1.302112,-0.039995,0.028813,-0.155053,-0.048775,0.036065,0.013460,-0.021939,0.093144,-0.013040,1.000000,-0.000244,0.000180,0.000067,0.280622,0.152970,0.737463,0.594979,97.947831,13.407118,144.884676
20463,-2.264571,9.321548,-1.410921,-0.048293,-0.099898,-0.117435,-0.029539,0.034227,0.014677,-0.022655,0.093212,-0.014119,1.000000,-0.000148,0.000171,0.000073,0.280471,0.152935,0.737392,0.595146,97.933651,13.391116,144.898787
20464,-2.277730,9.618775,-1.384020,-0.052477,-0.016519,0.168363,-0.016339,0.031513,0.018236,-0.022788,0.096185,-0.013844,1.000000,-0.000082,0.000158,0.000091,0.280306,0.152951,0.737349,0.595273,97.926044,13.371944,144.910270
20465,-2.181219,9.633105,-1.251757,-0.050376,0.142564,0.142134,-0.022056,0.022457,0.022253,-0.021824,0.096327,-0.012526,1.000000,-0.000110,0.000112,0.000111,0.280170,0.152989,0.737279,0.595415,97.914414,13.352577,144.916905
20466,-2.079041,9.529424,-1.282481,-0.137969,0.145320,0.022806,-0.050358,0.025439,0.018669,-0.020801,0.095289,-0.012846,1.000000,-0.000252,0.000127,0.000093,0.280047,0.152971,0.737128,0.595665,97.886611,13.333677,144.925823
20467,-2.028432,9.234043,-1.310594,-0.163414,0.074520,-0.269759,-0.044049,0.031368,0.007941,-0.020290,0.092337,-0.013123,1.000000,-0.000220,0.000157,0.000040,0.279938,0.152899,0.737015,0.595874,97.863844,13.321738,144.938825
20468,-2.017506,9.144303,-1.352269,-0.187052,0.022916,-0.353209,-0.013439,0.042581,-0.003802,-0.020176,0.091443,-0.013525,1.000000,-0.000067,0.000213,-0.000019,0.279789,0.152799,0.737015,0.595970,97.859908,13.314207,144.959586
20469,-2.019149,9.212842,-1.359743,-0.196211,0.033396,-0.285741,0.028693,0.043718,-0.010068,-0.020190,0.092131,-0.013580,1.000000,0.000143,0.000219,-0.000050,0.279633,0.152726,0.737149,0.595895,97.880809,13.311521,144.981243
20470,-2.070939,9.289090,-1.262875,-0.101563,0.103146,-0.213214,0.069254,0.031024,0.007244,-0.020715,0.092895,-0.012593,1.000000,0.000346,0.000155,0.000036,0.279431,0.152816,0.737371,0.595692,97.922510,13.298637,144.994376
20471,-2.192124,9.468170,-1.164074,0.039992,0.161514,-0.026011,0.063401,0.015275,0.014642,-0.021929,0.094684,-0.011609,1.000000,0.000317,0.000076,0.000073,0.279279,0.152967,0.737551,0.595503,97.959013,13.284155,144.997433
20472,-2.241346,9.450249,-1.158862,0.089277,0.136638,-0.032751,0.049354,0.004310,0.011248,-0.022419,0.094504,-0.011565,1.000000,0.000247,0.000022,0.000056,0.279179,0.153124,0.737672,0.595358,97.985627,13.271085,144.994594
20473,-2.206370,9.415678,-1.165840,0.063888,0.144495,-0.073217,0.028710,0.008750,-0.008189,-0.022060,0.094159,-0.011644,1.000000,0.000144,0.000044,-0.000041,0.279146,0.153162,0.737757,0.595259,98.001805,13.270073,144.995702
20474,-2.123310,9.467500,-1.187271,-0.019591,0.187265,-0.039451,-0.003802,0.018297,-0.009720,-0.021230,0.094676,-0.011873,1.000000,-0.000019,0.000091,-0.000049,0.279099,0.153127,0.737755,0.595292,98.000187,13.267779,145.002511
20475,-2.081362,9.471989,-1.145696,-0.028744,0.244549,-0.050381,-0.003376,0.025137,-0.009821,-0.020810,0.094721,-0.011456,1.000000,-0.000017,0.000126,-0.000049,0.279034,0.153066,0.737768,0.595322,98.000204,13.266387,145.013305
20476,-2.120128,9.495461,-1.065312,0.047298,0.291003,-0.029708,-0.026808,0.026925,-0.003961,-0.021201,0.094954,-0.010663,1.000000,-0.000134,0.000135,-0.000020,0.278957,0.152995,0.737706,0.595454,97.986468,13.260243,145.024516
20477,-2.168244,9.523272,-1.130832,0.042204,0.215940,0.017082,-0.052010,0.029524,-0.011244,-0.021679,0.095231,-0.011330,1.000000,-0.000260,0.000148,-0.000056,0.278918,0.152847,0.737581,0.595664,97.959232,13.259315,145.037984
20478,-2.186137,9.480308,-1.219370,0.005586,0.121804,-0.008228,-0.048755,0.025788,-0.026562,-0.021850,0.094803,-0.012214,1.000000,-0.000244,0.000129,-0.000133,0.278925,0.152661,0.737471,0.595846,97.933255,13.266050,145.051118
20479,-2.072842,9.427369,-1.256647,-0.104867,0.140368,-0.080246,-0.037459,0.017201,-0.032721,-0.020714,0.094275,-0.012582,1.000000,-0.000187,0.000086,-0.000164,0.278984,0.152491,0.737388,0.595964,97.913110,13.278294,145.059146
20480,-2.105044,9.220384,-1.230276,-0.044527,0.092063,-0.275927,-0.020421,0.011057,-0.037848,-0.021034,0.092207,-0.012311,1.000000,-0.000102,0.000055,-0.000189,0.279062,0.152351,0.737349,0.596012,97.901542,13.292679,145.063901
20481,-2.213186,9.147884,-1.228762,0.047399,0.015912,-0.321148,-0.009357,0.007385,-0.042349,-0.022113,0.091483,-0.012291,1.000000,-0.000047,0.000037,-0.000212,0.279164,0.152214,0.737344,0.596005,97.896363,13.311164,145.066979
20482,-2.237483,9.267036,-1.236106,0.046614,0.027369,-0.199711,0.006715,0.005787,-0.054066,-0.022350,0.092677,-0.012357,1.000000,0.000034,0.000029,-0.000270,0.279286,0.152065,0.737391,0.595928,97.899984,13.335137,145.070433
20483,-2.188763,9.319859,-1.227051,0.004332,0.078141,-0.161264,0.017844,0.005466,-0.060267,-0.021860,0.093206,-0.012262,1.000000,0.000089,0.000027,-0.000301,0.279428,0.151905,0.737478,0.595794,97.910470,13.363941,145.073845
20484,-2.100734,9.340906,-1.197439,-0.053224,0.159264,-0.165342,0.011346,0.007781,-0.049596,-0.020985,0.093415,-0.011968,1.000000,0.000057,0.000039,-0.000248,0.279530,0.151778,0.737537,0.595706,97.916844,13.385223,145.077382
20485,-2.193950,9.319510,-1.205425,0.016092,0.098478,-0.163346,0.003107,0.004298,-0.047021,-0.021918,0.093200,-0.012052,1.000000,0.000016,0.000021,-0.000235,0.279648,0.151650,0.737568,0.595644,97.918484,13.406601,145.079045
20486,-2.279472,9.336907,-1.167660,0.101833,0.086862,-0.131813,-0.005423,0.000663,-0.047746,-0.022772,0.093374,-0.011679,1.000000,-0.000027,0.000003,-0.000239,0.279781,0.151524,0.737566,0.595616,97.914296,13.427379,145.078714
20487,-2.208286,9.349669,-1.231474,0.001965,0.080512,-0.127499,-0.011596,-0.002011,-0.053733,-0.022058,0.093502,-0.012320,1.000000,-0.000058,-0.000010,-0.000269,0.279953,0.151370,0.737550,0.595594,97.906783,13.453064,145.077238
20488,-2.087383,9.406007,-1.208402,-0.091118,0.181359,-0.104486,-0.011869,0.009512,-0.057131,-0.020848,0.094065,-0.012089,1.000000,-0.000059,0.000048,-0.000286,0.280084,0.151173,0.737549,0.595584,97.900315,13.478475,145.083131
20489,-2.115323,9.454173,-1.232563,-0.092925,0.159951,-0.048418,-0.017849,0.011967,-0.056514,-0.021127,0.094547,-0.012333,1.000000,-0.000089,0.000060,-0.000283,0.280218,0.150958,0.737536,0.595592,97.891172,13.504638,145.090030
20490,-2.203476,9.514545,-1.295966,-0.071967,0.076003,0.038731,-0.033784,0.016798,-0.061514,-0.022007,0.095150,-0.012974,1.000000,-0.000169,0.000084,-0.000308,0.280359,0.150698,0.737481,0.595660,97.873111,13.532024,145.099415
20491,-2.341126,9.662381,-1.332491,-0.006403,0.006677,0.218161,-0.042163,0.013225,-0.060600,-0.023383,0.096628,-0.013344,1.000000,-0.000211,0.000066,-0.000303,0.280518,0.150430,0.737400,0.595752,97.850289,13.560411,145.107364
20492,-2.319503,9.728697,-1.363586,-0.056596,0.009060,0.281058,-0.061641,0.006520,-0.066814,-0.023163,0.097290,-0.013665,1.000000,-0.000308,0.000033,-0.000334,0.280730,0.150140,0.737253,0.595909,97.815012,13.591552,145.111722
20493,-2.168502,9.715391,-1.358992,-0.181508,0.091332,0.232052,-0.077725,0.011261,-0.073485,-0.021650,0.097157,-0.013626,1.000000,-0.000389,0.000056,-0.000367,0.280962,0.149780,0.737073,0.596112,97.771788,13.627415,145.119521
20494,-2.058945,9.523515,-1.404572,-0.283297,0.065946,0.027272,-0.089494,0.019566,-0.072310,-0.020556,0.095236,-0.014086,1.000000,-0.000447,0.000098,-0.000362,0.281161,0.149389,0.736865,0.596374,97.722503,13.660695,145.132227
20495,-2.044200,9.403126,-1.390771,-0.281404,0.053064,-0.094160,-0.064948,0.026803,-0.063319,-0.020414,0.094033,-0.013936,1.000000,-0.000325,0.000134,-0.000317,0.281295,0.149038,0.736737,0.596556,97.688553,13.689604,145.148250
20496,-2.038566,9.338152,-1.332453,-0.250050,0.084999,-0.165796,-0.048779,0.030461,-0.053398,-0.020363,0.093384,-0.013344,1.000000,-0.000244,0.000152,-0.000267,0.281369,0.148744,0.736651,0.596701,97.663705,13.711317,145.165383
20497,-2.091739,9.399390,-1.401651,-0.259988,0.015400,-0.085370,-0.012461,0.029416,-0.045575,-0.020898,0.093998,-0.014019,1.000000,-0.000062,0.000147,-0.000228,0.281402,0.148525,0.736669,0.596717,97.659867,13.729963,145.181519
20498,-2.103699,9.524865,-1.337241,-0.228917,0.092428,0.029867,0.013343,0.025529,-0.038278,-0.021020,0.095254,-0.013363,1.000000,0.000067,0.000128,-0.000191,0.281399,0.148384,0.736752,0.596652,97.669754,13.743470,145.195311
20499,-2.049771,9.615100,-1.308229,-0.265280,0.170611,0.100116,0.034480,0.023032,-0.022148,-0.020489,0.096156,-0.013063,1.000000,0.000172,0.000115,-0.000111,0.281351,0.148336,0.736884,0.596523,97.691495,13.749296,145.205876
20500,-2.120399,9.647370,-1.302515,-0.207827,0.146804,0.147214,0.028273,0.023745,-0.014825,-0.021198,0.096477,-0.013009,1.000000,0.000141,0.000119,-0.000074,0.281277,0.148313,0.736990,0.596434,97.709156,13.749601,145.216026
20501,-2.262409,9.676364,-1.308634,-0.099571,0.072850,0.209678,0.031731,0.021958,-0.005169,-0.022623,0.096766,-0.013068,1.000000,0.000159,0.000110,-0.000026,0.281184,0.148327,0.737100,0.596338,97.728854,13.745863,145.224621
20502,-2.275334,9.800200,-1.270761,-0.079003,0.127897,0.327002,0.021965,0.017764,-0.004111,-0.022752,0.098004,-0.012695,1.000000,0.000110,0.000089,-0.000021,0.281102,0.148347,0.737171,0.596283,97.741989,13.740615,145.231092
20503,-2.177431,9.790772,-1.214461,-0.121217,0.225683,0.287298,0.009100,0.023898,-0.006134,-0.021773,0.097909,-0.012138,1.000000,0.000045,0.000119,-0.000031,0.281022,0.148320,0.737217,0.596270,97.749005,13.737271,145.240896
20504,-2.151767,9.778075,-1.168499,-0.112352,0.272951,0.262983,-0.014348,0.035500,-0.007080,-0.021516,0.097781,-0.011688,1.000000,-0.000072,0.000178,-0.000035,0.280913,0.148230,0.737207,0.596357,97.743755,13.732328,145.257294
20505,-2.162809,9.728353,-1.136772,-0.078689,0.278798,0.213625,-0.010578,0.032159,-0.000781,-0.021630,0.097283,-0.011369,1.000000,-0.000053,0.000161,-0.000004,0.280801,0.148171,0.737202,0.596431,97.740539,13.725309,145.271501
20506,-2.185794,9.663330,-1.076380,-0.016564,0.296506,0.148640,-0.019551,0.029974,0.000175,-0.021860,0.096632,-0.010770,1.000000,-0.000098,0.000150,0.000001,0.280695,0.148116,0.737162,0.596543,97.731385,13.716645,145.284110
20507,-2.239586,9.643371,-1.088253,0.021935,0.249803,0.143806,-0.029208,0.027553,0.009546,-0.022402,0.096431,-0.010894,1.000000,-0.000146,0.000138,0.000048,0.280583,0.148082,0.737087,0.596697,97.716660,13.704121,145.294808
20508,-2.253146,9.697342,-1.062349,0.041486,0.271901,0.195711,-0.048975,0.022367,0.006641,-0.022536,0.096970,-0.010645,1.000000,-0.000245,0.000112,0.000033,0.280507,0.148033,0.736944,0.596921,97.689476,13.692381,145.302578
20509,-2.180751,9.596279,-1.060629,-0.005211,0.283207,0.081197,-0.067063,0.017924,0.006885,-0.021812,0.095958,-0.010637,1.000000,-0.000335,0.000090,0.000034,0.280467,0.147965,0.736745,0.597203,97.651778,13.682114,145.307869
20510,-2.137104,9.471638,-1.124864,-0.065797,0.218777,-0.040673,-0.085031,0.025223,0.008698,-0.021377,0.094711,-0.011286,1.000000,-0.000425,0.000126,0.000043,0.280403,0.147866,0.736496,0.597565,97.604227,13.669001,145.316712
20511,-2.188601,9.278409,-1.142147,-0.014229,0.122817,-0.212267,-0.064766,0.022292,0.014938,-0.021894,0.092779,-0.011449,1.000000,-0.000324,0.000111,0.000075,0.280320,0.147818,0.736304,0.597853,97.568300,13.653837,145.323943
20512,-2.252585,9.209141,-1.121007,0.057416,0.082515,-0.266538,-0.025883,0.013999,0.017620,-0.022535,0.092088,-0.011220,1.000000,-0.000129,0.000070,0.000088,0.280225,0.147866,0.736209,0.598001,97.552959,13.636486,145.325953
20513,-2.226608,9.221778,-0.976802,0.121492,0.213229,-0.278911,0.015475,-0.003320,0.006758,-0.022269,0.092218,-0.009761,1.000000,0.000077,-0.000017,0.000034,0.280202,0.147976,0.736227,0.597963,97.559627,13.627902,145.318858
20514,-2.455881,9.072164,-0.800691,0.427016,0.190412,-0.391540,0.000054,-0.013362,-0.006603,-0.024555,0.090722,-0.008009,1.000000,0.000000,-0.000067,-0.000033,0.280260,0.148052,0.736190,0.597962,97.555842,13.626366,145.306952
20515,-2.477920,8.912460,-0.832575,0.443019,0.114193,-0.536055,-0.003371,-0.035005,-0.032824,-0.024763,0.089129,-0.008332,1.000000,-0.000017,-0.000175,-0.000164,0.280485,0.148086,0.736136,0.597915,97.548069,13.642649,145.284405
20516,-2.207590,9.006711,-1.060680,0.078616,0.104661,-0.479831,-0.007008,-0.041565,-0.030746,-0.022060,0.090070,-0.010615,1.000000,-0.000035,-0.000208,-0.000154,0.280728,0.148150,0.736056,0.597884,97.536735,13.657051,145.257377
20517,-1.975336,9.377832,-1.282263,-0.282328,0.146663,-0.148906,0.020038,-0.016429,-0.003665,-0.019751,0.093780,-0.012815,1.000000,0.000100,-0.000082,-0.000018,0.280780,0.148268,0.736076,0.597805,97.544396,13.655371,145.243427
20518,-2.039362,9.902616,-1.193787,-0.237954,0.308597,0.360516,0.026015,-0.000353,0.023990,-0.020405,0.099025,-0.011925,1.000000,0.000130,-0.000002,0.000120,0.280678,0.148452,0.736113,0.597762,97.556723,13.635466,145.237026
20519,-2.051013,10.096072,-1.159894,-0.226736,0.374536,0.545449,0.011363,0.000140,0.045536,-0.020533,0.100957,-0.011593,1.000000,0.000057,0.000001,0.000228,0.280529,0.148689,0.736094,0.597796,97.560805,13.604596,145.228945
20520,-1.995060,10.124554,-1.271571,-0.334587,0.319988,0.574295,0.010012,0.004687,0.067334,-0.019985,0.101239,-0.012710,1.000000,0.000050,0.000023,0.000337,0.280292,0.148998,0.736057,0.597876,97.563843,13.559716,145.221806
20521,-2.056882,10.019347,-1.275855,-0.268961,0.252490,0.488273,-0.000410,-0.001444,0.070114,-0.020604,0.100186,-0.012759,1.000000,-0.000002,-0.000007,0.000351,0.280085,0.149314,0.735983,0.597986,97.560527,13.515007,145.210895
20522,-2.366253,9.763507,-0.899212,0.234851,0.313798,0.266012,-0.025334,-0.010590,0.049403,-0.023686,0.097628,-0.009006,1.000000,-0.000127,-0.000053,0.000247,0.279981,0.149549,0.735833,0.598160,97.541616,13.481410,145.196698
20523,-2.542004,9.468652,-0.838714,0.444526,0.188294,0.015208,-0.050897,-0.041865,-0.004475,-0.025416,0.094685,-0.008417,1.000000,-0.000254,-0.000209,-0.000022,0.280183,0.149641,0.735606,0.598322,97.505229,13.482094,145.167963
20524,-2.256561,9.509737,-1.084986,0.061283,0.155955,0.019723,-0.060816,-0.042971,-0.040141,-0.022544,0.095099,-0.010884,1.000000,-0.000304,-0.000215,-0.000201,0.280497,0.149598,0.735370,0.598475,97.463088,13.501803,145.141110
20525,-1.941741,9.664476,-1.444909,-0.427090,0.076749,0.140800,-0.070421,-0.035327,-0.020840,-0.019405,0.096642,-0.014487,1.000000,-0.000352,-0.000177,-0.000104,0.280738,0.149583,0.735106,0.598691,97.416686,13.511259,145.117440
20526,-1.924712,9.903034,-1.509250,-0.511242,0.084406,0.374753,-0.091255,-0.017437,0.012938,-0.019252,0.099022,-0.015139,1.000000,-0.000456,-0.000087,0.000065,0.280821,0.149615,0.734775,0.599050,97.359680,13.498907,145.101640
20527,-1.989940,9.894269,-1.386086,-0.389028,0.132855,0.366146,-0.127109,0.002294,0.038261,-0.019918,0.098930,-0.013924,1.000000,-0.000636,0.000011,0.000191,0.280789,0.149624,0.734350,0.599584,97.284893,13.471982,145.095501
20528,-1.980760,9.654444,-1.378714,-0.366056,0.072039,0.131825,-0.144257,0.020063,0.074969,-0.019845,0.096527,-0.013855,1.000000,-0.000721,0.000100,0.000375,0.280585,0.149695,0.733867,0.600253,97.201621,13.421599,145.097428
20529,-2.047011,9.339418,-1.427780,-0.304239,-0.093653,-0.150793,-0.114213,0.034670,0.103450,-0.020521,0.093375,-0.014328,1.000000,-0.000571,0.000173,0.000517,0.280229,0.149864,0.733476,0.600855,97.137522,13.355284,145.105492
20530,-2.181140,9.057633,-1.472555,-0.185555,-0.282653,-0.386545,-0.049694,0.022287,0.111778,-0.021864,0.090560,-0.014746,1.000000,-0.000248,0.000111,0.000559,0.279836,0.150196,0.733251,0.601229,97.108127,13.283805,145.106004
20531,-2.192172,9.050852,-1.591241,-0.238118,-0.392773,-0.376343,0.015838,0.006942,0.101695,-0.021968,0.090499,-0.015904,1.000000,0.000079,0.000035,0.000508,0.279489,0.150625,0.733212,0.601330,97.114855,13.220462,145.098064
20532,-2.067811,9.164595,-1.524040,-0.301269,-0.246909,-0.302871,0.052056,0.007368,0.082945,-0.020717,0.091641,-0.015216,1.000000,0.000260,0.000037,0.000415,0.279161,0.151039,0.733294,0.601279,97.142262,13.166446,145.091891
20533,-2.023668,9.520241,-1.191815,-0.170582,0.125096,-0.009326,0.078942,0.015470,0.070140,-0.020271,0.095200,-0.011879,1.000000,0.000395,0.000077,0.000351,0.278829,0.151414,0.733480,0.601111,97.186806,13.120440,145.091188
20534,-2.082053,9.556178,-1.165180,-0.102458,0.122911,0.035536,0.052548,0.027517,0.057819,-0.020850,0.095559,-0.011624,1.000000,0.000263,0.000138,0.000289,0.278502,0.151676,0.733610,0.601039,97.217580,13.079216,145.098640
20535,-2.161671,9.408788,-1.267540,-0.074821,-0.037496,-0.076273,0.037806,0.011245,0.057703,-0.021645,0.094084,-0.012656,1.000000,0.000189,0.000056,0.000289,0.278255,0.151960,0.733676,0.601001,97.238196,13.040584,145.096340
20536,-2.151193,9.202940,-1.256080,-0.046092,-0.070843,-0.278941,0.052291,-0.019245,0.056285,-0.021537,0.092027,-0.012539,1.000000,0.000261,-0.000096,0.000281,0.278105,0.152357,0.733741,0.600891,97.262693,13.003677,145.076443
20537,-1.935044,9.253836,-1.350034,-0.273578,-0.014173,-0.266724,0.024763,0.000677,0.049065,-0.019373,0.092535,-0.013489,1.000000,0.000124,0.000003,0.000245,0.277932,0.152624,0.733759,0.600880,97.274591,12.970723,145.068594
20538,-1.861250,9.375265,-1.151766,-0.222009,0.212484,-0.190215,0.049515,0.024502,0.048090,-0.018636,0.093751,-0.011492,1.000000,0.000248,0.000123,0.000240,0.277647,0.152855,0.733883,0.600802,97.303372,12.935269,145.074871
20539,-1.972363,9.472251,-1.218548,-0.175130,0.119421,-0.063140,0.039693,0.037053,0.069027,-0.019759,0.094718,-0.012163,1.000000,0.000198,0.000185,0.000345,0.277270,0.153106,0.733981,0.600792,97.328234,12.888323,145.086711
20540,-2.105558,9.340034,-1.337645,-0.114317,-0.081799,-0.146296,0.058495,0.030124,0.093727,-0.021101,0.093394,-0.013346,1.000000,0.000292,0.000151,0.000469,0.276824,0.153505,0.734103,0.600748,97.362005,12.826477,145.092114
20541,-2.086147,9.285800,-1.391428,-0.143409,-0.127192,-0.196170,0.080232,0.009408,0.106515,-0.020912,0.092852,-0.013876,1.000000,0.000401,0.000047,0.000533,0.276404,0.154033,0.734255,0.600620,97.405862,12.760252,145.084953
20542,-1.822220,9.321756,-1.244234,-0.259753,0.142814,-0.237936,0.019249,0.003590,0.104482,-0.018271,0.093209,-0.012433,1.000000,0.000096,0.000018,0.000522,0.276050,0.154492,0.734215,0.600714,97.413635,12.694259,145.074611
20543,-1.937502,9.271393,-0.553608,0.256960,0.616525,-0.348387,0.111272,0.022311,0.073246,-0.019410,0.092710,-0.005482,1.000000,0.000556,0.000112,0.000366,0.275658,0.154902,0.734503,0.600436,97.477480,12.645984,145.077425
20544,-2.170631,9.578557,-1.218583,0.029248,0.031290,0.083953,0.082457,0.021604,0.032951,-0.021723,0.095787,-0.012144,1.000000,0.000412,0.000108,0.000165,0.275404,0.155131,0.734732,0.600213,97.524984,12.619362,145.083026
20545,-2.307247,9.369049,-1.635013,-0.076922,-0.418908,-0.035452,0.139661,-0.012543,0.028854,-0.023085,0.093699,-0.016286,1.000000,0.000698,-0.000063,0.000144,0.275251,0.155521,0.735092,0.599741,97.601390,12.598924,145.068883
20546,-2.315784,9.473182,-1.410532,0.064589,-0.209009,0.038492,0.232120,-0.030175,0.030933,-0.023170,0.094745,-0.013999,0.999999,0.001161,-0.000151,0.000155,0.275077,0.156105,0.735699,0.598924,97.728065,12.577342,145.044362
20547,-2.088173,9.464533,-1.146031,0.054442,0.141035,-0.054186,0.212805,-0.038290,0.036223,-0.020897,0.094654,-0.011364,0.999999,0.001064,-0.000191,0.000181,0.274939,0.156700,0.736236,0.598173,97.842987,12.554772,145.014580
20548,-1.831665,9.349734,-0.926783,0.006397,0.445346,-0.250625,0.238011,-0.025895,0.056645,-0.018342,0.093503,-0.009159,0.999999,0.001190,-0.000129,0.000283,0.274666,0.157372,0.736844,0.597372,97.973156,12.518393,144.990476
20549,-1.867084,9.309698,-0.989489,0.021050,0.381183,-0.273832,0.279709,-0.011503,0.083550,-0.018709,0.093103,-0.009766,0.999999,0.001399,-0.000058,0.000418,0.274235,0.158153,0.737578,0.596457,98.128953,12.466959,144.972271
20550,-1.935754,9.597198,-1.253912,-0.085056,0.217465,0.054990,0.284263,-0.004572,0.091123,-0.019401,0.095981,-0.012403,0.999999,0.001421,-0.000023,0.000456,0.273744,0.158952,0.738324,0.595547,98.287638,12.409419,144.957325
20551,-1.935718,10.095456,-1.127882,-0.033506,0.452708,0.518393,0.246807,-0.010510,0.075085,-0.019394,0.100961,-0.011155,0.999999,0.001234,-0.000053,0.000375,0.273359,0.159653,0.738964,0.594742,98.424836,12.362796,144.940145
20552,-1.975867,10.334474,-0.814191,0.180670,0.747252,0.712391,0.134239,-0.006410,0.048803,-0.019784,0.103345,-0.008073,1.000000,0.000671,-0.000032,0.000244,0.273119,0.160095,0.739293,0.594325,98.498096,12.329437,144.927696
20553,-2.074296,10.045725,-1.097365,0.123705,0.400280,0.494978,-0.008464,-0.006596,0.019282,-0.020752,0.100455,-0.010979,1.000000,-0.000042,-0.000033,0.000096,0.273089,0.160229,0.739224,0.594388,98.490547,12.314146,144.917509
20554,-2.199365,9.409094,-1.206723,0.214733,0.084631,-0.077639,-0.059160,-0.012825,0.018176,-0.022001,0.094085,-0.012096,1.000000,-0.000296,-0.000064,0.000091,0.273117,0.160312,0.738993,0.594640,98.452772,12.298651,144.904165
20555,-2.065995,9.061198,-1.239618,0.117345,0.043952,-0.437476,-0.051945,0.001607,0.002245,-0.020661,0.090609,-0.012420,1.000000,-0.000260,0.000008,0.000011,0.273142,0.160299,0.738819,0.594848,98.421643,12.292316,144.900219
20556,-2.005777,9.030296,-1.391044,-0.020410,-0.054938,-0.458493,-0.071215,0.015122,-0.000853,-0.020058,0.090298,-0.013941,1.000000,-0.000356,0.000076,-0.000004,0.273137,0.160215,0.738605,0.595139,98.380668,12.285298,144.904091
20557,-2.017430,8.958969,-1.052773,0.193904,0.183954,-0.573097,-0.049670,0.000929,0.005316,-0.020177,0.089587,-0.010550,1.000000,-0.000248,0.000005,0.000027,0.273154,0.160219,0.738434,0.595342,98.350706,12.277273,144.899499
20558,-2.157466,8.922582,-1.049299,0.311402,0.098385,-0.578972,0.047517,-0.016841,-0.009873,-0.021569,0.089229,-0.010474,1.000000,0.000238,-0.000084,-0.000049,0.273198,0.160359,0.738537,0.595157,98.373971,12.277992,144.885663
20559,-2.168041,8.920571,-1.600134,-0.006247,-0.339538,-0.500218,0.063039,-0.028976,-0.036322,-0.021662,0.089215,-0.015976,1.000000,0.000315,-0.000145,-0.000182,0.273359,0.160452,0.738694,0.594863,98.405651,12.296071,144.867281
20560,-2.076045,9.045182,-1.564556,-0.066590,-0.220087,-0.404169,0.165444,-0.036095,-0.038985,-0.020740,0.090469,-0.015574,1.000000,0.000827,-0.000180,-0.000195,0.273463,0.160700,0.739145,0.594187,98.494709,12.314977,144.845239
20561,-1.999340,9.353486,-1.424317,-0.066073,0.021283,-0.142687,0.142572,-0.042196,-0.028171,-0.019977,0.093548,-0.014181,1.000000,0.000713,-0.000211,-0.000141,0.273585,0.160971,0.739513,0.593599,98.570169,12.329606,144.818524
20562,-1.887289,9.378217,-1.185024,-0.009581,0.289771,-0.177698,0.128458,-0.047871,-0.011638,-0.018865,0.093791,-0.011795,1.000000,0.000642,-0.000239,-0.000058,0.273684,0.161306,0.739815,0.593086,98.636067,12.334221,144.786891
20563,-1.814000,9.491912,-1.268270,-0.123264,0.300020,-0.071523,0.060104,-0.026525,-0.007838,-0.018135,0.094924,-0.012657,1.000000,0.000301,-0.000133,-0.000039,0.273753,0.161492,0.739944,0.592843,98.665835,12.336036,144.767498
20564,-1.868705,9.638443,-1.180403,-0.036911,0.379257,0.068598,0.066860,-0.002284,-0.020592,-0.018677,0.096390,-0.011772,1.000000,0.000334,-0.000011,-0.000103,0.273759,0.161574,0.740132,0.592583,98.702288,12.341847,144.763282
20565,-1.920274,9.969926,-1.657448,-0.309646,0.058069,0.470053,-0.030328,0.016518,-0.046809,-0.019181,0.099701,-0.016588,1.000000,-0.000152,0.000083,-0.000234,0.273858,0.161365,0.740083,0.592655,98.686314,12.362021,144.772301
20566,-2.010578,9.764063,-1.443349,-0.096890,0.125166,0.258934,-0.030112,0.003257,-0.049961,-0.020082,0.097643,-0.014448,1.000000,-0.000151,0.000016,-0.000250,0.274010,0.161191,0.740015,0.592718,98.668356,12.383890,144.773554
20567,-2.080295,9.564658,-1.507353,-0.067659,-0.013961,0.090729,-0.036750,-0.012839,-0.050660,-0.020778,0.095649,-0.015092,1.000000,-0.000184,-0.000064,-0.000253,0.274234,0.161046,0.739909,0.592785,98.645125,12.408781,144.765875
20568,-1.968355,9.178191,-1.734582,-0.263678,-0.224754,-0.273172,-0.006398,-0.013400,-0.048991,-0.019660,0.091786,-0.017350,1.000000,-0.000032,-0.000067,-0.000245,0.274424,0.160957,0.739888,0.592748,98.638680,12.431526,144.757508
20569,-1.919125,9.069448,-1.437341,-0.116743,0.015657,-0.432389,0.094663,-0.020706,-0.035013,-0.019174,0.090705,-0.014332,1.000000,0.000473,-0.000104,-0.000175,0.274525,0.161073,0.740148,0.592345,98.689456,12.448235,144.743885
20570,-1.923291,9.128989,-1.353242,-0.064936,0.103084,-0.386453,0.119998,-0.031594,-0.027675,-0.019218,0.091301,-0.013481,1.000000,0.000600,-0.000158,-0.000138,0.274617,0.161289,0.740459,0.591854,98.752796,12.460519,144.723282
20571,-1.910443,9.170950,-1.274381,-0.026297,0.195210,-0.360632,0.182573,-0.037146,-0.039529,-0.019084,0.091725,-0.012664,1.000000,0.000913,-0.000186,-0.000198,0.274721,0.161557,0.740960,0.591105,98.851971,12.481259,144.700571
20572,-1.864204,9.560283,-1.690298,-0.339893,0.005262,0.067383,0.146269,-0.022760,-0.057442,-0.018613,0.095621,-0.016835,1.000000,0.000731,-0.000114,-0.000287,0.274847,0.161673,0.741384,0.590483,98.932049,12.509694,144.687759
20573,-1.913927,9.641215,-1.556204,-0.223027,0.117596,0.135896,0.154524,-0.019355,-0.060140,-0.019109,0.096430,-0.015489,1.000000,0.000773,-0.000097,-0.000301,0.274969,0.161774,0.741842,0.589823,99.017792,12.540575,144.677308
20574,-1.969138,9.947861,-1.744269,-0.314569,0.028882,0.472259,0.101009,0.004715,-0.061307,-0.019661,0.099493,-0.017392,1.000000,0.000505,0.000024,-0.000307,0.275042,0.161733,0.742172,0.589385,99.075450,12.568745,144.680668
20575,-1.876622,9.762139,-1.699854,-0.344250,0.078691,0.266294,0.076295,0.009690,-0.040351,-0.018747,0.097632,-0.016960,1.000000,0.000381,0.000048,-0.000202,0.275060,0.161714,0.742423,0.589065,99.119642,12.585820,144.685283
20576,-1.935193,9.650228,-1.436492,-0.126326,0.231909,0.130432,0.101448,0.014265,-0.006655,-0.019350,0.096510,-0.014315,1.000000,0.000507,0.000071,-0.000033,0.274936,0.161849,0.742723,0.588708,99.177667,12.582201,144.689098
20577,-2.096329,9.084731,-1.178422,0.210963,0.207364,-0.419706,0.121780,-0.003294,0.019686,-0.020972,0.090852,-0.011729,1.000000,0.000609,-0.000016,0.000098,0.274789,0.162153,0.743042,0.588291,99.245061,12.566503,144.680582
20578,-2.031110,8.691681,-1.133020,0.228779,0.188931,-0.820113,0.202743,-0.044055,0.024675,-0.020319,0.086926,-0.011247,0.999999,0.001014,-0.000220,0.000123,0.274703,0.162710,0.743535,0.587554,99.353217,12.550505,144.648366
20579,-1.768205,8.543385,-1.258371,-0.030162,0.216888,-1.000680,0.301802,-0.046039,0.010046,-0.017683,0.085452,-0.012459,0.999999,0.001509,-0.000230,0.000050,0.274596,0.163352,0.744329,0.586419,99.518571,12.544303,144.615965
20580,-1.998715,9.175999,-1.300495,0.096279,0.242326,-0.335504,0.405117,-0.021600,-0.015870,-0.019978,0.091788,-0.012821,0.999998,0.002026,-0.000108,-0.000079,0.274384,0.163975,0.745475,0.584887,99.746220,12.549314,144.599698
20581,-2.316895,9.853779,-1.242610,0.352998,0.317256,0.374739,0.406736,-0.049726,-0.032356,-0.023150,0.098567,-0.012231,0.999998,0.002034,-0.000249,-0.000162,0.274328,0.164611,0.746601,0.583296,99.972143,12.567644,144.569379
20582,-2.387745,10.430820,-1.066540,0.490486,0.598307,0.913086,0.324571,-0.086208,-0.040460,-0.023852,0.104330,-0.010506,0.999999,0.001623,-0.000431,-0.000202,0.274487,0.165212,0.747440,0.581975,100.146253,12.593113,144.519561
20583,-2.015020,10.519796,-0.843621,0.331615,1.026788,0.877207,0.127520,-0.092406,-0.039000,-0.020126,0.105207,-0.008378,1.000000,0.000638,-0.000462,-0.000195,0.274838,0.165565,0.747696,0.581380,100.206962,12.619674,144.465366
20584,-1.769086,10.000548,-0.725372,0.246193,1.124998,0.303663,0.017200,-0.056886,-0.028713,-0.017674,0.100009,-0.007250,1.000000,0.000086,-0.000284,-0.000144,0.275110,0.165706,0.747669,0.581247,100.208204,12.635614,144.430722
20585,-1.803005,9.449583,-1.467994,-0.139126,0.377513,-0.089592,-0.078856,-0.006960,-0.015472,-0.018022,0.094491,-0.014718,1.000000,-0.000394,-0.000035,-0.000077,0.275243,0.165614,0.747423,0.581526,100.160908,12.640257,144.423463
20586,-2.210943,9.092533,-1.866302,-0.032834,-0.264563,-0.274636,-0.023484,-0.009700,0.006378,-0.022111,0.090922,-0.018675,1.000000,-0.000117,-0.000048,0.000032,0.275272,0.165694,0.747312,0.581632,100.143969,12.631667,144.412243
20587,-2.313779,9.340612,-1.952662,-0.021810,-0.327247,0.000871,-0.025977,-0.041849,0.025897,-0.023146,0.093401,-0.019544,1.000000,-0.000130,-0.000209,0.000129,0.275372,0.165931,0.747138,0.581741,100.121630,12.616488,144.380541
20588,-2.158578,9.448475,-1.690634,0.006033,-0.011940,0.025565,-0.027051,-0.079932,0.050394,-0.021603,0.094477,-0.016928,1.000000,-0.000135,-0.000400,0.000252,0.275538,0.166374,0.746883,0.581863,100.092822,12.590108,144.324241
20589,-1.826138,9.664405,-1.429369,-0.111895,0.435399,0.115883,0.056719,-0.071611,0.041876,-0.018276,0.096644,-0.014273,1.000000,0.000284,-0.000358,0.000209,0.275633,0.166871,0.746895,0.581660,100.113786,12.568891,144.273706
20590,-1.919225,9.440939,-1.661535,-0.157977,0.143376,-0.038746,0.053842,-0.046739,0.021527,-0.019199,0.094412,-0.016594,1.000000,0.000269,-0.000234,0.000108,0.275694,0.167225,0.746944,0.581467,100.136091,12.555472,144.239059
20591,-2.129857,9.062803,-1.853013,-0.076379,-0.222802,-0.323279,0.092950,-0.054181,0.002057,-0.021294,0.090636,-0.018494,1.000000,0.000465,-0.000271,0.000010,0.275810,0.167572,0.747118,0.581088,100.180917,12.554998,144.202702
20592,-2.104955,8.806632,-1.809220,-0.046419,-0.234154,-0.582092,0.173549,-0.071049,-0.023834,-0.021033,0.088084,-0.018023,1.000000,0.000868,-0.000355,-0.000119,0.275991,0.167989,0.747520,0.580365,100.269880,12.569684,144.159222
20593,-2.094440,8.777749,-1.751165,-0.009296,-0.174527,-0.621847,0.266708,-0.072072,-0.028495,-0.020926,0.087804,-0.017402,0.999999,0.001334,-0.000360,-0.000142,0.276116,0.168514,0.748197,0.579279,100.412697,12.588384,144.115747
20594,-2.056064,9.005046,-2.116690,-0.265583,-0.351939,-0.346739,0.308904,-0.075917,-0.023699,-0.020542,0.090085,-0.021036,0.999999,0.001545,-0.000380,-0.000118,0.276199,0.169131,0.748983,0.578043,100.578623,12.603719,144.069586
20595,-1.971305,9.377300,-1.691832,-0.080896,0.153692,-0.083771,0.407914,-0.091690,0.009361,-0.019710,0.093806,-0.016736,0.999998,0.002040,-0.000458,0.000047,0.276167,0.170048,0.750005,0.576461,100.798982,12.603447,144.010784
20596,-1.847179,9.631511,-1.635213,-0.139724,0.364228,0.122087,0.311108,-0.086425,0.039216,-0.018484,0.096337,-0.016210,0.999999,0.001556,-0.000432,0.000196,0.276104,0.170933,0.750725,0.575292,100.963341,12.584727,143.951788
20597,-1.700328,9.922699,-1.932600,-0.436692,0.318436,0.424200,0.223082,-0.055877,0.063985,-0.017030,0.099243,-0.019220,0.999999,0.001115,-0.000279,0.000320,0.275936,0.171696,0.751214,0.574506,101.080994,12.550146,143.907499
20598,-1.807355,10.256013,-1.905585,-0.339406,0.382414,0.761910,0.160417,-0.024132,0.055644,-0.018100,0.102570,-0.018976,1.000000,0.000802,-0.000121,0.000278,0.275722,0.172257,0.751569,0.573976,101.166415,12.515650,143.882101
20599,-2.035792,10.325999,-1.757577,-0.061849,0.390171,0.850507,0.063179,0.005938,0.031794,-0.020375,0.103262,-0.017543,1.000000,0.000316,0.000030,0.000159,0.275552,0.172500,0.751711,0.573799,101.200977,12.492415,143.876976
20600,-2.228941,9.851903,-1.749511,0.125707,0.151146,0.436718,-0.022606,-0.012667,0.003320,-0.022290,0.098517,-0.017508,1.000000,-0.000113,-0.000063,0.000017,0.275602,0.172578,0.751602,0.573894,101.184287,12.486106,143.864236
20601,-2.162676,9.083733,-1.641044,0.181761,0.053857,-0.333844,-0.022382,-0.034936,-0.015890,-0.021617,0.090837,-0.016424,1.000000,-0.000112,-0.000175,-0.000079,0.275796,0.172642,0.751483,0.573937,101.165912,12.494213,143.841005
20602,-2.119828,8.766977,-2.126320,-0.134028,-0.384541,-0.554774,-0.022074,-0.018473,-0.024863,-0.021185,0.087670,-0.021275,1.000000,-0.000110,-0.000092,-0.000124,0.275947,0.172631,0.751392,0.573987,101.149489,12.504307,143.828218
20603,-2.039239,9.059379,-2.163457,-0.237910,-0.282441,-0.285095,0.055887,-0.023972,-0.019535,-0.020381,0.090602,-0.021612,1.000000,0.000279,-0.000120,-0.000098,0.276043,0.172758,0.751516,0.573741,101.177407,12.513241,143.811712
20604,-1.928263,9.611097,-1.873756,-0.177076,0.164095,0.164490,0.068018,-0.026976,-0.012641,-0.019274,0.096119,-0.018707,1.000000,0.000340,-0.000135,-0.000063,0.276116,0.172943,0.751660,0.573461,101.211213,12.517486,143.792327
20605,-1.761954,9.711587,-1.924590,-0.343499,0.251675,0.234308,-0.000863,-0.013671,0.000613,-0.017619,0.097116,-0.019248,1.000000,-0.000004,-0.000068,0.000003,0.276164,0.173038,0.751618,0.573465,101.207402,12.513962,143.779459
20606,-1.860932,9.402179,-1.879046,-0.221037,0.138232,-0.049139,-0.067478,0.005503,0.011702,-0.018615,0.094014,-0.018822,1.000000,-0.000337,0.000028,0.000059,0.276164,0.173036,0.751397,0.573755,101.166985,12.500976,143.775667
20607,-2.060874,8.796001,-2.168690,-0.208269,-0.375672,-0.531764,-0.048546,0.020108,0.012092,-0.020616,0.087953,-0.021706,1.000000,-0.000243,0.000101,0.000060,0.276093,0.173011,0.751255,0.573983,101.139786,12.487243,143.780950
20608,-2.319777,8.493603,-2.050867,0.088937,-0.517944,-0.787582,0.141995,-0.013488,0.010802,-0.023201,0.084949,-0.020450,1.000000,0.000710,-0.000067,0.000054,0.275985,0.173350,0.751609,0.573469,101.217017,12.476730,143.766374
20609,-2.176466,8.675312,-2.247498,-0.144711,-0.523762,-0.606494,0.211424,-0.038814,0.027839,-0.021772,0.086774,-0.022387,0.999999,0.001057,-0.000194,0.000139,0.275865,0.173912,0.752117,0.572690,101.331050,12.460738,143.735912
20610,-1.860573,9.369433,-2.312686,-0.456478,-0.179967,0.003408,0.252404,-0.042562,0.049289,-0.018624,0.093719,-0.023013,0.999999,0.001262,-0.000213,0.000246,0.275658,0.174629,0.752713,0.571787,101.467068,12.432044,143.700337
20611,-1.902013,10.337224,-1.702235,-0.081929,0.554589,0.820239,0.229740,-0.033971,0.043405,-0.019040,0.103388,-0.016907,0.999999,0.001149,-0.000170,0.000217,0.275459,0.175260,0.753264,0.570964,101.591812,12.406892,143.670767
20612,-1.964182,10.300391,-1.598393,0.045154,0.596842,0.777528,0.074477,-0.011266,0.024154,-0.019653,0.103007,-0.015947,1.000000,0.000372,-0.000056,0.000121,0.275362,0.175548,0.753415,0.570722,101.630405,12.388871,143.656012
20613,-1.983543,9.895355,-1.505950,0.140980,0.540646,0.375944,-0.013805,-0.012065,0.008938,-0.019839,0.098952,-0.015068,1.000000,-0.000069,-0.000060,0.000045,0.275392,0.175651,0.753331,0.570787,101.619191,12.380580,143.643063
20614,-2.081847,9.524950,-1.622917,0.161865,0.283711,0.065871,-0.089654,0.008354,-0.022072,-0.020809,0.095245,-0.016271,1.000000,-0.000448,0.000042,-0.000110,0.275497,0.175483,0.753081,0.571118,101.567311,12.386224,143.645033
20615,-2.040951,9.114363,-1.457181,0.246044,0.312298,-0.367985,-0.061443,0.007254,-0.052348,-0.020386,0.091144,-0.014599,1.000000,-0.000307,0.000036,-0.000262,0.275671,0.175235,0.752942,0.571294,101.532731,12.410104,143.650398
20616,-1.831945,9.134259,-1.797275,-0.136707,0.176192,-0.327374,-0.093834,-0.000301,-0.069556,-0.018288,0.091341,-0.018016,1.000000,-0.000469,-0.000002,-0.000348,0.275947,0.174906,0.752710,0.571568,101.478596,12.443432,143.653035
20617,-1.811615,9.276139,-2.118871,-0.366533,-0.021396,-0.133663,-0.083851,-0.003337,-0.040746,-0.018097,0.092756,-0.021228,1.000000,-0.000419,-0.000017,-0.000204,0.276148,0.174700,0.752481,0.571835,101.429568,12.462010,143.650917
20618,-2.050752,9.286262,-2.244028,-0.261627,-0.257103,-0.048397,-0.054179,-0.018219,-0.013996,-0.020499,0.092858,-0.022467,1.000000,-0.000271,-0.000091,-0.000070,0.276294,0.174684,0.752289,0.572021,101.394595,12.466049,143.637222
20619,-2.154526,9.029333,-1.856806,0.072247,-0.093634,-0.346718,0.085627,-0.017507,-0.000346,-0.021543,0.090301,-0.018531,1.000000,0.000428,-0.000088,-0.000002,0.276285,0.174905,0.752490,0.571694,101.439896,12.463544,143.622249
20620,-2.057028,9.289162,-1.547327,0.176648,0.278830,-0.179144,0.079900,-0.026988,-0.010922,-0.020563,0.092899,-0.015439,1.000000,0.000399,-0.000135,-0.000055,0.276341,0.175112,0.752667,0.571371,101.480573,12.466999,143.602855
20621,-1.870131,9.550129,-1.578597,-0.003536,0.440926,0.036165,-0.020546,-0.008715,-0.045349,-0.018679,0.095504,-0.015797,1.000000,-0.000103,-0.000044,-0.000227,0.276519,0.174992,0.752615,0.571389,101.467264,12.488776,143.598187
20622,-1.979308,9.526995,-1.928116,-0.138079,0.103249,0.105437,-0.070040,0.011400,-0.066429,-0.019763,0.095270,-0.019313,1.000000,-0.000350,0.000057,-0.000332,0.276722,0.174675,0.752464,0.571587,101.428078,12.518955,143.606990
20623,-2.117880,9.391169,-1.875225,0.002950,0.023497,-0.004763,-0.047116,0.007559,-0.069254,-0.021147,0.093915,-0.018774,1.000000,-0.000236,0.000038,-0.000346,0.276930,0.174382,0.752380,0.571686,101.402171,12.552307,143.614438
20624,-2.146220,9.055330,-1.888973,0.028967,-0.099582,-0.317282,-0.031713,-0.003608,-0.050807,-0.021439,0.090556,-0.018904,1.000000,-0.000159,-0.000018,-0.000254,0.277111,0.174219,0.752304,0.571748,101.382705,12.575429,143.612913
20625,-2.000676,9.264174,-1.574709,0.094154,0.286980,-0.209766,0.048364,-0.013007,-0.042423,-0.019986,0.092650,-0.015726,1.000000,0.000242,-0.000065,-0.000212,0.277237,0.174217,0.752441,0.571507,101.408252,12.596042,143.605404
20626,-1.863829,9.580985,-1.577294,-0.035718,0.456664,0.063909,-0.054411,0.004954,-0.056561,-0.018612,0.095811,-0.015799,1.000000,-0.000272,0.000025,-0.000283,0.277421,0.173976,0.752317,0.571655,101.377015,12.621436,143.609549
20627,-1.857619,9.469483,-1.954879,-0.277448,0.135387,0.028454,-0.152468,0.009588,-0.077504,-0.018540,0.094687,-0.019620,1.000000,-0.000762,0.000048,-0.000388,0.277737,0.173500,0.751941,0.572140,101.291213,12.659205,143.619073
20628,-1.889907,8.790838,-2.156916,-0.349814,-0.237998,-0.575596,-0.114667,-0.000672,-0.063670,-0.018871,0.087902,-0.021620,1.000000,-0.000573,-0.000003,-0.000318,0.278013,0.173163,0.751644,0.572499,101.224978,12.689262,143.620948
20629,-2.073334,8.259972,-2.162656,-0.183165,-0.498521,-1.042234,0.083055,-0.025114,-0.046429,-0.020711,0.082613,-0.021595,1.000000,0.000415,-0.000126,-0.000232,0.278167,0.173230,0.751867,0.572111,101.268940,12.713461,143.606865
20630,-2.300331,8.406852,-2.058635,0.057272,-0.493287,-0.870764,0.317310,-0.062727,-0.035196,-0.022982,0.084105,-0.020460,0.999999,0.001587,-0.000314,-0.000176,0.278221,0.173778,0.752693,0.570831,101.441642,12.734528,143.569705
20631,-2.152413,8.995201,-1.768476,0.106051,0.015763,-0.396619,0.562456,-0.118047,-0.036872,-0.021497,0.090005,-0.017444,0.999996,0.002812,-0.000590,-0.000184,0.278279,0.174812,0.754142,0.568569,101.748251,12.764147,143.501164
20632,-1.797079,9.683274,-1.142553,0.200377,0.937246,0.055544,0.420800,-0.098947,-0.063021,-0.017935,0.096862,-0.011231,0.999998,0.002104,-0.000495,-0.000315,0.278457,0.175503,0.755230,0.566823,101.976307,12.805389,143.446425
20633,-1.712192,9.516900,-1.942427,-0.343342,0.357007,0.037726,0.158754,-0.032709,-0.103179,-0.017070,0.095193,-0.019352,1.000000,0.000794,-0.000164,-0.000516,0.278732,0.175481,0.755704,0.566062,102.064257,12.862480,143.435251
20634,-2.109696,9.504310,-2.136067,-0.148370,-0.002807,0.153426,0.248077,-0.045544,-0.112961,-0.021038,0.095081,-0.021248,0.999999,0.001240,-0.000228,-0.000565,0.279002,0.175592,0.756416,0.564943,102.201432,12.925525,143.417318
20635,-2.462586,9.410822,-1.573686,0.488467,0.217264,0.026952,0.333308,-0.115800,-0.097994,-0.024571,0.094146,-0.015594,0.999998,0.001667,-0.000579,-0.000490,0.279422,0.176067,0.757260,0.563455,102.378582,12.989897,143.358033
20636,-2.376168,9.326870,-1.556493,0.445050,0.283563,-0.077144,0.333170,-0.156869,-0.079607,-0.023712,0.093304,-0.015428,0.999998,0.001666,-0.000784,-0.000398,0.279941,0.176733,0.758024,0.561959,102.549347,13.048245,143.272752
20637,-2.158724,9.663164,-1.768399,0.136725,0.381225,0.237186,0.313825,-0.164949,-0.075183,-0.021536,0.096667,-0.017550,0.999998,0.001569,-0.000825,-0.000376,0.280499,0.177404,0.758720,0.560529,102.708248,13.106360,143.182687
20638,-1.846044,10.019718,-1.597617,-0.007569,0.827330,0.466925,0.258155,-0.116049,-0.061790,-0.018420,0.100223,-0.015858,0.999999,0.001291,-0.000580,-0.000309,0.280878,0.177918,0.759310,0.559376,102.840638,13.149934,143.118663
20639,-1.689778,9.622810,-1.489076,-0.044157,0.888457,0.030069,-0.050495,-0.033983,-0.081577,-0.016856,0.096231,-0.014918,1.000000,-0.000252,-0.000170,-0.000408,0.281279,0.177687,0.759173,0.559434,102.808007,13.195265,143.104745
20640,-1.889020,8.853185,-2.582975,-0.553667,-0.293117,-0.419790,-0.247731,0.057274,-0.125720,-0.018842,0.088512,-0.025934,0.999999,-0.001239,0.000286,-0.000629,0.281631,0.176764,0.758645,0.560264,102.674932,13.252690,143.147965
20641,-2.542454,8.646271,-2.708861,-0.126409,-0.834520,-0.439983,0.034353,0.016873,-0.122791,-0.025374,0.086483,-0.027072,1.000000,0.000172,0.000084,-0.000614,0.281879,0.176354,0.758853,0.559987,102.698797,13.314626,143.168467
20642,-2.776545,8.320354,-2.011229,0.510194,-0.529807,-0.843771,0.383764,-0.133405,-0.081909,-0.027718,0.083253,-0.019971,0.999998,0.001919,-0.000667,-0.000410,0.282270,0.177018,0.759786,0.558314,102.901251,13.371613,143.097187
20643,-2.422133,8.299141,-1.990036,0.262442,-0.280367,-0.949557,0.530444,-0.216940,-0.055147,-0.024177,0.083051,-0.019706,0.999996,0.002652,-0.001085,-0.000276,0.282776,0.178216,0.760985,0.556038,103.176316,13.425891,142.974938
20644,-1.783141,9.172285,-1.960400,-0.232850,0.433019,-0.277927,0.535943,-0.190799,-0.044644,-0.017792,0.091779,-0.019375,0.999996,0.002680,-0.000954,-0.000223,0.283144,0.179395,0.762217,0.553780,103.457069,13.470402,142.865979
20645,-1.653196,9.904995,-1.925213,-0.322162,0.807362,0.375184,0.337958,-0.085292,-0.059308,-0.016494,0.099087,-0.019092,0.999998,0.001690,-0.000426,-0.000297,0.283329,0.179937,0.763063,0.552342,103.639490,13.510384,142.820168
20646,-1.942297,10.173061,-2.279736,-0.322169,0.486695,0.775995,0.187592,-0.029969,-0.077647,-0.019380,0.101759,-0.022705,0.999999,0.000938,-0.000150,-0.000388,0.283484,0.180049,0.763584,0.551505,103.743309,13.552217,142.808476
20647,-2.481740,9.683988,-2.391060,0.048243,-0.052321,0.465966,0.197940,-0.058130,-0.089340,-0.024767,0.096875,-0.023822,0.999999,0.000990,-0.000291,-0.000447,0.283773,0.180203,0.764107,0.550582,103.850116,13.605390,142.782597
20648,-2.607945,9.233381,-1.962955,0.439229,0.065235,-0.029403,0.309760,-0.125806,-0.085148,-0.026028,0.092375,-0.019503,0.999999,0.001549,-0.000629,-0.000426,0.284205,0.180725,0.764831,0.549180,104.011100,13.664508,142.716971
20649,-2.210943,9.227868,-2.152183,0.021972,0.184642,-0.084427,0.330667,-0.150751,-0.061825,-0.022065,0.092321,-0.021386,0.999998,0.001653,-0.000754,-0.000309,0.284651,0.181426,0.765559,0.547702,104.180497,13.715445,142.634439
20650,-1.940866,9.829506,-2.197696,-0.221874,0.541011,0.428113,0.385715,-0.143973,-0.033903,-0.019376,0.098341,-0.021801,0.999998,0.001929,-0.000720,-0.000170,0.284941,0.182300,0.766415,0.546063,104.380816,13.749169,142.551475
20651,-2.071702,10.398391,-2.230008,-0.143521,0.661105,1.000901,0.304439,-0.113128,-0.028904,-0.020689,0.104021,-0.022153,0.999999,0.001522,-0.000566,-0.000145,0.285175,0.182985,0.767089,0.544762,104.539116,13.776968,142.485894
20652,-2.201164,10.334258,-2.003411,0.109992,0.745952,0.915179,0.082658,-0.071633,-0.044895,-0.021981,0.103356,-0.019999,1.000000,0.000413,-0.000358,-0.000224,0.285493,0.183186,0.767228,0.544333,104.575989,13.806743,142.446104
20653,-2.217722,9.722432,-2.287740,-0.051099,0.316837,0.413489,-0.257449,-0.001894,-0.084784,-0.022136,0.097204,-0.023003,0.999999,-0.001287,-0.000009,-0.000424,0.285966,0.182552,0.766581,0.545208,104.429439,13.849626,142.452326
20654,-2.156729,9.376564,-3.092022,-0.621550,-0.370367,0.267415,-0.308416,0.056475,-0.089370,-0.021534,0.093727,-0.031059,0.999999,-0.001542,0.000282,-0.000447,0.286270,0.181675,0.765876,0.546331,104.261192,13.885686,142.492065
20655,-2.553429,9.358035,-3.088687,-0.327368,-0.619489,0.343191,-0.054849,0.002054,-0.045573,-0.025513,0.093578,-0.030912,1.000000,-0.000274,0.000010,-0.000228,0.286437,0.181470,0.765750,0.546489,104.229859,13.906264,142.494654
20656,-2.753011,9.111108,-2.613784,0.137511,-0.466665,0.045635,0.193581,-0.122446,-0.013288,-0.027508,0.091138,-0.026066,0.999999,0.000968,-0.000612,-0.000066,0.286763,0.182093,0.766089,0.545634,104.322004,13.925473,142.420817
20657,-2.072154,9.153627,-2.404480,-0.246913,0.118503,-0.128205,0.221576,-0.171088,0.010612,-0.020706,0.091562,-0.023961,0.999999,0.001108,-0.000855,0.000053,0.287187,0.182971,0.766417,0.544656,104.423242,13.939486,142.316210
20658,-1.299770,9.505176,-2.513969,-0.912480,0.627176,0.042861,0.129481,-0.080676,0.047425,-0.013010,0.095065,-0.025083,1.000000,0.000647,-0.000403,0.000237,0.287243,0.183618,0.766586,0.544171,104.482388,13.919182,142.257747
20659,-1.344303,9.841213,-2.666691,-0.975203,0.607596,0.407276,0.087870,0.008495,0.091724,-0.013489,0.098418,-0.026623,1.000000,0.000439,0.000042,0.000459,0.286880,0.184127,0.766732,0.543985,104.528860,13.862666,142.243816
20660,-2.167608,9.813588,-2.768571,-0.393426,0.034561,0.604319,0.094593,0.010819,0.108977,-0.021731,0.098137,-0.027638,1.000000,0.000473,0.000054,0.000545,0.286448,0.184710,0.766880,0.543806,104.578416,13.794995,142.228518
20661,-2.751380,9.575978,-2.676832,0.139122,-0.321652,0.498084,0.244077,-0.031842,0.120419,-0.027567,0.095776,-0.026656,0.999999,0.001220,-0.000159,0.000602,0.286017,0.185662,0.767365,0.543024,104.707893,13.728447,142.187154
20662,-2.573223,9.713508,-2.259898,0.290566,0.147862,0.481703,0.320981,-0.073526,0.111014,-0.025778,0.097157,-0.022453,0.999998,0.001605,-0.000368,0.000555,0.285693,0.186807,0.768002,0.541900,104.875624,13.672088,142.123034
20663,-1.995987,9.636196,-2.258537,-0.131831,0.475690,0.271834,0.082037,-0.034404,0.065059,-0.019987,0.096365,-0.022549,1.000000,0.000410,-0.000172,0.000325,0.285573,0.187321,0.768093,0.541657,104.913903,13.636748,142.088319
20664,-1.744935,9.542160,-3.129905,-0.882540,-0.048182,0.341754,-0.245341,0.084587,-0.005920,-0.017460,0.095384,-0.031409,0.999999,-0.001227,0.000423,-0.000030,0.285488,0.186779,0.767529,0.542687,104.782639,13.622080,142.131958
20665,-2.180366,9.409041,-3.009309,-0.477259,-0.282013,0.288435,-0.155705,0.095312,-0.015723,-0.021811,0.094069,-0.030156,1.000000,-0.000779,0.000477,-0.000079,0.285311,0.186291,0.767236,0.543362,104.705013,13.612496,142.183418
20666,-2.683306,8.353122,-2.879902,0.016311,-0.852599,-0.618046,0.038838,0.008105,0.023646,-0.026844,0.083534,-0.028782,1.000000,0.000194,0.000041,0.000118,0.285173,0.186476,0.767307,0.543271,104.725287,13.592600,142.179089
20667,-2.590042,7.809273,-2.555786,0.175299,-0.739054,-1.230838,0.290370,-0.089040,0.078266,-0.025920,0.078120,-0.025456,0.999999,0.001452,-0.000445,0.000391,0.285031,0.187485,0.767874,0.542196,104.875221,13.557885,142.111322
20668,-1.957068,8.246320,-2.312935,-0.141222,-0.017749,-1.028543,0.447696,-0.110623,0.133680,-0.019613,0.082502,-0.022956,0.999997,0.002238,-0.000553,0.000668,0.284665,0.188995,0.768778,0.540580,105.110138,13.494673,142.022785
20669,-1.676902,9.435452,-2.210218,-0.275812,0.657003,-0.003666,0.479420,-0.055932,0.172996,-0.016845,0.094393,-0.021881,0.999997,0.002397,-0.000280,0.000865,0.283959,0.190547,0.769807,0.538940,105.369445,13.403110,141.958930
20670,-1.953601,10.462318,-2.181284,-0.017694,0.889566,1.015186,0.385777,-0.003098,0.178601,-0.019629,0.104647,-0.021611,0.999998,0.001929,-0.000015,0.000893,0.283116,0.191849,0.770647,0.537720,105.581489,13.299571,141.923734
20671,-2.243874,10.488594,-2.408181,0.093176,0.573313,1.164902,0.208869,0.034621,0.158585,-0.022526,0.104893,-0.023968,0.999999,0.001044,0.000173,0.000793,0.282356,0.192716,0.771083,0.537183,105.698148,13.202407,141.912893
20672,-2.195114,10.209578,-2.331993,0.126396,0.558190,0.872097,-0.007565,0.069088,0.113478,-0.022017,0.102082,-0.023316,1.000000,-0.000038,0.000345,0.000567,0.281785,0.193017,0.771026,0.537457,105.696432,13.123510,141.928604
20673,-2.003010,9.983295,-2.128065,0.115173,0.728110,0.563413,-0.170852,0.093485,0.058905,-0.020069,0.099809,-0.021357,0.999999,-0.000854,0.000467,0.000295,0.281432,0.192806,0.770621,0.538299,105.606693,13.072244,141.966912
20674,-2.011307,9.724863,-2.395825,-0.058094,0.416220,0.394251,-0.354079,0.114591,0.027654,-0.020140,0.097203,-0.024119,0.999998,-0.001770,0.000573,0.000138,0.281251,0.192165,0.769776,0.539829,105.415342,13.033927,142.022136
20675,-2.289949,8.985048,-2.561504,0.041808,-0.149744,-0.194369,-0.256289,0.061981,0.007422,-0.022911,0.089817,-0.025723,0.999999,-0.001281,0.000310,0.000037,0.281239,0.191720,0.769143,0.540895,105.274443,13.016085,142.050859
20676,-2.364967,8.213514,-2.518235,0.123281,-0.444378,-0.914165,-0.217953,0.025013,-0.007816,-0.023650,0.082109,-0.025269,0.999999,-0.001090,0.000125,-0.000039,0.281366,0.191375,0.768571,0.541763,105.150864,13.011121,142.060904
20677,-2.401252,7.266012,-3.015711,-0.165528,-1.159433,-1.671203,-0.117856,0.013536,-0.031128,-0.024003,0.072646,-0.030198,1.000000,-0.000589,0.000068,-0.000156,0.281512,0.191107,0.768279,0.542196,105.084430,13.021952,142.068108
20678,-2.086614,7.698572,-2.801674,-0.277613,-0.669534,-1.389743,0.072088,-0.006873,-0.029230,-0.020854,0.076999,-0.027990,1.000000,0.000360,-0.000034,-0.000146,0.281542,0.191174,0.768469,0.541888,105.123780,13.033637,142.063427
20679,-2.034818,8.170245,-2.679844,-0.238345,-0.381421,-0.988140,0.192068,-0.018125,0.021480,-0.020355,0.081726,-0.026722,1.000000,0.000960,-0.000091,0.000107,0.281370,0.191630,0.768922,0.541173,105.229047,13.020119,142.044573
20680,-2.100087,8.552084,-2.471051,-0.041649,-0.124126,-0.667340,0.340984,-0.057290,0.074495,-0.021026,0.085555,-0.024571,0.999998,0.001705,-0.000286,0.000372,0.281053,0.192609,0.769668,0.539928,105.412480,12.981982,141.995384
20681,-1.991028,9.144735,-2.158122,0.097715,0.391839,-0.216613,0.430481,-0.085143,0.120714,-0.019956,0.091481,-0.021393,0.999997,0.002152,-0.000426,0.000604,0.280640,0.193962,0.770571,0.538369,105.642344,12.924074,141.922871
20682,-1.998605,9.609291,-2.154872,0.137662,0.572841,0.218720,0.428851,-0.072587,0.143069,-0.020047,0.096125,-0.021350,0.999997,0.002144,-0.000363,0.000715,0.280112,0.195370,0.771458,0.536862,105.871656,12.850988,141.853540
20683,-1.964641,10.329418,-1.989377,0.249331,0.980405,0.840522,0.274850,-0.046991,0.116922,-0.019702,0.103310,-0.019756,0.999999,0.001374,-0.000235,0.000585,0.279711,0.196386,0.771993,0.535930,106.017345,12.789680,141.802802
20684,-2.012708,10.544814,-2.199775,0.167571,0.879361,1.108931,-0.007634,0.011066,0.054008,-0.020157,0.105442,-0.022001,1.000000,-0.000038,0.000055,0.000270,0.279526,0.196613,0.771911,0.536062,106.010256,12.752751,141.794861
20685,-1.980595,10.649713,-2.066941,0.224640,1.019407,1.165550,-0.202481,0.040562,-0.007379,-0.019806,0.106477,-0.020773,0.999999,-0.001012,0.000203,-0.000037,0.279589,0.196247,0.771410,0.536883,105.897860,12.746139,141.813649
20686,-2.053944,10.161463,-2.229953,0.153397,0.664661,0.769432,-0.431344,0.076005,-0.067397,-0.020514,0.101573,-0.022511,0.999998,-0.002157,0.000380,-0.000337,0.279894,0.195239,0.770398,0.538542,105.660418,12.766079,141.861938
20687,-2.200770,9.324146,-2.586613,0.003581,-0.001553,0.110690,-0.545001,0.066878,-0.111123,-0.021965,0.093183,-0.026113,0.999996,-0.002725,0.000334,-0.000556,0.280467,0.193921,0.769108,0.540560,105.358703,12.812853,141.911978
20688,-2.183736,8.522115,-2.760709,-0.153399,-0.422683,-0.603220,-0.517315,0.044832,-0.132964,-0.021787,0.085164,-0.027823,0.999996,-0.002587,0.000224,-0.000665,0.281149,0.192622,0.767874,0.542422,105.070324,12.874084,141.952579
20689,-2.111178,7.952605,-2.632839,-0.151633,-0.501464,-1.189561,-0.341652,0.014795,-0.130329,-0.021062,0.079495,-0.026463,0.999998,-0.001708,0.000074,-0.000652,0.281774,0.191654,0.767072,0.543574,104.879170,12.939653,141.975534
20690,-1.929053,7.909437,-2.540109,-0.252080,-0.351379,-1.295319,-0.200670,-0.003559,-0.114363,-0.019245,0.079080,-0.025481,0.999999,-0.001003,-0.000018,-0.000572,0.282283,0.191002,0.766606,0.544196,104.765463,12.997864,141.985509
20691,-2.082098,7.655295,-2.618962,-0.192704,-0.588900,-1.481199,-0.028718,-0.023173,-0.064386,-0.020793,0.076556,-0.026203,1.000000,-0.000144,-0.000116,-0.000322,0.282575,0.190832,0.766535,0.544204,104.746506,13.032522,141.976748
20692,-2.237022,7.882900,-2.516954,-0.010771,-0.524323,-1.256731,0.210575,-0.077746,-0.010784,-0.022356,0.078857,-0.025095,0.999999,0.001053,-0.000389,-0.000054,0.282694,0.191358,0.766984,0.543324,104.855454,13.044305,141.928945
20693,-2.112006,8.461583,-2.475279,-0.073369,-0.203919,-0.749636,0.419623,-0.102763,0.025073,-0.021118,0.084665,-0.024586,0.999998,0.002098,-0.000514,0.000125,0.282618,0.192380,0.767932,0.541662,105.080131,13.041256,141.861506
20694,-2.080757,9.325862,-2.491560,-0.095922,0.122147,0.060757,0.354750,-0.070308,0.019276,-0.020808,0.093301,-0.024757,0.999998,0.001774,-0.000352,0.000096,0.282488,0.193205,0.768749,0.540275,105.271527,13.035613,141.813231
20695,-2.009710,10.237397,-2.242963,0.018750,0.677879,0.836923,0.231151,-0.046511,-0.020023,-0.020082,0.102402,-0.022316,0.999999,0.001156,-0.000233,-0.000100,0.282498,0.193634,0.769305,0.539324,105.396997,13.049379,141.784692
20696,-2.059641,10.504483,-2.227860,0.065622,0.757870,1.094694,-0.099145,0.013410,-0.070728,-0.020561,0.105041,-0.022329,1.000000,-0.000496,0.000067,-0.000354,0.282726,0.193244,0.769101,0.539635,105.342341,13.080940,141.798109
20697,-2.054710,9.850317,-2.516401,-0.135304,0.319101,0.553733,-0.259780,0.049118,-0.099834,-0.020504,0.098481,-0.025287,0.999999,-0.001299,0.000246,-0.000499,0.283058,0.192414,0.768544,0.540551,105.201600,13.124357,141.836184
20698,-2.179140,9.385587,-2.352628,0.047943,0.188594,0.103705,-0.285958,0.070626,-0.112510,-0.021747,0.093834,-0.023653,0.999999,-0.001430,0.000353,-0.000563,0.283359,0.191445,0.767954,0.541574,105.048686,13.170515,141.888318
20699,-2.217245,9.008663,-2.283064,0.104522,0.074232,-0.259255,-0.261591,0.044899,-0.123130,-0.022122,0.090070,-0.022943,0.999999,-0.001308,0.000224,-0.000616,0.283770,0.190534,0.767406,0.542458,104.907182,13.227641,141.927323
20700,-2.116107,8.916166,-2.313656,-0.013093,0.069076,-0.361553,-0.268271,0.043390,-0.127201,-0.021109,0.089144,-0.023252,0.999999,-0.001341,0.000217,-0.000636,0.284198,0.189606,0.766836,0.543364,104.761438,13.286262,141.965956
20701,-2.026561,8.705191,-2.240300,-0.050337,0.094517,-0.598852,-0.208439,0.082652,-0.120894,-0.020222,0.087041,-0.022485,0.999999,-0.001042,0.000413,-0.000604,0.284407,0.188675,0.766480,0.544080,104.655275,13.336834,142.025869
20702,-2.135571,9.096365,-2.445476,-0.123024,0.003675,-0.155064,-0.201446,0.088720,-0.124201,-0.021310,0.090952,-0.024537,0.999999,-0.001007,0.000444,-0.000621,0.284586,0.187730,0.766151,0.544776,104.553735,13.387240,142.089818
20703,-1.934602,9.601363,-2.278263,-0.200620,0.403513,0.233019,-0.278635,0.110533,-0.107213,-0.019307,0.095992,-0.022906,0.999999,-0.001393,0.000553,-0.000536,0.284716,0.186675,0.765628,0.545805,104.410628,13.426458,142.163433
20704,-2.161561,9.694511,-2.120939,0.049129,0.396093,0.335952,-0.343386,0.124724,-0.106896,-0.021577,0.096920,-0.021362,0.999998,-0.001717,0.000624,-0.000534,0.284844,0.185495,0.764943,0.547099,104.231929,13.462601,142.244981
20705,-2.169696,9.737404,-2.244993,-0.054996,0.289616,0.408738,-0.486539,0.137265,-0.130106,-0.021649,0.097333,-0.022672,0.999997,-0.002433,0.000686,-0.000651,0.285125,0.183982,0.763905,0.548912,103.974074,13.511281,142.336915
20706,-2.280679,9.817464,-2.167707,0.039685,0.276051,0.492896,-0.526554,0.151107,-0.167592,-0.022741,0.098136,-0.021918,0.999996,-0.002633,0.000756,-0.000838,0.285485,0.182235,0.762801,0.550838,103.695935,13.578192,142.441740
20707,-2.462871,9.612726,-2.166633,0.146862,0.072249,0.342977,-0.525739,0.097597,-0.193766,-0.024546,0.096094,-0.021907,0.999996,-0.002629,0.000488,-0.000969,0.286124,0.180530,0.761645,0.552665,103.412448,13.668511,142.519303
20708,-2.311925,9.545758,-1.906413,0.153554,0.301550,0.186619,-0.588173,0.092901,-0.210342,-0.023028,0.095425,-0.019334,0.999995,-0.002941,0.000465,-0.001052,0.286873,0.178689,0.760315,0.554702,103.092698,13.767883,142.596046
20709,-2.224161,9.456806,-2.108440,-0.086303,0.142386,0.126910,-0.608474,0.095198,-0.216831,-0.022149,0.094527,-0.021361,0.999995,-0.003042,0.000476,-0.001084,0.287653,0.176781,0.758933,0.556798,102.762236,13.872209,142.674318
20710,-2.213765,9.357180,-2.267142,-0.236560,-0.034722,0.063551,-0.592482,0.105997,-0.202095,-0.022055,0.093526,-0.022937,0.999995,-0.002962,0.000530,-0.001010,0.288329,0.174925,0.757587,0.558864,102.441469,13.966252,142.756243
20711,-2.237145,9.314925,-2.002757,-0.092226,0.103931,-0.026771,-0.535644,0.082876,-0.181173,-0.022295,0.093115,-0.020268,0.999996,-0.002678,0.000414,-0.000906,0.288988,0.173288,0.756344,0.560714,102.149907,14.052951,142.821795
20712,-2.171625,9.230178,-2.004603,-0.179273,0.084135,-0.122943,-0.543200,0.100040,-0.169890,-0.021648,0.092265,-0.020286,0.999996,-0.002716,0.000500,-0.000849,0.289548,0.171638,0.755087,0.562624,101.855680,14.130579,142.895446
20713,-2.221211,9.097746,-2.151977,-0.264244,-0.127387,-0.208131,-0.547564,0.108258,-0.163672,-0.022149,0.090936,-0.021757,0.999996,-0.002738,0.000541,-0.000818,0.290067,0.169976,0.753820,0.564557,101.560330,14.205156,142.972711
20714,-2.273668,8.962513,-2.327346,-0.360056,-0.360824,-0.291514,-0.475783,0.081739,-0.142668,-0.022682,0.089586,-0.023477,0.999997,-0.002379,0.000409,-0.000713,0.290557,0.168576,0.752690,0.566229,101.301275,14.270114,143.031802
20715,-2.177827,8.923435,-1.953081,-0.224526,-0.056998,-0.424854,-0.330284,0.073023,-0.115175,-0.021734,0.089214,-0.019670,0.999998,-0.001651,0.000365,-0.000576,0.290885,0.167510,0.751937,0.567378,101.124009,14.322005,143.082432
20716,-2.142232,9.434871,-1.714974,-0.165828,0.278037,0.007812,-0.326265,0.065855,-0.083741,-0.021389,0.094330,-0.017297,0.999999,-0.001631,0.000329,-0.000419,0.291141,0.166593,0.751152,0.568555,100.946622,14.356069,143.125020
20717,-2.341963,9.919495,-1.778446,-0.111408,0.239314,0.530151,-0.272474,0.051518,-0.068658,-0.023390,0.099179,-0.017914,0.999999,-0.001362,0.000258,-0.000343,0.291367,0.165846,0.750488,0.569533,100.798078,14.384401,143.157666
20718,-2.556430,10.126946,-1.695471,0.069009,0.222685,0.766093,-0.243252,0.009843,-0.089647,-0.025520,0.101260,-0.017077,0.999999,-0.001216,0.000049,-0.000448,0.291778,0.165186,0.749860,0.570341,100.660403,14.427798,143.168412
20719,-2.271594,10.267708,-1.567974,-0.111400,0.507966,0.806820,-0.372721,0.032891,-0.139423,-0.022647,0.102663,-0.015867,0.999998,-0.001864,0.000164,-0.000697,0.292357,0.164080,0.748939,0.571573,100.453646,14.498117,143.197747
20720,-2.196052,10.216956,-1.957466,-0.449390,0.211451,0.807743,-0.577588,0.098092,-0.184655,-0.021876,0.102133,-0.019859,0.999995,-0.002888,0.000490,-0.000923,0.292981,0.162322,0.747556,0.573562,100.139845,14.586251,143.269612
20721,-2.350471,9.671515,-1.915924,-0.299924,-0.042080,0.318534,-0.640869,0.125335,-0.176659,-0.023431,0.096674,-0.019454,0.999994,-0.003204,0.000627,-0.000883,0.293536,0.160416,0.746021,0.575809,99.793927,14.668705,143.355950
20722,-2.312785,8.902547,-1.960723,-0.323741,-0.311590,-0.418720,-0.581207,0.070368,-0.139753,-0.023073,0.088984,-0.019858,0.999995,-0.002906,0.000352,-0.000699,0.294131,0.158897,0.744536,0.577844,99.472720,14.734892,143.406120
20723,-2.229852,8.844615,-1.648573,-0.220857,-0.073026,-0.546458,-0.456681,0.053999,-0.064499,-0.022274,0.088415,-0.016682,0.999997,-0.002283,0.000270,-0.000322,0.294476,0.157883,0.743325,0.579503,99.218922,14.761474,143.439081
20724,-2.355065,8.808856,-1.888503,-0.290344,-0.364630,-0.512612,-0.292004,0.016047,-0.028600,-0.023540,0.088064,-0.019012,0.999999,-0.001460,0.000080,-0.000143,0.294721,0.157360,0.742501,0.580577,99.052518,14.770176,143.446316
20725,-2.247075,9.276243,-1.544839,-0.227045,0.072079,-0.146883,-0.245479,0.023691,-0.019458,-0.022464,0.092746,-0.015560,0.999999,-0.001227,0.000118,-0.000097,0.294880,0.156911,0.741818,0.581490,98.914114,14.774180,143.457200
20726,-2.272695,9.506562,-1.500372,-0.216851,0.139544,0.072881,-0.170952,0.036993,-0.022154,-0.022719,0.095055,-0.015081,1.000000,-0.000855,0.000185,-0.000111,0.294931,0.156528,0.741370,0.582139,98.820092,14.777380,143.476161
20727,-2.407457,10.026417,-1.124765,0.052162,0.481928,0.548538,-0.156658,0.021327,-0.032052,-0.024060,0.100259,-0.011324,1.000000,-0.000783,0.000107,-0.000160,0.295065,0.156170,0.740950,0.582701,98.732514,14.788760,143.486784
20728,-2.270489,9.970154,-1.569756,-0.340680,0.183684,0.525268,-0.348859,0.035228,-0.051459,-0.022682,0.099680,-0.015867,0.999998,-0.001744,0.000176,-0.000257,0.295347,0.155422,0.740001,0.583963,98.536860,14.808773,143.507170
20729,-2.194651,10.205288,-1.050746,-0.131544,0.664461,0.656769,-0.407489,0.082481,-0.067536,-0.021916,0.102039,-0.010706,0.999998,-0.002037,0.000412,-0.000338,0.295552,0.154383,0.738964,0.585446,98.315516,14.835193,143.556659
20730,-2.594209,9.771200,-1.430199,-0.036678,-0.008375,0.397606,-0.558800,0.075843,-0.090557,-0.025903,0.097683,-0.014565,0.999996,-0.002794,0.000379,-0.000453,0.295958,0.153059,0.737484,0.587451,98.006608,14.874317,143.604112
20731,-2.634397,9.292097,-1.323358,0.084262,-0.108239,-0.065102,-0.463581,0.047878,-0.105271,-0.026298,0.092904,-0.013443,0.999997,-0.002318,0.000239,-0.000526,0.296441,0.151897,0.736252,0.589053,97.748690,14.925328,143.636098
20732,-2.531823,9.145226,-1.113266,0.121536,0.048126,-0.259289,-0.420383,0.010156,-0.098498,-0.025274,0.091441,-0.011324,0.999998,-0.002102,0.000051,-0.000492,0.297002,0.150940,0.735079,0.590479,97.509323,14.974297,143.645308
20733,-2.215996,9.277399,-1.270905,-0.268475,0.112343,-0.194417,-0.451989,-0.005897,-0.085080,-0.022120,0.092754,-0.012919,0.999997,-0.002260,-0.000029,-0.000425,0.297611,0.150027,0.733779,0.592020,97.249401,15.018058,143.643678
20734,-2.109323,9.544063,-1.099574,-0.312481,0.342964,0.012383,-0.477815,0.032903,-0.067764,-0.021063,0.095421,-0.011220,0.999997,-0.002389,0.000165,-0.000339,0.298039,0.149030,0.732438,0.593715,96.979708,15.047977,143.663273
20735,-2.482585,9.476701,-1.152282,-0.078679,0.036110,0.050939,-0.554562,0.078567,-0.085307,-0.024790,0.094745,-0.011776,0.999996,-0.002773,0.000393,-0.000427,0.298413,0.147711,0.730950,0.595688,96.673839,15.086098,143.710982
20736,-2.716765,8.935487,-1.190076,0.122613,-0.295410,-0.403248,-0.510202,0.068314,-0.092546,-0.027130,0.089337,-0.012119,0.999997,-0.002551,0.000342,-0.000463,0.298804,0.146467,0.729575,0.597482,96.391523,15.128006,143.752994
20737,-2.732961,8.891647,-0.278459,0.671969,0.375595,-0.538243,-0.298615,0.016701,-0.085654,-0.027292,0.088924,-0.002915,0.999999,-0.001493,0.000084,-0.000428,0.299213,0.145712,0.728750,0.598467,96.222745,15.170635,143.763884
20738,-2.813831,9.321309,-0.199291,0.698632,0.479241,-0.110814,-0.271388,-0.016384,-0.098977,-0.028092,0.093224,-0.002122,0.999999,-0.001357,-0.000082,-0.000495,0.299755,0.145053,0.727962,0.599314,96.064320,15.221768,143.756109
20739,-2.424535,9.748543,-1.066221,-0.225802,0.100219,0.286228,-0.455488,-0.009870,-0.119993,-0.024186,0.097475,-0.010885,0.999997,-0.002277,-0.000049,-0.000600,0.300476,0.144017,0.726648,0.600797,95.802031,15.285607,143.753128
20740,-1.816424,10.521137,-0.888241,-0.745399,0.737089,0.849561,-0.512736,0.091917,-0.122389,-0.018104,0.105199,-0.009144,0.999996,-0.002564,0.000460,-0.000612,0.300866,0.142584,0.725309,0.602559,95.522445,15.343873,143.810294
20741,-2.291061,10.711910,-1.148619,-0.613361,0.258896,1.181379,-0.791069,0.145708,-0.141125,-0.022844,0.107089,-0.011893,0.999992,-0.003955,0.000729,-0.000706,0.301320,0.140496,0.723219,0.605327,95.092402,15.411488,143.899803
20742,-2.877765,10.101085,-1.368716,-0.253524,-0.450911,0.766466,-0.970820,0.160492,-0.180190,-0.028698,0.100969,-0.014154,0.999987,-0.004854,0.000802,-0.000901,0.301951,0.137955,0.720617,0.608692,94.561705,15.499963,143.999516
20743,-3.273623,8.367642,-0.961891,0.536171,-0.789265,-0.826668,-0.743749,0.064463,-0.179077,-0.032664,0.083669,-0.009920,0.999993,-0.003719,0.000322,-0.000895,0.302769,0.136043,0.718549,0.611155,94.146278,15.594220,144.041454
20744,-2.875198,8.049483,0.735358,1.265126,0.690657,-1.355498,-0.311010,-0.084375,-0.160697,-0.028690,0.080529,0.007216,0.999998,-0.001555,-0.000422,-0.000803,0.303762,0.135312,0.717556,0.611990,93.954276,15.682943,143.993799
20745,-2.265946,8.836171,0.401103,0.419621,0.920805,-0.738040,-0.388525,-0.086657,-0.168791,-0.022587,0.088388,0.003830,0.999998,-0.001943,-0.000433,-0.000844,0.304847,0.134435,0.716329,0.613081,93.717833,15.777473,143.944725
20746,-1.876006,9.597510,-1.411672,-1.153482,-0.172183,-0.001271,-0.668978,0.061339,-0.183048,-0.018677,0.095944,-0.014432,0.999994,-0.003345,0.000307,-0.000915,0.305624,0.132630,0.714468,0.615255,93.344171,15.873476,143.983639
20747,-1.904451,10.599051,-0.606268,-0.886633,0.618578,0.918818,-0.675884,0.181294,-0.178794,-0.018955,0.105986,-0.006404,0.999993,-0.003379,0.000906,-0.000894,0.305967,0.130454,0.712760,0.617527,92.986412,15.964693,144.093104
20748,-2.845337,9.709332,-1.659189,-0.667861,-0.990835,0.370218,-0.935244,0.181858,-0.159855,-0.028391,0.097037,-0.017020,0.999988,-0.004676,0.000909,-0.000799,0.306407,0.127952,0.710222,0.620748,92.479361,16.044422,144.201571
20749,-3.044705,8.377550,-0.795743,0.218225,-0.719988,-0.895256,-0.602621,0.099046,-0.134643,-0.030395,0.083772,-0.008195,0.999995,-0.003013,0.000495,-0.000673,0.306851,0.126296,0.708567,0.622756,92.149637,16.113819,144.259636
20750,-3.213706,7.694081,0.162813,1.029503,-0.195751,-1.538930,-0.217795,-0.032531,-0.127858,-0.032088,0.076963,0.001539,0.999999,-0.001089,-0.000163,-0.000639,0.307487,0.125670,0.707898,0.623329,92.018324,16.180969,144.239055
20751,-2.855109,7.914723,0.500689,0.892229,0.320179,-1.437332,0.094618,-0.119252,-0.146609,-0.028496,0.079166,0.005027,0.999999,0.000473,-0.000596,-0.000733,0.308301,0.125721,0.708082,0.622708,92.051845,16.261930,144.166883
20752,-3.057540,8.754077,1.302801,1.353408,1.032685,-0.605002,0.392835,-0.195301,-0.174330,-0.030512,0.087542,0.013170,0.999997,0.001964,-0.000977,-0.000872,0.309274,0.126377,0.709089,0.620944,92.243215,16.359219,144.050173
20753,-2.417125,10.769780,0.008999,-0.332089,0.769372,1.193151,-0.018697,-0.144165,-0.159470,-0.024085,0.107717,0.000063,0.999999,-0.000093,-0.000721,-0.000797,0.310286,0.126284,0.708889,0.620686,92.207536,16.448328,143.963644
20754,-0.047443,12.060082,-3.620684,-4.640257,-0.591989,1.878064,-0.903662,0.095378,-0.066439,-0.000452,0.120436,-0.036751,0.999990,-0.004518,0.000477,-0.000332,0.310707,0.124410,0.706244,0.623861,91.704156,16.477618,144.017890
20755,-0.065940,13.844590,-0.702475,-3.341181,1.983020,3.494194,-0.982867,0.477329,-0.046768,-0.000645,0.138409,-0.007703,0.999985,-0.004914,0.002387,-0.000234,0.309768,0.121280,0.703919,0.627561,91.220425,16.491974,144.299609
20756,-5.332508,9.672225,-2.014800,0.819428,-2.901332,1.001940,-1.693914,0.472174,-0.126770,-0.053312,0.096581,-0.020841,0.999961,-0.008469,0.002361,-0.000634,0.309503,0.116787,0.699362,0.633610,90.328345,16.553728,144.578789
20757,-4.903080,5.793138,-0.383890,2.271400,-2.059254,-2.859402,-0.318025,-0.071946,-0.121885,-0.048994,0.057955,-0.003949,0.999998,-0.001590,-0.000360,-0.000609,0.310319,0.116150,0.698295,0.634505,90.132266,16.618192,144.532079
20758,-2.372322,5.830345,1.127367,1.163106,0.582770,-3.551750,0.424975,-0.307078,0.001866,-0.023741,0.058279,0.011361,0.999997,0.002125,-0.001535,0.000009,0.311122,0.117851,0.699140,0.632864,90.321212,16.610788,144.344453
20759,-1.683699,8.159995,1.333879,0.230344,1.548929,-1.521288,0.358337,-0.163588,-0.009836,-0.016844,0.081577,0.013471,0.999998,0.001792,-0.000818,-0.000049,0.311507,0.118945,0.700005,0.631513,90.496898,16.611568,144.242676
20760,-2.664516,10.040750,1.706640,0.797751,1.650690,0.553975,0.256814,-0.057937,-0.110506,-0.026595,0.100400,0.017188,0.999999,0.001284,-0.000290,-0.000553,0.311893,0.119201,0.700769,0.630426,90.632244,16.668539,144.204630
20761,-3.267138,11.300438,1.559230,0.897307,1.438097,1.931756,0.151939,-0.069979,-0.133219,-0.032602,0.113014,0.015667,0.999999,0.000760,-0.000350,-0.000666,0.312460,0.119245,0.701198,0.629659,90.705844,16.739823,144.159663
20762,-2.309547,11.893679,-0.593262,-1.263534,0.333748,2.247059,-0.364468,-0.070545,-0.068520,-0.023053,0.118934,-0.006157,0.999998,-0.001822,-0.000353,-0.000343,0.313127,0.118717,0.699958,0.630807,90.482831,16.772793,144.113838
20763,-0.267916,11.665038,-4.396607,-5.081114,-1.724609,1.442567,-1.332737,0.234185,0.022404,-0.002744,0.116354,-0.044739,0.999977,-0.006664,0.001171,0.000112,0.313014,0.116021,0.696072,0.635645,89.757958,16.754130,144.249956
20764,-0.145340,11.662007,-2.078233,-3.879507,0.103544,1.380177,-0.951791,0.546092,0.040412,-0.001535,0.116519,-0.021333,0.999985,-0.004759,0.002730,0.000202,0.311519,0.112995,0.693845,0.639349,89.304714,16.726640,144.572871
20765,-5.326928,8.640988,-1.529756,1.167789,-2.893657,-0.032850,-1.436593,0.577320,0.022285,-0.053324,0.086292,-0.015764,0.999970,-0.007183,0.002887,0.000111,0.310240,0.109039,0.690100,0.644689,88.579383,16.714360,144.914574
20766,-5.794079,4.672486,0.138983,3.456456,-2.400501,-3.671573,0.063991,-0.075982,0.101362,-0.057965,0.046695,0.001383,1.000000,0.000320,-0.000380,0.000507,0.310126,0.109794,0.690112,0.644603,88.601538,16.648364,144.866744
20767,-2.708334,5.252029,1.654832,1.787292,0.640485,-3.977245,1.243075,-0.495469,0.252904,-0.027191,0.052382,0.016807,0.999977,0.006215,-0.002477,0.001265,0.310324,0.114242,0.693176,0.640433,89.228500,16.492489,144.569620
20768,-1.107275,8.578146,1.557863,-0.251504,2.002331,-1.259074,1.052983,-0.306135,0.208021,-0.011186,0.085686,0.016013,0.999984,0.005265,-0.001531,0.001040,0.310099,0.117634,0.695923,0.636940,89.778591,16.365239,144.383940
20769,-1.712596,11.533575,1.074287,-0.698089,1.785736,1.738684,0.259921,0.053255,0.001676,-0.017124,0.115322,0.010897,0.999999,0.001300,0.000266,0.000008,0.309748,0.117926,0.696813,0.636083,89.934831,16.358794,144.411793
20770,-2.485082,13.157009,0.650520,-0.718502,1.281064,3.512036,-0.224918,0.241434,-0.115879,-0.024767,0.131592,0.006387,0.999998,-0.001125,0.001207,-0.000579,0.309395,0.116466,0.696516,0.636848,89.844538,16.418773,144.551825
20771,-2.708790,12.270067,0.504867,-0.457899,0.865239,2.724789,-0.586631,0.274975,-0.056951,-0.027046,0.122723,0.004726,0.999995,-0.002933,0.001375,-0.000285,0.308952,0.114537,0.695084,0.638974,89.553195,16.446659,144.711966
20772,-2.728288,9.929318,-0.254349,-0.366607,-0.186809,0.479540,-0.712362,0.214224,0.034176,-0.027303,0.099279,-0.002868,0.999993,-0.003562,0.001071,0.000171,0.308492,0.112929,0.693092,0.641641,89.179266,16.421792,144.836206
20773,-3.065009,7.685832,-0.465084,0.287840,-0.932701,-1.582885,-0.633185,0.176101,0.055779,-0.030676,0.076835,-0.004867,0.999995,-0.003166,0.000881,0.000279,0.308051,0.111634,0.691279,0.644031,88.844716,16.385961,144.938080
20774,-3.480744,6.588514,-0.005241,1.131606,-0.969245,-2.511719,-0.185098,0.052335,0.047947,-0.034823,0.065877,-0.000104,1.000000,-0.000925,0.000262,0.000240,0.307805,0.111406,0.690714,0.644794,88.745625,16.352303,144.966014
20775,-2.882558,6.926818,0.334035,0.780002,-0.312066,-2.349732,0.324244,-0.092791,0.091360,-0.028859,0.069249,0.003439,0.999998,0.001621,-0.000464,0.000457,0.307642,0.112573,0.691546,0.643776,88.914539,16.293254,144.907897
20776,-2.500290,8.463531,0.908478,0.466367,0.616073,-0.974651,0.610898,-0.131485,0.113105,-0.025057,0.084593,0.009327,0.999995,0.003054,-0.000657,0.000566,0.307374,0.114387,0.693221,0.641780,89.240890,16.220425,144.826583
20777,-2.484773,10.242732,1.191293,0.227647,1.148756,0.729385,0.297585,-0.049258,0.057724,-0.024880,0.102402,0.012059,0.999999,0.001488,-0.000246,0.000289,0.307181,0.115255,0.694047,0.640823,89.401692,16.181422,144.793711
20778,-1.873640,10.871284,-0.763578,-1.516531,-0.020365,1.140762,-0.265801,0.064901,-0.006415,-0.018735,0.108703,-0.007774,0.999999,-0.001329,0.000325,-0.000032,0.307116,0.114676,0.693277,0.641792,89.258201,16.178896,144.828483
20779,-1.679325,11.377890,-0.693965,-1.765160,0.194869,1.571699,-0.321467,0.238110,-0.028224,-0.016786,0.113770,-0.007103,0.999998,-0.001607,0.001191,-0.000141,0.306558,0.113373,0.692607,0.643012,89.111929,16.191400,144.966409
20780,-3.557176,9.748543,-0.239668,0.338032,-0.735456,0.535731,-0.445784,0.243956,-0.016561,-0.035567,0.097483,-0.002571,0.999997,-0.002229,0.001220,-0.000083,0.306004,0.111908,0.691534,0.644686,88.895230,16.196505,145.107926
20781,-3.864791,8.034310,0.753826,1.545865,-0.347426,-1.006747,0.024710,-0.023613,-0.003078,-0.038648,0.080343,0.007544,1.000000,0.000124,-0.000118,-0.000015,0.306074,0.112065,0.691560,0.644597,88.903845,16.192384,145.089956
20782,-2.662891,7.920609,0.699846,0.602813,0.258658,-1.452873,0.268370,-0.126481,0.008432,-0.026637,0.079195,0.007088,0.999999,0.001342,-0.000632,0.000042,0.306320,0.112972,0.692204,0.643629,89.034581,16.179565,145.010673
20783,-2.318630,8.884132,0.893925,0.225293,0.763553,-0.621978,0.252565,-0.052242,-0.025240,-0.023177,0.088833,0.009045,0.999999,0.001263,-0.000261,-0.000126,0.306432,0.113493,0.692932,0.642701,89.168929,16.187944,144.975404
20784,-2.881601,9.756563,1.891687,1.040205,1.418855,0.384244,0.199678,-0.051130,-0.070965,-0.028786,0.097557,0.019007,0.999999,0.000998,-0.000256,-0.000355,0.306711,0.113776,0.693513,0.641891,89.272585,16.221498,144.940361
20785,-2.754363,10.622356,1.581491,0.555218,1.371165,1.175202,-0.090684,-0.026129,-0.093829,-0.027496,0.106244,0.015763,1.000000,-0.000453,-0.000131,-0.000469,0.307146,0.113449,0.693216,0.642061,89.214440,16.269453,144.920144
20786,-1.890383,10.511227,-0.810201,-1.485150,-0.150358,0.793321,-0.426249,0.012630,-0.058607,-0.018874,0.105100,-0.008325,0.999998,-0.002131,0.000063,-0.000293,0.307518,0.112611,0.691876,0.643474,88.970066,16.296333,144.923200
20787,-1.449402,10.342153,-0.869848,-1.850676,-0.016243,0.501968,-0.432565,0.152615,-0.009303,-0.014496,0.103403,-0.008911,0.999997,-0.002163,0.000763,-0.000047,0.307255,0.111475,0.690704,0.645055,88.746143,16.297777,145.010326
20788,-3.102083,9.261237,0.190001,0.291393,-0.242017,-0.051236,-0.460774,0.189919,-0.009049,-0.031015,0.092618,0.001716,0.999997,-0.002304,0.000950,-0.000045,0.306871,0.110183,0.689490,0.646756,88.511809,16.298745,145.119621
20789,-3.751438,7.861350,0.535668,1.325534,-0.530228,-1.203225,-0.201291,-0.017893,-0.013901,-0.037509,0.078621,0.005274,0.999999,-0.001006,-0.000089,-0.000070,0.307081,0.109938,0.688800,0.647433,88.391819,16.300776,145.104914
20790,-2.934805,7.488220,0.412214,0.705144,-0.235940,-1.793740,0.286405,-0.185040,0.001839,-0.029353,0.074876,0.004202,0.999999,0.001432,-0.000925,0.000009,0.307540,0.111043,0.689419,0.646366,88.523009,16.290023,144.990724
20791,-2.440684,8.152713,-0.125497,-0.135950,-0.292074,-1.307658,0.508234,-0.190466,-0.023584,-0.024396,0.081533,-0.001071,0.999996,0.002541,-0.000952,-0.000118,0.307982,0.112411,0.690761,0.644484,88.780621,16.295323,144.872904
20792,-2.089049,9.114531,0.596142,-0.213122,0.664718,-0.468877,0.439865,-0.097897,-0.047771,-0.020872,0.091137,0.006152,0.999997,0.002199,-0.000489,-0.000239,0.308212,0.113298,0.692031,0.642854,89.014159,16.314850,144.810090
20793,-1.945769,10.672409,1.239864,-0.320686,1.522347,0.994866,0.042759,0.101775,-0.049430,-0.019425,0.106726,0.012431,1.000000,0.000214,0.000509,-0.000247,0.307987,0.112920,0.692335,0.642702,89.053979,16.338534,144.866481
20794,-2.535985,11.074602,-0.650546,-1.039565,-0.295002,1.515750,-0.125848,0.067841,-0.045130,-0.025337,0.110748,-0.006567,1.000000,-0.000629,0.000339,-0.000226,0.307955,0.112410,0.692037,0.643126,88.991029,16.358416,144.902601
20795,-2.692845,10.496497,-0.841045,-0.891996,-0.631139,1.001249,-0.072610,0.021979,0.013036,-0.026936,0.104960,-0.008446,1.000000,-0.000363,0.000110,0.000065,0.307870,0.112326,0.691812,0.643424,88.951543,16.345554,144.912003
20796,-2.833238,9.891910,-0.052687,-0.185329,-0.154234,0.474283,0.020388,-0.000144,0.024114,-0.028344,0.098916,-0.000517,1.000000,0.000102,-0.000001,0.000121,0.307769,0.112501,0.691842,0.643411,88.961251,16.325046,144.908281
20797,-2.874165,9.299011,-0.101739,-0.035056,-0.303049,-0.083879,0.060575,-0.044091,0.003419,-0.028743,0.092990,-0.000996,1.000000,0.000303,-0.000220,0.000017,0.307869,0.112801,0.691948,0.643196,88.986957,16.317015,144.878139
20798,-2.699930,8.989168,-0.695066,-0.432812,-0.733930,-0.439754,0.114559,-0.036719,-0.025304,-0.026987,0.089899,-0.006904,1.000000,0.000573,-0.000184,-0.000127,0.308000,0.113067,0.692252,0.642759,89.044354,16.324506,144.852059
20799,-2.666267,8.804390,-1.070261,-0.623387,-1.037124,-0.630779,0.237963,-0.029440,-0.033361,-0.026646,0.088061,-0.010602,0.999999,0.001190,-0.000147,-0.000167,0.308066,0.113466,0.692971,0.641881,89.174048,16.337745,144.830301
20800,-2.564045,8.751034,-0.349008,-0.263527,-0.374781,-0.698593,0.400821,-0.041432,0.002036,-0.025641,0.087517,-0.003320,0.999998,0.002004,-0.000207,0.000010,0.307962,0.114282,0.694170,0.640489,89.394898,16.329655,144.801725
20801,-2.414628,8.994518,0.862963,0.280451,0.764750,-0.495345,0.414321,0.000004,0.043852,-0.024166,0.089922,0.008816,0.999998,0.002072,0.000000,0.000219,0.307577,0.115125,0.695452,0.639132,89.630719,16.298946,144.798036
20802,-2.492023,9.474227,0.882048,0.266100,0.837167,-0.015881,0.351595,-0.008927,0.057644,-0.024948,0.094719,0.008986,0.999998,0.001758,-0.000045,0.000288,0.307208,0.115954,0.696506,0.638011,89.828740,16.259296,144.788889
20803,-2.414000,9.648802,-0.016737,-0.332012,0.191072,0.126140,0.212348,0.000776,0.052673,-0.024165,0.096482,-0.000065,0.999999,0.001062,0.000004,0.000263,0.306907,0.116515,0.697134,0.637367,89.948917,16.223557,144.785463
20804,-2.436580,9.518772,-0.653362,-0.634733,-0.351400,0.007925,0.173584,0.045604,0.073016,-0.024402,0.095184,-0.006445,1.000000,0.000868,0.000228,0.000365,0.306402,0.116949,0.697692,0.636919,90.053871,16.175112,144.808609
20805,-2.645452,9.636144,-0.291366,-0.268822,-0.139798,0.179645,0.258096,0.052877,0.092595,-0.026500,0.096353,-0.002782,0.999999,0.001290,0.000264,0.000463,0.305764,0.117553,0.698521,0.636205,90.208848,16.116445,144.836049
20806,-2.698187,9.823283,0.091506,-0.024099,0.189906,0.373026,0.278479,0.033213,0.103504,-0.027033,0.098217,0.001056,0.999999,0.001392,0.000166,0.000518,0.305142,0.118295,0.699374,0.635429,90.371812,16.050323,144.851489
20807,-2.634120,10.072303,0.138216,-0.079632,0.317608,0.594123,0.196458,0.029873,0.097306,-0.026390,0.100709,0.001485,0.999999,0.000982,0.000149,0.000487,0.304605,0.118893,0.699967,0.634922,90.487533,15.988919,144.864860
20808,-2.609922,10.127673,0.143219,-0.089102,0.352992,0.640513,0.149213,0.040461,0.077441,-0.026138,0.101266,0.001513,1.000000,0.000746,0.000202,0.000387,0.304116,0.119323,0.700434,0.634561,90.577528,15.937702,144.884468
20809,-2.648034,10.207987,0.238051,-0.008537,0.428257,0.727154,0.076634,0.042685,0.050618,-0.026506,0.102072,0.002425,1.000000,0.000383,0.000213,0.000253,0.303753,0.119535,0.700693,0.634409,90.626692,15.902931,144.905565
20810,-2.625823,10.172810,0.331513,0.040477,0.509355,0.686352,-0.060102,0.029707,0.021058,-0.026268,0.101726,0.003288,1.000000,-0.000301,0.000149,0.000105,0.303606,0.119483,0.700513,0.634688,90.595082,15.884062,144.919069
20811,-2.709461,9.960824,0.676766,0.344239,0.696805,0.502986,-0.259981,0.061007,-0.003619,-0.027091,0.099617,0.006646,0.999999,-0.001300,0.000305,-0.000018,0.303552,0.118935,0.699763,0.635643,90.454446,15.880297,144.951421
20812,-2.949450,9.517590,0.684746,0.615447,0.474934,0.144632,-0.397205,0.067392,-0.053017,-0.029467,0.095197,0.006668,0.999998,-0.001986,0.000337,-0.000265,0.303708,0.117992,0.698611,0.637010,90.235842,15.903764,144.987670
20813,-2.460577,9.186424,-0.177740,-0.219141,-0.042498,-0.303405,-0.470239,0.079993,-0.088382,-0.024566,0.091871,-0.001984,0.999997,-0.002351,0.000400,-0.000442,0.303979,0.116768,0.697266,0.638578,89.977901,15.948771,145.031464
20814,-2.116496,9.007710,-0.743065,-0.799670,-0.372960,-0.571916,-0.411663,0.114721,-0.055538,-0.021144,0.090067,-0.007604,0.999998,-0.002058,0.000574,-0.000278,0.303984,0.115642,0.696134,0.640014,89.758715,15.974045,145.095694
20815,-2.210797,9.308665,-0.293329,-0.553617,-0.034280,-0.256685,-0.293785,0.117533,0.026180,-0.022122,0.093079,-0.003057,0.999999,-0.001469,0.000588,0.000131,0.303653,0.114964,0.695338,0.641158,89.608065,15.953843,145.161897
20816,-2.498247,9.148444,0.236339,0.004869,0.197037,-0.328372,-0.225646,0.090576,0.091222,-0.025023,0.091476,0.002272,0.999999,-0.001128,0.000453,0.000456,0.303162,0.114708,0.694677,0.642152,89.491667,15.895219,145.212280
20817,-2.771283,8.930602,0.555826,0.452341,0.260496,-0.460034,-0.112707,0.033587,0.104264,-0.027758,0.089295,0.005513,1.000000,-0.000564,0.000168,0.000521,0.302768,0.114845,0.694287,0.642735,89.431122,15.830075,145.228968
20818,-2.887981,8.947700,0.685106,0.615398,0.290720,-0.410140,-0.141375,-0.005809,0.078419,-0.028915,0.089470,0.006787,1.000000,-0.000707,-0.000029,0.000392,0.302603,0.114983,0.693756,0.643360,89.347323,15.778256,145.222051
20819,-3.013439,8.891820,0.249963,0.475082,-0.162005,-0.434213,-0.230772,-0.031892,0.024982,-0.030146,0.088917,0.002392,0.999999,-0.001154,-0.000159,0.000125,0.302758,0.114876,0.692932,0.644194,89.208406,15.758112,145.199374
20820,-2.662480,8.971291,-0.743397,-0.395889,-0.792667,-0.467078,-0.207706,-0.015122,-0.045188,-0.026604,0.089711,-0.007529,0.999999,-0.001039,-0.000076,-0.000226,0.303062,0.114514,0.692244,0.644855,89.084927,15.777112,145.186118
20821,-2.218005,9.430772,-0.680409,-0.826402,-0.438617,-0.145907,-0.026872,0.026596,-0.035719,-0.022164,0.094311,-0.006814,1.000000,-0.000134,0.000133,-0.000179,0.303092,0.114317,0.692200,0.644923,89.072164,15.792205,145.197750
20822,-2.443909,10.102525,0.443868,-0.163415,0.461274,0.579196,0.097515,0.031085,0.032911,-0.024455,0.101019,0.004492,1.000000,0.000488,0.000155,0.000165,0.302809,0.114538,0.692522,0.644672,89.131362,15.766940,145.212787
20823,-2.632001,10.329698,0.972083,0.240163,0.826361,0.856637,0.004178,0.006784,0.062887,-0.026352,0.103288,0.009724,1.000000,0.000021,0.000034,0.000314,0.302572,0.114793,0.692491,0.644770,89.133426,15.725360,145.213528
20824,-2.529423,10.025011,0.454494,-0.062304,0.404815,0.528377,-0.123815,0.025546,0.031450,-0.025309,0.100249,0.004486,1.000000,-0.000619,0.000128,0.000157,0.302439,0.114692,0.692092,0.645279,89.064992,15.700830,145.225364
20825,-2.355567,9.592793,-0.122346,-0.432239,-0.048482,0.056261,-0.172165,0.065510,-0.002176,-0.023555,0.095927,-0.001298,1.000000,-0.000861,0.000328,-0.000011,0.302310,0.114266,0.691618,0.645923,88.975317,15.697100,145.260473
20826,-2.488626,9.239245,0.042410,-0.159392,-0.046916,-0.245499,-0.155607,0.053872,-0.015859,-0.024879,0.092395,0.000359,1.000000,-0.000778,0.000269,-0.000079,0.302249,0.113861,0.691185,0.646487,88.892983,15.700033,145.288610
20827,-2.761109,9.103899,0.882752,0.552169,0.465805,-0.285775,-0.204486,-0.002344,-0.033271,-0.027596,0.091053,0.008734,0.999999,-0.001022,-0.000012,-0.000166,0.302473,0.113498,0.690520,0.647155,88.773766,15.713434,145.282979
20828,-2.751300,8.667194,1.649262,1.061724,1.025403,-0.689575,-0.346664,-0.050857,-0.073490,-0.027485,0.086710,0.016335,0.999998,-0.001733,-0.000254,-0.000367,0.303070,0.112944,0.689340,0.648231,88.564655,15.748067,145.247796
20829,-2.084477,8.468820,0.231102,-0.241073,0.174224,-1.093121,-0.312511,0.009389,-0.097489,-0.020803,0.084702,0.002180,0.999999,-0.001563,0.000047,-0.000487,0.303521,0.112158,0.688377,0.649179,88.385135,15.798394,145.248042
20830,-1.865535,8.906811,-0.896158,-1.168618,-0.591050,-0.762849,-0.129134,0.090360,-0.044062,-0.018640,0.089066,-0.009011,1.000000,-0.000646,0.000452,-0.000220,0.303412,0.111575,0.688097,0.649626,88.323656,15.818442,145.297284
20831,-2.522431,9.361850,0.019234,-0.240516,-0.135424,-0.120883,0.121320,0.053414,0.072616,-0.025258,0.093609,0.000256,1.000000,0.000607,0.000267,0.000363,0.302917,0.111889,0.688513,0.649362,88.400595,15.772067,145.326525
20832,-2.890608,9.437150,0.857663,0.521819,0.369544,0.073774,0.158099,-0.042435,0.147295,-0.028977,0.094343,0.008645,0.999999,0.000790,-0.000212,0.000736,0.302483,0.112833,0.688857,0.649036,88.483010,15.680281,145.299802
20833,-2.646723,9.480153,0.886673,0.355352,0.534508,0.048987,0.152187,-0.070190,0.138973,-0.026536,0.094776,0.008930,0.999999,0.000761,-0.000351,0.000695,0.302179,0.113823,0.689148,0.648697,88.557974,15.593993,145.256390
20834,-2.331658,9.905862,0.507194,-0.191384,0.452927,0.364650,0.115560,-0.026128,0.077777,-0.023356,0.099047,0.005126,1.000000,0.000578,-0.000131,0.000389,0.301939,0.114410,0.689416,0.648421,88.618241,15.542359,145.238049
20835,-2.484212,10.172500,0.214297,-0.288005,0.167342,0.655647,0.080455,0.018536,0.018274,-0.024851,0.101722,0.002186,1.000000,0.000402,0.000093,0.000091,0.301761,0.114588,0.689676,0.648195,88.665807,15.526500,145.245516
20836,-2.498363,10.566145,0.284058,-0.325793,0.271037,1.040254,-0.021139,0.015538,-0.002819,-0.024982,0.105662,0.002831,1.000000,-0.000106,0.000078,-0.000014,0.301716,0.114555,0.689610,0.648292,88.654211,15.521632,145.250884
20837,-2.504051,10.246702,0.619092,-0.060141,0.496393,0.741858,-0.098387,0.029144,0.004442,-0.025042,0.102469,0.006144,1.000000,-0.000492,0.000146,0.000022,0.301649,0.114381,0.689314,0.648669,88.600941,15.513843,145.264464
20838,-2.570576,9.958336,0.672071,0.086028,0.456036,0.483556,-0.104811,0.026800,0.019917,-0.025715,0.099584,0.006672,1.000000,-0.000524,0.000134,0.000100,0.301538,0.114265,0.688981,0.649095,88.543266,15.495943,145.276859
20839,-2.497419,9.898423,0.643525,0.022526,0.454503,0.406066,-0.112190,0.021366,0.023378,-0.024985,0.098985,0.006382,1.000000,-0.000561,0.000107,0.000117,0.301444,0.114160,0.688617,0.649543,88.480929,15.477219,145.286122
