// General information: 
//  MT Manager version: 2022.0.0 
//  XDA version: 2022.0.0 build 7085 rev 119802 built on 2022-11-08
// Device information: 
//  DeviceId: 00B4737C
//  ProductCode: MTW2-3A7G6
//  Firmware Version: 4.14.0
//  Hardware Version: 2.0.0
// Device settings: 
//  Filter Profile: human(46.1)
//  Option Flags: Orientation Smoother Disabled, Position/Velocity Smoother Disabled, Continuous Zero Rotation Update Disabled, AHS Disabled, ICC Disabled
// Coordinate system: ENU
PacketCounter,Acc_X,Acc_Y,Acc_Z,FreeAcc_E,FreeAcc_N,FreeAcc_U,Gyr_X,Gyr_Y,Gyr_Z,VelInc_X,VelInc_Y,VelInc_Z,OriInc_q0,OriInc_q1,OriInc_q2,OriInc_q3,Quat_q0,Quat_q1,Quat_q2,Quat_q3,Roll,Pitch,Yaw
58501,-3.159775,2.882468,8.551362,0.371656,-1.576471,-0.389597,0.365940,-0.649010,0.430841,-0.031937,0.028600,0.085463,0.999991,0.001830,-0.003245,0.002154,0.255655,0.208266,-0.019994,-0.943857,8.982395,22.514850,-147.897317
58502,-3.307547,3.009729,8.480618,0.610014,-1.537359,-0.369006,0.378882,-0.586657,0.427663,-0.033388,0.029866,0.084765,0.999992,0.001894,-0.002933,0.002138,0.257270,0.205909,-0.022954,-0.943868,9.274481,22.141295,-147.688107
58503,-4.077605,2.629363,8.812249,0.929428,-0.772481,0.174054,0.397386,-0.580394,0.433357,-0.041088,0.026030,0.088055,0.999991,0.001987,-0.002902,0.002167,0.258888,0.203593,-0.026010,-0.943849,9.577374,21.768383,-147.477465
58504,-4.314499,2.277780,8.899826,0.942957,-0.271825,0.289109,0.462774,-0.652765,0.482444,-0.043490,0.022467,0.088909,0.999989,0.002314,-0.003264,0.002412,0.260657,0.201019,-0.029507,-0.943811,9.922592,21.350105,-147.247389
58505,-3.770363,1.986721,8.570668,0.538471,-0.189014,-0.257970,0.499608,-0.683240,0.535437,-0.038049,0.019552,0.085626,0.999987,0.002498,-0.003416,0.002677,0.262628,0.198328,-0.033281,-0.943708,10.297385,20.906652,-146.992063
58506,-3.406917,1.376604,8.260519,0.107230,0.251775,-0.775943,0.539786,-0.629167,0.585858,-0.034369,0.013443,0.082534,0.999987,0.002699,-0.003146,0.002929,0.264800,0.195940,-0.037212,-0.943453,10.703893,20.488102,-146.704285
58507,-3.411688,1.162726,8.185987,0.054615,0.524559,-0.883902,0.521714,-0.543345,0.630419,-0.034375,0.011306,0.081796,0.999988,0.002609,-0.002717,0.003152,0.267209,0.193911,-0.040997,-0.943036,11.110488,20.109810,-146.383803
58508,-3.455409,0.782801,8.113037,-0.057002,0.950664,-1.011180,0.445918,-0.439788,0.668188,-0.034758,0.007531,0.081071,0.999990,0.002230,-0.002199,0.003341,0.269885,0.192265,-0.044312,-0.942461,11.481588,19.784727,-146.031804
58509,-3.723148,0.504550,8.038798,0.048634,1.397616,-1.050117,0.360293,-0.341343,0.712178,-0.037386,0.004768,0.080333,0.999991,0.001801,-0.001707,0.003561,0.272866,0.190946,-0.047142,-0.941733,11.814708,19.506507,-145.644346
58510,-4.225732,0.738874,8.158454,0.510294,1.524608,-0.736454,0.223771,-0.253652,0.746449,-0.042388,0.007139,0.081539,0.999992,0.001119,-0.001268,0.003732,0.276156,0.189850,-0.049231,-0.940889,12.076799,19.272750,-145.227592
58511,-4.780317,0.611764,8.443560,0.769601,1.974818,-0.324428,-0.040850,-0.210917,0.749400,-0.047915,0.005955,0.084384,0.999992,-0.000204,-0.001055,0.003747,0.279716,0.188579,-0.050027,-0.940050,12.188424,19.060111,-144.805082
58512,-4.891179,-0.120645,8.341448,0.530965,2.679459,-0.536025,-0.283121,-0.202321,0.715791,-0.048992,-0.001264,0.083367,0.999992,-0.001416,-0.001012,0.003579,0.283344,0.187021,-0.049631,-0.939295,12.152687,18.857268,-144.401989
58513,-4.495910,-0.635985,8.118264,0.057811,2.904441,-0.976128,-0.431020,-0.161408,0.670002,-0.045003,-0.006336,0.081160,0.999992,-0.002155,-0.000807,0.003350,0.286901,0.185448,-0.048446,-0.938589,12.024480,18.682344,-144.021029
58514,-4.492239,-0.855490,8.140997,-0.056787,3.078848,-0.997623,-0.525869,-0.095430,0.594031,-0.044936,-0.008474,0.081411,0.999992,-0.002629,-0.000477,0.002970,0.290201,0.184071,-0.046642,-0.937937,11.828694,18.555465,-143.676512
58515,-5.064948,-1.007157,8.368273,0.227324,3.506111,-0.628379,-0.577031,-0.060977,0.497171,-0.050650,-0.009956,0.083696,0.999993,-0.002885,-0.000305,0.002486,0.293096,0.182794,-0.044465,-0.937392,11.586612,18.459521,-143.384893
58516,-5.280625,-0.883688,8.519765,0.418613,3.500943,-0.388232,-0.647296,-0.108700,0.407608,-0.052835,-0.008669,0.085197,0.999993,-0.003236,-0.000543,0.002038,0.295622,0.181214,-0.041940,-0.937022,11.284915,18.349169,-143.151599
58517,-4.689337,-1.031523,8.097161,0.069260,3.272001,-0.986192,-0.684023,-0.148100,0.340739,-0.046936,-0.010118,0.080972,0.999992,-0.003420,-0.000740,0.001704,0.297854,0.179401,-0.039243,-0.936781,10.948203,18.224567,-142.962112
58518,-4.003556,-0.826201,7.658925,-0.154418,2.697926,-1.562389,-0.666585,-0.113452,0.295996,-0.040067,-0.008066,0.076594,0.999993,-0.003333,-0.000567,0.001480,0.299864,0.177788,-0.036532,-0.936557,10.614090,18.126039,-142.794470
58519,-3.479552,-0.503059,7.455729,-0.277457,2.109609,-1.848978,-0.663909,-0.023617,0.256019,-0.034798,-0.004828,0.074569,0.999994,-0.003320,-0.000118,0.001280,0.301696,0.176600,-0.033664,-0.936301,10.277162,18.082635,-142.640303
58520,-2.920262,-0.088454,7.522253,-0.473728,1.408526,-1.881010,-0.691110,0.098860,0.224215,-0.029165,-0.000657,0.075239,0.999993,-0.003456,0.000494,0.001121,0.303420,0.175951,-0.030454,-0.935975,9.922877,18.112981,-142.491669
58521,-2.499310,-0.029901,7.706956,-0.807050,1.062260,-1.821151,-0.700875,0.223361,0.216067,-0.024907,-0.000056,0.077098,0.999993,-0.003504,0.001117,0.001080,0.305129,0.175865,-0.027003,-0.935542,9.565429,18.214779,-142.335466
58522,-2.273170,0.056137,7.889627,-0.983844,0.799332,-1.700379,-0.641376,0.338256,0.231394,-0.022599,0.000788,0.078932,0.999993,-0.003207,0.001691,0.001157,0.306868,0.176407,-0.023666,-0.934961,9.248818,18.381477,-142.159171
58523,-2.598694,1.069029,8.484656,-0.369891,0.073921,-0.882803,-0.631628,0.429062,0.226934,-0.025817,0.010929,0.084868,0.999992,-0.003158,0.002145,0.001135,0.308584,0.177381,-0.020232,-0.934293,8.939776,18.600342,-141.977809
58524,-3.466409,1.777929,9.300542,0.408593,-0.119777,0.261800,-0.819058,0.414557,0.157287,-0.034485,0.018133,0.093003,0.999989,-0.004095,0.002073,0.000786,0.310133,0.178007,-0.015883,-0.933744,8.510053,18.818673,-141.840507
58525,-3.310596,0.989068,9.335308,-0.148551,0.340611,0.134548,-0.975921,0.294940,0.087032,-0.032973,0.010332,0.093352,0.999987,-0.004880,0.001475,0.000435,0.311477,0.177827,-0.010923,-0.933403,7.973057,18.975519,-141.757674
58526,-2.813088,0.343020,9.062714,-0.766919,0.513447,-0.362208,-0.899498,0.205171,0.058642,-0.028039,0.003830,0.090639,0.999989,-0.004497,0.001026,0.000293,0.312608,0.177350,-0.006435,-0.933157,7.471855,19.084805,-141.700468
58527,-2.695394,0.796492,9.069174,-0.561293,0.009277,-0.334612,-0.777564,0.165581,0.049652,-0.026881,0.008311,0.090682,0.999992,-0.003888,0.000828,0.000248,0.313581,0.176870,-0.002569,-0.932940,7.037256,19.172158,-141.652808
58528,-2.777566,1.051315,9.256535,-0.382207,-0.230740,-0.101671,-0.752006,0.147972,0.020658,-0.027708,0.010858,0.092545,0.999993,-0.003760,0.000740,0.000103,0.314392,0.176351,0.001176,-0.932768,6.611268,19.252325,-141.624368
58529,-3.433896,0.797007,9.836346,-0.205111,0.232186,0.631652,-0.648299,0.122048,0.021792,-0.034280,0.008285,0.098358,0.999995,-0.003241,0.000610,0.000109,0.315113,0.175867,0.004395,-0.932607,6.243883,19.317294,-141.597786
58530,-4.375213,0.921865,10.500681,0.380687,0.557493,1.580323,-0.504303,-0.031027,0.064227,-0.043771,0.009469,0.104976,0.999997,-0.002522,-0.000155,0.000321,0.315905,0.174900,0.006664,-0.932507,5.964389,19.293160,-141.555655
58531,-4.171028,1.116820,10.436592,0.404576,0.265267,1.471505,-0.377589,-0.213980,0.137307,-0.041830,0.011336,0.104300,0.999997,-0.001888,-0.001070,0.000687,0.316931,0.173277,0.007990,-0.932452,5.767937,19.160117,-141.480875
58532,-3.431680,1.564024,10.015947,0.299801,-0.479686,0.874767,-0.308211,-0.275454,0.207987,-0.034471,0.015759,0.100088,0.999997,-0.001541,-0.001377,0.001040,0.318228,0.171484,0.008834,-0.932334,5.624208,18.988737,-141.366605
58533,-3.095074,1.622574,9.681598,0.229926,-0.683963,0.454970,-0.312059,-0.203230,0.241995,-0.031069,0.016339,0.096759,0.999998,-0.001560,-0.001016,0.001210,0.319681,0.170017,0.009781,-0.932096,5.485824,18.856425,-141.227449
58534,-3.205125,1.149366,9.555939,0.094988,-0.231620,0.328670,-0.279454,-0.081406,0.254436,-0.032105,0.011586,0.095530,0.999998,-0.001397,-0.000407,0.001272,0.321158,0.169175,0.010760,-0.931730,5.370937,18.793716,-141.073402
58535,-3.862319,1.055445,9.943739,0.417974,0.177856,0.897265,-0.177841,-0.005033,0.246009,-0.038639,0.010595,0.099427,0.999999,-0.000889,-0.000025,0.001230,0.322504,0.168846,0.011396,-0.931318,5.313675,18.774739,-140.920251
58536,-4.968078,1.204956,10.566408,1.138811,0.638194,1.852582,-0.123544,-0.055674,0.219787,-0.049723,0.012060,0.105643,0.999999,-0.000618,-0.000278,0.001099,0.323684,0.168371,0.011719,-0.930990,5.281709,18.728876,-140.785558
58537,-4.419528,0.626280,10.076307,0.548932,0.840121,1.162250,-0.072986,-0.189990,0.183747,-0.044297,0.006259,0.100719,0.999999,-0.000365,-0.000950,0.000919,0.324661,0.167347,0.011620,-0.930836,5.268924,18.607894,-140.680250
58538,-3.376389,0.228006,9.282381,-0.202522,0.649954,0.043837,0.076463,-0.223786,0.153736,-0.033869,0.002219,0.092787,0.999999,0.000382,-0.001119,0.000769,0.325375,0.166410,0.010795,-0.930764,5.335403,18.469609,-140.594862
58539,-2.860669,0.493648,8.743055,-0.250820,0.223103,-0.606418,0.202917,-0.139298,0.104322,-0.028670,0.004833,0.087416,0.999999,0.001015,-0.000696,0.000522,0.325748,0.166065,0.009561,-0.930709,5.465923,18.381656,-140.534850
58540,-2.947397,0.590892,8.511397,-0.063563,0.249073,-0.789713,0.226421,-0.035582,0.037217,-0.029490,0.005807,0.085115,0.999999,0.001132,-0.000178,0.000186,0.325785,0.166241,0.008442,-0.930676,5.599257,18.356814,-140.509196
58541,-3.202627,0.183976,8.274682,-0.065285,0.769468,-0.971611,0.275155,0.040771,-0.018707,-0.032009,0.001729,0.082756,0.999999,0.001376,0.000204,-0.000094,0.325516,0.166846,0.007267,-0.930671,5.751039,18.378231,-140.512811
58542,-3.485892,0.137876,8.249804,0.102488,0.997181,-0.911858,0.376095,0.065557,-0.037839,-0.034832,0.001230,0.082512,0.999998,0.001880,0.000328,-0.000189,0.325073,0.167733,0.005678,-0.930678,5.957835,18.415286,-140.526155
58543,-3.760530,0.161349,8.174842,0.317439,1.175567,-0.895690,0.452735,0.051076,-0.048013,-0.037584,0.001437,0.081761,0.999997,0.002264,0.000255,-0.000240,0.324517,0.168672,0.003720,-0.930712,6.206005,18.444421,-140.546550
58544,-3.730233,0.175753,7.877252,0.372165,1.206825,-1.187052,0.486479,0.027924,-0.034442,-0.037291,0.001572,0.078782,0.999997,0.002432,0.000140,-0.000172,0.323995,0.169562,0.001553,-0.930738,6.475989,18.459936,-140.560037
58545,-3.488418,0.196970,7.639526,0.258263,1.097573,-1.488101,0.477161,0.050962,-0.031885,-0.034864,0.001793,0.076409,0.999997,0.002386,0.000255,-0.000159,0.323490,0.170539,-0.000533,-0.930737,6.741241,18.488196,-140.570476
58546,-3.508847,0.594781,7.740241,0.454032,0.806530,-1.343900,0.440690,0.123807,-0.038618,-0.035039,0.005784,0.077437,0.999997,0.002203,0.000619,-0.000193,0.322983,0.171799,-0.002328,-0.930678,6.986424,18.558657,-140.579400
58547,-4.055345,0.933811,8.311496,0.846310,0.819191,-0.592524,0.297619,0.181700,-0.074538,-0.040474,0.009229,0.083166,0.999998,0.001488,0.000908,-0.000373,0.322432,0.173094,-0.003330,-0.930626,7.143755,18.664405,-140.605471
58548,-5.586920,1.202132,9.647376,1.672924,1.389553,1.187363,0.171731,0.114295,-0.129295,-0.055806,0.011975,0.096516,0.999999,0.000859,0.000571,-0.000646,0.321733,0.173876,-0.003810,-0.930720,7.217260,18.735998,-140.669132
58549,-5.595362,0.857200,10.121537,1.319050,1.621485,1.594295,0.046795,-0.174149,-0.167531,-0.056035,0.008595,0.101169,0.999999,0.000234,-0.000871,-0.000838,0.320959,0.173113,-0.004136,-0.931129,7.204391,18.646345,-140.777721
58550,-3.852851,0.329733,9.370705,-0.007953,1.091373,0.265607,0.129206,-0.378236,-0.137850,-0.038703,0.003263,0.093636,0.999998,0.000646,-0.001891,-0.000689,0.320246,0.171533,-0.005202,-0.931661,7.240202,18.438638,-140.883817
58551,-2.208696,0.954159,8.649687,-0.592795,-0.287610,-0.858827,0.208274,-0.355671,-0.109680,-0.022236,0.009464,0.086467,0.999998,0.001041,-0.001778,-0.000548,0.319596,0.170182,-0.006621,-0.932123,7.327000,18.241848,-140.971542
58552,-1.855374,1.514135,8.669924,-0.517544,-0.922439,-0.880508,0.152207,-0.185011,-0.116322,-0.018625,0.015086,0.086694,0.999999,0.000761,-0.000925,-0.000582,0.318968,0.169538,-0.007504,-0.932448,7.385190,18.142595,-141.050136
58553,-2.515638,1.523680,9.284846,-0.218367,-0.583877,-0.093129,0.052907,-0.035533,-0.127109,-0.025163,0.015228,0.092848,1.000000,0.000265,-0.000178,-0.000636,0.318379,0.169431,-0.007673,-0.932668,7.387676,18.129081,-141.123745
58554,-2.926851,1.500789,9.943810,-0.138424,-0.382324,0.653107,0.011723,-0.000908,-0.111331,-0.029261,0.015018,0.099439,1.000000,0.000059,-0.000005,-0.000557,0.317899,0.169420,-0.007612,-0.932834,7.370815,18.134102,-141.185115
58555,-2.849123,1.720220,10.349214,-0.195206,-0.644736,1.037617,-0.006435,-0.002376,-0.090897,-0.028485,0.017218,0.103491,1.000000,-0.000032,-0.000012,-0.000454,0.317530,0.169372,-0.007482,-0.932970,7.346865,18.136704,-141.234506
58556,-2.578338,1.945892,10.459941,-0.295712,-1.001200,1.084782,-0.039295,0.002978,-0.083760,-0.025774,0.019490,0.104596,1.000000,-0.000196,0.000015,-0.000419,0.317222,0.169297,-0.007200,-0.933090,7.305989,18.141864,-141.279096
58557,-2.499325,1.838663,10.478983,-0.421252,-0.971461,1.064591,-0.045393,0.031162,-0.068967,-0.024971,0.018419,0.104790,1.000000,-0.000227,0.000156,-0.000345,0.316989,0.169342,-0.006855,-0.933163,7.264627,18.161823,-141.312816
58558,-2.799521,2.087379,10.565595,-0.079775,-1.007830,1.269017,-0.033173,0.050506,-0.039245,-0.027964,0.020897,0.105660,1.000000,-0.000166,0.000253,-0.000196,0.316886,0.169498,-0.006564,-0.933173,7.236661,18.190722,-141.327175
58559,-3.144602,2.055659,10.641681,0.133064,-0.790723,1.444163,-0.027411,0.019476,-0.013049,-0.031434,0.020573,0.106417,1.000000,-0.000137,0.000097,-0.000065,0.316898,0.169514,-0.006368,-0.933167,7.215789,18.199916,-141.328358
58560,-3.838277,2.268685,10.853337,0.709682,-0.569645,1.885435,-0.019222,-0.062086,0.025424,-0.038419,0.022692,0.108519,1.000000,-0.000096,-0.000310,0.000127,0.317081,0.169164,-0.006375,-0.933168,7.205221,18.160154,-141.312570
58561,-3.583291,2.099651,10.571709,0.527359,-0.554412,1.519744,-0.100882,-0.192501,0.036236,-0.035938,0.021043,0.105672,0.999999,-0.000504,-0.000963,0.000181,0.317378,0.168074,-0.006216,-0.933265,7.146515,18.045312,-141.300231
58562,-2.680710,1.319477,9.690159,-0.298815,-0.377309,0.316217,-0.082684,-0.219577,0.035814,-0.026916,0.013230,0.096867,0.999999,-0.000413,-0.001098,0.000179,0.317657,0.166888,-0.006185,-0.933383,7.097835,17.915296,-141.289949
58563,-2.300544,0.950399,9.098989,-0.595428,-0.244353,-0.401359,0.005464,-0.148172,0.044110,-0.023075,0.009496,0.090973,1.000000,0.000027,-0.000741,0.000221,0.317903,0.166172,-0.006458,-0.933425,7.102548,17.825102,-141.269459
58564,-2.462257,1.027574,9.126940,-0.433409,-0.201959,-0.315792,0.096312,-0.054892,0.037833,-0.024650,0.010227,0.091268,1.000000,0.000482,-0.000274,0.000189,0.318047,0.166039,-0.007003,-0.933396,7.160516,17.788569,-141.245699
58565,-2.856469,1.003415,9.383757,-0.240100,0.038532,0.044392,0.130308,0.010303,0.009343,-0.028560,0.009972,0.093846,1.000000,0.000652,0.000052,0.000047,0.318032,0.166262,-0.007578,-0.933357,7.233980,17.790885,-141.234198
58566,-3.462843,0.931217,9.778438,0.034410,0.431574,0.593505,0.160897,0.006534,-0.027193,-0.034624,0.009238,0.097793,1.000000,0.000804,0.000033,-0.000136,0.317822,0.166521,-0.008273,-0.933377,7.318488,17.793924,-141.244670
58567,-3.579172,0.980122,10.112078,0.038453,0.445899,0.949511,0.176255,-0.084451,-0.058454,-0.035832,0.009723,0.101114,0.999999,0.000881,-0.000422,-0.000292,0.317448,0.166377,-0.009156,-0.933521,7.403682,17.747349,-141.280923
58568,-2.696622,0.907206,9.799692,-0.562174,0.026603,0.376129,0.216616,-0.155403,-0.083763,-0.027039,0.008977,0.097986,0.999999,0.001083,-0.000777,-0.000419,0.316919,0.165970,-0.010321,-0.933761,7.506032,17.662625,-141.337753
58569,-1.967374,0.896013,9.429785,-0.995689,-0.342873,-0.195763,0.255689,-0.127864,-0.109021,-0.019729,0.008850,0.094297,0.999999,0.001278,-0.000639,-0.000545,0.316240,0.165752,-0.011602,-0.934015,7.626588,17.595328,-141.407730
58570,-1.768890,1.017975,9.364981,-1.059716,-0.529370,-0.301388,0.310658,-0.057871,-0.137933,-0.017709,0.010046,0.093660,0.999999,0.001553,-0.000289,-0.000690,0.315384,0.165952,-0.013006,-0.934250,7.775457,17.570375,-141.489312
58571,-2.014670,1.293711,9.620114,-0.811444,-0.603196,0.049201,0.314102,-0.000367,-0.163717,-0.020136,0.012802,0.096221,0.999998,0.001571,-0.000002,-0.000819,0.314407,0.166423,-0.014313,-0.934477,7.922753,17.579976,-141.581737
58572,-2.330015,1.505066,9.914195,-0.564753,-0.589648,0.449806,0.299673,0.004419,-0.167714,-0.023285,0.014922,0.099165,0.999999,0.001498,0.000022,-0.000839,0.313423,0.166898,-0.015544,-0.934703,8.061501,17.593134,-141.675973
58573,-2.525692,1.768683,10.106430,-0.342072,-0.682674,0.726012,0.244926,-0.033116,-0.157642,-0.025260,0.017583,0.101082,0.999999,0.001225,-0.000166,-0.000788,0.312528,0.167106,-0.016584,-0.934947,8.169413,17.584012,-141.767533
58574,-2.423855,1.707552,10.035858,-0.439973,-0.672215,0.621093,0.200620,-0.068359,-0.143075,-0.024261,0.016992,0.100367,0.999999,0.001003,-0.000342,-0.000715,0.311735,0.167082,-0.017486,-0.935200,8.253992,17.554227,-141.853298
58575,-2.449916,1.806278,10.013528,-0.360786,-0.719345,0.622246,0.174018,-0.084640,-0.124008,-0.024530,0.017991,0.100141,0.999999,0.000870,-0.000423,-0.000620,0.311052,0.166935,-0.018303,-0.935438,8.326066,17.513330,-141.929328
58576,-2.346088,1.665758,9.826118,-0.460795,-0.639186,0.395670,0.152788,-0.100050,-0.101788,-0.023502,0.016594,0.098262,0.999999,0.000764,-0.000500,-0.000509,0.310488,0.166684,-0.019065,-0.935655,8.389885,17.462350,-141.993363
58577,-2.604871,1.705942,9.824879,-0.243799,-0.505341,0.478523,0.148536,-0.079129,-0.086199,-0.026080,0.016998,0.098251,1.000000,0.000743,-0.000396,-0.000431,0.310002,0.166519,-0.019787,-0.935830,8.454361,17.421519,-142.046512
58578,-3.847375,1.852510,10.364289,0.600603,0.085232,1.380371,0.151631,-0.121103,-0.063391,-0.038531,0.018459,0.103634,0.999999,0.000758,-0.000606,-0.000317,0.309617,0.166164,-0.020608,-0.936003,8.523853,17.355501,-142.089699
58579,-4.075094,1.586295,10.325923,0.642872,0.458706,1.373180,0.122196,-0.286875,-0.015012,-0.040898,0.015803,0.103210,0.999999,0.000611,-0.001434,-0.000075,0.309464,0.164979,-0.021588,-0.936241,8.580433,17.191018,-142.119186
58580,-3.293877,1.694617,9.782079,0.311924,-0.022851,0.642573,0.142314,-0.364423,0.028279,-0.033119,0.016872,0.097773,0.999998,0.000712,-0.001822,0.000141,0.309489,0.163460,-0.022817,-0.936470,8.654322,16.979385,-142.129982
58581,-2.966718,1.669250,9.257149,0.239728,-0.133142,0.046691,0.108412,-0.321048,0.047116,-0.029820,0.016635,0.092533,0.999999,0.000542,-0.001605,0.000236,0.309632,0.162085,-0.023836,-0.936636,8.712893,16.790276,-142.126103
58582,-3.006240,1.492175,9.023007,0.259419,0.070819,-0.189468,0.097885,-0.240906,0.055978,-0.030175,0.014869,0.090201,0.999999,0.000489,-0.001205,0.000280,0.309836,0.161072,-0.024689,-0.936722,8.769202,16.646202,-142.109747
58583,-3.453230,1.569695,9.174939,0.604502,0.283883,0.092977,0.105288,-0.173635,0.056327,-0.034616,0.015639,0.091728,0.999999,0.000526,-0.000868,0.000282,0.310042,0.160382,-0.025472,-0.936751,8.831267,16.539762,-142.087342
58584,-3.897489,1.729452,9.386142,0.974141,0.425333,0.441638,0.093400,-0.182034,0.053282,-0.039065,0.017240,0.093834,0.999999,0.000467,-0.000910,0.000266,0.310242,0.159638,-0.026211,-0.936792,8.885935,16.429222,-142.067488
58585,-3.769957,1.800571,9.327995,0.947982,0.315029,0.359243,0.074267,-0.201907,0.048454,-0.037798,0.017962,0.093248,0.999999,0.000371,-0.001010,0.000242,0.310432,0.158768,-0.026886,-0.936857,8.928047,16.307501,-142.052555
58586,-3.956407,2.091457,9.375056,1.254974,0.207337,0.497552,0.061234,-0.223212,0.035019,-0.039672,0.020879,0.093713,0.999999,0.000306,-0.001116,0.000175,0.310566,0.157782,-0.027523,-0.936961,8.960070,16.175253,-142.047486
58587,-3.794321,2.148366,9.268206,1.217337,0.089227,0.356976,0.011791,-0.278382,0.034221,-0.038076,0.021472,0.092630,0.999999,0.000059,-0.001392,0.000171,0.310728,0.156459,-0.028014,-0.937115,8.962022,16.011581,-142.048153
58588,-3.142644,1.854438,8.921060,0.685316,-0.025571,-0.198631,0.005339,-0.291124,0.058965,-0.031562,0.018533,0.089165,0.999999,0.000027,-0.001456,0.000295,0.311008,0.155065,-0.028513,-0.937239,8.964115,15.838759,-142.035348
58589,-2.857416,1.755436,8.804707,0.467684,-0.090093,-0.402993,0.060582,-0.258755,0.086748,-0.028696,0.017515,0.088015,0.999999,0.000303,-0.001294,0.000434,0.311379,0.153903,-0.029242,-0.937285,9.002934,15.681552,-142.003346
58590,-2.859948,1.671923,8.881678,0.413138,-0.003145,-0.342308,0.085828,-0.239077,0.093509,-0.028713,0.016668,0.088790,0.999999,0.000429,-0.001195,0.000468,0.311764,0.152872,-0.030064,-0.937299,9.057782,15.535060,-141.965616
58591,-2.910903,1.472829,8.987089,0.317808,0.206774,-0.259336,0.129370,-0.243718,0.094331,-0.029225,0.014656,0.089845,0.999999,0.000647,-0.001219,0.000472,0.312119,0.151886,-0.031098,-0.937307,9.137340,15.385637,-141.928110
58592,-2.759703,1.564632,9.187913,0.207304,0.062452,-0.094929,0.143339,-0.271778,0.071209,-0.027727,0.015571,0.091853,0.999999,0.000717,-0.001359,0.000356,0.312350,0.150795,-0.032224,-0.937369,9.220558,15.222593,-141.907005
58593,-2.579927,1.373644,9.199972,-0.028141,0.136415,-0.160593,0.142081,-0.303650,0.038784,-0.025942,0.013666,0.091970,0.999999,0.000710,-0.001518,0.000194,0.312424,0.149555,-0.033369,-0.937503,9.297079,15.044320,-141.908249
58594,-2.404621,1.191952,9.253047,-0.266381,0.206640,-0.184185,0.191706,-0.328786,0.008891,-0.024199,0.011830,0.092502,0.999998,0.000959,-0.001644,0.000044,0.312316,0.148282,-0.034764,-0.937690,9.396923,14.854786,-141.929632
58595,-2.477320,1.360237,9.576529,-0.194888,0.141701,0.169249,0.227876,-0.374766,-0.008984,-0.024952,0.013494,0.095734,0.999998,0.001139,-0.001874,-0.000045,0.312087,0.146850,-0.036386,-0.937930,9.513565,14.640822,-141.966346
58596,-2.894845,1.273689,10.160361,-0.078462,0.489137,0.816974,0.234444,-0.469772,-0.027242,-0.029185,0.012622,0.101550,0.999997,0.001172,-0.002349,-0.000136,0.311749,0.144987,-0.038174,-0.938261,9.629116,14.375158,-142.023412
58597,-3.090879,0.983708,10.475743,-0.154171,0.889171,1.116517,0.293820,-0.666096,-0.019731,-0.031257,0.009686,0.104668,0.999993,0.001469,-0.003330,-0.000099,0.311363,0.142291,-0.040551,-0.938702,9.775011,13.997861,-142.096260
58598,-2.814233,1.128710,10.486050,-0.237564,0.683656,1.078890,0.371662,-0.876824,-0.003028,-0.028602,0.011093,0.104757,0.999989,0.001858,-0.004384,-0.000015,0.310951,0.138723,-0.043633,-0.939235,9.963187,13.500338,-142.181637
58599,-2.274632,1.122067,10.298831,-0.541854,0.458676,0.770026,0.384913,-1.031931,0.007401,-0.023278,0.011022,0.102890,0.999985,0.001925,-0.005160,0.000037,0.310537,0.134439,-0.047023,-0.939831,10.156948,12.914412,-142.278488
58600,-1.780807,1.072003,9.904488,-0.772768,0.301864,0.273430,0.438127,-1.160810,0.030467,-0.018384,0.010500,0.098962,0.999981,0.002191,-0.005804,0.000152,0.310155,0.129624,-0.050879,-0.940432,10.381950,12.253954,-142.377394
58601,-1.166353,1.595976,9.433922,-0.752704,-0.389383,-0.211282,0.456352,-1.189805,0.061001,-0.012229,0.015741,0.094304,0.999980,0.002282,-0.005949,0.000305,0.309884,0.124686,-0.054882,-0.940964,10.620771,11.574215,-142.464361
58602,-1.174295,1.815299,9.302391,-0.521791,-0.463895,-0.287974,0.435437,-1.158116,0.069338,-0.012288,0.017946,0.092993,0.999981,0.002177,-0.005791,0.000347,0.309663,0.119860,-0.058741,-0.941431,10.849932,10.911931,-142.545649
58603,-1.125981,1.665286,9.331034,-0.589474,-0.273248,-0.289771,0.451576,-1.141749,0.092382,-0.011800,0.016437,0.093281,0.999981,0.002258,-0.005709,0.000462,0.309533,0.115122,-0.062662,-0.941812,11.091305,10.256467,-142.614595
58604,-1.006013,1.992070,9.691718,-0.530243,-0.486040,0.106544,0.539650,-1.113758,0.122052,-0.010612,0.019653,0.096912,0.999981,0.002698,-0.005569,0.000610,0.309489,0.110641,-0.066970,-0.942067,11.387097,9.613952,-142.666343
58605,-2.322848,1.877432,10.807303,0.219161,0.578609,1.382558,0.632078,-1.166094,0.173810,-0.023874,0.018412,0.107994,0.999978,0.003160,-0.005830,0.000869,0.309607,0.106031,-0.071818,-0.942201,11.739388,8.936160,-142.698404
58606,-3.913877,1.646369,12.026779,1.115872,1.968775,2.739085,0.891121,-1.472849,0.354707,-0.040052,0.015858,0.120047,0.999961,0.004456,-0.007364,0.001774,0.310312,0.100309,-0.078455,-0.942067,12.249707,8.065420,-142.669895
58607,-3.495899,2.600260,11.609794,1.530388,1.152466,2.438559,1.058267,-1.931131,0.611644,-0.036157,0.025280,0.115888,0.999935,0.005291,-0.009655,0.003058,0.311930,0.092574,-0.086709,-0.941600,12.865278,6.905984,-142.562794
58608,0.342748,3.832022,9.237145,-0.132208,-2.161289,-0.043683,0.886903,-2.037294,0.769293,0.002339,0.037920,0.092568,0.999931,0.004434,-0.010186,0.003846,0.314282,0.083993,-0.094385,-0.940884,13.387579,5.665959,-142.392897
58609,2.756437,2.731530,7.470435,-2.181803,-2.828356,-2.190044,0.587966,-1.631786,0.757219,0.026850,0.027198,0.075005,0.999955,0.002940,-0.008159,0.003786,0.316859,0.076845,-0.100000,-0.940051,13.738482,4.652021,-142.184908
58610,1.551952,1.907994,8.043770,-1.757718,-1.266204,-1.685125,0.565007,-1.165175,0.678064,0.014986,0.018904,0.080580,0.999973,0.002825,-0.005826,0.003390,0.319282,0.071889,-0.104732,-0.939107,14.074296,3.907413,-141.962953
58611,0.044251,2.140324,9.568658,-0.687994,-0.192042,-0.033583,0.446452,-0.966876,0.530675,-0.000077,0.021190,0.095735,0.999982,0.002232,-0.004834,0.002653,0.321146,0.067745,-0.108532,-0.938348,14.335717,3.292193,-141.799241
58612,0.060980,2.332913,10.062188,-0.625511,-0.180936,0.495994,0.261349,-0.927800,0.330743,0.000104,0.023198,0.100654,0.999987,0.001307,-0.004639,0.001654,0.322146,0.063598,-0.111331,-0.937967,14.483919,2.726918,-141.743272
58613,0.432434,1.696941,10.126695,-1.239148,0.161948,0.388006,0.087210,-0.888959,0.104194,0.003865,0.016927,0.101292,0.999990,0.000436,-0.004445,0.000521,0.322152,0.059473,-0.113175,-0.938015,14.526394,2.215232,-141.808557
58614,0.323639,1.801477,10.284282,-1.056211,0.241351,0.576827,0.128082,-0.880207,-0.048193,0.002788,0.017948,0.102867,0.999990,0.000640,-0.004401,-0.000241,0.321431,0.055543,-0.115150,-0.938263,14.590172,1.730783,-141.957505
58615,-0.236441,2.550629,10.866913,-0.209222,0.184021,1.348538,0.096182,-0.937467,-0.133818,-0.002857,0.025456,0.108669,0.999989,0.000481,-0.004687,-0.000669,0.320276,0.051338,-0.117040,-0.938664,14.635249,1.226677,-142.162735
58616,-0.222785,2.920599,10.709418,0.104941,-0.069502,1.289308,0.022348,-1.074082,-0.163664,-0.002779,0.029196,0.107084,0.999985,0.000112,-0.005370,-0.000818,0.318912,0.046393,-0.118792,-0.939165,14.639613,0.651675,-142.404380
58617,0.314280,2.679705,10.310966,-0.306268,-0.222356,0.838664,-0.060354,-1.156624,-0.192921,0.002572,0.026826,0.103118,0.999983,-0.000302,-0.005783,-0.000965,0.317371,0.040941,-0.120276,-0.939752,14.598680,0.034637,-142.674056
58618,0.960082,2.650075,9.871099,-0.677369,-0.613625,0.412128,-0.061313,-1.188586,-0.236276,0.009045,0.026520,0.098758,0.999982,-0.000307,-0.005943,-0.001181,0.315596,0.035366,-0.121795,-0.940380,14.560522,-0.593630,-142.971869
58619,0.780700,2.804383,9.909299,-0.359562,-0.552153,0.494258,-0.062819,-1.173897,-0.276342,0.007264,0.028065,0.099128,0.999982,-0.000314,-0.005869,-0.001382,0.313630,0.029876,-0.123270,-0.941036,14.524795,-1.208650,-143.289511
58620,1.387844,3.041683,9.629332,-0.581420,-1.096934,0.304610,-0.132056,-1.205623,-0.342059,0.013350,0.030457,0.096355,0.999980,-0.000660,-0.006028,-0.001710,0.311333,0.024172,-0.124456,-0.941806,14.454151,-1.831672,-143.647582
58621,2.377679,2.453781,8.915709,-1.550568,-1.325970,-0.485252,-0.122653,-1.128531,-0.377276,0.023320,0.024548,0.089274,0.999982,-0.000613,-0.005643,-0.001886,0.308906,0.018862,-0.125557,-0.942580,14.392719,-2.407833,-144.013702
58622,2.555797,2.677441,8.945843,-1.502931,-1.539828,-0.373491,-0.019185,-1.011098,-0.378245,0.025156,0.026735,0.089584,0.999985,-0.000096,-0.005055,-0.001891,0.306528,0.014270,-0.126960,-0.943249,14.393493,-2.918345,-144.363354
58623,2.218912,2.994985,9.567340,-1.054241,-1.388548,0.305979,0.044095,-0.943649,-0.349516,0.021790,0.029890,0.095783,0.999987,0.000220,-0.004718,-0.001748,0.304315,0.010068,-0.128557,-0.943803,14.431956,-3.396078,-144.687872
58624,1.490362,2.698009,10.179588,-0.628719,-0.525445,0.791664,0.127745,-0.991977,-0.272725,0.014435,0.026895,0.101885,0.999987,0.000639,-0.004960,-0.001364,0.302422,0.005723,-0.130622,-0.944164,14.519105,-3.910593,-144.977192
58625,2.005665,3.148337,9.938416,-0.703766,-1.153940,0.717221,0.204323,-1.098138,-0.186231,0.019540,0.031363,0.099524,0.999984,0.001022,-0.005491,-0.000931,0.300856,0.000928,-0.133209,-0.944320,14.650431,-4.496654,-145.235111
58626,2.384078,3.106873,9.845629,-0.957767,-1.278211,0.662081,0.128149,-1.104397,-0.165284,0.023322,0.030986,0.098606,0.999984,0.000641,-0.005522,-0.000826,0.299376,-0.004018,-0.135441,-0.944465,14.740126,-5.087978,-145.483476
58627,2.572821,2.451839,9.641899,-1.394642,-0.845789,0.333041,0.111717,-1.100005,-0.177270,0.025219,0.024442,0.096572,0.999984,0.000559,-0.005500,-0.000886,0.297832,-0.008967,-0.137586,-0.944609,14.823507,-5.675587,-145.739175
58628,2.330909,2.822860,9.665757,-0.914306,-0.919096,0.441430,0.118268,-1.084620,-0.176173,0.022809,0.028151,0.096799,0.999985,0.000591,-0.005423,-0.000881,0.296295,-0.013827,-0.139733,-0.944718,14.913161,-6.253608,-145.992953
58629,2.170149,2.679388,9.760425,-0.794757,-0.616919,0.489809,0.120715,-1.055971,-0.129863,0.021203,0.026721,0.097733,0.999986,0.000604,-0.005280,-0.000649,0.294988,-0.018588,-0.141844,-0.944731,15.003356,-6.823162,-146.218063
58630,1.442560,2.968378,9.966846,0.033176,-0.307559,0.681766,0.206968,-1.078755,-0.030879,0.013892,0.029578,0.099775,0.999985,0.001035,-0.005394,-0.000154,0.294132,-0.023391,-0.144381,-0.944507,15.139098,-7.418686,-146.392601
58631,2.016478,3.112214,9.347959,-0.257549,-0.832885,0.206062,0.199145,-1.098887,0.092912,0.019636,0.031038,0.093619,0.999984,0.000996,-0.005494,0.000465,0.293836,-0.028397,-0.146893,-0.944074,15.263454,-8.044516,-146.502943
58632,1.653879,2.881083,9.353112,-0.013855,-0.374409,0.105749,0.245311,-1.003713,0.198216,0.016041,0.028712,0.093648,0.999986,0.001227,-0.005019,0.000991,0.294105,-0.032954,-0.149462,-0.943439,15.405093,-8.632486,-146.541315
58633,1.122534,3.085231,9.763882,0.604000,-0.045689,0.470516,0.184288,-0.990910,0.245585,0.010703,0.030776,0.097721,0.999987,0.000921,-0.004955,0.001228,0.294588,-0.037584,-0.151715,-0.942755,15.507897,-9.221532,-146.552788
58634,1.646598,2.329275,9.338564,-0.171770,0.197101,-0.051723,0.133376,-0.973527,0.228318,0.015985,0.023249,0.093480,0.999987,0.000667,-0.004868,0.001142,0.294987,-0.042184,-0.153699,-0.942115,15.583000,-9.797317,-146.571932
58635,1.253933,2.319558,9.531576,0.216176,0.543887,0.059513,0.172054,-0.928842,0.226710,0.012070,0.023127,0.095392,0.999988,0.000860,-0.004644,0.001134,0.295412,-0.046523,-0.155798,-0.941432,15.679494,-10.349144,-146.586105
58636,1.281083,2.629526,9.500977,0.441494,0.346886,0.112435,0.214071,-0.941026,0.288547,0.012326,0.026212,0.095097,0.999987,0.001070,-0.004705,0.001443,0.296122,-0.050896,-0.158093,-0.940600,15.794391,-10.916299,-146.568340
58637,1.781657,2.620047,9.020944,0.093474,-0.004480,-0.251992,0.248351,-0.887440,0.387288,0.017365,0.026122,0.090320,0.999988,0.001242,-0.004437,0.001936,0.297340,-0.055051,-0.160442,-0.939583,15.916495,-11.470342,-146.487920
58638,1.756215,2.514187,8.811764,0.113262,0.087743,-0.483622,0.305338,-0.795468,0.476842,0.017152,0.025048,0.088225,0.999988,0.001527,-0.003977,0.002384,0.299061,-0.058751,-0.162891,-0.938391,16.057550,-11.987109,-146.343233
58639,1.646658,2.463529,8.940441,0.229239,0.295300,-0.401437,0.338164,-0.719553,0.523115,0.016080,0.024526,0.089504,0.999989,0.001691,-0.003598,0.002616,0.301062,-0.062090,-0.165366,-0.937102,16.208203,-12.470735,-146.161404
58640,1.248034,2.350737,9.335967,0.543025,0.800761,-0.153122,0.333072,-0.680192,0.525592,0.012101,0.023384,0.093440,0.999989,0.001665,-0.003401,0.002628,0.303101,-0.065246,-0.167751,-0.935806,16.353011,-12.932651,-145.972436
58641,0.417314,1.965489,9.693265,1.041847,1.743744,-0.124039,0.396859,-0.745503,0.534871,0.003759,0.019473,0.096986,0.999988,0.001984,-0.003728,0.002674,0.305141,-0.068624,-0.170528,-0.934398,16.534246,-13.433353,-145.790282
58642,0.981822,2.761883,9.368275,1.103668,0.796567,-0.091418,0.437515,-0.825866,0.586411,0.009350,0.027442,0.093782,0.999985,0.002188,-0.004129,0.002932,0.307359,-0.072350,-0.173594,-0.932824,16.733853,-13.986345,-145.593694
58643,1.286913,2.965681,8.699109,1.018503,0.311326,-0.593638,0.421680,-0.798629,0.674797,0.012422,0.029516,0.087104,0.999984,0.002108,-0.003993,0.003374,0.309998,-0.076054,-0.176507,-0.931108,16.909295,-14.540430,-145.343969
58644,1.982581,3.200752,8.202421,0.646372,-0.360395,-0.817865,0.403720,-0.694325,0.757207,0.019420,0.031916,0.082157,0.999985,0.002019,-0.003472,0.003786,0.313096,-0.079364,-0.179138,-0.929291,17.056039,-15.051076,-145.030347
58645,1.808126,3.061637,8.286064,0.753783,-0.065851,-0.827766,0.361388,-0.549995,0.789430,0.017733,0.030537,0.082965,0.999987,0.001807,-0.002750,0.003947,0.316447,-0.082103,-0.181329,-0.927491,17.164592,-15.489496,-144.673835
58646,1.541683,3.002009,8.542943,0.981037,0.279444,-0.684169,0.266095,-0.468859,0.721243,0.015108,0.029961,0.085505,0.999990,0.001330,-0.002344,0.003606,0.319509,-0.084546,-0.182972,-0.925898,17.222787,-15.871755,-144.341629
58647,1.604203,2.152421,8.574031,0.443700,0.917332,-0.886220,0.164670,-0.416712,0.568537,0.015802,0.021499,0.085791,0.999993,0.000823,-0.002084,0.002843,0.321863,-0.086775,-0.184125,-0.924647,17.242201,-16.200417,-144.086980
58648,1.621946,2.250279,8.462285,0.519468,0.824832,-0.960886,0.142170,-0.391297,0.388037,0.016010,0.022474,0.084670,0.999996,0.000711,-0.001956,0.001940,0.323394,-0.088749,-0.185208,-0.923709,17.275114,-16.483958,-143.930376
58649,2.234107,1.984013,7.975563,-0.116181,0.500621,-1.311338,0.002455,-0.314101,0.186143,0.022197,0.019860,0.079791,0.999998,0.000012,-0.001571,0.000931,0.323999,-0.090411,-0.185610,-0.923255,17.256175,-16.691525,-143.875278
58650,1.897179,1.547684,8.298223,-0.096109,1.148650,-1.237930,0.013731,-0.202310,0.030978,0.018885,0.015474,0.083002,0.999999,0.000069,-0.001012,0.000155,0.323996,-0.091388,-0.185953,-0.923091,17.263466,-16.810963,-143.888821
58651,1.556884,2.155742,9.094679,0.602833,1.234697,-0.437380,0.021414,-0.191405,-0.056886,0.015488,0.021543,0.090964,0.999999,0.000107,-0.000957,-0.000284,0.323601,-0.092226,-0.186353,-0.923065,17.289046,-16.910027,-143.950776
58652,1.379487,2.009167,9.182701,0.664587,1.490810,-0.453333,0.050993,-0.254164,-0.105967,0.013689,0.020061,0.091850,0.999999,0.000255,-0.001271,-0.000530,0.322934,-0.093255,-0.187013,-0.923062,17.343337,-17.034462,-144.052022
58653,2.129601,2.488992,8.747721,0.377029,0.566208,-0.496566,0.063464,-0.271378,-0.147125,0.021196,0.024847,0.087514,0.999999,0.000317,-0.001357,-0.000736,0.322066,-0.094309,-0.187777,-0.923103,17.412671,-17.161617,-144.180139
58654,2.080884,2.369470,8.524390,0.336605,0.608668,-0.750355,0.090343,-0.237648,-0.178354,0.020729,0.023638,0.085279,0.999999,0.000452,-0.001188,-0.000892,0.321098,-0.095131,-0.188626,-0.923183,17.501426,-17.264345,-144.320283
58655,2.207670,3.092848,8.550694,0.699897,0.044153,-0.481982,0.071532,-0.206766,-0.188540,0.022017,0.030877,0.085541,0.999999,0.000358,-0.001034,-0.000943,0.320102,-0.095834,-0.189342,-0.923309,17.579540,-17.348657,-144.460914
58656,2.523445,3.038503,8.429328,0.417538,-0.128116,-0.514135,0.027583,-0.152188,-0.160911,0.025195,0.030353,0.084317,0.999999,0.000138,-0.000761,-0.000805,0.319264,-0.096377,-0.189755,-0.923458,17.625226,-17.407394,-144.575959
58657,2.261618,3.187797,8.837740,0.741636,0.087740,-0.178121,0.055364,-0.127333,-0.074751,0.022572,0.031845,0.088401,1.000000,0.000277,-0.000637,-0.000374,0.318860,-0.096847,-0.190214,-0.923454,17.670643,-17.467819,-144.637276
58658,2.556810,3.547810,8.949007,0.751403,-0.279918,0.115353,0.013867,-0.137789,0.029642,0.025501,0.035476,0.089510,1.000000,0.000069,-0.000689,0.000148,0.318908,-0.097526,-0.190448,-0.923318,17.675161,-17.551705,-144.640774
58659,2.752039,3.153211,8.630718,0.346540,-0.226515,-0.229664,-0.008745,-0.112110,0.108211,0.027455,0.031551,0.086321,1.000000,-0.000044,-0.000561,0.000541,0.319332,-0.098201,-0.190498,-0.923089,17.651550,-17.635572,-144.594598
58660,2.852143,2.985160,8.549725,0.172147,-0.191118,-0.321770,-0.042109,-0.069521,0.132740,0.028472,0.029889,0.085501,1.000000,-0.000211,-0.000348,0.000664,0.319893,-0.098753,-0.190315,-0.922874,17.602279,-17.700070,-144.526512
58661,2.979768,2.764599,8.474130,-0.058483,-0.135523,-0.415289,-0.046643,-0.011091,0.131428,0.029775,0.027685,0.084736,1.000000,-0.000233,-0.000055,0.000657,0.320502,-0.099044,-0.190017,-0.922693,17.547198,-17.732698,-144.448517
58662,2.519420,2.697939,8.939174,0.292103,0.355331,-0.152273,-0.037426,0.033861,0.129108,0.025192,0.027012,0.089382,1.000000,-0.000187,0.000169,0.000646,0.321146,-0.099108,-0.189691,-0.922529,17.495418,-17.739965,-144.363642
58663,2.357873,2.885396,9.141647,0.554581,0.388429,0.035985,-0.048895,-0.000147,0.124108,0.023561,0.028891,0.091409,1.000000,-0.000244,-0.000001,0.000621,0.321730,-0.099345,-0.189369,-0.922366,17.439652,-17.765201,-144.287788
58664,2.647943,2.688697,8.752572,0.190450,0.203511,-0.285331,-0.053175,0.005549,0.120335,0.026466,0.026926,0.087518,1.000000,-0.000266,0.000028,0.000602,0.322299,-0.099557,-0.189020,-0.922217,17.381877,-17.786286,-144.213013
58665,2.511972,2.855560,8.771211,0.408555,0.160195,-0.262516,-0.059305,0.044868,0.098343,0.025125,0.028594,0.087698,1.000000,-0.000297,0.000224,0.000492,0.322801,-0.099578,-0.188589,-0.922127,17.322136,-17.782322,-144.143804
58666,2.656989,2.676028,8.882278,0.193946,0.244471,-0.168094,-0.092508,0.075451,0.067613,0.026594,0.026810,0.088800,1.000000,-0.000463,0.000377,0.000338,0.323173,-0.099481,-0.187972,-0.922133,17.247249,-17.756033,-144.086776
58667,2.127498,2.653814,9.328360,0.617634,0.730536,0.070233,-0.025733,0.056873,0.049141,0.021295,0.026555,0.093274,1.000000,-0.000129,0.000284,0.000246,0.323476,-0.099346,-0.187702,-0.922096,17.214762,-17.736982,-144.043716
58668,2.676827,3.137313,9.163475,0.491800,0.002894,0.224023,-0.021249,0.015386,0.042047,0.026769,0.031388,0.091629,1.000000,-0.000106,0.000077,0.000210,0.323709,-0.099387,-0.187523,-0.922047,17.188479,-17.739158,-144.012114
58669,3.102338,2.913329,8.574868,-0.012868,-0.318340,-0.245094,0.006327,0.040882,0.060453,0.031032,0.029140,0.085743,1.000000,0.000032,0.000204,0.000302,0.324065,-0.099284,-0.187420,-0.921953,17.173262,-17.730692,-143.965405
58670,3.251649,3.061308,8.485815,-0.041320,-0.548412,-0.239213,0.051444,0.109860,0.108033,0.032547,0.030609,0.084848,1.000000,0.000257,0.000549,0.000540,0.324727,-0.098833,-0.187391,-0.921775,17.172005,-17.692299,-143.879111
58671,2.986711,3.334205,8.786312,0.349281,-0.477711,0.030403,0.056589,0.154746,0.156860,0.029909,0.033341,0.087849,0.999999,0.000283,0.000774,0.000784,0.325658,-0.098214,-0.187287,-0.921534,17.162731,-17.637811,-143.756838
58672,2.655803,2.757888,8.946210,0.240178,0.181879,-0.086273,0.056315,0.147421,0.172585,0.026600,0.027577,0.089450,0.999999,0.000282,0.000737,0.000863,0.326654,-0.097642,-0.187187,-0.921262,17.151187,-17.589742,-143.626864
58673,2.921800,2.717526,8.805714,-0.002902,-0.001533,-0.145089,0.061288,0.107883,0.138425,0.029247,0.027169,0.088050,1.000000,0.000306,0.000539,0.000692,0.327458,-0.097214,-0.187191,-0.921021,17.150540,-17.557751,-143.523568
58674,3.121487,2.308438,8.664290,-0.431730,0.115942,-0.328877,0.051766,0.127215,0.067566,0.031262,0.023073,0.086629,1.000000,0.000259,0.000636,0.000338,0.327949,-0.096644,-0.187153,-0.920914,17.155829,-17.502990,-143.457532
58675,2.956073,2.436805,8.920764,-0.219051,0.218589,-0.109047,0.076023,0.134040,-0.010180,0.029622,0.024333,0.089197,1.000000,0.000380,0.000670,-0.000051,0.328100,-0.095933,-0.187253,-0.920915,17.188015,-17.431586,-143.434924
58676,3.098497,2.726386,8.914843,-0.156324,-0.074795,0.009646,0.063737,0.122468,-0.058134,0.031047,0.027226,0.089138,1.000000,0.000319,0.000612,-0.000291,0.328013,-0.095247,-0.187339,-0.920999,17.222117,-17.358178,-143.441824
58677,2.730825,2.984931,9.214890,0.293695,0.070587,0.246645,0.090530,0.095679,-0.043675,0.027359,0.029802,0.092149,1.000000,0.000453,0.000478,-0.000218,0.327980,-0.094657,-0.187584,-0.921022,17.270384,-17.302109,-143.445160
58678,2.552158,3.530641,9.342890,0.778066,-0.162595,0.465284,0.079881,0.014119,0.017926,0.025525,0.035271,0.093441,1.000000,0.000399,0.000071,0.000090,0.328149,-0.094515,-0.187886,-0.920915,17.306475,-17.300916,-143.427685
58679,3.396456,3.216906,8.717874,-0.102207,-0.670465,0.057761,0.021488,-0.012016,0.046213,0.033952,0.032168,0.087184,1.000000,0.000107,-0.000060,0.000231,0.328397,-0.094618,-0.187948,-0.920803,17.305587,-17.319048,-143.398685
58680,3.279133,3.004879,8.700498,-0.149169,-0.457342,-0.053114,0.071489,0.033254,0.038776,0.032800,0.030024,0.087010,1.000000,0.000357,0.000166,0.000194,0.328676,-0.094422,-0.188169,-0.920679,17.332293,-17.310954,-143.365844
58681,2.910443,3.075494,9.101226,0.195218,-0.131304,0.222566,0.071975,0.036091,0.048261,0.029113,0.030729,0.091018,1.000000,0.000360,0.000180,0.000241,0.329001,-0.094222,-0.188384,-0.920539,17.357454,-17.303172,-143.327094
58682,2.899325,3.031669,9.284825,0.181790,-0.014431,0.374158,0.092145,0.012451,0.068089,0.028989,0.030284,0.092860,1.000000,0.000461,0.000062,0.000340,0.329406,-0.094115,-0.188721,-0.920336,17.392111,-17.311499,-143.281185
58683,3.103434,2.827171,9.202175,-0.111146,-0.012861,0.301249,0.095839,-0.006430,0.080387,0.031020,0.028240,0.092036,1.000000,0.000479,-0.000032,0.000402,0.329850,-0.094102,-0.189100,-0.920101,17.427739,-17.332505,-143.231663
58684,3.191971,2.670231,9.122038,-0.285770,0.022396,0.209699,0.118823,0.010565,0.066853,0.031916,0.026659,0.091235,1.000000,0.000594,0.000053,0.000334,0.330259,-0.093959,-0.189563,-0.919873,17.477973,-17.341711,-143.186807
58685,3.008725,2.713138,9.320056,-0.112989,0.185213,0.347524,0.104950,0.010856,0.024241,0.030089,0.027086,0.093213,1.000000,0.000525,0.000054,0.000121,0.330465,-0.093798,-0.189982,-0.919729,17.527455,-17.343682,-143.166334
58686,3.283537,2.377585,9.204796,-0.550163,0.224683,0.227713,0.081017,0.012563,-0.059123,0.032848,0.023729,0.092056,1.000000,0.000405,0.000063,-0.000296,0.330279,-0.093588,-0.190327,-0.919746,17.577408,-17.330103,-143.193226
58687,2.780451,2.415572,9.500435,-0.136677,0.616104,0.357164,0.151791,-0.005682,-0.109581,0.027815,0.024068,0.095023,1.000000,0.000759,-0.000028,-0.000548,0.329876,-0.093299,-0.191051,-0.919770,17.677400,-17.317936,-143.252304
58688,2.900321,2.832367,9.458176,0.027539,0.250093,0.474583,0.173118,-0.076884,-0.117091,0.028983,0.028225,0.094617,0.999999,0.000866,-0.000384,-0.000585,0.329380,-0.093293,-0.191994,-0.919752,17.794850,-17.342970,-143.328644
58689,3.064199,3.085646,9.128818,0.041448,-0.140462,0.297919,0.184347,-0.077694,-0.104321,0.030623,0.030756,0.091328,0.999999,0.000922,-0.000388,-0.000522,0.328947,-0.093286,-0.192983,-0.919700,17.916547,-17.370760,-143.397915
58690,2.748781,3.739192,9.241210,0.700914,-0.359813,0.498304,0.143088,-0.080649,-0.056731,0.027461,0.037318,0.092450,1.000000,0.000715,-0.000403,-0.000284,0.328711,-0.093405,-0.193766,-0.919608,18.006809,-17.408224,-143.440604
58691,3.235879,3.423433,8.861061,0.108152,-0.559207,0.206534,0.055899,-0.074164,0.004929,0.032325,0.034210,0.088632,1.000000,0.000279,-0.000371,0.000025,0.328723,-0.093699,-0.194108,-0.919502,18.036174,-17.453254,-143.446951
58692,3.239472,3.460964,8.845828,0.131674,-0.585856,0.205324,0.083391,-0.036280,0.071742,0.032366,0.034584,0.088479,1.000000,0.000417,-0.000181,0.000359,0.329092,-0.093836,-0.194483,-0.919277,18.067807,-17.489294,-143.408092
58693,3.238094,3.293708,8.827934,0.028210,-0.468197,0.139507,0.049209,-0.015645,0.113197,0.032355,0.032934,0.088290,1.000000,0.000246,-0.000078,0.000566,0.329656,-0.093977,-0.194647,-0.919026,18.071517,-17.521699,-143.341757
58694,3.466110,2.940547,8.595069,-0.379792,-0.443536,-0.107277,0.050432,0.016463,0.121028,0.034650,0.029405,0.085955,1.000000,0.000252,0.000082,0.000605,0.330287,-0.093974,-0.194760,-0.918775,18.072787,-17.537784,-143.264914
58695,3.567764,2.899466,8.613216,-0.482646,-0.466184,-0.072408,0.034064,0.080268,0.097053,0.035698,0.028997,0.086123,1.000000,0.000170,0.000401,0.000485,0.330862,-0.093683,-0.194704,-0.918610,18.065206,-17.515102,-143.189933
58696,3.096690,2.477687,9.247939,-0.372156,0.362760,0.236327,0.056603,0.114900,0.065549,0.031012,0.024761,0.092469,1.000000,0.000283,0.000575,0.000328,0.331337,-0.093163,-0.194709,-0.918490,18.074076,-17.467704,-143.126448
58697,2.368312,2.872098,9.954605,0.461424,0.799451,0.775040,0.097801,0.012191,0.032058,0.023685,0.028676,0.099559,1.000000,0.000489,0.000061,0.000160,0.331577,-0.093017,-0.195089,-0.918338,18.118026,-17.470589,-143.101289
58698,3.138979,2.550027,9.464520,-0.355481,0.386560,0.466279,0.043678,-0.076858,-0.027400,0.031357,0.025475,0.094663,1.000000,0.000218,-0.000384,-0.000137,0.331432,-0.093309,-0.195395,-0.918296,18.146199,-17.511097,-143.126665
58699,3.050245,2.632343,9.377263,-0.237190,0.353676,0.384612,0.097832,-0.091483,-0.070021,0.030469,0.026267,0.093799,1.000000,0.000489,-0.000457,-0.000350,0.331102,-0.093539,-0.195994,-0.918264,18.213517,-17.552176,-143.179192
58700,2.918281,3.021491,9.439385,0.117438,0.194929,0.516686,0.077395,-0.113825,-0.075911,0.029141,0.030167,0.094422,1.000000,0.000387,-0.000569,-0.000380,0.330713,-0.093897,-0.196539,-0.918251,18.271536,-17.604053,-143.239307
58701,2.980359,3.105747,9.265864,0.119173,0.041139,0.403404,0.087845,-0.129839,-0.061564,0.029753,0.031008,0.092692,1.000000,0.000439,-0.000649,-0.000308,0.330380,-0.094327,-0.197151,-0.918196,18.333974,-17.667402,-143.294361
58702,3.110623,3.316911,9.126887,0.152647,-0.226019,0.380621,0.078402,-0.126848,-0.051789,0.031057,0.033125,0.091302,1.000000,0.000392,-0.000634,-0.000259,0.330089,-0.094767,-0.197711,-0.918134,18.389303,-17.730596,-143.343329
58703,3.203332,3.237311,8.902149,0.023799,-0.305687,0.182099,0.072421,-0.092800,-0.019401,0.031995,0.032338,0.089048,1.000000,0.000362,-0.000464,-0.000097,0.329978,-0.095094,-0.198171,-0.918041,18.433589,-17.781334,-143.367443
58704,3.560756,3.560477,8.728283,-0.046960,-0.801755,0.231907,0.060286,-0.030292,0.030431,0.035589,0.035584,0.087299,1.000000,0.000301,-0.000151,0.000152,0.330152,-0.095202,-0.198448,-0.917908,18.458692,-17.806884,-143.351217
58705,3.791989,3.378339,8.510485,-0.350437,-0.895211,0.051211,0.071304,0.066573,0.109946,0.037930,0.033774,0.085104,1.000000,0.000357,0.000333,0.000550,0.330791,-0.094928,-0.198579,-0.917678,18.470547,-17.794482,-143.271200
58706,3.575153,3.158122,8.860109,-0.316739,-0.467111,0.234126,0.181104,0.153343,0.247747,0.035780,0.031545,0.088602,0.999999,0.000906,0.000767,0.001239,0.332201,-0.094209,-0.199004,-0.917150,18.516325,-17.759758,-143.095946
58707,2.956324,4.164247,9.415372,0.820737,-0.569995,0.851810,0.329991,0.146664,0.446625,0.029539,0.041553,0.094201,0.999996,0.001650,0.000733,0.002233,0.334584,-0.093473,-0.200029,-0.916136,18.613208,-17.765448,-142.808583
58708,2.608032,3.786786,9.509845,0.841780,-0.046899,0.716696,0.285580,0.082717,0.572772,0.026011,0.037807,0.095142,0.999995,0.001428,0.000414,0.002864,0.337457,-0.093227,-0.200895,-0.914917,18.666261,-17.829014,-142.461475
58709,3.198324,3.440685,8.960520,0.156041,-0.365192,0.296751,0.343942,0.031978,0.605017,0.031894,0.034349,0.089659,0.999994,0.001720,0.000160,0.003025,0.340450,-0.093148,-0.202098,-0.913550,18.749656,-17.926702,-142.105779
58710,3.263838,3.356170,8.684004,0.048757,-0.446356,0.042606,0.288782,0.071542,0.551569,0.032577,0.033526,0.086877,0.999995,0.001444,0.000358,0.002758,0.343210,-0.092925,-0.203003,-0.912338,18.807953,-17.993222,-141.772773
58711,3.559152,2.545542,8.351148,-0.720047,-0.197269,-0.414197,0.400562,0.119181,0.533402,0.035574,0.025383,0.083541,0.999994,0.002003,0.000596,0.002667,0.345983,-0.092276,-0.204344,-0.911057,18.930396,-18.031323,-141.440947
58712,3.255964,3.933499,8.793188,0.437482,-0.743321,0.318940,0.518236,0.179872,0.636245,0.032514,0.039210,0.088004,0.999991,0.002591,0.000899,0.003181,0.349336,-0.091248,-0.206064,-0.909492,19.098208,-18.056268,-141.038564
58713,2.875102,3.565847,8.605260,0.459572,-0.320158,-0.080362,0.604142,0.179968,0.821608,0.028682,0.035516,0.086134,0.999987,0.003021,0.000900,0.004108,0.353563,-0.090262,-0.208087,-0.907494,19.282252,-18.117551,-140.530734
58714,3.178063,5.157724,8.192706,1.310544,-1.695962,0.148665,0.804834,0.249544,1.071084,0.031607,0.051417,0.082095,0.999977,0.004024,0.001248,0.005355,0.359073,-0.088858,-0.210776,-0.904845,19.532120,-18.190254,-139.867031
58715,2.303855,5.269648,8.280164,2.030395,-1.141835,-0.003939,0.644569,0.355330,1.218879,0.022865,0.052569,0.082930,0.999975,0.003223,0.001777,0.006094,0.365273,-0.087417,-0.212476,-0.902102,19.656733,-18.236618,-139.098113
58716,2.469143,4.449432,7.666762,1.343883,-0.944164,-0.758644,0.802985,0.432695,1.348370,0.024558,0.044352,0.076793,0.999967,0.004015,0.002163,0.006742,0.372188,-0.085468,-0.214679,-0.898935,19.843481,-18.268016,-138.239717
58717,2.305660,4.372540,7.408332,1.402581,-0.857750,-1.059670,1.016104,0.558237,1.542317,0.022928,0.043526,0.074241,0.999953,0.005080,0.002791,0.007711,0.380169,-0.082762,-0.217508,-0.895160,20.109781,-18.273266,-137.245690
58718,2.052523,5.562505,7.389321,2.424444,-1.362997,-0.756200,1.262456,0.694096,1.817738,0.020278,0.055342,0.074172,0.999933,0.006312,0.003470,0.009088,0.389591,-0.079267,-0.221040,-0.890549,20.459225,-18.265014,-136.067242
58719,2.579902,5.065889,6.746517,1.719384,-1.622501,-1.312962,1.388122,0.908319,2.117946,0.025571,0.050461,0.067699,0.999910,0.006940,0.004541,0.010589,0.400573,-0.074894,-0.224564,-0.885157,20.814477,-18.209638,-134.674174
58720,1.935478,5.614875,6.834659,2.548677,-1.371983,-1.233275,1.642997,1.159194,2.488530,0.019056,0.055824,0.068695,0.999872,0.008215,0.005796,0.012442,0.413486,-0.069299,-0.228522,-0.878638,21.235379,-18.104991,-133.018311
58721,1.381048,5.881621,7.243904,3.063900,-0.832473,-0.930506,1.593647,1.374195,2.699495,0.013520,0.058421,0.072812,0.999854,0.007968,0.006871,0.013497,0.427439,-0.063084,-0.231688,-0.871572,21.581216,-17.940539,-131.197669
58722,1.635458,4.047080,6.649556,1.498857,-0.233791,-2.004454,1.588953,1.568676,2.702915,0.016333,0.040162,0.066687,0.999846,0.007944,0.007843,0.013514,0.441504,-0.056017,-0.234342,-0.864304,21.916665,-17.683367,-129.332640
58723,1.317220,4.076979,7.225477,1.584710,0.295508,-1.568603,1.627308,1.770710,2.560278,0.013295,0.040350,0.072467,0.999846,0.008136,0.008853,0.012801,0.455062,-0.047807,-0.236689,-0.857095,22.295380,-17.299459,-127.503299
58724,0.552551,2.642529,7.830647,0.682381,1.851767,-1.768381,1.667011,1.833244,2.424320,0.005929,0.025842,0.078470,0.999850,0.008335,0.009166,0.012121,0.467984,-0.039063,-0.239019,-0.849903,22.726889,-16.864771,-125.735865
58725,1.495739,2.729713,7.261194,0.177720,0.836539,-1.958985,2.043320,1.826679,2.437751,0.015293,0.026739,0.072748,0.999832,0.010216,0.009133,0.012188,0.480878,-0.029470,-0.242890,-0.841958,23.385476,-16.452795,-123.962566
58726,1.896210,3.783234,7.032373,0.750794,-0.008340,-1.639693,2.085314,1.965817,2.468875,0.019192,0.037334,0.070527,0.999821,0.010426,0.009828,0.012344,0.493913,-0.019219,-0.246508,-0.833615,24.065993,-15.994748,-122.137676
58727,1.476210,3.026275,6.896457,0.240030,0.580183,-2.163968,2.111587,2.114170,2.449084,0.015126,0.029717,0.069122,0.999813,0.010557,0.010570,0.012245,0.506868,-0.008251,-0.249788,-0.824998,24.769921,-15.475957,-120.286080
58728,1.070523,3.568580,7.670236,0.560259,1.042314,-1.368115,2.016424,2.196738,2.347011,0.011136,0.035040,0.076937,0.999820,0.010082,0.010983,0.011734,0.519318,0.002944,-0.252373,-0.816461,25.444038,-14.910840,-118.466829
58729,0.537958,3.177197,8.073395,0.195038,1.772286,-1.304940,1.898403,2.228053,2.188638,0.005938,0.031067,0.080967,0.999833,0.009491,0.011140,0.010943,0.530981,0.014162,-0.254310,-0.808199,26.087938,-14.310476,-116.722488
58730,-1.396754,5.746840,10.315252,2.354616,3.540206,1.291320,1.623834,2.070981,1.962454,-0.013453,0.056494,0.103755,0.999865,0.008119,0.010354,0.009812,0.541392,0.024298,-0.255456,-0.800654,26.629499,-13.750591,-115.137006
58731,0.265918,2.132065,9.399241,-1.320332,2.715483,-0.656112,0.965959,1.796665,1.615979,0.003334,0.020892,0.094066,0.999915,0.004830,0.008983,0.008080,0.550025,0.031995,-0.254618,-0.794744,26.868473,-13.252172,-113.806403
58732,1.600062,0.661398,8.364985,-2.884146,1.435767,-1.901374,1.133668,1.729110,1.318941,0.016681,0.006249,0.083544,0.999925,0.005668,0.008645,0.006595,0.557278,0.040255,-0.254540,-0.789323,27.253561,-12.717894,-112.649330
58733,1.457400,1.835882,8.845545,-2.098347,1.336431,-1.006606,1.056959,1.729427,1.114955,0.015238,0.017975,0.088421,0.999933,0.005285,0.008647,0.005575,0.563662,0.048559,-0.254083,-0.784455,27.628771,-12.137000,-111.597379
58734,1.824322,1.586233,8.354139,-2.369521,0.785542,-1.481876,0.968713,1.763197,0.990164,0.018902,0.015550,0.083453,0.999937,0.004843,0.008816,0.004951,0.569549,0.056896,-0.253120,-0.779941,27.974836,-11.512209,-110.599424
58735,1.616714,1.792542,8.238186,-2.169609,0.777473,-1.543399,0.902956,1.848424,0.857874,0.016852,0.017625,0.082308,0.999938,0.004515,0.009242,0.004289,0.574975,0.065541,-0.251589,-0.775765,28.303200,-10.814284,-109.644755
58736,4.030848,0.309660,6.042469,-3.441175,-1.958066,-3.715351,0.733670,2.050918,0.550866,0.040917,0.002988,0.060018,0.999937,0.003668,0.010254,0.002754,0.579449,0.074860,-0.248686,-0.772522,28.565161,-9.935499,-108.790009
58737,5.912657,-1.472523,4.255939,-4.854748,-4.019514,-5.874116,0.713676,2.636382,0.003951,0.059681,-0.014874,0.041722,0.999907,0.003568,0.013182,0.000020,0.582455,0.087052,-0.243768,-0.770549,28.850316,-8.616025,-108.049105
58738,4.841369,-0.440556,5.228248,-4.066393,-3.121992,-4.844772,0.737904,3.280320,-0.617090,0.049248,-0.004748,0.051462,0.999854,0.003689,0.016401,-0.003085,0.583705,0.102531,-0.236738,-0.769890,29.186578,-6.805274,-107.437388
58739,2.432329,1.284430,6.617672,-2.561889,-1.071285,-3.206474,0.900680,3.678764,-1.024721,0.025600,0.012418,0.065770,0.999808,0.004503,0.018393,-0.005123,0.583577,0.120462,-0.228884,-0.769766,29.645060,-4.685551,-106.907411
58740,-0.103503,5.119835,8.276175,0.502061,0.583115,-0.111495,0.933625,3.898538,-1.286178,0.000909,0.050810,0.082994,0.999778,0.004668,0.019491,-0.006430,0.582433,0.139589,-0.220263,-0.769916,30.146039,-2.386146,-106.428474
58741,-3.561905,7.636561,11.167360,2.004512,3.439487,3.597818,0.498890,3.682561,-1.338072,-0.033042,0.076312,0.112488,0.999805,0.002494,0.018412,-0.006690,0.580914,0.156613,-0.210471,-0.770528,30.418201,-0.182262,-106.023018
58742,-2.902847,5.478917,10.650743,0.103149,2.811601,2.185318,0.039547,3.247213,-1.338903,-0.026927,0.054953,0.106967,0.999846,0.000198,0.016235,-0.006694,0.579091,0.170577,-0.200098,-0.771698,30.440413,1.806110,-105.738600
58743,-1.445140,2.886503,9.550939,-2.001279,1.572778,-0.058071,0.037845,3.003252,-1.632554,-0.012779,0.028956,0.095715,0.999854,0.000189,0.015016,-0.008162,0.575719,0.183835,-0.190115,-0.773698,30.460849,3.758991,-105.669315
58744,-1.997773,1.836014,9.466215,-2.759232,2.064045,-0.588296,0.043086,2.817852,-2.159046,-0.018442,0.018544,0.094933,0.999842,0.000215,0.014089,-0.010795,0.569956,0.196838,-0.180145,-0.777144,30.460689,5.773374,-105.914416
58745,-2.246807,1.281367,9.273199,-3.120585,2.159474,-0.965444,0.181308,2.668596,-2.777755,-0.021048,0.013028,0.093031,0.999814,0.000906,0.013342,-0.013888,0.561323,0.210143,-0.170465,-0.782111,30.488744,7.893834,-106.511369
58746,-1.957412,1.598397,8.937726,-2.847546,1.489494,-1.098646,0.252689,2.684419,-3.413300,-0.018097,0.016188,0.089647,0.999764,0.001263,0.013421,-0.017065,0.549908,0.224165,-0.160282,-0.788455,30.485462,10.207089,-107.424077
58747,-2.553444,2.275356,8.820129,-2.151754,1.498544,-0.723914,0.276278,2.813044,-3.950500,-0.023836,0.023113,0.088576,0.999705,0.001381,0.014064,-0.019751,0.536161,0.239067,-0.149149,-0.795696,30.409146,12.739226,-108.578205
58748,-3.230887,3.677859,8.705496,-0.882073,1.205756,0.061631,0.400225,3.051360,-4.279617,-0.030181,0.037265,0.087601,0.999653,0.002001,0.015255,-0.021396,0.520792,0.255345,-0.137384,-0.802932,30.325198,15.482981,-109.844524
58749,-3.761756,5.606277,8.492659,0.753586,0.399670,1.001757,0.293180,3.355642,-4.343726,-0.034958,0.056716,0.085611,0.999622,0.001466,0.016776,-0.021716,0.505135,0.272422,-0.124213,-0.809442,30.128913,18.392848,-111.076984
58750,-4.002365,6.631193,8.176361,1.619124,-0.399025,1.324290,0.168668,3.707569,-4.089260,-0.037133,0.067022,0.082526,0.999619,0.000843,0.018535,-0.020444,0.490513,0.290247,-0.109906,-0.814293,29.872367,21.399733,-112.101320
58751,-4.945075,7.193537,8.247124,2.134757,-0.468179,1.994322,0.057698,3.939349,-3.568905,-0.046520,0.072759,0.083428,0.999647,0.000288,0.019694,-0.017842,0.477939,0.308243,-0.095249,-0.816999,29.625125,24.369670,-112.808962
58752,-6.621828,6.924831,8.659276,2.087354,0.423864,2.923679,-0.033171,3.931335,-2.909209,-0.063483,0.070200,0.087847,0.999701,-0.000166,0.019655,-0.014545,0.467885,0.325478,-0.081199,-0.817652,29.439293,27.146789,-113.182418
58753,-7.786995,5.607579,8.834936,1.244321,1.513743,3.081959,0.035223,3.663006,-2.325270,-0.075576,0.056948,0.089758,0.999765,0.000176,0.018314,-0.011625,0.459749,0.341364,-0.068959,-0.816913,29.386252,29.625005,-113.326127
58754,-7.907947,5.029455,9.078931,0.524338,1.392733,3.149604,0.146508,3.332412,-2.182378,-0.076997,0.051075,0.092121,0.999801,0.000732,0.016661,-0.010911,0.451693,0.355961,-0.058151,-0.816017,29.376931,31.897886,-113.499703
58755,-8.232923,4.185203,9.785305,-0.575166,1.498195,3.545892,-0.000271,3.023856,-2.501443,-0.080305,0.042865,0.099077,0.999807,-0.000001,0.015118,-0.012506,0.442331,0.368920,-0.046847,-0.816117,29.111632,34.105626,-113.977466
58756,-9.141703,0.673786,9.975623,-2.905512,3.789503,2.864725,-0.147467,2.627918,-3.060048,-0.089978,0.008196,0.100939,0.999796,-0.000737,0.013139,-0.015299,0.430694,0.379925,-0.034773,-0.817894,28.452881,36.265228,-114.966067
58757,-10.322641,-2.335843,9.525441,-4.253651,6.261499,2.246913,0.469800,2.075524,-3.560325,-0.102628,-0.021753,0.096269,0.999785,0.002349,0.010377,-0.017800,0.415562,0.389928,-0.025442,-0.821351,27.776871,38.271528,-116.518408
58758,-10.435021,-0.931997,8.849520,-2.791430,5.295157,2.525571,1.461440,1.524798,-3.877291,-0.103835,-0.007954,0.089227,0.999756,0.007307,0.007623,-0.019385,0.396938,0.399592,-0.020704,-0.826037,27.337432,40.069794,-118.532534
58759,-10.141953,3.886197,9.001302,0.066618,1.424154,4.220850,1.943816,1.034103,-4.013768,-0.100156,0.040000,0.090918,0.999738,0.009718,0.005170,-0.020067,0.376533,0.407999,-0.018639,-0.831512,26.911901,41.642115,-120.877199
58760,-9.474562,8.945631,9.432667,2.490304,-3.177238,5.758051,1.486750,0.628393,-4.014265,-0.092636,0.090624,0.095291,0.999766,0.007433,0.003142,-0.020070,0.356837,0.413659,-0.015437,-0.837445,26.034413,42.985811,-123.439159
58761,-8.551369,9.808006,9.911627,2.188282,-5.002797,5.605622,0.289898,0.377283,-3.871964,-0.083408,0.099565,0.099419,0.999810,0.001449,0.001886,-0.019359,0.340040,0.415945,-0.007951,-0.843385,24.377268,44.122703,-126.077217
58762,-7.362330,5.849874,9.151662,0.010115,-2.870943,2.990563,-0.623572,0.131789,-3.497334,-0.072522,0.060058,0.091379,0.999842,-0.003118,0.000659,-0.017486,0.326597,0.415486,0.002185,-0.848941,22.236908,44.981127,-128.612107
58763,-6.111913,2.645295,8.009726,-1.419982,-1.011218,0.456947,-0.494625,-0.039982,-2.933696,-0.060736,0.027544,0.080018,0.999889,-0.002473,-0.000200,-0.014668,0.315190,0.414401,0.010327,-0.853710,20.362493,45.566759,-130.844125
58764,-5.145930,4.038710,7.776025,-0.866856,-2.765595,-0.073306,-0.259769,0.018070,-2.554189,-0.050930,0.041141,0.077712,0.999918,-0.001299,0.000090,-0.012771,0.304855,0.413877,0.016764,-0.857606,18.798470,46.063364,-132.811256
58765,-5.741519,1.889090,8.741524,-2.360035,-1.161737,0.484178,-0.507555,0.166603,-2.420390,-0.057106,0.019805,0.087413,0.999923,-0.002538,0.000833,-0.012102,0.295545,0.413553,0.024216,-0.860837,17.156147,46.578589,-134.672957
58766,-6.790035,-4.053552,7.691272,-4.170663,4.425625,-0.608946,0.235143,0.050190,-2.220091,-0.068326,-0.039869,0.076883,0.999938,0.001176,0.000251,-0.011100,0.285535,0.413797,0.027876,-0.863982,16.002872,46.965729,-136.434431
58767,-7.402660,-0.434050,8.854704,-2.733422,1.324142,1.330403,1.429039,-0.204890,-2.041001,-0.074161,-0.004216,0.088441,0.999922,0.007145,-0.001024,-0.010205,0.273823,0.414606,0.025647,-0.867448,15.576763,47.167382,-138.127694
58768,-7.529206,3.079959,9.971664,-1.696898,-1.916688,2.799052,1.376211,-0.435509,-2.010877,-0.075199,0.030870,0.099765,0.999923,0.006881,-0.002177,-0.010054,0.262341,0.414287,0.023259,-0.871208,15.094645,47.228132,-139.853366
58769,-8.061891,1.919671,9.291464,-1.464496,-0.517446,2.540358,1.360109,-0.803734,-1.876910,-0.080811,0.019323,0.092721,0.999925,0.006800,-0.004019,-0.009384,0.251476,0.412290,0.020182,-0.875425,14.625422,47.055084,-141.549472
58770,-7.582750,4.631258,9.339000,-0.467739,-3.087849,2.693705,1.342264,-1.141255,-1.681767,-0.075970,0.046325,0.093268,0.999926,0.006711,-0.005706,-0.008409,0.241502,0.408758,0.016348,-0.879958,14.225380,46.658574,-143.145596
58771,-7.752166,5.102917,9.505922,-0.223219,-3.463922,3.011084,0.852024,-1.378500,-1.553053,-0.077778,0.051228,0.094742,0.999937,0.004260,-0.006892,-0.007765,0.233080,0.403538,0.014125,-0.884664,13.606877,46.102071,-144.667206
58772,-7.971837,3.246387,8.966696,-0.377196,-1.609130,2.506286,0.522184,-1.588327,-1.505225,-0.080181,0.032833,0.089117,0.999937,0.002611,-0.007941,-0.007526,0.225523,0.396966,0.013012,-0.889600,12.830673,45.410149,-146.162057
58773,-9.673919,2.054464,9.444622,-0.011112,0.030126,3.862136,0.549552,-1.812756,-1.470259,-0.097437,0.021001,0.093622,0.999928,0.002748,-0.009064,-0.007351,0.218050,0.389367,0.011457,-0.894828,12.098261,44.573887,-147.636258
58774,-12.694853,3.010904,10.787761,1.574365,0.074304,7.042678,0.595484,-2.506547,-1.544697,-0.128052,0.030777,0.106368,0.999887,0.002977,-0.012532,-0.007723,0.210156,0.378646,0.009079,-0.901321,11.322738,43.344143,-149.238454
58775,-13.128091,2.638296,10.971032,2.060978,0.569286,7.364960,0.255801,-3.382501,-1.572900,-0.132899,0.027285,0.107506,0.999825,0.001279,-0.016912,-0.007864,0.202756,0.363503,0.007365,-0.909231,10.324574,41.605947,-150.926108
58776,-14.109424,2.101399,10.932854,3.181019,1.491433,7.811957,0.419121,-4.284304,-1.462625,-0.143236,0.021831,0.106321,0.999742,0.002095,-0.021420,-0.007312,0.195507,0.344282,0.003789,-0.918277,9.499521,39.329055,-152.560119
58777,-14.521523,5.719958,11.176402,5.430166,-1.647174,8.523989,0.090277,-5.199706,-1.509338,-0.147618,0.058258,0.107973,0.999633,0.000451,-0.025995,-0.007546,0.188505,0.320314,0.000909,-0.928366,8.520549,36.518390,-154.228480
58778,-8.659535,2.438570,8.562000,2.378408,-0.274055,2.372093,-0.734706,-5.645438,-1.588026,-0.088765,0.025393,0.083043,0.999563,-0.003673,-0.028223,-0.007939,0.182310,0.293250,0.001559,-0.938491,7.158930,33.435200,-155.860733
58779,-3.970234,-0.795684,5.334815,0.003537,1.545318,-3.296850,-0.087987,-5.487673,-1.453649,-0.041202,-0.007638,0.052235,0.999597,-0.000440,-0.027435,-0.007267,0.175642,0.267266,-0.000877,-0.947480,6.360650,30.407697,-157.265412
58780,-2.925918,2.404339,6.064344,0.199825,-1.799654,-2.896641,0.288118,-4.982095,-1.337521,-0.030597,0.024158,0.059927,0.999666,0.001440,-0.024908,-0.006687,0.168895,0.243812,-0.004807,-0.954990,5.931515,27.648958,-158.480440
58781,-5.724652,2.957701,7.521344,2.346290,-1.446256,-0.300604,0.243593,-4.624514,-1.272732,-0.058776,0.029857,0.073902,0.999712,0.001218,-0.023120,-0.006363,0.162415,0.221871,-0.008297,-0.961419,5.577304,25.082744,-159.581184
58782,-7.561123,2.920481,7.905623,4.148714,-0.783240,0.692259,0.405981,-4.678969,-1.099679,-0.077272,0.029469,0.077321,0.999709,0.002030,-0.023393,-0.005498,0.156491,0.199668,-0.012801,-0.967202,5.418165,22.472032,-160.541551
58783,-6.191833,5.919626,8.150444,4.181903,-3.989208,0.501975,0.253607,-4.776029,-0.876196,-0.063582,0.059370,0.080074,0.999704,0.001268,-0.023878,-0.004381,0.151701,0.176743,-0.016858,-0.972350,5.268998,19.791441,-161.345198
58784,-4.635133,4.392181,8.204426,2.741876,-2.914635,-0.217878,0.046732,-4.677958,-0.427271,-0.048159,0.044004,0.080942,0.999724,0.000234,-0.023388,-0.002136,0.149198,0.154001,-0.020223,-0.976532,5.130436,17.141901,-161.852903
58785,-8.907201,2.318103,8.291751,6.442100,0.489130,0.755925,0.821109,-4.912257,0.252682,-0.091103,0.022732,0.080790,0.999689,0.004105,-0.024559,0.001263,0.149307,0.130533,-0.028057,-0.979735,5.564744,14.323577,-161.970364
58786,-5.779385,5.565136,7.626388,5.111153,-3.314752,-0.571512,1.423421,-5.299998,0.793167,-0.060013,0.054879,0.075085,0.999616,0.007116,-0.026497,0.003965,0.151512,0.105450,-0.039462,-0.982022,6.407882,11.253555,-161.826468
58787,-1.388238,5.478313,6.088755,1.702178,-4.406948,-2.980300,1.267867,-5.005125,1.134342,-0.015715,0.054312,0.060855,0.999651,0.006339,-0.025023,0.005671,0.155421,0.081555,-0.050034,-0.983204,7.183996,8.326745,-161.510816
58788,-2.134942,1.473135,5.453106,1.598866,-0.239725,-3.995184,1.305376,-4.524141,1.378999,-0.022676,0.014224,0.054122,0.999699,0.006526,-0.022618,0.006894,0.160537,0.059936,-0.060481,-0.983350,7.982276,5.650336,-161.061398
58789,-1.773216,3.522662,6.271683,2.025485,-2.003149,-2.974398,1.684007,-4.222843,1.574239,-0.019329,0.034551,0.062613,0.999711,0.008419,-0.021112,0.007870,0.166495,0.040011,-0.072575,-0.982554,8.984773,3.121814,-160.519740
58790,-0.973167,3.193885,6.211089,1.427145,-1.759655,-3.135540,1.317539,-3.860493,1.776775,-0.011211,0.031434,0.062112,0.999753,0.006587,-0.019301,0.008883,0.173563,0.021462,-0.082564,-0.981121,9.757365,0.770833,-159.870233
58791,0.564548,2.356953,4.668267,0.021227,-1.589615,-4.799187,1.406779,-3.475452,2.012498,0.004596,0.023290,0.046933,0.999774,0.007033,-0.017376,0.010062,0.181854,0.004776,-0.092649,-0.978940,10.555412,-1.395115,-159.081588
58792,2.055627,3.371467,5.159030,-0.846724,-2.839695,-4.031488,1.227125,-2.854366,2.170460,0.019450,0.033611,0.052080,0.999820,0.006135,-0.014271,0.010852,0.191136,-0.009114,-0.101250,-0.976285,11.216984,-3.238964,-158.163713
58793,1.715225,2.656018,5.421897,-0.627908,-1.904948,-3.865652,1.025236,-2.234100,2.195893,0.016253,0.026463,0.054540,0.999864,0.005126,-0.011170,0.010979,0.200786,-0.020175,-0.108247,-0.973427,11.732182,-4.746485,-157.178339
58794,-0.200778,1.649732,6.898250,0.865388,0.177998,-2.772483,1.091282,-1.801370,2.243414,-0.002812,0.016092,0.069048,0.999882,0.005456,-0.009006,0.011217,0.210859,-0.029088,-0.115092,-0.970282,12.254219,-6.026244,-156.126088
58795,1.449463,3.181369,5.866784,0.119519,-1.952817,-3.269716,1.355382,-1.596270,2.418749,0.013642,0.031583,0.058994,0.999872,0.006777,-0.007981,0.012093,0.221884,-0.036818,-0.122955,-0.966589,12.892754,-7.223508,-154.960295
58796,2.719090,4.005529,5.465080,-0.524729,-3.198569,-3.270832,1.272943,-1.087157,2.595821,0.026373,0.040052,0.055051,0.999881,0.006364,-0.005436,0.012979,0.234009,-0.042283,-0.129785,-0.962605,13.440449,-8.171994,-153.637373
58797,1.814783,3.124674,6.572861,0.015657,-1.650710,-2.496079,1.334190,-0.619576,2.744183,0.017517,0.031050,0.065991,0.999879,0.006671,-0.003098,0.013720,0.247107,-0.045509,-0.136309,-0.958273,13.984290,-8.892731,-152.173482
58798,-0.390640,2.794542,8.144075,1.881655,0.229881,-1.404846,1.462154,-0.475245,2.932732,-0.004504,0.027286,0.081632,0.999863,0.007310,-0.002376,0.014663,0.261173,-0.048004,-0.143180,-0.953406,14.563036,-9.574189,-150.586974
58799,2.838336,2.154336,6.606923,-1.188347,-1.142242,-2.489371,1.517906,-0.400813,3.082435,0.027919,0.021473,0.066289,0.999850,0.007589,-0.002004,0.015411,0.275942,-0.050163,-0.150152,-0.948048,15.140621,-10.252135,-148.909450
58800,3.613949,1.094836,6.280163,-2.362876,-0.744644,-2.916171,1.819217,0.047964,3.367949,0.035970,0.010983,0.062893,0.999817,0.009096,0.000240,0.016839,0.292386,-0.049979,-0.157802,-0.941866,15.831734,-10.744267,-147.006064
58801,2.684774,1.837928,7.567157,-1.156956,-0.359945,-1.665340,2.058355,0.353131,3.664473,0.026648,0.018089,0.075812,0.999778,0.010291,0.001766,0.018321,0.310406,-0.048221,-0.166004,-0.934754,16.606301,-11.140037,-144.890970
58802,2.657924,0.963197,8.176077,-1.687889,0.579638,-1.347746,1.996866,0.557683,3.726177,0.026632,0.009311,0.081781,0.999773,0.009984,0.002788,0.018629,0.328732,-0.045634,-0.173501,-0.927227,17.318446,-11.460752,-142.708923
58803,3.259395,-1.203638,7.971180,-3.582517,1.718305,-2.078098,2.075905,0.723102,3.566653,0.033099,-0.012275,0.079466,0.999781,0.010379,0.003615,0.017832,0.346331,-0.041991,-0.181061,-0.919515,18.079059,-11.691191,-140.589020
58804,2.544998,0.195956,8.487566,-2.275719,1.371913,-1.357433,2.547705,0.939963,3.475936,0.025822,0.001326,0.084774,0.999757,0.012737,0.004699,0.017378,0.363650,-0.036433,-0.190340,-0.911154,19.104975,-11.819295,-138.481132
58805,1.218129,3.995776,9.312547,1.098001,0.114241,0.333858,2.098726,1.002156,3.314568,0.011995,0.039178,0.093479,0.999795,0.010493,0.005010,0.016572,0.380046,-0.031239,-0.197413,-0.903115,19.886492,-11.915983,-136.451952
58806,3.848007,-0.039030,6.121175,-3.349888,-0.276697,-3.411239,2.048662,1.156695,3.435343,0.038839,-0.000351,0.060984,0.999783,0.010243,0.005783,0.017175,0.396974,-0.025548,-0.203855,-0.894540,20.615698,-11.979225,-134.325602
58807,4.378445,2.226723,5.952183,-2.076831,-2.116884,-2.687862,2.728087,1.511959,3.911089,0.043798,0.022312,0.059495,0.999687,0.013639,0.007559,0.019553,0.416265,-0.017393,-0.212470,-0.883899,21.664423,-11.983805,-131.865683
58808,3.916468,4.302101,6.265839,-0.263771,-2.791271,-1.735181,3.042489,1.959624,4.435423,0.038828,0.042929,0.062930,0.999590,0.015210,0.009797,0.022174,0.438077,-0.007148,-0.221336,-0.871234,22.814897,-11.910227,-129.022833
58809,-0.344548,9.698467,9.615132,5.839923,-0.785529,2.511738,2.665505,2.253029,4.617893,-0.004570,0.095594,0.097479,0.999581,0.013326,0.011264,0.023086,0.460629,0.003349,-0.227735,-0.857873,23.721101,-11.774315,-126.014571
58810,0.764719,2.502338,7.773884,-0.197038,1.222608,-1.704349,1.505136,2.280109,4.328427,0.007999,0.024608,0.077835,0.999673,0.007525,0.011399,0.021640,0.481649,0.011621,-0.228912,-0.845860,24.000088,-11.586689,-123.154817
58811,1.325108,2.249648,7.987057,-0.872849,0.921783,-1.506262,1.763500,2.459860,3.895653,0.013801,0.022057,0.079899,0.999696,0.008817,0.012298,0.019476,0.500723,0.021761,-0.230588,-0.834046,24.478799,-11.222673,-120.484581
58812,0.268056,1.895548,9.162496,-1.106268,2.305604,-0.808620,1.283108,2.576371,3.459455,0.003540,0.018424,0.091702,0.999747,0.006415,0.012881,0.017296,0.517888,0.031677,-0.229783,-0.823401,24.740451,-10.709972,-118.018782
58813,0.117822,0.888644,8.283503,-1.802909,2.384200,-2.035717,1.407530,2.544760,3.237546,0.002095,0.008332,0.082872,0.999763,0.007037,0.012723,0.016186,0.533827,0.042022,-0.229433,-0.812787,25.119048,-10.174452,-115.679681
58814,-0.132657,2.504935,8.440930,-0.550204,2.034073,-1.262932,1.391921,2.614835,3.022504,-0.000594,0.024448,0.084592,0.999776,0.006959,0.013073,0.015111,0.548732,0.052840,-0.228673,-0.802377,25.527615,-9.564944,-113.436389
58815,-0.703900,1.441620,8.439031,-1.411018,2.756862,-1.800465,1.062326,2.682744,2.679673,-0.006094,0.013881,0.084551,0.999806,0.005311,0.013413,0.013397,0.562197,0.063393,-0.226225,-0.792930,25.799337,-8.849154,-111.356342
58816,-1.639227,2.114764,9.632566,-1.125182,3.647861,-0.573305,1.316860,2.719497,2.213037,-0.015307,0.020338,0.096674,0.999825,0.006584,0.013597,0.011065,0.573565,0.075315,-0.224445,-0.784203,26.278640,-8.009828,-109.509249
58817,-2.664152,2.470721,10.221179,-0.939501,4.533402,-0.002819,1.079115,2.552457,1.686117,-0.025537,0.023936,0.102673,0.999868,0.005395,0.012762,0.008430,0.582594,0.086466,-0.221948,-0.777076,26.690430,-7.136330,-107.975298
58818,-0.869257,2.437432,9.334258,-1.360661,2.479546,-0.548685,0.765176,2.362366,1.150404,-0.007727,0.023970,0.093530,0.999906,0.003826,0.011811,0.005752,0.589335,0.096542,-0.218500,-0.771765,26.983412,-6.230286,-106.764050
58819,-0.172459,1.852228,8.490758,-1.857821,1.593555,-1.472474,0.847356,2.365894,0.767541,-0.000790,0.018158,0.084998,0.999914,0.004237,0.011829,0.003838,0.594458,0.107272,-0.215136,-0.767352,27.362639,-5.229661,-105.744949
58820,0.515944,3.923826,7.737254,-0.049237,0.216148,-1.125001,0.905429,2.407296,0.572152,0.005980,0.038904,0.077480,0.999913,0.004527,0.012036,0.002861,0.598741,0.118528,-0.211729,-0.763303,27.800310,-4.163118,-104.808861
58821,3.708110,3.903200,5.850418,-0.128139,-3.344304,-2.600937,0.701028,2.777380,0.414383,0.037809,0.038906,0.058119,0.999895,0.003505,0.013886,0.002072,0.602821,0.130726,-0.206300,-0.759578,28.138345,-2.873500,-103.847358
58822,3.999710,2.215376,4.811854,-1.199010,-3.629071,-4.386050,0.622329,3.382094,0.232822,0.040778,0.022052,0.047502,0.999852,0.003111,0.016910,0.001164,0.606734,0.145140,-0.198578,-0.755893,28.453172,-1.234706,-102.806983
58823,3.447969,1.397615,4.960207,-1.855974,-3.103292,-4.776244,0.840607,3.963032,0.020737,0.035453,0.013773,0.048964,0.999795,0.004203,0.019814,0.000104,0.610051,0.162566,-0.189697,-0.751948,28.925524,0.746707,-101.702994
58824,1.157657,2.093479,6.511434,-1.595857,-1.088343,-3.150645,1.103255,4.384062,-0.224192,0.013025,0.020562,0.064954,0.999744,0.005516,0.021918,-0.001121,0.612351,0.182538,-0.180231,-0.747812,29.589844,2.996658,-100.583232
58825,-1.388172,3.985291,8.158080,-0.485086,0.819088,-0.677957,1.170886,4.535104,-0.499605,-0.011925,0.039405,0.082098,0.999723,0.005854,0.022673,-0.002498,0.613371,0.203426,-0.170211,-0.743924,30.333261,5.385748,-99.527388
58826,-2.575651,4.020781,8.903440,-0.837304,1.590690,0.128264,0.914562,4.492717,-0.881491,-0.023569,0.039906,0.089763,0.999728,0.004572,0.022462,-0.004407,0.612858,0.223590,-0.158884,-0.741059,30.955144,7.853457,-98.640472
58827,-2.805418,2.917607,8.807505,-1.846172,1.613932,-0.435887,0.593958,4.421845,-1.554814,-0.025870,0.029120,0.088750,0.999721,0.002970,0.022107,-0.007773,0.609817,0.242915,-0.145747,-0.740185,31.379812,10.477283,-98.081144
58828,-4.125266,0.307951,8.710100,-3.901977,3.045899,-1.538628,0.403161,4.348015,-2.449392,-0.039306,0.003392,0.087976,0.999687,0.002016,0.021738,-0.012246,0.603282,0.261900,-0.130956,-0.741829,31.629309,13.330197,-97.969986
58829,-5.974766,0.465901,9.490215,-4.032755,4.258516,-0.244006,0.542396,4.188076,-3.329512,-0.057657,0.005371,0.096138,0.999639,0.002712,0.020938,-0.016646,0.592791,0.281104,-0.115922,-0.745749,31.840383,16.369491,-98.339420
58830,-6.475401,1.512610,9.023626,-2.891197,4.034928,0.236169,0.353594,4.000632,-4.149525,-0.062602,0.016279,0.091531,0.999583,0.001768,0.020000,-0.020745,0.578940,0.299314,-0.099499,-0.751891,31.776182,19.566135,-99.189596
58831,-5.630738,3.115004,8.698275,-1.537302,2.258418,0.655023,0.009701,4.057861,-4.859575,-0.053749,0.032473,0.088092,0.999499,0.000048,0.020286,-0.024294,0.562433,0.316815,-0.080460,-0.759489,31.327078,22.999820,-100.426908
58832,-6.163806,1.459023,7.290052,-1.940767,3.090558,-0.872843,-0.295724,4.232370,-5.112916,-0.059676,0.016242,0.074154,0.999448,-0.001478,0.021158,-0.025560,0.544928,0.333896,-0.059290,-0.766845,30.570092,26.581839,-101.816574
58833,-6.403126,2.449158,6.280193,-0.495084,2.633459,-0.911540,-0.014214,4.486832,-4.903244,-0.061975,0.026033,0.064206,0.999448,-0.000071,0.022430,-0.024512,0.527232,0.352283,-0.038785,-0.772282,29.946297,30.213699,-103.098932
58834,-7.333542,3.234617,5.933623,0.493765,2.585353,-0.195592,0.046422,4.796628,-4.555847,-0.071123,0.033969,0.061068,0.999453,0.000232,0.023979,-0.022775,0.510253,0.371579,-0.018273,-0.775395,29.402343,33.889586,-104.165062
58835,-8.986662,1.548355,5.472155,-0.256213,4.263054,-0.074917,0.243738,5.069448,-4.220444,-0.088089,0.017287,0.056990,0.999455,0.001218,0.025343,-0.021098,0.493675,0.391995,0.001575,-0.776288,29.040159,37.600868,-105.014436
58836,-11.246824,-0.227733,4.522228,-0.665901,6.659632,0.294467,1.069412,5.188270,-3.856670,-0.111264,-0.000376,0.048114,0.999463,0.005346,0.025937,-0.019280,0.476359,0.414496,0.017790,-0.775216,29.255066,41.269058,-105.633687
58837,-13.393366,2.179267,5.363059,0.864947,5.870238,3.514888,2.236135,4.967377,-3.429041,-0.132150,0.023443,0.057184,0.999482,0.011179,0.024833,-0.017142,0.457798,0.438517,0.028063,-0.772876,30.260506,44.711062,-106.030420
58838,-15.021301,8.640742,8.240886,3.641039,1.115572,8.991914,2.586745,4.299464,-3.023710,-0.147062,0.087544,0.086721,0.999571,0.012932,0.021494,-0.015116,0.439698,0.460408,0.034527,-0.770388,31.510236,47.709954,-106.346463
58839,-15.080693,14.368401,11.041919,5.348936,-4.588207,12.682771,1.368036,3.156131,-2.920416,-0.146918,0.145078,0.113747,0.999745,0.006840,0.015779,-0.014601,0.424695,0.474919,0.042922,-0.769574,31.745181,50.123507,-107.067464
58840,-14.307862,9.734875,11.387364,1.573794,-3.089548,10.610244,-0.350544,1.728154,-2.696732,-0.140757,0.099458,0.114924,0.999870,-0.001753,0.008640,-0.013483,0.414781,0.480156,0.054339,-0.771009,30.545430,51.765730,-108.347876
58841,-11.837202,5.155965,9.476228,-0.618997,-1.135972,6.150267,-0.674172,0.472207,-2.423698,-0.117509,0.053307,0.094863,0.999918,-0.003371,0.002361,-0.012118,0.406946,0.479852,0.063741,-0.774644,28.773378,52.684291,-110.094475
58842,-9.680171,3.048051,8.232487,-1.454573,-0.646417,3.157575,-0.747358,-0.137553,-2.628359,-0.096444,0.032057,0.082141,0.999906,-0.003737,-0.000688,-0.013141,0.398621,0.476890,0.072656,-0.779999,26.526959,53.309222,-112.365441
58843,-9.779152,-1.778847,7.053236,-3.716629,3.048696,1.386781,-0.325821,-0.485025,-2.842782,-0.098201,-0.016280,0.070322,0.999895,-0.001629,-0.002425,-0.014213,0.388499,0.473238,0.079740,-0.786611,24.186787,53.752036,-115.036724
58844,-10.682169,1.275230,8.584107,-2.198692,0.575337,3.761249,0.744982,-0.947819,-2.633731,-0.107050,0.013842,0.085384,0.999895,0.003725,-0.004739,-0.013168,0.376772,0.469833,0.081195,-0.794171,22.427410,53.846441,-117.740260
58845,-9.634333,6.630296,9.636971,0.612451,-4.337820,4.694434,0.539581,-1.416219,-2.551619,-0.096169,0.067272,0.095869,0.999890,0.002698,-0.007081,-0.012758,0.365959,0.464109,0.082382,-0.802428,20.476106,53.622314,-120.537016
58846,-8.484462,0.963776,8.174501,-2.260864,-0.242760,1.787318,-0.022458,-1.569903,-2.718662,-0.085341,0.010805,0.081075,0.999877,-0.000112,-0.007849,-0.013593,0.355762,0.456568,0.085902,-0.810925,18.079973,53.283802,-123.497779
58847,-6.969338,-2.803478,6.157291,-3.603916,2.692595,-1.204564,0.830407,-1.566610,-2.630593,-0.070535,-0.027365,0.060908,0.999874,0.004152,-0.007833,-0.013152,0.343883,0.450477,0.085755,-0.819427,16.285780,52.867892,-126.330461
58848,-7.070027,0.367996,7.106663,-1.988873,-0.023649,0.019260,1.393495,-1.430548,-2.502211,-0.071157,0.004075,0.070586,0.999872,0.006967,-0.007152,-0.012511,0.331119,0.445858,0.083217,-0.827433,14.985906,52.461544,-128.963732
58849,-8.041448,2.076216,8.258371,-1.197984,-1.354707,1.759016,1.388363,-1.429466,-2.413295,-0.080749,0.021164,0.082153,0.999878,0.006942,-0.007147,-0.012066,0.318649,0.441153,0.080492,-0.835086,13.788649,52.008191,-131.477462
58850,-8.454353,2.611161,8.727206,-0.874694,-1.775403,2.456736,1.079005,-1.633634,-2.358400,-0.084941,0.026643,0.086722,0.999883,0.005395,-0.008168,-0.011792,0.307099,0.435028,0.078583,-0.842773,12.472392,51.400361,-133.936493
58851,-8.167807,2.093149,9.035300,-1.322910,-1.611993,2.368395,0.786330,-1.779672,-2.339168,-0.082229,0.021538,0.089707,0.999884,0.003932,-0.008898,-0.011695,0.296250,0.427735,0.077632,-0.850442,11.042468,50.671469,-136.347821
58852,-8.256582,0.036816,8.556119,-1.894818,0.299188,1.921622,0.802476,-1.955639,-2.359109,-0.083388,0.001007,0.084752,0.999875,0.004012,-0.009778,-0.011795,0.285283,0.419616,0.076367,-0.858315,9.663209,49.809047,-138.734137
58853,-8.301444,0.277740,8.686707,-1.569459,0.114521,2.102336,1.126664,-2.117101,-2.333069,-0.083892,0.003267,0.086000,0.999860,0.005633,-0.010585,-0.011665,0.273730,0.411156,0.073414,-0.866391,8.548941,48.819100,-141.047526
58854,-11.253888,1.206021,9.475470,0.212695,0.348622,4.942361,1.428005,-2.522411,-2.231043,-0.113584,0.012653,0.093415,0.999833,0.007140,-0.012611,-0.011155,0.262068,0.401274,0.068361,-0.875001,7.724423,47.566427,-143.245181
58855,-15.100158,3.563862,11.924491,2.335618,-0.802123,9.598157,1.489348,-3.478280,-2.201212,-0.152650,0.036436,0.116869,0.999760,0.007446,-0.017390,-0.011005,0.250630,0.387127,0.061707,-0.885161,6.980682,45.747429,-145.433408
58856,-16.447988,5.533731,12.994720,4.119002,-2.160897,11.360744,0.770707,-4.707846,-2.511190,-0.166773,0.056931,0.126257,0.999637,0.003853,-0.023536,-0.012554,0.239445,0.366322,0.057248,-0.897328,5.724747,43.222770,-147.848915
58857,-13.473121,1.528514,10.453936,2.946619,0.998096,7.021260,-0.230284,-5.570431,-2.868404,-0.137333,0.017360,0.100719,0.999509,-0.001151,-0.027848,-0.014340,0.228530,0.340025,0.056859,-0.910453,3.893199,40.176215,-150.394637
58858,-5.449600,-1.946513,5.881185,-0.494381,2.306291,-1.907688,0.015553,-5.700732,-2.930140,-0.056420,-0.018652,0.057220,0.999486,0.000078,-0.028499,-0.014648,0.216727,0.313066,0.055242,-0.923021,2.419985,37.004516,-152.762504
58859,2.092316,-1.475072,3.695128,-4.137076,-0.250106,-8.073593,0.727001,-4.872681,-2.574424,0.019822,-0.015146,0.037389,0.999614,0.003635,-0.024360,-0.012870,0.205025,0.290506,0.050642,-0.933277,1.705462,34.264268,-154.694042
58860,-1.748075,1.510918,7.552011,-1.908300,-2.299899,-2.502805,1.113916,-3.844624,-2.088312,-0.018773,0.014881,0.075251,0.999745,0.005569,-0.019221,-0.010441,0.194640,0.273084,0.044543,-0.941040,1.520029,32.093735,-156.190782
58861,-10.235233,3.666229,10.621307,4.325205,-1.845761,4.639953,0.989380,-3.802619,-1.904052,-0.103997,0.037128,0.104429,0.999762,0.004947,-0.019012,-0.009520,0.185185,0.255634,0.038805,-0.948078,1.395207,29.940032,-157.522469
58862,-8.504394,2.462434,9.336195,3.579676,-1.004331,2.504280,0.491986,-4.336897,-1.867698,-0.086809,0.025203,0.091554,0.999718,0.002460,-0.021682,-0.009338,0.176547,0.235076,0.034855,-0.955173,1.060337,27.476455,-158.796891
58863,-5.264965,2.581746,8.458390,1.765489,-1.937622,0.139445,0.609967,-4.443009,-1.621288,-0.054302,0.025997,0.083469,0.999716,0.003050,-0.022213,-0.008106,0.168865,0.214017,0.029945,-0.961657,0.928028,24.944186,-159.875806
58864,-6.342354,3.701375,8.457741,3.448679,-2.551918,0.533271,0.662896,-4.454097,-1.375987,-0.065032,0.037180,0.083264,0.999723,0.003314,-0.022268,-0.006879,0.162213,0.192875,0.024487,-0.967412,0.941818,22.403248,-160.776152
58865,-5.501995,2.804808,8.310868,2.866980,-1.836572,-0.035019,0.570940,-4.470729,-1.132969,-0.056701,0.028131,0.081934,0.999730,0.002854,-0.022352,-0.005664,0.156739,0.171494,0.019215,-0.972447,0.998404,19.850135,-161.512980
58866,-7.472419,2.779598,8.636833,4.917267,-1.118704,0.803664,0.995214,-4.610121,-0.819836,-0.076577,0.027683,0.084755,0.999714,0.004976,-0.023048,-0.004099,0.152349,0.149710,0.011488,-0.976854,1.390078,17.216980,-162.060761
58867,-3.872924,6.748586,7.851315,3.443365,-5.759830,-1.029555,0.798545,-4.729304,-0.690975,-0.040343,0.067312,0.077841,0.999706,0.003992,-0.023644,-0.003455,0.148655,0.127111,0.004530,-0.980675,1.711089,14.516323,-162.543014
58868,-0.795337,2.784014,6.497056,0.060735,-2.677561,-3.223619,0.564118,-4.311429,-0.372287,-0.009301,0.027674,0.064858,0.999762,0.002820,-0.021555,-0.001861,0.146584,0.106330,-0.001175,-0.983466,1.962074,12.051997,-162.838012
58869,-5.422217,2.810949,7.681434,4.419643,-1.242861,-1.139987,1.433587,-4.148737,0.119755,-0.055819,0.027530,0.075866,0.999759,0.007167,-0.020742,0.000599,0.146400,0.086928,-0.011299,-0.985334,2.774579,9.671462,-162.862963
58870,-4.497517,3.566523,8.412370,3.958330,-1.997668,-0.645326,1.701692,-4.349583,0.524874,-0.046887,0.034832,0.083417,0.999724,0.008508,-0.021746,0.002624,0.148009,0.066670,-0.023058,-0.986467,3.769404,7.163968,-162.698019
58871,-4.420888,0.701193,7.400636,3.503406,0.986799,-1.967899,2.498767,-4.456386,1.235350,-0.045883,0.005815,0.073074,0.999655,0.012492,-0.022279,0.006176,0.152751,0.046351,-0.039054,-0.986404,5.249674,4.560388,-162.185446
58872,-2.403619,6.620586,6.957762,3.697740,-4.931890,-2.066620,2.967194,-4.549165,1.793711,-0.026211,0.064941,0.069968,0.999591,0.014834,-0.022743,0.008967,0.160005,0.025789,-0.057526,-0.985101,6.987610,1.856726,-161.435257
58873,2.248682,5.335819,5.239433,-0.691174,-5.096768,-3.938009,2.184270,-3.990391,2.125264,0.020863,0.053006,0.053402,0.999685,0.010920,-0.019950,0.010625,0.169037,0.007240,-0.071703,-0.982971,8.245740,-0.573412,-160.526477
58874,0.797035,1.732471,5.611572,-0.307607,-1.009202,-3.981072,2.328976,-3.261352,2.407751,0.006848,0.016756,0.056431,0.999727,0.011644,-0.016305,0.012038,0.179614,-0.007712,-0.085937,-0.979946,9.545622,-2.635684,-159.447212
58875,-0.838911,4.668431,6.249066,2.447125,-2.789683,-2.901329,2.475402,-2.947802,2.661887,-0.009928,0.045782,0.062922,0.999726,0.012376,-0.014738,0.013308,0.191477,-0.021100,-0.100559,-0.976104,10.884638,-4.571363,-158.238811
58876,3.394849,4.752894,4.480508,-1.216457,-4.582028,-4.181785,2.132214,-2.478720,2.956360,0.032683,0.047534,0.045722,0.999757,0.010660,-0.012393,0.014781,0.204879,-0.032665,-0.112965,-0.971698,11.970270,-6.302071,-156.848921
58877,3.867103,3.878450,4.691341,-1.781229,-3.826258,-3.965700,2.089080,-1.652755,3.241202,0.037649,0.038905,0.047633,0.999780,0.010445,-0.008263,0.016205,0.220027,-0.040408,-0.124228,-0.966707,12.967039,-7.631028,-155.223790
58878,1.235677,2.778891,6.680824,0.307261,-1.126369,-2.565901,2.121781,-1.039853,3.435026,0.011537,0.027280,0.067161,0.999783,0.010608,-0.005199,0.017174,0.236405,-0.045256,-0.134870,-0.961184,13.923354,-8.671349,-153.425327
58879,0.373878,4.183758,7.796381,1.861235,-1.421087,-1.272339,1.999263,-0.802388,3.478794,0.002706,0.041108,0.078389,0.999791,0.009996,-0.004012,0.017393,0.253022,-0.049119,-0.144589,-0.955333,14.772791,-9.614479,-151.580684
58880,3.321979,1.888326,5.665412,-1.778090,-1.398486,-3.364440,1.728126,-0.477496,3.523963,0.032750,0.018972,0.056896,0.999805,0.008640,-0.002387,0.017619,0.269923,-0.051784,-0.152518,-0.949315,15.426175,-10.407952,-149.668902
58881,3.578857,2.478881,5.267930,-1.599541,-2.085792,-3.504426,2.094753,0.057012,3.765573,0.035335,0.024903,0.052930,0.999768,0.010473,0.000285,0.018826,0.288354,-0.051583,-0.161353,-0.942421,16.229304,-10.969055,-147.543454
58882,3.499797,3.394266,5.354283,-0.920030,-2.682852,-3.149922,2.080922,0.513839,4.123872,0.034434,0.034098,0.053808,0.999730,0.010404,0.002569,0.020618,0.308696,-0.049510,-0.169275,-0.934666,16.952713,-11.365052,-145.145071
58883,5.229194,1.881220,3.985308,-3.071751,-3.004596,-4.492841,2.516733,1.025773,4.816505,0.052031,0.019566,0.039829,0.999618,0.012582,0.005128,0.024079,0.332610,-0.044931,-0.178178,-0.924989,17.819690,-11.633369,-142.274510
58884,3.698481,3.768384,5.087013,-0.599348,-3.045836,-3.170496,3.243301,1.563009,5.777446,0.036291,0.037910,0.051198,0.999421,0.016213,0.007814,0.028882,0.361291,-0.037468,-0.189143,-0.912299,18.961899,-11.831556,-138.773381
58885,-0.800459,11.097806,9.133787,7.495685,-3.126727,2.070909,3.291805,1.948669,6.448740,-0.010642,0.109139,0.093240,0.999297,0.016455,0.009741,0.032236,0.392939,-0.028754,-0.199281,-0.897251,20.030431,-12.017496,-134.829158
58886,-0.836147,7.266034,9.809680,4.762059,0.025556,1.458412,1.319027,2.119640,6.186324,-0.009546,0.071728,0.098669,0.999444,0.006594,0.010596,0.030926,0.422806,-0.022843,-0.200004,-0.883579,19.980736,-12.092646,-130.994173
58887,2.992862,-6.540701,4.619939,-7.563978,2.949594,-7.139722,1.640074,2.329162,5.810788,0.032350,-0.064864,0.045299,0.999477,0.008199,0.011644,0.029049,0.450800,-0.014933,-0.201549,-0.869445,20.152492,-11.986655,-127.324844
58888,1.195293,-0.021453,7.818824,-2.064211,1.879597,-2.412444,2.867958,2.609456,5.356624,0.012991,-0.000995,0.078013,0.999453,0.014337,0.013045,0.026778,0.476715,-0.002559,-0.207597,-0.854190,21.078740,-11.671561,-123.847832
58889,-2.125246,2.934584,10.087553,1.416313,4.020980,0.020990,2.228701,2.757735,4.792534,-0.020533,0.027719,0.101477,0.999556,0.011142,0.013787,0.023959,0.499892,0.009503,-0.210380,-0.840094,21.717802,-11.207740,-120.647585
58890,-1.985729,0.385711,9.568206,-1.015855,4.765506,-1.333851,1.637216,2.640345,4.271163,-0.018657,0.002665,0.095959,0.999651,0.008185,0.013200,0.021353,0.520392,0.020145,-0.210763,-0.827264,22.101424,-10.721083,-117.755708
58891,-0.364908,-1.520946,7.791301,-3.213367,3.337959,-3.357017,1.547833,2.699801,3.701987,-0.002308,-0.015863,0.077829,0.999708,0.007738,0.013498,0.018508,0.538273,0.031379,-0.210442,-0.815470,22.515578,-10.100406,-115.159781
58892,-0.448769,-0.860046,8.157605,-2.934781,3.113264,-2.800209,1.512593,2.904615,3.149689,-0.003161,-0.009274,0.081560,0.999742,0.007562,0.014522,0.015747,0.553829,0.043925,-0.209211,-0.804720,22.983310,-9.267290,-112.814475
58893,-0.773067,-0.176094,7.952947,-2.376258,2.958897,-2.779234,1.590131,3.027241,2.684062,-0.006496,-0.002486,0.079616,0.999764,0.007950,0.015135,0.013419,0.567349,0.057635,-0.207756,-0.794752,23.565757,-8.286834,-110.687758
58894,-0.817645,1.937172,8.216280,-0.814340,2.337792,-1.701330,1.589880,3.125622,2.277250,-0.007105,0.018632,0.082429,0.999781,0.007949,0.015627,0.011385,0.579098,0.072141,-0.205799,-0.785550,24.211225,-7.181649,-108.747902
58895,-0.405329,2.733556,7.210807,-0.084860,1.374777,-2.214577,1.377526,3.198325,1.835243,-0.003145,0.026806,0.072349,0.999806,0.006887,0.015991,0.009176,0.589023,0.086734,-0.202560,-0.777495,24.797912,-5.955464,-107.015919
58896,2.331991,2.142130,4.923541,-0.649262,-1.722226,-4.255844,1.039555,3.479597,1.295464,0.024035,0.021321,0.048932,0.999814,0.005197,0.017397,0.006477,0.597059,0.101947,-0.196862,-0.770956,25.250490,-4.466888,-105.489805
58897,4.068088,1.117453,3.663499,-1.525450,-3.557660,-5.783841,0.959424,4.108511,0.756152,0.041380,0.011157,0.035843,0.999770,0.004797,0.020541,0.003780,0.603428,0.119824,-0.188627,-0.765465,25.709573,-2.533449,-104.079733
58898,2.259295,0.584650,4.320409,-1.830085,-1.786157,-5.621253,1.037566,4.790657,0.383198,0.023609,0.005669,0.042676,0.999698,0.005187,0.023951,0.001916,0.608645,0.140845,-0.178304,-0.760211,26.266597,-0.166363,-102.675451
58899,1.148060,2.756407,5.245439,-0.156979,-1.262981,-3.913193,1.428582,5.299910,0.212850,0.012839,0.027203,0.052321,0.999623,0.007142,0.026496,0.001064,0.612982,0.165035,-0.167683,-0.754254,27.110443,2.486381,-101.198892
58900,-1.513168,4.836612,6.380001,1.491406,0.714306,-1.835256,1.378158,5.651331,0.166261,-0.013355,0.047912,0.064525,0.999577,0.006890,0.028253,0.000831,0.616989,0.190314,-0.155617,-0.747588,28.003899,5.308872,-99.609159
58901,-3.888390,5.113985,7.271780,1.451558,2.634198,-0.588620,1.289754,5.717778,0.108991,-0.036806,0.050644,0.074118,0.999570,0.006448,0.028585,0.000545,0.620394,0.215439,-0.142835,-0.740470,28.929555,8.153395,-97.978264
58902,-7.067569,4.450865,8.684952,0.283642,5.361322,0.972858,1.387799,5.469008,-0.076077,-0.068244,0.043922,0.089044,0.999602,0.006938,0.027341,-0.000380,0.622317,0.239914,-0.130863,-0.733511,29.973277,10.899202,-96.450973
58903,-9.866885,3.703399,10.535779,-1.394890,7.520919,2.974680,1.386295,4.799505,-0.418538,-0.096022,0.036495,0.107938,0.999686,0.006931,0.023995,-0.002092,0.622107,0.261974,-0.120470,-0.727901,31.019507,13.384960,-95.231587
58904,-9.346066,1.430543,10.346536,-3.621628,6.985883,1.784675,1.606133,3.982754,-0.880929,-0.091313,0.013869,0.105411,0.999760,0.008030,0.019912,-0.004404,0.619089,0.281889,-0.112739,-0.724263,32.133958,15.588879,-94.438018
58905,-8.614818,2.481289,10.719601,-3.310040,5.556327,2.573988,1.970473,3.331414,-1.356304,-0.084178,0.024321,0.108850,0.999790,0.009852,0.016656,-0.006781,0.613192,0.300709,-0.107621,-0.722487,33.371897,17.609714,-94.039201
58906,-7.003219,3.240989,9.613454,-2.437884,3.704399,1.688880,2.138439,2.851602,-1.677847,-0.068379,0.031951,0.097461,0.999806,0.010692,0.014257,-0.008389,0.605376,0.318369,-0.104056,-0.722034,34.633048,19.497148,-93.912613
58907,-4.814391,6.135180,8.331420,0.260077,0.884369,1.561210,2.191910,2.695828,-1.844535,-0.046446,0.060863,0.084617,0.999807,0.010959,0.013478,-0.009222,0.596559,0.335587,-0.100843,-0.722032,35.895351,21.363935,-93.878837
58908,-4.046133,8.026977,8.052542,1.644146,-0.645901,2.125011,1.710113,2.810908,-1.987421,-0.038522,0.079963,0.081761,0.999815,0.008550,0.014054,-0.009936,0.587867,0.351734,-0.095278,-0.722231,36.888050,23.331202,-93.833449
58909,-4.647522,7.968544,7.805972,1.601215,-0.431906,2.156518,1.088683,2.985268,-2.179872,-0.044430,0.079748,0.079167,0.999814,0.005443,0.014925,-0.010899,0.579440,0.366643,-0.086575,-0.722722,37.525646,25.444145,-93.787175
58910,-6.684047,6.524976,8.344870,0.153043,1.234959,2.650063,0.452108,3.021996,-2.453662,-0.064763,0.065862,0.084586,0.999808,0.002260,0.015109,-0.012268,0.570989,0.379825,-0.074939,-0.723940,37.753817,27.668964,-93.846260
58911,-8.578477,3.766508,8.226522,-1.831752,3.413877,2.037407,0.308339,2.816109,-2.653068,-0.084106,0.038660,0.083517,0.999812,0.001542,0.014080,-0.013265,0.561796,0.391779,-0.062956,-0.725901,37.809762,29.870940,-94.086188
58912,-9.174926,3.862997,8.506700,-1.926226,3.362151,2.694726,0.562140,2.428334,-2.663735,-0.090183,0.039597,0.086279,0.999834,0.002811,0.012141,-0.013318,0.551746,0.402907,-0.052947,-0.728312,37.919260,31.901306,-94.491588
58913,-7.883855,5.997399,8.045022,-0.113443,1.194247,2.891345,0.543821,2.088173,-2.719497,-0.077169,0.060810,0.081426,0.999849,0.002719,0.010440,-0.013597,0.541265,0.412630,-0.043671,-0.731342,37.907890,33.798475,-95.076879
58914,-6.230055,6.389922,7.696824,0.297706,-0.624014,1.951345,-0.034974,2.049517,-3.140705,-0.060494,0.064872,0.077583,0.999824,-0.000175,0.010247,-0.015703,0.530255,0.420608,-0.031509,-0.735477,37.393508,35.822653,-95.934837
58915,-7.673346,2.186413,6.860450,-2.132121,2.309242,0.228961,-0.324523,2.089489,-3.530733,-0.075608,0.023318,0.069361,0.999788,-0.001622,0.010447,-0.017652,0.518220,0.427860,-0.017335,-0.740327,36.530487,37.991551,-97.053026
58916,-10.242431,-0.024709,7.647825,-3.946187,4.650181,1.420554,0.204787,1.841401,-3.593536,-0.101698,0.001506,0.077418,0.999796,0.001024,0.009206,-0.017966,0.504585,0.435396,-0.005631,-0.745514,35.803249,40.053725,-98.387068
58917,-11.768523,1.927716,8.807634,-2.952823,3.986541,4.157394,0.925709,1.213831,-3.502658,-0.116791,0.020918,0.088881,0.999818,0.004628,0.006069,-0.017512,0.489505,0.442238,0.001620,-0.751537,35.264489,41.782401,-100.010473
58918,-11.465824,4.248854,9.555217,-1.651650,1.877207,5.502562,0.983448,0.455232,-3.449269,-0.113690,0.043983,0.096026,0.999837,0.004917,0.002276,-0.017245,0.474339,0.446224,0.006666,-0.758843,34.479484,43.121815,-102.001499
58919,-10.324708,3.603356,9.219250,-1.905926,1.260020,4.306410,0.793534,-0.120059,-3.704576,-0.102616,0.037572,0.092278,0.999820,0.003967,-0.000600,-0.018522,0.458480,0.447410,0.011653,-0.767779,33.209586,44.243525,-104.489473
58920,-10.880732,0.304225,8.382902,-3.346061,3.707649,2.985824,0.892628,-0.698098,-3.969676,-0.109015,0.004832,0.083468,0.999787,0.004463,-0.003490,-0.019847,0.441242,0.446420,0.015505,-0.778315,31.608581,45.120583,-107.486929
58921,-10.254379,1.401166,7.374298,-1.707299,2.881058,2.445743,1.319532,-1.154444,-4.405339,-0.102633,0.015787,0.073251,0.999719,0.006597,-0.005772,-0.022025,0.421168,0.444335,0.017674,-0.790488,29.809412,45.837797,-111.061295
58922,-9.946260,3.086924,7.733753,-0.545593,1.219103,3.089495,0.998651,-1.322813,-5.286846,-0.099116,0.033108,0.076843,0.999616,0.004993,-0.006613,-0.026431,0.398067,0.440543,0.022683,-0.804332,27.224249,46.614181,-115.426784
58923,-11.683827,-1.778493,7.152261,-2.357336,5.573166,2.603886,0.805488,-1.561938,-5.960756,-0.117858,-0.014568,0.070542,0.999517,0.004027,-0.007808,-0.029799,0.372358,0.434940,0.029479,-0.819334,23.968832,47.279868,-120.502949
58924,-12.485318,-0.831860,7.239299,-0.906663,5.087631,3.686782,1.819786,-2.110913,-5.942872,-0.125794,-0.005240,0.071011,0.999461,0.009097,-0.010553,-0.029709,0.344226,0.428545,0.031007,-0.834803,21.089434,47.463637,-125.826161
58925,-10.664884,5.294029,7.938353,2.058545,-1.092808,4.305902,2.106632,-2.625533,-5.495392,-0.106191,0.055032,0.078560,0.999481,0.010531,-0.013125,-0.027472,0.317055,0.420103,0.029490,-0.849777,18.528857,47.112075,-130.942955
58926,-7.931792,8.367768,8.118716,2.668925,-5.298812,2.979378,1.574567,-2.775839,-4.855103,-0.078389,0.084951,0.080760,0.999578,0.007872,-0.013877,-0.024272,0.293454,0.409887,0.028593,-0.863168,16.102198,46.417723,-135.505019
58927,-4.898783,7.244762,6.289998,1.920548,-5.515635,-0.760873,1.134867,-2.600218,-3.943755,-0.048367,0.073049,0.062682,0.999705,0.005674,-0.013000,-0.019717,0.274444,0.399611,0.027988,-0.874190,14.087472,45.564132,-139.200225
58928,-2.836675,8.233897,5.704842,1.710977,-7.260110,-2.549711,0.838942,-2.068517,-3.011264,-0.027716,0.082520,0.057105,0.999824,0.004194,-0.010342,-0.015055,0.259905,0.391206,0.027505,-0.882412,12.603201,44.805856,-141.963586
58929,-3.551781,6.819152,5.740991,1.375849,-5.817544,-2.306856,0.507969,-1.465603,-2.302346,-0.035151,0.068452,0.057325,0.999904,0.002540,-0.007328,-0.011511,0.248982,0.385010,0.027889,-0.888255,11.449623,44.255733,-144.014454
58930,-5.561703,5.052748,6.290348,1.371357,-3.622842,-0.811286,0.593346,-1.132828,-1.790326,-0.055519,0.050838,0.062739,0.999939,0.002967,-0.005664,-0.008951,0.240088,0.380421,0.027301,-0.892688,10.695894,43.812751,-145.581421
58931,-7.752078,6.259671,7.998316,2.126630,-4.250992,2.047206,0.617263,-1.051618,-1.635500,-0.077427,0.062984,0.079770,0.999948,0.003086,-0.005258,-0.008177,0.231799,0.376190,0.026417,-0.896690,10.066109,43.385104,-146.999070
58932,-9.845226,3.808208,9.466824,1.473713,-1.629241,4.195260,0.391111,-1.330065,-1.690660,-0.098754,0.038732,0.094087,0.999940,0.001956,-0.006650,-0.008453,0.223702,0.370411,0.026314,-0.901144,9.277234,42.793707,-148.475271
58933,-13.321675,3.163519,11.149997,2.525999,-0.112563,7.662849,0.676714,-2.051665,-1.639665,-0.134089,0.032358,0.110236,0.999908,0.003383,-0.010258,-0.008198,0.215365,0.361641,0.024027,-0.906784,8.652637,41.775106,-149.971715
58934,-16.629719,5.600683,13.542797,4.612332,-1.551397,11.811459,0.445911,-3.349765,-1.702686,-0.168052,0.057135,0.132750,0.999821,0.002229,-0.016748,-0.008513,0.207260,0.346642,0.021487,-0.914561,7.833373,40.012651,-151.606355
58935,-14.369607,3.861137,11.652421,4.338460,-0.405972,8.575462,-0.120815,-4.620953,-1.807425,-0.145979,0.039993,0.113145,0.999692,-0.000604,-0.023102,-0.009036,0.199693,0.325057,0.020399,-0.924145,6.669029,37.513357,-153.346604
58936,-8.341236,2.618504,8.715556,2.055279,-0.867845,2.327497,-0.263041,-5.195028,-1.706545,-0.085409,0.027021,0.084919,0.999625,-0.001315,-0.025972,-0.008532,0.192747,0.300473,0.019212,-0.933914,5.577322,34.655339,-154.936053
58937,-2.046302,0.865235,6.117247,-1.394424,-0.978756,-3.532073,-0.247575,-4.990252,-1.537231,-0.021913,0.008892,0.060627,0.999658,-0.001238,-0.024948,-0.007685,0.186409,0.276657,0.017885,-0.942546,4.689930,31.883415,-156.285409
58938,-0.298660,-0.526279,6.308156,-3.093782,-0.225725,-4.287271,0.024261,-4.245958,-1.427259,-0.004362,-0.005243,0.062998,0.999749,0.000121,-0.021228,-0.007136,0.180037,0.256452,0.015804,-0.949510,4.107379,29.518058,-157.444605
58939,-3.590444,-0.861087,7.676793,-0.953255,1.114512,-1.421865,0.435889,-3.766337,-1.369195,-0.037400,-0.008525,0.076054,0.999797,0.002179,-0.018830,-0.006846,0.173293,0.238774,0.012124,-0.955411,3.849118,27.416583,-158.499589
58940,-5.690488,1.249563,9.130527,1.172151,-0.233441,0.951575,0.719285,-3.674641,-1.336825,-0.058486,0.012557,0.090285,0.999802,0.003596,-0.018372,-0.006684,0.166291,0.221694,0.007121,-0.960806,3.810322,25.364631,-159.503904
58941,-7.273753,2.083340,10.274473,2.693187,-0.507500,2.648628,0.662908,-3.859157,-1.271628,-0.074570,0.020966,0.101387,0.999788,0.003314,-0.019294,-0.006358,0.159603,0.203584,0.002165,-0.965958,3.793064,23.203559,-160.456878
58942,-9.436711,2.657513,11.220893,4.864708,-0.314293,4.266658,0.830365,-4.338813,-0.983035,-0.096642,0.026586,0.110239,0.999744,0.004151,-0.021692,-0.004915,0.154069,0.183207,-0.004281,-0.970917,3.971691,20.759060,-161.238768
58943,-6.955886,5.978226,10.310989,4.512597,-3.998036,2.599636,0.851497,-4.963346,-0.565834,-0.071924,0.059549,0.101598,0.999679,0.004257,-0.024814,-0.002829,0.150438,0.159698,-0.011688,-0.975566,4.271110,17.943267,-161.792734
58944,-2.397594,4.233886,7.348261,1.253365,-3.425161,-1.790491,0.859958,-5.075021,0.127784,-0.025860,0.042008,0.073023,0.999669,0.004299,-0.025372,0.000639,0.150080,0.135509,-0.019769,-0.979144,4.715139,15.036298,-161.948807
58945,-2.762077,5.218720,6.777407,2.369396,-4.054374,-2.149008,1.380550,-4.972314,0.792937,-0.029505,0.051606,0.067414,0.999659,0.006902,-0.024859,0.003964,0.152534,0.112055,-0.030760,-0.981443,5.550994,12.155650,-161.740260
58946,-2.438869,6.023280,7.771395,2.440409,-4.651921,-1.151968,1.246784,-4.894703,1.193758,-0.026644,0.059595,0.077453,0.999663,0.006233,-0.024471,0.005968,0.156938,0.088744,-0.041238,-0.982748,6.335839,9.292917,-161.338308
58947,-3.038365,3.207680,7.348398,2.605585,-1.554070,-1.794019,1.438642,-4.849063,1.562661,-0.032403,0.031303,0.072942,0.999650,0.007192,-0.024242,0.007812,0.162970,0.065671,-0.052765,-0.983028,7.234761,6.425737,-160.767130
58948,-0.952388,3.290370,6.646088,1.109189,-2.114018,-2.728105,1.688719,-4.787382,1.851992,-0.011416,0.032243,0.066477,0.999635,0.008443,-0.023934,0.009259,0.170242,0.042981,-0.065521,-0.982282,8.258074,3.562082,-160.077897
58949,3.290007,3.106851,4.684896,-2.450824,-3.422763,-4.843380,1.622586,-4.330073,2.077338,0.031550,0.031016,0.047794,0.999679,0.008112,-0.021648,0.010386,0.178667,0.022380,-0.077576,-0.980591,9.216127,0.926529,-159.272918
58950,3.933453,2.863940,6.149308,-3.004393,-3.084913,-3.260120,1.586091,-3.416584,2.245962,0.037953,0.028578,0.062376,0.999760,0.007930,-0.017082,0.011229,0.188177,0.006142,-0.088602,-0.978111,10.118099,-1.222206,-158.328237
58951,-1.863793,0.489276,7.255798,1.662705,1.588452,-2.666678,1.461839,-3.041397,2.250793,-0.019788,0.004145,0.072295,0.999794,0.007309,-0.015206,0.011253,0.197795,-0.008383,-0.098642,-0.975232,10.916080,-3.174245,-157.373092
58952,3.349945,0.729876,5.226433,-2.850976,-0.874866,-4.319618,1.563958,-2.834645,2.105276,0.032677,0.007234,0.052788,0.999814,0.007819,-0.014172,0.010526,0.206734,-0.021724,-0.108929,-0.972072,11.745663,-5.006729,-156.502487
58953,6.301436,-0.267350,4.152762,-5.831445,-1.347965,-5.208297,1.765531,-1.877536,2.152893,0.062648,-0.002368,0.042095,0.999859,0.008827,-0.009387,0.010764,0.216378,-0.030225,-0.119178,-0.968537,12.656670,-6.322441,-155.514936
58954,3.049057,0.538846,5.043371,-2.469135,-0.459180,-4.454103,2.308061,-1.184802,2.443135,0.030127,0.005174,0.050673,0.999841,0.011540,-0.005924,0.012215,0.227858,-0.034948,-0.131212,-0.964180,13.829875,-7.307080,-154.294575
58955,0.646628,4.016452,6.535447,1.313631,-1.861348,-2.459708,2.681038,-0.856382,2.844620,0.005621,0.039367,0.065911,0.999800,0.013404,-0.004282,0.014222,0.241472,-0.037920,-0.144566,-0.958830,15.164132,-8.194543,-152.821777
58956,0.414165,6.123333,6.629628,2.623196,-3.257573,-1.805258,2.099241,-0.657931,2.890801,0.003043,0.060582,0.066946,0.999835,0.010496,-0.003289,0.014453,0.255253,-0.040656,-0.154816,-0.953533,16.135956,-9.007726,-151.306998
58957,3.269730,1.613182,4.584051,-2.007363,-1.413258,-4.494808,1.756216,-0.211818,2.826308,0.032420,0.016188,0.046017,0.999861,0.008781,-0.001059,0.014131,0.268922,-0.041647,-0.162844,-0.948382,16.890095,-9.588942,-149.764659
58958,1.457447,1.521771,6.152288,-0.512676,0.148518,-3.331592,2.410076,0.237441,2.979802,0.014426,0.014691,0.061685,0.999816,0.012050,0.001187,0.014898,0.283736,-0.039733,-0.173268,-0.942281,17.977963,-9.974180,-148.065911
58959,0.656186,2.990427,7.259856,0.904633,-0.035930,-1.986091,2.675734,0.311884,3.352592,0.006184,0.029035,0.072981,0.999769,0.013378,0.001559,0.016762,0.300303,-0.037408,-0.184707,-0.935041,19.169640,-10.421696,-146.154128
58960,3.802858,2.592467,4.955091,-1.786928,-2.172389,-3.662707,3.176512,0.480227,4.069507,0.037621,0.025903,0.049872,0.999664,0.015881,0.002401,0.020345,0.320302,-0.034176,-0.197979,-0.925766,20.552939,-10.958810,-143.823012
58961,5.880947,3.608483,3.786718,-2.618755,-4.519153,-3.925267,3.664293,1.058718,4.790004,0.058136,0.036784,0.038228,0.999531,0.018319,0.005293,0.023946,0.344030,-0.028182,-0.212315,-0.914205,22.100175,-11.397440,-140.988585
58962,5.294046,3.632790,4.365909,-2.041260,-3.919831,-3.429027,4.054510,1.785885,5.349348,0.052351,0.036845,0.043933,0.999397,0.020268,0.008928,0.026741,0.370774,-0.018747,-0.226860,-0.900394,23.761516,-11.653188,-137.696891
58963,2.069768,7.416214,7.127950,2.567471,-2.773684,-0.025286,4.107950,2.329800,5.652271,0.019459,0.073242,0.072559,0.999322,0.020535,0.011646,0.028255,0.399026,-0.007102,-0.240338,-0.884853,25.385632,-11.792623,-134.118821
58964,0.544141,7.550877,8.162551,3.485797,-0.959353,0.716152,3.132769,2.675482,5.452916,0.004505,0.074350,0.082732,0.999416,0.015661,0.013375,0.027259,0.426276,0.004393,-0.248497,-0.869781,26.449365,-11.783525,-130.559907
58965,0.114492,4.932503,8.873381,1.528091,1.265396,0.144121,2.542034,2.872503,5.042606,0.001200,0.048222,0.089334,0.999498,0.012708,0.014360,0.025209,0.451535,0.015974,-0.253410,-0.855362,27.214516,-11.625837,-127.165251
58966,0.429018,1.844144,8.275583,-1.087817,2.262968,-1.703395,2.504022,2.972907,4.564361,0.005115,0.017514,0.082907,0.999551,0.012518,0.014862,0.022818,0.474452,0.028505,-0.257633,-0.841254,28.013257,-11.332837,-123.991237
58967,0.417436,2.763637,9.425639,-0.954920,2.318997,-0.306967,2.350241,3.051878,4.072836,0.005066,0.026624,0.094500,0.999607,0.011750,0.015257,0.020362,0.495025,0.041598,-0.260754,-0.827784,28.789079,-10.911465,-121.048491
58968,-0.379100,2.139068,9.087715,-1.220792,3.030176,-1.059068,2.226489,3.092520,3.441112,-0.002739,0.020324,0.091155,0.999670,0.011131,0.015461,0.017204,0.512707,0.055361,-0.262923,-0.815437,29.574949,-10.330043,-118.414453
58969,-0.226526,1.605601,8.685838,-1.854700,2.824739,-1.648930,1.963480,3.130631,2.748090,-0.001116,0.015181,0.087034,0.999735,0.009817,0.015652,0.013739,0.527382,0.069468,-0.263589,-0.804713,30.299300,-9.568166,-116.117156
58970,-0.231432,1.689081,7.812756,-1.690432,2.366114,-2.363953,1.933167,3.230215,2.198405,-0.001230,0.016117,0.078312,0.999762,0.009665,0.016150,0.010991,0.539723,0.084600,-0.263531,-0.795043,31.077329,-8.623768,-114.060023
58971,-0.513070,3.433252,7.325880,-0.178570,1.858042,-1.924093,1.791463,3.309777,1.822573,-0.004223,0.033633,0.073637,0.999781,0.008957,0.016548,0.009112,0.550490,0.100108,-0.262427,-0.786175,31.831693,-7.557616,-112.157552
58972,2.355348,3.687684,5.459722,-0.354202,-1.522097,-2.992786,1.362268,3.586681,1.426040,0.024268,0.036677,0.054417,0.999791,0.006811,0.017932,0.007130,0.560040,0.116015,-0.258553,-0.778490,32.391238,-6.255719,-110.356657
58973,5.321904,0.269655,2.330717,-2.671565,-4.465496,-7.215624,0.986491,4.238426,0.836346,0.053686,0.002809,0.022186,0.999755,0.004932,0.021190,0.004181,0.568103,0.134101,-0.250942,-0.772207,32.790886,-4.474441,-108.634247
58974,3.594049,1.789867,3.373588,-1.358548,-3.102788,-5.809630,1.386203,5.043040,0.174003,0.036762,0.017700,0.032939,0.999658,0.006930,0.025212,0.000870,0.574015,0.157196,-0.241987,-0.766315,33.484878,-2.113860,-106.965253
58975,-1.692409,5.255191,6.172415,1.396662,1.470800,-1.784395,1.218607,5.416529,-0.280036,-0.015166,0.052195,0.062470,0.999614,0.006092,0.027079,-0.001400,0.578358,0.181653,-0.230798,-0.761076,34.156572,0.546355,-105.368214
58976,-4.573740,6.691141,8.539394,1.730403,3.903875,1.157693,0.920737,5.365287,-0.440118,-0.043273,0.066611,0.086884,0.999627,0.004603,0.026823,-0.002200,0.581861,0.205123,-0.218291,-0.756116,34.730205,3.219637,-103.833567
58977,-6.558182,5.025608,10.169823,-0.368532,5.901055,1.879170,0.504721,4.978194,-0.523817,-0.062890,0.050164,0.103413,0.999684,0.002523,0.024888,-0.002619,0.584656,0.225853,-0.205113,-0.751729,35.123339,5.723033,-102.439572
58978,-6.525715,2.294345,9.243480,-2.302149,6.019376,-0.234855,0.885356,4.439322,-0.688423,-0.063104,0.022749,0.093953,0.999738,0.004426,0.022195,-0.003442,0.585508,0.245727,-0.194624,-0.747609,35.765644,8.019312,-101.274422
58979,-6.518828,4.524858,9.988413,-1.305084,5.068850,1.819873,1.077519,4.003389,-1.089143,-0.062923,0.045052,0.101402,0.999770,0.005387,0.020015,-0.005445,0.583920,0.264789,-0.185545,-0.744646,36.514638,10.233523,-100.411932
58980,-7.569022,4.291980,10.358806,-1.790984,5.692787,2.327196,0.806782,3.572235,-1.579149,-0.073482,0.043084,0.105087,0.999801,0.004034,0.017860,-0.007895,0.580212,0.281812,-0.175986,-0.743616,37.073464,12.409687,-99.897572
58981,-7.110781,3.020299,9.785946,-2.677092,5.202851,1.196233,0.681239,3.185956,-2.077930,-0.069219,0.030593,0.099076,0.999813,0.003406,0.015929,-0.010389,0.574268,0.297354,-0.166307,-0.744406,37.496797,14.577799,-99.731823
58982,-7.507086,2.621150,9.618751,-2.942283,5.320551,1.085328,0.721962,2.826338,-2.502945,-0.073368,0.026787,0.097328,0.999815,0.003610,0.014131,-0.012514,0.566167,0.311929,-0.157122,-0.746638,37.866192,16.731193,-99.879396
58983,-6.963438,2.929595,8.726518,-2.335104,4.457519,0.574325,0.962652,2.527976,-2.714953,-0.068120,0.029804,0.088275,0.999816,0.004813,0.012639,-0.013574,0.556458,0.326114,-0.149280,-0.749479,38.306157,18.826027,-100.224394
58984,-5.715269,5.880141,8.152967,-0.118509,2.019897,1.571634,1.069235,2.411193,-2.742616,-0.055352,0.059129,0.082520,0.999819,0.005346,0.012055,-0.013712,0.546182,0.340071,-0.142075,-0.752231,38.782462,20.880850,-100.612736
58985,-3.888133,7.372961,7.077565,1.236442,-0.422014,1.043127,0.635564,2.550552,-2.776764,-0.036946,0.074025,0.071490,0.999817,0.003178,0.012752,-0.013883,0.536416,0.353259,-0.132733,-0.754883,39.011736,23.012900,-100.956106
58986,-1.975507,8.107973,6.129134,1.979050,-2.682978,-0.010841,-0.117500,3.015855,-3.177849,-0.017537,0.081406,0.061519,0.999760,-0.000587,0.015078,-0.015888,0.526549,0.366311,-0.118553,-0.757963,38.791681,25.496184,-101.316888
58987,-4.490389,4.554291,6.532288,-0.402353,0.491850,-0.693830,-0.892551,3.496834,-3.725112,-0.042893,0.046648,0.065878,0.999664,-0.004462,0.017482,-0.018623,0.516011,0.379249,-0.099088,-0.761633,38.057996,28.387766,-101.793406
58988,-9.458884,-1.494585,6.191219,-3.569837,7.131247,-1.663195,-0.295061,3.499434,-3.695666,-0.093740,-0.013115,0.063578,0.999675,-0.001475,0.017495,-0.018476,0.504113,0.393483,-0.081894,-0.764418,37.632690,31.265396,-102.299361
58989,-11.755783,1.203524,7.578999,-2.248828,6.963144,2.167440,1.344234,2.913557,-3.109380,-0.116236,0.013332,0.077577,0.999750,0.006721,0.014567,-0.015546,0.490699,0.409136,-0.073529,-0.765778,38.155329,33.673039,-102.748373
58990,-11.212645,9.569118,9.987988,1.550389,1.082477,7.891639,1.795609,2.087485,-2.652451,-0.109796,0.096249,0.101897,0.999817,0.008977,0.010437,-0.013261,0.477599,0.422398,-0.069841,-0.767203,38.875093,35.550377,-103.284662
58991,-9.639934,12.770625,10.571102,2.803360,-2.594337,8.979593,0.565882,1.285315,-2.727290,-0.093965,0.128698,0.106683,0.999882,0.002829,0.006426,-0.013636,0.466381,0.429541,-0.063148,-0.770711,38.636642,37.099537,-104.223146
58992,-8.521912,8.994962,9.042702,1.205418,-1.391772,5.415356,-0.752150,0.758105,-3.116294,-0.083458,0.091599,0.090403,0.999864,-0.003761,0.003790,-0.015581,0.456216,0.431600,-0.051779,-0.776471,37.318437,38.535888,-105.662660
58993,-6.962687,2.318904,6.754834,-1.756817,1.656824,-0.135678,-0.947774,0.514954,-3.269668,-0.069058,0.024641,0.067612,0.999852,-0.004739,0.002575,-0.016348,0.445680,0.432180,-0.039840,-0.782945,35.684869,39.883937,-107.377428
58994,-6.670881,0.742876,6.502352,-2.557380,2.253214,-1.111424,-0.007879,0.449833,-3.127234,-0.066435,0.008472,0.065173,0.999875,-0.000039,0.002249,-0.015636,0.433542,0.434460,-0.032041,-0.788834,34.553290,41.120950,-109.105685
58995,-6.662677,2.529328,6.534180,-1.338806,0.949895,-0.284475,0.754040,0.388720,-2.914619,-0.066124,0.026012,0.065568,0.999885,0.003770,0.001944,-0.014573,0.420468,0.438004,-0.027811,-0.794094,33.861683,42.240648,-110.785218
58996,-7.267742,5.931276,8.240716,-0.204286,-1.596848,2.569237,0.812702,0.316259,-3.005918,-0.071648,0.060059,0.082764,0.999878,0.004063,0.001581,-0.015029,0.406800,0.441302,-0.023783,-0.799500,33.088584,43.337272,-112.602067
58997,-8.790274,4.313224,8.098669,-0.636480,0.269746,2.874882,0.196874,0.080984,-3.460269,-0.087107,0.044564,0.081065,0.999850,0.000984,0.000405,-0.017300,0.392530,0.442331,-0.016740,-0.806215,31.608650,44.433861,-114.889634
58998,-11.278711,1.039053,8.880439,-2.268328,3.591366,3.938359,0.194609,-0.385928,-4.100474,-0.112715,0.012616,0.088598,0.999787,0.000973,-0.001930,-0.020501,0.375511,0.441376,-0.009206,-0.814920,29.588871,45.435299,-117.900384
58999,-12.150499,-0.386725,8.625202,-2.289427,4.956422,4.056244,0.668152,-1.104960,-4.587412,-0.122029,-0.001359,0.085571,0.999716,0.003340,-0.005524,-0.022935,0.355236,0.438174,-0.003846,-0.825709,27.280291,46.126892,-121.645271
59000,-12.291805,2.705976,9.595413,-0.696973,2.142533,5.851945,1.013104,-1.757509,-5.042431,-0.123030,0.029678,0.095019,0.999631,0.005065,-0.008786,-0.025209,0.332092,0.432625,-0.000096,-0.838183,24.679414,46.483357,-126.038237
59001,-12.329427,2.264103,9.689017,-0.489314,2.163655,5.873689,0.881154,-2.450952,-5.307299,-0.123819,0.025500,0.095483,0.999563,0.004405,-0.012253,-0.026533,0.307847,0.423591,0.003660,-0.851932,21.656436,46.385231,-130.895381
59002,-10.639550,2.044717,8.918979,-0.274218,1.419535,4.144879,1.237771,-3.101963,-5.008902,-0.107215,0.022580,0.087666,0.999547,0.006188,-0.015507,-0.025041,0.283867,0.411975,0.004228,-0.865840,18.932919,45.709490,-135.656257
59003,-7.376504,6.538333,8.042836,1.300212,-3.897995,2.227229,1.465514,-3.321138,-4.358216,-0.073653,0.066403,0.079689,0.999598,0.007327,-0.016603,-0.021788,0.261986,0.399379,0.002190,-0.878553,16.785734,44.660048,-139.854814
59004,-4.842779,9.878970,7.567798,1.914976,-7.988207,0.715202,0.730973,-3.083757,-3.651848,-0.047780,0.099390,0.075300,0.999708,0.003655,-0.015417,-0.018257,0.244500,0.386610,0.002242,-0.889240,14.787587,43.525277,-143.321317
59005,-3.379154,6.649332,5.798096,0.929665,-5.556694,-2.229331,-0.076548,-2.635163,-2.950264,-0.033565,0.067012,0.057512,0.999804,-0.000383,-0.013175,-0.014750,0.231563,0.374650,0.005100,-0.897769,12.871844,42.458899,-146.055542
59006,-2.994531,4.847512,5.403523,0.283303,-4.107955,-3.126340,-0.105616,-2.103334,-2.312607,-0.029948,0.048850,0.053695,0.999878,-0.000528,-0.010516,-0.011563,0.221462,0.364958,0.007484,-0.904270,11.415989,41.556301,-148.133648
59007,-3.975980,4.378258,6.302610,0.211154,-3.505993,-1.915666,-0.049220,-1.669688,-1.855147,-0.039876,0.044168,0.062683,0.999922,-0.000246,-0.008348,-0.009275,0.213261,0.357214,0.009274,-0.909303,10.312913,40.812563,-149.756056
59008,-6.377328,3.429699,7.229348,0.920692,-1.932889,0.192872,0.080620,-1.492660,-1.526702,-0.064046,0.034756,0.071830,0.999943,0.000403,-0.007463,-0.007633,0.206290,0.350399,0.010057,-0.913545,9.498202,40.117642,-151.075635
59009,-9.791459,4.908791,10.032045,2.168847,-2.531751,4.661174,0.077415,-1.704144,-1.417257,-0.098414,0.049746,0.099502,0.999939,0.000387,-0.008521,-0.007086,0.199807,0.342559,0.010456,-0.917944,8.745430,39.277638,-152.314084
59010,-11.663396,2.447311,10.446995,2.573837,0.290608,5.821961,-0.042297,-2.350452,-1.463822,-0.117667,0.025354,0.103086,0.999904,-0.000211,-0.011752,-0.007319,0.193321,0.331597,0.010825,-0.923338,7.900454,38.063712,-153.620319
59011,-12.492414,3.370109,11.263857,3.450301,-0.435862,6.985354,-0.077973,-3.111013,-1.632220,-0.126375,0.034772,0.110667,0.999846,-0.000390,-0.015554,-0.008161,0.186108,0.316981,0.010908,-0.929929,6.972846,36.412889,-155.069739
59012,-11.083835,1.508069,9.613436,3.275632,1.023911,4.530871,-0.095202,-3.828500,-1.651708,-0.112521,0.016050,0.093984,0.999783,-0.000476,-0.019141,-0.008258,0.178803,0.298911,0.010422,-0.937322,6.072748,34.338310,-156.522227
59013,-7.143164,2.263065,7.979416,1.953248,-0.752572,0.930693,0.163003,-4.195186,-1.457688,-0.072917,0.023094,0.078294,0.999753,0.000815,-0.020974,-0.007288,0.171957,0.279213,0.008112,-0.944672,5.462000,32.027053,-157.798351
59014,-3.789191,2.846083,6.537957,0.615418,-2.162959,-2.057713,0.209600,-4.048418,-1.242755,-0.039028,0.028633,0.064627,0.999775,0.001048,-0.020241,-0.006213,0.165975,0.260137,0.005396,-0.951185,5.029237,29.779749,-158.865880
59015,-1.885197,3.535327,6.580058,-0.491423,-3.361438,-2.898557,0.026559,-3.629035,-1.129596,-0.019842,0.035455,0.065451,0.999819,0.000133,-0.018144,-0.005648,0.160690,0.242791,0.003754,-0.956670,4.591898,27.758608,-159.795127
59016,-1.358421,0.829007,6.201036,-1.398521,-0.878451,-3.627639,-0.095112,-3.114175,-0.952066,-0.014508,0.008387,0.061785,0.999867,-0.000476,-0.015570,-0.004760,0.156342,0.227746,0.002886,-0.961083,4.190418,26.018898,-160.552337
59017,-2.925464,1.465323,7.993717,-0.469013,-1.098639,-1.258496,0.285235,-2.661907,-0.737653,-0.030261,0.014650,0.079560,0.999904,0.001426,-0.013309,-0.003688,0.152549,0.215110,0.000301,-0.964602,4.100175,24.524575,-161.134959
59018,-8.357569,1.743214,10.777167,3.409533,0.113717,3.505960,0.188614,-2.719210,-0.679077,-0.084971,0.017618,0.106639,0.999901,0.000943,-0.013596,-0.003395,0.149114,0.202095,-0.001928,-0.967946,3.986804,22.995521,-161.673405
59019,-10.550126,1.101836,12.000108,5.081921,1.364186,5.313830,0.204852,-3.342948,-0.709861,-0.107448,0.011276,0.118227,0.999853,0.001024,-0.016714,-0.003549,0.145470,0.186014,-0.004667,-0.971707,3.883834,21.109131,-162.247580
59020,-7.712133,1.503861,10.624189,3.658618,0.329587,2.879682,0.331015,-3.966284,-0.711329,-0.079154,0.015144,0.104711,0.999796,0.001655,-0.019830,-0.003556,0.141636,0.166942,-0.008470,-0.975704,3.867112,18.866991,-162.838187
59021,-3.638827,2.068799,8.745847,1.165666,-1.181668,-0.260526,0.379553,-4.131704,-0.546257,-0.038129,0.020625,0.086722,0.999781,0.001898,-0.020657,-0.002731,0.138500,0.147017,-0.012761,-0.979306,3.930577,16.523904,-163.329516
59022,-3.684165,1.636168,7.937210,1.666016,-0.609814,-1.089642,0.826205,-4.051524,-0.083661,-0.038433,0.016052,0.078671,0.999786,0.004131,-0.020256,-0.000418,0.137246,0.127703,-0.019518,-0.982077,4.341794,14.209686,-163.547385
59023,-5.589339,2.943484,8.957486,3.866229,-1.140965,0.379177,1.376815,-4.195052,0.497303,-0.057830,0.028681,0.088575,0.999753,0.006884,-0.020974,0.002486,0.138415,0.107947,-0.029440,-0.984033,5.147205,11.788393,-163.454731
59024,-5.748345,2.174578,8.241062,4.336981,-0.080860,-0.493450,2.116215,-4.632695,1.299837,-0.059511,0.020499,0.081269,0.999655,0.010580,-0.023161,0.006498,0.142988,0.086368,-0.043717,-0.984979,6.443456,9.069933,-162.968757
59025,-1.176531,7.104579,7.141478,1.941537,-5.834427,-1.748830,2.559103,-4.758121,1.978737,-0.014170,0.069995,0.071997,0.999586,0.012794,-0.023787,0.009892,0.150575,0.064282,-0.060527,-0.984648,8.011643,6.220948,-162.174989
59026,1.170960,6.028437,6.668350,-0.154390,-5.283401,-2.449002,1.791708,-4.219596,2.442932,0.009559,0.059808,0.067438,0.999663,0.008958,-0.021096,0.012213,0.160744,0.044072,-0.073255,-0.983287,9.122522,3.618965,-161.142410
59027,-1.360348,1.202040,6.762330,1.023771,0.318974,-2.894246,2.027865,-3.849377,2.844149,-0.015066,0.011128,0.067459,0.999662,0.010138,-0.019245,0.014219,0.172860,0.025703,-0.086899,-0.980769,10.333546,1.167461,-159.903098
59028,-0.210615,2.873192,6.781935,0.742967,-1.349090,-2.607834,2.337149,-3.754461,3.027473,-0.003809,0.027888,0.068088,0.999641,0.011684,-0.018770,0.015136,0.185755,0.007961,-0.101927,-0.977263,11.667160,-1.278172,-158.606127
59029,4.906328,2.809548,4.982050,-3.700432,-3.325109,-4.153354,1.984162,-3.151344,3.067551,0.047834,0.028334,0.050861,0.999709,0.009920,-0.015755,0.015336,0.199045,-0.007179,-0.114620,-0.973238,12.746563,-3.417055,-157.264443
