PacketCounter,Acc_X,Acc_Y,Acc_Z,FreeAcc_E,FreeAcc_N,FreeAcc_U,Gyr_X,Gyr_Y,Gyr_Z,VelInc_X,VelInc_Y,VelInc_Z,OriInc_q0,OriInc_q1,OriInc_q2,OriInc_q3,Quat_q0,Quat_q1,Quat_q2,Quat_q3,Roll,Pitch,Yaw
36839,-9.546822,-0.509996,-0.487100,0.059301,-0.096813,-0.240526,0.010067,0.011670,-0.060349,-0.095470,-0.005071,-0.004866,1.000000,0.000050,0.000058,-0.000302,0.673694,-0.179015,0.702808,0.141949,-141.273856,86.180174,-115.023104
36840,-9.892174,-0.608809,-0.445880,0.147864,-0.141438,0.106117,0.011600,0.018044,-0.068244,-0.098924,-0.006054,-0.004450,1.000000,0.000058,0.000090,-0.000341,0.673715,-0.179183,0.702794,0.141713,-140.936716,86.156098,-114.691536
36841,-9.863251,-0.529564,-0.627455,-0.053761,-0.145638,0.083461,0.000102,-0.000209,-0.098506,-0.098635,-0.005247,-0.006275,1.000000,0.000001,-0.000001,-0.000493,0.673800,-0.179490,0.702692,0.141424,-140.322220,86.127021,-114.075234
36842,-9.664536,-0.420707,-0.496986,0.005663,0.003863,-0.126243,0.053618,0.013370,-0.081317,-0.096647,-0.004166,-0.004965,1.000000,0.000268,0.000067,-0.000407,0.673884,-0.179560,0.702678,0.141002,-139.860876,86.099908,-113.643041
36843,-9.649245,-0.252136,-0.241877,0.156451,0.271930,-0.162217,0.061233,0.001857,-0.068188,-0.096493,-0.002488,-0.002419,1.000000,0.000306,0.000009,-0.000341,0.673995,-0.179556,0.702654,0.140599,-139.431752,86.080469,-113.247613
36844,-9.536392,-0.322698,-0.294641,0.133934,0.182335,-0.268971,0.021754,-0.006567,-0.057176,-0.095365,-0.003199,-0.002950,1.000000,0.000109,-0.000033,-0.000286,0.674103,-0.179634,0.702572,0.140388,-139.043810,86.070582,-112.870694
36845,-9.722758,-0.426027,-0.370331,0.113562,0.072347,-0.074488,0.009925,0.000120,-0.066862,-0.097229,-0.004228,-0.003703,1.000000,0.000050,0.000001,-0.000334,0.674173,-0.179797,0.702507,0.140171,-138.649756,86.052018,-112.480938
36846,-9.753220,-0.525317,-0.458876,0.075050,-0.048556,-0.034967,0.035348,-0.002077,-0.081412,-0.097534,-0.005213,-0.004591,1.000000,0.000177,-0.000010,-0.000407,0.674295,-0.179917,0.702428,0.139826,-138.134154,86.030631,-111.983917
36847,-9.622480,-0.420102,-0.452894,0.026657,0.045606,-0.170545,0.085553,-0.001165,-0.073952,-0.096226,-0.004163,-0.004531,1.000000,0.000428,-0.000006,-0.000370,0.674442,-0.179849,0.702404,0.139321,-137.654887,86.009448,-111.552159
36848,-9.575955,-0.385751,-0.336617,0.111016,0.128984,-0.224566,0.092939,0.001865,-0.062551,-0.095761,-0.003826,-0.003367,1.000000,0.000465,0.000009,-0.000313,0.674587,-0.179713,0.702396,0.138834,-137.252397,85.993093,-111.201433
36849,-9.612883,-0.446575,-0.394659,0.083495,0.055872,-0.181871,0.067400,0.000297,-0.063264,-0.096130,-0.004434,-0.003948,1.000000,0.000337,0.000001,-0.000316,0.674705,-0.179669,0.702374,0.138428,-136.863832,85.975034,-110.850155
36850,-9.716879,-0.533397,-0.395934,0.119303,-0.011273,-0.073866,0.080120,-0.003162,-0.071970,-0.097171,-0.005297,-0.003963,1.000000,0.000401,-0.000016,-0.000360,0.674863,-0.179604,0.702331,0.137958,-136.392169,85.956771,-110.422823
36851,-9.791619,-0.606576,-0.408377,0.137810,-0.072218,0.004965,0.102534,-0.004852,-0.075197,-0.097918,-0.006027,-0.004089,1.000000,0.000513,-0.000024,-0.000376,0.675039,-0.179481,0.702305,0.137393,-135.892462,85.935711,-109.980289
36852,-9.671457,-0.716158,-0.490319,0.104539,-0.209230,-0.105181,0.117892,-0.001713,-0.073060,-0.096717,-0.007123,-0.004908,1.000000,0.000589,-0.000009,-0.000365,0.675226,-0.179294,0.702291,0.136786,-135.408100,85.915842,-109.561753
36853,-9.584546,-0.776763,-0.443719,0.167830,-0.243998,-0.191042,0.152781,0.027037,-0.060140,-0.095848,-0.007735,-0.004430,1.000000,0.000764,0.000135,-0.000301,0.675324,-0.178970,0.702420,0.136066,-135.153874,85.887402,-109.394167
36854,-9.690444,-0.756539,-0.422015,0.178880,-0.204923,-0.087403,0.157363,0.014361,-0.050158,-0.096907,-0.007538,-0.004219,1.000000,0.000787,0.000072,-0.000251,0.675473,-0.178579,0.702508,0.135382,-134.874978,85.869924,-109.204458
36855,-9.686668,-0.780832,-0.436677,0.173373,-0.229862,-0.089056,0.128711,0.001005,-0.047408,-0.096869,-0.007783,-0.004371,1.000000,0.000644,0.000005,-0.000237,0.675632,-0.178274,0.702543,0.134812,-134.564385,85.857046,-108.966523
36856,-9.690102,-0.617227,-0.491331,0.050094,-0.102940,-0.091199,0.154373,0.002665,-0.046674,-0.096903,-0.006146,-0.004917,1.000000,0.000772,0.000013,-0.000233,0.675816,-0.177874,0.702591,0.134161,-134.243627,85.845506,-108.733072
36857,-9.684473,-0.474910,-0.398005,0.070132,0.068154,-0.108905,0.152792,0.007476,-0.044034,-0.096846,-0.004725,-0.003980,1.000000,0.000764,0.000037,-0.000220,0.675970,-0.177479,0.702666,0.133513,-133.977643,85.831254,-108.553691
36858,-9.706794,-0.399477,-0.305155,0.119824,0.179910,-0.095289,0.137963,0.006165,-0.035033,-0.097069,-0.003976,-0.003051,1.000000,0.000690,0.000031,-0.000175,0.676119,-0.177096,0.702725,0.132955,-133.751991,85.822924,-108.406238
36859,-9.687945,-0.323059,-0.363116,0.032520,0.224945,-0.115222,0.048736,-0.000079,-0.034764,-0.096880,-0.003213,-0.003632,1.000000,0.000244,-0.000000,-0.000174,0.676201,-0.177015,0.702713,0.132709,-133.555323,85.815399,-108.236573
36860,-9.730771,-0.494131,-0.320586,0.143840,0.094435,-0.065625,0.038549,0.021669,-0.048134,-0.097309,-0.004917,-0.003196,1.000000,0.000193,0.000108,-0.000241,0.676216,-0.177024,0.702747,0.132443,-133.406411,85.795462,-108.108936
36861,-9.688275,-0.420267,-0.373656,0.062169,0.139846,-0.109312,0.064820,0.012542,-0.059223,-0.096884,-0.004173,-0.003732,1.000000,0.000324,0.000063,-0.000296,0.676284,-0.176983,0.702767,0.132047,-133.143724,85.772695,-107.882307
36862,-9.654800,-0.343190,-0.393150,0.008799,0.203165,-0.145933,0.035842,0.010909,-0.060403,-0.096549,-0.003402,-0.003927,1.000000,0.000179,0.000055,-0.000302,0.676342,-0.177037,0.702751,0.131759,-132.874045,85.751743,-107.631932
36863,-9.633059,-0.384191,-0.384329,0.032056,0.172998,-0.165917,0.035926,0.012965,-0.059666,-0.096332,-0.003812,-0.003838,1.000000,0.000180,0.000065,-0.000298,0.676383,-0.177096,0.702752,0.131463,-132.633116,85.728474,-107.410508
36864,-9.640995,-0.518973,-0.462562,0.016922,0.023044,-0.146703,0.040824,0.008784,-0.060456,-0.096412,-0.005160,-0.004622,1.000000,0.000204,0.000044,-0.000302,0.676453,-0.177132,0.702732,0.131159,-132.353478,85.708198,-107.152994
36865,-9.679757,-0.703073,-0.525345,0.037267,-0.162048,-0.094645,0.074449,0.013282,-0.066859,-0.096800,-0.006996,-0.005250,1.000000,0.000372,0.000066,-0.000334,0.676531,-0.177086,0.702754,0.130703,-132.060773,85.681599,-106.901769
36866,-9.697249,-0.694109,-0.551019,0.008143,-0.158239,-0.076315,0.107413,0.019075,-0.067129,-0.096975,-0.006906,-0.005505,1.000000,0.000537,0.000095,-0.000336,0.676628,-0.176927,0.702806,0.130132,-131.773042,85.654291,-106.674446
36867,-9.681714,-0.610469,-0.504813,0.012025,-0.058388,-0.098803,0.138656,0.022858,-0.068353,-0.096820,-0.006068,-0.005041,1.000000,0.000693,0.000114,-0.000342,0.676730,-0.176675,0.702900,0.129437,-131.496593,85.623219,-106.476400
36868,-9.633711,-0.539130,-0.394967,0.078620,0.054538,-0.156296,0.128482,0.031180,-0.063396,-0.096339,-0.005358,-0.003938,1.000000,0.000642,0.000156,-0.000317,0.676800,-0.176439,0.703010,0.128795,-131.289476,85.592791,-106.341882
36869,-9.721566,-0.448264,-0.342965,0.088461,0.170942,-0.076653,0.108204,0.030079,-0.065469,-0.097218,-0.004449,-0.003417,1.000000,0.000541,0.000150,-0.000327,0.676847,-0.176285,0.703110,0.128210,-131.090709,85.560123,-106.204233
36870,-9.728529,-0.504488,-0.323228,0.128999,0.134527,-0.067509,0.063648,0.023733,-0.068158,-0.097287,-0.005011,-0.003222,1.000000,0.000318,0.000119,-0.000341,0.676889,-0.176280,0.703148,0.127786,-130.861256,85.530326,-106.010142
36871,-9.717377,-0.568842,-0.368821,0.112720,0.062081,-0.072541,0.081805,0.013232,-0.069292,-0.097176,-0.005653,-0.003684,1.000000,0.000409,0.000066,-0.000346,0.676974,-0.176218,0.703171,0.127296,-130.571388,85.502207,-105.765930
36872,-9.606370,-0.445286,-0.391580,0.035377,0.161675,-0.189456,0.070780,0.016866,-0.074180,-0.096066,-0.004416,-0.003909,1.000000,0.000354,0.000084,-0.000371,0.677049,-0.176206,0.703185,0.126832,-130.277657,85.472185,-105.511469
36873,-9.625875,-0.471113,-0.414459,0.024214,0.136341,-0.167377,0.029942,0.022755,-0.072067,-0.096261,-0.004676,-0.004134,1.000000,0.000150,0.000114,-0.000360,0.677057,-0.176334,0.703205,0.126506,-130.063693,85.439151,-105.313571
36874,-9.648967,-0.477476,-0.423095,0.018214,0.134514,-0.143606,0.014276,0.023558,-0.069364,-0.096492,-0.004741,-0.004220,1.000000,0.000071,0.000118,-0.000347,0.677056,-0.176501,0.703209,0.126252,-129.867734,85.408664,-105.124602
36875,-9.679161,-0.612885,-0.507746,-0.002345,-0.015644,-0.100873,0.002501,0.015992,-0.062116,-0.096794,-0.006099,-0.005070,1.000000,0.000013,0.000080,-0.000311,0.677056,-0.176683,0.703197,0.126062,-129.683230,85.382384,-104.940468
36876,-9.672855,-0.866945,-0.549445,0.064588,-0.258960,-0.089191,0.021107,0.015126,-0.060973,-0.096732,-0.008639,-0.005488,1.000000,0.000106,0.000076,-0.000305,0.677085,-0.176791,0.703186,0.125819,-129.480333,85.358526,-104.748631
36877,-9.677470,-0.975845,-0.539314,0.117722,-0.348273,-0.078141,0.072065,0.013982,-0.058870,-0.096778,-0.009728,-0.005390,1.000000,0.000360,0.000070,-0.000294,0.677152,-0.176725,0.703213,0.125397,-129.263753,85.334311,-104.572291
36878,-9.651688,-0.955327,-0.445878,0.191062,-0.288812,-0.109769,0.100128,0.011606,-0.052322,-0.096520,-0.009526,-0.004458,1.000000,0.000501,0.000058,-0.000262,0.677258,-0.176534,0.703247,0.124908,-129.038569,85.315403,-104.403452
36879,-9.631640,-0.854062,-0.417584,0.171798,-0.183292,-0.137504,0.112771,0.008677,-0.045815,-0.096319,-0.008516,-0.004176,1.000000,0.000564,0.000043,-0.000229,0.677371,-0.176281,0.703292,0.124392,-128.830866,85.298808,-104.259411
36880,-9.644362,-0.747652,-0.362977,0.175188,-0.060291,-0.134354,0.102205,0.011470,-0.041710,-0.096445,-0.007455,-0.003628,1.000000,0.000511,0.000057,-0.000209,0.677472,-0.176045,0.703336,0.123932,-128.652411,85.284568,-104.138608
36881,-9.733164,-0.654529,-0.309947,0.184985,0.055986,-0.054532,0.089701,0.010833,-0.037913,-0.097333,-0.006525,-0.003097,1.000000,0.000449,0.000054,-0.000190,0.677552,-0.175843,0.703381,0.123522,-128.505939,85.270669,-104.042738
36882,-9.691529,-0.579606,-0.363074,0.103096,0.101293,-0.098131,0.074537,0.008910,-0.040693,-0.096917,-0.005775,-0.003629,1.000000,0.000373,0.000045,-0.000203,0.677636,-0.175697,0.703399,0.123165,-128.335089,85.257716,-103.913573
36883,-9.693001,-0.625145,-0.268807,0.206510,0.101802,-0.098557,0.080224,0.015082,-0.041225,-0.096931,-0.006230,-0.002683,1.000000,0.000401,0.000075,-0.000206,0.677695,-0.175542,0.703450,0.122773,-128.204384,85.240777,-103.828071
36884,-9.717394,-0.751069,-0.278484,0.248397,-0.011927,-0.065505,0.103498,0.004612,-0.041603,-0.097176,-0.007489,-0.002786,1.000000,0.000517,0.000023,-0.000208,0.677820,-0.175297,0.703470,0.122314,-127.991570,85.228865,-103.673529
36885,-9.656545,-0.860470,-0.410112,0.169994,-0.167663,-0.112149,0.137302,0.003692,-0.038371,-0.096567,-0.008583,-0.004105,1.000000,0.000687,0.000018,-0.000192,0.677966,-0.174931,0.703519,0.121742,-127.780374,85.217177,-103.540069
36886,-9.663059,-0.907421,-0.477651,0.124713,-0.235129,-0.099015,0.178643,0.003480,-0.039611,-0.096632,-0.009051,-0.004783,1.000000,0.000893,0.000017,-0.000198,0.678160,-0.174424,0.703582,0.121026,-127.528399,85.206471,-103.389433
36887,-9.689979,-0.892563,-0.468082,0.124284,-0.213011,-0.073558,0.214423,-0.000824,-0.039580,-0.096902,-0.008901,-0.004691,0.999999,0.001072,-0.000004,-0.000198,0.678389,-0.173798,0.703661,0.120182,-127.245346,85.195708,-103.228202
36888,-9.648533,-0.818482,-0.518438,0.042394,-0.167657,-0.117174,0.225965,-0.020873,-0.033336,-0.096486,-0.008163,-0.005204,0.999999,0.001130,-0.000104,-0.000167,0.678704,-0.173094,0.703674,0.119341,-126.861362,85.196086,-102.972351
36889,-9.592839,-0.739836,-0.528983,-0.005119,-0.103508,-0.177388,0.237982,-0.011980,-0.027502,-0.095929,-0.007379,-0.005304,0.999999,0.001190,-0.000060,-0.000138,0.678984,-0.172338,0.703738,0.118464,-126.554782,85.194532,-102.801055
36890,-9.644263,-0.641705,-0.427919,0.044232,0.031540,-0.137784,0.252982,-0.012718,-0.023391,-0.096443,-0.006400,-0.004293,0.999999,0.001265,-0.000064,-0.000117,0.679285,-0.171511,0.703801,0.117555,-126.240299,85.196455,-102.630423
36891,-9.644204,-0.638580,-0.515505,-0.041738,-0.000707,-0.133718,0.234334,-0.029195,-0.007409,-0.096442,-0.006376,-0.005177,0.999999,0.001172,-0.000146,-0.000037,0.679609,-0.170687,0.703819,0.116774,-125.921542,85.209857,-102.444811
36892,-9.517591,-0.640451,-0.602584,-0.128167,-0.048899,-0.255543,0.246886,-0.030613,0.001875,-0.095175,-0.006398,-0.006048,0.999999,0.001234,-0.000153,0.000009,0.679951,-0.169781,0.703838,0.115987,-125.611419,85.229348,-102.275085
36893,-9.460108,-0.606107,-0.714814,-0.249101,-0.068916,-0.309784,0.148587,-0.015090,0.025711,-0.094600,-0.006068,-0.007160,1.000000,0.000743,-0.000075,0.000129,0.680131,-0.169139,0.703881,0.115607,-125.550496,85.253345,-102.298910
36894,-9.721862,-0.978682,-0.604391,0.003666,-0.349077,-0.029240,0.126130,0.016687,0.030956,-0.097218,-0.009798,-0.006042,1.000000,0.000631,0.000083,0.000155,0.680186,-0.168568,0.704014,0.115304,-125.690846,85.270553,-102.511742
36895,-9.802711,-1.093703,-0.590292,0.062945,-0.445494,0.058247,0.219163,0.000497,0.022267,-0.098026,-0.010941,-0.005915,0.999999,0.001096,0.000002,0.000111,0.680372,-0.167707,0.704147,0.114651,-125.664075,85.287735,-102.610409
36896,-9.652349,-0.898551,-0.394199,0.161534,-0.205477,-0.114114,0.266889,-0.007917,0.022574,-0.096522,-0.008991,-0.003958,0.999999,0.001334,-0.000040,0.000113,0.680636,-0.166673,0.704269,0.113844,-125.551989,85.309150,-102.650938
36897,-9.566040,-0.858277,-0.336784,0.194726,-0.157192,-0.205578,0.249772,-0.011224,0.034026,-0.095659,-0.008595,-0.003384,0.999999,0.001249,-0.000056,0.000170,0.680879,-0.165660,0.704387,0.113133,-125.489053,85.335740,-102.730909
36898,-9.542906,-0.851203,-0.418089,0.114191,-0.189112,-0.225321,0.260188,-0.014625,0.045786,-0.095427,-0.008528,-0.004199,0.999999,0.001301,-0.000073,0.000229,0.681145,-0.164563,0.704499,0.112433,-125.436627,85.370217,-102.827274
36899,-9.628897,-0.764464,-0.469281,0.032720,-0.127842,-0.142999,0.264695,-0.020088,0.049180,-0.096287,-0.007662,-0.004713,0.999999,0.001323,-0.000100,0.000246,0.681422,-0.163440,0.704605,0.111728,-125.376681,85.406839,-102.918816
36900,-9.672751,-0.780244,-0.491597,0.015634,-0.153918,-0.097306,0.260047,-0.033777,0.052075,-0.096725,-0.007821,-0.004942,0.999999,0.001300,-0.000169,0.000260,0.681749,-0.162311,0.704655,0.111066,-125.238874,85.450584,-102.929460
36901,-9.685792,-0.835279,-0.534190,-0.006331,-0.226838,-0.078926,0.243478,-0.037745,0.058808,-0.096854,-0.008375,-0.005370,0.999999,0.001217,-0.000189,0.000294,0.682063,-0.161215,0.704694,0.110482,-125.126707,85.497573,-102.956412
36902,-9.643824,-0.631324,-0.588273,-0.136152,-0.069453,-0.131540,0.182017,-0.006355,0.070870,-0.096436,-0.006342,-0.005892,1.000000,0.000910,-0.000032,0.000354,0.682217,-0.160300,0.704807,0.110136,-125.275898,85.540994,-103.210148
36903,-9.794002,-0.715782,-0.323185,0.145754,-0.044803,0.011569,0.122876,0.016113,0.086056,-0.097937,-0.007198,-0.003228,1.000000,0.000614,0.000081,0.000430,0.682228,-0.159550,0.704985,0.110027,-125.676978,85.582776,-103.682580
36904,-9.868671,-0.612762,0.039535,0.446786,0.182972,0.063274,0.169021,-0.001488,0.068390,-0.098685,-0.006162,0.000389,1.000000,0.000845,-0.000007,0.000342,0.682355,-0.158691,0.705104,0.109714,-125.862901,85.623209,-103.965607
36905,-9.740850,-0.321413,0.227035,0.509762,0.505389,-0.090356,0.186105,-0.020377,0.047501,-0.097408,-0.003239,0.002257,1.000000,0.000931,-0.000102,0.000238,0.682565,-0.157840,0.705160,0.109279,-125.847903,85.659089,-104.057036
36906,-9.627422,-0.028496,0.101323,0.280954,0.715773,-0.215445,0.097598,-0.024195,0.034177,-0.096274,-0.000302,0.001001,1.000000,0.000488,-0.000121,0.000171,0.682734,-0.157332,0.705134,0.109119,-125.788446,85.691298,-104.052973
36907,-9.625995,0.016601,-0.176439,0.005576,0.650719,-0.207079,-0.017511,-0.009963,0.021858,-0.096260,0.000155,-0.001769,1.000000,-0.000088,-0.000050,0.000109,0.682760,-0.157272,0.705094,0.109307,-125.841047,85.711778,-104.095191
36908,-9.684299,-0.085964,-0.518128,-0.272964,0.430146,-0.127546,-0.132817,-0.009400,0.016577,-0.096843,-0.000871,-0.005185,1.000000,-0.000664,-0.000047,0.000083,0.682705,-0.157620,0.704979,0.109888,-125.926768,85.730936,-104.104283
36909,-9.619193,-0.356427,-0.670905,-0.314174,0.115144,-0.169344,-0.153666,0.010690,0.015586,-0.096192,-0.003577,-0.006701,1.000000,-0.000768,0.000053,0.000078,0.682554,-0.158059,0.704928,0.110517,-126.158794,85.741534,-104.248195
36910,-9.646175,-0.685668,-0.677212,-0.194248,-0.193084,-0.122360,-0.112435,0.013266,0.019760,-0.096462,-0.006870,-0.006762,1.000000,-0.000562,0.000066,0.000099,0.682432,-0.158339,0.704904,0.111020,-126.390721,85.754490,-104.415539
36911,-9.611845,-0.918531,-0.720074,-0.144570,-0.430012,-0.140875,-0.066459,0.015138,0.026654,-0.096118,-0.009201,-0.007190,1.000000,-0.000332,0.000076,0.000133,0.682328,-0.158443,0.704925,0.111377,-126.653393,85.768579,-104.640280
36912,-9.691602,-1.088042,-0.623042,0.012655,-0.548798,-0.055750,0.025055,0.011265,0.039090,-0.096914,-0.010899,-0.006226,1.000000,0.000125,0.000056,0.000195,0.682311,-0.158184,0.704986,0.111461,-126.887269,85.790892,-104.888757
36913,-9.735177,-1.025451,-0.372638,0.222997,-0.398959,-0.027230,0.117545,-0.000320,0.040037,-0.097350,-0.010272,-0.003733,1.000000,0.000588,-0.000002,0.000200,0.682399,-0.157604,0.705068,0.111227,-127.014555,85.816308,-105.083445
36914,-9.718998,-0.809594,-0.239909,0.264482,-0.156097,-0.061912,0.163944,-0.005422,0.040183,-0.097188,-0.008113,-0.002408,1.000000,0.000820,-0.000027,0.000201,0.682550,-0.156859,0.705150,0.110838,-127.073477,85.844710,-105.236241
36915,-9.621055,-0.478156,-0.123618,0.246748,0.182379,-0.183853,0.149537,-0.002636,0.033378,-0.096210,-0.004797,-0.001241,1.000000,0.000748,-0.000013,0.000167,0.682674,-0.156192,0.705235,0.110470,-127.139484,85.867845,-105.387855
36916,-9.649754,-0.224785,-0.102314,0.173320,0.422461,-0.170580,0.060765,-0.000610,0.037855,-0.096497,-0.002266,-0.001024,1.000000,0.000304,-0.000003,0.000189,0.682728,-0.155809,0.705274,0.110433,-127.279487,85.893486,-105.562696
36917,-9.700373,-0.109661,-0.190456,0.051174,0.495366,-0.122614,-0.069707,0.003796,0.044226,-0.097004,-0.001119,-0.001902,1.000000,-0.000349,0.000019,0.000221,0.682652,-0.155856,0.705268,0.110870,-127.568424,85.919256,-105.811863
36918,-9.666647,-0.341045,-0.231293,0.100653,0.258296,-0.141234,-0.140436,0.009826,0.045586,-0.096666,-0.003434,-0.002306,1.000000,-0.000702,0.000049,0.000228,0.682508,-0.156139,0.705236,0.111562,-127.933897,85.944692,-106.096997
36919,-9.696297,-0.526099,-0.225501,0.178232,0.085871,-0.101525,-0.132400,0.002909,0.046758,-0.096962,-0.005285,-0.002250,1.000000,-0.000662,0.000015,0.000234,0.682384,-0.156390,0.705194,0.112229,-128.273271,85.971704,-106.360700
36920,-9.628605,-0.725993,-0.389954,0.101337,-0.170459,-0.150916,-0.125686,-0.001267,0.046338,-0.096284,-0.007285,-0.003896,1.000000,-0.000628,-0.000006,0.000232,0.682289,-0.156612,0.705133,0.112878,-128.571649,86.001200,-106.587328
36921,-9.647736,-0.879452,-0.513899,0.046858,-0.362711,-0.118226,-0.078224,0.004543,0.044445,-0.096476,-0.008818,-0.005133,1.000000,-0.000391,0.000023,0.000222,0.682203,-0.156688,0.705125,0.113345,-128.886464,86.026389,-106.857510
36922,-9.673201,-0.820550,-0.513057,0.028380,-0.311467,-0.096231,-0.002026,0.010842,0.047822,-0.096730,-0.008229,-0.005125,1.000000,-0.000010,0.000054,0.000239,0.682161,-0.156492,0.705175,0.113557,-129.206447,86.051965,-107.176361
36923,-9.707187,-0.668271,-0.475875,0.008438,-0.159442,-0.072204,0.036116,0.006357,0.044776,-0.097071,-0.006704,-0.004757,1.000000,0.000181,0.000032,0.000224,0.682158,-0.156177,0.705237,0.113620,-129.476544,86.076439,-107.467369
36924,-9.676006,-0.528204,-0.490758,-0.057351,-0.042622,-0.110119,0.042394,-0.000572,0.045701,-0.096759,-0.005303,-0.004909,1.000000,0.000212,-0.000003,0.000229,0.682192,-0.155830,0.705273,0.113675,-129.693921,86.104985,-107.709073
36925,-9.655674,-0.419607,-0.376002,0.009124,0.094179,-0.141052,0.044175,0.001491,0.046609,-0.096556,-0.004218,-0.003760,1.000000,0.000221,0.000007,0.000233,0.682211,-0.155479,0.705325,0.113720,-129.944816,86.131884,-107.985445
36926,-9.688439,-0.405862,-0.440725,-0.054256,0.079262,-0.106216,0.003542,-0.004306,0.049427,-0.096883,-0.004082,-0.004409,1.000000,0.000018,-0.000022,0.000247,0.682225,-0.155248,0.705328,0.113926,-130.188102,86.163269,-108.231013
36927,-9.712740,-0.491611,-0.358616,0.055829,0.026099,-0.081099,0.001479,-0.002176,0.053256,-0.097126,-0.004942,-0.003587,1.000000,0.000007,-0.000011,0.000266,0.682220,-0.155016,0.705348,0.114147,-130.484375,86.194260,-108.528326
36928,-9.656334,-0.404687,-0.375419,0.008121,0.090388,-0.141015,-0.007629,0.001420,0.058868,-0.096562,-0.004075,-0.003753,1.000000,-0.000038,0.000007,0.000294,0.682200,-0.154796,0.705372,0.114423,-130.833497,86.227450,-108.873112
36929,-9.672419,-0.586432,-0.238746,0.205679,-0.032279,-0.121803,-0.008904,0.009023,0.059988,-0.096723,-0.005893,-0.002383,1.000000,-0.000045,0.000045,0.000300,0.682143,-0.154582,0.705429,0.114695,-131.258804,86.256889,-109.293754
36930,-9.676939,-0.648905,-0.228289,0.240816,-0.092387,-0.114760,0.025299,-0.002381,0.056490,-0.096768,-0.006516,-0.002285,1.000000,0.000126,-0.000012,0.000282,0.682163,-0.154252,0.705457,0.114846,-131.563384,86.290192,-109.613295
36931,-9.601215,-0.627563,-0.318585,0.148730,-0.117243,-0.187574,0.014640,-0.007096,0.055786,-0.096010,-0.006302,-0.003190,1.000000,0.000073,-0.000035,0.000279,0.682184,-0.153964,0.705470,0.115034,-131.856204,86.323658,-109.914660
36932,-9.683294,-0.645989,-0.390886,0.091742,-0.162768,-0.101799,0.028947,0.003809,0.058979,-0.096831,-0.006488,-0.003908,1.000000,0.000145,0.000019,0.000295,0.682183,-0.153620,0.705522,0.115178,-132.225174,86.355404,-110.300311
36933,-9.702901,-0.571706,-0.408075,0.050324,-0.105746,-0.085101,0.033271,-0.001706,0.062385,-0.097027,-0.005747,-0.004083,1.000000,0.000166,-0.000009,0.000312,0.682195,-0.153248,0.705568,0.115318,-132.595379,86.389338,-110.689892
36934,-9.753704,-0.544884,-0.407267,0.043918,-0.084519,-0.035754,0.038738,0.003762,0.063751,-0.097535,-0.005479,-0.004072,1.000000,0.000194,0.000019,0.000319,0.682199,-0.152851,0.705630,0.115442,-133.001995,86.422722,-111.119252
36935,-9.736254,-0.414380,-0.279315,0.115752,0.076061,-0.064601,0.066166,0.004863,0.066769,-0.097361,-0.004175,-0.002792,1.000000,0.000331,0.000024,0.000334,0.682210,-0.152355,0.705721,0.115476,-133.440058,86.455558,-111.595677
36936,-9.711940,-0.320392,-0.269771,0.090858,0.157893,-0.093427,0.018231,-0.005551,0.069350,-0.097118,-0.003237,-0.002701,1.000000,0.000091,-0.000028,0.000347,0.682228,-0.152005,0.705743,0.115700,-133.847969,86.494572,-112.014222
36937,-9.693137,-0.379310,-0.343624,0.046073,0.067410,-0.106391,-0.036313,0.003367,0.068040,-0.096930,-0.003827,-0.003434,1.000000,-0.000182,0.000017,0.000340,0.682165,-0.151853,0.705770,0.116101,-134.361071,86.528067,-112.506963
36938,-9.629503,-0.331242,-0.388541,-0.012344,0.084300,-0.170034,-0.062366,0.004403,0.069315,-0.096294,-0.003347,-0.003882,1.000000,-0.000312,0.000022,0.000347,0.682087,-0.151783,0.705779,0.116601,-134.901949,86.562604,-113.012566
36939,-9.568295,-0.458277,-0.440424,-0.010216,-0.063730,-0.223522,-0.128290,0.023332,0.082184,-0.095682,-0.004625,-0.004390,1.000000,-0.000641,0.000117,0.000411,0.681875,-0.151906,0.705831,0.117359,-135.719892,86.593028,-113.757865
36940,-9.741541,-0.642513,-0.293592,0.204641,-0.177841,-0.049331,-0.048948,0.033941,0.078369,-0.097413,-0.006464,-0.002918,1.000000,-0.000245,0.000170,0.000392,0.681696,-0.151776,0.705955,0.117821,-136.538013,86.618139,-114.548819
36941,-9.759375,-0.478609,-0.310179,0.133042,-0.038305,-0.037642,0.002433,0.013160,0.069747,-0.097592,-0.004820,-0.003095,1.000000,0.000012,0.000066,0.000349,0.681627,-0.151491,0.706040,0.118083,-137.150631,86.646738,-115.163424
36942,-9.629367,-0.361795,-0.222608,0.170454,0.088519,-0.175869,0.031668,0.013459,0.071653,-0.096293,-0.003652,-0.002220,1.000000,0.000158,0.000067,0.000358,0.681585,-0.151098,0.706136,0.118252,-137.760342,86.676772,-115.791795
36943,-9.632892,-0.334637,-0.209990,0.175613,0.111100,-0.173938,0.004474,0.011198,0.079690,-0.096328,-0.003385,-0.002095,1.000000,0.000022,0.000056,0.000398,0.681518,-0.150771,0.706222,0.118542,-138.454204,86.709209,-116.488913
36944,-9.598871,-0.437860,-0.346034,0.091427,-0.045062,-0.198147,-0.035053,0.022183,0.084514,-0.095987,-0.004420,-0.003449,1.000000,-0.000175,0.000111,0.000423,0.681387,-0.150565,0.706317,0.118986,-139.281174,86.739445,-117.296403
36945,-9.704606,-0.455538,-0.336608,0.114715,-0.060087,-0.092429,-0.050789,0.027845,0.076107,-0.097045,-0.004593,-0.003351,1.000000,-0.000254,0.000139,0.000381,0.681221,-0.150449,0.706424,0.119446,-140.115791,86.762151,-118.102749
36946,-9.665427,-0.554966,-0.219384,0.264799,-0.117166,-0.133186,-0.034108,0.032347,0.070753,-0.096653,-0.005584,-0.002177,1.000000,-0.000171,0.000162,0.000354,0.681063,-0.150293,0.706545,0.119829,-140.927008,86.781494,-118.895294
36947,-9.777734,-0.533624,-0.183087,0.298801,-0.084745,-0.023618,-0.008364,0.030565,0.071532,-0.097776,-0.005371,-0.001816,1.000000,-0.000042,0.000153,0.000358,0.680922,-0.150049,0.706683,0.120123,-141.739459,86.800032,-119.703752
36948,-9.621135,-0.380558,-0.186978,0.238360,0.041090,-0.185252,-0.003886,0.029172,0.076294,-0.096210,-0.003842,-0.001856,1.000000,-0.000019,0.000146,0.000381,0.680795,-0.149769,0.706814,0.120420,-142.577321,86.821486,-120.540370
36949,-9.587122,-0.230626,-0.387175,0.001188,0.095897,-0.215459,-0.105671,0.029652,0.087166,-0.095871,-0.002350,-0.003856,1.000000,-0.000528,0.000148,0.000436,0.680574,-0.149800,0.706902,0.121111,-143.589906,86.844432,-121.493398
36950,-9.764596,-0.507988,-0.063569,0.417759,-0.038662,-0.043685,-0.106253,0.062747,0.087418,-0.097644,-0.005123,-0.000602,1.000000,-0.000531,0.000314,0.000437,0.680244,-0.149851,0.707094,0.121783,-144.807399,86.852340,-122.651194
36951,-9.820604,-0.489519,-0.141036,0.348855,-0.054219,0.014781,-0.136306,0.044490,0.066951,-0.098205,-0.004929,-0.001385,1.000000,-0.000682,0.000222,0.000335,0.679960,-0.150067,0.707197,0.122503,-145.774689,86.859657,-123.541258
36952,-9.712415,-0.481533,-0.080338,0.405406,-0.034155,-0.096525,-0.084886,0.049009,0.060886,-0.097123,-0.004845,-0.000778,1.000000,-0.000424,0.000245,0.000304,0.679710,-0.150131,0.707334,0.123021,-146.677751,86.863411,-124.396228
36953,-9.520454,-0.305778,-0.025316,0.390434,0.135057,-0.296255,-0.078395,0.045589,0.075592,-0.095203,-0.003094,-0.000230,1.000000,-0.000392,0.000228,0.000378,0.679459,-0.150121,0.707482,0.123563,-147.701296,86.871260,-125.375852
36954,-9.577190,-0.294239,0.080322,0.492911,0.181686,-0.245053,-0.115470,0.058161,0.090349,-0.095770,-0.002985,0.000833,1.000000,-0.000577,0.000291,0.000452,0.679136,-0.150188,0.707653,0.124280,-148.940478,86.877700,-126.550314
36955,-9.723847,-0.348512,0.044349,0.494059,0.117721,-0.095761,-0.140241,0.065530,0.086866,-0.097237,-0.003527,0.000478,1.000000,-0.000701,0.000328,0.000434,0.678760,-0.150359,0.707839,0.125065,-150.215855,86.876729,-127.746648
36956,-9.685825,-0.221233,-0.081322,0.337109,0.179819,-0.131531,-0.164102,0.070076,0.074571,-0.096858,-0.002249,-0.000777,1.000000,-0.000821,0.000350,0.000373,0.678367,-0.150654,0.708007,0.125890,-151.402634,86.870061,-128.840874
36957,-9.770985,-0.145284,0.219636,0.598637,0.365037,-0.063336,-0.113804,0.100615,0.055157,-0.097708,-0.001479,0.002246,1.000000,-0.000569,0.000503,0.000276,0.677906,-0.150870,0.708303,0.126447,-152.532737,86.840091,-129.906910
36958,-9.661188,0.167091,0.225162,0.489585,0.649146,-0.181691,-0.161881,0.098096,0.038140,-0.096611,0.001654,0.002298,1.000000,-0.000809,0.000490,0.000191,0.677438,-0.151303,0.708538,0.127120,-153.491404,86.807418,-130.773933
36959,-9.381416,0.096465,0.468024,0.741824,0.665309,-0.472111,-0.153311,0.135932,0.052910,-0.093811,0.000943,0.004743,0.999999,-0.000767,0.000680,0.000265,0.676822,-0.151683,0.708926,0.127783,-154.735757,86.756511,-131.931804
36960,-9.681077,0.169795,0.886714,1.123381,0.906562,-0.197361,-0.132503,0.135574,0.066179,-0.096805,0.001672,0.008932,0.999999,-0.000663,0.000678,0.000331,0.676224,-0.151941,0.709326,0.128418,-156.041305,86.709144,-133.163194
36961,-10.050357,0.096226,0.729303,1.033628,0.793811,0.179925,-0.334102,0.112406,0.034382,-0.100500,0.000957,0.007348,0.999998,-0.001671,0.000562,0.000172,0.675564,-0.152982,0.709502,0.129677,-157.056582,86.663664,-133.987956
36962,-9.955029,0.242496,0.323683,0.607519,0.769443,0.102203,-0.391721,0.093664,-0.024042,-0.099548,0.002443,0.003279,0.999998,-0.001959,0.000468,-0.000120,0.674974,-0.154410,0.709519,0.130961,-157.478537,86.616388,-134.185258
36963,-9.511390,0.566009,-0.370948,-0.170450,0.777353,-0.310521,-0.523538,0.094761,-0.026208,-0.095115,0.005663,-0.003679,0.999996,-0.002618,0.000474,-0.000131,0.674264,-0.156293,0.709459,0.132699,-157.959892,86.566138,-134.366501
36964,-9.372145,0.290329,-0.551571,-0.223072,0.446492,-0.433109,-0.593295,0.128221,0.023934,-0.093725,0.002876,-0.005464,0.999995,-0.002966,0.000641,0.000120,0.673353,-0.158250,0.709488,0.134832,-159.018929,86.510387,-135.086324
36965,-9.352427,-0.249188,-0.895067,-0.304555,-0.190192,-0.421086,-0.584442,0.121185,0.063135,-0.093529,-0.002547,-0.008887,0.999995,-0.002922,0.000606,0.000316,0.672431,-0.160037,0.709534,0.137064,-160.369066,86.463359,-136.103043
36966,-9.712107,-1.179481,-1.499220,-0.435630,-1.276541,-0.007358,-0.527914,0.146157,0.075631,-0.097127,-0.011871,-0.014890,0.999996,-0.002640,0.000731,0.000378,0.671461,-0.161603,0.709696,0.139124,-161.831707,86.405557,-137.264556
36967,-9.780570,-1.545406,-1.524484,-0.280225,-1.620689,0.069958,-0.230202,0.159039,0.055324,-0.097813,-0.015499,-0.015149,0.999999,-0.001151,0.000795,0.000277,0.670687,-0.162251,0.710100,0.140041,-162.946267,86.333625,-138.248726
36968,-9.685914,-1.437833,-1.491633,-0.282617,-1.512927,-0.027984,0.119976,0.166803,0.046248,-0.096868,-0.014392,-0.014844,0.999999,0.000600,0.000834,0.000231,0.670185,-0.161761,0.710756,0.139683,-163.758937,86.256657,-139.131187
36969,-9.425444,-0.721260,-1.127062,-0.250623,-0.718025,-0.323162,0.357691,0.166359,0.040272,-0.094262,-0.007212,-0.011205,0.999998,0.001788,0.000832,0.000201,0.669869,-0.160497,0.711581,0.138455,-164.356771,86.176539,-139.935247
36970,-9.672648,0.360083,-0.710399,-0.293622,0.453650,-0.122362,0.405640,0.160548,0.027278,-0.096733,0.003602,-0.007019,0.999998,0.002028,0.000803,0.000136,0.669628,-0.159111,0.712396,0.137019,-164.775576,86.098758,-140.587481
36971,-9.947971,0.924519,-0.724289,-0.509563,0.980979,0.143189,0.270345,0.121522,-0.002641,-0.099484,0.009256,-0.007170,0.999999,0.001352,0.000608,-0.000013,0.669426,-0.158260,0.712971,0.135993,-164.933774,86.036285,-140.900846
36972,-9.932989,1.118270,-0.833227,-0.679228,1.119261,0.131908,0.162237,0.077485,-0.023080,-0.099332,0.011201,-0.008285,1.000000,0.000811,0.000387,-0.000115,0.669319,-0.157807,0.713301,0.135319,-164.889151,85.996587,-140.949391
36973,-9.738569,0.907714,-1.261997,-0.989909,0.749766,-0.029322,0.000819,0.056711,-0.027891,-0.097388,0.009091,-0.012592,1.000000,0.000004,0.000284,-0.000139,0.669152,-0.157903,0.713455,0.135220,-164.858041,85.966179,-140.918207
36974,-9.785488,0.417739,-1.446975,-0.952673,0.231815,0.039352,-0.143170,0.067871,-0.023777,-0.097859,0.004179,-0.014440,1.000000,-0.000716,0.000339,-0.000119,0.668837,-0.158471,0.713544,0.135646,-164.964836,85.931789,-140.942396
36975,-9.896295,-0.245665,-1.536210,-0.752011,-0.403328,0.168732,-0.225792,0.061076,-0.040305,-0.098968,-0.002454,-0.015329,0.999999,-0.001129,0.000305,-0.000202,0.668482,-0.159373,0.713548,0.136311,-164.976262,85.897126,-140.823684
36976,-9.906418,-0.653676,-1.742719,-0.767698,-0.856068,0.201266,-0.163324,0.050062,-0.064149,-0.099071,-0.006519,-0.017397,1.000000,-0.000817,0.000250,-0.000321,0.668240,-0.160138,0.713532,0.136685,-164.747450,85.866362,-140.500071
36977,-9.777237,-0.694743,-1.504091,-0.538854,-0.796216,0.057216,0.001331,0.035043,-0.072004,-0.097777,-0.006912,-0.015024,1.000000,0.000007,0.000175,-0.000360,0.668181,-0.160376,0.713578,0.136455,-164.337740,85.841172,-140.089581
36978,-9.600944,-0.519425,-1.297197,-0.434188,-0.553573,-0.136135,0.100260,0.009873,-0.071836,-0.096012,-0.005153,-0.012970,1.000000,0.000501,0.000049,-0.000359,0.668298,-0.160261,0.713602,0.135895,-163.822664,85.830889,-139.630402
36979,-9.673234,-0.422886,-1.043292,-0.242051,-0.351500,-0.083525,0.154851,0.010724,-0.080191,-0.096735,-0.004182,-0.010431,1.000000,0.000774,0.000054,-0.000401,0.668453,-0.159999,0.713664,0.135108,-163.218391,85.817204,-139.113010
36980,-9.624645,-0.184976,-0.827522,-0.149877,-0.041306,-0.152013,0.230633,-0.000617,-0.088197,-0.096247,-0.001798,-0.008278,0.999999,0.001153,-0.000003,-0.000441,0.668721,-0.159498,0.713727,0.134035,-162.487931,85.809094,-138.512960
36981,-9.550195,0.114362,-0.522154,-0.001574,0.359773,-0.254314,0.278130,-0.000295,-0.081736,-0.095501,0.001190,-0.005220,0.999999,0.001391,-0.000001,-0.000409,0.669014,-0.158821,0.713833,0.132812,-161.782189,85.800239,-137.964637
36982,-9.603415,0.451503,-0.298172,0.066041,0.767618,-0.224949,0.196979,-0.001915,-0.080134,-0.096032,0.004556,-0.002978,0.999999,0.000985,-0.000010,-0.000401,0.669252,-0.158401,0.713874,0.131885,-161.132535,85.793193,-137.426499
36983,-9.602471,0.556152,-0.369181,-0.044749,0.841579,-0.224008,0.098964,-0.014247,-0.089389,-0.096022,0.005606,-0.003696,1.000000,0.000495,-0.000071,-0.000447,0.669456,-0.158341,0.713807,0.131287,-160.442150,85.789504,-136.790634
36984,-9.586173,0.475186,-0.516425,-0.152282,0.714190,-0.228641,0.014904,-0.009026,-0.088203,-0.095859,0.004795,-0.005168,1.000000,0.000075,-0.000045,-0.000441,0.669580,-0.158557,0.713697,0.130990,-159.823194,85.783888,-136.178319
36985,-9.642807,0.196641,-0.619724,-0.136025,0.426972,-0.158381,0.004095,-0.007431,-0.083610,-0.096427,0.002007,-0.006201,1.000000,0.000020,-0.000037,-0.000418,0.669681,-0.158798,0.713594,0.130745,-159.250624,85.776680,-135.606076
36986,-9.662148,-0.051025,-0.589190,-0.011970,0.219748,-0.134960,0.009125,-0.006116,-0.093893,-0.096622,-0.000465,-0.005895,1.000000,0.000046,-0.000031,-0.000469,0.669793,-0.159056,0.713485,0.130450,-158.606664,85.767440,-134.965034
36987,-9.750918,-0.268788,-0.493969,0.163101,0.070955,-0.047187,-0.006431,0.006667,-0.109304,-0.097511,-0.002635,-0.004936,1.000000,-0.000032,0.000033,-0.000547,0.669851,-0.159434,0.713402,0.130144,-157.901632,85.746334,-134.253900
36988,-9.800828,-0.230840,-0.407794,0.224715,0.152402,-0.004421,0.025687,0.005438,-0.130018,-0.098010,-0.002244,-0.004076,1.000000,0.000128,0.000027,-0.000650,0.669959,-0.159774,0.713313,0.129662,-157.034773,85.721891,-133.398616
36989,-9.667274,-0.068512,-0.320835,0.226989,0.339016,-0.148457,0.031968,-0.002254,-0.130476,-0.096673,-0.000622,-0.003210,1.000000,0.000160,-0.000011,-0.000652,0.670093,-0.160093,0.713207,0.129155,-156.148394,85.699138,-132.527646
36990,-9.740414,0.082226,-0.312389,0.172249,0.494804,-0.081012,-0.000117,-0.000971,-0.133911,-0.097404,0.000887,-0.003124,1.000000,-0.000001,-0.000005,-0.000670,0.670205,-0.160529,0.713076,0.128757,-155.269104,85.675224,-131.645028
36991,-9.697317,0.029959,-0.456751,0.052819,0.397727,-0.112869,-0.060119,-0.014392,-0.144345,-0.096973,0.000368,-0.004575,1.000000,-0.000301,-0.000072,-0.000722,0.670317,-0.161198,0.712859,0.128542,-154.320723,85.653348,-130.658912
36992,-9.522388,-0.019221,-0.779545,-0.238217,0.224010,-0.264023,-0.077810,-0.016851,-0.142176,-0.095223,-0.000128,-0.007803,1.000000,-0.000389,-0.000084,-0.000711,0.670428,-0.161912,0.712617,0.128404,-153.397245,85.633397,-129.687451
36993,-9.547836,-0.234193,-0.883953,-0.251772,-0.003656,-0.224466,-0.078472,-0.009319,-0.120160,-0.095479,-0.002288,-0.008843,1.000000,-0.000392,-0.000047,-0.000601,0.670490,-0.162559,0.712424,0.128331,-152.656514,85.612926,-128.898993
36994,-9.597402,-0.591861,-0.757300,0.005669,-0.268770,-0.171026,-0.043261,-0.006430,-0.111414,-0.095977,-0.005867,-0.007575,1.000000,-0.000216,-0.000032,-0.000557,0.670572,-0.163055,0.712264,0.128166,-151.969095,85.593870,-128.184091
36995,-9.671159,-0.782431,-0.698856,0.134491,-0.406263,-0.094211,0.068108,-0.001816,-0.116774,-0.096716,-0.007765,-0.006992,1.000000,0.000341,-0.000009,-0.000584,0.670724,-0.163203,0.712192,0.127576,-151.207280,85.569037,-127.458676
36996,-9.691234,-0.587311,-0.443285,0.284585,-0.114609,-0.098403,0.152409,0.006710,-0.122726,-0.096916,-0.005810,-0.004434,1.000000,0.000762,0.000034,-0.000614,0.670925,-0.163091,0.712192,0.126664,-150.396486,85.538773,-126.732452
36997,-10.003055,-0.126592,-0.297489,0.241355,0.396504,0.184819,0.138558,0.008435,-0.156538,-0.100032,-0.001186,-0.002972,0.999999,0.000693,0.000042,-0.000783,0.671123,-0.163150,0.712166,0.125682,-149.400503,85.495794,-125.812577
36998,-9.990805,0.258208,-0.552659,-0.154877,0.661276,0.173652,0.022113,-0.014102,-0.198233,-0.099905,0.002682,-0.005533,1.000000,0.000111,-0.000071,-0.000991,0.671338,-0.163732,0.711950,0.124998,-148.145561,85.451347,-124.565698
36999,-9.723202,0.229770,-0.759814,-0.354791,0.551626,-0.079211,-0.032257,-0.020324,-0.206404,-0.097229,0.002397,-0.007608,0.999999,-0.000161,-0.000102,-0.001032,0.671529,-0.164524,0.711678,0.124480,-146.876629,85.403961,-123.273705
37000,-9.613612,-0.042185,-1.051354,-0.527510,0.194215,-0.158018,-0.089965,-0.034218,-0.195777,-0.096135,-0.000332,-0.010530,0.999999,-0.000450,-0.000171,-0.000979,0.671720,-0.165460,0.711326,0.124220,-145.671070,85.365669,-122.011795
37001,-9.744954,-0.884220,-1.007203,-0.152621,-0.534317,0.008290,-0.031353,-0.020236,-0.199365,-0.097457,-0.008747,-0.010081,0.999999,-0.000157,-0.000101,-0.000997,0.671906,-0.166224,0.711059,0.123722,-144.492406,85.316228,-120.810731
37002,-9.754191,-1.226700,-1.070298,-0.084157,-0.855373,0.039002,0.150807,-0.040285,-0.219823,-0.097553,-0.012152,-0.010732,0.999999,0.000754,-0.000201,-0.001099,0.672332,-0.166433,0.710814,0.122530,-143.035794,85.268157,-119.435054
37003,-9.644276,-0.950244,-0.983507,-0.135527,-0.557330,-0.088837,0.280307,-0.039726,-0.232217,-0.096452,-0.009377,-0.009867,0.999998,0.001402,-0.000199,-0.001161,0.672863,-0.166253,0.710644,0.120829,-141.474002,85.211271,-118.028547
37004,-9.786487,-0.238928,-0.727927,-0.195200,0.225667,-0.000796,0.286635,-0.040302,-0.249899,-0.097866,-0.002257,-0.007302,0.999998,0.001433,-0.000202,-0.001249,0.673417,-0.166109,0.710454,0.119050,-139.846945,85.146087,-116.560223
37005,-9.899121,0.314836,-0.587728,-0.297569,0.818975,0.070521,0.206920,-0.060499,-0.279047,-0.098985,0.003293,-0.005904,0.999998,0.001035,-0.000302,-0.001395,0.673985,-0.166330,0.710127,0.117469,-138.077077,85.073949,-114.902411
37006,-9.712280,0.558762,-0.692491,-0.514181,1.009551,-0.125763,0.069448,-0.077255,-0.289139,-0.097112,0.005730,-0.006960,0.999999,0.000347,-0.000386,-0.001446,0.674508,-0.167036,0.709647,0.116361,-136.308829,85.001734,-113.166815
37007,-9.697693,0.331100,-0.740692,-0.487812,0.801481,-0.126455,-0.030211,-0.093608,-0.274946,-0.096969,0.003443,-0.007453,0.999999,-0.000151,-0.000468,-0.001375,0.674990,-0.168021,0.709069,0.115662,-134.642064,84.936308,-111.475759
37008,-9.603984,-0.334010,-1.044898,-0.527682,0.083612,-0.161036,-0.100348,-0.116985,-0.277052,-0.096038,-0.003212,-0.010504,0.999999,-0.000502,-0.000585,-0.001385,0.675502,-0.169231,0.708364,0.115230,-132.937704,84.876119,-109.706375
37009,-9.480994,-0.866412,-1.268722,-0.546976,-0.484361,-0.235855,0.011903,-0.122311,-0.268129,-0.094814,-0.008536,-0.012746,0.999999,0.000060,-0.000612,-0.001341,0.676115,-0.170033,0.707717,0.114429,-131.226727,84.815951,-107.994832
37010,-9.550165,-0.985840,-1.190768,-0.448462,-0.539574,-0.163691,0.133057,-0.129526,-0.262115,-0.095507,-0.009725,-0.011976,0.999999,0.000665,-0.000648,-0.001311,0.676857,-0.170395,0.707113,0.113232,-129.473209,84.757550,-106.309860
37011,-9.757962,-1.074157,-1.157129,-0.402031,-0.570261,0.047519,0.197079,-0.138131,-0.277615,-0.097586,-0.010595,-0.011649,0.999998,0.000985,-0.000691,-0.001388,0.677686,-0.170594,0.706506,0.111757,-127.625807,84.689420,-104.567527
37012,-9.843225,-0.867589,-1.202366,-0.549632,-0.369021,0.119537,0.278854,-0.131340,-0.311947,-0.098438,-0.008506,-0.012100,0.999998,0.001394,-0.000657,-0.001560,0.678581,-0.170636,0.705931,0.109876,-125.686802,84.598934,-102.779806
37013,-9.961745,-0.469552,-0.978187,-0.523650,0.119668,0.193562,0.345967,-0.125196,-0.339496,-0.099619,-0.004509,-0.009852,0.999997,0.001730,-0.000626,-0.001697,0.679519,-0.170554,0.705390,0.107653,-123.715966,84.486831,-100.998656
37014,-10.024956,0.020768,-0.698232,-0.482284,0.711325,0.199753,0.319252,-0.146683,-0.361918,-0.100244,0.000400,-0.007055,0.999997,0.001596,-0.000733,-0.001810,0.680522,-0.170626,0.704735,0.105472,-121.658574,84.365646,-99.114576
37015,-10.155782,0.328338,-0.355776,-0.311878,1.166638,0.282649,0.235745,-0.165490,-0.395874,-0.101548,0.003489,-0.003638,0.999997,0.001179,-0.000827,-0.001979,0.681530,-0.171094,0.703943,0.103479,-119.549137,84.225670,-97.129918
37016,-10.070572,0.532001,-0.314513,-0.385149,1.392662,0.172819,0.143736,-0.187438,-0.443346,-0.100691,0.005546,-0.003236,0.999997,0.000719,-0.000937,-0.002217,0.682561,-0.172027,0.702980,0.101674,-117.359062,84.061486,-95.010321
37017,-10.018500,0.538997,-0.051695,-0.180510,1.527606,0.101804,0.044968,-0.192452,-0.484866,-0.100171,0.005633,-0.000612,0.999997,0.000225,-0.000962,-0.002424,0.683537,-0.173442,0.701913,0.100070,-115.228029,83.868198,-92.892854
37018,-9.918010,0.586321,0.037417,-0.153844,1.631120,-0.013319,-0.052851,-0.194187,-0.519285,-0.099165,0.006121,0.000276,0.999996,-0.000264,-0.000971,-0.002596,0.684450,-0.175308,0.700752,0.098702,-113.202388,83.650524,-90.823700
37019,-9.902817,0.617917,0.157869,-0.092716,1.744582,-0.044367,-0.140044,-0.177318,-0.559792,-0.099012,0.006457,0.001486,0.999995,-0.000700,-0.000887,-0.002799,0.685239,-0.177623,0.699568,0.097476,-111.372566,83.399142,-88.900912
37020,-9.986444,0.632842,0.088289,-0.203078,1.786233,0.031353,-0.181130,-0.183674,-0.614436,-0.099845,0.006636,0.000785,0.999994,-0.000906,-0.000918,-0.003072,0.686037,-0.180259,0.698284,0.096220,-109.585943,83.114307,-86.996744
37021,-9.809199,0.709133,-0.024043,-0.376919,1.841602,-0.159197,-0.162050,-0.171908,-0.672530,-0.098067,0.007421,-0.000331,0.999994,-0.000810,-0.000860,-0.003363,0.686828,-0.183043,0.696993,0.094677,-107.910305,82.787853,-85.214328
37022,-9.860403,0.628640,0.161938,-0.217097,1.900847,-0.117939,-0.042989,-0.150801,-0.739021,-0.098581,0.006651,0.001544,0.999993,-0.000215,-0.000754,-0.003695,0.687680,-0.185651,0.695756,0.092482,-106.321572,82.416801,-83.586616
37023,-9.898401,0.986310,-0.181915,-0.716812,2.163977,-0.128317,0.016241,-0.153855,-0.835123,-0.098940,0.010276,-0.001894,0.999991,0.000081,-0.000769,-0.004176,0.688628,-0.188391,0.694440,0.089740,-104.742504,81.986061,-82.001741
37024,-10.104888,1.383275,-0.146392,-0.886488,2.641243,-0.000406,0.037205,-0.102828,-0.926102,-0.100983,0.014301,-0.001513,0.999989,0.000186,-0.000514,-0.004630,0.689449,-0.191385,0.693207,0.086574,-103.420151,81.494072,-80.686519
37025,-10.565649,1.610213,0.090388,-0.813944,3.090689,0.386236,0.036133,-0.099346,-1.013967,-0.105573,0.016637,0.000854,0.999987,0.000181,-0.000497,-0.005070,0.690276,-0.194694,0.691888,0.083092,-102.191820,80.946758,-79.464114
37026,-10.823099,1.362549,0.102999,-0.766728,3.004207,0.646391,0.038081,-0.097678,-1.084962,-0.108155,0.014212,0.000980,0.999985,0.000190,-0.000488,-0.005425,0.691113,-0.198224,0.690486,0.079369,-101.058099,80.357789,-78.336716
37027,-10.930891,0.786671,0.268975,-0.450348,2.665170,0.811264,0.028226,-0.067611,-1.130652,-0.109263,0.008484,0.002654,0.999984,0.000141,-0.000338,-0.005653,0.691830,-0.201965,0.689119,0.075475,-100.132123,79.734636,-77.412548
37028,-10.971527,0.033901,0.307410,-0.182073,2.112137,0.956457,0.058207,-0.053908,-1.146298,-0.109712,0.000967,0.003045,0.999983,0.000291,-0.000270,-0.005731,0.692518,-0.205639,0.687772,0.071423,-99.324629,79.101442,-76.624583
37029,-10.728426,-0.522209,0.198664,-0.110647,1.631300,0.805067,0.076547,-0.018844,-1.122759,-0.107312,-0.004620,0.001975,0.999984,0.000383,-0.000094,-0.005614,0.693070,-0.209190,0.686557,0.067336,-98.705141,78.474221,-76.037286
37030,-10.461191,-0.872289,0.211609,0.002999,1.371896,0.596879,0.147162,0.034922,-1.054911,-0.104656,-0.008173,0.002128,0.999986,0.000736,0.000175,-0.005275,0.693472,-0.212259,0.685601,0.063200,-98.272833,77.882573,-75.681396
37031,-10.239707,-0.882396,0.312804,0.076268,1.450866,0.366531,0.265110,0.081993,-0.935853,-0.102436,-0.008349,0.003159,0.999988,0.001326,0.000410,-0.004679,0.693778,-0.214536,0.684956,0.059004,-97.975191,77.351511,-75.531703
37032,-9.926819,-0.747905,0.460475,0.153395,1.640228,0.015781,0.377390,0.105519,-0.767801,-0.099294,-0.007107,0.004643,0.999991,0.001887,0.000528,-0.003839,0.694066,-0.215834,0.684590,0.054998,-97.742445,76.916690,-75.514438
37033,-9.266062,-0.845705,0.143286,-0.083312,1.348103,-0.605565,0.418682,0.127009,-0.564207,-0.092683,-0.008199,0.001474,0.999994,0.002093,0.000635,-0.002821,0.694252,-0.216311,0.684522,0.051515,-97.613674,76.592977,-75.628110
37034,-8.911109,-1.439819,-0.402534,-0.357719,0.572237,-0.802280,0.538598,0.223506,-0.349248,-0.089140,-0.014232,-0.003964,0.999994,0.002693,0.001118,-0.001746,0.694180,-0.215640,0.685042,0.048281,-97.707478,76.386969,-76.041650
37035,-9.244812,-1.768101,-0.568455,-0.411169,0.319207,-0.397547,0.817936,0.273637,-0.149368,-0.092469,-0.017589,-0.005630,0.999990,0.004090,0.001368,-0.000747,0.694173,-0.213343,0.686010,0.044712,-97.818980,76.287375,-76.638207
37036,-9.356920,-1.501838,-0.723448,-0.651267,0.542694,-0.346317,1.078256,0.269593,0.054447,-0.093575,-0.015005,-0.007189,0.999985,0.005391,0.001348,0.000272,0.694400,-0.209418,0.687222,0.040978,-97.832119,76.306689,-77.287301
37037,-9.265771,-1.256529,-0.302194,-0.323610,0.884662,-0.504771,1.262578,0.296320,0.271030,-0.092645,-0.012672,-0.002964,0.999978,0.006313,0.001482,0.001355,0.694652,-0.204125,0.688766,0.037316,-97.878815,76.443705,-78.079217
37038,-9.204244,-1.001479,0.036288,-0.064369,1.188292,-0.630856,1.387351,0.290214,0.483951,-0.092017,-0.010240,0.000426,0.999972,0.006937,0.001451,0.002420,0.694983,-0.197634,0.690495,0.033986,-97.919753,76.705040,-78.938178
37039,-8.971247,-0.701272,0.109189,-0.050739,1.387282,-0.921147,1.445893,0.278473,0.695410,-0.089686,-0.007333,0.001165,0.999967,0.007229,0.001392,0.003477,0.695329,-0.190216,0.692360,0.031180,-97.995207,77.083957,-79.865757
37040,-8.831344,-0.342460,0.396203,0.156353,1.710967,-1.134300,1.426195,0.270088,0.889641,-0.088292,-0.003846,0.004055,0.999964,0.007131,0.001350,0.004448,0.695611,-0.182159,0.694330,0.029143,-98.164103,77.576573,-80.876032
37041,-8.754211,-0.262100,0.646888,0.420004,1.759079,-1.218987,1.359757,0.247119,1.084183,-0.087518,-0.003140,0.006557,0.999961,0.006799,0.001236,0.005421,0.695827,-0.173661,0.696335,0.028012,-98.442269,78.177237,-81.956910
37042,-8.609304,-0.226851,0.695998,0.507578,1.674941,-1.351496,1.205952,0.192856,1.265402,-0.086069,-0.002855,0.007027,0.999961,0.006030,0.000964,0.006327,0.696024,-0.165024,0.698232,0.028113,-98.810761,78.887415,-83.037530
37043,-8.433823,-0.328142,0.722766,0.609357,1.437636,-1.486829,1.068200,0.159911,1.446003,-0.084306,-0.003930,0.007275,0.999959,0.005341,0.000800,0.007230,0.696135,-0.156240,0.700089,0.029327,-99.354959,79.697547,-84.213754
37044,-8.439780,-0.183302,0.804782,0.694844,1.467396,-1.489625,0.943400,0.114947,1.617653,-0.084374,-0.002554,0.008085,0.999956,0.004717,0.000575,0.008088,0.696227,-0.147247,0.701844,0.031630,-100.072799,80.610170,-85.490479
37045,-8.544335,-0.084586,1.004942,0.907112,1.484272,-1.386852,0.762136,0.080499,1.769214,-0.085427,-0.001640,0.010079,0.999954,0.003811,0.000402,0.008846,0.696214,-0.138357,0.703500,0.035098,-101.100376,81.604723,-86.972021
37046,-8.839768,-0.254229,1.006920,0.992043,1.205399,-1.050244,0.581485,0.039104,1.878129,-0.088366,-0.003402,0.010077,0.999952,0.002907,0.000196,0.009390,0.696140,-0.129669,0.704985,0.039628,-102.500163,82.663983,-88.720909
37047,-9.248107,-0.239674,0.686608,0.718359,1.023960,-0.620893,0.427970,-0.004581,1.933328,-0.092452,-0.003305,0.006858,0.999951,0.002140,-0.000023,0.009666,0.696036,-0.121323,0.706257,0.044893,-104.376393,83.748802,-90.856786
37048,-9.800465,-0.123316,0.582383,0.631848,0.988595,-0.064671,0.297063,-0.030211,1.951915,-0.097987,-0.002198,0.005806,0.999951,0.001485,-0.000151,0.009759,0.695876,-0.113325,0.707348,0.050720,-107.051980,84.841030,-93.716118
37049,-10.146923,-0.039759,0.672407,0.741592,0.929149,0.286679,0.165271,-0.076198,1.944144,-0.101461,-0.001389,0.006685,0.999952,0.000826,-0.000381,0.009721,0.695732,-0.105814,0.708176,0.056983,-110.910500,85.916035,-97.681575
37050,-9.630774,0.079777,0.572772,0.646020,0.796081,-0.219341,-0.055618,-0.127760,1.920329,-0.096313,-0.000125,0.005666,0.999954,-0.000278,-0.000639,0.009601,0.695600,-0.099107,0.708677,0.063992,-117.049732,86.963483,-103.799936
37051,-8.973362,-0.497510,0.381022,0.614513,-0.018300,-0.838638,-0.388646,-0.098194,1.904583,-0.089683,-0.005822,0.003777,0.999953,-0.001943,-0.000491,0.009523,0.695132,-0.093638,0.709103,0.072081,-129.677524,87.918423,-116.216434
37052,-8.771530,-1.334097,0.366374,0.827408,-1.004733,-1.028754,-0.449233,-0.045289,1.852624,-0.087588,-0.014144,0.003675,0.999955,-0.002246,-0.000226,0.009263,0.694407,-0.088550,0.709596,0.080197,-158.044976,88.595439,-144.337933
37053,-8.524289,-1.686986,-0.202171,0.395357,-1.637965,-1.285727,-0.743221,-0.046828,1.769914,-0.085089,-0.017631,-0.001977,0.999954,-0.003716,-0.000234,0.008849,0.693521,-0.084792,0.709867,0.089038,158.377226,88.631461,172.499107
37054,-8.806139,-2.688351,-0.271866,0.627754,-2.770208,-1.050320,-0.714569,0.008418,1.651369,-0.087835,-0.027619,-0.002617,0.999960,-0.003573,0.000042,0.008257,0.692448,-0.081350,0.710225,0.097358,130.735959,88.061454,145.257296
37055,-9.194813,-2.313942,-0.266852,0.600105,-2.547971,-0.695881,-0.557599,0.007582,1.477600,-0.091774,-0.023825,-0.002599,0.999969,-0.002788,0.000038,0.007388,0.691470,-0.077997,0.710540,0.104489,118.330714,87.354847,133.162631
37056,-9.322817,-2.250292,-0.318160,0.583773,-2.630421,-0.602989,-0.631510,-0.016478,1.377134,-0.093070,-0.023154,-0.003117,0.999971,-0.003158,-0.000082,0.006886,0.690566,-0.075220,0.710644,0.111560,111.328547,86.635381,126.513973
37057,-9.618279,-2.576655,-0.807445,0.253876,-3.209736,-0.355734,-0.628195,-0.002712,1.323849,-0.096009,-0.026428,-0.007993,0.999973,-0.003141,-0.000014,0.006619,0.689599,-0.072644,0.710744,0.118402,107.033189,85.914677,122.570772
37058,-10.154039,-2.284511,-1.533812,-0.453839,-3.279591,0.172943,-0.567633,0.027791,1.232490,-0.101399,-0.023514,-0.015258,0.999977,-0.002838,0.000139,0.006162,0.688570,-0.070181,0.710909,0.124716,104.347306,85.223383,120.203786
37059,-10.632983,-2.432974,-0.920373,0.243895,-3.402730,0.588637,-0.340334,0.071471,1.052965,-0.106203,-0.024905,-0.009124,0.999985,-0.001702,0.000357,0.005265,0.687545,-0.067615,0.711282,0.129565,102.941506,84.622518,118.988703
37060,-10.574033,-1.627557,-1.099600,-0.113119,-2.770336,0.578656,-0.370721,0.034077,0.791494,-0.105677,-0.016714,-0.010947,0.999990,-0.001854,0.000170,0.003957,0.686800,-0.066044,0.711394,0.133648,101.863061,84.168409,118.119216
37061,-10.197937,-2.418388,-0.795522,0.417560,-3.472681,0.099181,-0.455909,0.161170,0.558334,-0.101918,-0.024486,-0.007817,0.999993,-0.002280,0.000806,0.002792,0.685714,-0.065692,0.711803,0.137173,101.791359,83.831323,118.310245
37062,-10.604815,-2.310482,-0.541995,0.685310,-3.372126,0.495232,-0.248811,0.137474,0.251958,-0.106023,-0.023245,-0.005318,0.999998,-0.001244,0.000687,0.001260,0.684990,-0.065693,0.712160,0.138931,102.021839,83.667150,118.686216
37063,-10.086081,-2.747466,-0.545737,0.801698,-3.746465,-0.071195,-0.290680,0.137697,-0.041752,-0.100870,-0.027461,-0.005348,0.999999,-0.001453,0.000688,-0.000209,0.684448,-0.066894,0.712396,0.139818,102.551340,83.668725,119.387007
37064,-9.404862,-3.151463,0.039988,1.454871,-3.874015,-0.798256,-0.159385,0.142831,-0.361125,-0.094105,-0.031344,0.000492,0.999998,-0.000797,0.000714,-0.001806,0.684157,-0.068778,0.712626,0.139153,103.557447,83.845727,120.491680
37065,-8.823551,-4.130714,0.950550,2.582088,-4.438972,-1.479058,-0.099046,0.185996,-0.655319,-0.088361,-0.041013,0.009608,0.999994,-0.000495,0.000930,-0.003277,0.683928,-0.071542,0.712944,0.137240,105.328572,84.177971,122.330044
37066,-8.703733,-3.880091,1.502482,3.027867,-3.955246,-1.551045,-0.126745,0.137071,-1.019903,-0.087223,-0.038347,0.015109,0.999987,-0.000634,0.000685,-0.005099,0.684107,-0.075660,0.712926,0.134201,107.667894,84.710979,124.754049
37067,-8.563583,-3.018542,2.165813,3.393244,-2.828071,-1.589310,-0.237505,0.178447,-1.289565,-0.085809,-0.029607,0.021770,0.999978,-0.001188,0.000892,-0.006448,0.684247,-0.081149,0.712855,0.130607,111.427855,85.369079,128.665130
37068,-9.594438,1.520897,-0.844195,-0.780643,0.653908,-0.115226,-0.667798,0.271227,-1.326939,-0.095852,0.015817,-0.008364,0.999971,-0.003339,0.001356,-0.006635,0.683881,-0.088298,0.712762,0.128380,116.955904,85.996153,134.593238
37069,-14.047968,9.422612,-2.372252,-4.417041,7.593847,4.835890,-0.942053,0.769889,-0.811524,-0.140187,0.094684,-0.023628,0.999973,-0.004710,0.003849,-0.004058,0.681240,-0.094865,0.714394,0.128660,125.352312,86.163206,143.550741
37070,-16.506623,11.252204,11.470583,8.295060,13.613500,6.816185,-0.444727,0.540799,0.371409,-0.164965,0.112471,0.114902,0.999992,-0.002224,0.002704,0.001857,0.678876,-0.095356,0.716096,0.131305,126.766610,85.806186,145.224638
37071,-13.015864,1.626691,4.678192,4.619618,2.462466,3.092234,-1.717467,-1.093737,0.491979,-0.130452,0.016343,0.045929,0.999945,-0.008587,-0.005469,0.002460,0.681629,-0.098663,0.711433,0.139679,116.295091,85.890810,135.712794
37072,-4.203622,-6.980406,-10.259808,-7.047428,-10.279397,-5.772567,-2.083664,-0.391293,0.013422,-0.041832,-0.070871,-0.101945,0.999944,-0.010418,-0.001956,0.000067,0.681973,-0.105389,0.708581,0.147377,112.060316,85.971375,132.665066
37073,-8.145291,-6.043550,-7.352130,-4.309815,-8.623128,-1.813455,-0.507277,1.313567,-0.877413,-0.082197,-0.060261,-0.072830,0.999966,-0.002536,0.006568,-0.004387,0.677690,-0.111153,0.712182,0.145527,124.635401,86.053505,145.562229
37074,-13.026277,-0.968196,2.898603,3.826789,-0.297586,3.004796,0.205160,0.996326,-0.904168,-0.130158,-0.009124,0.029625,0.999977,0.001026,0.004982,-0.004521,0.674921,-0.114357,0.715165,0.141223,135.855885,86.078490,156.691908
37075,-11.322847,-0.037088,4.721957,5.112246,1.370779,1.254861,-0.167263,-0.116569,-0.526446,-0.113256,-0.000033,0.047154,0.999996,-0.000836,-0.000583,-0.002632,0.675627,-0.116683,0.714333,0.140152,138.300399,86.331546,159.238300
37076,-8.537012,-2.866154,-2.292040,-0.624114,-3.673841,-1.300224,0.099945,-0.229761,-0.472083,-0.085411,-0.028448,-0.023033,0.999996,0.000500,-0.001149,-0.002360,0.676860,-0.117828,0.713322,0.138382,140.146751,86.607943,161.031536
37077,-8.601879,-2.527935,-5.016283,-3.324914,-4.271313,-1.080805,1.204465,0.183369,-0.497594,-0.086127,-0.024763,-0.050234,0.999978,0.006022,0.000917,-0.002488,0.677261,-0.115612,0.714451,0.132333,145.689046,86.695489,165.892476
37078,-8.980396,-1.237890,-4.084733,-2.911835,-2.645463,-0.681062,1.569195,0.362442,-0.522747,-0.089909,-0.011824,-0.040779,0.999964,0.007846,0.001812,-0.002614,0.677219,-0.112361,0.716364,0.124788,152.730383,86.671682,172.045686
37079,-10.220693,1.158340,-1.627572,-1.318940,0.522382,0.504287,1.470826,0.324521,-0.634572,-0.102195,0.012026,-0.016023,0.999967,0.007354,0.001623,-0.003173,0.677273,-0.109814,0.717984,0.117226,160.439340,86.646542,178.924048
37080,-10.636491,3.593117,-0.322040,-0.811935,3.336058,0.881233,0.793686,0.141501,-0.677147,-0.106245,0.036303,-0.003002,0.999986,0.003968,0.000708,-0.003386,0.677611,-0.109600,0.718523,0.112049,167.553624,86.678591,-174.404512
37081,-10.148689,3.003501,-0.746254,-1.059130,2.710360,0.390532,0.043267,0.039854,-0.563487,-0.101403,0.030322,-0.007436,0.999996,0.000216,0.000199,-0.002817,0.677822,-0.111462,0.718354,0.110004,173.046874,86.713175,-168.926493
37082,-9.538997,0.215514,-1.620231,-1.070466,-0.171427,-0.195586,-0.265791,0.087655,-0.450918,-0.095392,0.002349,-0.016164,0.999996,-0.001329,0.000438,-0.002255,0.677628,-0.113989,0.718229,0.109427,177.316772,86.689065,-164.496362
37083,-9.939004,-1.710887,-0.958607,0.182378,-1.747602,0.164401,-0.297624,0.176776,-0.443233,-0.099436,-0.016903,-0.009473,0.999996,-0.001488,0.000884,-0.002216,0.677081,-0.116647,0.718393,0.108935,-178.608270,86.594225,-160.243114
37084,-9.831622,-1.757798,-0.224482,0.891805,-1.516923,0.021155,-0.281826,0.122748,-0.474319,-0.098359,-0.017348,-0.002160,0.999996,-0.001409,0.000614,-0.002372,0.676754,-0.119331,0.718353,0.108315,-174.435964,86.512568,-155.900897
37085,-9.541789,-1.035728,-0.010993,0.849296,-0.723959,-0.279956,-0.340432,0.132829,-0.482906,-0.095443,-0.010127,-0.000029,0.999995,-0.001702,0.000664,-0.002415,0.676350,-0.122251,0.718311,0.107866,-170.447316,86.405117,-151.708733
37086,-9.929391,-0.105102,0.155482,0.726728,0.270896,0.088135,-0.318880,0.123142,-0.497158,-0.099295,-0.000802,0.001617,0.999995,-0.001594,0.000616,-0.002486,0.676001,-0.125141,0.718226,0.107299,-166.559335,86.285017,-147.629175
37087,-9.851448,-0.015645,-0.013054,0.529571,0.346162,0.018436,-0.427607,0.110550,-0.465586,-0.098515,0.000073,-0.000076,0.999995,-0.002138,0.000553,-0.002328,0.675600,-0.128279,0.718060,0.107233,-163.226027,86.159408,-144.042612
37088,-9.861414,-0.638719,-0.262508,0.494115,-0.279704,0.056548,-0.479076,0.051585,-0.444358,-0.098629,-0.006174,-0.002585,0.999995,-0.002395,0.000258,-0.002222,0.675366,-0.131480,0.717666,0.107464,-160.147147,86.057827,-140.680915
37089,-9.432958,-1.045180,-1.146054,-0.230314,-0.936747,-0.301857,-0.506278,0.017576,-0.428022,-0.094353,-0.010279,-0.011426,0.999995,-0.002531,0.000088,-0.002140,0.675214,-0.134696,0.717153,0.107865,-157.272629,85.964977,-137.508172
37090,-9.186832,-1.042244,-1.511415,-0.591038,-1.035989,-0.520441,-0.436305,0.050098,-0.412019,-0.091893,-0.010266,-0.015069,0.999995,-0.002182,0.000250,-0.002060,0.674983,-0.137634,0.716784,0.108050,-154.722034,85.849555,-134.699865
37091,-9.429538,-0.792806,-1.621102,-0.768826,-0.795726,-0.276003,-0.395957,0.068744,-0.384207,-0.094316,-0.007779,-0.016163,0.999996,-0.001980,0.000344,-0.001921,0.674687,-0.140346,0.716520,0.108167,-152.559335,85.722456,-132.303356
37092,-9.557708,-0.748508,-1.373641,-0.547970,-0.631750,-0.163984,-0.315322,0.066956,-0.358562,-0.095595,-0.007335,-0.013693,0.999997,-0.001577,0.000335,-0.001793,0.674441,-0.142692,0.716301,0.108084,-150.639323,85.597942,-130.196088
37093,-9.609517,-0.646753,-0.964227,-0.202025,-0.360897,-0.142129,-0.205854,0.048732,-0.349440,-0.096109,-0.006310,-0.009612,0.999998,-0.001029,0.000244,-0.001747,0.674324,-0.144626,0.716088,0.107650,-148.764355,85.479006,-128.196650
37094,-9.645180,-0.484619,-0.687739,-0.006008,-0.080460,-0.131224,-0.144453,0.027453,-0.337345,-0.096461,-0.004688,-0.006861,0.999998,-0.000722,0.000137,-0.001687,0.674324,-0.146297,0.715838,0.107054,-146.939216,85.369890,-126.282106
37095,-9.641911,-0.336957,-0.374920,0.224856,0.196516,-0.162232,-0.164134,0.014458,-0.338734,-0.096425,-0.003209,-0.003740,0.999998,-0.000821,0.000072,-0.001694,0.674349,-0.148032,0.715535,0.106531,-145.160211,85.261008,-124.402314
37096,-9.661407,-0.213006,-0.394281,0.152879,0.335673,-0.147933,-0.216179,-0.004665,-0.336756,-0.096617,-0.001972,-0.003943,0.999998,-0.001081,-0.000023,-0.001684,0.674407,-0.149925,0.715133,0.106217,-143.421642,85.157762,-122.532822
37097,-9.597516,-0.303074,-0.511066,0.062490,0.234356,-0.199860,-0.238700,0.007829,-0.339812,-0.095980,-0.002874,-0.005103,0.999998,-0.001193,0.000039,-0.001699,0.674396,-0.151911,0.714762,0.105961,-141.814669,85.042529,-120.782220
37098,-9.646857,-0.381060,-0.594341,0.005639,0.164408,-0.141433,-0.237922,0.020470,-0.335778,-0.096475,-0.003656,-0.005929,0.999998,-0.001190,0.000102,-0.001679,0.674341,-0.153886,0.714429,0.105708,-140.350337,84.919882,-119.174879
37099,-9.640791,-0.610162,-0.523016,0.146356,0.005648,-0.139572,-0.200102,0.024816,-0.338943,-0.096419,-0.005943,-0.005212,0.999998,-0.001001,0.000124,-0.001695,0.674294,-0.155746,0.714130,0.105303,-138.947534,84.789967,-117.650819
37100,-9.588187,-0.929550,-0.347813,0.414554,-0.202211,-0.184316,-0.073936,0.022024,-0.343412,-0.095898,-0.009132,-0.003464,0.999998,-0.000370,0.000110,-0.001717,0.674360,-0.157195,0.713877,0.104437,-137.507017,84.656894,-116.161104
37101,-9.594058,-1.078944,-0.314184,0.490803,-0.297456,-0.170109,0.051393,0.029074,-0.349524,-0.095960,-0.010621,-0.003131,0.999998,0.000257,0.000145,-0.001748,0.674495,-0.158247,0.713712,0.103095,-136.077135,84.514400,-114.753924
37102,-9.742761,-0.733495,-0.267307,0.402655,0.085644,-0.047377,0.159835,0.022117,-0.375318,-0.097441,-0.007150,-0.002668,0.999998,0.000799,0.000111,-0.001877,0.674758,-0.159020,0.713551,0.101285,-134.517331,84.361589,-113.278235
37103,-9.742143,-0.045861,-0.325019,0.085843,0.738785,-0.093439,0.154364,0.015517,-0.405786,-0.097422,-0.000258,-0.003243,0.999998,0.000772,0.000078,-0.002029,0.675047,-0.159917,0.713343,0.099396,-132.904259,84.194226,-111.745505
37104,-9.820792,0.387561,-0.528969,-0.272504,1.113960,-0.037072,0.061091,0.010493,-0.441035,-0.098199,0.004094,-0.005283,0.999998,0.000305,0.000052,-0.002205,0.675299,-0.161251,0.713035,0.097725,-131.277884,84.010223,-110.145151
37105,-9.679123,0.271863,-0.728832,-0.436567,0.961109,-0.159913,0.037512,0.017755,-0.450382,-0.096785,0.002938,-0.007279,0.999997,0.000188,0.000089,-0.002252,0.675502,-0.162701,0.712735,0.096100,-129.766952,83.814363,-108.646797
37106,-9.574143,0.002124,-0.711467,-0.340770,0.746114,-0.247259,0.026571,0.022527,-0.452878,-0.095742,0.000239,-0.007104,0.999997,0.000133,0.000113,-0.002264,0.675683,-0.164197,0.712434,0.094502,-128.360383,83.612418,-107.246528
37107,-9.690857,-0.160973,-0.492208,-0.087757,0.726815,-0.135666,0.050551,0.030415,-0.475515,-0.096913,-0.001378,-0.004908,0.999997,0.000253,0.000152,-0.002378,0.675856,-0.165696,0.712154,0.092734,-126.996797,83.393085,-105.902810
37108,-9.753836,-0.131069,-0.547346,-0.164216,0.786741,-0.075751,0.030585,0.009385,-0.525346,-0.097542,-0.001054,-0.005469,0.999997,0.000153,0.000047,-0.002627,0.676113,-0.167428,0.711743,0.090888,-125.505954,83.154894,-104.418783
37109,-9.606501,-0.195883,-0.921524,-0.512275,0.624492,-0.193967,0.014235,0.009426,-0.557666,-0.096070,-0.001690,-0.009211,0.999996,0.000071,0.000047,-0.002788,0.676360,-0.169332,0.711299,0.088987,-124.047462,82.896338,-102.957168
37110,-9.734892,-0.312485,-1.066457,-0.620788,0.531809,-0.048742,0.068966,0.025178,-0.592876,-0.097359,-0.002833,-0.010653,0.999996,0.000345,0.000126,-0.002964,0.676613,-0.171178,0.710891,0.086762,-122.630974,82.612390,-101.568622
37111,-9.868849,-0.200196,-1.161674,-0.767888,0.676651,0.073458,0.185147,0.014258,-0.657437,-0.098695,-0.001667,-0.011611,0.999994,0.000926,0.000071,-0.003287,0.677020,-0.172857,0.710439,0.083910,-121.076907,82.295099,-100.107521
37112,-9.792890,0.196382,-1.106849,-0.885109,1.117856,-0.059181,0.310820,0.016603,-0.720032,-0.097922,0.002334,-0.011057,0.999992,0.001554,0.000083,-0.003600,0.677550,-0.174328,0.709980,0.080401,-119.450906,81.941758,-98.645325
37113,-9.928225,0.817249,-0.720917,-0.767403,1.918303,-0.040895,0.432053,0.019323,-0.783377,-0.099250,0.008577,-0.007181,0.999990,0.002160,0.000097,-0.003917,0.678184,-0.175615,0.709516,0.076240,-117.786009,81.549407,-97.212678
37114,-10.180189,1.767281,-0.674175,-1.079821,2.932429,0.058893,0.489705,-0.016974,-0.903854,-0.101720,0.018149,-0.006706,0.999987,0.002449,-0.000085,-0.004519,0.679034,-0.177111,0.708825,0.071500,-115.908741,81.099608,-95.597053
37115,-10.820057,3.135835,-1.480507,-2.334571,4.121001,0.515180,0.370102,-0.052310,-1.060639,-0.108028,0.031959,-0.014775,0.999984,0.001851,-0.000262,-0.005303,0.679934,-0.179556,0.707816,0.066676,-113.936250,80.568010,-93.813396
37116,-11.872648,4.288068,-2.013422,-3.268179,5.297778,1.352058,0.252715,-0.136321,-1.239009,-0.118444,0.043640,-0.020160,0.999980,0.001264,-0.000682,-0.006195,0.681066,-0.182989,0.706294,0.061742,-111.758167,79.952229,-91.749946
37117,-10.597283,4.311858,-2.369303,-3.680795,5.099892,0.033572,0.131830,-0.234338,-1.353373,-0.105650,0.043850,-0.023788,0.999976,0.000659,-0.001172,-0.006767,0.682435,-0.187207,0.704269,0.056925,-109.498756,79.280560,-89.529281
37118,-9.271075,2.952155,-1.845984,-2.780606,3.887673,-1.139262,0.159816,-0.070770,-1.407601,-0.092493,0.030188,-0.018469,0.999975,0.000799,-0.000354,-0.007038,0.683240,-0.191547,0.702725,0.051680,-107.884687,78.538189,-87.977387
37119,-9.693328,2.171322,0.082966,-0.747090,4.018799,-0.758883,0.423338,0.020913,-1.507717,-0.096766,0.022441,0.000887,0.999969,0.002117,0.000105,-0.007539,0.683960,-0.195363,0.701428,0.045065,-106.474825,77.716058,-86.784121
37120,-10.165899,1.699071,0.824776,0.061821,4.064640,-0.305566,0.337315,0.003390,-1.578604,-0.101521,0.017778,0.008279,0.999967,0.001687,0.000017,-0.007893,0.684633,-0.199691,0.699940,0.038537,-105.188273,76.854336,-85.662945
37121,-10.516558,1.230954,0.477815,-0.164298,3.744267,0.101582,0.291119,0.008274,-1.576660,-0.105064,0.013131,0.004801,0.999968,0.001456,0.000041,-0.007883,0.685197,-0.204173,0.698416,0.032156,-104.087184,75.985749,-84.701335
37122,-10.995671,1.268634,0.384604,-0.320422,4.011663,0.505437,0.375453,0.091827,-1.519301,-0.109854,0.013514,0.003921,0.999969,0.001877,0.000459,-0.007596,0.685507,-0.208150,0.697207,0.025607,-103.262993,75.136835,-84.072003
37123,-11.835220,1.503245,0.915920,0.049022,4.763380,1.163486,0.510618,0.168018,-1.473308,-0.118230,0.015880,0.009298,0.999969,0.002553,0.000840,-0.007366,0.685641,-0.211517,0.696283,0.018647,-102.614146,74.299181,-83.702189
37124,-12.560061,2.240583,1.546125,0.364864,5.982208,1.555837,0.605271,0.178606,-1.411339,-0.125425,0.023244,0.015643,0.999970,0.003026,0.000893,-0.007057,0.685796,-0.214312,0.695428,0.011576,-102.008212,73.497086,-83.432092
37125,-12.561856,2.668731,2.078877,0.720963,6.679852,1.327412,0.739822,0.125637,-1.304454,-0.125428,0.027428,0.020968,0.999972,0.003699,0.000628,-0.006522,0.686229,-0.216279,0.694473,0.004441,-101.311191,72.757126,-83.146194
37126,-11.146972,2.459557,0.992921,-0.209824,5.867935,0.026626,0.611631,0.107314,-1.209272,-0.111313,0.025238,0.010065,0.999977,0.003058,0.000537,-0.006046,0.686557,-0.218320,0.693522,-0.001879,-100.724866,72.075667,-82.898421
37127,-10.648730,1.116061,-0.114827,-0.848834,4.280937,-0.034847,0.621602,0.270413,-1.026196,-0.106430,0.011710,-0.000969,0.999981,0.003108,0.001352,-0.005131,0.686297,-0.219705,0.693300,-0.007807,-100.495145,71.475743,-83.031037
37128,-10.688833,-0.104373,0.025011,-0.349627,3.321889,0.341372,0.875804,0.370707,-0.689492,-0.106890,-0.000677,0.000445,0.999983,0.004379,0.001854,-0.003447,0.685965,-0.219012,0.693760,-0.013544,-100.390106,71.059633,-83.449668
37129,-10.659556,-0.489040,0.301049,0.045203,3.099789,0.402253,1.176389,0.379496,-0.338193,-0.106598,-0.004729,0.003185,0.999979,0.005882,0.001897,-0.001691,0.685922,-0.216088,0.694587,-0.019154,-100.228104,70.836582,-83.990865
37130,-10.572685,-0.214200,0.701925,0.384618,3.445519,0.202334,1.464935,0.292687,-0.015284,-0.105717,-0.002186,0.007158,0.999972,0.007325,0.001463,-0.000076,0.686497,-0.211021,0.695406,-0.024536,-99.851374,70.809922,-84.480326
37131,-10.298926,0.159092,1.129291,0.742098,3.784078,-0.195085,1.689166,0.234674,0.281377,-0.102978,0.001350,0.011426,0.999963,0.008446,0.001173,0.001407,0.687495,-0.204176,0.696264,-0.029645,-99.336288,70.952946,-84.958996
37132,-9.865470,0.743769,1.383323,0.903447,4.186956,-0.787896,1.821883,0.222608,0.525396,-0.098658,0.007051,0.014008,0.999954,0.009109,0.001113,0.002627,0.688658,-0.195979,0.697255,-0.034332,-98.790428,71.241633,-85.485054
37133,-9.563582,1.408145,1.321246,0.758706,4.620585,-1.253227,1.637576,0.243518,0.713278,-0.095669,0.013631,0.013442,0.999959,0.008188,0.001218,0.003566,0.689531,-0.187772,0.698471,-0.037777,-98.437397,71.631230,-86.101913
37134,-9.681373,1.692882,1.306448,0.748271,4.841054,-1.192661,1.332827,0.280422,0.859557,-0.096866,0.016424,0.013311,0.999968,0.006664,0.001402,0.004298,0.689975,-0.180050,0.699960,-0.039652,-98.370001,72.106872,-86.834209
37135,-10.315270,1.925092,1.654062,1.101198,5.228741,-0.631569,1.099253,0.256390,0.982880,-0.103224,0.018652,0.016777,0.999972,0.005496,0.001282,0.004914,0.690267,-0.172730,0.701479,-0.040294,-98.448597,72.648906,-87.577016
37136,-10.429044,1.698869,1.356219,0.910278,4.891560,-0.392864,0.625654,0.195003,1.119954,-0.104370,0.016362,0.013716,0.999979,0.003128,0.000975,0.005600,0.690367,-0.166531,0.702967,-0.038710,-98.754400,73.279109,-88.271417
37137,-10.260097,0.802852,1.322662,1.088968,3.879000,-0.250805,0.377466,0.175592,1.244728,-0.102637,0.007365,0.013331,0.999978,0.001887,0.000878,0.006224,0.690314,-0.160783,0.704507,-0.035841,-99.247254,73.974221,-89.010018
37138,-9.876974,0.043768,1.102689,1.049468,2.891419,-0.362335,0.214011,0.141335,1.374283,-0.098762,-0.000253,0.011097,0.999976,0.001070,0.000707,0.006871,0.690251,-0.155102,0.706031,-0.031881,-99.867114,74.750180,-89.780644
37139,-9.407428,-0.714465,0.798504,0.919159,1.860709,-0.574782,0.101897,0.108917,1.541295,-0.094011,-0.007873,0.008032,0.999970,0.000509,0.000545,0.007706,0.690194,-0.149255,0.707551,-0.026962,-100.625350,75.614618,-90.624845
37140,-8.897049,-1.363846,0.704854,0.971213,0.949937,-0.887067,0.106363,0.069874,1.732618,-0.088845,-0.014412,0.007072,0.999962,0.000532,0.000349,0.008663,0.690267,-0.142670,0.709029,-0.021326,-101.482473,76.594457,-91.570139
37141,-8.458219,-1.693101,0.684031,1.034709,0.368113,-1.229714,0.121186,0.032783,1.956515,-0.084410,-0.017761,0.006844,0.999952,0.000606,0.000164,0.009782,0.690436,-0.135272,0.710475,-0.014982,-102.504252,77.693714,-92.688879
37142,-8.259445,-1.718192,0.494537,0.878891,0.093412,-1.408453,0.056731,-0.008873,2.190104,-0.082400,-0.018086,0.004937,0.999940,0.000284,-0.000044,0.010950,0.690661,-0.127215,0.711862,-0.007532,-103.818747,78.930119,-94.063858
37143,-8.344650,-1.761257,0.291310,0.715843,-0.158498,-1.310978,0.017291,-0.046416,2.386594,-0.083229,-0.018607,0.002892,0.999929,0.000086,-0.000232,0.011933,0.690901,-0.118619,0.713152,0.000720,-105.546039,80.266465,-95.829483
37144,-8.940497,-1.065380,0.242297,0.588031,0.394564,-0.833798,0.045381,-0.094170,2.523107,-0.089262,-0.011781,0.002378,0.999920,0.000227,-0.000471,0.012615,0.691230,-0.109382,0.714246,0.009413,-107.796689,81.680433,-98.133984
37145,-9.405014,-0.601586,0.922796,1.217549,0.789700,-0.455518,-0.023062,-0.147531,2.618904,-0.093967,-0.007246,0.009159,0.999914,-0.000115,-0.000738,0.013094,0.691583,-0.100059,0.715089,0.018669,-110.933214,83.131467,-101.284192
37146,-9.662950,-0.373627,1.174836,1.456883,0.833524,-0.217389,-0.182739,-0.244472,2.649899,-0.096583,-0.005006,0.011634,0.999911,-0.000914,-0.001222,0.013249,0.692087,-0.091110,0.715466,0.028688,-115.397106,84.596949,-105.667533
37147,-9.713198,-0.257905,0.792213,1.079971,0.632011,-0.144747,-0.430923,-0.285442,2.664093,-0.097097,-0.003856,0.007791,0.999908,-0.002155,-0.001427,0.013320,0.692487,-0.082987,0.715546,0.039618,-122.975494,86.019233,-113.022555
37148,-10.224469,-0.511320,0.918602,1.281202,0.174080,0.383749,-0.685312,-0.283111,2.657559,-0.102178,-0.006440,0.009062,0.999905,-0.003426,-0.001416,0.013287,0.692652,-0.075713,0.715438,0.051467,-138.383600,87.303685,-128.061644
37149,-10.764183,-1.200529,0.855897,1.382003,-0.766281,0.936171,-0.915217,-0.329298,2.619720,-0.107487,-0.013375,0.008441,0.999902,-0.004576,-0.001646,0.013098,0.692761,-0.069383,0.714965,0.063974,-171.719618,88.148152,-160.896408
37150,-9.510064,-1.987024,0.222332,0.896383,-1.929158,-0.330659,-1.129753,-0.396669,2.538330,-0.094843,-0.021063,0.002152,0.999902,-0.005649,-0.001983,0.012691,0.692935,-0.064014,0.714011,0.077017,142.603278,87.993269,154.051584
37151,-8.365158,-2.819944,-0.600444,0.261557,-3.114313,-1.535201,-1.420979,-0.310299,2.480841,-0.083284,-0.029276,-0.005928,0.999897,-0.007105,-0.001551,0.012404,0.692579,-0.059918,0.713089,0.090817,117.454217,86.994596,129.695492
37152,-8.628248,-3.719586,-0.512210,0.608467,-4.189441,-1.409231,-1.283944,-0.253532,2.422201,-0.085817,-0.038269,-0.004988,0.999905,-0.006420,-0.001268,0.012111,0.691959,-0.055534,0.712255,0.103928,106.273851,85.746798,119.231333
37153,-8.992303,-4.172848,-0.751897,0.557084,-4.908534,-1.185371,-1.246914,-0.337587,2.338041,-0.089414,-0.042822,-0.007405,0.999911,-0.006234,-0.001688,0.011690,0.691555,-0.051304,0.711005,0.116583,99.764976,84.478642,113.416637
37154,-9.546608,-4.905920,-0.965933,0.608129,-5.918213,-0.827220,-1.097523,-0.378881,2.198370,-0.094901,-0.050157,-0.009566,0.999923,-0.005487,-0.001894,0.010992,0.691310,-0.046989,0.709531,0.128249,95.508010,83.248206,109.768696
37155,-9.332834,-4.969467,-1.838118,-0.170890,-6.360972,-1.170899,-0.934358,-0.417971,1.991747,-0.092788,-0.050706,-0.018340,0.999937,-0.004672,-0.002090,0.009959,0.691269,-0.042843,0.707890,0.138578,92.461280,82.120486,107.237322
37156,-9.449383,-4.794461,-1.977063,-0.291364,-6.413339,-1.154319,-0.781242,-0.263306,1.723516,-0.094050,-0.048833,-0.019705,0.999954,-0.003906,-0.001317,0.008617,0.690830,-0.039193,0.706742,0.147421,90.758433,81.127308,105.969507
37157,-10.206989,-4.250193,-1.569463,0.043177,-6.042829,-0.421725,-0.605231,-0.146672,1.365166,-0.101765,-0.043245,-0.015639,0.999972,-0.003026,-0.000733,0.006826,0.690219,-0.036311,0.706016,0.154339,89.847820,80.339656,105.398704
37158,-9.951743,-3.976211,-1.775522,-0.194411,-5.910081,-0.700505,-0.786921,-0.149653,0.978461,-0.099308,-0.040318,-0.017672,0.999980,-0.003935,-0.000748,0.004892,0.689857,-0.035395,0.705023,0.160584,88.909961,79.768381,104.905199
37159,-9.088152,-5.069935,-1.815194,0.076160,-6.880758,-1.797553,-0.965048,-0.068671,0.600270,-0.090722,-0.051059,-0.017937,0.999984,-0.004825,-0.000343,0.003001,0.689449,-0.036513,0.704085,0.166105,88.170730,79.417532,104.716263
37160,-8.351382,-6.516574,-2.222419,0.123745,-8.262853,-2.822702,-1.046497,-0.015558,0.190748,-0.083450,-0.065360,-0.021889,0.999986,-0.005232,-0.000078,0.000954,0.689165,-0.039378,0.703155,0.170509,87.517158,79.298818,104.662238
37161,-7.460367,-8.171201,-1.487249,1.342553,-9.436337,-3.999772,-0.929139,0.115667,-0.216796,-0.074701,-0.081699,-0.014450,0.999988,-0.004646,0.000578,-0.001084,0.688766,-0.043401,0.702690,0.173043,87.288453,79.419810,104.971679
37162,-7.973321,-8.805353,-0.462981,2.600846,-9.769060,-3.557890,-0.637352,0.204366,-0.710242,-0.080050,-0.087784,-0.004268,0.999988,-0.003187,0.001022,-0.003551,0.688537,-0.048215,0.702650,0.172845,87.431618,79.823505,105.489354
37163,-16.986879,-6.609824,-7.118121,-3.849953,-11.189632,5.771703,-1.583708,0.793265,-1.461190,-0.170628,-0.065411,-0.069986,0.999934,-0.007918,0.003966,-0.007306,0.686600,-0.059444,0.703593,0.173217,88.994281,80.668614,107.996060
37164,-27.567154,-2.209485,-8.965867,-6.229391,-8.996020,17.121526,-1.648212,1.509050,-1.877965,-0.276532,-0.020227,-0.087402,0.999893,-0.008241,0.007545,-0.009389,0.682375,-0.072964,0.706686,0.172150,93.765062,81.718053,113.779862
37165,-16.617107,0.250370,10.771284,11.066427,1.690718,6.523908,2.604403,0.557735,-0.840546,-0.165861,0.001794,0.108202,0.999902,0.013022,0.002789,-0.004203,0.682025,-0.067482,0.710437,0.159900,97.814491,82.159525,116.363031
37166,-6.506930,4.957035,8.004309,6.428997,6.404542,-2.839091,0.598818,-0.376031,-0.290088,-0.065148,0.049425,0.080069,0.999993,0.002994,-0.001880,-0.001450,0.683812,-0.066128,0.709503,0.156956,96.697306,82.345898,114.890130
37167,-4.300436,-3.558256,0.826625,2.170076,-3.582552,-6.032037,-2.554066,0.375205,-0.149008,-0.043015,-0.035440,0.008800,0.999916,-0.012770,0.001876,-0.000745,0.681710,-0.075638,0.708653,0.165410,96.870171,82.399829,116.541444
37168,-7.779162,-4.880599,-2.605840,-0.306680,-6.329513,-2.673542,-1.484321,0.812342,-0.729170,-0.078073,-0.048712,-0.025380,0.999958,-0.007422,0.004062,-0.003646,0.678869,-0.083908,0.709859,0.167917,99.970084,82.739678,120.526179
37169,-13.743321,-3.516325,2.003714,3.985460,-3.974960,3.361968,-0.125303,0.498567,-1.114750,-0.137576,-0.034384,0.020402,0.999981,-0.000627,0.002493,-0.005574,0.677985,-0.088668,0.710947,0.164406,103.192645,83.303195,123.845539
37170,-11.005678,-3.722198,-2.659994,-0.475182,-5.428859,0.787136,-1.296639,-0.214164,-1.065222,-0.110225,-0.036807,-0.026478,0.999964,-0.006483,-0.001071,-0.005326,0.679048,-0.096632,0.708628,0.165538,102.534636,83.921153,123.931924
37171,-9.553331,-3.851427,-3.665173,-1.435323,-5.711644,-0.601319,-0.628825,0.343508,-0.886312,-0.095766,-0.038205,-0.036367,0.999984,-0.003144,0.001718,-0.004432,0.678264,-0.102151,0.708817,0.164629,105.172774,84.362350,126.946536
37172,-9.515088,-1.514786,-4.298517,-2.872835,-3.706543,-0.361949,0.240199,0.277031,-0.733159,-0.095265,-0.014747,-0.042871,0.999992,0.001201,0.001385,-0.003666,0.678026,-0.104128,0.709546,0.161189,108.090924,84.716016,129.740571
37173,-8.218276,-1.926792,-7.230420,-5.524202,-5.014714,-1.574541,0.277243,0.302968,-0.397072,-0.082330,-0.019004,-0.072206,0.999996,0.001386,0.001515,-0.001985,0.677427,-0.104801,0.710570,0.158742,110.816578,84.868398,132.318480
37174,-9.515446,-2.829826,-5.123218,-3.164073,-5.100544,-0.390824,0.855361,0.422854,-0.332163,-0.095309,-0.027921,-0.051151,0.999987,0.004277,0.002114,-0.001661,0.676649,-0.103385,0.712475,0.154393,114.569861,84.947747,135.595308
37175,-10.324440,-1.329676,-2.820159,-1.512944,-2.852076,0.477675,1.031266,0.253918,-0.448809,-0.103309,-0.012920,-0.028138,0.999983,0.005156,0.001270,-0.002244,0.676628,-0.101650,0.713869,0.149108,117.899384,85.110457,138.344760
37176,-9.486032,0.633511,-0.770384,-0.332514,-0.185926,-0.281989,0.944359,0.231576,-0.467125,-0.094854,0.006593,-0.007563,0.999985,0.004722,0.001158,-0.002336,0.676639,-0.100263,0.715087,0.144072,121.313076,85.275691,141.228127
37177,-9.440927,2.806970,1.289643,0.881590,2.610841,-0.269134,0.601836,0.280556,-0.427074,-0.094331,0.028232,0.013114,0.999992,0.003009,0.001403,-0.002135,0.676256,-0.099916,0.716233,0.140375,124.866166,85.390039,144.447526
37178,-9.780292,4.026858,2.111377,1.289612,4.062688,0.094829,0.041200,0.240327,-0.383925,-0.097700,0.040452,0.021240,0.999997,0.000206,0.001202,-0.001920,0.675704,-0.101289,0.716859,0.138845,127.833733,85.484318,147.401465
37179,-9.865390,3.881716,1.701129,0.953691,3.825472,0.174482,-0.494396,0.171161,-0.347783,-0.098572,0.039031,0.016999,0.999995,-0.002472,0.000856,-0.001739,0.675094,-0.104285,0.716897,0.139396,130.043214,85.575412,149.902287
37180,-9.792976,2.735118,0.944604,0.603730,2.530970,0.061777,-0.874361,0.133062,-0.357170,-0.097874,0.027567,0.009391,0.999989,-0.004372,0.000665,-0.001786,0.674424,-0.108574,0.716520,0.141292,131.960875,85.678957,152.328637
37181,-9.502000,1.175206,-0.034011,0.189024,0.772775,-0.271343,-1.014285,0.124037,-0.374760,-0.094998,0.011928,-0.000341,0.999985,-0.005071,0.000620,-0.001874,0.673699,-0.113384,0.715991,0.143634,133.946665,85.785897,154.903172
37182,-9.447457,-0.440057,-0.751374,0.088833,-0.956491,-0.373949,-0.828354,0.176651,-0.388799,-0.094490,-0.004248,-0.007412,0.999989,-0.004142,0.000883,-0.001944,0.672891,-0.117657,0.715740,0.145228,136.521083,85.870506,157.960965
37183,-9.197607,-1.353535,-1.308161,-0.104118,-1.967145,-0.633435,-0.378436,0.191611,-0.413213,-0.092016,-0.013370,-0.012968,0.999996,-0.001892,0.000958,-0.002066,0.672295,-0.120509,0.715847,0.145120,139.696181,85.945698,161.362023
37184,-9.117420,-1.343166,-1.299231,-0.099377,-1.910790,-0.704545,0.215252,0.239011,-0.436832,-0.091219,-0.013219,-0.012898,0.999996,0.001076,0.001195,-0.002184,0.671905,-0.121488,0.716519,0.142776,143.714610,85.993745,165.267417
37185,-9.475781,-0.198979,-1.007701,-0.222289,-0.696423,-0.309487,0.628261,0.223094,-0.477750,-0.094773,-0.001732,-0.009977,0.999992,0.003141,0.001115,-0.002389,0.671838,-0.121208,0.717405,0.138825,148.260397,86.040694,169.463831
37186,-9.756461,1.090835,-0.899482,-0.565206,0.600986,0.011086,0.744448,0.213030,-0.541739,-0.097544,0.011206,-0.008850,0.999989,0.003722,0.001065,-0.002709,0.671915,-0.120764,0.718279,0.134242,153.395307,86.086929,174.183948
37187,-9.870634,2.101284,-1.025249,-1.027410,1.567646,0.156385,0.556018,0.190407,-0.599296,-0.098652,0.021337,-0.010100,0.999991,0.002780,0.000952,-0.002996,0.671980,-0.121136,0.718908,0.130158,158.876407,86.127110,179.358864
37188,-9.885633,2.273534,-0.922917,-0.986743,1.834148,0.157684,0.345985,0.212417,-0.609134,-0.098796,0.023052,-0.009085,0.999993,0.001730,0.001062,-0.003046,0.671839,-0.122266,0.719452,0.126777,164.439523,86.124020,-175.263380
37189,-9.577618,1.980133,-0.778443,-0.769010,1.671810,-0.175727,0.153828,0.196523,-0.593251,-0.095724,0.020091,-0.007675,0.999995,0.000769,0.000983,-0.002966,0.671615,-0.123969,0.719827,0.124152,169.672152,86.092676,-170.106546
37190,-9.284880,1.213773,-0.473430,-0.239019,1.111962,-0.506102,0.031128,0.207217,-0.555591,-0.092819,0.012396,-0.004636,0.999996,0.000156,0.001036,-0.002778,0.671252,-0.125957,0.720174,0.122085,174.417342,86.022739,-165.367405
37191,-9.154066,0.629806,-0.258354,0.155156,0.688009,-0.660492,-0.027415,0.201342,-0.526015,-0.091526,0.006538,-0.002492,0.999996,-0.000137,0.001007,-0.002630,0.670845,-0.128027,0.720483,0.120333,178.689669,85.928986,-161.068314
37192,-9.264139,0.008383,-0.002682,0.617101,0.245840,-0.572402,-0.028606,0.202001,-0.512363,-0.092641,0.000321,0.000067,0.999996,-0.000143,0.001010,-0.002562,0.670426,-0.130054,0.720792,0.118628,-177.353734,85.814292,-157.084419
37193,-9.479193,-0.440237,-0.098790,0.697648,-0.151841,-0.349671,-0.013479,0.191686,-0.509602,-0.094804,-0.004161,-0.000897,0.999996,-0.000067,0.000958,-0.002548,0.670043,-0.132010,0.721078,0.116886,-173.636015,85.685966,-153.348245
37194,-9.730123,-1.011622,-0.388074,0.642837,-0.727303,-0.070674,0.014413,0.206554,-0.516504,-0.097331,-0.009865,-0.003781,0.999996,0.000072,0.001033,-0.002583,0.669630,-0.133909,0.721414,0.115007,-170.093020,85.532112,-149.802531
37195,-10.135949,-1.552679,-0.276147,0.963920,-1.125128,0.337643,0.141560,0.225752,-0.527260,-0.101403,-0.015258,-0.002658,0.999996,0.000708,0.001129,-0.002636,0.669227,-0.135427,0.721880,0.112622,-166.690909,85.349376,-146.470527
37196,-10.137789,-1.595118,-0.412377,0.848760,-1.153341,0.357775,0.306594,0.198477,-0.569789,-0.101427,-0.015656,-0.004047,0.999994,0.001533,0.000992,-0.002849,0.669059,-0.136534,0.722306,0.109514,-163.122921,85.160293,-143.065972
37197,-9.874382,-1.140721,-0.413473,0.668760,-0.680080,0.090118,0.389849,0.216537,-0.588255,-0.098781,-0.011109,-0.004050,0.999993,0.001949,0.001083,-0.002941,0.668878,-0.137434,0.722822,0.106032,-159.718302,84.940628,-139.872356
37198,-9.870035,-0.394173,-0.363183,0.458360,0.099505,0.060738,0.342075,0.215730,-0.588620,-0.098715,-0.003645,-0.003532,0.999994,0.001710,0.001079,-0.002943,0.668664,-0.138497,0.723295,0.102718,-156.609372,84.706603,-136.946935
37199,-9.868082,0.054272,-0.398691,0.271048,0.570335,0.043370,0.196869,0.180670,-0.592681,-0.098682,0.000839,-0.003897,0.999995,0.000984,0.000903,-0.002963,0.668466,-0.140036,0.723571,0.099941,-153.741103,84.475874,-134.178681
37200,-9.786312,0.322304,-0.962015,-0.358689,0.690563,-0.004763,0.065167,0.154427,-0.610093,-0.097860,0.003525,-0.009543,0.999995,0.000326,0.000772,-0.003050,0.668278,-0.142068,0.723668,0.097597,-151.009569,84.241903,-131.470823
37201,-9.611510,0.562150,-1.203377,-0.683733,0.882781,-0.174319,-0.055370,0.159359,-0.616306,-0.096107,0.005914,-0.011959,0.999995,-0.000277,0.000797,-0.003082,0.667978,-0.144522,0.723718,0.095667,-148.557946,83.991425,-128.973864
37202,-9.788142,0.424401,-1.299830,-0.724033,0.793106,0.011969,-0.216325,0.122361,-0.610983,-0.097876,0.004529,-0.012943,0.999995,-0.001082,0.000612,-0.003055,0.667691,-0.147478,0.723557,0.094361,-146.305463,83.750637,-126.583234
37203,-9.915327,-0.039682,-1.422496,-0.683292,0.385976,0.173433,-0.234030,0.112248,-0.656036,-0.099162,-0.000088,-0.014169,0.999994,-0.001170,0.000561,-0.003280,0.667436,-0.150647,0.723319,0.092976,-144.033550,83.489539,-124.161778
37204,-9.825514,0.135307,-1.636376,-0.962156,0.532744,0.088162,-0.161645,0.097694,-0.713822,-0.098257,0.001691,-0.016317,0.999993,-0.000808,0.000488,-0.003569,0.667312,-0.153777,0.723007,0.091146,-141.635914,83.204726,-121.654123
37205,-9.603177,0.492580,-1.238261,-0.739764,1.044915,-0.202410,-0.239629,0.132681,-0.744955,-0.096021,0.005269,-0.012325,0.999992,-0.001198,0.000663,-0.003725,0.667001,-0.157292,0.722748,0.089466,-139.486054,82.881442,-119.349544
37206,-9.618070,0.571322,-1.019751,-0.577138,1.261656,-0.223721,-0.326081,0.106986,-0.778920,-0.096163,0.006071,-0.010156,0.999991,-0.001630,0.000535,-0.003895,0.666723,-0.161205,0.722322,0.088004,-137.388895,82.546489,-117.046456
37207,-9.498280,0.343766,-1.197273,-0.687854,1.044216,-0.315057,-0.378374,0.114403,-0.822312,-0.094974,0.003806,-0.011925,0.999990,-0.001892,0.000572,-0.004112,0.666378,-0.165447,0.721853,0.086579,-135.411324,82.180820,-114.832001
37208,-9.743568,0.295233,-1.043165,-0.530700,1.157684,-0.092090,-0.288882,0.134764,-0.878479,-0.097429,0.003365,-0.010371,0.999989,-0.001444,0.000674,-0.004392,0.666049,-0.169600,0.721424,0.084625,-133.473528,81.774534,-112.707410
37209,-9.635676,0.547324,-0.642883,-0.273135,1.599311,-0.277173,-0.221155,0.142338,-0.942368,-0.096334,0.005920,-0.006367,0.999988,-0.001106,0.000712,-0.004712,0.665758,-0.173757,0.720984,0.082205,-131.557326,81.328247,-110.641629
37210,-9.578594,0.665802,-0.164798,0.106392,1.957279,-0.411791,-0.089267,0.186235,-1.001616,-0.095752,0.007137,-0.001562,0.999987,-0.000446,0.000931,-0.005008,0.665435,-0.177702,0.720670,0.079074,-129.745508,80.830623,-108.755378
37211,-9.462688,0.890002,0.036526,0.187150,2.312531,-0.595736,0.055026,0.186976,-1.070436,-0.094577,0.009406,0.000456,0.999985,0.000275,0.000935,-0.005352,0.665242,-0.181410,0.720340,0.075190,-127.908271,80.292540,-106.924438
37212,-10.407666,0.968042,-1.180982,-0.952371,2.218059,0.425636,0.060123,0.173266,-1.166845,-0.104028,0.010291,-0.011717,0.999983,0.000301,0.000866,-0.005834,0.665124,-0.185437,0.719851,0.070979,-126.043581,79.706229,-105.065499
37213,-12.485958,1.042743,-2.121313,-1.794705,2.457306,2.525245,0.299812,0.133631,-1.338758,-0.124800,0.011295,-0.021113,0.999976,0.001499,0.000668,-0.006694,0.665399,-0.189264,0.719131,0.065366,-123.866248,79.040572,-103.024518
37214,-11.289858,1.619069,-2.483380,-2.443081,2.803030,1.251718,0.645658,-0.038460,-1.457236,-0.112771,0.017093,-0.024801,0.999968,0.003228,-0.000192,-0.007286,0.666628,-0.192298,0.717797,0.058278,-121.156233,78.355937,-100.637749
37215,-9.833209,2.053487,-2.062368,-2.301657,3.213235,-0.350268,0.785157,0.153535,-1.468280,-0.098193,0.021337,-0.020466,0.999965,0.003926,0.000768,-0.007341,0.667256,-0.194952,0.717089,0.050460,-119.081335,77.591032,-98.975817
37216,-11.352881,3.095402,0.172245,-0.536494,5.394427,0.632814,0.988225,0.216829,-1.536533,-0.113285,0.031816,0.002001,0.999958,0.004941,0.001084,-0.007683,0.667825,-0.197170,0.716520,0.041626,-117.170521,76.763974,-97.596404
37217,-12.005007,3.312463,0.888689,0.067917,6.138899,1.058769,0.776276,0.138947,-1.566777,-0.119780,0.034029,0.009101,0.999962,0.003881,0.000695,-0.007834,0.668414,-0.200176,0.715562,0.033519,-115.381073,75.930698,-96.212198
37218,-12.094211,3.059292,1.487207,0.698154,6.274537,1.049229,0.715664,0.141516,-1.441312,-0.120707,0.031410,0.015069,0.999967,0.003578,0.000708,-0.007206,0.668869,-0.202914,0.714676,0.026052,-113.917299,75.154774,-95.123584
37219,-12.558283,2.676630,3.617056,2.844200,6.821838,1.292711,0.997533,0.172283,-1.072473,-0.125406,0.027258,0.036414,0.999973,0.004988,0.000861,-0.005362,0.669408,-0.203392,0.714263,0.018769,-112.777371,74.558402,-94.534282
37220,-11.661431,3.229881,4.148620,3.170563,7.307083,0.196613,1.180303,-0.100998,-0.588902,-0.116540,0.032397,0.041618,0.999978,0.005901,-0.000505,-0.002944,0.671038,-0.201484,0.713407,0.012743,-111.448332,74.276678,-93.856174
37221,-9.841270,3.586709,2.094600,1.095223,6.557978,-1.452318,0.930343,-0.084601,-0.085094,-0.098406,0.035811,0.021071,0.999989,0.004652,-0.000423,-0.000425,0.672297,-0.198624,0.713078,0.009268,-110.688271,74.255480,-93.619837
37222,-11.219484,3.759214,1.217140,0.274018,6.826332,-0.075356,1.149832,0.057445,0.319858,-0.112251,0.037342,0.012419,0.999982,0.005749,0.000287,0.001599,0.673238,-0.193567,0.713613,0.006247,-110.362243,74.425315,-93.965043
37223,-12.643436,4.661688,1.449736,0.340071,8.056452,1.080720,1.447164,-0.053604,0.597589,-0.126577,0.046132,0.014798,0.999969,0.007236,-0.000268,0.002988,0.674812,-0.186521,0.714023,0.003191,-109.850802,74.764248,-94.294123
37224,-12.139832,5.082865,1.867899,0.700819,8.345022,0.510491,1.295715,-0.134442,0.774987,-0.121606,0.050236,0.018924,0.999971,0.006479,-0.000672,0.003875,0.676501,-0.179320,0.714275,0.001371,-109.386998,75.218815,-94.582143
37225,-11.261038,4.511080,2.209939,1.231939,7.575876,-0.162219,1.069325,-0.146742,0.903569,-0.112829,0.044483,0.022256,0.999975,0.005347,-0.000734,0.004518,0.677983,-0.172436,0.714566,0.000783,-109.121528,75.742116,-94.940323
37226,-10.669055,3.669801,2.353517,1.620937,6.568584,-0.482093,0.860769,-0.153871,0.998552,-0.106890,0.036063,0.023609,0.999978,0.004304,-0.000769,0.004993,0.679290,-0.165886,0.714875,0.001295,-109.037680,76.322843,-95.361714
37227,-10.393936,2.650108,2.209931,1.757288,5.399277,-0.447903,0.704054,-0.165776,1.024618,-0.104091,0.025890,0.022105,0.999980,0.003520,-0.000829,0.005123,0.680468,-0.159794,0.715138,0.002440,-109.056106,76.915587,-95.794821
37228,-10.060549,2.198503,2.090765,1.764140,4.760925,-0.612709,0.604839,-0.186376,1.019242,-0.100735,0.021409,0.020879,0.999982,0.003024,-0.000932,0.005096,0.681628,-0.154023,0.715293,0.003966,-109.097406,77.514188,-96.192097
37229,-9.583838,1.595340,2.162708,1.976082,3.993112,-0.912046,0.428765,-0.208674,1.077725,-0.095945,0.015390,0.021560,0.999983,0.002144,-0.001043,0.005389,0.682694,-0.148666,0.715394,0.006310,-109.262015,78.143513,-96.611322
37230,-8.987838,1.383016,1.698060,1.563109,3.460027,-1.376985,0.241949,-0.302819,1.234742,-0.089987,0.013254,0.016861,0.999979,0.001210,-0.001514,0.006174,0.683939,-0.143346,0.715248,0.009959,-109.462349,78.880691,-96.956761
37231,-8.365170,1.132240,1.398038,1.311920,2.921292,-1.878199,0.080655,-0.336631,1.449175,-0.083754,0.010710,0.013844,0.999972,0.000403,-0.001683,0.007246,0.685131,-0.137832,0.715105,0.014910,-109.929033,79.734282,-97.478230
37232,-8.654922,0.510710,1.906985,1.952162,2.349660,-1.477733,0.038568,-0.329543,1.648765,-0.086619,0.004390,0.018928,0.999965,0.000193,-0.001648,0.008244,0.686225,-0.131708,0.715065,0.020724,-110.774896,80.698208,-98.358491
37233,-10.004394,0.428806,1.946602,2.039187,2.336450,-0.094606,0.033966,-0.441924,1.715275,-0.100118,0.003426,0.019245,0.999961,0.000170,-0.002210,0.008576,0.687644,-0.125373,0.714638,0.026820,-111.512308,81.713057,-99.123865
37234,-10.671656,0.878679,1.102138,1.120522,2.505431,0.595727,-0.168662,-0.548254,1.748076,-0.106818,0.007863,0.010722,0.999958,-0.000843,-0.002741,0.008740,0.689270,-0.119560,0.713769,0.033853,-112.193009,82.772387,-99.712776
37235,-10.568213,0.554206,0.940613,1.009752,1.951145,0.581981,-0.272494,-0.617913,1.795364,-0.105755,0.004605,0.009073,0.999954,-0.001362,-0.003090,0.008977,0.690997,-0.113946,0.712617,0.041423,-112.916959,83.865091,-100.283979
37236,-9.607517,-0.322312,0.531790,0.762482,0.719605,-0.242474,-0.394920,-0.641431,1.850003,-0.096056,-0.004102,0.005017,0.999950,-0.001975,-0.003207,0.009250,0.692675,-0.108511,0.711309,0.049664,-113.998245,84.996804,-101.142440
37237,-9.164688,-0.902933,0.070380,0.419165,-0.166910,-0.614562,-0.427525,-0.590401,1.871878,-0.091559,-0.009885,0.000454,0.999950,-0.002138,-0.002952,0.009359,0.694063,-0.103146,0.710120,0.058027,-116.138080,86.118714,-103.042462
37238,-9.146100,-0.783471,0.015390,0.328137,-0.246068,-0.642395,-0.543081,-0.583067,1.894797,-0.091381,-0.008701,-0.000090,0.999947,-0.002715,-0.002915,0.009474,0.695300,-0.098059,0.708848,0.066907,-120.203540,87.247153,-106.802260
37239,-9.100578,-0.812883,-0.112918,0.200379,-0.489871,-0.690677,-0.712017,-0.636906,1.931897,-0.090917,-0.009012,-0.001388,0.999942,-0.003560,-0.003184,0.009659,0.696541,-0.093432,0.707283,0.076497,-129.289487,88.374879,-115.485663
37240,-9.044196,-0.982656,-0.939175,-0.572129,-1.043437,-0.744837,-0.873443,-0.709023,1.943262,-0.090307,-0.010746,-0.009666,0.999937,-0.004367,-0.003545,0.009716,0.697885,-0.089256,0.705310,0.086757,-168.548095,89.365202,-154.248793
37241,-8.998426,-1.574403,-1.346953,-0.826003,-1.911281,-0.816789,-0.986358,-0.694070,1.929963,-0.089779,-0.016678,-0.013701,0.999935,-0.004932,-0.003470,0.009650,0.699028,-0.085548,0.703257,0.097315,102.340040,88.986782,117.199360
37242,-9.017573,-2.509466,-1.483324,-0.712730,-3.041390,-0.865450,-0.943447,-0.691122,1.881885,-0.089882,-0.026012,-0.015023,0.999939,-0.004717,-0.003456,0.009409,0.700126,-0.081818,0.701111,0.107575,84.491605,87.911288,99.886681
37243,-8.686651,-3.074786,-2.215148,-1.256356,-3.951858,-1.290936,-0.926012,-0.685879,1.843639,-0.086501,-0.031649,-0.022303,0.999941,-0.004630,-0.003429,0.009218,0.701135,-0.078186,0.698905,0.117591,78.800784,86.801540,94.721664
37244,-8.928961,-3.674153,-2.618565,-1.454164,-4.831351,-1.174248,-0.868897,-0.581607,1.817193,-0.088874,-0.037664,-0.026282,0.999945,-0.004344,-0.002908,0.009086,0.701749,-0.074469,0.696993,0.127292,76.647894,85.701526,93.063866
37245,-10.087198,-4.224487,-2.777502,-1.412467,-5.673319,-0.162467,-0.745282,-0.517809,1.769049,-0.100420,-0.043238,-0.027876,0.999951,-0.003726,-0.002589,0.008845,0.702130,-0.070548,0.695307,0.136324,75.656462,84.639724,92.497945
37246,-11.085788,-5.029975,-3.067082,-1.421344,-6.806693,0.639440,-0.470269,-0.500976,1.636066,-0.110364,-0.051276,-0.030828,0.999961,-0.002351,-0.002505,0.008180,0.702588,-0.066103,0.693743,0.143943,74.962524,83.648903,92.071974
37247,-11.182329,-5.201248,-3.640024,-1.900645,-7.324133,0.583875,-0.235642,-0.493500,1.463815,-0.111348,-0.052872,-0.036613,0.999969,-0.001178,-0.002467,0.007319,0.703162,-0.061459,0.692283,0.150103,74.382266,82.758576,91.624066
37248,-10.464535,-5.706110,-4.114176,-2.197150,-8.003938,-0.320610,-0.113573,-0.390662,1.354059,-0.104175,-0.057791,-0.041313,0.999975,-0.000568,-0.001953,0.006770,0.703468,-0.056817,0.691190,0.155438,74.250000,81.940538,91.557002
37249,-9.928640,-6.010650,-3.877936,-1.875855,-8.270370,-0.990867,0.098360,-0.255047,1.225004,-0.098866,-0.060694,-0.038935,0.999980,0.000492,-0.001275,0.006125,0.703425,-0.052000,0.690683,0.159517,74.614061,81.218476,91.868527
37250,-9.616895,-6.309157,-3.260263,-1.196365,-8.421511,-1.412384,0.255029,-0.115693,1.063815,-0.095813,-0.063560,-0.032739,0.999985,0.001275,-0.000578,0.005319,0.703052,-0.047281,0.690715,0.162465,75.328309,80.602865,92.444584
37251,-9.213470,-6.534607,-3.175721,-1.050379,-8.618434,-1.920101,0.231223,-0.033725,0.843852,-0.091853,-0.065697,-0.031849,0.999990,0.001156,-0.000169,0.004219,0.702545,-0.043488,0.690956,0.164680,76.041557,80.122932,93.034133
37252,-9.217644,-6.606446,-2.291217,-0.183984,-8.482438,-1.946691,0.358343,0.088394,0.533321,-0.092010,-0.066269,-0.022990,0.999995,0.001792,0.000442,0.002667,0.701893,-0.040409,0.691645,0.165350,76.911469,79.828856,93.709746
37253,-9.140899,-6.085872,-1.173931,0.732755,-7.684249,-1.914120,0.255655,0.125872,0.154920,-0.091369,-0.060914,-0.011760,0.999999,0.001278,0.000629,0.000775,0.701394,-0.039041,0.692307,0.165024,77.544155,79.751623,94.204250
37254,-8.249046,-5.462355,-0.789176,0.918410,-6.825854,-2.666286,-0.107525,0.174621,-0.216919,-0.082556,-0.054538,-0.007790,0.999999,-0.000538,0.000873,-0.001085,0.700966,-0.040268,0.692759,0.164651,77.860747,79.886420,94.589248
37255,-7.904743,-5.081009,0.658840,2.215722,-5.957878,-2.860746,-0.500714,0.309095,-0.560739,-0.079179,-0.050571,0.006838,0.999992,-0.002504,0.001545,-0.002804,0.700264,-0.044181,0.693290,0.164397,78.167445,80.230901,95.192355
37256,-10.566488,-5.021376,0.160733,1.814591,-6.407539,-0.192951,-1.217034,0.421196,-0.996094,-0.105909,-0.049675,0.002134,0.999967,-0.006085,0.002106,-0.004980,0.699351,-0.052199,0.693494,0.165075,78.163437,80.831724,95.896029
37257,-20.533784,-2.723707,-6.683133,-5.105623,-7.723943,9.884612,-2.497690,0.940868,-1.608252,-0.205863,-0.026407,-0.065530,0.999879,-0.012488,0.004704,-0.008041,0.696693,-0.067241,0.694198,0.167887,78.984903,81.835331,98.175003
37258,-20.298298,-1.462314,0.671684,1.575254,-3.854250,10.118833,-0.832758,0.909359,-1.182132,-0.203031,-0.013392,0.007697,0.999964,-0.004164,0.004547,-0.005911,0.694242,-0.074968,0.696220,0.166390,81.391785,82.585313,101.086539
37259,-10.950950,2.677441,11.705250,10.421883,4.998776,1.610999,1.263481,-0.147512,-0.442929,-0.109537,0.026277,0.117139,0.999977,0.006317,-0.000738,-0.002215,0.695596,-0.071961,0.696558,0.160547,81.140561,82.816892,100.103901
37260,-4.767920,0.544234,3.496247,3.216163,1.084526,-4.941068,-1.992402,-0.135764,0.022852,-0.047704,0.005785,0.034874,0.999950,-0.009962,-0.000679,0.000114,0.695320,-0.078663,0.694432,0.167649,79.377329,82.784427,99.478188
37261,-5.704718,-6.693175,-5.468779,-2.614943,-8.837180,-5.089153,-2.358676,0.631792,-0.150738,-0.057269,-0.067526,-0.053713,0.999925,-0.011793,0.003159,-0.000754,0.692287,-0.087871,0.694521,0.175095,80.729985,82.925568,102.203895
37262,-10.367846,-6.357442,-1.559720,1.163340,-7.643239,-0.295948,0.049498,0.852813,-0.638088,-0.103946,-0.063239,-0.015170,0.999986,0.000247,0.004264,-0.003190,0.689917,-0.090627,0.697199,0.172378,84.354161,83.345883,105.826524
37263,-12.487816,-3.584254,0.535993,2.184942,-4.459739,2.204611,0.658742,0.267654,-0.872654,-0.125026,-0.035315,0.005410,0.999984,0.003294,0.001338,-0.004363,0.690037,-0.091587,0.698266,0.166989,85.677293,83.851090,106.778617
37264,-9.669470,-1.562815,-1.588892,-0.634728,-2.975185,-0.367557,0.173104,0.093381,-0.789153,-0.096763,-0.015233,-0.015857,0.999992,0.000866,0.000467,-0.003946,0.690466,-0.093793,0.698339,0.163655,85.928031,84.300961,106.931900
37265,-9.029267,-0.096330,-2.531492,-2.062727,-1.815218,-0.846361,0.434430,0.420102,-0.649422,-0.090348,-0.000615,-0.025127,0.999990,0.002172,0.002101,-0.003247,0.689741,-0.094865,0.699815,0.159740,88.443927,84.678383,109.209865
37266,-9.730727,1.134243,-4.136738,-3.964251,-1.219676,-0.020721,0.777927,0.367234,-0.447313,-0.097357,0.011720,-0.041144,0.999988,0.003890,0.001836,-0.002237,0.689195,-0.094011,0.701458,0.155335,91.142374,84.930971,111.472730
37267,-9.353183,0.838573,-4.600636,-4.294219,-1.551995,-0.405154,0.700625,0.323714,-0.267977,-0.093595,0.008672,-0.045825,0.999992,0.003503,0.001619,-0.001340,0.688606,-0.092748,0.702967,0.151842,93.690700,85.070803,113.628291
37268,-10.058484,0.936575,-2.297607,-2.119387,-0.667313,0.306195,0.705343,0.368033,-0.343950,-0.100610,0.009619,-0.022757,0.999991,0.003527,0.001840,-0.001720,0.687914,-0.091778,0.704582,0.148042,96.729850,85.243829,116.273470
37269,-10.295083,2.360843,-0.198472,-0.585316,1.416785,0.639656,0.490981,0.272937,-0.488266,-0.102895,0.023864,-0.001786,0.999993,0.002455,0.001365,-0.002441,0.687549,-0.091973,0.705637,0.144548,99.349749,85.493657,118.620180
37270,-9.707294,2.881386,0.367826,-0.232568,2.190272,0.077592,-0.039753,0.225058,-0.477590,-0.097000,0.029046,0.003782,0.999996,-0.000199,0.001125,-0.002388,0.687098,-0.093927,0.706138,0.142978,101.563904,85.735599,120.864353
37271,-10.055522,2.037234,0.477760,0.164046,1.460298,0.352572,-0.280373,0.233391,-0.466768,-0.100502,0.020614,0.004866,0.999996,-0.001402,0.001167,-0.002334,0.686489,-0.096666,0.706499,0.142295,103.945587,85.962000,123.413828
37272,-9.734172,1.239083,0.416832,0.358968,0.758430,-0.027040,-0.363852,0.224833,-0.474915,-0.097307,0.012630,0.004255,0.999995,-0.001819,0.001124,-0.002375,0.685872,-0.099722,0.706757,0.141878,106.512970,86.187247,126.196873
37273,-9.477082,0.939631,0.563856,0.589029,0.590768,-0.309018,-0.372859,0.252913,-0.480547,-0.094741,0.009635,0.005741,0.999995,-0.001864,0.001265,-0.002403,0.685145,-0.102839,0.707099,0.141462,109.662304,86.399584,129.567349
37274,-9.586278,1.448459,0.607596,0.461970,1.130356,-0.175646,-0.409961,0.239281,-0.510624,-0.095818,0.014742,0.006161,0.999994,-0.002050,0.001196,-0.002553,0.684465,-0.106186,0.707340,0.141075,113.177998,86.619022,133.325564
37275,-9.364587,1.537001,0.092513,-0.065184,1.097419,-0.386256,-0.530372,0.217460,-0.537621,-0.093603,0.015624,0.000986,0.999992,-0.002652,0.001087,-0.002688,0.683803,-0.110017,0.707402,0.141036,117.034227,86.841435,137.492913
37276,-9.280852,1.191704,-0.307379,-0.327406,0.688127,-0.481668,-0.481001,0.235942,-0.539396,-0.092780,0.012160,-0.002993,0.999993,-0.002405,0.001180,-0.002697,0.683099,-0.113703,0.707547,0.140800,121.686515,87.042477,142.428471
37277,-9.576579,0.676069,-0.653846,-0.457794,0.125377,-0.201760,-0.429328,0.239118,-0.546552,-0.095755,0.007008,-0.006439,0.999993,-0.002147,0.001196,-0.002733,0.682405,-0.117232,0.707729,0.140357,127.101275,87.220905,148.096769
37278,-9.662652,-0.179674,-0.896263,-0.373835,-0.709212,-0.140075,-0.323664,0.207409,-0.556148,-0.096640,-0.001542,-0.008860,0.999994,-0.001618,0.001037,-0.002781,0.681887,-0.120417,0.707859,0.139521,133.069825,87.387318,154.258211
37279,-9.543132,-0.635500,-1.039388,-0.347619,-1.128795,-0.264899,-0.108389,0.201368,-0.571903,-0.095459,-0.006088,-0.010294,0.999995,-0.000542,0.001007,-0.002860,0.681520,-0.122912,0.708106,0.137875,140.000691,87.527862,161.258516
37280,-9.712224,-0.464123,-0.862897,-0.239894,-0.848628,-0.091101,0.110947,0.220393,-0.599804,-0.097145,-0.004345,-0.008524,0.999995,0.000555,0.001102,-0.002999,0.681237,-0.124778,0.708541,0.135340,148.251025,87.627662,169.453203
37281,-9.692955,0.083988,-0.506950,-0.109458,-0.145633,-0.107850,0.208722,0.218262,-0.632340,-0.096932,0.001152,-0.004963,0.999994,0.001044,0.001091,-0.003162,0.681033,-0.126415,0.709011,0.132352,157.475788,87.682393,178.566443
37282,-9.598506,0.440468,-0.198887,0.042666,0.361861,-0.208949,0.157900,0.205277,-0.630520,-0.095973,0.004709,-0.001887,0.999994,0.000789,0.001026,-0.003153,0.680838,-0.128217,0.709392,0.129552,166.819017,87.683621,-172.172647
37283,-9.562871,0.451085,-0.001047,0.218599,0.503854,-0.254967,0.022330,0.195528,-0.607594,-0.095614,0.004801,0.000084,0.999995,0.000112,0.000978,-0.003038,0.680565,-0.130384,0.709663,0.127320,175.507750,87.628998,-163.489005
37284,-9.509998,0.070297,-0.140098,0.219591,0.156062,-0.305228,-0.130167,0.185761,-0.576997,-0.095099,0.000976,-0.001313,0.999995,-0.000651,0.000929,-0.002885,0.680204,-0.132960,0.709813,0.125735,-176.829764,87.530253,-155.744446
37285,-9.428214,-0.764593,-0.384377,0.287333,-0.658305,-0.373015,-0.227079,0.183451,-0.528691,-0.094305,-0.007401,-0.003749,0.999995,-0.001135,0.000917,-0.002643,0.679747,-0.135685,0.709924,0.124663,-170.545482,87.396606,-149.323315
37286,-9.497859,-1.546599,-0.525422,0.443873,-1.386416,-0.285989,-0.197186,0.197414,-0.480921,-0.095021,-0.015243,-0.005145,0.999996,-0.000986,0.000987,-0.002405,0.679230,-0.138154,0.710124,0.123632,-165.494156,87.233685,-144.152744
37287,-9.760368,-1.816055,-0.423818,0.651186,-1.544344,-0.018138,-0.083224,0.212234,-0.461033,-0.097650,-0.017937,-0.004127,0.999997,-0.000416,0.001061,-0.002305,0.678718,-0.140166,0.710457,0.122257,-161.263290,87.046729,-139.868401
37288,-9.897429,-1.522683,-0.462829,0.516811,-1.231191,0.122539,-0.012722,0.214588,-0.472334,-0.099015,-0.014993,-0.004521,0.999997,-0.000064,0.001073,-0.002362,0.678253,-0.141987,0.710825,0.120586,-157.396613,86.841619,-135.988326
37289,-9.945589,-1.122449,-0.546594,0.295589,-0.836460,0.171607,0.037660,0.188043,-0.492414,-0.099488,-0.010979,-0.005374,0.999997,0.000188,0.000940,-0.002462,0.677922,-0.143685,0.711118,0.118691,-153.719424,86.632523,-132.326320
37290,-9.884617,-0.790942,-0.580794,0.139628,-0.491813,0.107341,0.067155,0.195972,-0.483113,-0.098871,-0.007669,-0.005714,0.999997,0.000336,0.000980,-0.002416,0.677578,-0.145261,0.711453,0.116710,-150.555167,86.409664,-129.194178
37291,-9.914893,-0.744863,-0.570955,0.131463,-0.394354,0.137836,0.099496,0.158430,-0.470532,-0.099171,-0.007213,-0.005635,0.999997,0.000497,0.000792,-0.002353,0.677376,-0.146652,0.711689,0.114689,-147.686565,86.199562,-126.376262
37292,-9.614655,-0.723240,-0.629806,0.052920,-0.364610,-0.157357,0.136461,0.141045,-0.455446,-0.096167,-0.007009,-0.006235,0.999997,0.000682,0.000705,-0.002277,0.677253,-0.147861,0.711890,0.112594,-145.102106,85.993803,-123.863574
37293,-9.529867,-0.460067,-0.672270,-0.089668,-0.095089,-0.248968,0.120541,0.141927,-0.449697,-0.095313,-0.004382,-0.006658,0.999997,0.000603,0.000710,-0.002248,0.677105,-0.149095,0.712089,0.110579,-142.836565,85.782936,-121.660966
37294,-9.594015,-0.302833,-0.652511,-0.129008,0.107074,-0.193211,0.067570,0.152064,-0.447940,-0.095952,-0.002811,-0.006453,0.999997,0.000338,0.000760,-0.002240,0.676881,-0.150516,0.712287,0.108745,-140.857069,85.561962,-119.714054
37295,-9.554129,-0.271332,-0.631009,-0.124560,0.186201,-0.236528,0.105496,0.150498,-0.452919,-0.095552,-0.002494,-0.006240,0.999997,0.000527,0.000752,-0.002265,0.676685,-0.151815,0.712496,0.106766,-139.026052,85.335588,-117.937416
37296,-9.611210,-0.266399,-0.469690,0.022115,0.297759,-0.190962,0.222156,0.132823,-0.455311,-0.096121,-0.002440,-0.004636,0.999997,0.001111,0.000664,-0.002277,0.676642,-0.152727,0.712697,0.104369,-137.191985,85.110916,-116.224112
37297,-9.662177,-0.305453,-0.553822,-0.047432,0.279381,-0.133989,0.244142,0.084466,-0.445391,-0.096631,-0.002833,-0.005501,0.999997,0.001221,0.000422,-0.002227,0.676775,-0.153494,0.712754,0.101970,-135.343999,84.906298,-114.509041
37298,-9.785646,-0.603256,-1.000987,-0.364602,-0.101876,0.035219,0.180847,0.067966,-0.465038,-0.097874,-0.005796,-0.009982,0.999997,0.000904,0.000340,-0.002325,0.676927,-0.154544,0.712698,0.099737,-133.500695,84.694982,-112.761598
37299,-9.930569,-0.815257,-1.231588,-0.512133,-0.320004,0.208926,0.230283,0.078015,-0.510488,-0.099331,-0.007885,-0.012286,0.999996,0.001151,0.000390,-0.002552,0.677096,-0.155585,0.712665,0.097171,-131.645474,84.456205,-111.030103
37300,-9.864879,-0.610397,-1.153548,-0.528234,-0.054167,0.123954,0.301478,0.078428,-0.552210,-0.098670,-0.005814,-0.011506,0.999995,0.001507,0.000392,-0.002761,0.677337,-0.156539,0.712626,0.094202,-129.739918,84.193231,-109.288188
37301,-9.754004,-0.174037,-0.955661,-0.513777,0.466681,-0.035054,0.284919,0.086984,-0.568289,-0.097549,-0.001450,-0.009516,0.999995,0.001425,0.000435,-0.002841,0.677532,-0.157602,0.712592,0.091237,-127.995785,83.915365,-107.698287
37302,-9.806676,-0.059059,-0.605753,-0.237810,0.755022,-0.019096,0.209992,0.069880,-0.569164,-0.098070,-0.000305,-0.006024,0.999995,0.001050,0.000349,-0.002846,0.677726,-0.158920,0.712455,0.088542,-126.358144,83.637565,-106.171421
37303,-9.758617,-0.262312,-0.640642,-0.217547,0.602110,-0.050531,0.149187,0.024407,-0.578866,-0.097594,-0.002336,-0.006396,0.999996,0.000746,0.000122,-0.002894,0.678029,-0.160450,0.712127,0.086073,-124.684928,83.366459,-104.572952
37304,-9.714853,-0.556094,-0.861800,-0.344520,0.302005,-0.054608,0.181257,0.008758,-0.599608,-0.097165,-0.005262,-0.008619,0.999995,0.000906,0.000044,-0.002998,0.678419,-0.161944,0.711732,0.083425,-123.000269,83.084581,-102.980491
37305,-9.732613,-0.485549,-0.987183,-0.507712,0.385538,-0.038882,0.267795,0.016065,-0.652092,-0.097342,-0.004525,-0.009870,0.999994,0.001339,0.000080,-0.003260,0.678864,-0.163325,0.711352,0.080290,-121.307562,82.770339,-101.428954
37306,-9.755018,0.016288,-0.769589,-0.496183,0.994014,-0.090639,0.327561,0.032233,-0.707154,-0.097550,0.000520,-0.007680,0.999992,0.001638,0.000161,-0.003536,0.679317,-0.164710,0.710993,0.076735,-119.653926,82.418038,-99.950135
37307,-9.994735,0.573097,-0.567483,-0.511252,1.682544,0.059109,0.320194,0.025280,-0.771360,-0.099925,0.006125,-0.005653,0.999991,0.001601,0.000126,-0.003857,0.679799,-0.166336,0.710547,0.072999,-118.000375,82.030823,-98.465938
37308,-10.101527,1.005591,-0.443780,-0.562524,2.218781,0.087259,0.271776,0.004801,-0.850341,-0.100971,0.010491,-0.004421,0.999990,0.001359,0.000024,-0.004252,0.680333,-0.168403,0.709931,0.069178,-116.306914,81.602346,-96.911859
37309,-10.152082,1.247939,-0.523379,-0.746866,2.510719,0.088510,0.237224,-0.021967,-0.953259,-0.101459,0.012969,-0.005230,0.999988,0.001186,-0.000110,-0.004766,0.680951,-0.170934,0.709114,0.065154,-114.547617,81.121387,-95.269400
37310,-10.427772,1.723999,-1.210796,-1.585342,2.869119,0.308101,0.148477,-0.040139,-1.078618,-0.104180,0.017811,-0.012116,0.999985,0.000742,-0.000201,-0.005393,0.681583,-0.174205,0.708077,0.061029,-112.782871,80.570986,-93.567567
37311,-11.267319,2.414782,-1.913961,-2.515645,3.533847,1.032986,0.045687,-0.083888,-1.235571,-0.112513,0.024848,-0.019181,0.999981,0.000228,-0.000419,-0.006178,0.682303,-0.178359,0.706702,0.056773,-110.954793,79.938714,-91.738842
37312,-10.862427,2.836131,-2.162980,-2.949255,3.898859,0.522359,0.106355,-0.126698,-1.367237,-0.108413,0.029114,-0.021683,0.999976,0.000532,-0.000633,-0.006836,0.683239,-0.182753,0.705049,0.051887,-109.055012,79.233994,-89.868750
37313,-10.137238,3.203171,-1.834428,-2.816251,4.336406,-0.344249,0.109246,-0.087842,-1.439999,-0.101130,0.032770,-0.018371,0.999974,0.000546,-0.000439,-0.007200,0.684024,-0.187394,0.703430,0.046705,-107.430924,78.472888,-88.276796
37314,-10.411632,3.070177,-0.862282,-1.904685,4.716140,-0.184638,0.256935,0.024911,-1.563948,-0.103873,0.031526,-0.008570,0.999969,0.001285,0.000125,-0.007820,0.684541,-0.191979,0.702075,0.040474,-106.118170,77.617698,-87.084983
37315,-11.162398,3.373358,0.123628,-1.122498,5.631373,0.337092,0.369569,0.079915,-1.769768,-0.111319,0.034717,0.001344,0.999959,0.001848,0.000400,-0.008849,0.684966,-0.196900,0.700684,0.033085,-104.904672,76.635058,-86.056968
37316,-11.759654,3.282228,0.121550,-1.150137,5.873177,0.829464,0.251213,0.154117,-1.964114,-0.117266,0.033973,0.001348,0.999951,0.001256,0.000771,-0.009820,0.684985,-0.202898,0.699274,0.025374,-103.965689,75.530510,-85.237472
37317,-12.890572,2.422291,0.564754,-0.527249,5.729742,1.987266,0.400269,0.232669,-2.115741,-0.128633,0.025573,0.005848,0.999941,0.002001,0.001163,-0.010578,0.684827,-0.208908,0.697923,0.016535,-103.154319,74.327441,-84.634264
37318,-13.056939,0.482166,0.588737,0.052854,4.262050,2.552123,0.476455,0.273277,-2.115312,-0.130501,0.006188,0.006079,0.999940,0.002382,0.001366,-0.010576,0.684528,-0.214627,0.696636,0.007395,-102.476186,73.118698,-84.211820
37319,-11.842863,-0.878414,-0.994061,-1.037942,2.434038,1.806555,0.582030,0.356759,-1.882602,-0.118522,-0.007640,-0.009753,0.999950,0.002910,0.001784,-0.009413,0.683967,-0.219161,0.695813,-0.001413,-102.042317,72.027830,-84.106124
37320,-10.776871,-1.014844,-1.605656,-1.565945,1.999580,0.831364,1.030369,0.546873,-1.427695,-0.107881,-0.009297,-0.015811,0.999958,0.005152,0.002734,-0.007138,0.683178,-0.220549,0.696073,-0.010425,-101.857661,71.170719,-84.533280
37321,-10.450129,0.523092,-0.384408,-0.825026,3.771808,-0.080357,1.577756,0.536155,-0.872449,-0.104487,0.005715,-0.003520,0.999956,0.007889,0.002681,-0.004362,0.682998,-0.218126,0.696819,-0.019442,-101.523276,70.625530,-85.135579
37322,-10.270647,2.008533,1.324969,0.466437,5.582235,-0.874209,1.979473,0.443295,-0.333233,-0.102643,0.020122,0.013676,0.999947,0.009897,0.002216,-0.001666,0.683568,-0.212429,0.697732,-0.027904,-100.981661,70.396990,-85.763714
37323,-10.128024,4.359227,2.118724,0.731611,7.871940,-1.839940,2.094288,0.245804,0.044657,-0.101263,0.043344,0.021766,0.999944,0.010471,0.001229,0.000223,0.684927,-0.205036,0.698277,-0.035271,-100.176980,70.402801,-86.182787
37324,-9.520465,5.397839,1.617341,0.130496,8.473827,-2.701596,1.557956,0.183852,0.481968,-0.095319,0.053620,0.016680,0.999966,0.007790,0.000919,0.002410,0.685970,-0.197932,0.699094,-0.039189,-99.706076,70.665427,-86.629715
37325,-9.654754,4.975541,1.209449,-0.071604,7.992691,-2.359944,0.897803,0.311315,0.916727,-0.096755,0.049257,0.012467,0.999978,0.004489,0.001557,0.004584,0.685959,-0.191551,0.700866,-0.039445,-99.951508,71.159007,-87.433257
37326,-10.273349,3.676944,1.148244,0.225076,6.897197,-1.282966,0.546908,0.327304,1.264372,-0.102944,0.036087,0.011750,0.999975,0.002735,0.001637,0.006322,0.685595,-0.185124,0.703064,-0.037275,-100.568609,71.848027,-88.414027
37327,-10.272011,2.189243,1.531003,0.983388,5.472712,-0.772169,0.360394,0.243332,1.526595,-0.102864,0.021080,0.015474,0.999969,0.001802,0.001217,0.007633,0.685360,-0.178438,0.705209,-0.033489,-101.301717,72.686935,-89.399978
37328,-9.805351,0.910943,1.700166,1.471784,4.027233,-0.786167,0.176715,0.159203,1.713921,-0.098113,0.008254,0.017087,0.999963,0.000884,0.000796,0.008569,0.685245,-0.171701,0.707217,-0.028314,-102.148115,73.640092,-90.389685
37329,-9.428556,0.171525,1.694914,1.663987,3.063803,-0.888486,0.164279,0.068822,1.884092,-0.094290,0.000813,0.016983,0.999955,0.000821,0.000344,0.009420,0.685402,-0.164425,0.709002,-0.022454,-103.010961,74.691735,-91.383872
37330,-9.285400,-0.207409,1.606145,1.692229,2.474027,-0.876587,0.114792,-0.021278,2.034237,-0.092828,-0.003028,0.016050,0.999948,0.000574,-0.000106,0.010171,0.685793,-0.156757,0.710539,-0.015804,-103.924948,75.838603,-92.396547
37331,-9.252829,-0.253514,1.543679,1.673437,2.221313,-0.850317,0.062558,-0.094642,2.155770,-0.092501,-0.003537,0.015392,0.999942,0.000313,-0.000473,0.010779,0.686332,-0.148848,0.711843,-0.008516,-104.940081,77.055031,-93.477086
37332,-9.558798,0.082529,1.815462,1.907141,2.460870,-0.594423,0.020758,-0.133651,2.244591,-0.095601,-0.000249,0.018091,0.999937,0.000104,-0.000668,0.011223,0.686903,-0.140726,0.712994,-0.000720,-106.162425,78.325375,-94.739923
37333,-9.997109,0.487134,1.863794,1.908296,2.732949,-0.193005,-0.205797,-0.201476,2.300459,-0.100037,0.003740,0.018533,0.999933,-0.001029,-0.001007,0.011502,0.687461,-0.133189,0.713858,0.008100,-107.673504,79.626849,-96.158703
37334,-10.065875,0.072640,1.811356,1.963779,2.112204,-0.000148,-0.468288,-0.260911,2.341698,-0.100682,-0.000410,0.017982,0.999928,-0.002341,-0.001305,0.011708,0.687964,-0.126359,0.714432,0.018061,-109.613479,80.957138,-97.854136
37335,-10.146910,-0.605478,1.620843,1.938265,1.203004,0.224491,-0.630794,-0.312768,2.365434,-0.101414,-0.007204,0.016071,0.999924,-0.003154,-0.001564,0.011827,0.688438,-0.120007,0.714723,0.028690,-112.107298,82.294508,-100.008874
37336,-10.101393,-1.050071,1.220012,1.658415,0.449577,0.270574,-0.748474,-0.385802,2.385798,-0.100903,-0.011660,0.012048,0.999920,-0.003742,-0.001929,0.011929,0.688998,-0.113931,0.714641,0.039875,-115.352330,83.646563,-102.845736
37337,-10.109656,-1.518245,1.391743,1.946518,-0.202437,0.317103,-0.804321,-0.441002,2.392065,-0.100936,-0.016335,0.013759,0.999918,-0.004021,-0.002205,0.011960,0.689602,-0.108021,0.714248,0.051279,-119.951484,84.985698,-107.003699
37338,-10.145673,-2.034576,1.249953,1.943003,-0.969456,0.381269,-0.902578,-0.532623,2.393864,-0.101237,-0.021503,0.012325,0.999915,-0.004513,-0.002663,0.011969,0.690372,-0.102377,0.713389,0.063108,-127.099625,86.311163,-113.652880
37339,-9.770318,-2.970242,0.908370,1.838735,-2.211209,0.027621,-0.905277,-0.580589,2.355871,-0.097371,-0.030810,0.008938,0.999916,-0.004526,-0.002903,0.011779,0.691197,-0.096870,0.712227,0.074803,-140.595058,87.529742,-126.647011
37340,-9.289137,-3.795920,0.516426,1.670753,-3.341939,-0.485332,-0.919095,-0.591395,2.292057,-0.092463,-0.038997,0.005068,0.999919,-0.004595,-0.002957,0.011460,0.691971,-0.091594,0.710866,0.086344,-171.699552,88.410896,-157.241771
37341,-9.025427,-4.394596,0.161317,1.501693,-4.217573,-0.826607,-0.908129,-0.598680,2.246566,-0.089758,-0.044949,0.001547,0.999922,-0.004541,-0.002993,0.011233,0.692677,-0.086449,0.709358,0.097653,138.630592,88.371724,153.592099
37342,-8.803285,-4.356024,0.035648,1.399328,-4.405035,-1.146219,-0.942442,-0.623478,2.210832,-0.087545,-0.044528,0.000291,0.999923,-0.004712,-0.003117,0.011054,0.693374,-0.081502,0.707611,0.108979,109.648871,87.492213,125.134020
37343,-8.914690,-4.652593,-0.237298,1.260217,-4.955029,-1.150697,-1.128276,-0.602776,2.172134,-0.088627,-0.047504,-0.002374,0.999921,-0.005641,-0.003014,0.010860,0.693824,-0.077356,0.705717,0.120780,97.258039,86.351272,113.373867
37344,-9.415129,-4.491932,-0.900255,0.638127,-5.201917,-0.748401,-1.030619,-0.596931,2.029801,-0.093662,-0.045918,-0.009048,0.999931,-0.005153,-0.002985,0.010149,0.694283,-0.073347,0.703730,0.131742,90.844491,85.205440,107.536020
37345,-9.880090,-3.985386,-1.093076,0.364155,-4.995698,-0.346904,-1.043688,-0.528089,1.837797,-0.098400,-0.040817,-0.010980,0.999941,-0.005218,-0.002640,0.009189,0.694521,-0.070113,0.701822,0.142021,87.158991,84.140964,104.435747
37346,-10.410494,-4.045972,-1.674256,-0.110172,-5.455118,0.075565,-1.196364,-0.460615,1.622488,-0.103733,-0.041402,-0.016736,0.999947,-0.005982,-0.002303,0.008112,0.694552,-0.068190,0.699874,0.152065,84.654864,83.186046,102.606755
37347,-10.742749,-4.872290,-2.339864,-0.416804,-6.642546,0.203320,-1.275514,-0.383580,1.406890,-0.107036,-0.049626,-0.023290,0.999953,-0.006377,-0.001918,0.007034,0.694371,-0.067363,0.697999,0.161579,82.867857,82.354513,101.542613
37348,-10.911217,-6.163236,-2.598426,-0.168665,-8.098037,0.096033,-1.098165,-0.289446,1.141011,-0.108720,-0.062395,-0.025801,0.999968,-0.005491,-0.001447,0.005705,0.694088,-0.066908,0.696439,0.169520,81.662785,81.675949,100.961927
37349,-10.818413,-6.908006,-2.695880,0.052098,-8.915997,-0.193579,-0.733574,-0.219557,0.835915,-0.107864,-0.069630,-0.026823,0.999984,-0.003668,-0.001098,0.004180,0.693901,-0.066317,0.695304,0.175087,80.880977,81.177030,100.596821
37350,-10.329870,-7.113762,-2.625440,0.223068,-9.077504,-0.770929,-0.435583,-0.109247,0.521252,-0.103098,-0.071464,-0.026155,0.999994,-0.002178,-0.000546,0.002606,0.693696,-0.065874,0.694684,0.178496,80.520065,80.864416,100.484935
37351,-9.843637,-6.822781,-1.853714,0.861670,-8.502357,-1.219017,-0.134624,-0.031662,0.187245,-0.098369,-0.068332,-0.018507,0.999999,-0.000673,-0.000158,0.000936,0.693607,-0.065623,0.694495,0.179664,80.425098,80.749140,100.467344
37352,-9.470805,-6.736644,-1.134111,1.502591,-8.119862,-1.555887,0.024210,0.053651,-0.173960,-0.094770,-0.067283,-0.011324,1.000000,0.000121,0.000268,-0.000870,0.693604,-0.066151,0.694618,0.179005,80.499754,80.845534,100.529792
37353,-9.443695,-6.295767,-0.933296,1.537429,-7.609233,-1.480421,-0.046131,0.108718,-0.536871,-0.094611,-0.062706,-0.009267,0.999996,-0.000231,0.000544,-0.002684,0.693702,-0.068234,0.694754,0.177308,80.523672,81.152731,100.581243
37354,-9.497082,-6.138225,-1.037042,1.394087,-7.444933,-1.352404,-0.367740,0.235226,-0.859158,-0.095245,-0.060992,-0.010146,0.999988,-0.001839,0.001176,-0.004296,0.693533,-0.072666,0.694916,0.175565,80.633274,81.654149,100.906102
37355,-12.682550,-5.608354,-3.921083,-1.363886,-8.294783,1.892402,-1.023333,0.459878,-1.236244,-0.127259,-0.055496,-0.038634,0.999965,-0.005117,0.002299,-0.006181,0.692638,-0.080872,0.695120,0.174702,81.080102,82.388910,101.949814
37356,-15.123731,-3.085132,-7.942233,-5.857223,-7.559115,4.674296,-1.229840,0.841856,-1.401197,-0.151783,-0.030274,-0.078597,0.999948,-0.006149,0.004209,-0.007006,0.690422,-0.090701,0.696333,0.173812,83.268809,83.244749,104.866879
37357,-12.927090,0.801606,1.508200,1.543974,-0.106670,3.134490,0.747739,0.989259,-0.814136,-0.129160,0.008484,0.015752,0.999972,0.003739,0.004946,-0.004071,0.688019,-0.091773,0.699991,0.167986,88.327407,83.745709,109.527442
