// General information: 
//  MT Manager version: 2022.0.0 
//  XDA version: 2022.0.0 build 7085 rev 119802 built on 2022-11-08
// Device information: 
//  DeviceId: 00B472EC
//  ProductCode: MTW2-3A7G6
//  Firmware Version: 4.4.0
//  Hardware Version: 2.0.0
// Device settings: 
//  Filter Profile: human(46.1)
//  Option Flags: Orientation Smoother Disabled, Position/Velocity Smoother Disabled, Continuous Zero Rotation Update Disabled, AHS Disabled, ICC Disabled
// Coordinate system: ENU
PacketCounter,Acc_X,Acc_Y,Acc_Z,FreeAcc_E,FreeAcc_N,FreeAcc_U,Gyr_X,Gyr_Y,Gyr_Z,VelInc_X,VelInc_Y,VelInc_Z,OriInc_q0,OriInc_q1,OriInc_q2,OriInc_q3,Quat_q0,Quat_q1,Quat_q2,Quat_q3,Roll,Pitch,Yaw
27116,-9.534380,-1.531557,-0.777173,0.028100,0.166061,-0.126320,-0.004632,0.004484,0.011451,-0.095343,-0.015321,-0.007769,1.000000,-0.000023,0.000022,0.000057,0.088694,0.704227,0.198660,-0.675819,-116.246602,80.787158,87.277619
27117,-9.510203,-1.523179,-0.754386,0.009775,0.155426,-0.153036,-0.001704,0.008120,0.013324,-0.095101,-0.015238,-0.007540,1.000000,-0.000009,0.000041,0.000067,0.088772,0.704260,0.198574,-0.675800,-116.292507,80.799012,87.230814
27118,-9.520429,-1.479405,-0.808536,0.075758,0.137369,-0.145406,-0.000538,0.007051,0.011449,-0.095204,-0.014800,-0.008082,1.000000,-0.000003,0.000035,0.000057,0.088851,0.704285,0.198507,-0.675783,-116.331988,80.809636,87.192152
27119,-9.523803,-1.444306,-0.714359,0.002614,0.070011,-0.153793,0.005153,0.004362,0.011809,-0.095237,-0.014448,-0.007142,1.000000,0.000026,0.000022,0.000059,0.088932,0.704299,0.198430,-0.675780,-116.360495,80.821750,87.163799
27120,-9.557623,-1.402521,-0.743336,0.044561,0.040200,-0.124335,-0.001897,0.010368,0.015168,-0.095576,-0.014033,-0.007428,1.000000,-0.000009,0.000052,0.000076,0.089025,0.704339,0.198356,-0.675749,-116.417353,80.833431,87.108327
27121,-9.538459,-1.372878,-0.747336,0.059163,0.019976,-0.147202,0.001807,0.005014,0.009673,-0.095384,-0.013733,-0.007471,1.000000,0.000009,0.000025,0.000048,0.089120,0.704348,0.198310,-0.675740,-116.446750,80.844138,87.082835
27122,-9.566806,-1.350287,-0.725327,0.046930,-0.012054,-0.123993,-0.007229,0.008357,0.007176,-0.095668,-0.013507,-0.007249,1.000000,-0.000036,0.000042,0.000036,0.089207,0.704371,0.198281,-0.675713,-116.487817,80.852221,87.046455
27123,-9.590798,-1.354236,-0.725298,0.044218,-0.010813,-0.099740,-0.013490,0.005479,0.005140,-0.095908,-0.013545,-0.007249,1.000000,-0.000067,0.000027,0.000026,0.089313,0.704378,0.198275,-0.675693,-116.520046,80.860538,87.022363
27124,-9.586482,-1.380192,-0.747871,0.053816,0.023468,-0.098706,-0.022124,0.004432,0.000933,-0.095865,-0.013803,-0.007475,1.000000,-0.000111,0.000022,0.000005,0.089436,0.704374,0.198317,-0.675669,-116.547318,80.866419,87.008600
27125,-9.558162,-1.401884,-0.771172,0.066229,0.057782,-0.121933,-0.019793,0.002292,-0.002819,-0.095582,-0.014018,-0.007709,1.000000,-0.000099,0.000011,-0.000014,0.089522,0.704366,0.198339,-0.675660,-116.560291,80.871452,87.004539
27126,-9.528409,-1.413671,-0.697323,-0.006303,0.044793,-0.154879,-0.011395,0.005278,-0.002691,-0.095284,-0.014136,-0.006970,1.000000,-0.000057,0.000026,-0.000013,0.089593,0.704366,0.198357,-0.675645,-116.578372,80.875258,86.993859
27127,-9.533348,-1.392635,-0.724610,0.026736,0.036415,-0.151053,-0.005927,0.004629,-0.004439,-0.095334,-0.013924,-0.007243,1.000000,-0.000030,0.000023,-0.000022,0.089638,0.704366,0.198355,-0.675640,-116.588562,80.878871,86.987109
27128,-9.567237,-1.355098,-0.777794,0.089923,0.018443,-0.119140,-0.006149,0.006671,-0.006544,-0.095673,-0.013548,-0.007774,1.000000,-0.000031,0.000033,-0.000033,0.089676,0.704369,0.198370,-0.675627,-116.601945,80.880345,86.978143
27129,-9.557369,-1.401107,-0.749247,0.045337,0.050576,-0.124387,-0.006955,0.003043,-0.012304,-0.095575,-0.014005,-0.007491,1.000000,-0.000035,0.000015,-0.000062,0.089702,0.704355,0.198400,-0.675630,-116.595063,80.880349,86.989649
27130,-9.528871,-1.423964,-0.772443,0.057734,0.084789,-0.147637,-0.011465,0.004766,-0.012562,-0.095290,-0.014234,-0.007721,1.000000,-0.000057,0.000024,-0.000063,0.089740,0.704343,0.198454,-0.675621,-116.595796,80.879228,86.996580
27131,-9.552264,-1.427200,-0.747994,0.033792,0.074239,-0.125815,-0.004040,0.006575,-0.012401,-0.095524,-0.014266,-0.007477,1.000000,-0.000020,0.000033,-0.000062,0.089749,0.704342,0.198474,-0.675615,-116.598132,80.878245,86.996684
27132,-9.527726,-1.421294,-0.725220,0.015445,0.063464,-0.152495,-0.008356,0.006052,-0.014503,-0.095279,-0.014206,-0.007249,1.000000,-0.000042,0.000030,-0.000073,0.089769,0.704335,0.198524,-0.675605,-116.598087,80.875799,87.002599
27133,-9.551791,-1.429652,-0.749349,0.033973,0.076520,-0.125833,-0.013616,0.004554,-0.012623,-0.095519,-0.014291,-0.007490,1.000000,-0.000068,0.000023,-0.000063,0.089808,0.704324,0.198572,-0.675597,-116.598941,80.875156,87.009009
27134,-9.526927,-1.421111,-0.702434,-0.005608,0.053932,-0.154925,-0.014034,0.008842,-0.012883,-0.095270,-0.014205,-0.007019,1.000000,-0.000070,0.000044,-0.000064,0.089851,0.704325,0.198637,-0.675571,-116.613637,80.872825,87.003288
27135,-9.565883,-1.484101,-0.745700,0.007899,0.121624,-0.104449,-0.019502,0.009488,-0.011132,-0.095660,-0.014836,-0.007451,1.000000,-0.000098,0.000047,-0.000056,0.089912,0.704329,0.198703,-0.675539,-116.636324,80.871698,86.991141
27136,-9.555630,-1.527423,-0.693542,-0.057927,0.141850,-0.112141,-0.013008,0.010427,-0.005015,-0.095557,-0.015272,-0.006929,1.000000,-0.000065,0.000052,-0.000025,0.089976,0.704344,0.198738,-0.675505,-116.668054,80.872988,86.967572
27137,-9.536188,-1.499609,-0.697813,-0.043346,0.121561,-0.134981,-0.012839,0.007979,-0.010806,-0.095363,-0.014991,-0.006973,1.000000,-0.000064,0.000040,-0.000054,0.090055,0.704336,0.198820,-0.675479,-116.683206,80.872330,86.965848
27138,-9.536342,-1.502765,-0.723064,-0.022035,0.134473,-0.132586,-0.012799,0.008282,-0.004883,-0.095364,-0.015026,-0.007226,1.000000,-0.000064,0.000041,-0.000024,0.090120,0.704343,0.198853,-0.675453,-116.708205,80.874236,86.948976
27139,-9.483807,-1.398729,-0.784677,0.075810,0.073539,-0.194808,-0.021600,0.009681,-0.003294,-0.094839,-0.013987,-0.007841,1.000000,-0.000108,0.000048,-0.000016,0.090224,0.704352,0.198908,-0.675413,-116.745334,80.877065,86.925022
27140,-9.497578,-1.446122,-0.732111,0.007179,0.093836,-0.178249,-0.030818,0.015369,-0.001960,-0.094976,-0.014461,-0.007312,1.000000,-0.000154,0.000077,-0.000010,0.090356,0.704379,0.198994,-0.675343,-116.807956,80.878634,86.880503
27141,-9.535992,-1.502771,-0.727656,-0.021790,0.137934,-0.132634,-0.029599,0.014704,0.004063,-0.095360,-0.015031,-0.007267,1.000000,-0.000148,0.000074,0.000020,0.090512,0.704407,0.199057,-0.675274,-116.877498,80.883904,86.829001
27142,-9.579449,-1.537863,-0.749962,-0.017808,0.172414,-0.083183,-0.031972,0.016537,0.001902,-0.095795,-0.015381,-0.007489,1.000000,-0.000160,0.000083,0.000010,0.090660,0.704441,0.199134,-0.675196,-116.950805,80.887126,86.774330
27143,-9.522414,-1.578037,-0.772986,-0.014337,0.227931,-0.132196,-0.019789,0.014784,0.008372,-0.095224,-0.015785,-0.007721,1.000000,-0.000099,0.000074,0.000042,0.090785,0.704481,0.199137,-0.675136,-117.021808,80.894519,86.713880
27144,-9.497842,-1.567525,-0.727125,-0.053919,0.205298,-0.161274,-0.024509,0.018650,0.007993,-0.094978,-0.015680,-0.007260,1.000000,-0.000123,0.000093,0.000040,0.090925,0.704531,0.199169,-0.675056,-117.107602,80.900275,86.642233
27145,-9.473946,-1.561470,-0.730140,-0.051040,0.206358,-0.185551,-0.029928,0.019692,0.017646,-0.094739,-0.015624,-0.007290,1.000000,-0.000150,0.000098,0.000088,0.091119,0.704591,0.199183,-0.674963,-117.215753,80.911079,86.551206
27146,-9.483445,-1.630395,-0.676229,-0.131403,0.248022,-0.170467,-0.030075,0.022333,0.027399,-0.094833,-0.016318,-0.006749,1.000000,-0.000150,0.000112,0.000137,0.091341,0.704670,0.199166,-0.674855,-117.348657,80.925707,86.435085
27147,-9.469739,-1.698851,-0.672015,-0.166498,0.313296,-0.174857,-0.035729,0.025320,0.032985,-0.094695,-0.017005,-0.006705,1.000000,-0.000179,0.000127,0.000165,0.091593,0.704764,0.199140,-0.674731,-117.503946,80.942850,86.298252
27148,-9.490442,-1.849618,-0.683824,-0.221159,0.454620,-0.132729,-0.024890,0.027063,0.047144,-0.094901,-0.018519,-0.006823,1.000000,-0.000124,0.000135,0.000236,0.091858,0.704881,0.199038,-0.674603,-117.682845,80.966149,86.132561
27149,-9.478414,-1.925597,-0.777077,-0.171358,0.567147,-0.127592,-0.015231,0.029770,0.061215,-0.094779,-0.019286,-0.007755,1.000000,-0.000076,0.000149,0.000306,0.092143,0.705023,0.198860,-0.674468,-117.889367,80.996200,85.934366
27150,-9.575645,-1.939856,-0.801358,-0.161253,0.580555,-0.028254,0.010870,0.030825,0.075969,-0.095750,-0.019434,-0.008000,1.000000,0.000054,0.000154,0.000380,0.092376,0.705198,0.198538,-0.674348,-118.111001,81.032885,85.704692
27151,-9.572065,-1.836866,-0.862462,-0.069008,0.519801,-0.041946,0.021145,0.027091,0.090441,-0.095714,-0.018411,-0.008614,1.000000,0.000106,0.000135,0.000452,0.092627,0.705378,0.198126,-0.674246,-118.341768,81.078139,85.459883
27152,-9.500575,-1.804496,-0.769840,-0.145454,0.473249,-0.124310,0.033712,0.033219,0.102495,-0.094998,-0.018092,-0.007686,1.000000,0.000169,0.000166,0.000512,0.092866,0.705597,0.197635,-0.674128,-118.608524,81.127230,85.171346
27153,-9.501435,-1.672855,-0.808950,-0.062690,0.379286,-0.138893,0.040664,0.030344,0.118827,-0.095006,-0.016783,-0.008078,1.000000,0.000203,0.000152,0.000594,0.093138,0.705826,0.197056,-0.674021,-118.893957,81.185404,84.859532
27154,-9.562729,-1.467746,-0.756513,-0.035251,0.174170,-0.110070,0.034246,0.030030,0.124635,-0.095619,-0.014736,-0.007553,1.000000,0.000171,0.000150,0.000623,0.093453,0.706056,0.196483,-0.673904,-119.196798,81.246026,84.534261
27155,-9.581622,-1.352885,-0.695656,-0.051920,0.054421,-0.111345,0.019019,0.031051,0.130051,-0.095808,-0.013590,-0.006943,1.000000,0.000095,0.000155,0.000650,0.093843,0.706286,0.195944,-0.673766,-119.525886,81.309115,84.191747
27156,-9.573093,-1.269263,-0.754814,0.028609,0.014953,-0.126418,-0.000333,0.029333,0.131495,-0.095724,-0.012756,-0.007534,1.000000,-0.000002,0.000147,0.000657,0.094304,0.706503,0.195462,-0.673613,-119.868277,81.372781,83.846620
27157,-9.559162,-1.202012,-0.738844,0.033739,-0.038581,-0.150096,-0.012263,0.029303,0.131132,-0.095585,-0.012083,-0.007374,1.000000,-0.000061,0.000147,0.000656,0.094816,0.706710,0.195031,-0.673449,-120.221536,81.436227,83.499067
27158,-9.575698,-1.241527,-0.736486,0.007561,0.005382,-0.128799,-0.018911,0.030853,0.130877,-0.095750,-0.012479,-0.007349,1.000000,-0.000095,0.000154,0.000654,0.095339,0.706923,0.194614,-0.673273,-120.588735,81.498499,83.139733
27159,-9.581663,-1.207674,-0.766378,0.040626,-0.002995,-0.124942,-0.024414,0.031134,0.124764,-0.095810,-0.012137,-0.007647,1.000000,-0.000122,0.000156,0.000624,0.095853,0.707129,0.194228,-0.673095,-120.952639,81.557664,82.785548
27160,-9.627016,-1.233420,-0.814621,0.065838,0.043420,-0.073173,-0.020347,0.033178,0.114918,-0.096264,-0.012390,-0.008129,1.000000,-0.000102,0.000166,0.000575,0.096325,0.707332,0.193874,-0.672916,-121.306715,81.610741,82.440421
27161,-9.608712,-1.196336,-0.845108,0.101690,0.034891,-0.093572,-0.016623,0.028209,0.117378,-0.096081,-0.012020,-0.008437,1.000000,-0.000083,0.000141,0.000587,0.096800,0.707521,0.193497,-0.672757,-121.651324,81.666461,82.103145
27162,-9.566080,-1.152904,-0.851315,0.119100,0.014333,-0.140593,-0.001014,0.022736,0.110342,-0.095655,-0.011582,-0.008502,1.000000,-0.000005,0.000114,0.000552,0.097198,0.707694,0.193089,-0.672636,-121.958839,81.719863,81.793975
27163,-9.527328,-1.084129,-0.835223,0.127037,-0.039367,-0.188488,0.014993,0.024762,0.100913,-0.095269,-0.010889,-0.008341,1.000000,0.000075,0.000124,0.000505,0.097499,0.707873,0.192651,-0.672529,-122.247490,81.768187,81.493122
27164,-9.521741,-0.982549,-0.920366,0.240532,-0.088374,-0.199657,0.021409,0.024842,0.091221,-0.095214,-0.009868,-0.009193,1.000000,0.000107,0.000124,0.000456,0.097751,0.708045,0.192236,-0.672431,-122.515913,81.811240,81.210542
27165,-9.618557,-0.991221,-0.919819,0.229450,-0.086579,-0.102637,0.014115,0.020456,0.081242,-0.096182,-0.009951,-0.009189,1.000000,0.000071,0.000102,0.000406,0.098000,0.708188,0.191877,-0.672346,-122.754806,81.850895,80.961904
27166,-9.614971,-1.007635,-0.919057,0.217803,-0.064111,-0.104129,0.010168,0.015584,0.077392,-0.096147,-0.010113,-0.009184,1.000000,0.000051,0.000078,0.000387,0.098254,0.708309,0.191544,-0.672276,-122.973721,81.889829,80.735899
27167,-9.533990,-1.183946,-0.902498,0.129629,0.107541,-0.164640,0.009329,0.011770,0.067607,-0.095336,-0.011871,-0.009020,1.000000,0.000047,0.000059,0.000338,0.098480,0.708407,0.191243,-0.672225,-123.159705,81.925368,80.543167
27168,-9.526932,-1.233135,-0.971581,0.169919,0.186845,-0.160576,0.020070,0.012414,0.062010,-0.095266,-0.012360,-0.009711,1.000000,0.000100,0.000062,0.000310,0.098651,0.708508,0.190930,-0.672183,-123.331917,81.957713,80.358641
27169,-9.514086,-1.286981,-0.843770,0.028675,0.192919,-0.176918,0.035328,0.011584,0.062658,-0.095137,-0.012898,-0.008434,1.000000,0.000177,0.000058,0.000313,0.098770,0.708614,0.190558,-0.672159,-123.495692,81.990897,80.173465
27170,-9.575300,-1.217958,-0.850306,0.058379,0.130309,-0.123909,0.065458,0.014007,0.059716,-0.095750,-0.012205,-0.008500,1.000000,0.000327,0.000070,0.000299,0.098770,0.708740,0.190102,-0.672156,-123.644940,82.021495,79.985898
27171,-9.628418,-1.044419,-0.818633,0.095404,-0.041520,-0.093810,0.068589,0.015261,0.057805,-0.096282,-0.010469,-0.008183,1.000000,0.000343,0.000076,0.000289,0.098749,0.708870,0.189636,-0.672153,-123.792598,82.050931,79.797353
27172,-9.656261,-1.009490,-0.724187,0.019537,-0.108909,-0.077461,0.051182,0.015919,0.057119,-0.096560,-0.010121,-0.007237,1.000000,0.000256,0.000080,0.000286,0.098789,0.708993,0.189237,-0.672131,-123.953155,82.079545,79.606653
27173,-9.620963,-1.079617,-0.791362,0.050906,-0.008392,-0.099187,0.029649,0.014064,0.056394,-0.096207,-0.010822,-0.007908,1.000000,0.000148,0.000070,0.000282,0.098908,0.709096,0.188913,-0.672095,-124.118705,82.108542,79.423709
27174,-9.632873,-1.145160,-0.736196,-0.029457,0.033300,-0.084191,0.018345,0.019682,0.057655,-0.096326,-0.011479,-0.007354,1.000000,0.000092,0.000098,0.000288,0.099063,0.709215,0.188625,-0.672027,-124.314833,82.136039,79.216118
27175,-9.633570,-1.142522,-0.761901,-0.008129,0.046247,-0.081844,0.011237,0.013361,0.051734,-0.096333,-0.011450,-0.007613,1.000000,0.000056,0.000067,0.000259,0.099240,0.709301,0.188389,-0.671977,-124.480231,82.162733,79.045494
27176,-9.634247,-1.140248,-0.787226,0.013186,0.059193,-0.079501,0.015718,0.011479,0.050027,-0.096340,-0.011426,-0.007868,1.000000,0.000079,0.000057,0.000250,0.099387,0.709384,0.188133,-0.671940,-124.634265,82.189127,78.881938
27177,-9.615060,-1.112661,-0.839943,0.070292,0.062447,-0.097542,0.014372,0.014608,0.049813,-0.096148,-0.011150,-0.008393,1.000000,0.000072,0.000073,0.000249,0.099529,0.709477,0.187876,-0.671892,-124.799058,82.214508,78.707309
27178,-9.591211,-1.101680,-0.817380,0.051951,0.051521,-0.124148,0.025305,0.013168,0.046340,-0.095910,-0.011038,-0.008169,1.000000,0.000127,0.000066,0.000232,0.099628,0.709567,0.187601,-0.671859,-124.946696,82.238491,78.544684
27179,-9.607827,-1.004590,-0.852668,0.120245,-0.020900,-0.115693,0.036853,0.016976,0.038597,-0.096077,-0.010063,-0.008520,1.000000,0.000184,0.000085,0.000193,0.099650,0.709669,0.187308,-0.671830,-125.082464,82.257827,78.386166
27180,-9.616274,-0.956008,-0.883019,0.165040,-0.050658,-0.110286,0.031722,0.013093,0.034611,-0.096162,-0.009575,-0.008825,1.000000,0.000159,0.000065,0.000173,0.099686,0.709751,0.187053,-0.671809,-125.199360,82.276238,78.250872
27181,-9.636015,-0.973283,-0.808103,0.086946,-0.063460,-0.094585,0.021934,0.013245,0.032210,-0.096359,-0.009747,-0.008076,1.000000,0.000110,0.000066,0.000161,0.099747,0.709826,0.186834,-0.671782,-125.316901,82.293704,78.119975
27182,-9.600686,-1.045937,-0.875055,0.118283,0.037006,-0.116424,0.018792,0.011899,0.032163,-0.096006,-0.010474,-0.008746,1.000000,0.000094,0.000059,0.000161,0.099822,0.709895,0.186630,-0.671754,-125.432251,82.311292,77.993727
27183,-9.600748,-1.040523,-0.851569,0.097154,0.026310,-0.118767,0.013666,0.008122,0.030165,-0.096006,-0.010419,-0.008512,1.000000,0.000068,0.000041,0.000151,0.099924,0.709944,0.186459,-0.671735,-125.533267,82.329355,77.886743
27184,-9.592628,-1.081005,-0.798612,0.031319,0.046437,-0.126526,0.015785,0.007776,0.020256,-0.095925,-0.010819,-0.007983,1.000000,0.000079,0.000039,0.000101,0.099974,0.709986,0.186306,-0.671725,-125.607567,82.342710,77.803663
27185,-9.568882,-1.077636,-0.824168,0.055428,0.059189,-0.148450,0.015622,0.010134,0.024129,-0.095688,-0.010787,-0.008238,1.000000,0.000078,0.000051,0.000121,0.100043,0.710038,0.186148,-0.671704,-125.700098,82.357206,77.703514
27186,-9.589325,-1.106202,-0.846027,0.062211,0.093704,-0.123418,0.015778,0.007670,0.018264,-0.095893,-0.011070,-0.008457,1.000000,0.000079,0.000038,0.000091,0.100086,0.710078,0.186002,-0.671696,-125.769648,82.369638,77.625237
27187,-9.641606,-1.088491,-0.847927,0.068468,0.073939,-0.073375,0.020086,0.008030,0.018425,-0.096415,-0.010893,-0.008476,1.000000,0.000100,0.000040,0.000092,0.100125,0.710119,0.185850,-0.671689,-125.838784,82.382166,77.546607
27188,-9.625562,-1.035255,-0.853990,0.094838,0.032129,-0.094536,0.028865,0.006391,0.014877,-0.096255,-0.010358,-0.008538,1.000000,0.000144,0.000032,0.000074,0.100111,0.710158,0.185671,-0.671699,-125.888344,82.393432,77.480938
27189,-9.621364,-1.052894,-0.803190,0.040773,0.030942,-0.100750,0.010636,0.003684,0.012266,-0.096213,-0.010534,-0.008031,1.000000,0.000053,0.000018,0.000061,0.100150,0.710177,0.185552,-0.671705,-125.931837,82.404680,77.430650
27190,-9.597552,-1.050360,-0.828309,0.064878,0.043662,-0.122680,0.002027,0.003072,0.013947,-0.095975,-0.010510,-0.008282,1.000000,0.000010,0.000015,0.000070,0.100232,0.710191,0.185465,-0.671703,-125.983208,82.416617,77.378670
27191,-9.589773,-1.096859,-0.823578,0.041496,0.087507,-0.125802,0.000869,0.004162,0.015843,-0.095897,-0.010976,-0.008234,1.000000,0.000004,0.000021,0.000079,0.100322,0.710210,0.185372,-0.671695,-126.043983,82.429332,77.317467
27192,-9.622097,-1.196512,-0.788716,-0.032186,0.162631,-0.085870,-0.003973,0.010138,0.013301,-0.096221,-0.011972,-0.007882,1.000000,-0.000020,0.000051,0.000067,0.100416,0.710244,0.185311,-0.671662,-126.122144,82.438570,77.241932
27193,-9.570251,-1.213748,-0.812436,-0.017047,0.196484,-0.133636,0.000700,0.006415,0.017718,-0.095702,-0.012146,-0.008121,1.000000,0.000003,0.000032,0.000089,0.100518,0.710270,0.185220,-0.671644,-126.196639,82.451287,77.168153
27194,-9.606175,-1.141485,-0.795675,-0.005727,0.121948,-0.107031,0.003029,0.004447,0.017927,-0.096061,-0.011423,-0.007955,1.000000,0.000015,0.000022,0.000090,0.100608,0.710293,0.185116,-0.671635,-126.263172,82.464565,77.100304
27195,-9.614209,-1.091974,-0.801065,0.017849,0.080391,-0.103910,0.010650,0.003893,0.016274,-0.096141,-0.010927,-0.008009,1.000000,0.000053,0.000019,0.000081,0.100674,0.710314,0.184998,-0.671635,-126.319991,82.477398,77.038981
27196,-9.598127,-1.038579,-0.807087,0.044224,0.038559,-0.125034,0.006173,0.005789,0.017987,-0.095981,-0.010394,-0.008068,1.000000,0.000031,0.000029,0.000090,0.100752,0.710343,0.184884,-0.671625,-126.390025,82.490227,76.965789
27197,-9.598579,-1.042272,-0.856020,0.086755,0.063416,-0.120408,0.002026,0.003072,0.013954,-0.095985,-0.010429,-0.008559,1.000000,0.000010,0.000015,0.000070,0.100835,0.710357,0.184795,-0.671622,-126.443441,82.502411,76.911740
27198,-9.618699,-1.066292,-0.828904,0.051096,0.074272,-0.100051,-0.000135,0.002787,0.011874,-0.096186,-0.010669,-0.008288,1.000000,-0.000001,0.000014,0.000059,0.100918,0.710366,0.184723,-0.671620,-126.491169,82.513428,76.864695
27199,-9.594703,-1.061160,-0.829919,0.053995,0.075155,-0.124314,-0.007929,0.005491,0.013402,-0.095947,-0.010618,-0.008296,1.000000,-0.000040,0.000027,0.000067,0.101033,0.710382,0.184672,-0.671600,-126.556537,82.524425,76.804500
27200,-9.594998,-1.062290,-0.854499,0.075309,0.088112,-0.122012,-0.007400,-0.000844,0.015787,-0.095949,-0.010631,-0.008545,1.000000,-0.000037,-0.000004,0.000079,0.101157,0.710379,0.184608,-0.671601,-126.606191,82.538469,76.759714
27201,-9.559282,-1.129134,-0.847489,0.042956,0.153038,-0.151021,0.000026,0.000426,0.008003,-0.095592,-0.011295,-0.008475,1.000000,0.000000,0.000002,0.000040,0.101224,0.710379,0.184539,-0.671611,-126.636047,82.548819,76.729461
27202,-9.607570,-1.136044,-0.846427,0.037478,0.154673,-0.102533,0.007486,0.002228,0.010222,-0.096075,-0.011365,-0.008464,1.000000,0.000037,0.000011,0.000051,0.101274,0.710389,0.184446,-0.671618,-126.673687,82.559247,76.688191
27203,-9.615317,-1.084706,-0.827344,0.039866,0.101276,-0.101685,0.011788,0.002477,0.008384,-0.096153,-0.010851,-0.008273,1.000000,0.000059,0.000012,0.000042,0.101303,0.710400,0.184343,-0.671630,-126.704652,82.568950,76.650915
27204,-9.595347,-1.058772,-0.854943,0.075714,0.092624,-0.122058,0.013769,0.004802,0.008337,-0.095953,-0.010591,-0.008548,1.000000,0.000069,0.000024,0.000042,0.101322,0.710420,0.184237,-0.671635,-126.743008,82.577624,76.605295
27205,-9.603040,-1.007659,-0.836064,0.078107,0.039238,-0.121191,0.015917,0.004873,0.006419,-0.096030,-0.010079,-0.008359,1.000000,0.000080,0.000024,0.000032,0.101322,0.710441,0.184123,-0.671644,-126.775088,82.585683,76.563593
27206,-9.603080,-1.007230,-0.836119,0.078203,0.040345,-0.121196,0.004495,-0.001578,0.004293,-0.096031,-0.010074,-0.008362,1.000000,0.000022,-0.000008,0.000021,0.101367,0.710431,0.184059,-0.671665,-126.785743,82.594685,76.551266
27207,-9.575266,-1.029667,-0.858370,0.090568,0.074397,-0.144751,0.005306,0.001624,0.002140,-0.095753,-0.010297,-0.008583,1.000000,0.000027,0.000008,0.000011,0.101399,0.710430,0.184000,-0.671677,-126.801273,82.601792,76.533419
27208,-9.583631,-1.126412,-0.823345,0.019661,0.149294,-0.129196,-0.000971,-0.000841,0.006027,-0.095836,-0.011267,-0.008234,1.000000,-0.000005,-0.000004,0.000030,0.101468,0.710422,0.183950,-0.671690,-126.822320,82.611335,76.513772
27209,-9.551908,-1.172908,-0.843038,0.020259,0.204682,-0.154371,0.008611,0.000602,-0.001676,-0.095519,-0.011728,-0.008431,1.000000,0.000043,0.000003,-0.000008,0.101479,0.710416,0.183896,-0.671710,-126.822856,82.617038,76.509597
27210,-9.608085,-1.135268,-0.871184,0.059504,0.175536,-0.100389,0.011949,0.000116,0.004514,-0.096081,-0.011354,-0.008712,1.000000,0.000060,0.000001,0.000023,0.101497,0.710416,0.183807,-0.671731,-126.835939,82.625558,76.490517
27211,-9.603930,-1.153685,-0.819789,0.005418,0.174305,-0.106601,0.019749,-0.002484,0.004993,-0.096039,-0.011538,-0.008200,1.000000,0.000099,-0.000012,0.000025,0.101491,0.710411,0.183688,-0.671770,-126.836649,82.635389,76.479283
27212,-9.583675,-1.122740,-0.798134,-0.001171,0.141922,-0.131559,0.025235,-0.002900,0.009266,-0.095836,-0.011231,-0.007984,1.000000,0.000126,-0.000014,0.000046,0.101480,0.710412,0.183536,-0.671812,-126.844117,82.647123,76.458191
27213,-9.623622,-1.032876,-0.831685,0.064341,0.069863,-0.098594,0.021731,-0.000160,0.004950,-0.096236,-0.010330,-0.008318,1.000000,0.000109,-0.000001,0.000025,0.101473,0.710415,0.183419,-0.671841,-126.853295,82.656119,76.438592
27214,-9.631337,-0.981911,-0.812116,0.066725,0.016436,-0.097667,0.019929,-0.004523,0.007130,-0.096313,-0.009822,-0.008124,1.000000,0.000100,-0.000023,0.000036,0.101475,0.710406,0.183292,-0.671885,-126.852402,82.667431,76.428995
27215,-9.603425,-1.001581,-0.809647,0.057864,0.038625,-0.123537,0.012122,-0.002030,0.004648,-0.096034,-0.010018,-0.008098,1.000000,0.000061,-0.000010,0.000023,0.101490,0.710400,0.183194,-0.671916,-126.858285,82.677018,76.416081
27216,-9.599747,-1.027914,-0.831026,0.067426,0.072929,-0.122874,0.005652,-0.002670,0.002401,-0.095997,-0.010280,-0.008312,1.000000,0.000028,-0.000013,0.000012,0.101525,0.710386,0.183133,-0.671943,-126.859570,82.685525,76.412537
27217,-9.599655,-1.024981,-0.806294,0.046306,0.062196,-0.125167,0.002687,-0.006048,0.004474,-0.095996,-0.010252,-0.008066,1.000000,0.000013,-0.000030,0.000022,0.101585,0.710359,0.183075,-0.671978,-126.856195,82.696267,76.415981
27218,-9.571740,-1.044789,-0.803733,0.037432,0.084329,-0.151049,0.005825,-0.004817,0.002531,-0.095717,-0.010449,-0.008040,1.000000,0.000029,-0.000024,0.000013,0.101622,0.710338,0.183012,-0.672012,-126.850046,82.705572,76.419831
27219,-9.571930,-1.047626,-0.827455,0.058765,0.097327,-0.148779,0.010107,-0.004897,-0.005310,-0.095719,-0.010473,-0.008277,1.000000,0.000051,-0.000024,-0.000027,0.101613,0.710311,0.182956,-0.672056,-126.819628,82.711534,76.444753
27220,-9.631635,-0.981321,-0.809290,0.067344,0.023191,-0.097685,0.016404,-0.002110,-0.003191,-0.096316,-0.009811,-0.008095,1.000000,0.000082,-0.000011,-0.000016,0.101591,0.710299,0.182878,-0.672094,-126.801700,82.717284,76.454366
27221,-9.651983,-1.012413,-0.829907,0.074120,0.057846,-0.072787,0.016564,-0.004475,-0.007062,-0.096520,-0.010120,-0.008302,1.000000,0.000083,-0.000022,-0.000035,0.101561,0.710275,0.182815,-0.672141,-126.765202,82.722232,76.483043
27222,-9.627704,-1.006612,-0.805479,0.055783,0.046774,-0.099323,0.013599,-0.007852,-0.004987,-0.096277,-0.010063,-0.008059,1.000000,0.000068,-0.000039,-0.000025,0.101548,0.710240,0.182751,-0.672198,-126.723340,82.729124,76.518405
27223,-9.628573,-1.157665,-0.812641,0.003789,0.188123,-0.082601,0.012594,-0.009233,-0.008964,-0.096286,-0.011572,-0.008132,1.000000,0.000063,-0.000046,-0.000045,0.101524,0.710197,0.182698,-0.672261,-126.666699,82.734892,76.568654
27224,-9.569004,-1.228014,-0.853435,0.016613,0.276312,-0.131490,0.017084,-0.010916,-0.006666,-0.095690,-0.012276,-0.008541,1.000000,0.000085,-0.000055,-0.000033,0.101496,0.710152,0.182626,-0.672332,-126.607119,82.742052,76.619864
27225,-9.572603,-1.199250,-0.806238,-0.013972,0.232408,-0.134427,0.027878,-0.009701,-0.000248,-0.095726,-0.011991,-0.008069,1.000000,0.000139,-0.000049,-0.000001,0.101447,0.710124,0.182489,-0.672406,-126.563769,82.752050,76.647569
27226,-9.580324,-1.148931,-0.785690,-0.011581,0.178977,-0.133442,0.043307,-0.012752,0.000598,-0.095803,-0.011488,-0.007865,1.000000,0.000217,-0.000064,0.000003,0.101351,0.710093,0.182302,-0.672504,-126.501768,82.763169,76.686070
27227,-9.591967,-1.074572,-0.767616,0.002555,0.104227,-0.130803,0.046460,-0.011302,0.002666,-0.095919,-0.010745,-0.007684,1.000000,0.000232,-0.000057,0.000013,0.101258,0.710069,0.182105,-0.672597,-126.449240,82.774810,76.714380
27228,-9.596165,-1.053406,-0.792984,0.035626,0.095864,-0.126904,0.043142,-0.010494,0.002485,-0.095961,-0.010534,-0.007937,1.000000,0.000216,-0.000052,0.000012,0.101167,0.710047,0.181914,-0.672685,-126.400330,82.786021,76.739780
27229,-9.595885,-1.048096,-0.743215,-0.006712,0.073257,-0.131444,0.034177,-0.006910,0.001892,-0.095958,-0.010481,-0.007437,1.000000,0.000171,-0.000035,0.000009,0.101106,0.710032,0.181757,-0.672753,-126.368453,82.795857,76.753434
27230,-9.595969,-1.048157,-0.742039,-0.006612,0.074361,-0.131453,0.033360,-0.010219,0.002056,-0.095959,-0.010481,-0.007427,1.000000,0.000167,-0.000051,0.000010,0.101048,0.710006,0.181600,-0.672832,-126.324808,82.806772,76.779175
27231,-9.596435,-1.053553,-0.789504,0.035921,0.099226,-0.126939,0.027548,-0.005184,0.003517,-0.095964,-0.010536,-0.007899,1.000000,0.000138,-0.000026,0.000018,0.101013,0.709994,0.181460,-0.672887,-126.306889,82.816797,76.782381
27232,-9.596344,-1.050417,-0.764581,0.014806,0.088462,-0.129210,0.023089,-0.003056,0.009221,-0.095963,-0.010508,-0.007648,1.000000,0.000115,-0.000015,0.000046,0.101010,0.709993,0.181315,-0.672927,-126.314562,82.828588,76.762328
27233,-9.616840,-1.080532,-0.784839,0.021587,0.123141,-0.104366,0.026558,-0.006346,0.003549,-0.096168,-0.010806,-0.007853,1.000000,0.000133,-0.000032,0.000018,0.100979,0.709978,0.181177,-0.672986,-126.292976,82.839005,76.769778
27234,-9.592259,-1.068132,-0.711918,-0.039178,0.088283,-0.135403,0.017782,-0.004684,0.007082,-0.095922,-0.010684,-0.007122,1.000000,0.000089,-0.000023,0.000035,0.100988,0.709966,0.181058,-0.673028,-126.291955,82.850361,76.761554
27235,-9.596673,-1.049016,-0.762367,0.015097,0.091826,-0.129242,0.022272,-0.006364,0.009389,-0.095966,-0.010494,-0.007628,1.000000,0.000111,-0.000032,0.000047,0.100994,0.709954,0.180915,-0.673079,-126.289405,82.863504,76.752576
27236,-9.632778,-0.983216,-0.793233,0.068914,0.041170,-0.097756,0.021093,-0.005604,0.005279,-0.096327,-0.009834,-0.007936,1.000000,0.000105,-0.000028,0.000026,0.100987,0.709940,0.180790,-0.673129,-126.278218,82.874340,76.752686
27237,-9.656758,-0.984064,-0.767698,0.045032,0.030805,-0.075760,0.016602,-0.003925,0.002975,-0.096567,-0.009841,-0.007680,1.000000,0.000083,-0.000020,0.000015,0.100984,0.709927,0.180684,-0.673171,-126.269621,82.883756,76.752125
27238,-9.604918,-1.003004,-0.789940,0.060143,0.064386,-0.123688,0.013448,-0.005377,0.000916,-0.096049,-0.010030,-0.007903,1.000000,0.000067,-0.000027,0.000005,0.100989,0.709906,0.180600,-0.673215,-126.251770,82.892499,76.763365
27239,-9.573089,-1.046875,-0.784723,0.039493,0.107792,-0.151290,0.003508,-0.002728,0.004334,-0.095731,-0.010471,-0.007849,1.000000,0.000018,-0.000014,0.000022,0.101044,0.709891,0.180544,-0.673238,-126.259165,82.901968,76.755741
27240,-9.585821,-1.124831,-0.799666,0.022747,0.185126,-0.129822,0.004035,-0.009055,0.006746,-0.095857,-0.011251,-0.008001,1.000000,0.000020,-0.000045,0.000034,0.101105,0.709858,0.180470,-0.673283,-126.248887,82.914651,76.764784
27241,-9.578146,-1.172340,-0.793551,-0.000684,0.228905,-0.133194,0.012292,-0.004280,0.002808,-0.095781,-0.011724,-0.007938,1.000000,0.000061,-0.000021,0.000014,0.101123,0.709841,0.180387,-0.673321,-126.241369,82.923993,76.766778
27242,-9.613574,-1.098653,-0.751911,-0.010500,0.142650,-0.108422,0.023067,-0.003394,0.003232,-0.096135,-0.010987,-0.007522,1.000000,0.000115,-0.000017,0.000016,0.101100,0.709833,0.180264,-0.673365,-126.231621,82.933134,76.764298
27243,-9.628813,-0.996986,-0.713474,-0.005783,0.034711,-0.106204,0.030885,-0.005767,0.007740,-0.096288,-0.009972,-0.007139,1.000000,0.000154,-0.000029,0.000039,0.101070,0.709825,0.180100,-0.673422,-126.221459,82.945247,76.758260
27244,-9.612804,-0.947577,-0.742935,0.041835,0.004658,-0.124855,0.020102,-0.006766,0.005318,-0.096128,-0.009478,-0.007434,1.000000,0.000101,-0.000034,0.000027,0.101068,0.709806,0.179977,-0.673475,-126.206495,82.956493,76.762747
27245,-9.616784,-0.923248,-0.744920,0.053704,-0.015541,-0.123172,0.007000,-0.005681,0.004672,-0.096167,-0.009234,-0.007452,1.000000,0.000035,-0.000028,0.000023,0.101109,0.709784,0.179901,-0.673513,-126.201528,82.967212,76.764721
27246,-9.592980,-0.921693,-0.769326,0.077796,-0.002945,-0.145186,0.000371,-0.003950,0.006281,-0.095929,-0.009220,-0.007695,1.000000,0.000002,-0.000020,0.000031,0.101178,0.709765,0.179844,-0.673537,-126.211046,82.977951,76.755932
27247,-9.613689,-0.954700,-0.814031,0.105781,0.043661,-0.118152,-0.011421,-0.006339,-0.000120,-0.096137,-0.009547,-0.008143,1.000000,-0.000057,-0.000032,-0.000001,0.101268,0.709728,0.179845,-0.673563,-126.201338,82.986706,76.773122
27248,-9.622059,-1.051674,-0.777890,0.034840,0.118584,-0.102905,-0.013766,-0.004598,-0.004345,-0.096221,-0.010515,-0.007780,1.000000,-0.000069,-0.000023,-0.000022,0.101351,0.709691,0.179872,-0.673583,-126.187286,82.992751,76.796241
27249,-9.586313,-1.119810,-0.770085,0.002415,0.183292,-0.132254,-0.010429,-0.005178,-0.000146,-0.095863,-0.011198,-0.007703,1.000000,-0.000052,-0.000026,-0.000001,0.101440,0.709657,0.179874,-0.673605,-126.181260,83.001041,76.809639
27250,-9.614116,-1.096974,-0.747424,-0.009705,0.151589,-0.108557,0.001500,-0.005392,-0.001614,-0.096141,-0.010969,-0.007477,1.000000,0.000008,-0.000027,-0.000008,0.101479,0.709627,0.179839,-0.673639,-126.162925,83.008616,76.828261
27251,-9.601267,-1.015919,-0.707080,-0.013956,0.064594,-0.132191,0.011284,-0.005670,-0.001166,-0.096013,-0.010158,-0.007074,1.000000,0.000056,-0.000028,-0.000006,0.101482,0.709603,0.179765,-0.673684,-126.139602,83.016693,76.845583
27252,-9.609493,-0.973869,-0.760387,0.052101,0.046811,-0.124340,0.014421,-0.004445,-0.003109,-0.096095,-0.009737,-0.007607,1.000000,0.000072,-0.000022,-0.000016,0.101469,0.709581,0.179693,-0.673728,-126.113230,83.023255,76.864843
27253,-9.613583,-0.953112,-0.787049,0.085174,0.038509,-0.120417,0.008602,0.000479,-0.003665,-0.096136,-0.009529,-0.007871,1.000000,0.000043,0.000002,-0.000018,0.101469,0.709574,0.179640,-0.673749,-126.108090,83.028095,76.865560
27254,-9.621097,-0.903112,-0.767964,0.087599,-0.014914,-0.119236,0.000301,-0.004865,-0.009729,-0.096211,-0.009026,-0.007682,1.000000,0.000002,-0.000024,-0.000049,0.101484,0.709538,0.179639,-0.673785,-126.069879,83.031732,76.904897
27255,-9.589377,-0.950784,-0.787152,0.088156,0.040328,-0.144681,-0.007492,-0.002151,-0.008231,-0.095894,-0.009504,-0.007872,1.000000,-0.000037,-0.000011,-0.000041,0.101530,0.709509,0.179659,-0.673804,-126.050692,83.035257,76.929445
27256,-9.605646,-1.003145,-0.780848,0.061953,0.084492,-0.123854,-0.011620,-0.004537,-0.006259,-0.096057,-0.010029,-0.007810,1.000000,-0.000058,-0.000023,-0.000031,0.101599,0.709471,0.179686,-0.673826,-126.030064,83.040387,76.957948
27257,-9.597787,-1.051861,-0.775198,0.038514,0.128274,-0.127290,-0.005355,-0.002201,-0.012148,-0.095978,-0.010513,-0.007753,1.000000,-0.000027,-0.000011,-0.000061,0.101623,0.709440,0.179710,-0.673848,-125.999205,83.042174,76.992811
27258,-9.629344,-1.006268,-0.755526,0.038168,0.075270,-0.101841,-0.001054,-0.001961,-0.013980,-0.096294,-0.010056,-0.007556,1.000000,-0.000005,-0.000010,-0.000070,0.101626,0.709410,0.179730,-0.673875,-125.960953,83.042854,77.032970
27259,-9.601445,-1.030482,-0.777448,0.050465,0.109171,-0.125603,0.005584,-0.003575,-0.013588,-0.096015,-0.010298,-0.007776,1.000000,0.000028,-0.000018,-0.000068,0.101615,0.709376,0.179731,-0.673911,-125.914814,83.044285,77.078219
27260,-9.588736,-0.953269,-0.761627,0.067435,0.034001,-0.146925,0.008739,-0.002121,-0.011530,-0.095888,-0.009527,-0.007618,1.000000,0.000044,-0.000011,-0.000058,0.101591,0.709353,0.179709,-0.673946,-125.877066,83.046148,77.112219
27261,-9.608358,-0.976876,-0.709613,0.010582,0.033081,-0.128826,0.000918,0.000248,-0.016032,-0.096084,-0.009761,-0.007096,1.000000,0.000005,0.000001,-0.000080,0.101583,0.709327,0.179735,-0.673967,-125.840240,83.045134,77.150442
27262,-9.601049,-1.034631,-0.776826,0.050775,0.112487,-0.125642,-0.004209,-0.003416,-0.016033,-0.096011,-0.010339,-0.007770,1.000000,-0.000021,-0.000017,-0.000080,0.101591,0.709289,0.179772,-0.673996,-125.792574,83.045333,77.201905
27263,-9.576798,-1.032376,-0.777247,0.053624,0.113187,-0.149909,-0.001072,-0.002190,-0.017976,-0.095769,-0.010315,-0.007773,1.000000,-0.000005,-0.000011,-0.000090,0.101584,0.709254,0.179806,-0.674025,-125.743962,83.044351,77.252744
27264,-9.589183,-1.112482,-0.792630,0.036853,0.190573,-0.128647,-0.001237,0.000071,-0.016113,-0.095893,-0.011117,-0.007926,1.000000,-0.000006,0.000000,-0.000081,0.101579,0.709228,0.179835,-0.674045,-125.707679,83.043337,77.291025
27265,-9.612673,-1.112163,-0.743529,-0.008233,0.168363,-0.108832,0.006236,0.001997,-0.011887,-0.096127,-0.011116,-0.007435,1.000000,0.000031,0.000010,-0.000059,0.101558,0.709217,0.179822,-0.674063,-125.686313,83.043781,77.309529
27266,-9.632905,-1.144069,-0.764457,-0.001464,0.203119,-0.084127,0.018166,0.001792,-0.013354,-0.096330,-0.011434,-0.007645,1.000000,0.000091,0.000009,-0.000067,0.101492,0.709210,0.179776,-0.674093,-125.653043,83.043472,77.333575
27267,-9.644121,-1.067992,-0.723851,-0.008481,0.116524,-0.083351,0.020679,-0.002207,-0.010990,-0.096442,-0.010674,-0.007241,1.000000,0.000103,-0.000011,-0.000055,0.101427,0.709193,0.179709,-0.674139,-125.610589,83.045759,77.365028
27268,-9.624061,-1.044180,-0.751263,0.027372,0.107757,-0.103676,0.020329,0.002086,-0.011266,-0.096241,-0.010436,-0.007513,1.000000,0.000102,0.000010,-0.000056,0.101360,0.709189,0.179649,-0.674168,-125.582905,83.046321,77.382197
27269,-9.623938,-1.045321,-0.751257,0.027478,0.108869,-0.103689,0.020339,0.002201,-0.009264,-0.096240,-0.010448,-0.007513,1.000000,0.000102,0.000011,-0.000046,0.101301,0.709187,0.179583,-0.674197,-125.561033,83.047806,77.393717
27270,-9.579571,-1.014741,-0.755260,0.044891,0.087751,-0.150463,0.019340,0.000923,-0.011234,-0.095796,-0.010141,-0.007553,1.000000,0.000097,0.000005,-0.000056,0.101238,0.709179,0.179526,-0.674230,-125.529547,83.048768,77.415288
27271,-9.627405,-1.020953,-0.729721,0.018247,0.077898,-0.104167,0.022310,0.004412,-0.011314,-0.096275,-0.010203,-0.007296,1.000000,0.000112,0.000022,-0.000057,0.101159,0.709185,0.179457,-0.674254,-125.509857,83.048674,77.422685
27272,-9.603182,-1.018293,-0.730380,0.021120,0.078546,-0.128429,0.018351,-0.000240,-0.011202,-0.096032,-0.010177,-0.007305,1.000000,0.000092,-0.000001,-0.000056,0.101101,0.709173,0.179402,-0.674290,-125.474565,83.050035,77.448661
27273,-9.575258,-1.042258,-0.752352,0.033416,0.112411,-0.152245,0.016205,-0.000304,-0.009286,-0.095753,-0.010418,-0.007525,1.000000,0.000081,-0.000002,-0.000046,0.101060,0.709161,0.179349,-0.674323,-125.446162,83.052371,77.469212
27274,-9.578849,-1.016818,-0.730839,0.024085,0.080302,-0.152699,0.017982,0.003821,-0.015477,-0.095789,-0.010160,-0.007307,1.000000,0.000090,0.000019,-0.000077,0.100985,0.709158,0.179313,-0.674347,-125.414968,83.050385,77.491272
27275,-9.606940,-1.001117,-0.757261,0.054404,0.072453,-0.124511,0.016012,0.001611,-0.013421,-0.096070,-0.010004,-0.007573,1.000000,0.000080,0.000008,-0.000067,0.100929,0.709148,0.179277,-0.674375,-125.381992,83.050110,77.516546
27276,-9.622548,-1.048551,-0.702691,-0.014223,0.092866,-0.108161,0.013690,0.003694,-0.011647,-0.096226,-0.010479,-0.007026,1.000000,0.000068,0.000018,-0.000058,0.100882,0.709146,0.179242,-0.674394,-125.363210,83.049953,77.528579
27277,-9.674976,-1.039283,-0.752680,0.034528,0.097403,-0.053532,0.004257,-0.000337,-0.011821,-0.096750,-0.010387,-0.007527,1.000000,0.000021,-0.000002,-0.000059,0.100874,0.709126,0.179238,-0.674417,-125.334380,83.051087,77.556438
27278,-9.610847,-1.128099,-0.743121,-0.006933,0.182821,-0.109093,0.008241,0.004665,-0.005934,-0.096109,-0.011278,-0.007429,1.000000,0.000041,0.000023,-0.000030,0.100866,0.709129,0.179202,-0.674425,-125.337979,83.053277,77.549070
27279,-9.610334,-1.123155,-0.694706,-0.049241,0.160147,-0.113484,0.014060,-0.000366,-0.007365,-0.096104,-0.011228,-0.006948,1.000000,0.000070,-0.000002,-0.000037,0.100834,0.709118,0.179145,-0.674456,-125.315139,83.056554,77.564592
27280,-9.598430,-1.054142,-0.752269,0.031370,0.120626,-0.128089,0.015669,0.006021,-0.011697,-0.095985,-0.010535,-0.007521,1.000000,0.000078,0.000030,-0.000058,0.100779,0.709125,0.179105,-0.674468,-125.304010,83.055600,77.567773
27281,-9.577556,-1.018717,-0.683237,-0.017616,0.064245,-0.157132,0.014882,0.003061,-0.005532,-0.095776,-0.010184,-0.006832,1.000000,0.000074,0.000015,-0.000028,0.100752,0.709127,0.179046,-0.674486,-125.299416,83.058531,77.565285
27282,-9.605928,-1.005115,-0.734137,0.033912,0.068316,-0.126756,0.007067,0.005531,-0.008044,-0.096060,-0.010047,-0.007339,1.000000,0.000035,0.000028,-0.000040,0.100740,0.709131,0.179021,-0.674490,-125.301271,83.059448,77.560352
27283,-9.626118,-1.036730,-0.755454,0.040676,0.103140,-0.102107,0.005893,0.006397,-0.010155,-0.096262,-0.010362,-0.007552,1.000000,0.000029,0.000032,-0.000051,0.100722,0.709136,0.179005,-0.674491,-125.301852,83.059195,77.556983
27284,-9.569875,-1.077557,-0.751699,0.022759,0.145887,-0.154174,-0.000378,0.003942,-0.006277,-0.095699,-0.010773,-0.007515,1.000000,-0.000002,0.000020,-0.000031,0.100744,0.709133,0.178998,-0.674493,-125.306675,83.061464,77.553357
27285,-9.617948,-1.086020,-0.750795,0.017321,0.147983,-0.105687,0.009230,0.005829,-0.005957,-0.096180,-0.010857,-0.007506,1.000000,0.000046,0.000029,-0.000030,0.100732,0.709141,0.178960,-0.674497,-125.314672,83.063284,77.541227
27286,-9.601466,-1.032234,-0.733373,0.022541,0.094069,-0.128570,0.007872,0.008724,-0.010208,-0.096016,-0.010317,-0.007330,1.000000,0.000039,0.000044,-0.000051,0.100707,0.709154,0.178942,-0.674491,-125.322449,83.062131,77.529864
27287,-9.613058,-0.958440,-0.718079,0.036761,0.019341,-0.125407,0.009230,0.005830,-0.005955,-0.096131,-0.009581,-0.007178,1.000000,0.000046,0.000029,-0.000030,0.100698,0.709162,0.178907,-0.674494,-125.330633,83.063921,77.517916
27288,-9.620880,-0.911513,-0.724207,0.060425,-0.022175,-0.121841,0.004720,0.007262,-0.012264,-0.096210,-0.009109,-0.007239,1.000000,0.000024,0.000036,-0.000061,0.100678,0.709167,0.178906,-0.674492,-125.328997,83.062291,77.517855
27289,-9.604583,-0.861029,-0.731083,0.086846,-0.064182,-0.142517,-0.001753,0.006601,-0.014523,-0.096047,-0.008603,-0.007308,1.000000,-0.000009,0.000033,-0.000073,0.100674,0.709165,0.178933,-0.674487,-125.322989,83.059884,77.525892
27290,-9.616921,-0.943899,-0.771223,0.091260,0.025164,-0.119291,-0.014689,0.005395,-0.017043,-0.096170,-0.009431,-0.007709,1.000000,-0.000073,0.000027,-0.000085,0.100709,0.709149,0.179014,-0.674477,-125.312303,83.056639,77.546150
27291,-9.604752,-1.017282,-0.763441,0.056022,0.090215,-0.124669,-0.018829,0.002768,-0.019072,-0.096049,-0.010164,-0.007632,1.000000,-0.000094,0.000014,-0.000095,0.100751,0.709122,0.179110,-0.674474,-125.288865,83.053417,77.581134
27292,-9.612833,-1.121474,-0.776442,0.027448,0.188973,-0.105439,-0.011376,0.004478,-0.018835,-0.096130,-0.011206,-0.007762,1.000000,-0.000057,0.000022,-0.000094,0.100769,0.709104,0.179185,-0.674470,-125.267937,83.049635,77.609798
27293,-9.592127,-1.089667,-0.731852,-0.000340,0.144434,-0.132242,0.004873,0.004771,-0.018109,-0.095922,-0.010888,-0.007316,1.000000,0.000024,0.000024,-0.000091,0.100739,0.709094,0.179212,-0.674478,-125.241815,83.046007,77.635700
27294,-9.652013,-1.027990,-0.739405,0.029581,0.082652,-0.078360,0.016427,0.008526,-0.025826,-0.096522,-0.010267,-0.007391,1.000000,0.000082,0.000043,-0.000129,0.100631,0.709097,0.179220,-0.674489,-125.201622,83.037612,77.667724
27295,-9.611385,-0.971785,-0.722526,0.037539,0.028210,-0.125432,0.013477,0.005267,-0.021749,-0.096115,-0.009707,-0.007223,1.000000,0.000067,0.000026,-0.000109,0.100553,0.709091,0.179225,-0.674505,-125.163450,83.032233,77.699889
27296,-9.595047,-0.922356,-0.729317,0.063972,-0.013824,-0.146081,0.004487,0.008594,-0.026371,-0.095952,-0.009211,-0.007289,1.000000,0.000022,0.000043,-0.000132,0.100485,0.709088,0.179275,-0.674505,-125.129043,83.023555,77.732976
27297,-9.619001,-0.931719,-0.753709,0.082522,-0.000274,-0.119672,-0.008440,0.007495,-0.026894,-0.096192,-0.009305,-0.007533,1.000000,-0.000042,0.000037,-0.000134,0.100460,0.709075,0.179367,-0.674498,-125.096549,83.015065,77.771103
27298,-9.570628,-1.076521,-0.762940,0.035897,0.140046,-0.152615,-0.019563,0.010988,-0.025613,-0.095708,-0.010754,-0.007623,1.000000,-0.000098,0.000055,-0.000128,0.100478,0.709068,0.179497,-0.674468,-125.087263,83.005950,77.792767
27299,-9.606515,-1.161391,-0.778681,0.016324,0.218041,-0.107405,-0.013908,0.008228,-0.025179,-0.096067,-0.011602,-0.007782,1.000000,-0.000070,0.000041,-0.000126,0.100481,0.709055,0.179606,-0.674452,-125.065704,82.997954,77.823690
27300,-9.626043,-1.188696,-0.751904,-0.019322,0.229077,-0.087143,0.000193,0.008467,-0.022541,-0.096262,-0.011876,-0.007515,1.000000,0.000001,0.000042,-0.000113,0.100442,0.709053,0.179658,-0.674447,-125.043804,82.991108,77.846659
27301,-9.601319,-1.181106,-0.704735,-0.058887,0.205848,-0.115721,0.013307,0.007543,-0.019876,-0.096015,-0.011801,-0.007045,1.000000,0.000067,0.000038,-0.000099,0.100365,0.709058,0.179652,-0.674455,-125.019441,82.985912,77.864223
27302,-9.565024,-1.103289,-0.714949,-0.017909,0.141957,-0.158796,0.025074,0.009747,-0.017463,-0.095652,-0.011024,-0.007146,1.000000,0.000125,0.000049,-0.000087,0.100253,0.709077,0.179602,-0.674465,-125.001805,82.981026,77.868533
27303,-9.624889,-1.038552,-0.698620,-0.009203,0.068323,-0.106999,0.019418,0.012504,-0.017890,-0.096250,-0.010376,-0.006981,1.000000,0.000097,0.000063,-0.000089,0.100161,0.709102,0.179577,-0.674459,-124.998050,82.975021,77.862705
27304,-9.612386,-0.959031,-0.660031,-0.013386,-0.018854,-0.130084,0.015283,0.009872,-0.019919,-0.096125,-0.009580,-0.006596,1.000000,0.000076,0.000049,-0.000100,0.100076,0.709114,0.179569,-0.674461,-124.979978,82.968941,77.873105
27305,-9.624614,-0.894926,-0.717878,0.064483,-0.057853,-0.120323,0.001015,0.012005,-0.018709,-0.096247,-0.008940,-0.007173,1.000000,0.000005,0.000060,-0.000094,0.100048,0.709126,0.179613,-0.674441,-124.981201,82.962615,77.873286
27306,-9.576052,-0.885913,-0.696079,0.048909,-0.069765,-0.170962,-0.015239,0.011572,-0.021438,-0.095762,-0.008849,-0.006955,1.000000,-0.000076,0.000058,-0.000107,0.100064,0.709127,0.179714,-0.674410,-124.983065,82.955263,77.881222
27307,-9.612016,-0.973329,-0.736264,0.050531,0.020188,-0.123656,-0.027179,0.011625,-0.021992,-0.096122,-0.009724,-0.007356,1.000000,-0.000136,0.000058,-0.000110,0.100120,0.709123,0.179855,-0.674369,-124.990975,82.947679,77.889722
27308,-9.619941,-1.083343,-0.798655,0.064334,0.142802,-0.100313,-0.033635,0.011185,-0.020258,-0.096201,-0.010825,-0.007979,1.000000,-0.000168,0.000056,-0.000101,0.100205,0.709114,0.180014,-0.674322,-125.005045,82.941008,77.895978
27309,-9.603151,-1.178134,-0.764661,-0.003924,0.217224,-0.109800,-0.021713,0.010786,-0.025678,-0.096033,-0.011770,-0.007640,1.000000,-0.000109,0.000054,-0.000128,0.100227,0.709108,0.180145,-0.674291,-124.997337,82.932050,77.916457
27310,-9.626585,-1.178634,-0.716781,-0.048984,0.195060,-0.089846,-0.007608,0.011155,-0.021040,-0.096267,-0.011776,-0.007162,1.000000,-0.000038,0.000056,-0.000105,0.100218,0.709112,0.180219,-0.674269,-124.994324,82.925022,77.924901
27311,-9.618414,-1.077828,-0.705655,-0.020171,0.098498,-0.108902,-0.000505,0.017520,-0.015091,-0.096186,-0.010771,-0.007048,1.000000,-0.000003,0.000088,-0.000075,0.100193,0.709147,0.180245,-0.674228,-125.027210,82.918786,77.892207
27312,-9.621985,-1.049577,-0.661430,-0.050682,0.054469,-0.111339,-0.010907,0.012412,-0.013262,-0.096221,-0.010490,-0.006608,1.000000,-0.000055,0.000062,-0.000066,0.100221,0.709161,0.180302,-0.674194,-125.051396,82.914994,77.875148
27313,-9.593870,-1.076094,-0.709197,-0.017208,0.100127,-0.133176,-0.024003,0.013671,-0.009943,-0.095940,-0.010757,-0.007084,1.000000,-0.000120,0.000068,-0.000050,0.100308,0.709175,0.180397,-0.674142,-125.096549,82.912278,77.845012
27314,-9.609919,-1.137196,-0.777361,0.020162,0.180157,-0.106236,-0.033606,0.011758,-0.010270,-0.096100,-0.011368,-0.007766,1.000000,-0.000168,0.000059,-0.000051,0.100426,0.709177,0.180520,-0.674088,-125.139150,82.910101,77.822501
27315,-9.589502,-1.104242,-0.733821,-0.007599,0.135550,-0.132917,-0.031628,0.014206,-0.008319,-0.095896,-0.011040,-0.007330,1.000000,-0.000158,0.000071,-0.000042,0.100543,0.709191,0.180632,-0.674026,-125.195410,82.908017,77.785204
27316,-9.593177,-1.075193,-0.689832,-0.038109,0.091515,-0.135336,-0.030637,0.015488,-0.006344,-0.095933,-0.010750,-0.006889,1.000000,-0.000153,0.000077,-0.000032,0.100661,0.709211,0.180733,-0.673960,-125.260722,82.906440,77.738093
27317,-9.601420,-1.033363,-0.745689,0.027936,0.073855,-0.127393,-0.033959,0.016281,-0.006539,-0.096015,-0.010332,-0.007447,1.000000,-0.000170,0.000081,-0.000033,0.100796,0.709232,0.180854,-0.673886,-125.331963,82.904426,77.688025
27318,-9.605359,-1.009546,-0.750348,0.039829,0.053662,-0.125548,-0.029637,0.016999,-0.000375,-0.096054,-0.010096,-0.007494,1.000000,-0.000148,0.000085,-0.000002,0.100930,0.709263,0.180931,-0.673812,-125.418228,82.905120,77.619222
27319,-9.605177,-1.009659,-0.752525,0.039908,0.054778,-0.125555,-0.031182,0.021928,-0.006733,-0.096053,-0.010095,-0.007513,1.000000,-0.000156,0.000110,-0.000034,0.101042,0.709305,0.181038,-0.673722,-125.508079,82.901233,77.547593
27320,-9.600743,-1.031387,-0.727752,0.007019,0.065257,-0.129540,-0.030825,0.017409,-0.010445,-0.096009,-0.010310,-0.007268,1.000000,-0.000154,0.000087,-0.000052,0.101146,0.709328,0.181155,-0.673651,-125.569599,82.897072,77.504411
27321,-9.596702,-1.064189,-0.799863,0.058898,0.123450,-0.125053,-0.034139,0.018429,-0.006652,-0.095968,-0.010640,-0.007988,1.000000,-0.000171,0.000092,-0.000033,0.101270,0.709358,0.181266,-0.673571,-125.648611,82.894440,77.444871
27322,-9.592215,-1.082953,-0.750609,0.004808,0.122006,-0.131165,-0.026327,0.015865,-0.006137,-0.095923,-0.010828,-0.007497,1.000000,-0.000132,0.000079,-0.000031,0.101373,0.709382,0.181352,-0.673507,-125.713223,82.892788,77.395975
27323,-9.648470,-1.046314,-0.780933,0.044164,0.093648,-0.076831,-0.023001,0.015185,-0.003940,-0.096486,-0.010462,-0.007801,1.000000,-0.000115,0.000076,-0.000020,0.101470,0.709408,0.181416,-0.673448,-125.780056,82.892420,77.342546
27324,-9.567872,-1.082331,-0.778965,0.028949,0.135547,-0.153330,-0.023190,0.017106,-0.008057,-0.095680,-0.010820,-0.007780,1.000000,-0.000116,0.000086,-0.000040,0.101555,0.709436,0.181499,-0.673383,-125.842287,82.889445,77.294238
27325,-9.607584,-1.138804,-0.774344,-0.000067,0.180456,-0.108585,-0.019864,0.016427,-0.005861,-0.096077,-0.011386,-0.007734,1.000000,-0.000099,0.000082,-0.000029,0.101634,0.709466,0.181561,-0.673323,-125.906914,82.887744,77.241336
27326,-9.575185,-1.185794,-0.795406,0.000400,0.235471,-0.134491,-0.020670,0.013002,-0.007698,-0.095753,-0.011855,-0.007947,1.000000,-0.000103,0.000065,-0.000038,0.101715,0.709482,0.181632,-0.673275,-125.953331,82.886303,77.207509
27327,-9.550903,-1.179204,-0.773105,-0.017946,0.224041,-0.160877,-0.004414,0.013782,0.001005,-0.095510,-0.011793,-0.007724,1.000000,-0.000022,0.000069,0.000005,0.101764,0.709517,0.181615,-0.673235,-126.016871,82.888638,77.146631
27328,-9.591190,-1.084978,-0.760715,0.005370,0.128650,-0.131251,0.005802,0.020933,-0.002933,-0.095913,-0.010848,-0.007597,1.000000,0.000029,0.000105,-0.000015,0.101759,0.709577,0.181585,-0.673181,-126.090421,82.886721,77.070176
27329,-9.627454,-1.020365,-0.794414,0.059296,0.078416,-0.099271,0.004816,0.019766,-0.002910,-0.096275,-0.010202,-0.007935,1.000000,0.000024,0.000099,-0.000015,0.101756,0.709633,0.181553,-0.673131,-126.160172,82.885215,76.997511
27330,-9.639491,-0.943444,-0.755718,0.052380,-0.008210,-0.097845,-0.001462,0.017058,-0.003044,-0.096396,-0.009433,-0.007549,1.000000,-0.000007,0.000085,-0.000015,0.101780,0.709676,0.181545,-0.673084,-126.223162,82.884535,76.935892
27331,-9.607131,-0.993043,-0.801184,0.074035,0.058724,-0.121657,-0.009276,0.019509,-0.005544,-0.096072,-0.009928,-0.008002,1.000000,-0.000046,0.000098,-0.000028,0.101820,0.709722,0.181571,-0.673022,-126.293370,82.881872,76.871163
27332,-9.590513,-1.091983,-0.816715,0.048155,0.156929,-0.127109,-0.014754,0.020002,-0.007823,-0.095906,-0.010917,-0.008157,1.000000,-0.000074,0.000100,-0.000039,0.101872,0.709764,0.181626,-0.672955,-126.361810,82.877968,76.811725
27333,-9.578068,-1.172554,-0.883359,0.076467,0.257704,-0.126494,-0.009095,0.017251,-0.007402,-0.095782,-0.011722,-0.008825,1.000000,-0.000045,0.000086,-0.000037,0.101904,0.709802,0.181654,-0.672903,-126.417980,82.875235,76.760458
27334,-9.589542,-1.243202,-0.827878,-0.003970,0.299456,-0.112144,0.009491,0.016074,0.001529,-0.095896,-0.012432,-0.008272,1.000000,0.000047,0.000080,0.000008,0.101905,0.709851,0.181592,-0.672867,-126.483418,82.876963,76.690046
27335,-9.625772,-1.172968,-0.812516,0.007563,0.225366,-0.084344,0.030040,0.016559,-0.001536,-0.096258,-0.011728,-0.008119,1.000000,0.000150,0.000083,-0.000008,0.101825,0.709910,0.181476,-0.672850,-126.530081,82.876978,76.627059
27336,-9.613937,-1.097244,-0.822149,0.045800,0.161968,-0.102933,0.032563,0.012791,0.004800,-0.096140,-0.010973,-0.008217,1.000000,0.000163,0.000064,0.000024,0.101758,0.709963,0.181324,-0.672844,-126.579194,82.881315,76.559776
27337,-9.606219,-0.994740,-0.809973,0.074634,0.065341,-0.121704,0.026282,0.009857,0.000677,-0.096063,-0.009947,-0.008096,1.000000,0.000131,0.000049,0.000003,0.101701,0.710000,0.181203,-0.672846,-126.610080,82.884728,76.514099
27338,-9.586135,-0.961371,-0.765401,0.046888,0.020656,-0.148246,0.018653,0.010274,0.000295,-0.095862,-0.009613,-0.007650,1.000000,0.000093,0.000051,0.000001,0.101671,0.710034,0.181112,-0.672840,-126.645662,82.887844,76.468486
27339,-9.586061,-0.964327,-0.790622,0.068174,0.033705,-0.146158,0.006533,0.012348,-0.002395,-0.095861,-0.009642,-0.007901,1.000000,0.000033,0.000062,-0.000012,0.101668,0.710068,0.181066,-0.672817,-126.689286,82.889083,76.420786
27340,-9.610032,-0.974287,-0.839827,0.107916,0.059316,-0.117736,-0.003251,0.012464,-0.004864,-0.096101,-0.009741,-0.008392,1.000000,-0.000016,0.000062,-0.000024,0.101697,0.710093,0.181069,-0.672785,-126.731370,82.889071,76.381268
27341,-9.601651,-1.022624,-0.835628,0.084367,0.103016,-0.121557,-0.014020,0.011412,-0.007314,-0.096017,-0.010223,-0.008350,1.000000,-0.000070,0.000057,-0.000037,0.101760,0.710108,0.181117,-0.672747,-126.771735,82.888289,76.350147
27342,-9.597383,-1.044183,-0.809797,0.051473,0.113478,-0.125565,-0.007375,0.010055,-0.002921,-0.095974,-0.010441,-0.008093,1.000000,-0.000037,0.000050,-0.000015,0.101812,0.710124,0.181125,-0.672719,-126.812671,82.889989,76.314167
27343,-9.589050,-1.092330,-0.805245,0.027953,0.157173,-0.129403,0.000437,0.007380,-0.004397,-0.095891,-0.010921,-0.008049,1.000000,0.000002,0.000037,-0.000022,0.101832,0.710136,0.181107,-0.672709,-126.836614,82.891961,76.290340
27344,-9.597119,-1.045161,-0.811664,0.051647,0.115701,-0.125593,0.010656,0.014533,-0.008316,-0.095972,-0.010447,-0.008110,1.000000,0.000053,0.000073,-0.000042,0.101798,0.710172,0.181076,-0.672684,-126.868838,82.889644,76.252729
27345,-9.625125,-1.020609,-0.766311,0.018417,0.072283,-0.103602,0.020987,0.007980,-0.005450,-0.096252,-0.010203,-0.007660,1.000000,0.000105,0.000040,-0.000027,0.101740,0.710194,0.180996,-0.672691,-126.877947,82.890772,76.232284
27346,-9.609164,-0.972341,-0.796976,0.066062,0.042089,-0.121943,0.022155,0.006775,-0.009322,-0.096092,-0.009718,-0.007968,1.000000,0.000111,0.000034,-0.000047,0.101669,0.710209,0.180926,-0.672705,-126.872288,82.890659,76.226209
27347,-9.600792,-1.018354,-0.767707,0.021363,0.073822,-0.127869,0.015695,0.006324,-0.007605,-0.096009,-0.010179,-0.007675,1.000000,0.000078,0.000032,-0.000038,0.101626,0.710221,0.180871,-0.672714,-126.873567,82.891412,76.216818
27348,-9.604772,-0.998157,-0.795194,0.054459,0.065576,-0.123878,0.010219,0.006813,-0.009894,-0.096048,-0.009976,-0.007949,1.000000,0.000051,0.000034,-0.000049,0.101595,0.710229,0.180843,-0.672717,-126.873313,82.891024,76.212189
27349,-9.596364,-1.047099,-0.790271,0.030945,0.109221,-0.127737,0.010219,0.006699,-0.011885,-0.095965,-0.010465,-0.007900,1.000000,0.000051,0.000033,-0.000059,0.101564,0.710234,0.180831,-0.672720,-126.867396,82.889544,76.214501
27350,-9.587943,-1.098807,-0.809598,0.028640,0.164835,-0.129532,0.005912,0.006436,-0.010077,-0.095880,-0.010983,-0.008093,1.000000,0.000030,0.000032,-0.000050,0.101548,0.710239,0.180818,-0.672721,-126.867717,82.889202,76.211779
27351,-9.591921,-1.075926,-0.812721,0.040558,0.144665,-0.127621,0.015878,0.004066,-0.009461,-0.095920,-0.010754,-0.008126,1.000000,0.000079,0.000020,-0.000047,0.101490,0.710244,0.180756,-0.672741,-126.854873,82.890045,76.214746
27352,-9.595915,-1.053066,-0.815680,0.052458,0.124485,-0.125706,0.020186,0.004443,-0.009272,-0.095960,-0.010525,-0.008156,1.000000,0.000101,0.000022,-0.000046,0.101428,0.710250,0.180691,-0.672761,-126.841909,82.890756,76.217171
27353,-9.599914,-1.027534,-0.794324,0.043134,0.092359,-0.125854,0.027816,0.003917,-0.010869,-0.096000,-0.010269,-0.007943,1.000000,0.000139,0.000020,-0.000054,0.101336,0.710257,0.180609,-0.672790,-126.819537,82.890830,76.225079
27354,-9.603914,-1.004894,-0.797066,0.055037,0.072180,-0.123928,0.030153,0.001960,-0.010640,-0.096040,-0.010043,-0.007971,1.000000,0.000151,0.000010,-0.000053,0.101237,0.710259,0.180514,-0.672829,-126.787962,82.891766,76.240503
27355,-9.607900,-0.985155,-0.824068,0.088109,0.063955,-0.119932,0.027817,0.003803,-0.012854,-0.096080,-0.009844,-0.008240,1.000000,0.000139,0.000019,-0.000064,0.101132,0.710265,0.180429,-0.672860,-126.759849,82.891100,76.252961
27356,-9.627679,-1.011810,-0.796623,0.052466,0.075093,-0.099697,0.022525,0.002257,-0.013020,-0.096278,-0.010111,-0.007966,1.000000,0.000113,0.000011,-0.000065,0.101051,0.710262,0.180369,-0.672892,-126.727188,82.890839,76.273884
27357,-9.591830,-0.933403,-0.805867,0.093461,0.010952,-0.142372,0.020372,0.001952,-0.015103,-0.095919,-0.009326,-0.008059,1.000000,0.000102,0.000010,-0.000076,0.100971,0.710254,0.180324,-0.672924,-126.689227,82.889606,76.301595
27358,-9.587549,-0.953258,-0.754640,0.039373,0.009455,-0.148442,0.008435,0.001982,-0.015688,-0.095876,-0.009525,-0.007546,1.000000,0.000042,0.000010,-0.000078,0.100931,0.710240,0.180320,-0.672946,-126.656317,82.888210,76.330905
27359,-9.611421,-0.959063,-0.754432,0.036727,0.011261,-0.124194,0.013543,0.005561,-0.017641,-0.096115,-0.009582,-0.007542,1.000000,0.000068,0.000028,-0.000088,0.100856,0.710241,0.180300,-0.672962,-126.628497,82.884734,76.350842
27360,-9.602878,-1.014267,-0.797674,0.055615,0.078815,-0.123983,-0.001348,0.002084,-0.018170,-0.096030,-0.010134,-0.007976,1.000000,-0.000007,0.000010,-0.000091,0.100843,0.710220,0.180338,-0.672975,-126.594809,82.882158,76.386584
27361,-9.614182,-1.097757,-0.837662,0.059957,0.168318,-0.101491,-0.001530,0.003884,-0.024275,-0.096143,-0.010966,-0.008375,1.000000,-0.000008,0.000019,-0.000121,0.100808,0.710200,0.180402,-0.672986,-126.550408,82.875960,76.433470
27362,-9.613932,-1.097068,-0.813703,0.038865,0.157483,-0.103566,0.002960,0.002350,-0.019968,-0.096141,-0.010961,-0.008136,1.000000,0.000015,0.000012,-0.000100,0.100773,0.710180,0.180431,-0.673003,-126.510400,82.872459,76.473094
27363,-9.609524,-1.125631,-0.835261,0.048332,0.191827,-0.103489,0.005298,0.000511,-0.017747,-0.096096,-0.011248,-0.008353,1.000000,0.000026,0.000003,-0.000089,0.100735,0.710160,0.180439,-0.673028,-126.469758,82.870639,76.511264
27364,-9.609334,-1.124578,-0.811039,0.027240,0.180990,-0.105563,0.014897,0.002443,-0.017385,-0.096094,-0.011237,-0.008110,1.000000,0.000074,0.000012,-0.000087,0.100666,0.710149,0.180420,-0.673055,-126.430349,82.868290,76.543394
27365,-9.609135,-1.126187,-0.811165,0.027314,0.182099,-0.105584,0.018033,0.004034,-0.013325,-0.096092,-0.011255,-0.008111,1.000000,0.000090,0.000020,-0.000067,0.100597,0.710150,0.180374,-0.673076,-126.407380,82.867243,76.556887
27366,-9.593305,-1.072832,-0.792894,0.032578,0.127985,-0.127972,0.019574,-0.001235,-0.012942,-0.095934,-0.010721,-0.007931,1.000000,0.000098,-0.000006,-0.000065,0.100530,0.710134,0.180322,-0.673118,-126.363831,82.868189,76.590488
27367,-9.608894,-1.120495,-0.738160,-0.036068,0.148472,-0.111765,0.018219,0.001888,-0.013187,-0.096090,-0.011198,-0.007382,1.000000,0.000091,0.000009,-0.000066,0.100460,0.710128,0.180271,-0.673148,-126.332232,82.867928,76.612107
27368,-9.593075,-1.069678,-0.744332,-0.009610,0.106298,-0.132092,0.018030,0.004383,-0.007348,-0.095931,-0.010693,-0.007442,1.000000,0.000090,0.000022,-0.000037,0.100412,0.710134,0.180207,-0.673166,-126.325457,82.869545,76.609539
27369,-9.597111,-1.049656,-0.771559,0.023472,0.098041,-0.128089,0.012741,0.002598,-0.011500,-0.095972,-0.010491,-0.007715,1.000000,0.000064,0.000013,-0.000057,0.100373,0.710128,0.180179,-0.673186,-126.304411,82.869664,76.625086
27370,-9.601166,-1.026794,-0.774650,0.035381,0.077866,-0.126126,0.015690,0.006337,-0.007575,-0.096012,-0.010264,-0.007744,1.000000,0.000078,0.000032,-0.000038,0.100331,0.710140,0.180124,-0.673194,-126.305572,82.870514,76.615872
27371,-9.625124,-1.028937,-0.750344,0.011563,0.067736,-0.103927,0.006093,0.004401,-0.007940,-0.096252,-0.010285,-0.007502,1.000000,0.000030,0.000022,-0.000040,0.100317,0.710141,0.180096,-0.673203,-126.303232,82.871781,76.614711
27372,-9.600930,-1.028425,-0.775417,0.035605,0.080059,-0.126145,0.001786,0.004017,-0.008132,-0.096010,-0.010280,-0.007752,1.000000,0.000009,0.000020,-0.000041,0.100325,0.710137,0.180089,-0.673208,-126.302282,82.873161,76.615653
27373,-9.572534,-1.051712,-0.797831,0.047829,0.113646,-0.150346,0.006889,0.007832,-0.006102,-0.095726,-0.010514,-0.007975,1.000000,0.000034,0.000039,-0.000031,0.100314,0.710152,0.180056,-0.673202,-126.318452,82.874112,76.595912
27374,-9.596508,-1.050996,-0.749495,0.002803,0.091586,-0.130182,0.005908,0.006430,-0.010062,-0.095966,-0.010505,-0.007492,1.000000,0.000030,0.000032,-0.000050,0.100298,0.710157,0.180043,-0.673203,-126.318814,82.873782,76.593151
27375,-9.624612,-1.034773,-0.776627,0.033142,0.084091,-0.101926,0.009226,0.006113,-0.001890,-0.096246,-0.010346,-0.007764,1.000000,0.000046,0.000031,-0.000009,0.100298,0.710170,0.179989,-0.673203,-126.339072,82.877235,76.568367
27376,-9.604655,-1.007352,-0.780378,0.047798,0.063179,-0.124196,0.009232,0.005645,-0.009849,-0.096047,-0.010068,-0.007802,1.000000,0.000046,0.000028,-0.000049,0.100272,0.710174,0.179964,-0.673210,-126.335212,82.877269,76.567942
27377,-9.632722,-0.991605,-0.807390,0.078128,0.055704,-0.095935,0.001789,0.003782,-0.012110,-0.096328,-0.009910,-0.008072,1.000000,0.000009,0.000019,-0.000061,0.100264,0.710167,0.179968,-0.673217,-126.324007,82.876853,76.578938
27378,-9.580308,-1.005349,-0.781688,0.050721,0.064641,-0.148459,-0.002706,0.005659,-0.010447,-0.095804,-0.010049,-0.007814,1.000000,-0.000014,0.000028,-0.000052,0.100279,0.710165,0.179985,-0.673213,-126.325414,82.876606,76.580098
27379,-9.599950,-1.037354,-0.803217,0.057466,0.099697,-0.124186,-0.000551,0.005735,-0.012339,-0.096000,-0.010368,-0.008029,1.000000,-0.000003,0.000029,-0.000062,0.100276,0.710163,0.180001,-0.673211,-126.320412,82.875321,76.586188
27380,-9.575741,-1.034346,-0.804067,0.060313,0.100048,-0.148446,0.002960,0.002806,-0.011992,-0.095758,-0.010338,-0.008039,1.000000,0.000015,0.000014,-0.000060,0.100267,0.710152,0.180002,-0.673223,-126.303840,82.875329,76.602194
27381,-9.599632,-1.039798,-0.803849,0.057638,0.101887,-0.124210,0.000808,0.002496,-0.014078,-0.095997,-0.010391,-0.008037,1.000000,0.000004,0.000012,-0.000070,0.100264,0.710138,0.180024,-0.673234,-126.283107,82.874312,76.624378
27382,-9.603784,-1.011375,-0.758473,0.027169,0.057811,-0.126267,0.008248,0.004479,-0.009825,-0.096039,-0.010109,-0.007583,1.000000,0.000041,0.000022,-0.000049,0.100242,0.710137,0.180001,-0.673243,-126.275564,82.874753,76.628232
27383,-9.647492,-1.045021,-0.755019,0.009943,0.081703,-0.079782,0.002966,0.002455,-0.017957,-0.096476,-0.010441,-0.007549,1.000000,0.000015,0.000012,-0.000090,0.100214,0.710121,0.180025,-0.673258,-126.243099,82.872025,76.660424
27384,-9.643047,-1.073228,-0.776660,0.019428,0.116040,-0.079778,0.000807,0.002613,-0.012086,-0.096431,-0.010726,-0.007765,1.000000,0.000004,0.000013,-0.000060,0.100213,0.710108,0.180034,-0.673269,-126.226800,82.872052,76.677399
27385,-9.590526,-1.092925,-0.799049,0.034367,0.148813,-0.128276,0.002169,-0.000743,-0.015813,-0.095906,-0.010922,-0.007991,1.000000,0.000011,-0.000004,-0.000079,0.100202,0.710082,0.180057,-0.673293,-126.188117,82.871269,76.717068
27386,-9.562153,-1.111075,-0.772340,0.004210,0.158463,-0.156568,0.002165,-0.000509,-0.011835,-0.095622,-0.011105,-0.007724,1.000000,0.000011,-0.000003,-0.000059,0.100200,0.710060,0.180059,-0.673316,-126.160175,82.872467,76.744993
27387,-9.538022,-1.105063,-0.748687,-0.014152,0.146834,-0.182849,-0.000366,0.003705,-0.010211,-0.095381,-0.011046,-0.007485,1.000000,-0.000002,0.000019,-0.000051,0.100204,0.710054,0.180061,-0.673321,-126.154524,82.872958,76.751110
27388,-9.598666,-1.042832,-0.756688,0.015903,0.085667,-0.128325,0.002770,0.005069,-0.010132,-0.095987,-0.010423,-0.007565,1.000000,0.000014,0.000025,-0.000051,0.100200,0.710052,0.180058,-0.673324,-126.151471,82.873057,76.753602
27389,-9.598593,-1.040767,-0.732912,-0.005201,0.074807,-0.130347,0.002766,0.005304,-0.006154,-0.095986,-0.010405,-0.007327,1.000000,0.000014,0.000027,-0.000031,0.100206,0.710057,0.180037,-0.673324,-126.160829,82.874855,76.743008
27390,-9.626675,-1.024960,-0.760058,0.025165,0.067378,-0.102078,-0.002703,0.005422,-0.014418,-0.096268,-0.010243,-0.007598,1.000000,-0.000014,0.000027,-0.000072,0.100207,0.710050,0.180068,-0.673322,-126.150629,82.872851,76.755864
27391,-9.617960,-1.079412,-0.803197,0.044030,0.134939,-0.102113,-0.003318,0.000430,-0.006178,-0.096180,-0.010791,-0.008032,1.000000,-0.000017,0.000002,-0.000031,0.100234,0.710036,0.180061,-0.673336,-126.144387,82.876331,76.763666
27392,-9.585342,-1.123711,-0.798041,0.023249,0.177800,-0.130424,0.000993,0.000584,-0.009959,-0.095854,-0.011232,-0.007980,1.000000,0.000005,0.000003,-0.000050,0.100241,0.710018,0.180061,-0.673353,-126.126209,82.878025,76.782427
27393,-9.605053,-1.152394,-0.794989,0.008774,0.200954,-0.108224,-0.000375,0.004174,-0.002256,-0.096051,-0.011523,-0.007948,1.000000,-0.000002,0.000021,-0.000011,0.100274,0.710021,0.180038,-0.673351,-126.144027,82.881989,76.765421
27394,-9.580928,-1.148597,-0.795811,0.011617,0.201269,-0.132494,0.010396,0.004912,-0.005744,-0.095810,-0.011483,-0.007956,1.000000,0.000052,0.000025,-0.000029,0.100258,0.710026,0.179994,-0.673359,-126.147895,82.884170,76.756534
27395,-9.641779,-1.080129,-0.755301,-0.000730,0.116215,-0.081935,0.014698,0.005536,-0.001572,-0.096418,-0.010800,-0.007551,1.000000,0.000073,0.000028,-0.000008,0.100241,0.710041,0.179922,-0.673366,-126.164152,82.887926,76.732889
27396,-9.610603,-0.976644,-0.767856,0.052108,0.030657,-0.122307,0.018027,0.004520,-0.005333,-0.096106,-0.009763,-0.007677,1.000000,0.000090,0.000023,-0.000027,0.100200,0.710050,0.179850,-0.673382,-126.163323,82.890430,76.724330
27397,-9.594919,-0.928089,-0.798499,0.099727,0.000378,-0.140487,0.007258,0.003665,-0.003834,-0.095950,-0.009279,-0.007984,1.000000,0.000036,0.000018,-0.000019,0.100204,0.710053,0.179811,-0.673389,-126.171450,82.893796,76.713253
27398,-9.610430,-0.977876,-0.768448,0.052276,0.032857,-0.122316,-0.004672,0.003314,-0.010405,-0.096105,-0.009774,-0.007683,1.000000,-0.000023,0.000017,-0.000052,0.100228,0.710041,0.179833,-0.673391,-126.165401,82.894362,76.723061
27399,-9.573516,-1.046053,-0.760888,0.019694,0.096947,-0.152688,-0.001730,0.007059,-0.006482,-0.095736,-0.010457,-0.007605,1.000000,-0.000009,0.000035,-0.000032,0.100240,0.710050,0.179824,-0.673383,-126.181347,82.895436,76.707394
27400,-9.617147,-1.082146,-0.781878,0.023694,0.132894,-0.104254,0.000809,0.002611,-0.012079,-0.096172,-0.010816,-0.007818,1.000000,0.000004,0.000013,-0.000060,0.100239,0.710037,0.179833,-0.673394,-126.165004,82.895466,76.724411
27401,-9.588732,-1.102671,-0.779729,0.014715,0.154411,-0.130560,0.002954,0.003158,-0.006017,-0.095888,-0.011024,-0.007796,1.000000,0.000015,0.000016,-0.000030,0.100252,0.710033,0.179819,-0.673401,-126.165634,82.897844,76.723618
27402,-9.621247,-1.056993,-0.760994,0.014524,0.101832,-0.104229,0.011570,0.003821,-0.007611,-0.096213,-0.010566,-0.007609,1.000000,0.000058,0.000019,-0.000038,0.100227,0.710034,0.179776,-0.673415,-126.159737,82.899531,76.723896
27403,-9.621071,-1.060695,-0.785483,0.035800,0.114889,-0.102250,0.011570,0.003821,-0.007610,-0.096211,-0.010603,-0.007854,1.000000,0.000058,0.000019,-0.000038,0.100198,0.710036,0.179731,-0.673428,-126.154491,82.901117,76.723051
27404,-9.625292,-1.034759,-0.764285,0.026533,0.082766,-0.102201,0.010588,0.002651,-0.007591,-0.096253,-0.010344,-0.007642,1.000000,0.000053,0.000013,-0.000038,0.100178,0.710033,0.179692,-0.673446,-126.144858,82.903208,76.727660
27405,-9.601159,-1.031320,-0.764820,0.029340,0.083025,-0.126456,0.005300,0.001090,-0.007770,-0.096012,-0.010309,-0.007648,1.000000,0.000026,0.000005,-0.000039,0.100180,0.710021,0.179675,-0.673462,-126.133248,82.905538,76.738009
27406,-9.596734,-1.058946,-0.786205,0.038815,0.117360,-0.126537,0.000014,-0.000590,-0.009937,-0.095968,-0.010585,-0.007862,1.000000,0.000000,-0.000003,-0.000050,0.100191,0.710000,0.179678,-0.673482,-126.111245,82.907638,76.761189
27407,-9.596690,-1.056924,-0.762176,0.017718,0.106488,-0.128535,-0.005846,0.004403,-0.008532,-0.095968,-0.010565,-0.007619,1.000000,-0.000029,0.000022,-0.000043,0.100219,0.709995,0.179693,-0.673479,-126.115596,82.908628,76.760403
27408,-9.600720,-1.039504,-0.813791,0.072015,0.110263,-0.122522,0.000990,0.000817,-0.005980,-0.096008,-0.010392,-0.008138,1.000000,0.000005,0.000004,-0.000030,0.100240,0.709982,0.179679,-0.673493,-126.108998,82.912084,76.767495
27409,-9.600778,-1.034494,-0.765315,0.029723,0.087409,-0.126496,-0.004292,-0.000981,-0.010134,-0.096008,-0.010340,-0.007653,1.000000,-0.000021,-0.000005,-0.000051,0.100266,0.709957,0.179697,-0.673510,-126.088223,82.914060,76.791946
27410,-9.616106,-1.090221,-0.783474,0.024642,0.143842,-0.104412,-0.000178,0.001674,-0.008083,-0.096162,-0.010898,-0.007834,1.000000,-0.000001,0.000008,-0.000040,0.100283,0.709945,0.179695,-0.673521,-126.079759,82.916253,76.801592
27411,-9.620349,-1.064245,-0.762246,0.015349,0.111672,-0.104338,-0.000178,0.001674,-0.008083,-0.096204,-0.010639,-0.007622,1.000000,-0.000001,0.000008,-0.000040,0.100305,0.709932,0.179702,-0.673530,-126.071992,82.918146,76.811666
27412,-9.591947,-1.084632,-0.759885,0.006370,0.133201,-0.130667,0.002165,-0.000275,-0.007849,-0.095920,-0.010842,-0.007599,1.000000,0.000011,-0.000001,-0.000039,0.100315,0.709914,0.179690,-0.673551,-126.055538,82.921104,76.828011
27413,-9.576328,-1.036198,-0.790122,0.054021,0.102912,-0.148809,0.002352,-0.002303,-0.005728,-0.095763,-0.010359,-0.007902,1.000000,0.000012,-0.000012,-0.000029,0.100326,0.709894,0.179660,-0.673578,-126.038018,82.925729,76.843866
27414,-9.596117,-1.061995,-0.762348,0.018383,0.114150,-0.128623,-0.001954,-0.002695,-0.005925,-0.095961,-0.010617,-0.007625,1.000000,-0.000010,-0.000013,-0.000030,0.100361,0.709868,0.179654,-0.673602,-126.020080,82.930392,76.864084
27415,-9.595990,-1.065432,-0.786514,0.039662,0.127190,-0.126665,-0.007622,0.000033,-0.006373,-0.095960,-0.010652,-0.007865,1.000000,-0.000038,0.000000,-0.000032,0.100411,0.709848,0.179672,-0.673611,-126.014502,82.933707,76.875301
27416,-9.591621,-1.090041,-0.783737,0.027945,0.149554,-0.128759,-0.007617,-0.000203,-0.010346,-0.095917,-0.010896,-0.007837,1.000000,-0.000038,-0.000001,-0.000052,0.100448,0.709824,0.179702,-0.673623,-125.997079,82.935481,76.898269
27417,-9.571778,-1.062662,-0.787092,0.042587,0.128528,-0.150940,-0.003316,0.000425,-0.006175,-0.095718,-0.010624,-0.007871,1.000000,-0.000017,0.000002,-0.000031,0.100480,0.709809,0.179700,-0.673634,-125.991556,82.938856,76.906254
27418,-9.600104,-1.040837,-0.765173,0.030591,0.097254,-0.126593,0.000202,-0.002616,-0.007813,-0.096001,-0.010405,-0.007653,1.000000,0.000001,-0.000013,-0.000039,0.100500,0.709782,0.179694,-0.673661,-125.967480,82.942616,76.931413
27419,-9.623991,-1.048839,-0.788771,0.049142,0.111152,-0.100393,0.003340,-0.001366,-0.009718,-0.096240,-0.010484,-0.007889,1.000000,0.000017,-0.000007,-0.000049,0.100500,0.709760,0.179685,-0.673687,-125.940868,82.944847,76.957275
27420,-9.608587,-0.992042,-0.746252,0.033253,0.044933,-0.124402,0.005493,-0.001169,-0.009619,-0.096086,-0.009916,-0.007463,1.000000,0.000027,-0.000006,-0.000048,0.100494,0.709739,0.179668,-0.673714,-125.914228,82.947279,76.981961
27421,-9.584405,-0.991604,-0.770665,0.057242,0.057127,-0.146691,-0.000776,-0.003905,-0.009780,-0.095844,-0.009911,-0.007708,1.000000,-0.000004,-0.000020,-0.000049,0.100512,0.709707,0.179673,-0.673744,-125.881865,82.950383,77.016215
27422,-9.604046,-1.020776,-0.767267,0.042790,0.080354,-0.124546,-0.004480,0.001046,-0.012249,-0.096041,-0.010202,-0.007672,1.000000,-0.000022,0.000005,-0.000061,0.100531,0.709687,0.179700,-0.673755,-125.862080,82.950848,77.039751
27423,-9.575579,-1.041489,-0.765064,0.033799,0.101803,-0.150895,-0.016417,0.001035,-0.012856,-0.095756,-0.010409,-0.007649,1.000000,-0.000082,0.000005,-0.000064,0.100589,0.709660,0.179772,-0.673756,-125.847269,82.950776,77.065394
27424,-9.599495,-1.046867,-0.764581,0.031169,0.103777,-0.126662,-0.009385,-0.004810,-0.012158,-0.095995,-0.010463,-0.007648,1.000000,-0.000047,-0.000024,-0.000061,0.100631,0.709617,0.179812,-0.673784,-125.808533,82.953244,77.110856
27425,-9.603629,-1.026897,-0.791513,0.064272,0.095581,-0.122619,-0.005464,-0.000007,-0.010243,-0.096037,-0.010264,-0.007915,1.000000,-0.000027,-0.000000,-0.000051,0.100655,0.709596,0.179830,-0.673798,-125.791034,82.954867,77.131892
27426,-9.599435,-1.043163,-0.715836,-0.011001,0.082012,-0.130595,-0.008403,-0.003638,-0.012174,-0.095995,-0.010426,-0.007160,1.000000,-0.000042,-0.000018,-0.000061,0.100692,0.709558,0.179868,-0.673823,-125.756054,82.956931,77.173003
27427,-9.614527,-1.104809,-0.782411,0.026223,0.162408,-0.104709,-0.010942,0.000572,-0.010553,-0.096146,-0.011043,-0.007823,1.000000,-0.000055,0.000003,-0.000053,0.100745,0.709534,0.179917,-0.673826,-125.744772,82.958084,77.192701
27428,-9.618788,-1.079021,-0.761169,0.016966,0.130281,-0.104573,-0.002330,0.001362,-0.010161,-0.096188,-0.010785,-0.007611,1.000000,-0.000012,0.000007,-0.000051,0.100762,0.709517,0.179929,-0.673838,-125.730572,82.959407,77.209369
27429,-9.594694,-1.073016,-0.737448,-0.001410,0.118508,-0.130782,0.003154,0.000550,-0.013820,-0.095948,-0.010723,-0.007374,1.000000,0.000016,0.000003,-0.000069,0.100746,0.709499,0.179933,-0.673858,-125.701436,82.959176,77.237452
27430,-9.622923,-1.054426,-0.739940,0.007786,0.099245,-0.104440,0.006276,0.002387,-0.005796,-0.096230,-0.010541,-0.007399,1.000000,0.000031,0.000012,-0.000029,0.100747,0.709495,0.179902,-0.673872,-125.697972,82.962186,77.238333
27431,-9.603137,-1.026958,-0.743217,0.022454,0.078170,-0.126582,0.005490,-0.001047,-0.007630,-0.096032,-0.010266,-0.007433,1.000000,0.000027,-0.000005,-0.000038,0.100743,0.709477,0.179876,-0.673898,-125.676319,82.965287,77.257490
27432,-9.598611,-1.057231,-0.788720,0.053099,0.124488,-0.124817,-0.000972,-0.001523,-0.005939,-0.095986,-0.010569,-0.007888,1.000000,-0.000005,-0.000008,-0.000030,0.100773,0.709455,0.179867,-0.673918,-125.661853,82.969537,77.273642
27433,-9.570270,-1.074485,-0.762096,0.022913,0.133930,-0.153137,-0.004489,0.001398,-0.006286,-0.095703,-0.010742,-0.007620,1.000000,-0.000022,0.000007,-0.000031,0.100810,0.709441,0.179875,-0.673925,-125.659559,82.972408,77.279687
27434,-9.622726,-1.054054,-0.715647,-0.012986,0.091613,-0.106427,0.000009,-0.000351,-0.005956,-0.096228,-0.010538,-0.007157,1.000000,0.000000,-0.000002,-0.000030,0.100835,0.709424,0.179864,-0.673943,-125.648884,82.976258,77.291452
27435,-9.622656,-1.054723,-0.715607,-0.012915,0.092696,-0.106438,0.000012,-0.000469,-0.007941,-0.096227,-0.010543,-0.007156,1.000000,0.000000,-0.000002,-0.000040,0.100853,0.709406,0.179860,-0.673960,-125.633699,82.979045,77.307715
27436,-9.622508,-1.058264,-0.739865,0.008371,0.105784,-0.104510,-0.001164,0.000622,-0.006072,-0.096225,-0.010580,-0.007398,1.000000,-0.000006,0.000003,-0.000030,0.100881,0.709391,0.179853,-0.673973,-125.627043,82.982516,77.316108
27437,-9.593998,-1.081445,-0.761667,0.020560,0.139180,-0.128955,-0.003118,-0.001956,-0.010006,-0.095940,-0.010810,-0.007617,1.000000,-0.000016,-0.000010,-0.000050,0.100902,0.709364,0.179866,-0.673996,-125.600696,82.984793,77.345223
27438,-9.593942,-1.082001,-0.761589,0.020662,0.140284,-0.128971,-0.004303,-0.000514,-0.002181,-0.095940,-0.010819,-0.007616,1.000000,-0.000022,-0.000003,-0.000011,0.100955,0.709347,0.179856,-0.674008,-125.602062,82.990455,77.347344
27439,-9.569906,-1.075396,-0.738014,0.002310,0.128456,-0.155165,-0.003695,0.004480,-0.010406,-0.095700,-0.010749,-0.007378,1.000000,-0.000018,0.000022,-0.000052,0.100971,0.709341,0.179874,-0.674007,-125.599433,82.990410,77.352790
27440,-9.622053,-1.066569,-0.788638,0.051147,0.134105,-0.100694,0.001179,-0.001207,-0.003854,-0.096221,-0.010664,-0.007887,1.000000,0.000006,-0.000006,-0.000019,0.100999,0.709323,0.179851,-0.674028,-125.590482,82.995523,77.362142
27441,-9.626387,-1.040516,-0.767241,0.041870,0.101943,-0.100504,-0.000177,0.001560,-0.010059,-0.096264,-0.010400,-0.007672,1.000000,-0.000001,0.000008,-0.000050,0.101010,0.709309,0.179858,-0.674039,-125.576825,82.996589,77.377260
27442,-9.602258,-1.037154,-0.767674,0.044702,0.102130,-0.124759,-0.003118,-0.001956,-0.010005,-0.096023,-0.010367,-0.007678,1.000000,-0.000016,-0.000010,-0.000050,0.101034,0.709281,0.179871,-0.674061,-125.550781,82.999084,77.406314
27443,-9.602085,-1.041045,-0.791762,0.065970,0.115190,-0.122844,-0.007420,-0.002470,-0.012185,-0.096021,-0.010405,-0.007918,1.000000,-0.000037,-0.000012,-0.000061,0.101063,0.709249,0.179905,-0.674082,-125.519784,83.000533,77.442575
27444,-9.593267,-1.090066,-0.785977,0.042414,0.158792,-0.127143,-0.006434,-0.001532,-0.016171,-0.095933,-0.010893,-0.007860,1.000000,-0.000032,-0.000008,-0.000081,0.101078,0.709215,0.179951,-0.674103,-125.480508,83.000007,77.486875
27445,-9.645403,-1.079325,-0.812203,0.070055,0.152447,-0.074604,-0.006624,0.000497,-0.018288,-0.096455,-0.010785,-0.008121,1.000000,-0.000033,0.000002,-0.000091,0.101085,0.709186,0.180010,-0.674117,-125.443562,82.997533,77.529288
27446,-9.625412,-1.056281,-0.839587,0.105897,0.143367,-0.094796,-0.001913,-0.004095,-0.029730,-0.096256,-0.010549,-0.008398,1.000000,-0.000010,-0.000020,-0.000149,0.101040,0.709134,0.180088,-0.674158,-125.355372,82.991516,77.620259
27447,-9.590260,-0.976002,-0.824176,0.125761,0.066835,-0.138772,-0.009157,-0.008011,-0.029868,-0.095904,-0.009746,-0.008245,1.000000,-0.000046,-0.000040,-0.000149,0.101021,0.709065,0.180189,-0.674206,-125.256054,82.986458,77.726529
27448,-9.590042,-0.976341,-0.799538,0.104684,0.055950,-0.140701,-0.003268,-0.001442,-0.037906,-0.095902,-0.009745,-0.007996,1.000000,-0.000016,-0.000007,-0.000190,0.100951,0.709013,0.180302,-0.674240,-125.157132,82.975699,77.829098
27449,-9.561366,-0.996683,-0.772634,0.074506,0.065337,-0.169024,0.002409,-0.004275,-0.039440,-0.095615,-0.009948,-0.007729,1.000000,0.000012,-0.000021,-0.000197,0.100853,0.708955,0.180396,-0.674291,-125.039863,82.964941,77.946181
27450,-9.589504,-0.975772,-0.726166,0.041353,0.022153,-0.146466,0.017299,-0.001308,-0.048800,-0.095897,-0.009734,-0.007263,1.000000,0.000086,-0.000007,-0.000244,0.100673,0.708904,0.180478,-0.674349,-124.901423,82.948972,78.076702
27451,-9.630607,-0.889869,-0.736952,0.086039,-0.060816,-0.113592,0.019071,0.002834,-0.054906,-0.096309,-0.008872,-0.007369,1.000000,0.000095,0.000014,-0.000275,0.100460,0.708865,0.180576,-0.674397,-124.762763,82.928532,78.206028
27452,-9.623647,-0.798655,-0.772961,0.157381,-0.133648,-0.127272,0.004209,-0.001073,-0.061388,-0.096239,-0.007957,-0.007730,1.000000,0.000021,-0.000005,-0.000307,0.100283,0.708797,0.180747,-0.674449,-124.601060,82.906476,78.367559
27453,-9.570817,-0.816723,-0.746414,0.129902,-0.125246,-0.179820,-0.006159,-0.006375,-0.061593,-0.095710,-0.008138,-0.007467,1.000000,-0.000031,-0.000032,-0.000308,0.100154,0.708705,0.180960,-0.674507,-124.426394,82.885596,78.549480
27454,-9.547992,-0.944825,-0.756544,0.092019,-0.005932,-0.188723,-0.024554,0.004636,-0.067117,-0.095483,-0.009417,-0.007562,1.000000,-0.000123,0.000023,-0.000336,0.100055,0.708637,0.181251,-0.674515,-124.289981,82.858871,78.702149
27455,-9.597193,-1.077916,-0.693227,-0.017624,0.080217,-0.130651,-0.027679,0.003143,-0.069155,-0.095976,-0.010747,-0.006929,1.000000,-0.000138,0.000016,-0.000346,0.099966,0.708560,0.181566,-0.674524,-124.146912,82.831300,78.864206
27456,-9.559211,-1.145530,-0.636976,-0.092659,0.120105,-0.165227,0.005196,0.000011,-0.063321,-0.095596,-0.011425,-0.006370,1.000000,0.000026,0.000000,-0.000317,0.099779,0.708495,0.181740,-0.674574,-123.987902,82.807765,79.022487
27457,-9.591858,-1.096724,-0.545028,-0.156352,0.031655,-0.144278,0.035517,0.001090,-0.055872,-0.095922,-0.010939,-0.005452,1.000000,0.000178,0.000005,-0.000279,0.099509,0.708455,0.181790,-0.674642,-123.836064,82.787095,79.156383
27458,-9.585762,-0.985488,-0.411509,-0.233255,-0.125149,-0.171252,0.050767,0.012053,-0.059678,-0.095861,-0.009825,-0.004112,1.000000,0.000254,0.000060,-0.000298,0.099162,0.708456,0.181804,-0.674688,-123.707285,82.761358,79.257887
27459,-9.587903,-0.855122,-0.526345,-0.074716,-0.204506,-0.174806,0.067597,0.006567,-0.050534,-0.095881,-0.008525,-0.005263,1.000000,0.000338,0.000033,-0.000253,0.098786,0.708457,0.181722,-0.674765,-123.572558,82.741572,79.354933
27460,-9.578706,-0.898707,-0.448374,-0.161817,-0.196914,-0.184844,0.006510,0.010049,-0.041937,-0.095789,-0.008967,-0.004479,1.000000,0.000033,0.000050,-0.000210,0.098657,0.708445,0.181822,-0.674769,-123.507068,82.724890,79.418208
27461,-9.568633,-0.965162,-0.565264,-0.079495,-0.093396,-0.179684,-0.018157,0.018134,-0.049616,-0.095689,-0.009628,-0.005643,1.000000,-0.000091,0.000091,-0.000248,0.098581,0.708442,0.182037,-0.674726,-123.467080,82.701733,79.470072
27462,-9.597353,-1.087875,-0.676100,-0.026295,0.054595,-0.130431,-0.040682,0.015699,-0.036727,-0.095976,-0.010863,-0.006751,1.000000,-0.000203,0.000078,-0.000184,0.098632,0.708430,0.182280,-0.674664,-123.463041,82.685746,79.498659
27463,-9.593348,-1.241512,-0.685082,-0.078805,0.196082,-0.117412,-0.063778,0.018754,-0.040053,-0.095937,-0.012398,-0.006838,1.000000,-0.000319,0.000094,-0.000200,0.098752,0.708416,0.182618,-0.674571,-123.477108,82.666980,79.522763
27464,-9.596622,-1.235612,-0.812126,0.039021,0.235936,-0.105770,-0.055970,0.027936,-0.044119,-0.095970,-0.012337,-0.008104,1.000000,-0.000280,0.000140,-0.000221,0.098821,0.708431,0.182945,-0.674456,-123.509149,82.643593,79.523806
27465,-9.619295,-1.255337,-0.912237,0.121107,0.285990,-0.073980,-0.055198,0.031258,-0.044243,-0.096197,-0.012535,-0.009104,1.000000,-0.000276,0.000156,-0.000221,0.098880,0.708459,0.183269,-0.674330,-123.552442,82.618927,79.512520
27466,-9.618737,-1.253551,-0.867195,0.078849,0.263103,-0.077798,-0.035418,0.028743,-0.045056,-0.096191,-0.012515,-0.008656,1.000000,-0.000177,0.000144,-0.000225,0.098872,0.708487,0.183530,-0.674231,-123.573179,82.594838,79.513088
27467,-9.580787,-1.313077,-0.764968,-0.038561,0.278898,-0.116216,-0.001359,0.024612,-0.041093,-0.095812,-0.013111,-0.007638,1.000000,-0.000007,0.000123,-0.000205,0.098759,0.708521,0.183662,-0.674176,-123.568756,82.573686,79.519433
27468,-9.612917,-1.279692,-0.821179,0.024844,0.262516,-0.083834,0.027380,0.030672,-0.039950,-0.096133,-0.012777,-0.008199,1.000000,0.000137,0.000153,-0.000200,0.098544,0.708591,0.183694,-0.674125,-123.572936,82.551423,79.500412
27469,-9.653951,-1.064322,-0.800442,0.089111,0.048468,-0.067844,0.054615,0.029520,-0.048379,-0.096543,-0.010618,-0.007993,1.000000,0.000273,0.000148,-0.000242,0.098201,0.708664,0.183659,-0.674107,-123.538132,82.525387,79.504184
27470,-9.590040,-0.878608,-0.775400,0.140625,-0.127065,-0.153177,0.038789,0.024718,-0.048908,-0.095904,-0.008761,-0.007744,1.000000,0.000194,0.000124,-0.000245,0.097920,0.708711,0.183682,-0.674093,-123.492606,82.500731,79.528701
27471,-9.565754,-0.873518,-0.729645,0.101077,-0.151015,-0.181174,0.013349,0.029435,-0.056421,-0.095661,-0.008708,-0.007283,1.000000,0.000067,0.000147,-0.000282,0.097703,0.708754,0.183825,-0.674040,-123.461513,82.470657,79.554043
27472,-9.541236,-0.871682,-0.708648,0.082726,-0.162920,-0.207282,-0.008561,0.031364,-0.061617,-0.095416,-0.008688,-0.007071,1.000000,-0.000043,0.000157,-0.000308,0.097542,0.708789,0.184056,-0.673964,-123.437207,82.437822,79.584525
27473,-9.589403,-1.005005,-0.648146,-0.026922,-0.076682,-0.149346,-0.021858,0.034024,-0.068380,-0.095899,-0.010018,-0.006464,1.000000,-0.000109,0.000170,-0.000342,0.097403,0.708820,0.184360,-0.673868,-123.415272,82.400641,79.620684
27474,-9.612201,-1.019408,-0.675452,-0.008366,-0.062573,-0.123216,-0.024938,0.032054,-0.078304,-0.096127,-0.010157,-0.006738,1.000000,-0.000125,0.000160,-0.000392,0.097243,0.708833,0.184705,-0.673783,-123.364042,82.359602,79.687802
27475,-9.590804,-1.012678,-0.803338,0.112193,-0.023739,-0.135847,-0.037062,0.033859,-0.082963,-0.095914,-0.010088,-0.008015,1.000000,-0.000185,0.000169,-0.000415,0.097106,0.708842,0.185109,-0.673683,-123.314899,82.315491,79.759689
27476,-9.570435,-0.992021,-0.810100,0.126857,-0.044880,-0.157871,-0.039192,0.033416,-0.086968,-0.095710,-0.009880,-0.008083,1.000000,-0.000196,0.000167,-0.000435,0.096966,0.708844,0.185533,-0.673584,-123.257832,82.269859,79.840952
27477,-9.597469,-1.113277,-0.874957,0.137659,0.079188,-0.112630,-0.052916,0.040464,-0.091979,-0.095982,-0.011091,-0.008727,1.000000,-0.000265,0.000202,-0.000460,0.096842,0.708862,0.186016,-0.673450,-123.223180,82.219530,79.905988
27478,-9.591208,-1.271988,-0.886603,0.085159,0.220722,-0.099845,-0.051933,0.041535,-0.093909,-0.095920,-0.012677,-0.008843,1.000000,-0.000260,0.000208,-0.000470,0.096716,0.708879,0.186511,-0.673313,-123.187422,82.168007,79.973131
27479,-9.571652,-1.488145,-0.768389,-0.108800,0.365938,-0.103117,-0.028607,0.036330,-0.092357,-0.095725,-0.014838,-0.007664,1.000000,-0.000143,0.000182,-0.000462,0.096512,0.708894,0.186913,-0.673215,-123.126951,82.118844,80.050671
27480,-9.574710,-1.473256,-0.775624,-0.096866,0.345810,-0.100933,0.000244,0.052044,-0.095576,-0.095756,-0.014687,-0.007731,1.000000,0.000001,0.000260,-0.000478,0.096186,0.708970,0.187244,-0.673090,-123.095335,82.063216,80.083466
27481,-9.602011,-1.216026,-0.811756,0.036175,0.112313,-0.100718,-0.004279,0.053863,-0.093888,-0.096028,-0.012115,-0.008091,1.000000,-0.000021,0.000269,-0.000469,0.095877,0.709053,0.187583,-0.672952,-123.078422,82.007698,80.103630
27482,-9.594095,-1.000246,-0.621389,-0.054122,-0.166559,-0.148186,0.009079,0.050683,-0.096912,-0.095947,-0.009956,-0.006190,1.000000,0.000045,0.000253,-0.000485,0.095516,0.709126,0.187888,-0.672841,-123.034974,81.951851,80.143270
27483,-9.555911,-0.941552,-0.535891,-0.109670,-0.258013,-0.199648,-0.023444,0.060938,-0.107021,-0.095566,-0.009365,-0.005329,1.000000,-0.000117,0.000305,-0.000535,0.095225,0.709212,0.188340,-0.672665,-123.026099,81.887867,80.166408
27484,-9.567250,-1.015760,-0.633507,-0.051277,-0.165391,-0.172388,-0.054323,0.065707,-0.120684,-0.095681,-0.010102,-0.006301,1.000000,-0.000272,0.000329,-0.000603,0.094994,0.709283,0.188950,-0.672452,-123.018408,81.815905,80.206638
27485,-9.536707,-1.046250,-0.637949,-0.060317,-0.144119,-0.198845,-0.063281,0.068540,-0.131071,-0.095376,-0.010402,-0.006344,1.000000,-0.000316,0.000343,-0.000655,0.094753,0.709351,0.189624,-0.672224,-123.003618,81.737920,80.258429
27486,-9.505191,-1.083188,-0.691251,-0.026995,-0.098814,-0.221583,-0.072220,0.071260,-0.143399,-0.095062,-0.010766,-0.006875,1.000000,-0.000361,0.000356,-0.000717,0.094504,0.709410,0.190377,-0.671984,-122.976948,81.653306,80.328217
27487,-9.542761,-1.024921,-0.658338,-0.036467,-0.184403,-0.194330,-0.045190,0.072713,-0.147800,-0.095438,-0.010180,-0.006546,1.000000,-0.000226,0.000364,-0.000739,0.094140,0.709484,0.191051,-0.671766,-122.932383,81.566016,80.399766
27488,-9.564973,-0.925710,-0.727825,0.065200,-0.265439,-0.179378,-0.018917,0.070968,-0.150114,-0.095659,-0.009186,-0.007243,1.000000,-0.000095,0.000355,-0.000751,0.093680,0.709560,0.191648,-0.671580,-122.862560,81.478246,80.482337
27489,-9.509302,-1.074582,-0.694272,-0.024264,-0.150043,-0.218916,-0.028898,0.073041,-0.152609,-0.095104,-0.010674,-0.006906,1.000000,-0.000144,0.000365,-0.000763,0.093245,0.709636,0.192291,-0.671376,-122.802758,81.388428,80.560831
27490,-9.430942,-1.329131,-0.747792,-0.076382,0.098327,-0.260048,-0.049070,0.089288,-0.154365,-0.094323,-0.013220,-0.007433,1.000000,-0.000245,0.000446,-0.000772,0.092860,0.709754,0.193013,-0.671097,-122.802174,81.292904,80.590879
27491,-9.486764,-1.535476,-0.786480,-0.127806,0.276247,-0.175143,-0.054681,0.101469,-0.159034,-0.094884,-0.015281,-0.007812,1.000000,-0.000273,0.000507,-0.000795,0.092468,0.709908,0.193775,-0.670769,-122.836182,81.191283,80.589179
27492,-9.527581,-1.576555,-0.721435,-0.208525,0.264645,-0.134504,-0.024976,0.108635,-0.165427,-0.095293,-0.015688,-0.007161,1.000000,-0.000125,0.000543,-0.000827,0.091942,0.710090,0.194464,-0.670449,-122.859680,81.084426,80.580900
27493,-9.523891,-1.249009,-0.377340,-0.396898,-0.184334,-0.209804,0.014874,0.121947,-0.159738,-0.095251,-0.012414,-0.003716,0.999999,0.000074,0.000610,-0.000799,0.091264,0.710344,0.194988,-0.670120,-122.911015,80.976237,80.518551
27494,-9.485251,-0.861251,-0.456741,-0.172511,-0.516184,-0.293017,0.036002,0.117165,-0.150329,-0.094862,-0.008540,-0.004513,1.000000,0.000180,0.000586,-0.000752,0.090563,0.710597,0.195423,-0.669821,-122.953519,80.873981,80.455639
27495,-9.420864,-0.592917,-0.546440,0.013838,-0.729941,-0.385610,0.008734,0.116639,-0.126244,-0.094216,-0.005869,-0.005410,1.000000,0.000044,0.000583,-0.000631,0.090038,0.710858,0.195864,-0.669486,-123.054493,80.783183,80.349270
27496,-9.399829,-0.914464,-0.671254,-0.006613,-0.399929,-0.353110,-0.083167,0.140361,-0.105041,-0.094008,-0.009098,-0.006643,1.000000,-0.000416,0.000702,-0.000525,0.089890,0.711177,0.196547,-0.668966,-123.316555,80.695326,80.133048
27497,-9.533831,-1.319210,-0.794706,-0.069815,-0.019993,-0.155540,-0.158489,0.163287,-0.110210,-0.095352,-0.013146,-0.007859,0.999999,-0.000792,0.000816,-0.000551,0.089967,0.711535,0.197509,-0.668292,-123.674087,80.597454,79.863445
27498,-9.556298,-1.313526,-1.283571,0.365390,0.146767,-0.089486,-0.223646,0.194608,-0.140429,-0.095585,-0.013082,-0.012728,0.999999,-0.001118,0.000973,-0.000702,0.090146,0.711935,0.198811,-0.667455,-124.092525,80.475019,79.570162
27499,-9.520460,-1.558746,-1.671328,0.606750,0.510991,-0.053953,-0.242954,0.171583,-0.124552,-0.095229,-0.015548,-0.016613,0.999999,-0.001215,0.000858,-0.000623,0.090462,0.712267,0.200100,-0.666672,-124.479624,80.367228,79.318300
27500,-9.555786,-1.660750,-0.651853,-0.382666,0.179459,-0.100974,-0.236275,0.177204,-0.094648,-0.095571,-0.016570,-0.006414,0.999999,-0.001181,0.000886,-0.000473,0.090855,0.712646,0.201273,-0.665861,-124.927876,80.271357,79.001925
27501,-9.550510,-1.683765,-0.596445,-0.457952,0.165764,-0.108779,-0.134298,0.176887,-0.070821,-0.095516,-0.016808,-0.005869,0.999999,-0.000671,0.000884,-0.000354,0.090955,0.713096,0.202009,-0.665142,-125.355368,80.186390,78.645439
27502,-9.547745,-1.672024,-0.912045,-0.180102,0.268596,-0.082204,-0.149013,0.174390,-0.086999,-0.095493,-0.016685,-0.009025,0.999999,-0.000745,0.000872,-0.000435,0.091066,0.713510,0.202862,-0.664423,-125.746774,80.094247,78.335845
27503,-9.591834,-1.785957,-1.119551,-0.054342,0.432782,-0.001672,-0.157367,0.182607,-0.099231,-0.095937,-0.017821,-0.011094,0.999999,-0.000787,0.000913,-0.000496,0.091148,0.713938,0.203778,-0.663671,-126.135459,79.993406,78.032079
27504,-9.606380,-1.403321,-0.981952,-0.037804,0.016144,-0.054903,-0.132186,0.190097,-0.093820,-0.096080,-0.013995,-0.009719,0.999999,-0.000661,0.000950,-0.000469,0.091160,0.714404,0.204605,-0.662913,-126.531808,79.892066,77.707485
27505,-9.449478,-1.203417,-1.062265,0.109255,-0.115985,-0.229168,-0.170944,0.151999,-0.049825,-0.094506,-0.012020,-0.010541,0.999999,-0.000855,0.000760,-0.000249,0.091486,0.714772,0.205375,-0.662232,-126.930952,79.823689,77.400825
27506,-9.405260,-1.324446,-0.625613,-0.352009,-0.183696,-0.302337,-0.257910,0.176949,-0.026140,-0.094060,-0.013240,-0.006156,0.999999,-0.001290,0.000885,-0.000131,0.092184,0.715204,0.206371,-0.661360,-127.482734,79.756937,76.991337
27507,-9.531007,-1.505109,-0.883668,-0.218501,0.051351,-0.125795,-0.277638,0.229214,-0.045832,-0.095324,-0.015041,-0.008707,0.999998,-0.001388,0.001146,-0.000229,0.092833,0.715778,0.207523,-0.660286,-128.132503,79.662138,76.493368
27508,-9.691032,-1.495048,-1.434006,0.254582,0.227607,0.091402,-0.306337,0.222908,-0.040976,-0.096929,-0.014952,-0.014209,0.999998,-0.001532,0.001115,-0.000205,0.093607,0.716319,0.208752,-0.659202,-128.780783,79.570786,76.013758
27509,-9.811915,-1.838417,-0.554236,-0.716185,0.143489,0.158624,-0.345026,0.207179,-0.026698,-0.098127,-0.018380,-0.005409,0.999998,-0.001725,0.001036,-0.000133,0.094572,0.716807,0.210032,-0.658126,-129.433064,79.490775,75.550119
27510,-9.574072,-2.193112,-0.660959,-0.783525,0.537649,-0.014401,-0.304519,0.189345,0.005885,-0.095746,-0.021944,-0.006486,0.999998,-0.001523,0.000947,0.000029,0.095529,0.717283,0.211069,-0.657137,-130.074759,79.430429,75.075906
27511,-9.284527,-2.073763,-0.409521,-0.969234,0.371031,-0.347303,-0.248004,0.216795,0.013095,-0.092848,-0.020749,-0.003969,0.999999,-0.001240,0.001084,0.000065,0.096267,0.717885,0.211893,-0.656106,-130.756474,79.362249,74.525819
27512,-9.172202,-2.156453,-0.839962,-0.636633,0.636732,-0.395983,-0.242686,0.244008,0.025149,-0.091729,-0.021586,-0.008262,0.999999,-0.001213,0.001220,0.000126,0.097006,0.718585,0.212683,-0.654974,-131.512492,79.287540,73.899008
27513,-9.200617,-2.149383,-0.771227,-0.724015,0.590912,-0.379101,-0.221761,0.245326,0.052198,-0.092010,-0.021526,-0.007576,0.999999,-0.001109,0.001227,0.000261,0.097751,0.719331,0.213297,-0.653844,-132.305949,79.222512,73.220254
27514,-9.351318,-2.335624,-0.893022,-0.732084,0.776316,-0.191820,-0.157701,0.270718,0.069813,-0.093517,-0.023396,-0.008785,0.999999,-0.000789,0.001354,0.000349,0.098303,0.720204,0.213660,-0.652681,-133.143967,79.153025,72.460104
27515,-9.371278,-2.041013,-1.334140,-0.236556,0.692748,-0.157088,-0.043925,0.262246,0.079046,-0.093722,-0.020450,-0.013214,0.999999,-0.000220,0.001311,0.000395,0.098478,0.721116,0.213605,-0.651664,-133.909007,79.088921,71.706510
27516,-9.221062,-1.455496,-1.463338,0.117507,0.250696,-0.367524,-0.034839,0.266804,0.085739,-0.092224,-0.014597,-0.014508,0.999999,-0.000174,0.001334,0.000429,0.098643,0.722051,0.213508,-0.650635,-134.681973,79.023650,70.940583
27517,-9.202202,-1.321364,-1.841519,0.487775,0.291554,-0.352523,-0.131187,0.298833,0.097476,-0.092043,-0.013271,-0.018269,0.999999,-0.000656,0.001494,0.000487,0.099157,0.723054,0.213697,-0.649381,-135.590904,78.947785,70.092035
27518,-9.474111,-1.682346,-1.695768,0.147579,0.500163,-0.056016,-0.159546,0.325499,0.109746,-0.094759,-0.016889,-0.016790,0.999998,-0.000798,0.001627,0.000549,0.099787,0.724139,0.213946,-0.647991,-136.583563,78.863311,69.174651
27519,-9.594819,-1.801021,-2.072062,0.389498,0.741084,0.131993,-0.126861,0.295489,0.110506,-0.095969,-0.018076,-0.020567,0.999999,-0.000634,0.001477,0.000553,0.100330,0.725142,0.214072,-0.646743,-137.485603,78.788590,68.330145
27520,-9.409077,-1.474745,-2.130940,0.568184,0.509507,-0.083144,-0.081506,0.259200,0.110010,-0.094110,-0.014808,-0.021181,0.999999,-0.000408,0.001296,0.000550,0.100749,0.726048,0.214033,-0.645673,-138.280055,78.726907,67.568789
27521,-9.311722,-1.214895,-2.139076,0.669969,0.300778,-0.209542,-0.068442,0.236999,0.117072,-0.093135,-0.012211,-0.021276,0.999999,-0.000342,0.001185,0.000585,0.101164,0.726896,0.213915,-0.644693,-139.031655,78.675196,66.843216
27522,-9.404156,-1.159646,-2.001111,0.537353,0.178721,-0.144874,-0.096687,0.236185,0.119392,-0.094058,-0.011662,-0.019894,0.999999,-0.000483,0.001181,0.000597,0.101692,0.727727,0.213879,-0.643684,-139.796594,78.623081,66.120545
27523,-9.548308,-1.255263,-1.735176,0.219636,0.127256,-0.030448,-0.109948,0.221408,0.110908,-0.095495,-0.012615,-0.017239,0.999999,-0.000550,0.001107,0.000555,0.102254,0.728494,0.213910,-0.642716,-140.516566,78.572221,65.451283
27524,-9.619161,-1.134806,-1.769450,0.273495,0.024578,0.029647,-0.101989,0.191523,0.101785,-0.096203,-0.011406,-0.017597,0.999999,-0.000510,0.000958,0.000509,0.102792,0.729157,0.213931,-0.641870,-141.153299,78.530063,64.862271
27525,-9.642330,-0.943243,-1.973314,0.516530,-0.059930,0.060903,-0.132966,0.169448,0.093846,-0.096436,-0.009491,-0.019645,0.999999,-0.000665,0.000847,0.000469,0.103439,0.729725,0.214070,-0.641074,-141.746811,78.493439,64.335260
27526,-9.728180,-1.182436,-2.081505,0.478336,0.187152,0.192533,-0.208151,0.143782,0.086703,-0.097292,-0.011888,-0.020733,0.999999,-0.001041,0.000719,0.000434,0.104366,0.730162,0.214461,-0.640295,-142.320234,78.465094,63.872787
27527,-9.698814,-1.741609,-2.135493,0.258489,0.716932,0.241152,-0.216713,0.127039,0.100005,-0.096993,-0.017488,-0.021274,0.999999,-0.001084,0.000635,0.000500,0.105383,0.730555,0.214823,-0.639559,-142.896959,78.447781,63.411794
27528,-9.676650,-2.193404,-2.097869,0.004066,1.112659,0.267569,-0.178717,0.107909,0.122378,-0.096764,-0.022012,-0.020907,0.999999,-0.000894,0.000540,0.000612,0.106356,0.730928,0.214971,-0.638921,-143.469141,78.446293,62.933320
27529,-9.583059,-2.630735,-2.075818,-0.221064,1.516883,0.222998,-0.079179,0.072328,0.142843,-0.095819,-0.026384,-0.020713,1.000000,-0.000396,0.000362,0.000714,0.107065,0.731263,0.214707,-0.638507,-143.971413,78.466946,62.467920
27530,-9.481871,-2.437512,-1.983539,-0.218347,1.335689,0.084282,0.093881,0.061650,0.160809,-0.094805,-0.024442,-0.019818,1.000000,0.000469,0.000308,0.000804,0.107214,0.731675,0.213819,-0.638310,-144.400209,78.498160,61.976443
27531,-9.581309,-1.742929,-1.959691,0.055381,0.704317,0.095922,0.206395,0.062725,0.168969,-0.095804,-0.017490,-0.019585,0.999999,0.001032,0.000314,0.000845,0.106972,0.732158,0.212543,-0.638222,-144.786985,78.530521,61.462020
27532,-9.556338,-1.212477,-1.792571,0.139325,0.177962,-0.016979,0.247148,0.055158,0.174118,-0.095558,-0.012186,-0.017914,0.999999,0.001236,0.000276,0.000871,0.106608,0.732642,0.211112,-0.638202,-145.153196,78.567811,60.944917
27533,-9.438338,-1.196429,-1.733966,0.098720,0.170358,-0.144103,0.275655,0.051657,0.176579,-0.094377,-0.012024,-0.017332,0.999999,0.001378,0.000258,0.000883,0.106149,0.733132,0.209581,-0.638221,-145.505592,78.606532,60.425221
27534,-9.632314,-1.264927,-1.626813,-0.052505,0.163141,0.036102,0.329115,0.065380,0.165398,-0.096318,-0.012702,-0.016258,0.999998,0.001646,0.000327,0.000827,0.105446,0.733679,0.207925,-0.638250,-145.826237,78.634918,59.906822
27535,-9.716637,-1.117551,-1.571418,-0.050306,0.003190,0.093309,0.417607,0.046526,0.148997,-0.097162,-0.011215,-0.015715,0.999998,0.002088,0.000233,0.000745,0.104382,0.734193,0.206037,-0.638446,-146.028535,78.666148,59.457351
27536,-9.699782,-0.730406,-1.817203,0.338046,-0.230398,0.074382,0.440838,0.019797,0.127806,-0.096995,-0.007326,-0.018179,0.999997,0.002204,0.000099,0.000639,0.103195,0.734608,0.204137,-0.638773,-146.126965,78.703450,59.100407
27537,-9.537312,-0.443373,-2.066143,0.701884,-0.351841,-0.075675,0.379606,-0.014912,0.117628,-0.095369,-0.004451,-0.020677,0.999998,0.001898,-0.000075,0.000588,0.102232,0.734867,0.202451,-0.639166,-146.181428,78.753626,58.823870
27538,-9.307485,-0.514086,-2.254807,0.866792,-0.167073,-0.262898,0.289417,-0.039738,0.100881,-0.093068,-0.005155,-0.022574,0.999999,0.001447,-0.000199,0.000504,0.101575,0.734980,0.201101,-0.639567,-146.209796,78.810545,58.626921
27539,-9.184704,-0.845330,-2.332095,0.812208,0.188726,-0.335518,0.217774,-0.056071,0.087379,-0.091837,-0.008468,-0.023356,0.999999,0.001089,-0.000280,0.000437,0.101151,0.734991,0.200021,-0.639960,-146.220863,78.870583,58.489288
27540,-9.274088,-1.073097,-2.215014,0.607363,0.338567,-0.242786,0.229619,-0.063807,0.082693,-0.092729,-0.010744,-0.022192,0.999999,0.001148,-0.000319,0.000413,0.100679,0.734976,0.198917,-0.640395,-146.202463,78.933157,58.374994
27541,-9.414438,-1.038837,-2.123214,0.532873,0.255014,-0.124041,0.276042,-0.082154,0.081026,-0.094131,-0.010397,-0.021285,0.999999,0.001380,-0.000411,0.000405,0.100046,0.734924,0.197661,-0.640943,-146.123016,79.003559,58.295616
27542,-9.505442,-0.844769,-1.793038,0.316796,-0.059545,-0.108146,0.301856,-0.097459,0.071811,-0.095043,-0.008455,-0.017989,0.999999,0.001509,-0.000487,0.000359,0.099307,0.734824,0.196347,-0.641576,-145.981472,79.078706,58.264650
27543,-9.611363,-0.710558,-1.754058,0.337488,-0.206241,-0.024763,0.308204,-0.102703,0.062930,-0.096102,-0.007109,-0.017601,0.999999,0.001541,-0.000514,0.000315,0.098518,0.734700,0.195043,-0.642237,-145.804072,79.153105,58.266301
27544,-9.598855,-0.446001,-1.642535,0.358370,-0.480962,-0.082575,0.267006,-0.118414,0.046062,-0.095978,-0.004460,-0.016488,0.999999,0.001335,-0.000592,0.000230,0.097844,0.734486,0.193924,-0.642923,-145.581179,79.229891,58.338498
27545,-9.418162,-0.448790,-1.735669,0.471411,-0.406948,-0.245666,0.177793,-0.130328,0.024871,-0.094170,-0.004484,-0.017422,0.999999,0.000889,-0.000652,0.000124,0.097439,0.734170,0.193165,-0.643574,-145.333907,79.304946,58.487381
27546,-9.349382,-0.628539,-1.870826,0.539443,-0.174369,-0.274104,0.101979,-0.127451,0.012469,-0.093481,-0.006282,-0.018771,1.000000,0.000510,-0.000637,0.000062,0.097272,0.733812,0.192695,-0.644148,-145.101503,79.374889,58.665434
27547,-9.477814,-0.896196,-1.793650,0.359652,0.023157,-0.131808,0.083063,-0.117957,0.000895,-0.094768,-0.008955,-0.017996,1.000000,0.000415,-0.000590,0.000004,0.097124,0.733466,0.192334,-0.644672,-144.864833,79.436029,58.858649
27548,-9.638045,-0.979421,-1.787048,0.317057,0.075149,0.033049,0.090903,-0.124650,-0.016073,-0.096370,-0.009778,-0.017935,1.000000,0.000455,-0.000623,-0.000080,0.096903,0.733083,0.192006,-0.645238,-144.566551,79.494925,59.110091
27549,-9.741339,-1.032942,-1.604614,0.134368,0.039274,0.112826,0.110542,-0.139164,-0.037819,-0.097404,-0.010302,-0.016120,1.000000,0.000553,-0.000696,-0.000189,0.096550,0.732644,0.191687,-0.645885,-144.172627,79.552633,59.447121
27550,-9.739601,-0.937577,-1.575014,0.163412,-0.057666,0.096373,0.164622,-0.148447,-0.064543,-0.097387,-0.009331,-0.015830,0.999999,0.000823,-0.000742,-0.000323,0.095925,0.732172,0.191287,-0.646631,-143.659207,79.605544,59.874270
27551,-9.490920,-0.646400,-1.741970,0.474592,-0.220270,-0.155769,0.180588,-0.158021,-0.088503,-0.094898,-0.006406,-0.017500,0.999999,0.000903,-0.000790,-0.000443,0.095169,0.731655,0.190917,-0.647437,-143.053322,79.653545,60.385695
27552,-9.368613,-0.374813,-1.845195,0.708729,-0.412865,-0.292007,0.162178,-0.153594,-0.131460,-0.093674,-0.003672,-0.018527,0.999999,0.000811,-0.000768,-0.000657,0.094341,0.731099,0.190766,-0.648230,-142.354413,79.683924,61.002691
27553,-9.315616,0.070364,-1.827129,0.896070,-0.824970,-0.397779,0.143345,-0.154908,-0.178247,-0.093141,0.000800,-0.018343,0.999999,0.000717,-0.000775,-0.000891,0.093427,0.730486,0.190846,-0.649029,-141.544394,79.696534,61.743228
27554,-9.247425,0.174115,-1.328515,0.510016,-1.113045,-0.549260,0.155689,-0.148506,-0.238246,-0.092462,0.001862,-0.013352,0.999999,0.000778,-0.000743,-0.001191,0.092271,0.729839,0.191108,-0.649845,-140.591850,79.683026,62.621759
27555,-9.484836,0.428171,-1.292378,0.581691,-1.415241,-0.353601,0.229208,-0.131144,-0.308860,-0.094833,0.004443,-0.012981,0.999998,0.001146,-0.000656,-0.001544,0.090597,0.729215,0.191396,-0.650696,-139.466905,79.632680,63.632521
27556,-9.670288,1.493900,-1.790367,1.471054,-2.252867,-0.236046,0.159627,-0.141875,-0.404485,-0.096660,0.015149,-0.017960,0.999997,0.000798,-0.000709,-0.002022,0.088879,0.728427,0.192254,-0.651562,-138.147601,79.547387,64.881935
27557,-9.824948,1.776331,-1.333162,1.184545,-2.744477,-0.193607,0.098771,-0.176307,-0.525836,-0.098191,0.018028,-0.013409,0.999996,0.000494,-0.000882,-0.002629,0.087016,0.727381,0.193734,-0.652543,-136.540742,79.423415,66.459377
27558,-10.379123,2.044175,-1.962340,1.866343,-2.887256,0.382199,-0.017056,-0.174468,-0.648071,-0.103707,0.020776,-0.019716,0.999994,-0.000085,-0.000872,-0.003240,0.085176,0.726163,0.196037,-0.653454,-134.780402,79.241654,68.261634
27559,-10.722460,2.361214,-3.825429,3.729709,-2.573353,0.894641,-0.379427,-0.287772,-0.796051,-0.107074,0.023966,-0.038454,0.999989,-0.001897,-0.001439,-0.003980,0.084276,0.724267,0.200008,-0.654471,-132.743941,79.032334,70.557342
27560,-9.928378,1.197259,-2.937880,2.571261,-1.760415,0.133476,-0.604480,-0.361511,-0.909426,-0.099175,0.012334,-0.029595,0.999983,-0.003022,-0.001808,-0.004547,0.083894,0.721898,0.205091,-0.655562,-130.542124,78.786915,73.154999
27561,-9.154825,-0.855460,-2.862887,1.774800,0.157831,-0.348891,-0.641733,-0.358523,-0.974879,-0.091537,-0.008201,-0.028766,0.999981,-0.003209,-0.001793,-0.004874,0.083424,0.719436,0.210523,-0.656607,-128.362851,78.492410,75.753474
27562,-9.249468,-2.429341,-2.159550,0.537219,1.210140,-0.098563,-0.298569,-0.330510,-1.050149,-0.092585,-0.023840,-0.021713,0.999984,-0.001493,-0.001653,-0.005251,0.081442,0.717101,0.215107,-0.657923,-126.050906,78.134097,78.290049
27563,-10.696822,-1.788024,-0.847247,-0.379568,-0.265844,1.055649,0.255492,-0.274211,-1.123944,-0.107055,-0.017268,-0.008642,0.999982,0.001277,-0.001371,-0.005620,0.077168,0.715078,0.218147,-0.659636,-123.591825,77.701475,80.656073
27564,-11.753179,-0.116026,-0.705474,0.236692,-2.144344,1.762810,0.412224,-0.342032,-1.247723,-0.117524,-0.000412,-0.007257,0.999977,0.002061,-0.001710,-0.006239,0.071995,0.712724,0.221079,-0.661790,-120.898960,77.207819,83.173825
27565,-12.105031,1.813226,-1.214295,1.582203,-3.864990,1.756668,0.308915,-0.311110,-1.380011,-0.120902,0.018986,-0.012302,0.999974,0.001545,-0.001556,-0.006900,0.066716,0.710259,0.224819,-0.663730,-118.378582,76.615467,85.580323
27566,-12.283763,2.630387,-1.514933,2.287078,-4.653417,1.729264,-0.026463,-0.204942,-1.526484,-0.122616,0.027238,-0.015279,0.999970,-0.000132,-0.001025,-0.007632,0.062018,0.707826,0.230222,-0.664932,-116.324126,75.899002,87.711916
27567,-12.296568,2.878368,-2.245263,3.154255,-4.734503,1.683558,-0.212826,-0.125216,-1.599926,-0.122716,0.029742,-0.022561,0.999967,-0.001064,-0.000626,-0.008000,0.057643,0.705478,0.236505,-0.665615,-114.672658,75.109667,89.544174
27568,-12.294523,2.546624,-2.232572,3.104441,-4.593880,1.671234,-0.283085,-0.106125,-1.604869,-0.122724,0.026420,-0.022428,0.999967,-0.001415,-0.000531,-0.008024,0.053470,0.703115,0.243038,-0.666110,-113.264433,74.300575,91.173257
27569,-11.769943,2.118180,-2.479748,3.238579,-4.119451,1.219381,-0.317534,-0.032632,-1.536251,-0.117528,0.022046,-0.024851,0.999969,-0.001588,-0.000163,-0.007681,0.049556,0.701034,0.249439,-0.666240,-112.209712,73.503319,92.460815
27570,-10.945290,2.535356,-2.568040,3.553040,-4.334009,0.257709,-0.279626,0.023172,-1.306599,-0.109287,0.026032,-0.025704,0.999978,-0.001398,0.000116,-0.006533,0.046200,0.699390,0.254920,-0.666134,-111.488496,72.809995,93.382788
27571,-10.219031,3.536475,-1.308962,2.866664,-5.581796,-0.909115,-0.068059,-0.020424,-0.916490,-0.102025,0.035828,-0.013112,0.999989,-0.000340,-0.000102,-0.004582,0.043457,0.698131,0.258306,-0.666335,-110.888788,72.331593,94.052693
27572,-8.707195,5.551473,-0.693965,3.149125,-7.157423,-3.032583,-0.001563,-0.017083,-0.445893,-0.086947,0.055709,-0.006948,0.999998,-0.000008,-0.000085,-0.002229,0.042046,0.697490,0.259834,-0.666503,-110.577096,72.102595,94.382020
27573,-7.175996,6.684792,-0.943852,3.836901,-7.566414,-4.802728,-0.526408,0.030240,-0.005667,-0.071760,0.066825,-0.009604,0.999997,-0.002632,0.000151,-0.000028,0.043870,0.697471,0.261574,-0.665725,-110.925790,72.100538,94.332900
27574,-7.274967,5.052247,-1.135336,3.340644,-6.086796,-4.197520,-0.833815,0.183852,0.410605,-0.072864,0.050325,-0.011496,0.999989,-0.004169,0.000919,0.002053,0.047950,0.698423,0.262924,-0.663911,-111.974854,72.287465,93.733890
27575,-8.752363,3.059403,-0.856436,2.247506,-4.894344,-2.217238,-0.669362,0.242069,0.813642,-0.087657,0.030209,-0.008560,0.999985,-0.003347,0.001210,0.004068,0.052717,0.700127,0.262317,-0.661992,-113.334143,72.671630,92.710916
27576,-10.004831,1.486472,-0.499594,1.207922,-3.992988,-0.584929,-0.395552,0.180841,1.196573,-0.100139,0.014256,-0.004934,0.999980,-0.001978,0.000904,0.005983,0.057870,0.702170,0.259449,-0.660526,-114.780924,73.261978,91.435868
27577,-10.442097,0.765225,-0.047600,0.416103,-3.577579,0.018430,-0.052309,0.083505,1.534964,-0.104476,0.006850,-0.000434,0.999970,-0.000262,0.000418,0.007675,0.063061,0.704402,0.254206,-0.659712,-116.252725,74.042610,89.933529
27578,-10.416970,1.081451,0.329377,0.133070,-3.857786,-0.071642,0.220987,0.041499,1.835038,-0.104262,0.009854,0.003327,0.999957,0.001105,0.000207,0.009175,0.068326,0.706905,0.246985,-0.659254,-117.930242,74.974484,88.062495
27579,-10.594899,1.889997,0.341271,0.377741,-4.443771,-0.012350,0.250896,0.062181,2.036351,-0.106133,0.017816,0.003468,0.999947,0.001254,0.000311,0.010182,0.074119,0.709673,0.238924,-0.658624,-120.097024,75.985298,85.676005
27580,-11.030432,2.201353,0.659568,0.109120,-4.770807,0.393882,0.108940,0.090791,2.138648,-0.110528,0.020829,0.006657,0.999943,0.000545,0.000454,0.010693,0.080708,0.712519,0.230964,-0.657616,-122.887484,77.009868,82.743215
27581,-11.184058,1.768680,0.904112,-0.418696,-4.328361,0.680824,-0.126689,0.097285,2.174555,-0.112020,0.016475,0.009085,0.999941,-0.000633,0.000486,0.010873,0.088241,0.715255,0.223613,-0.656217,-126.373482,78.011404,79.247409
27582,-11.317004,0.928313,0.888058,-0.890131,-3.398499,1.021418,-0.348754,0.099690,2.189434,-0.113258,0.008059,0.008922,0.999938,-0.001744,0.000498,0.010947,0.096600,0.717824,0.216925,-0.654477,-130.634444,78.964613,75.104143
27583,-11.410995,-0.428798,0.712372,-1.446959,-1.924193,1.372166,-0.510449,0.072470,2.170376,-0.114052,-0.005508,0.007178,0.999938,-0.002552,0.000362,0.010852,0.105498,0.720121,0.210779,-0.652585,-135.654522,79.851656,70.294997
27584,-11.493534,-1.931630,0.662918,-2.187005,-0.364552,1.648162,-0.542529,0.025005,2.137649,-0.114719,-0.020525,0.006698,0.999939,-0.002713,0.000125,0.010688,0.114439,0.722117,0.204820,-0.650769,-141.379239,80.659320,64.803162
27585,-11.197810,-2.943501,0.749139,-2.804843,0.755188,1.420045,-0.522370,-0.051726,2.067573,-0.111668,-0.030571,0.007541,0.999943,-0.002612,-0.000259,0.010338,0.123147,0.723722,0.198964,-0.649211,-147.706008,81.378373,58.701363
27586,-10.609483,-3.387388,1.016799,-3.293993,1.309411,0.793938,-0.453881,-0.122004,1.998205,-0.105756,-0.034909,0.010182,0.999947,-0.002269,-0.000610,0.009991,0.131435,0.724986,0.193088,-0.647948,-154.629191,81.998357,51.968789
27587,-10.018349,-3.323373,1.209881,-3.469177,1.416292,0.128723,-0.490113,-0.192524,1.923517,-0.099870,-0.034166,0.012086,0.999950,-0.002451,-0.000963,0.009617,0.139671,0.725856,0.187518,-0.646887,-162.194587,82.513018,44.617733
27588,-9.512928,-3.575191,1.437526,-3.809423,1.750432,-0.444339,-0.571790,-0.250054,1.824853,-0.094816,-0.036577,0.014360,0.999954,-0.002859,-0.001250,0.009124,0.147920,0.726315,0.182527,-0.645965,-170.237407,82.906659,36.840909
27589,-9.379729,-3.788414,1.394232,-3.919466,2.119042,-0.624629,-0.647948,-0.291777,1.743497,-0.093483,-0.038655,0.013930,0.999956,-0.003240,-0.001459,0.008717,0.156212,0.726444,0.178017,-0.645125,-178.685386,83.174006,28.704887
27590,-9.575722,-4.039277,0.916302,-3.695698,2.689519,-0.434205,-0.790464,-0.347195,1.642010,-0.095437,-0.041141,0.009159,0.999957,-0.003952,-0.001736,0.008210,0.164726,0.726127,0.174289,-0.644383,172.778545,83.327493,20.566531
27591,-9.606325,-4.330156,1.055115,-4.015052,3.012081,-0.487995,-0.895692,-0.415122,1.510134,-0.095755,-0.043978,0.010548,0.999959,-0.004478,-0.002076,0.007551,0.173246,0.725329,0.171296,-0.643849,164.504304,83.392266,12.753803
27592,-9.672639,-4.281034,0.790738,-3.820499,3.210554,-0.452824,-0.985361,-0.484477,1.371353,-0.096449,-0.043433,0.007886,0.999961,-0.004927,-0.002422,0.006857,0.181686,0.724051,0.169033,-0.643559,156.683406,83.394148,5.450118
27593,-9.658500,-3.678361,0.330139,-3.173041,3.012813,-0.443614,-1.157824,-0.567108,1.185539,-0.096374,-0.037336,0.003243,0.999962,-0.005789,-0.002836,0.005928,0.190212,0.722138,0.167900,-0.643541,149.458264,83.376091,-1.154819
27594,-9.390484,-4.202960,0.811870,-3.851027,3.319944,-0.832035,-1.295405,-0.588688,0.960818,-0.093726,-0.042428,0.008117,0.999963,-0.006477,-0.002943,0.004804,0.198511,0.719780,0.167997,-0.643651,143.112017,83.350563,-6.795579
27595,-9.332704,-4.576236,-0.418450,-3.012636,4.323423,-0.843415,-1.522705,-0.583783,0.732132,-0.093147,-0.046135,-0.004106,0.999960,-0.007613,-0.002919,0.003661,0.206878,0.716965,0.169633,-0.643729,137.577018,83.338758,-11.488916
27596,-9.087593,-5.209131,-1.357414,-2.558167,5.392475,-1.098422,-1.600645,-0.577445,0.492287,-0.090708,-0.052423,-0.013418,0.999961,-0.008003,-0.002887,0.002461,0.214725,0.713829,0.172380,-0.643915,132.884588,83.373284,-15.288735
27597,-9.349057,-5.642299,-1.463501,-2.780220,5.855028,-0.903652,-1.545126,-0.523978,0.283067,-0.093372,-0.056667,-0.014443,0.999966,-0.007726,-0.002620,0.001415,0.221642,0.710691,0.175734,-0.644136,129.056151,83.445066,-18.250557
27598,-9.330908,-5.911205,-2.767947,-1.887836,6.808154,-0.882154,-1.537224,-0.531014,0.114069,-0.093202,-0.059377,-0.027471,0.999967,-0.007686,-0.002655,0.000570,0.227975,0.707342,0.179649,-0.644531,125.646684,83.575143,-20.794548
27599,-8.757804,-6.023915,-3.206818,-1.579044,7.139035,-1.457392,-1.258146,-0.484862,-0.054019,-0.087517,-0.060417,-0.031901,0.999977,-0.006291,-0.002424,-0.000270,0.232727,0.704269,0.183298,-0.645170,122.957385,83.754057,-22.774122
27600,-8.234765,-5.655833,-3.380698,-1.217127,6.918965,-1.946598,-1.041139,-0.404508,-0.174456,-0.082329,-0.056662,-0.033679,0.999984,-0.005206,-0.002023,-0.000872,0.236241,0.701571,0.186761,-0.645840,120.971388,83.958426,-24.170603
27601,-7.615712,-5.192621,-4.324456,-0.155169,7.057733,-2.475963,-0.918231,-0.313003,-0.235203,-0.076151,-0.052035,-0.043125,0.999988,-0.004591,-0.001565,-0.001176,0.239037,0.699236,0.190141,-0.646356,119.551011,84.161677,-25.068729
27602,-7.137506,-4.835419,-4.906923,0.537429,7.087370,-2.892901,-0.723475,-0.166788,-0.265236,-0.071398,-0.048437,-0.048954,0.999992,-0.003617,-0.000834,-0.001326,0.240910,0.697564,0.193169,-0.646570,118.990018,84.337558,-25.214931
27603,-7.117943,-4.775652,-6.404854,1.750688,7.915684,-2.829063,-0.647290,0.039431,-0.284683,-0.071260,-0.047862,-0.063880,0.999994,-0.003236,0.000197,-0.001423,0.242252,0.696622,0.196264,-0.646152,119.575138,84.465247,-24.253432
27604,-7.728814,-5.235259,-8.562060,3.113980,9.578706,-2.131382,-0.550883,0.317159,-0.335561,-0.077512,-0.052458,-0.085353,0.999994,-0.002754,0.001586,-0.001678,0.242817,0.696635,0.199560,-0.644915,121.841985,84.534502,-21.658001
27605,-9.341306,-5.613979,-8.578277,2.708819,9.913546,-0.498904,-0.107579,0.644585,-0.400316,-0.093801,-0.055998,-0.085451,0.999993,-0.000538,0.003223,-0.002002,0.241298,0.698170,0.202046,-0.643048,126.253619,84.514725,-17.163458
27606,-12.656518,-5.474309,-5.221393,-0.209986,7.817865,2.687488,0.913542,0.665052,-0.323245,-0.126826,-0.054300,-0.052041,0.999983,0.004568,0.003325,-0.001616,0.236438,0.701062,0.201000,-0.642034,130.980926,84.419096,-12.938905
27607,-14.649027,-3.381442,-0.573136,-2.882347,3.396585,4.557827,2.419673,0.211288,0.006752,-0.146495,-0.033748,-0.005985,0.999926,0.012098,0.001056,0.000034,0.227788,0.704548,0.193408,-0.643675,133.194155,84.332900,-12.107352
27608,-13.005253,0.799110,4.471758,-4.508703,-2.860187,2.886139,3.040348,-0.292640,0.284668,-0.130128,0.007127,0.044640,0.999882,0.015201,-0.001463,0.001423,0.218294,0.707251,0.182229,-0.647253,132.517290,84.325376,-14.537093
27609,-10.313439,4.799301,6.171961,-3.625454,-7.079394,0.396579,2.053886,-0.314129,0.312981,-0.103306,0.047195,0.062045,0.999945,0.010269,-0.001571,0.001565,0.212358,0.708713,0.174089,-0.649864,131.085643,84.309595,-17.157562
27610,-7.654940,5.620468,3.410313,-0.697908,-6.345668,-1.998388,0.516750,0.081943,0.098420,-0.076563,0.056079,0.034279,0.999996,0.002584,0.000410,0.000492,0.210818,0.709600,0.172112,-0.649924,131.301127,84.234062,-17.237548
27611,-7.815381,5.214482,0.933149,1.162429,-4.706232,-1.710721,-0.703469,0.539563,-0.134523,-0.078093,0.052230,0.009359,0.999990,-0.003517,0.002698,-0.000673,0.212453,0.710478,0.175408,-0.647547,133.576520,84.080302,-14.544147
27612,-9.463490,2.968312,0.679753,0.043632,-2.650017,-0.231144,-1.629299,0.601662,-0.266996,-0.094575,0.029865,0.006839,0.999961,-0.008146,0.003008,-0.001335,0.216884,0.710422,0.182228,-0.644247,135.943109,83.944345,-11.224934
27613,-10.408545,0.316675,0.810316,-1.591088,-0.522516,0.497007,-2.057763,0.496635,-0.253281,-0.104061,0.003383,0.008328,0.999943,-0.010289,0.002483,-0.001266,0.222955,0.709509,0.190249,-0.640854,137.514047,83.835022,-8.458314
27614,-10.157685,-1.563737,0.095765,-2.052863,1.374486,0.163739,-2.026742,0.414059,-0.137141,-0.101585,-0.015556,0.001326,0.999946,-0.010134,0.002070,-0.000686,0.229343,0.708397,0.197645,-0.637583,138.285248,83.710218,-6.513395
27615,-9.497539,-2.766869,-0.994127,-1.845165,2.931985,-0.493600,-1.482630,0.406873,-0.054951,-0.095003,-0.027714,-0.009543,0.999970,-0.007413,0.002034,-0.000275,0.234053,0.707909,0.202992,-0.634727,138.970935,83.554758,-4.967662
27616,-9.376587,-3.262138,-1.786772,-1.550359,3.762709,-0.582710,-0.563114,0.541941,-0.014012,-0.093816,-0.032664,-0.017522,0.999992,-0.002816,0.002710,-0.000070,0.235493,0.708941,0.205425,-0.632255,140.391366,83.321933,-3.212090
27617,-10.139811,-2.881412,-1.800499,-1.454253,3.435060,0.209556,0.239428,0.586126,-0.029660,-0.101455,-0.028778,-0.017742,0.999995,0.001197,0.002931,-0.000148,0.233990,0.711032,0.205428,-0.630462,142.343797,83.069221,-1.382885
27618,-10.534883,-2.245482,-2.098754,-0.914341,3.064614,0.685061,0.866355,0.452589,-0.058350,-0.105403,-0.022334,-0.020846,0.999988,0.004332,0.002263,-0.000292,0.230302,0.713394,0.203395,-0.629810,144.261551,82.880431,0.050245
27619,-9.756870,-0.015521,-2.736519,0.983718,1.587541,0.147087,1.286219,0.294145,-0.040836,-0.097609,0.000040,-0.027222,0.999978,0.006431,0.001471,-0.000204,0.225323,0.715735,0.199791,-0.630109,145.866611,82.755157,0.926332
27620,-9.014750,2.245140,-4.243110,3.581388,0.545676,-0.263561,1.155128,0.265446,-0.015133,-0.090202,0.022702,-0.042181,0.999982,0.005776,0.001327,-0.000076,0.220916,0.717835,0.196465,-0.630326,147.187192,82.632604,1.591479
27621,-9.134567,3.373571,-5.599878,5.293300,0.310228,0.090049,0.818559,0.281827,-0.062287,-0.091414,0.033993,-0.055731,0.999991,0.004093,0.001409,-0.000311,0.217544,0.719550,0.194384,-0.630188,148.499071,82.514614,2.442499
27622,-9.703764,3.711243,-5.601071,5.389992,-0.040228,0.687520,0.511401,0.315825,-0.170035,-0.097094,0.037338,-0.055762,0.999995,0.002557,0.001579,-0.000850,0.214903,0.720923,0.193691,-0.629739,150.072976,82.408640,3.735572
27623,-10.029240,2.953940,-4.335759,3.875470,-0.167525,0.820408,0.218492,0.231035,-0.255834,-0.100304,0.029715,-0.043209,0.999998,0.001092,0.001155,-0.001279,0.213126,0.721628,0.194137,-0.629398,151.591185,82.364358,5.141774
27624,-9.960793,2.029600,-2.650245,1.985534,-0.363509,0.496818,0.031446,0.127801,-0.277092,-0.099597,0.020438,-0.026436,0.999999,0.000157,0.000639,-0.001385,0.212059,0.721784,0.195138,-0.629270,152.862520,82.373730,6.407304
27625,-9.796168,1.531394,-1.335694,0.656031,-0.699329,0.145959,-0.063949,0.085188,-0.303937,-0.097944,0.015459,-0.013320,0.999999,-0.000320,0.000426,-0.001520,0.211290,0.721679,0.196489,-0.629228,154.108049,82.407859,7.701540
27626,-9.528304,1.697518,-0.726587,0.290110,-1.196716,-0.185554,-0.204665,0.116664,-0.325911,-0.095259,0.017123,-0.007228,0.999998,-0.001023,0.000583,-0.001630,0.210931,0.721499,0.198396,-0.628957,155.423775,82.427475,9.148184
27627,-9.543826,1.780662,-0.260554,-0.038258,-1.553236,-0.225761,-0.458984,0.158998,-0.356306,-0.095408,0.017971,-0.002571,0.999995,-0.002295,0.000795,-0.001782,0.211347,0.721151,0.201255,-0.628307,156.794574,82.427193,10.797000
27628,-9.579988,1.345562,-0.177322,-0.339395,-1.270638,-0.226847,-0.680215,0.171625,-0.382997,-0.095775,0.013633,-0.001737,0.999992,-0.003401,0.000858,-0.001915,0.212466,0.720571,0.204916,-0.627412,158.162344,82.421190,12.570993
27629,-9.490033,0.371440,-0.332847,-0.735922,-0.408784,-0.346923,-0.698980,0.145113,-0.381611,-0.094895,0.003884,-0.003273,0.999992,-0.003495,0.000726,-0.001908,0.213677,0.719880,0.208599,-0.626579,159.472252,82.423312,14.297139
27630,-9.491094,-0.608118,-0.481596,-1.164463,0.446788,-0.371982,-0.555655,0.139654,-0.364443,-0.094925,-0.005921,-0.004733,0.999994,-0.002778,0.000698,-0.001822,0.214432,0.719330,0.211763,-0.625891,160.784879,82.420117,15.943517
27631,-9.490452,-1.211673,-0.947076,-1.130674,1.174568,-0.337686,-0.373889,0.132710,-0.328312,-0.094931,-0.011979,-0.009385,0.999997,-0.001869,0.000664,-0.001642,0.214648,0.718988,0.214219,-0.625374,162.043912,82.408951,17.430503
27632,-9.589805,-1.330940,-1.125865,-1.064859,1.339938,-0.217173,-0.084845,0.136238,-0.308686,-0.095926,-0.013166,-0.011188,0.999998,-0.000424,0.000681,-0.001543,0.213885,0.718983,0.215704,-0.625131,163.385597,82.388337,18.834140
27633,-9.850830,-0.740499,-1.167551,-0.717608,0.839506,0.073188,0.161945,0.153242,-0.302177,-0.098528,-0.007247,-0.011606,0.999998,0.000810,0.000766,-0.001511,0.212234,0.719301,0.216411,-0.625083,164.854326,82.352525,20.223135
27634,-9.849644,0.405867,-1.433353,0.165397,0.021694,0.147571,0.273332,0.148285,-0.328259,-0.098500,0.004240,-0.014255,0.999997,0.001367,0.000741,-0.001641,0.210107,0.719689,0.216858,-0.625200,166.473369,82.318474,21.699766
27635,-9.452047,1.591222,-1.229845,0.740147,-1.081700,-0.238363,0.252790,0.112699,-0.348552,-0.094499,0.016092,-0.012225,0.999998,0.001264,0.000563,-0.001743,0.208026,0.719920,0.217404,-0.625440,168.120620,82.301005,23.216588
27636,-9.209287,2.067769,-1.202899,1.031107,-1.509594,-0.475052,0.104960,0.109768,-0.356805,-0.092062,0.020848,-0.011968,0.999998,0.000525,0.000549,-0.001784,0.206456,0.719975,0.218438,-0.625537,169.705242,82.280650,24.755989
