// General information: 
//  MT Manager version: 2022.0.0 
//  XDA version: 2022.0.0 build 7085 rev 119802 built on 2022-11-08
// Device information: 
//  DeviceId: 00B4737C
//  ProductCode: MTW2-3A7G6
//  Firmware Version: 4.14.0
//  Hardware Version: 2.0.0
// Device settings: 
//  Filter Profile: human(46.1)
//  Option Flags: Orientation Smoother Disabled, Position/Velocity Smoother Disabled, Continuous Zero Rotation Update Disabled, AHS Disabled, ICC Disabled
// Coordinate system: ENU
PacketCounter,Acc_X,Acc_Y,Acc_Z,FreeAcc_E,FreeAcc_N,FreeAcc_U,Gyr_X,Gyr_Y,Gyr_Z,VelInc_X,VelInc_Y,VelInc_Z,OriInc_q0,OriInc_q1,OriInc_q2,OriInc_q3,Quat_q0,Quat_q1,Quat_q2,Quat_q3,Roll,Pitch,Yaw
46992,-3.794784,5.240198,9.673872,1.161348,1.243356,1.700311,-0.366389,0.164005,0.423685,-0.037980,0.052499,0.096674,0.999996,-0.001832,0.000820,0.002118,-0.714620,-0.216819,0.035876,0.664094,21.591974,13.691926,-83.179471
46993,-3.229714,3.926205,9.031310,0.247731,0.851384,0.513218,-0.539083,0.028891,0.431483,-0.032369,0.039436,0.090212,0.999994,-0.002695,0.000144,0.002157,-0.716688,-0.214871,0.034453,0.662572,21.337915,13.612269,-82.930058
46994,-2.431919,3.707257,8.942366,0.201108,0.117684,0.165765,-0.412108,0.044604,0.415125,-0.024376,0.037206,0.089353,0.999996,-0.002061,0.000223,0.002076,-0.718561,-0.213432,0.033395,0.661061,21.156554,13.543874,-82.686029
46995,-2.127131,3.713127,9.208723,0.187560,-0.227759,0.337456,-0.447451,0.022781,0.437242,-0.021342,0.037291,0.092006,0.999995,-0.002237,0.000114,0.002186,-0.720534,-0.211787,0.032304,0.659495,20.954900,13.461498,-82.434321
46996,-1.545093,3.000936,8.803665,-0.240128,-0.693545,-0.412757,-0.437758,0.042343,0.457453,-0.015501,0.030167,0.087974,0.999995,-0.002189,0.000212,0.002287,-0.722559,-0.210237,0.031214,0.657826,20.763581,13.384839,-82.167170
46997,-0.725894,2.257136,8.313435,-0.637681,-1.378097,-1.302170,-0.437413,0.104648,0.436209,-0.007265,0.022737,0.083089,0.999995,-0.002187,0.000523,0.002181,-0.724516,-0.208892,0.029858,0.656163,20.570997,13.348221,-81.898590
46998,-1.108093,1.580538,9.181601,-1.570994,-1.275515,-0.651205,-0.301487,0.204651,0.363349,-0.011016,0.015924,0.091803,0.999997,-0.001507,0.001023,0.001817,-0.726101,-0.208378,0.028529,0.654631,20.453239,13.379000,-81.649461
46999,-1.802781,2.090756,9.489965,-1.267691,-0.669014,-0.033829,-0.173851,0.156273,0.241456,-0.017979,0.020968,0.094895,0.999999,-0.000869,0.000781,0.001207,-0.727143,-0.208185,0.027647,0.653573,20.389393,13.410158,-81.477577
47000,-1.557433,1.653381,8.838607,-1.424207,-0.765155,-0.831241,-0.201356,0.140920,0.089812,-0.015520,0.016616,0.088380,0.999999,-0.001007,0.000705,0.000449,-0.727715,-0.207860,0.026592,0.653083,20.290969,13.461802,-81.392618
47001,-1.185383,2.585761,8.342186,-0.323302,-0.943270,-1.055459,-0.155676,0.141494,-0.060970,-0.011787,0.025926,0.083410,0.999999,-0.000778,0.000707,-0.000305,-0.727746,-0.207725,0.025509,0.653135,20.198105,13.545490,-81.390965
47002,-0.813669,2.259162,7.718689,-0.366857,-1.166513,-1.822153,-0.181966,0.220377,-0.158536,-0.008034,0.022668,0.077175,0.999999,-0.000910,0.001102,-0.000793,-0.727495,-0.207761,0.023969,0.653461,20.082337,13.689068,-81.427461
47003,-0.846668,2.413699,7.946325,-0.276980,-1.210221,-1.557664,-0.166388,0.327237,-0.222016,-0.008310,0.024212,0.079457,0.999998,-0.000832,0.001636,-0.001110,-0.727030,-0.208213,0.022008,0.653905,19.970927,13.904348,-81.477873
47004,-0.732619,1.379827,8.549787,-1.399672,-1.579196,-1.381412,-0.115377,0.462542,-0.251051,-0.007111,0.013857,0.085507,0.999996,-0.000577,0.002313,-0.001255,-0.726428,-0.209290,0.019710,0.654302,19.892206,14.196167,-81.517589
47005,-1.363702,1.155336,9.303711,-1.915594,-1.243151,-0.618214,-0.011120,0.540382,-0.303026,-0.013368,0.011579,0.093073,0.999995,-0.000056,0.002702,-0.001515,-0.725548,-0.211008,0.017397,0.654792,19.868554,14.541951,-81.570884
47006,-1.975252,1.076870,9.889749,-2.245679,-0.884287,0.038356,0.088998,0.566698,-0.400337,-0.019451,0.010764,0.098958,0.999994,0.000445,0.002833,-0.002002,-0.724241,-0.213176,0.015231,0.655591,19.890337,14.918798,-81.673186
47007,-3.253762,1.564977,12.447721,-2.728294,-0.445341,2.849835,0.087428,0.543493,-0.505055,-0.032160,0.015677,0.124572,0.999993,0.000437,0.002717,-0.002525,-0.722579,-0.215273,0.013015,0.656786,19.893220,15.305654,-81.838711
47008,-5.547667,3.213686,12.518453,-1.505938,1.737872,4.062753,0.299391,0.174068,-0.567288,-0.055277,0.032106,0.125281,0.999994,0.001497,0.000870,-0.002836,-0.720454,-0.216916,0.012779,0.658582,19.988187,15.503720,-82.113779
47009,-4.318270,3.888055,8.689343,0.465237,1.690442,0.492408,0.076245,-0.012025,-0.627226,-0.043066,0.038983,0.086906,0.999995,0.000381,-0.000060,-0.003136,-0.718352,-0.217153,0.012396,0.660803,19.934877,15.615501,-82.460259
47010,-5.902885,6.051534,8.779686,2.292347,3.218460,1.717037,0.319944,-0.017777,-0.569934,-0.058864,0.060543,0.087888,0.999995,0.001600,-0.000089,-0.002850,-0.716170,-0.218233,0.012917,0.662803,20.029426,15.711198,-82.776002
47011,-5.084978,7.403841,8.686601,3.715313,2.477824,1.857258,-0.105247,-0.152125,-0.402462,-0.050767,0.074186,0.086788,0.999998,-0.000526,-0.000761,-0.002012,-0.714991,-0.217339,0.012677,0.664373,19.897535,15.703573,-83.025461
47012,-3.090313,6.656173,8.194985,3.428274,0.699860,0.616573,-0.282287,-0.187567,-0.224372,-0.030905,0.066712,0.081827,0.999998,-0.001411,-0.000938,-0.001122,-0.714591,-0.215681,0.012185,0.665352,19.690362,15.640001,-83.182233
47013,-1.331011,6.311176,7.518295,3.547326,-0.780737,-0.596720,-0.425032,-0.139774,-0.118230,-0.013325,0.063279,0.075039,0.999997,-0.002125,-0.000699,-0.000591,-0.714696,-0.213666,0.011146,0.665907,19.419240,15.582824,-83.269714
47014,1.280880,6.287049,7.407180,3.892003,-3.235601,-1.421203,-0.444939,-0.074797,-0.079057,0.012806,0.063030,0.073936,0.999997,-0.002225,-0.000374,-0.000395,-0.714954,-0.211793,0.009869,0.666248,19.147626,15.551349,-83.322061
47015,0.841328,5.152564,8.127983,2.599418,-3.045442,-1.021276,-0.549983,0.189701,0.029491,0.008483,0.051750,0.081130,0.999996,-0.002750,0.000949,0.000147,-0.715692,-0.210419,0.007393,0.665924,18.844585,15.644298,-83.262069
47016,-1.950806,3.748112,9.565676,0.573171,-0.838408,0.595223,-0.332704,0.331375,0.254431,-0.019397,0.037615,0.095626,0.999996,-0.001664,0.001657,0.001272,-0.716950,-0.210284,0.005393,0.664630,18.709534,15.770758,-83.048411
47017,-3.634610,2.608815,10.642244,-0.995239,0.401467,1.681743,-0.239374,0.319942,0.452813,-0.036235,0.026133,0.106449,0.999995,-0.001197,0.001600,0.002264,-0.718763,-0.210439,0.003930,0.662631,18.656398,15.857018,-82.725237
47018,-3.970761,0.758375,10.552797,-2.762635,0.664279,1.124869,-0.245988,0.268320,0.513050,-0.039585,0.007612,0.105572,0.999995,-0.001230,0.001342,0.002565,-0.720775,-0.210395,0.002717,0.660462,18.608215,15.902377,-82.377755
47019,-4.348843,-0.529026,10.425170,-4.002944,0.986282,0.717274,-0.038051,0.223928,0.440436,-0.043360,-0.005366,0.104301,0.999997,-0.000190,0.001120,0.002202,-0.722321,-0.210953,0.002250,0.658594,18.664104,15.939028,-82.079752
47020,-4.547998,-0.154923,10.885891,-3.823914,1.030631,1.301551,0.154981,0.143067,0.265725,-0.045400,-0.001694,0.108890,0.999999,0.000775,0.000715,0.001329,-0.723085,-0.211941,0.002548,0.657437,18.800733,15.961495,-81.895642
47021,-4.380503,0.080263,10.667374,-3.536467,0.938559,1.123519,0.135476,0.008281,0.001938,-0.043801,0.000730,0.106676,1.000000,0.000677,0.000041,0.000010,-0.722998,-0.212421,0.002968,0.657375,18.876881,15.961322,-81.886258
47022,-3.774843,0.422417,10.212903,-3.008406,0.518719,0.647317,0.137199,-0.076103,-0.328005,-0.037780,0.004216,0.102118,0.999998,0.000686,-0.000381,-0.001640,-0.721824,-0.212630,0.003366,0.658595,18.899198,15.974808,-82.079163
47023,-3.419875,1.437826,10.030904,-1.942901,0.284617,0.700449,0.160896,-0.134457,-0.671093,-0.034218,0.014412,0.100298,0.999994,0.000804,-0.000672,-0.003355,-0.719487,-0.212740,0.003671,0.661110,18.877717,16.022084,-82.476874
47024,-2.204072,3.493703,10.239729,0.109006,-0.865789,1.194332,0.168164,-0.239626,-0.992666,-0.021990,0.034960,0.102400,0.999987,0.000841,-0.001198,-0.004963,-0.716066,-0.212526,0.004050,0.664880,18.804834,16.069835,-83.076397
47025,-0.175348,4.109828,9.851447,1.042905,-2.679340,0.468651,0.069158,-0.394950,-1.242061,-0.001693,0.041075,0.098525,0.999979,0.000346,-0.001975,-0.006210,-0.711891,-0.211444,0.004376,0.669689,18.627114,16.079572,-83.846696
47026,1.750465,6.287344,9.769908,3.286494,-4.492664,0.534287,0.688995,-0.540050,-1.311901,0.017651,0.062421,0.097962,0.999969,0.003445,-0.002700,-0.006559,-0.706790,-0.212067,0.007237,0.674850,18.786942,16.021374,-84.684055
47027,2.895599,7.468370,9.966146,4.358078,-5.687451,0.777132,0.493755,-0.627200,-1.184851,0.029084,0.074265,0.099936,0.999974,0.002469,-0.003136,-0.005924,-0.702280,-0.211695,0.009866,0.679626,18.850728,15.895909,-85.466261
47028,2.669512,6.044589,9.492524,3.041535,-5.339881,-0.014450,0.510266,-0.660253,-0.982827,0.026677,0.060072,0.095167,0.999979,0.002551,-0.003301,-0.004914,-0.698408,-0.211243,0.012903,0.683693,18.956531,15.713542,-86.140549
47029,2.134341,5.981333,9.935436,2.725214,-4.945870,0.538907,0.584744,-0.682207,-0.769424,0.021233,0.059441,0.099601,0.999983,0.002924,-0.003411,-0.003847,-0.695156,-0.210961,0.016473,0.687010,19.137357,15.483604,-86.698963
47030,1.598344,5.284088,10.108255,1.900787,-4.432206,0.646523,0.521047,-0.697347,-0.574379,0.015782,0.052532,0.101275,0.999986,0.002605,-0.003487,-0.002872,-0.692622,-0.210375,0.020112,0.689647,19.313801,15.207079,-87.150869
47031,0.569293,4.855677,10.059081,1.397245,-3.370965,0.759475,0.466425,-0.703612,-0.367270,0.005428,0.048312,0.100723,0.999989,0.002332,-0.003518,-0.001836,-0.690839,-0.209561,0.023772,0.691564,19.489334,14.892366,-87.488449
47032,0.364910,5.342773,9.433673,1.997058,-2.984737,0.423288,0.448641,-0.692063,-0.152732,0.003363,0.053213,0.094468,0.999991,0.002243,-0.003460,-0.000764,-0.689809,-0.208685,0.027589,0.692714,19.689258,14.539959,-87.704430
47033,-0.321497,5.591400,9.283299,2.213493,-2.237321,0.562339,0.280150,-0.657398,0.104919,-0.003550,0.055782,0.092900,0.999993,0.001401,-0.003287,0.000525,-0.689837,-0.207320,0.030937,0.692955,19.829244,14.160745,-87.770897
47034,0.654059,5.434994,8.448027,2.352950,-2.905343,-0.466123,0.183462,-0.611099,0.384025,0.006178,0.054285,0.084549,0.999993,0.000917,-0.003055,0.001920,-0.690934,-0.205725,0.034118,0.692187,19.955795,13.748071,-87.673803
47035,0.294004,5.102740,8.229433,2.080028,-2.420813,-0.666067,0.174269,-0.467610,0.665036,0.002578,0.050965,0.082345,0.999991,0.000871,-0.002338,0.003325,-0.693023,-0.204554,0.037022,0.690294,20.117294,13.361377,-87.393468
47036,0.326101,5.294633,7.993388,2.321892,-2.329644,-0.800766,0.203452,-0.416027,0.919995,0.002851,0.052879,0.079994,0.999987,0.001017,-0.002080,0.004600,-0.695959,-0.203600,0.040149,0.687441,20.329970,12.946493,-86.963555
47037,0.573558,4.966150,8.108591,1.973970,-2.509414,-0.837911,0.084794,-0.307489,1.116031,0.005334,0.049658,0.081115,0.999983,0.000424,-0.001537,0.005580,-0.699687,-0.202571,0.042647,0.683802,20.497631,12.553862,-86.405651
47038,0.076478,4.677908,8.378647,1.571234,-1.999218,-0.559357,0.101585,-0.328588,1.259535,0.000333,0.046740,0.083811,0.999979,0.000508,-0.001643,0.006298,-0.703860,-0.201478,0.045466,0.679647,20.688921,12.114367,-85.775440
47039,0.330544,3.479235,7.706897,0.687524,-2.016546,-1.622995,-0.078683,-0.281731,1.298267,0.002971,0.034843,0.077060,0.999978,-0.000393,-0.001409,0.006491,-0.708322,-0.199904,0.047499,0.675324,20.775732,11.695555,-85.116433
47040,-0.362807,3.602534,8.109727,0.601861,-1.362998,-1.057277,0.124097,-0.205627,1.269443,-0.003940,0.035951,0.081116,0.999979,0.000620,-0.001028,0.006347,-0.712475,-0.199289,0.049964,0.670944,20.976387,11.316490,-84.459363
47041,-1.904681,4.526134,8.895500,1.025030,0.059379,0.296159,0.104458,-0.251719,1.270187,-0.019446,0.045092,0.088954,0.999979,0.000522,-0.001259,0.006351,-0.716604,-0.198455,0.052477,0.666589,21.156668,10.915753,-83.813704
47042,-2.153869,3.997681,8.123113,0.727924,0.529810,-0.550162,0.078584,-0.341045,1.284708,-0.021933,0.039805,0.081210,0.999978,0.000393,-0.001705,0.006423,-0.720756,-0.197204,0.055286,0.662242,21.317442,10.456997,-83.181248
47043,-2.725954,3.919966,7.411076,0.783144,1.310783,-1.130014,0.234380,-0.361940,1.279961,-0.027643,0.038937,0.074107,0.999977,0.001172,-0.001810,0.006400,-0.724696,-0.196451,0.058629,0.657865,21.558257,9.991334,-82.558290
47044,-2.663446,4.084639,6.702173,1.132599,1.477659,-1.736148,0.187057,-0.301456,1.254902,-0.026991,0.040615,0.067019,0.999979,0.000935,-0.001507,0.006274,-0.728588,-0.195710,0.061620,0.653498,21.769072,9.555409,-81.938759
47045,-3.826796,3.453544,6.688014,0.331017,2.631301,-1.796020,0.231372,-0.166091,1.270664,-0.038542,0.034214,0.066888,0.999979,0.001157,-0.000830,0.006353,-0.732495,-0.195573,0.064225,0.648905,22.004270,9.191069,-81.283725
47046,-4.581879,3.126618,5.800623,0.150648,3.565396,-2.623725,0.274830,-0.073151,1.297841,-0.046041,0.030888,0.058032,0.999978,0.001374,-0.000366,0.006489,-0.736448,-0.195868,0.066704,0.644073,22.268097,8.862234,-80.596210
47047,-5.193170,1.601473,4.186156,-0.860832,4.365638,-4.591821,0.024178,0.188396,1.218100,-0.051988,0.015693,0.041912,0.999981,0.000121,0.000942,0.006090,-0.740444,-0.196112,0.067282,0.639341,22.384863,8.692267,-79.895230
47048,-7.377904,0.172568,2.243567,-1.948337,6.724246,-6.574685,-0.029885,0.677563,1.004742,-0.073710,0.001359,0.022685,0.999982,-0.000149,0.003388,0.005024,-0.743949,-0.197775,0.065710,0.634908,22.471858,8.822140,-79.200933
47049,-13.749334,-0.546916,1.859840,-3.766841,12.849841,-6.139694,-0.059391,1.442416,0.611757,-0.137337,-0.005884,0.019591,0.999969,-0.000297,0.007212,0.003059,-0.746448,-0.201884,0.060762,0.631163,22.537696,9.446786,-78.546336
47050,-23.602893,-2.852315,7.438371,-9.892565,20.675849,-0.056193,-0.490523,1.850306,0.322726,-0.235281,-0.028717,0.076633,0.999953,-0.002453,0.009251,0.001614,-0.748536,-0.205740,0.052670,0.628164,22.356323,10.348046,-77.955823
47051,-14.307219,4.685605,18.849770,-5.100883,9.705284,11.675606,0.709283,0.803892,0.561388,-0.142442,0.045785,0.189235,0.999982,0.003546,0.004019,0.002807,-0.749815,-0.210727,0.052469,0.624994,22.847615,10.644932,-77.467544
47052,2.350410,7.303407,16.518227,1.604464,-5.419001,7.501303,-0.765752,0.100063,0.425123,0.023430,0.073716,0.164889,0.999990,-0.003829,0.000500,0.002126,-0.752015,-0.208020,0.050169,0.623445,22.453846,10.598340,-77.210148
47053,8.367081,3.190792,13.462251,0.299831,-10.940360,2.088515,-0.841317,-0.018827,0.158683,0.083632,0.032540,0.134494,0.999991,-0.004207,-0.000094,0.000793,-0.753421,-0.204716,0.047786,0.623029,21.983856,10.549298,-77.122396
47054,2.418311,2.065022,9.190686,-0.576950,-4.322609,-1.119965,0.047735,0.177447,0.129614,0.024251,0.020644,0.091890,0.999999,0.000239,0.000887,0.000648,-0.753865,-0.205375,0.047426,0.622302,22.029733,10.608935,-77.007364
47055,-3.614123,0.620862,7.765101,-2.764140,1.588582,-1.838981,-0.091103,0.357047,0.007991,-0.036003,0.006243,0.077713,0.999998,-0.000456,0.001785,0.000040,-0.754114,-0.206099,0.045809,0.621881,21.989940,10.792230,-76.918719
47056,-5.901629,1.665687,10.392753,-3.169120,3.228115,1.374310,0.142419,0.262106,-0.041969,-0.058877,0.016595,0.104017,0.999999,0.000712,0.001311,-0.000210,-0.753944,-0.207416,0.045247,0.621690,22.076370,10.933519,-76.877815
47057,-1.879938,1.278526,10.257488,-2.579883,-0.656527,0.350875,-0.170269,0.086664,-0.073757,-0.018750,0.012880,0.102572,0.999999,-0.000851,0.000433,-0.000369,-0.753958,-0.207020,0.044319,0.621873,21.971977,10.990744,-76.892448
47058,0.516219,1.431227,9.624168,-1.696193,-2.773995,-0.627517,0.149664,0.133830,-0.151251,0.005237,0.014236,0.096249,0.999999,0.000748,0.000669,-0.000756,-0.753411,-0.207988,0.044146,0.622225,22.045608,11.087648,-76.938780
47059,0.074033,1.612938,9.293688,-1.531712,-2.262020,-0.784026,0.214305,0.213907,-0.298371,0.000864,0.016029,0.092953,0.999998,0.001072,0.001070,-0.001492,-0.752353,-0.209486,0.043701,0.623034,22.143380,11.260847,-77.046948
47060,-2.430437,1.968171,10.110425,-2.038037,-0.062534,0.572099,0.327768,0.199687,-0.467340,-0.024158,0.019573,0.101161,0.999995,0.001639,0.000998,-0.002337,-0.750644,-0.211393,0.043505,0.624463,22.287738,11.461024,-77.249438
47061,-3.976658,3.350951,10.257483,-1.170448,1.527746,1.525504,0.466102,0.014177,-0.567405,-0.039664,0.033383,0.102656,0.999993,0.002331,0.000071,-0.002837,-0.748425,-0.213268,0.044312,0.626429,22.491340,11.587671,-77.546770
47062,-3.049648,4.349727,9.350042,0.233667,0.984614,0.893371,0.216036,-0.139802,-0.624693,-0.030426,0.043491,0.093526,0.999994,0.001080,-0.000699,-0.003123,-0.746254,-0.213727,0.044866,0.628819,22.538363,11.643878,-77.909421
47063,-1.547438,4.725349,8.107489,1.297773,-0.100215,-0.391405,0.290369,-0.145363,-0.595902,-0.015393,0.047182,0.081132,0.999994,0.001452,-0.000727,-0.002980,-0.744081,-0.214445,0.045689,0.631086,22.630238,11.693385,-78.257705
47064,-1.150801,5.922774,7.966285,2.513805,-0.334478,-0.146555,0.233022,-0.054839,-0.537681,-0.011371,0.059166,0.079729,0.999996,0.001165,-0.000274,-0.002688,-0.742169,-0.215213,0.046073,0.633044,22.699859,11.776279,-78.554197
47065,-1.908815,5.794082,8.114206,2.193706,0.312868,0.094129,0.110920,0.019218,-0.418109,-0.018959,0.057936,0.081176,0.999998,0.000555,0.000096,-0.002091,-0.740778,-0.215741,0.045907,0.634505,22.715263,11.874186,-78.769369
47066,-2.759152,6.181471,8.551650,2.238424,1.031298,0.811816,0.122280,0.047490,-0.261926,-0.027490,0.061798,0.085561,0.999999,0.000611,0.000237,-0.001310,-0.739875,-0.216358,0.045860,0.635351,22.756400,11.950389,-78.893846
47067,-2.119799,5.642889,8.274450,1.961600,0.422225,0.226043,-0.047929,0.054659,-0.113439,-0.021143,0.056461,0.082737,1.000000,-0.000240,0.000273,-0.000567,-0.739628,-0.216340,0.045388,0.635679,22.716038,11.999662,-78.936483
47068,-1.547971,5.021821,8.024576,1.587928,-0.130761,-0.353824,-0.011837,0.141447,0.013069,-0.015426,0.050222,0.080254,1.000000,-0.000059,0.000707,0.000065,-0.739764,-0.216699,0.044866,0.635436,22.715801,12.064688,-78.891168
47069,-1.691145,4.462015,8.479594,0.894940,-0.179657,-0.125591,-0.076010,0.225835,0.097175,-0.016837,0.044644,0.084798,0.999999,-0.000380,0.001129,0.000486,-0.740253,-0.217073,0.043899,0.634805,22.691252,12.157839,-78.781284
47070,-2.097374,3.578393,9.067474,-0.190730,-0.049274,0.156471,-0.046327,0.250737,0.123658,-0.020882,0.035792,0.090693,0.999999,-0.000232,0.001254,0.000618,-0.740800,-0.217627,0.042985,0.634040,22.689433,12.256156,-78.651436
47071,-2.803831,3.578300,9.630249,-0.516971,0.459953,0.814098,0.010024,0.202957,0.107206,-0.027960,0.035763,0.096333,0.999999,0.000050,0.001015,0.000536,-0.741220,-0.218245,0.042386,0.633376,22.714591,12.334999,-78.541229
47072,-2.183012,3.312340,9.177820,-0.487894,-0.051933,0.173742,-0.029059,0.132383,0.062796,-0.021780,0.033130,0.091788,1.000000,-0.000145,0.000662,0.000314,-0.741529,-0.218500,0.041898,0.632960,22.710187,12.384216,-78.470998
47073,-2.115688,3.689163,9.335455,-0.178153,-0.129542,0.443445,-0.021990,0.116535,0.008046,-0.021104,0.036901,0.093363,1.000000,-0.000110,0.000583,0.000040,-0.741651,-0.218745,0.041410,0.632764,22.701492,12.439304,-78.433972
47074,-2.074785,3.388114,9.092518,-0.360007,-0.141730,0.102364,-0.056376,0.092223,-0.018025,-0.020703,0.033909,0.090925,1.000000,-0.000282,0.000461,-0.000090,-0.741724,-0.218788,0.040895,0.632696,22.670099,12.485181,-78.416582
47075,-2.095987,3.433028,9.071078,-0.309844,-0.118773,0.104630,-0.023754,0.095936,-0.028977,-0.020911,0.034344,0.090717,1.000000,-0.000119,0.000480,-0.000145,-0.741726,-0.218970,0.040438,0.632660,22.655097,12.537579,-78.404294
47076,-2.209783,3.740938,9.312753,-0.127781,-0.052206,0.462821,0.010989,0.083944,-0.026306,-0.022054,0.037407,0.093139,1.000000,0.000055,0.000420,-0.000132,-0.741698,-0.219238,0.040158,0.632619,22.660886,12.580908,-78.393279
47077,-2.639477,3.998616,9.351816,0.010972,0.368269,0.688574,0.035009,0.047950,0.002580,-0.026373,0.039969,0.093531,1.000000,0.000175,0.000240,0.000013,-0.741726,-0.219479,0.040098,0.632506,22.680932,12.600965,-78.374742
47078,-2.397350,3.979623,8.935410,0.180055,0.247925,0.253710,-0.008009,0.009551,0.019111,-0.023973,0.039798,0.089354,1.000000,-0.000040,0.000048,0.000096,-0.741847,-0.219432,0.040084,0.632381,22.677533,12.594958,-78.355944
47079,-1.722602,3.928812,8.575629,0.387434,-0.302940,-0.236547,0.002647,0.023262,0.033744,-0.017223,0.039284,0.085759,1.000000,0.000013,0.000116,0.000169,-0.742004,-0.219469,0.040048,0.632187,22.681501,12.595076,-78.326111
47080,-1.864928,3.857164,8.565868,0.294882,-0.173516,-0.241235,0.022615,0.081265,0.066507,-0.018627,0.038556,0.085671,1.000000,0.000113,0.000406,0.000333,-0.742255,-0.219753,0.039916,0.631801,22.704836,12.616485,-78.265395
47081,-1.956494,3.912089,8.703410,0.277857,-0.123258,-0.076710,0.031670,0.099102,0.075516,-0.019537,0.039100,0.087050,1.000000,0.000158,0.000496,0.000378,-0.742527,-0.220129,0.039737,0.631362,22.734162,12.647421,-78.195736
47082,-1.693981,3.814497,8.737717,0.224802,-0.399872,-0.140190,0.041857,0.109424,0.076309,-0.016907,0.038120,0.087394,1.000000,0.000209,0.000547,0.000382,-0.742793,-0.220571,0.039572,0.630905,22.771189,12.681446,-78.123274
47083,-1.604673,3.951491,8.732884,0.366318,-0.477256,-0.112660,0.047382,0.131364,0.066640,-0.016003,0.039489,0.087349,1.000000,0.000237,0.000657,0.000333,-0.743025,-0.221108,0.039313,0.630460,22.810176,12.731310,-78.051020
47084,-2.010468,3.871207,8.973952,0.124745,-0.175359,0.162969,0.048972,0.136879,0.061506,-0.020055,0.038684,0.089763,1.000000,0.000245,0.000684,0.000308,-0.743242,-0.221666,0.039053,0.630025,22.851047,12.782954,-77.980237
47085,-2.320504,3.720301,9.223676,-0.165249,0.024435,0.398761,0.037319,0.114982,0.055653,-0.023162,0.037179,0.092257,1.000000,0.000187,0.000575,0.000278,-0.743446,-0.222116,0.038810,0.629640,22.882263,12.826521,-77.917577
47086,-2.273910,3.533532,9.000525,-0.255620,0.014902,0.117086,0.030203,0.095084,0.044182,-0.022704,0.035317,0.090021,1.000000,0.000151,0.000475,0.000221,-0.743620,-0.222476,0.038628,0.629318,22.908282,12.859880,-77.865641
47087,-1.855030,3.451242,8.822037,-0.187374,-0.350454,-0.167864,0.027490,0.100260,0.022346,-0.018510,0.034498,0.088234,1.000000,0.000137,0.000501,0.000112,-0.743727,-0.222849,0.038372,0.629075,22.929190,12.903054,-77.824321
47088,-2.384030,3.844144,9.437009,-0.146038,0.013866,0.651377,0.054002,0.103741,0.018157,-0.023795,0.038414,0.094393,1.000000,0.000270,0.000519,0.000091,-0.743794,-0.223329,0.038203,0.628836,22.966175,12.946733,-77.784438
47089,-2.798538,4.167857,9.399339,0.071543,0.448829,0.833620,0.088549,0.025149,0.031681,-0.027980,0.041633,0.094015,1.000000,0.000443,0.000126,0.000158,-0.743848,-0.223692,0.038428,0.628630,23.019397,12.948150,-77.755248
47090,-2.038035,4.054369,8.515827,0.416298,-0.036230,-0.172346,0.037598,-0.006929,0.042358,-0.020392,0.040523,0.085165,1.000000,0.000188,-0.000035,0.000212,-0.743988,-0.223758,0.038646,0.628427,23.044237,12.928032,-77.727654
47091,-1.948504,4.294384,8.613569,0.615786,-0.122296,-0.012798,0.073816,0.034402,0.066724,-0.019485,0.042906,0.086155,1.000000,0.000369,0.000172,0.000334,-0.744170,-0.224088,0.038830,0.628083,23.093724,12.926420,-77.677379
47092,-2.322934,4.312985,9.054862,0.395517,0.110291,0.474187,0.083627,0.039644,0.110850,-0.023235,0.043079,0.090571,1.000000,0.000418,0.000198,0.000554,-0.744481,-0.224459,0.039097,0.627564,23.155676,12.915362,-77.602033
47093,-2.718383,4.243486,9.069334,0.229161,0.477467,0.549218,0.140180,-0.016622,0.162633,-0.027226,0.042349,0.090721,0.999999,0.000701,-0.000083,0.000813,-0.744879,-0.224857,0.039786,0.626906,23.252075,12.865114,-77.511773
47094,-2.078104,3.669268,8.508421,0.015563,-0.030281,-0.316682,0.039944,-0.014137,0.173635,-0.020819,0.036658,0.085090,1.000000,0.000200,-0.000071,0.000868,-0.745425,-0.224884,0.040187,0.626222,23.293687,12.811381,-77.415068
47095,-1.283310,3.041346,8.230090,-0.303953,-0.775633,-0.984491,0.082223,0.036780,0.145710,-0.012840,0.030370,0.082316,1.000000,0.000411,0.000184,0.000729,-0.745844,-0.225236,0.040476,0.625577,23.357443,12.792883,-77.321656
47096,-1.216900,2.674235,8.440429,-0.707723,-0.945171,-0.953851,0.128489,0.110985,0.094795,-0.012135,0.026682,0.084428,1.000000,0.000642,0.000555,0.000474,-0.746068,-0.226000,0.040599,0.625027,23.446709,12.822617,-77.238401
47097,-1.008518,2.096536,8.341798,-1.166664,-1.193715,-1.314918,0.128370,0.157089,0.005990,-0.010020,0.020912,0.083439,0.999999,0.000642,0.000785,0.000030,-0.746021,-0.226929,0.040426,0.624757,23.526500,12.898988,-77.192153
47098,-0.498773,1.448303,8.377281,-1.666180,-1.782551,-1.653551,0.092200,0.256369,-0.177458,-0.004868,0.014449,0.083786,0.999999,0.000461,0.001282,-0.000887,-0.745463,-0.228064,0.039584,0.625063,23.569768,13.067070,-77.221364
47099,-2.028691,1.416182,9.931802,-2.567723,-0.814661,0.061767,0.268145,0.290313,-0.342760,-0.020119,0.014063,0.099366,0.999997,0.001341,0.001452,-0.001714,-0.744190,-0.229998,0.038955,0.625912,23.694250,13.293356,-77.331447
47100,-2.666491,1.862244,10.258526,-2.421860,-0.288394,0.669050,0.270123,0.180810,-0.478651,-0.026528,0.018547,0.102634,0.999996,0.001351,0.000904,-0.002393,-0.742465,-0.231613,0.038603,0.627384,23.797254,13.491281,-77.540417
47101,-2.529238,3.227504,9.375741,-0.853765,-0.045468,0.384725,0.400791,0.099529,-0.595904,-0.025150,0.032162,0.093834,0.999993,0.002004,0.000498,-0.002980,-0.740195,-0.233487,0.038807,0.629357,23.954434,13.676771,-77.831655
47102,-2.526272,4.492281,8.715291,0.520408,0.237531,0.296296,0.300583,0.080953,-0.620395,-0.025088,0.044870,0.087231,0.999994,0.001503,0.000405,-0.003102,-0.737955,-0.234924,0.038753,0.631452,24.049583,13.856413,-78.140384
47103,-2.596324,6.640446,8.325597,2.586973,0.572281,0.823651,0.520168,0.126373,-0.488252,-0.025749,0.066251,0.083445,0.999993,0.002601,0.000632,-0.002441,-0.735871,-0.237295,0.039361,0.632957,24.289047,14.032128,-78.366618
47104,-4.188130,8.249149,9.549991,3.270275,1.810872,2.947289,0.409481,0.125236,-0.189784,-0.041743,0.082335,0.095695,0.999997,0.002047,0.000626,-0.000949,-0.734860,-0.239187,0.039997,0.633380,24.504425,14.135052,-78.431982
47105,-4.547979,8.031886,8.762549,3.247884,2.356317,2.265244,0.314128,-0.078792,0.126565,-0.045565,0.080152,0.087734,0.999998,0.001571,-0.000394,0.000633,-0.734917,-0.240027,0.041439,0.632903,24.693693,14.058892,-78.377215
47106,-1.695726,5.972847,7.056984,2.529722,0.002021,-0.759960,-0.048168,-0.044594,0.300290,-0.017063,0.059720,0.070552,0.999999,-0.000241,-0.000223,0.001501,-0.735966,-0.239604,0.041839,0.631818,24.701170,13.956649,-78.220913
47107,-1.128244,4.882547,7.570042,1.457845,-0.772052,-0.885406,0.018120,0.143747,0.329816,-0.011309,0.048800,0.075713,0.999998,0.000091,0.000719,0.001649,-0.737064,-0.240015,0.041768,0.630384,24.760182,13.947459,-78.002407
47108,-2.062083,4.275596,8.403761,0.411961,-0.188787,-0.171591,-0.099073,0.175163,0.298285,-0.020611,0.042767,0.084034,0.999998,-0.000495,0.000876,0.001491,-0.738209,-0.240098,0.041199,0.629049,24.751445,13.959754,-77.792977
47109,-1.903210,3.986695,8.244427,0.245226,-0.321128,-0.467996,-0.124877,0.194145,0.210176,-0.018994,0.039898,0.082438,0.999999,-0.000624,0.000971,0.001051,-0.739108,-0.240164,0.040348,0.628023,24.716152,14.005460,-77.626154
47110,-2.226740,3.952321,8.591770,0.036585,-0.130581,-0.097788,-0.263525,0.226895,0.120958,-0.022194,0.039623,0.085891,0.999998,-0.001318,0.001134,0.000605,-0.739899,-0.239837,0.038858,0.627310,24.593551,14.087382,-77.499102
47111,-2.072863,3.886352,8.580163,0.039688,-0.289082,-0.172435,-0.316821,0.230381,0.071655,-0.020644,0.038992,0.085764,0.999998,-0.001584,0.001152,0.000358,-0.740596,-0.239333,0.037104,0.626786,24.432681,14.185532,-77.397935
47112,-2.366822,3.714668,8.991715,-0.294082,-0.166377,0.194174,-0.324487,0.242558,0.041145,-0.023567,0.037288,0.089885,0.999998,-0.001622,0.001213,0.000206,-0.741207,-0.238842,0.035270,0.626356,24.265833,14.295107,-77.310403
47113,-3.032526,3.906186,9.606285,-0.443294,0.279489,0.978998,-0.330057,0.197132,0.008459,-0.030232,0.039219,0.096028,0.999998,-0.001650,0.000986,0.000042,-0.741710,-0.238195,0.033522,0.626104,24.087166,14.391281,-77.251888
47114,-3.289616,3.374673,9.986487,-1.078708,0.343485,1.171765,-0.369556,0.095000,-0.008167,-0.032847,0.033933,0.099818,0.999998,-0.001848,0.000475,-0.000041,-0.742190,-0.237081,0.032034,0.626036,23.879050,14.435661,-77.227164
47115,-3.724619,3.354964,10.353067,-1.290009,0.641288,1.599551,-0.128066,-0.037394,0.018187,-0.037269,0.033613,0.103502,1.000000,-0.000640,-0.000187,0.000091,-0.742441,-0.236447,0.031799,0.625990,23.803397,14.407005,-77.220028
47116,-2.847298,3.232049,9.564766,-0.927779,0.060688,0.635923,-0.219969,-0.170740,-0.003389,-0.028554,0.032426,0.095588,0.999999,-0.001100,-0.000854,-0.000017,-0.742713,-0.235054,0.031769,0.626193,23.665684,14.311134,-77.256205
47117,-1.161700,2.318685,8.269701,-0.945403,-1.209639,-1.282930,-0.143055,-0.154650,-0.068630,-0.011673,0.023250,0.082671,0.999999,-0.000715,-0.000773,-0.000343,-0.742690,-0.234010,0.031821,0.626609,23.563009,14.240874,-77.323756
47118,-1.299760,3.035010,8.493769,-0.385243,-1.063936,-0.770321,-0.070420,-0.064021,-0.170749,-0.012999,0.030391,0.084923,1.000000,-0.000352,-0.000320,-0.000854,-0.742278,-0.233532,0.031667,0.627283,23.494853,14.239172,-77.425104
47119,-1.652616,3.712705,8.464638,0.182420,-0.650183,-0.447358,-0.088702,-0.048159,-0.250142,-0.016500,0.037185,0.084626,0.999999,-0.000444,-0.000241,-0.001251,-0.741637,-0.233052,0.031281,0.628238,23.405332,14.266087,-77.565827
47120,-1.882204,3.929470,8.032232,0.494930,-0.281774,-0.692611,-0.112255,-0.004436,-0.269581,-0.018771,0.039365,0.080300,0.999999,-0.000561,-0.000022,-0.001348,-0.740971,-0.232619,0.030659,0.629214,23.303274,14.317757,-77.706886
47121,-1.294552,3.723249,7.792634,0.528405,-0.792632,-1.131900,-0.209353,0.037965,-0.307428,-0.012873,0.037334,0.077890,0.999998,-0.001047,0.000190,-0.001537,-0.740301,-0.231971,0.029508,0.630297,23.141584,14.402419,-77.858836
47122,-0.555273,1.511693,7.446004,-1.213621,-1.614042,-2.467047,-0.262896,0.186814,-0.352825,-0.005456,0.015224,0.074445,0.999997,-0.001314,0.000934,-0.001764,-0.739571,-0.231593,0.027608,0.631377,22.952463,14.572769,-78.001327
47123,-1.157737,0.778663,8.816999,-2.446641,-1.558621,-1.370490,-0.056982,0.340655,-0.469671,-0.011409,0.007839,0.088187,0.999996,-0.000285,0.001703,-0.002348,-0.738247,-0.232483,0.025630,0.632682,22.872235,14.852570,-78.172710
47124,-3.457770,0.939302,10.940930,-3.453924,-0.064540,1.169503,0.261025,0.315402,-0.575183,-0.034378,0.009349,0.109476,0.999994,0.001305,0.001577,-0.002876,-0.736213,-0.234470,0.024651,0.634356,22.957789,15.139891,-78.407755
47125,-5.392350,2.214361,12.104715,-3.045906,1.475366,3.189261,0.353374,0.050452,-0.683895,-0.053817,0.022114,0.121100,0.999993,0.001767,0.000252,-0.003419,-0.733680,-0.235974,0.024790,0.636723,23.062767,15.314909,-78.763502
47126,-4.320070,2.191752,11.024113,-2.505270,0.792640,1.938618,0.331167,-0.227015,-0.782963,-0.043240,0.021904,0.110228,0.999990,0.001656,-0.001135,-0.003915,-0.730815,-0.236512,0.025778,0.639771,23.123330,15.363985,-79.237983
47127,-3.570212,2.805553,10.738290,-1.711976,0.224638,1.717580,0.347876,-0.326544,-0.838072,-0.035760,0.028019,0.107373,0.999988,0.001739,-0.001633,-0.004190,-0.727722,-0.236806,0.027098,0.643125,23.178688,15.375967,-79.765834
47128,-4.218377,4.562639,10.071540,0.013472,1.161271,1.964389,0.538137,-0.431700,-0.802094,-0.042219,0.045525,0.100747,0.999986,0.002691,-0.002158,-0.004010,-0.724491,-0.237431,0.029470,0.646429,23.342017,15.323121,-80.298669
47129,-3.851822,6.344962,7.881992,2.473914,1.573648,0.609609,0.348972,-0.541596,-0.788240,-0.038482,0.063464,0.078826,0.999987,0.001745,-0.002708,-0.003941,-0.721490,-0.237019,0.031629,0.649826,23.392806,15.212591,-80.849701
47130,-3.255325,7.165112,6.890552,3.681367,1.330586,-0.112547,0.156725,-0.470954,-0.665367,-0.032477,0.071705,0.068885,0.999991,0.000784,-0.002355,-0.003327,-0.719116,-0.236109,0.033070,0.652710,23.356748,15.109249,-81.316866
47131,-2.888693,8.804953,6.993516,5.220550,0.998854,0.508609,0.157624,-0.413756,-0.464189,-0.028827,0.088061,0.069945,0.999995,0.000788,-0.002069,-0.002321,-0.717393,-0.235362,0.034528,0.654797,23.353715,14.992248,-81.660730
47132,-1.258631,8.710792,6.322979,5.617691,-0.364865,-0.552534,-0.281411,-0.293057,-0.194180,-0.012594,0.087209,0.063089,0.999997,-0.001407,-0.001465,-0.000971,-0.717089,-0.233384,0.034454,0.655842,23.146296,14.875106,-81.828726
47133,-1.103877,7.579080,6.156041,4.679609,-0.483768,-1.185697,-0.333647,-0.071223,0.077764,-0.011090,0.075889,0.061430,0.999998,-0.001668,-0.000356,0.000389,-0.717770,-0.231902,0.033710,0.655661,22.959326,14.815347,-81.796527
47134,-0.796856,7.306764,6.797133,4.275438,-0.948987,-0.810206,-0.467623,0.102189,0.284364,-0.008038,0.073215,0.067804,0.999996,-0.002338,0.000511,0.001422,-0.719311,-0.230472,0.032170,0.654553,22.736712,14.799113,-81.611204
47135,-1.317513,5.254087,7.402694,2.133054,-0.680618,-0.917310,-0.671934,0.256572,0.465278,-0.013203,0.052759,0.073867,0.999991,-0.003360,0.001283,0.002326,-0.721693,-0.228779,0.029589,0.652644,22.429319,14.827759,-81.291849
47136,-2.180625,3.997529,8.259101,0.590036,-0.152077,-0.401166,-0.528299,0.384736,0.585570,-0.021765,0.040130,0.082527,0.999990,-0.002641,0.001924,0.002928,-0.724309,-0.228003,0.027181,0.650118,22.231336,14.897093,-80.877512
47137,-2.908405,3.518385,9.129489,-0.226295,0.256223,0.388709,-0.512463,0.388988,0.629943,-0.029018,0.035326,0.091261,0.999990,-0.002562,0.001945,0.003150,-0.727036,-0.227285,0.024828,0.647413,22.046849,14.962850,-80.438189
47138,-2.400893,2.823394,9.053678,-0.732137,-0.253857,-0.060543,-0.551017,0.358231,0.599913,-0.023932,0.028411,0.090502,0.999990,-0.002755,0.001791,0.003000,-0.729692,-0.226330,0.022458,0.644841,21.837181,15.017716,-80.022102
47139,-2.895447,2.552536,9.433268,-1.158303,0.071959,0.313451,-0.421370,0.346610,0.551068,-0.028862,0.025644,0.094329,0.999992,-0.002107,0.001733,0.002755,-0.732028,-0.225808,0.020463,0.642438,21.692009,15.080453,-79.635772
47140,-3.015376,2.756146,9.457255,-0.973158,0.181770,0.441501,-0.382014,0.273325,0.485723,-0.030092,0.027669,0.094561,0.999994,-0.001910,0.001367,0.002429,-0.734094,-0.225200,0.018818,0.640341,21.558446,15.116419,-79.301394
47141,-3.057513,2.452188,9.528510,-1.264975,0.168036,0.411093,-0.331080,0.220804,0.429913,-0.030523,0.024614,0.095278,0.999996,-0.001655,0.001104,0.002150,-0.735911,-0.224612,0.017436,0.638499,21.440876,15.139256,-79.009496
47142,-3.061031,2.430627,9.898693,-1.381311,0.051408,0.739624,-0.324109,0.146452,0.379005,-0.030584,0.024409,0.098970,0.999997,-0.001621,0.000732,0.001895,-0.737545,-0.223816,0.016320,0.636920,21.317878,15.131257,-78.761691
47143,-2.228314,1.773355,9.176130,-1.593097,-0.571725,-0.355062,-0.291420,0.084506,0.302482,-0.022271,0.017834,0.091745,0.999998,-0.001457,0.000423,0.001512,-0.738889,-0.222947,0.015424,0.635688,21.196927,15.108977,-78.569721
47144,-1.324853,1.900989,8.510861,-1.079175,-1.209702,-1.142293,-0.212441,0.123735,0.188313,-0.013214,0.019088,0.085097,0.999999,-0.001062,0.000619,0.000942,-0.739784,-0.222501,0.014532,0.634824,21.108755,15.129214,-78.432361
47145,-1.228579,2.447525,8.626096,-0.571949,-1.292870,-0.873411,-0.108130,0.205356,0.114709,-0.012211,0.024515,0.086260,0.999999,-0.000541,0.001027,0.000574,-0.740332,-0.222706,0.013562,0.634135,21.072553,15.210791,-78.318466
47146,-1.835824,3.144404,8.890327,-0.112521,-0.748863,-0.235530,-0.052156,0.240231,0.096996,-0.018267,0.031458,0.088917,0.999999,-0.000261,0.001201,0.000485,-0.740764,-0.223227,0.012646,0.633465,21.069585,15.312137,-78.206799
47147,-2.131903,3.500403,9.012162,0.130314,-0.490841,0.074625,-0.051485,0.252317,0.078343,-0.021219,0.035019,0.090139,0.999999,-0.000257,0.001262,0.000392,-0.741134,-0.223793,0.011641,0.632852,21.063553,15.426358,-78.102966
47148,-2.252691,3.152770,8.974976,-0.197406,-0.417626,-0.047886,-0.126512,0.248167,0.046616,-0.022423,0.031579,0.089758,0.999999,-0.000633,0.001241,0.000233,-0.741489,-0.224065,0.010405,0.632362,21.011369,15.542276,-78.017505
47149,-2.555440,2.876462,9.135871,-0.550748,-0.231225,0.082342,-0.104619,0.260822,0.006087,-0.025436,0.028812,0.091377,0.999999,-0.000523,0.001304,0.000030,-0.741687,-0.224463,0.009119,0.632007,20.964990,15.676013,-77.952035
47150,-2.864769,2.927955,9.422633,-0.636329,-0.047754,0.441999,-0.118458,0.230766,-0.044448,-0.028532,0.029342,0.094242,0.999999,-0.000592,0.001154,-0.000222,-0.741741,-0.224713,0.007870,0.631872,20.902929,15.801377,-77.921026
47151,-3.203515,3.422940,9.593403,-0.282073,0.245830,0.858412,-0.017584,0.180086,-0.058380,-0.031939,0.034247,0.095960,1.000000,-0.000088,0.000900,-0.000292,-0.741633,-0.225181,0.007087,0.631842,20.892162,15.905173,-77.908721
47152,-3.673430,3.500193,9.675714,-0.320876,0.654743,1.088377,-0.076172,0.109741,-0.048722,-0.036673,0.035048,0.096764,1.000000,-0.000381,0.000549,-0.000244,-0.741620,-0.225204,0.006415,0.631855,20.846608,15.966695,-77.905903
47153,-3.071360,3.437143,9.096528,-0.078135,0.264511,0.381328,-0.073213,0.042820,-0.049811,-0.030686,0.034412,0.090959,1.000000,-0.000366,0.000214,-0.000249,-0.741596,-0.225032,0.005974,0.631950,20.797266,15.995249,-77.918040
47154,-2.071406,2.816259,8.398893,-0.242762,-0.513390,-0.732989,-0.097174,0.061546,-0.068923,-0.020679,0.028211,0.083982,1.000000,-0.000486,0.000308,-0.000345,-0.741541,-0.224826,0.005391,0.632093,20.733710,16.035156,-77.936786
47155,-1.948380,3.320757,8.716338,0.169738,-0.691169,-0.310497,-0.025795,0.130275,-0.098846,-0.019411,0.033228,0.087172,1.000000,-0.000129,0.000651,-0.000494,-0.741310,-0.225107,0.004720,0.632269,20.709036,16.120498,-77.957877
47156,-2.472719,3.464322,8.808188,0.176323,-0.228011,-0.034296,0.020528,0.141094,-0.083899,-0.024651,0.034645,0.088103,1.000000,0.000103,0.000705,-0.000419,-0.741077,-0.225589,0.004198,0.632374,20.715170,16.205968,-77.968252
47157,-3.292386,3.956647,9.354730,0.313311,0.395569,0.852732,0.053646,0.134745,-0.033758,-0.032854,0.039547,0.093580,1.000000,0.000268,0.000674,-0.000169,-0.740961,-0.226177,0.003836,0.632302,20.746379,16.280508,-77.952073
47158,-2.896410,4.103877,8.781105,0.694624,0.216648,0.277375,0.030392,0.105974,0.031956,-0.028924,0.041021,0.087833,1.000000,0.000152,0.000530,0.000160,-0.741082,-0.226582,0.003606,0.632016,20.774265,16.323660,-77.905130
47159,-2.399865,3.690197,8.590003,0.463281,-0.235596,-0.174487,-0.038865,0.159348,0.091164,-0.023947,0.036908,0.085912,1.000000,-0.000194,0.000797,0.000456,-0.741466,-0.226902,0.003001,0.631454,20.773625,16.385981,-77.813929
47160,-2.295617,3.929613,8.776628,0.654321,-0.383259,0.044587,-0.002101,0.227539,0.143355,-0.022884,0.039281,0.087792,0.999999,-0.000011,0.001138,0.000717,-0.741976,-0.227569,0.002344,0.630617,20.807980,16.471556,-77.678931
47161,-2.918425,3.553515,9.189039,0.051858,0.007159,0.462542,0.019871,0.274805,0.210166,-0.029095,0.035495,0.091934,0.999998,0.000099,0.001374,0.001051,-0.742667,-0.228469,0.001632,0.629479,20.867172,16.571352,-77.496567
47162,-3.172326,3.883814,9.418080,0.232574,0.183005,0.853159,0.043424,0.267775,0.247117,-0.031645,0.038779,0.094232,0.999998,0.000217,0.001339,0.001236,-0.743449,-0.229430,0.001088,0.628208,20.947178,16.656944,-77.294704
47163,-2.425524,2.876951,9.195436,-0.487970,-0.564890,0.094825,-0.088544,0.305165,0.228556,-0.024148,0.028783,0.091979,0.999998,-0.000443,0.001526,0.001143,-0.744317,-0.230020,-0.000056,0.626963,20.949768,16.768879,-77.095189
47164,-2.302509,3.349061,9.870951,-0.214095,-0.885800,0.823236,0.025059,0.366511,0.164693,-0.022872,0.033459,0.098756,0.999998,0.000125,0.001833,0.000823,-0.744855,-0.231220,-0.001121,0.625880,21.012867,16.923928,-76.917872
47165,-1.648035,3.836995,10.201140,0.299541,-1.585456,1.091362,-0.185358,0.325211,0.023319,-0.016319,0.038463,0.102002,0.999998,-0.000927,0.001626,0.000117,-0.745189,-0.231510,-0.002879,0.625371,20.928743,17.088599,-76.828527
47166,-0.540660,3.742887,10.067461,0.522545,-2.608327,0.607420,-0.274864,0.338731,-0.192109,-0.005200,0.037572,0.100632,0.999997,-0.001374,0.001694,-0.000961,-0.744952,-0.231499,-0.005190,0.625642,20.760079,17.301722,-76.857197
47167,-0.594904,4.619628,11.357148,1.006876,-2.951909,2.059624,-0.236045,0.316016,-0.397326,-0.005678,0.046342,0.113526,0.999996,-0.001180,0.001580,-0.001987,-0.744020,-0.231560,-0.007559,0.626703,20.575966,17.546979,-77.006858
47168,0.837147,5.556126,12.330900,1.955430,-4.563692,2.795693,-0.199373,0.119858,-0.507605,0.008587,0.055663,0.123248,0.999996,-0.000997,0.000599,-0.002538,-0.742707,-0.231129,-0.009181,0.628396,20.382184,17.705211,-77.260749
47169,2.835883,4.746286,11.959381,1.750703,-6.397152,1.571847,-0.341070,-0.030593,-0.655544,0.028496,0.047573,0.119517,0.999993,-0.001705,-0.000153,-0.003278,-0.741087,-0.229699,-0.010891,0.630801,20.069916,17.814162,-77.630536
47170,3.905351,4.745206,11.535119,2.080757,-7.263179,0.852405,0.066194,-0.166111,-0.895113,0.039169,0.047239,0.115399,0.999990,0.000331,-0.000831,-0.004476,-0.738246,-0.229320,-0.011052,0.634258,19.941724,17.891428,-78.164190
47171,3.874457,6.170961,12.204293,3.183863,-7.373209,1.914857,0.184628,-0.355078,-1.082274,0.038861,0.061387,0.122169,0.999983,0.000923,-0.001775,-0.005411,-0.734659,-0.228776,-0.010391,0.638615,19.834826,17.906649,-78.843009
47172,4.328497,5.356975,11.574058,2.600255,-7.664814,0.952095,0.246908,-0.580046,-1.162716,0.043259,0.053175,0.115932,0.999978,0.001235,-0.002900,-0.005814,-0.730737,-0.227712,-0.008749,0.643502,19.737998,17.809433,-79.612876
47173,4.408897,5.807435,11.043351,3.087181,-7.540506,0.614638,0.474633,-0.743675,-1.194197,0.044022,0.057549,0.110734,0.999972,0.002373,-0.003718,-0.005971,-0.726417,-0.226959,-0.005859,0.648671,19.756121,17.635168,-80.433396
47174,4.040797,6.073451,10.986940,3.176098,-7.169066,0.791239,0.532561,-0.857974,-1.179471,0.040292,0.060204,0.110203,0.999970,0.002663,-0.004290,-0.005897,-0.722052,-0.226011,-0.002291,0.653877,19.808423,17.390004,-81.267690
47175,3.794400,6.559567,10.838612,3.513840,-6.865289,0.930675,0.669688,-1.035301,-1.090749,0.037737,0.065026,0.108800,0.999966,0.003348,-0.005176,-0.005454,-0.717767,-0.224987,0.002408,0.658927,19.945457,17.040222,-82.087457
47176,4.105531,6.480462,9.922755,3.618057,-6.855634,0.047379,0.692554,-1.125411,-0.967268,0.040807,0.064262,0.099681,0.999966,0.003463,-0.005627,-0.004836,-0.713827,-0.223707,0.007714,0.663586,20.118859,16.611742,-82.855155
47177,3.744110,6.601635,9.673957,3.633842,-6.412873,0.028749,0.734924,-1.112183,-0.820692,0.037171,0.065507,0.097188,0.999969,0.003675,-0.005561,-0.004103,-0.710269,-0.222627,0.013207,0.667669,20.343144,16.171966,-83.538151
47178,2.791235,7.020924,9.923795,3.724868,-5.540618,0.722561,0.702374,-1.109795,-0.623202,0.027578,0.069774,0.099637,0.999974,0.003512,-0.005549,-0.003116,-0.707379,-0.221387,0.018882,0.671004,20.588067,15.687417,-84.110218
47179,2.405560,6.644230,9.743855,3.286405,-5.068515,0.598055,0.620178,-1.118936,-0.385482,0.023637,0.066094,0.097777,0.999978,0.003101,-0.005595,-0.001927,-0.705329,-0.219820,0.024496,0.673491,20.821551,15.161298,-84.553137
47180,1.871303,6.131497,9.648156,2.696159,-4.454950,0.534618,0.622231,-1.083301,-0.141862,0.018233,0.061001,0.096771,0.999980,0.003111,-0.005416,-0.000709,-0.704085,-0.218312,0.030348,0.675043,21.100848,14.596179,-84.854433
47181,1.049965,5.856034,9.867406,2.210168,-3.633534,0.895833,0.602848,-1.053006,0.089486,0.009953,0.058267,0.098903,0.999981,0.003014,-0.005265,0.000447,-0.703608,-0.216823,0.036189,0.675732,21.400230,14.010723,-85.024335
47182,0.558613,5.243024,9.654383,1.592204,-2.997446,0.650924,0.577274,-1.047919,0.302050,0.005001,0.052159,0.096722,0.999981,0.002886,-0.005240,0.001510,-0.703864,-0.215185,0.042251,0.675638,21.718633,13.373415,-85.078900
47183,0.202489,4.607754,9.333523,1.015021,-2.463338,0.251476,0.518078,-1.010175,0.465675,0.001446,0.045839,0.093462,0.999981,0.002590,-0.005051,0.002328,-0.704704,-0.213454,0.048059,0.674923,22.020281,12.732260,-85.039667
47184,-0.757579,4.139290,9.690471,0.306682,-1.502229,0.640099,0.507539,-0.951873,0.597311,-0.008160,0.041123,0.096971,0.999981,0.002538,-0.004759,0.002987,-0.705999,-0.211810,0.053863,0.673647,22.337662,12.082223,-84.919306
47185,-2.093346,3.974162,10.159833,-0.200925,-0.189430,1.292278,0.521062,-0.981875,0.714036,-0.021573,0.039401,0.101596,0.999978,0.002605,-0.004909,0.003570,-0.707623,-0.210105,0.059842,0.671971,22.667246,11.401203,-84.746892
47186,-2.274027,3.628219,9.834953,-0.489892,0.186041,0.901089,0.457979,-1.076394,0.801432,-0.023414,0.035964,0.098307,0.999975,0.002290,-0.005382,0.004007,-0.709557,-0.207789,0.066131,0.670059,22.967370,10.638673,-84.552882
47187,-2.175203,3.326379,9.044115,-0.531466,0.376565,0.044616,0.473208,-1.069286,0.863087,-0.022378,0.032954,0.090401,0.999974,0.002366,-0.005346,0.004315,-0.711635,-0.205554,0.072407,0.667893,23.274321,9.876276,-84.328984
47188,-2.421539,3.532423,8.787640,-0.334718,0.796815,-0.075337,0.447492,-1.021920,0.891069,-0.024821,0.035018,0.087829,0.999975,0.002237,-0.005110,0.004455,-0.713823,-0.203329,0.078551,0.665540,23.571623,9.120090,-84.083744
47189,-3.038161,3.085089,8.512670,-0.765603,1.554480,-0.420678,0.394466,-0.964515,0.917505,-0.030932,0.030542,0.085039,0.999976,0.001972,-0.004823,0.004587,-0.716128,-0.201120,0.084239,0.663035,23.834455,8.397924,-83.815372
47190,-3.639476,3.254610,8.413975,-0.702704,2.277707,-0.381348,0.452171,-0.862957,0.929528,-0.036908,0.032185,0.084054,0.999977,0.002261,-0.004315,0.004648,-0.718434,-0.199405,0.089858,0.660315,24.135036,7.713900,-83.520871
47191,-4.697151,3.086681,8.941707,-1.251907,3.323877,0.133574,0.356174,-0.807108,0.954062,-0.047478,0.030482,0.089281,0.999979,0.001781,-0.004036,0.004770,-0.720899,-0.197544,0.094885,0.657478,24.375830,7.062832,-83.203826
47192,-5.238712,2.831531,9.096394,-1.685970,3.923028,0.185898,0.417018,-0.859060,0.989461,-0.052916,0.027865,0.090796,0.999976,0.002085,-0.004295,0.004947,-0.723372,-0.195673,0.100419,0.654492,24.652105,6.364457,-82.884206
47193,-4.481812,2.119851,7.857871,-1.812497,3.413561,-1.363554,0.314976,-0.865454,0.989248,-0.045261,0.020852,0.078417,0.999977,0.001575,-0.004327,0.004946,-0.725898,-0.193436,0.105548,0.651547,24.861523,5.671863,-82.569459
47194,-4.375170,1.416301,7.254457,-2.248921,3.417386,-2.260318,0.310932,-0.696408,0.903823,-0.044067,0.013852,0.072413,0.999983,0.001555,-0.003482,0.004519,-0.728216,-0.191740,0.110047,0.648711,25.068140,5.076904,-82.261334
47195,-5.191762,1.784239,8.370796,-2.541477,4.162642,-1.070798,0.341056,-0.574082,0.824317,-0.052230,0.017485,0.083588,0.999986,0.001705,-0.002870,0.004122,-0.730284,-0.190619,0.114034,0.646023,25.284271,4.573323,-81.966858
47196,-5.672319,2.086131,8.913917,-2.625255,4.659835,-0.465064,0.319026,-0.641271,0.793609,-0.057090,0.020493,0.088989,0.999986,0.001595,-0.003206,0.003968,-0.732221,-0.189184,0.118239,0.643492,25.485694,4.032485,-81.707204
47197,-4.908512,1.430324,8.134083,-2.834265,4.003182,-1.551728,0.231432,-0.654433,0.726199,-0.049402,0.014030,0.081196,0.999987,0.001157,-0.003272,0.003631,-0.733988,-0.187449,0.122068,0.641267,25.628712,3.509684,-81.487229
47198,-5.058465,1.436264,7.990648,-2.834907,4.226775,-1.713394,0.232205,-0.582116,0.596893,-0.050859,0.014118,0.079775,0.999991,0.001161,-0.002911,0.002984,-0.735374,-0.185996,0.125577,0.639422,25.770136,3.047708,-81.317832
47199,-4.817139,1.606097,7.558412,-2.500104,4.105245,-2.078990,0.207533,-0.524452,0.447818,-0.048405,0.015874,0.075474,0.999994,0.001038,-0.002622,0.002239,-0.736325,-0.184755,0.128587,0.638088,25.890271,2.660396,-81.211811
47200,-4.366591,2.380684,7.445258,-1.718712,3.805306,-1.892325,0.152333,-0.416410,0.290680,-0.043855,0.023687,0.074379,0.999996,0.000762,-0.002082,0.001453,-0.736892,-0.183728,0.130937,0.637251,25.978070,2.360678,-81.160750
47201,-4.663918,2.937875,7.923956,-1.493181,4.149210,-1.226264,0.171444,-0.318896,0.193160,-0.046794,0.029266,0.079190,0.999998,0.000857,-0.001594,0.000966,-0.737186,-0.183172,0.132837,0.636679,26.073237,2.142860,-81.135598
47202,-4.912786,3.759304,8.122418,-0.907686,4.506557,-0.696305,0.194428,-0.327953,0.167936,-0.049293,0.037473,0.081180,0.999998,0.000972,-0.001640,0.000840,-0.737373,-0.182664,0.134875,0.636179,26.183045,1.920225,-81.126385
47203,-4.205394,3.170132,6.889153,-0.807619,3.883754,-2.101680,0.103714,-0.298670,0.147028,-0.042180,0.031635,0.068845,0.999998,0.000519,-0.001493,0.000735,-0.737589,-0.181951,0.136442,0.635799,26.238603,1.724399,-81.120549
47204,-4.299369,3.176492,6.737604,-0.763935,4.009435,-2.242298,0.154921,-0.118075,0.074118,-0.043045,0.031697,0.067375,0.999999,0.000775,-0.000590,0.000371,-0.737651,-0.182032,0.137489,0.635478,26.325794,1.634157,-81.106873
47205,-4.692897,3.244896,7.508059,-1.111666,4.339060,-1.514475,0.131050,-0.000042,0.042314,-0.046936,0.032390,0.075102,1.000000,0.000655,-0.000000,0.000212,-0.737711,-0.182440,0.137946,0.635192,26.397610,1.618265,-81.079327
47206,-4.951840,3.715635,7.693203,-0.829873,4.636555,-1.133651,0.156283,0.034429,0.061058,-0.049516,0.037081,0.076970,1.000000,0.000781,0.000172,0.000305,-0.737834,-0.183023,0.138416,0.634779,26.486397,1.610344,-81.033658
47207,-5.652629,3.588179,7.879103,-1.148925,5.290476,-1.003696,0.086721,0.109436,0.111164,-0.056503,0.035816,0.078837,1.000000,0.000434,0.000547,0.000556,-0.738228,-0.183567,0.138392,0.634169,26.534603,1.632903,-80.942829
47208,-5.170949,3.388873,7.096945,-0.918814,4.857379,-1.803228,-0.055505,0.187978,0.169037,-0.051671,0.033865,0.071009,0.999999,-0.000278,0.000940,0.000845,-0.738991,-0.183786,0.137716,0.633363,26.504747,1.676937,-80.802476
47209,-5.556452,3.030750,6.524965,-1.055211,5.230302,-2.452989,-0.127989,0.449514,0.200672,-0.055448,0.030294,0.065355,0.999997,-0.000640,0.002248,0.001003,-0.740097,-0.184551,0.135836,0.632255,26.434247,1.851127,-80.578837
47210,-5.530992,4.007412,7.228769,-0.494060,5.232259,-1.369611,-0.306161,0.650176,0.231934,-0.055121,0.040121,0.072406,0.999993,-0.001531,0.003251,0.001160,-0.741594,-0.185264,0.132709,0.630955,26.266701,2.117807,-80.288659
47211,-5.588667,3.632989,8.040949,-1.180852,5.109278,-0.780009,-0.372170,0.734866,0.351254,-0.055655,0.036382,0.080547,0.999990,-0.001861,0.003674,0.001756,-0.743573,-0.185922,0.129136,0.629172,26.064096,2.401877,-79.916234
47212,-3.981323,4.041344,7.314426,-0.221581,3.625500,-1.298540,-0.373910,0.797103,0.468847,-0.039616,0.040457,0.073227,0.999988,-0.001870,0.003985,0.002344,-0.745945,-0.186688,0.125458,0.626877,25.867521,2.687679,-79.468692
47213,-3.437506,3.320576,7.449724,-0.804864,2.926149,-1.498205,-0.509663,0.950536,0.507500,-0.034105,0.033309,0.074575,0.999982,-0.002548,0.004753,0.002537,-0.748639,-0.187400,0.120790,0.624364,25.596708,3.047004,-78.963789
47214,-2.939625,3.605801,8.266509,-0.771336,2.319749,-0.647439,-0.445302,0.997629,0.533919,-0.029080,0.036164,0.082730,0.999982,-0.002226,0.004988,0.002670,-0.751355,-0.188479,0.116187,0.621644,25.369172,3.424812,-78.435179
47215,-2.208023,3.349242,8.097610,-0.755619,1.530761,-0.938594,-0.452043,0.964168,0.558137,-0.021783,0.033614,0.081006,0.999982,-0.002260,0.004821,0.002791,-0.754108,-0.189405,0.111687,0.618848,25.139550,3.783017,-77.903298
47216,-2.420994,2.996013,8.253895,-1.149647,1.600757,-0.920017,-0.378369,0.974041,0.530210,-0.023887,0.030053,0.082599,0.999983,-0.001892,0.004870,0.002651,-0.756681,-0.190653,0.107365,0.616083,24.956309,4.153819,-77.384800
47217,-2.204542,3.115433,8.404112,-1.029624,1.328941,-0.736978,-0.354053,0.883457,0.494551,-0.021751,0.031249,0.084082,0.999986,-0.001770,0.004417,0.002473,-0.759050,-0.191722,0.103406,0.613509,24.785361,4.488935,-76.907526
47218,-1.558890,2.804721,8.276856,-1.086296,0.617805,-1.024002,-0.260172,0.782189,0.457031,-0.015329,0.028120,0.082792,0.999989,-0.001301,0.003911,0.002285,-0.761140,-0.192857,0.100095,0.611108,24.668751,4.780600,-76.474979
47219,-0.090979,3.018099,8.528452,-0.626359,-0.853981,-0.827707,-0.186615,0.689007,0.382010,-0.000674,0.030259,0.085259,0.999992,-0.000933,0.003445,0.001910,-0.762871,-0.194015,0.097274,0.609035,24.589527,5.043316,-76.104162
47220,2.871012,4.085089,9.848969,0.548303,-3.799986,0.540674,0.028365,0.557117,0.134535,0.028957,0.040856,0.098415,0.999996,0.000142,0.002786,0.000673,-0.763564,-0.195714,0.095384,0.607921,24.622005,5.295585,-75.894461
47221,10.536666,7.939335,13.912219,4.250927,-11.315763,5.069693,0.530707,0.429427,-0.486549,0.105857,0.078767,0.139105,0.999991,0.002654,0.002147,-0.002433,-0.761809,-0.199232,0.094885,0.609057,24.908244,5.630837,-76.039223
47222,7.124826,13.929684,21.195649,5.880235,-8.538260,14.406433,0.361715,0.919391,-0.868717,0.072825,0.138600,0.211875,0.999978,0.001809,0.004597,-0.004344,-0.759269,-0.203771,0.091646,0.611219,25.089630,6.311311,-76.263106
47223,-9.457946,5.203893,10.813116,-1.752772,7.905966,3.144140,-0.818405,-0.183116,0.133921,-0.094713,0.052417,0.107831,0.999991,-0.004092,-0.000916,0.000670,-0.760467,-0.199998,0.089980,0.611224,24.620111,6.178909,-76.231439
47224,0.554729,1.455269,-0.170294,1.498495,-0.247041,-9.427975,-0.759753,0.001263,0.412278,0.005517,0.014557,-0.001758,0.999991,-0.003799,0.000006,0.002061,-0.762525,-0.196881,0.088096,0.609945,24.206315,6.074577,-76.008917
47225,-6.652489,3.652111,8.286422,-1.484079,5.398023,-0.070305,0.743988,1.546524,0.450138,-0.065962,0.036062,0.083510,0.999961,0.003720,0.007733,0.002251,-0.763862,-0.204185,0.084913,0.606311,24.696931,6.769539,-75.397542
47226,-3.100981,7.894836,10.270540,2.353961,2.265042,3.100739,0.301519,0.408552,0.737470,-0.031090,0.078679,0.102888,0.999990,0.001508,0.002043,0.003687,-0.766000,-0.206219,0.085048,0.602897,24.925521,6.797735,-74.906504
47227,2.610598,3.544173,9.600154,0.244805,-3.891285,0.002411,-0.818709,0.735554,0.764672,0.026322,0.035934,0.095759,0.999978,-0.004094,0.003678,0.003823,-0.769490,-0.204928,0.080554,0.599501,24.522539,6.992364,-74.322083
47228,1.097733,-0.452554,8.976089,-3.410100,-3.130109,-2.031089,-0.099827,0.681678,0.571679,0.011296,-0.004449,0.089725,0.999990,-0.000499,0.003408,0.002858,-0.771617,-0.206314,0.078249,0.596590,24.521334,7.204602,-73.852521
47229,-1.456408,-1.552265,9.159069,-5.137109,-1.025520,-2.003901,0.085043,0.795073,0.069547,-0.014194,-0.015567,0.091641,0.999992,0.000425,0.003975,0.000348,-0.772086,-0.208942,0.075512,0.595419,24.596087,7.597454,-73.619018
47230,-2.167422,-2.106086,9.979896,-6.111071,-0.713359,-1.393820,-0.057735,0.606051,-0.523744,-0.021427,-0.020976,0.099870,0.999992,-0.000289,0.003030,-0.002619,-0.770856,-0.210672,0.072481,0.596778,24.543269,8.030721,-73.742793
47231,-1.353434,-0.541733,11.675664,-5.092452,-1.632538,0.668145,0.141991,0.548009,-0.934619,-0.013240,-0.005438,0.116789,0.999985,0.000710,0.002740,-0.004673,-0.768150,-0.213148,0.069813,0.599699,24.569537,8.533937,-74.097081
47232,-2.191561,1.957742,11.284165,-2.944520,-0.326254,1.465216,0.345461,0.353763,-1.111790,-0.021607,0.019503,0.112914,0.999981,0.001727,0.001769,-0.005559,-0.764607,-0.215867,0.068327,0.603414,24.688294,8.976437,-74.591484
47233,-2.985772,2.813388,10.247380,-2.007658,0.776387,1.013438,0.351278,0.288758,-1.107455,-0.029554,0.028118,0.102566,0.999982,0.001756,0.001444,-0.005537,-0.761018,-0.218414,0.067092,0.607162,24.804523,9.387368,-75.099022
47234,-3.486166,4.312767,10.235972,-0.796667,1.437001,1.712424,0.633026,0.249148,-1.011851,-0.034516,0.042979,0.102539,0.999981,0.003165,0.001246,-0.005059,-0.757375,-0.221860,0.066979,0.610471,25.085429,9.754226,-75.565037
47235,-3.356285,5.273549,10.171931,0.098539,1.406622,2.042878,0.518248,0.128120,-0.867915,-0.033269,0.052616,0.101877,0.999987,0.002591,0.000641,-0.004340,-0.754231,-0.224460,0.067118,0.613391,25.306338,10.027363,-75.984055
47236,-2.930017,5.423399,9.895620,0.415019,1.033002,1.792566,0.525700,0.037669,-0.734027,-0.029083,0.054081,0.099104,0.999990,0.002628,0.000188,-0.003670,-0.751445,-0.226749,0.067781,0.615890,25.538147,10.220538,-76.354505
47237,-2.825059,5.767197,9.156175,0.994224,1.124049,1.269948,0.617915,-0.068228,-0.610043,-0.028106,0.057475,0.091730,0.999991,0.003090,-0.000341,-0.003050,-0.748883,-0.229024,0.069254,0.618002,25.829021,10.331759,-76.685876
47238,-2.768368,6.355644,8.772134,1.645715,1.208915,1.179963,0.485636,-0.087106,-0.519978,-0.027557,0.063415,0.087863,0.999994,0.002428,-0.000436,-0.002600,-0.746736,-0.230701,0.070502,0.619832,26.051227,10.410457,-76.974477
47239,-3.201159,6.849101,8.922855,1.898769,1.617574,1.613288,0.490060,-0.149509,-0.411662,-0.031938,0.068338,0.089372,0.999995,0.002450,-0.000748,-0.002058,-0.744886,-0.232170,0.072110,0.621323,26.283151,10.432503,-77.222192
47240,-3.481867,7.965271,8.232953,3.072819,2.181885,1.551622,0.421926,-0.258749,-0.269099,-0.034818,0.079526,0.082452,0.999996,0.002110,-0.001294,-0.001345,-0.743513,-0.232986,0.074090,0.622428,26.484829,10.361609,-77.423682
47241,-1.307192,7.585506,6.596780,3.835485,0.466127,-0.440498,0.079274,-0.225623,-0.077723,-0.013117,0.075834,0.065983,0.999999,0.000396,-0.001128,-0.000389,-0.743142,-0.232565,0.075091,0.622908,26.509511,10.260665,-77.516907
47242,-0.682737,7.290145,6.656916,3.672004,-0.175069,-0.625055,0.097787,-0.004894,0.116021,-0.006871,0.072865,0.066605,1.000000,0.000489,-0.000024,0.000580,-0.743436,-0.232827,0.075570,0.622401,26.574066,10.221948,-77.451845
47243,-0.793373,6.561139,6.902686,2.894567,-0.206438,-0.707529,-0.040619,0.136874,0.303825,-0.007986,0.065613,0.069019,0.999999,-0.000203,0.000684,0.001519,-0.744527,-0.232945,0.075294,0.621085,26.582166,10.209070,-77.252105
47244,-0.289880,5.031115,6.746165,1.708779,-0.826549,-1.608800,-0.113961,0.321287,0.408878,-0.002893,0.050344,0.067438,0.999996,-0.000570,0.001606,0.002044,-0.746095,-0.233324,0.074245,0.619185,26.568140,10.262233,-76.949613
47245,-0.286374,4.205666,7.854753,0.548770,-1.225433,-0.999977,-0.229221,0.517161,0.347933,-0.002734,0.042142,0.078506,0.999994,-0.001146,0.002586,0.001740,-0.747675,-0.233898,0.072018,0.617323,26.490547,10.433181,-76.627863
47246,-1.894308,2.375412,10.483944,-2.452065,-0.638941,0.804415,-0.413117,0.542871,0.238533,-0.018687,0.023948,0.104841,0.999993,-0.002066,0.002714,0.001193,-0.749132,-0.233902,0.069019,0.615896,26.301078,10.644159,-76.356763
47247,-4.857390,2.706198,12.016948,-3.429080,1.790427,2.850664,0.099175,0.253303,0.130102,-0.048439,0.026971,0.120244,0.999999,0.000496,0.001267,0.000651,-0.749550,-0.234966,0.068535,0.615035,26.379716,10.736044,-76.217320
47248,-1.955420,1.702025,9.436403,-2.627592,-0.431518,-0.395908,-0.281838,-0.043721,-0.028761,-0.019572,0.017156,0.094336,0.999999,-0.001409,-0.000219,-0.000144,-0.749825,-0.233744,0.067821,0.615245,26.211571,10.714247,-76.237712
47249,-0.385480,1.803309,8.645609,-1.853751,-1.705014,-1.338988,0.132391,0.051585,-0.198014,-0.003815,0.017980,0.086469,0.999999,0.000662,0.000258,-0.000990,-0.749125,-0.234424,0.067810,0.615840,26.267642,10.785825,-76.322054
47250,-1.926372,3.519248,9.507998,-1.026195,-0.252516,0.452845,0.140596,0.056249,-0.316062,-0.019181,0.035156,0.095110,0.999998,0.000703,0.000281,-0.001580,-0.748054,-0.235186,0.067683,0.616864,26.317653,10.888217,-76.466882
47251,-2.157853,3.468365,9.319419,-1.053471,-0.002072,0.307967,0.110813,-0.009539,-0.373046,-0.021518,0.034672,0.093212,0.999998,0.000554,-0.000048,-0.001865,-0.746816,-0.235655,0.067629,0.618190,26.340754,10.973017,-76.658524
47252,-3.023979,4.435689,9.889279,-0.624177,0.780922,1.395261,0.359739,-0.084410,-0.348099,-0.030204,0.044232,0.098960,0.999997,0.001799,-0.000422,-0.001740,-0.745335,-0.236808,0.068666,0.619421,26.505628,11.011765,-76.856464
47253,-2.669689,5.285542,8.927208,0.569881,0.796276,0.855039,0.283726,-0.216308,-0.293934,-0.026716,0.052768,0.089318,0.999997,0.001419,-0.001082,-0.001470,-0.744060,-0.237254,0.070009,0.620632,26.625245,10.971106,-77.060460
47254,-0.932578,4.525027,7.369736,0.879382,-0.539573,-1.175899,0.174148,-0.186262,-0.244713,-0.009339,0.045197,0.073728,0.999998,0.000871,-0.000931,-0.001224,-0.743077,-0.237364,0.070971,0.621657,26.689169,10.932072,-77.230946
47255,-0.516169,5.442346,7.368132,1.770376,-0.840187,-0.849723,0.281371,-0.015168,-0.208803,-0.005111,0.054325,0.073757,0.999998,0.001407,-0.000076,-0.001044,-0.742135,-0.238395,0.071660,0.622308,26.826022,10.973029,-77.337844
47256,-0.584763,5.526323,6.963459,1.980864,-0.674009,-1.152790,0.100468,0.098370,-0.183123,-0.005763,0.055234,0.069665,0.999999,0.000502,0.000492,-0.000916,-0.741530,-0.239094,0.071411,0.622790,26.868185,11.063959,-77.401381
47257,-1.520544,5.566327,7.826740,1.464411,-0.025568,-0.199744,0.099434,0.252328,-0.138941,-0.015068,0.055635,0.078314,0.999999,0.000497,0.001262,-0.000695,-0.741116,-0.240257,0.070625,0.622926,26.921139,11.223746,-77.401202
47258,-2.526828,5.706152,9.073831,0.876500,0.592301,1.149077,-0.103930,0.245165,-0.103631,-0.025127,0.057122,0.090739,0.999999,-0.000520,0.001226,-0.000518,-0.741053,-0.240628,0.069292,0.623007,26.861892,11.369023,-77.384501
47259,-2.706357,4.292186,8.899063,-0.338988,0.639440,0.405763,-0.020073,0.145842,-0.055326,-0.026987,0.042938,0.089006,1.000000,-0.000100,0.000729,-0.000277,-0.741003,-0.240986,0.068629,0.623002,26.849417,11.452737,-77.368947
47260,-1.189024,3.634224,8.416958,-0.393880,-0.763412,-0.607875,-0.172897,0.138963,-0.077804,-0.011818,0.036420,0.084146,0.999999,-0.000864,0.000695,-0.000389,-0.741065,-0.240762,0.067506,0.623137,26.747836,11.537163,-77.366990
47261,-0.992090,3.191729,8.521090,-0.775048,-1.044839,-0.752450,0.003798,0.238679,-0.169366,-0.009792,0.031924,0.085223,0.999999,0.000019,0.001193,-0.000847,-0.740660,-0.241535,0.066436,0.623433,26.741987,11.697811,-77.386722
47262,-2.188145,3.415126,9.187535,-1.086460,-0.086699,0.170993,-0.076738,0.220626,-0.271234,-0.021734,0.034216,0.091886,0.999998,-0.000384,0.001103,-0.001356,-0.740029,-0.241985,0.065075,0.624152,26.679069,11.873730,-77.464544
47263,-2.559052,3.474880,9.344210,-1.158284,0.204532,0.412491,-0.026261,0.166341,-0.344367,-0.025453,0.034805,0.093459,0.999998,-0.000131,0.000832,-0.001722,-0.739087,-0.242477,0.063968,0.625190,26.632908,12.042291,-77.595161
47264,-2.332491,3.602351,9.456778,-1.027836,-0.053466,0.521177,-0.015752,0.115897,-0.357107,-0.023206,0.036072,0.094578,0.999998,-0.000079,0.000579,-0.001786,-0.738076,-0.242851,0.063079,0.626329,26.589001,12.186537,-77.745873
47265,-2.771548,4.688781,9.048418,0.015431,0.563791,0.733490,0.233456,0.051892,-0.325457,-0.027616,0.046827,0.090546,0.999998,0.001167,0.000259,-0.001627,-0.736837,-0.243936,0.063230,0.627351,26.686703,12.291585,-77.896858
47266,-1.577454,3.942795,8.127244,-0.037079,-0.406435,-0.651929,-0.081949,0.040335,-0.331934,-0.015693,0.039487,0.081259,0.999999,-0.000410,0.000202,-0.001660,-0.735957,-0.243821,0.062440,0.628506,26.602770,12.390834,-78.054287
47267,-0.872904,4.211737,7.719945,0.515354,-0.961201,-1.042928,0.108096,0.152686,-0.373803,-0.008591,0.042092,0.077229,0.999998,0.000540,0.000763,-0.001869,-0.734746,-0.244774,0.061769,0.629618,26.628244,12.559865,-78.204315
47268,-1.819275,4.413832,8.613568,0.156184,-0.322759,0.028884,0.007086,0.233853,-0.402506,-0.018003,0.044172,0.086158,0.999997,0.000035,0.001169,-0.002013,-0.733591,-0.245615,0.060461,0.630763,26.597452,12.776160,-78.348139
47269,-3.820087,5.971514,9.437268,0.832718,1.447018,1.871775,0.195378,0.168168,-0.338958,-0.038020,0.059687,0.094463,0.999998,0.000977,0.000841,-0.001695,-0.732380,-0.246923,0.060050,0.631698,26.676898,12.944226,-78.475944
47270,-2.386422,5.475025,7.846804,1.309525,0.466935,-0.049988,-0.109908,0.069687,-0.224613,-0.023775,0.054820,0.078446,0.999999,-0.000550,0.000348,-0.001123,-0.731877,-0.246764,0.059192,0.632424,26.589667,13.030897,-78.569630
47271,-1.003338,5.670195,7.108834,2.056133,-0.645318,-0.921729,0.029824,0.212225,-0.151955,-0.009915,0.056699,0.071107,0.999999,0.000149,0.001061,-0.000760,-0.731471,-0.247549,0.058329,0.632667,26.598604,13.173475,-78.587717
47272,-1.848033,5.610134,7.603067,1.653626,-0.010360,-0.327922,-0.157138,0.321887,-0.105545,-0.018328,0.056171,0.076016,0.999998,-0.000786,0.001609,-0.000528,-0.731475,-0.247981,0.056547,0.632655,26.513729,13.358718,-78.552543
47273,-1.428971,5.505804,7.514422,1.697753,-0.419744,-0.551818,-0.200468,0.401617,-0.082993,-0.014116,0.055139,0.075117,0.999997,-0.001002,0.002008,-0.000415,-0.731621,-0.248500,0.054348,0.632475,26.410574,13.580793,-78.484899
47274,-2.842259,5.286524,8.715858,0.777960,0.521792,0.728388,-0.226063,0.475776,-0.021920,-0.028209,0.052967,0.087166,0.999997,-0.001130,0.002379,-0.000110,-0.732010,-0.249143,0.051891,0.631978,26.306620,13.823798,-78.365816
47275,-3.762762,6.076914,8.854800,1.278388,1.387040,1.409456,-0.236845,0.335798,0.077093,-0.037502,0.060860,0.088539,0.999998,-0.001184,0.001679,0.000385,-0.732683,-0.249277,0.050016,0.631296,26.199169,13.971718,-78.231328
47276,-1.083473,3.938783,7.103802,0.593467,-0.813850,-1.680207,-0.464435,0.371439,0.120642,-0.010727,0.039546,0.070966,0.999995,-0.002322,0.001857,0.000603,-0.733782,-0.248678,0.047366,0.630460,25.971069,14.125801,-78.064726
47277,-1.259811,3.542225,8.051445,-0.128864,-0.992873,-0.983324,-0.272278,0.564610,0.087148,-0.012386,0.035526,0.080501,0.999995,-0.001361,0.002823,0.000436,-0.734574,-0.249397,0.044551,0.629458,25.859843,14.389885,-77.866463
47278,-2.457040,2.915687,9.035359,-1.277515,-0.257383,-0.092740,-0.370859,0.562175,0.001736,-0.024317,0.029324,0.090368,0.999994,-0.001854,0.002811,0.000009,-0.735213,-0.249765,0.041348,0.628784,25.682986,14.672722,-77.714669
47279,-0.779603,1.621933,8.111143,-1.709120,-1.702661,-1.862304,-0.539912,0.542740,-0.170125,-0.007562,0.016445,0.081088,0.999992,-0.002700,0.002714,-0.000851,-0.735508,-0.249480,0.037449,0.628797,25.383351,14.990313,-77.660899
47280,-0.328288,0.440953,8.661275,-2.836826,-2.451310,-1.985625,-0.484953,0.710065,-0.385118,-0.002967,0.004625,0.086613,0.999989,-0.002425,0.003550,-0.001926,-0.735078,-0.249958,0.032859,0.629366,25.097257,15.445555,-77.681697
47281,-1.548428,0.398461,12.475864,-4.464375,-2.626081,1.649237,-0.143610,0.797862,-0.488068,-0.014976,0.004111,0.124816,0.999989,-0.000718,0.003989,-0.002440,-0.733894,-0.251979,0.028871,0.630137,24.995769,15.973126,-77.737663
47282,-4.600585,3.075603,13.369142,-2.966545,0.055996,4.349029,0.449208,0.567113,-0.501782,-0.045550,0.030570,0.133890,0.999990,0.002246,0.002836,-0.002509,-0.731875,-0.255438,0.027597,0.631148,25.215836,16.382225,-77.858932
47283,-4.249744,3.733739,10.458470,-1.233818,0.690979,1.993272,-0.111057,0.204356,-0.651187,-0.042269,0.037533,0.104607,0.999994,-0.000555,0.001022,-0.003256,-0.730036,-0.255726,0.025674,0.633239,25.064531,16.641749,-78.153151
47284,-3.606949,4.224192,8.321939,0.135506,0.807267,0.159190,0.261582,0.166365,-0.672575,-0.035858,0.042254,0.083305,0.999993,0.001308,0.000832,-0.003363,-0.727643,-0.257245,0.025056,0.635400,25.119395,16.884537,-78.469168
47285,-1.937860,6.532682,8.153527,2.635903,-0.613258,0.462856,-0.030554,0.249226,-0.685158,-0.019053,0.065405,0.081549,0.999993,-0.000153,0.001246,-0.003426,-0.725582,-0.257972,0.023178,0.637530,25.009264,17.175221,-78.771599
47286,-0.641639,6.926932,8.485606,3.151558,-1.983981,0.508674,-0.253830,0.364355,-0.699294,-0.006019,0.069398,0.084779,0.999991,-0.001269,0.001822,-0.003496,-0.723771,-0.258246,0.020167,0.639577,24.776012,17.526289,-79.053986
47287,0.182837,8.247313,9.162918,4.319391,-2.996893,1.339497,-0.408471,0.361760,-0.728730,0.002295,0.082652,0.091457,0.999990,-0.002042,0.001809,-0.003644,-0.722047,-0.257957,0.016617,0.641740,24.446204,17.883692,-79.355575
47288,2.678702,8.007408,9.457892,4.508185,-5.516578,0.674821,-0.735686,0.445772,-0.808025,0.027321,0.080311,0.094223,0.999983,-0.003678,0.002229,-0.004040,-0.720483,-0.256751,0.011634,0.644087,23.919905,18.298937,-79.683291
47289,3.991750,9.391174,11.829345,5.269369,-7.614768,2.769388,-0.605866,0.448629,-0.852805,0.040583,0.094097,0.117918,0.999984,-0.003029,0.002243,-0.004264,-0.718580,-0.256021,0.006978,0.646566,23.455496,18.725804,-80.039873
47290,8.033099,8.082216,11.959492,4.780949,-11.536936,1.000353,-1.134646,0.240176,-0.661815,0.080743,0.081232,0.119038,0.999978,-0.005673,0.001201,-0.003309,-0.717942,-0.252693,0.001641,0.648616,22.704514,18.992501,-80.344707
47291,9.186753,7.400965,9.156175,5.318280,-11.666261,-2.156339,-0.360355,0.262126,-0.754665,0.092266,0.073827,0.091308,0.999990,-0.001802,0.001311,-0.003773,-0.715997,-0.252216,-0.001416,0.650948,22.377491,19.292265,-80.699987
47292,8.233982,10.553204,11.070904,7.478458,-11.471062,0.874652,-0.135954,0.329193,-0.828738,0.082958,0.105264,0.110501,0.999990,-0.000680,0.001646,-0.004144,-0.713523,-0.252741,-0.004024,0.653445,22.170157,19.636207,-81.083138
47293,5.447158,8.818395,12.587610,4.964591,-9.533522,2.448960,-0.306761,0.073780,-0.522921,0.054749,0.088234,0.125721,0.999995,-0.001534,0.000369,-0.002615,-0.712250,-0.251839,-0.005945,0.655166,21.898750,19.783145,-81.354726
47294,5.340604,9.373839,11.518660,5.791089,-9.058888,1.740224,0.385195,-0.271001,-0.284614,0.053383,0.093440,0.115439,0.999996,0.001926,-0.001355,-0.001423,-0.710903,-0.252257,-0.004001,0.656481,22.045903,19.687695,-81.569796
47295,4.141077,7.001878,10.693754,3.631856,-7.667199,0.606277,0.046863,-0.252674,-0.133770,0.041322,0.069966,0.107006,0.999999,0.000234,-0.001263,-0.000669,-0.710461,-0.251555,-0.003112,0.657233,22.026191,19.577604,-81.696323
47296,1.674977,6.741561,11.805828,2.646098,-5.752942,2.333632,0.474094,-0.362827,-0.066736,0.016558,0.067130,0.118248,0.999995,0.002370,-0.001814,-0.000334,-0.709716,-0.251984,-0.000262,0.657880,22.259752,19.385475,-81.809576
47297,1.624950,5.672347,11.079305,1.830128,-5.419595,1.360731,0.188117,-0.505889,-0.018615,0.015974,0.056618,0.110887,0.999996,0.000941,-0.002529,-0.000093,-0.709468,-0.250950,0.002135,0.658540,22.323795,19.116651,-81.929953
47298,1.134089,3.475439,10.496453,-0.121154,-4.725151,0.247056,0.168749,-0.442567,-0.052808,0.011118,0.034663,0.105019,0.999997,0.000844,-0.002213,-0.000264,-0.709146,-0.250027,0.004289,0.659227,22.380024,18.878688,-82.054103
47299,0.084394,3.351384,11.463591,-0.737277,-4.036376,1.404107,0.375645,-0.506687,-0.085626,0.000568,0.033298,0.114700,0.999995,0.001878,-0.002533,-0.000428,-0.708431,-0.249652,0.007222,0.660111,22.540247,18.624446,-82.212609
47300,0.949821,2.466530,10.827963,-1.276190,-4.581915,0.267381,0.191892,-0.557446,-0.104249,0.009209,0.024557,0.108329,0.999996,0.000959,-0.002787,-0.000521,-0.707895,-0.248425,0.009799,0.661115,22.592924,18.336809,-82.392632
47301,1.588545,1.958428,10.962242,-1.745600,-5.178427,0.019205,0.174849,-0.555959,-0.171015,0.015597,0.019475,0.109683,0.999995,0.000874,-0.002780,-0.000855,-0.707134,-0.247176,0.012137,0.662358,22.621050,18.075696,-82.610289
47302,1.907694,1.936364,11.396908,-1.908020,-5.565589,0.319515,0.117001,-0.664020,-0.241723,0.018722,0.019274,0.114043,0.999994,0.000585,-0.003320,-0.001209,-0.706217,-0.245328,0.014674,0.663970,22.601161,17.761409,-82.891088
47303,2.961017,2.048517,11.520904,-1.755480,-6.535014,0.182637,0.108065,-0.766719,-0.279530,0.029197,0.020382,0.115333,0.999992,0.000540,-0.003834,-0.001398,-0.705146,-0.243145,0.017402,0.665843,22.560634,17.412577,-83.216727
47304,2.672392,2.729736,12.152041,-1.419560,-6.382710,1.119374,0.227106,-0.932225,-0.230114,0.026188,0.027129,0.121674,0.999988,0.001136,-0.004661,-0.001151,-0.704090,-0.240775,0.021269,0.667707,22.590955,16.952790,-83.551540
47305,2.368391,3.523125,12.177712,-0.778590,-6.002015,1.575299,0.262001,-1.135261,-0.084502,0.023007,0.035062,0.121955,0.999983,0.001310,-0.005676,-0.000423,-0.703411,-0.237874,0.026042,0.669291,22.650618,16.366280,-83.852922
47306,2.474284,3.612983,11.075504,-0.349059,-5.648135,0.666688,0.264064,-1.273343,0.086939,0.024021,0.035994,0.110957,0.999979,0.001320,-0.006367,0.000435,-0.703284,-0.234433,0.031615,0.670398,22.735214,15.655828,-84.090755
47307,1.684983,3.948070,10.863629,-0.091391,-4.701819,0.879708,0.272564,-1.300956,0.274803,0.016088,0.039355,0.108796,0.999977,0.001363,-0.006505,0.001374,-0.703715,-0.230943,0.037428,0.670857,22.849777,14.902912,-84.233267
47308,0.682472,4.121629,10.754682,-0.037094,-3.561205,1.161414,0.276314,-1.331598,0.482288,0.006009,0.041083,0.107645,0.999974,0.001382,-0.006658,0.002411,-0.704823,-0.227254,0.043708,0.670574,22.997653,14.073646,-84.270265
47309,-0.296063,4.166234,10.358782,0.008492,-2.356965,1.104812,0.263079,-1.333448,0.675411,-0.003792,0.041514,0.103619,0.999971,0.001315,-0.006667,0.003377,-0.706528,-0.223517,0.050059,0.669592,23.159541,13.214325,-84.205816
47310,-0.788913,3.932018,9.746517,-0.072706,-1.569009,0.608856,0.209743,-1.270174,0.831571,-0.008671,0.039183,0.097453,0.999971,0.001049,-0.006351,0.004158,-0.708814,-0.219688,0.056288,0.667945,23.314134,12.338251,-84.044394
47311,-1.844304,4.026731,10.032119,-0.244581,-0.454477,1.141343,0.254551,-1.189938,0.993298,-0.019239,0.040045,0.100259,0.999969,0.001273,-0.005950,0.004966,-0.711546,-0.216289,0.062448,0.665599,23.510232,11.481664,-83.781294
47312,-2.267563,4.226527,9.472420,0.047947,0.249745,0.801690,0.288614,-1.191649,1.161143,-0.023484,0.041994,0.094647,0.999964,0.001443,-0.005958,0.005806,-0.714774,-0.212875,0.069014,0.662585,23.740872,10.570018,-83.432344
47313,-2.451981,3.856489,8.966229,-0.175239,0.678526,0.226483,0.161268,-1.068550,1.251871,-0.025239,0.038336,0.089560,0.999966,0.000806,-0.005343,0.006259,-0.718406,-0.209430,0.074700,0.659130,23.903453,9.715395,-83.010837
47314,-3.253305,3.780585,9.321056,-0.533508,1.532082,0.633605,0.187116,-0.983929,1.280478,-0.033232,0.037507,0.093083,0.999967,0.000936,-0.004920,0.006402,-0.722110,-0.206268,0.080299,0.655410,24.082258,8.882675,-82.557377
47315,-3.839890,4.002971,10.114405,-0.775418,2.112510,1.501171,0.142248,-0.996399,1.285645,-0.039158,0.039708,0.100979,0.999967,0.000711,-0.004982,0.006428,-0.725801,-0.202951,0.085688,0.651676,24.225905,8.055464,-82.107942
47316,-4.048884,3.053291,9.416242,-1.463783,2.528955,0.475230,0.153264,-1.062775,1.300033,-0.041186,0.030195,0.093968,0.999964,0.000766,-0.005314,0.006500,-0.729469,-0.199374,0.091466,0.647888,24.369852,7.175015,-81.669415
47317,-3.367549,3.330474,8.448306,-0.799049,2.181869,-0.410264,0.233570,-1.030000,1.218238,-0.034312,0.032998,0.084346,0.999968,0.001168,-0.005150,0.006091,-0.732735,-0.196283,0.097194,0.644302,24.546688,6.343922,-81.269626
47318,-3.839835,2.773246,8.528312,-1.465950,2.700702,-0.554007,0.154753,-0.947943,1.086205,-0.038952,0.027456,0.085121,0.999974,0.000774,-0.004740,0.005431,-0.735669,-0.193157,0.102329,0.641101,24.669138,5.572505,-80.921849
47319,-4.544653,3.461272,8.809812,-1.129805,3.533546,0.009886,0.323918,-0.966354,0.981831,-0.046040,0.034245,0.087932,0.999975,0.001620,-0.004832,0.004909,-0.738037,-0.190699,0.107870,0.638200,24.876600,4.829115,-80.635935
47320,-3.941464,3.084985,7.476451,-0.890425,3.199653,-1.450999,0.114779,-1.014005,0.845429,-0.039923,0.030639,0.074581,0.999978,0.000574,-0.005070,0.004227,-0.740126,-0.187322,0.112877,0.635911,24.955404,4.080319,-80.434619
47321,-3.642854,2.090363,6.251950,-1.273219,3.033490,-3.037498,0.135541,-0.866425,0.669478,-0.036769,0.020739,0.062375,0.999985,0.000678,-0.004332,0.003347,-0.741673,-0.184644,0.117142,0.634118,25.038496,3.463339,-80.290486
47322,-5.300275,2.706026,8.147713,-1.814665,4.573502,-1.004167,0.359136,-0.689215,0.538979,-0.053356,0.026771,0.081342,0.999989,0.001796,-0.003446,0.002695,-0.742700,-0.183370,0.121422,0.632478,25.248111,2.957489,-80.172425
47323,-7.613649,3.928145,8.755202,-1.431307,7.017384,0.124999,0.560605,-0.867848,0.530233,-0.076619,0.038834,0.087330,0.999983,0.002803,-0.004339,0.002651,-0.743369,-0.182337,0.126904,0.630913,25.568384,2.372989,-80.105378
47324,-5.647275,3.060274,6.600496,-1.014959,5.285710,-2.339141,0.104595,-0.943339,0.432530,-0.056849,0.030446,0.065753,0.999986,0.000523,-0.004717,0.002163,-0.744089,-0.179375,0.131213,0.630031,25.625259,1.762410,-80.109362
47325,-6.988940,1.818621,6.041483,-2.135059,6.547842,-3.392480,0.257890,-0.674821,0.244659,-0.070115,0.018023,0.060202,0.999993,0.001289,-0.003374,0.001223,-0.744225,-0.178001,0.134757,0.629512,25.768007,1.348186,-80.144827
47326,-7.614221,3.080607,5.874987,-1.064839,7.401199,-3.025190,0.279075,-0.531716,0.059609,-0.076307,0.030702,0.058590,0.999995,0.001395,-0.002659,0.000298,-0.743860,-0.177232,0.137739,0.629515,25.922900,1.044192,-80.240939
47327,-8.172695,2.449486,5.854990,-1.713119,7.886770,-3.336742,0.062587,-0.265794,-0.062528,-0.081797,0.024502,0.058449,0.999999,0.000313,-0.001329,-0.000313,-0.743469,-0.176625,0.138871,0.629899,25.953118,0.917853,-80.333919
47328,-12.390672,3.755548,8.715828,-2.514677,11.995741,-0.149519,0.601600,-0.176464,0.060674,-0.123995,0.037256,0.087161,0.999995,0.003008,-0.000882,0.000303,-0.743057,-0.178177,0.141537,0.629354,26.294697,0.798256,-80.341310
47329,-10.558765,5.176660,6.428712,0.004450,10.619271,-1.636852,0.289991,-0.548674,0.175003,-0.105809,0.051581,0.064072,0.999995,0.001450,-0.002743,0.000875,-0.743002,-0.177356,0.144646,0.628943,26.456314,0.466964,-80.385317
47330,-8.327947,1.013891,2.840385,-1.735184,8.130137,-6.756471,-0.456835,-0.109791,0.107053,-0.083300,0.010159,0.028335,0.999997,-0.002284,-0.000549,0.000535,-0.743714,-0.175162,0.143762,0.628920,26.191911,0.371900,-80.352429
47331,-10.546828,1.838867,4.566075,-2.138488,10.294689,-4.821485,0.434064,0.311240,-0.005234,-0.105397,0.018292,0.045865,0.999996,0.002170,0.001556,-0.000026,-0.743583,-0.177711,0.143966,0.628312,26.437208,0.527979,-80.270234
47332,-10.346643,3.564981,5.688988,-1.095084,10.237090,-3.020829,0.048625,0.341652,-0.022102,-0.103365,0.035647,0.057075,0.999999,0.000243,0.001708,-0.000111,-0.743764,-0.178916,0.142868,0.628007,26.462956,0.699074,-80.188616
47333,-9.911246,1.980361,5.440037,-2.325009,9.568922,-3.915368,-0.087541,0.541896,-0.007703,-0.098964,0.019831,0.054660,0.999996,-0.000438,0.002709,-0.000039,-0.744248,-0.180250,0.140572,0.627570,26.410794,0.973943,-80.048504
47334,-10.639108,3.389397,6.678334,-1.765560,10.343293,-2.119998,0.039487,0.544259,0.045234,-0.106216,0.033857,0.067079,0.999996,0.000197,0.002721,0.000226,-0.744780,-0.182017,0.138739,0.626836,26.433637,1.233651,-79.880786
47335,-7.625260,1.878945,5.018787,-1.858005,7.281232,-4.299565,-0.444299,0.558294,0.016272,-0.076114,0.018895,0.050359,0.999994,-0.002221,0.002791,0.000081,-0.745663,-0.182053,0.135284,0.626531,26.178759,1.511173,-79.724795
47336,-6.667199,1.101797,4.628676,-2.206720,6.229446,-4.973866,-0.191035,0.805019,-0.018747,-0.066484,0.011069,0.046544,0.999991,-0.000955,0.004025,-0.000094,-0.746361,-0.183827,0.131683,0.625949,26.072201,1.923608,-79.525537
47337,-6.744380,3.131334,6.431633,-1.199737,6.358780,-2.411078,-0.087251,0.884454,-0.007908,-0.067157,0.031344,0.064600,0.999990,-0.000436,0.004422,-0.000040,-0.747037,-0.186227,0.128103,0.625176,26.026580,2.375802,-79.301060
47338,-4.606193,3.172183,6.342764,-0.736740,4.218498,-2.520804,0.006728,0.801800,-0.012975,-0.045805,0.031723,0.063613,0.999992,0.000034,0.004009,-0.000065,-0.747541,-0.188724,0.125126,0.624427,26.036302,2.786585,-79.100210
47339,4.819752,5.644751,7.178400,2.846511,-4.839896,-1.146998,0.711119,0.634982,-0.738440,0.048633,0.056013,0.071830,0.999982,0.003556,0.003175,-0.003692,-0.744994,-0.193778,0.124277,0.626091,26.428388,3.294855,-79.313381
47340,16.578689,28.890492,36.378836,12.785613,-17.852923,34.351392,1.369594,2.170604,-2.586543,0.173432,0.284203,0.363891,0.999834,0.006848,0.010852,-0.012932,-0.736840,-0.207209,0.117964,0.632627,27.154852,5.067598,-80.072030
47341,-24.514638,11.747573,14.095357,0.240745,23.341226,10.005148,-3.021804,-0.819438,0.665643,-0.246110,0.118759,0.138159,0.999872,-0.015108,-0.004097,0.003328,-0.741544,-0.193020,0.112103,0.632684,25.431084,4.472656,-79.931764
47342,8.852915,-5.070645,-11.831894,1.694397,-7.751977,-23.269968,-3.111420,-1.331006,0.893204,0.089541,-0.052134,-0.116922,0.999847,-0.015556,-0.006655,0.004466,-0.746553,-0.176714,0.108056,0.632262,23.657365,3.561486,-79.776992
47343,0.620977,0.229723,0.913094,-0.032092,-0.711592,-8.938290,1.839374,4.083740,0.474815,0.006389,0.002229,0.009022,0.999746,0.009196,0.020417,0.002374,-0.748491,-0.196142,0.099022,0.625686,24.804427,5.578668,-78.558814
47344,-9.951136,15.030384,21.627053,2.734518,8.034901,17.031278,1.907958,0.858838,0.666705,-0.099073,0.147898,0.218115,0.999940,0.009540,0.004294,0.003333,-0.749128,-0.205593,0.102446,0.621323,25.952012,5.853730,-77.994309
47345,3.145213,1.421207,11.100702,-2.421374,-4.874387,0.458653,-3.209314,1.077896,1.362868,0.031943,0.016205,0.110586,0.999834,-0.016046,0.005389,0.006814,-0.757134,-0.196145,0.089828,0.616609,24.210991,6.077093,-77.014072
47346,-0.408373,-8.705144,7.609897,-10.760301,-2.491247,-6.368220,-0.989497,0.950352,0.391969,-0.003551,-0.086681,0.076546,0.999975,-0.004947,0.004752,0.001960,-0.759762,-0.195116,0.083582,0.614578,23.689798,6.478104,-76.579380
47347,-0.562130,-4.529649,11.360849,-8.421486,-2.490804,-1.281943,1.313924,1.203049,-0.147703,-0.004973,-0.046038,0.113339,0.999960,0.006570,0.006015,-0.000739,-0.758544,-0.203816,0.082906,0.613349,24.463646,7.137084,-76.367929
47348,-5.225268,-1.841172,14.231820,-8.217313,1.731887,2.943232,0.337789,0.801236,-0.896498,-0.051765,-0.018420,0.142495,0.999981,0.001689,0.004006,-0.004482,-0.755814,-0.207879,0.080000,0.615737,24.618259,7.762479,-76.640860
47349,-3.025488,-0.750271,12.324037,-6.008249,0.129707,1.389208,0.280052,0.269647,-1.250498,-0.030136,-0.007487,0.123271,0.999979,0.001400,0.001348,-0.006252,-0.751811,-0.210220,0.078547,0.620014,24.693261,8.196857,-77.227274
47350,-2.418413,2.675283,10.732051,-2.209955,0.332705,1.286303,0.780169,0.250551,-1.339823,-0.023871,0.026494,0.107454,0.999969,0.003901,0.001253,-0.006699,-0.746962,-0.214402,0.078615,0.624419,25.042273,8.644770,-77.864244
47351,-3.531776,4.986445,10.073034,-0.150605,1.766258,1.834663,0.852808,0.229358,-1.248731,-0.034892,0.049653,0.100983,0.999971,0.004264,0.001147,-0.006244,-0.742265,-0.218745,0.079085,0.628442,25.435689,9.063723,-78.456512
47352,-3.596053,6.329578,9.755670,1.142137,1.962631,2.146042,0.556656,0.065081,-1.130786,-0.035571,0.063226,0.097744,0.999980,0.002783,0.000325,-0.005654,-0.738163,-0.221411,0.079355,0.632293,25.658470,9.371750,-79.026392
47353,-3.597237,5.981367,9.272949,1.010697,1.965445,1.581154,0.458804,-0.002998,-0.939406,-0.035693,0.059769,0.092866,0.999986,0.002294,-0.000015,-0.004697,-0.734722,-0.223422,0.079780,0.635532,25.837154,9.598981,-79.512709
47354,-3.011576,7.553079,8.760027,2.713538,1.598986,1.717109,0.582475,-0.101644,-0.798181,-0.029859,0.075395,0.087805,0.999988,0.002912,-0.000508,-0.003991,-0.731535,-0.225511,0.081112,0.638297,26.092863,9.742067,-79.949700
47355,-2.435078,8.351227,8.314406,3.684990,1.154244,1.584255,0.367790,-0.118294,-0.602719,-0.024149,0.083432,0.083283,0.999994,0.001839,-0.000591,-0.003014,-0.729192,-0.226679,0.082043,0.640441,26.241941,9.828443,-80.288618
47356,-2.325585,7.861418,7.621061,3.535608,1.133386,0.746937,0.187732,-0.115790,-0.364216,-0.023157,0.078585,0.076271,0.999998,0.000939,-0.000579,-0.001821,-0.727812,-0.227102,0.082656,0.641781,26.308929,9.856656,-80.502439
47357,-1.922303,7.506409,7.418511,3.358437,0.745245,0.348081,0.140534,-0.030122,-0.156248,-0.019176,0.075027,0.074235,0.999999,0.000703,-0.000151,-0.000781,-0.727186,-0.227539,0.083044,0.642285,26.371128,9.875809,-80.585731
47358,-1.406812,7.426327,7.494906,3.337688,0.216012,0.292571,-0.073795,0.016671,-0.022402,-0.014054,0.074292,0.074923,1.000000,-0.000369,0.000083,-0.000112,-0.727251,-0.227298,0.082726,0.642338,26.325185,9.885439,-80.587244
47359,-0.719785,5.706286,7.053611,2.103385,-0.474267,-0.970515,-0.258910,0.108471,0.077874,-0.007182,0.057151,0.070466,0.999999,-0.001295,0.000542,0.000389,-0.727888,-0.226630,0.081593,0.641997,26.185592,9.916345,-80.512794
47360,-1.434593,4.807533,8.321618,0.680653,-0.135152,-0.120517,-0.189288,0.261835,0.150729,-0.014273,0.048143,0.083189,0.999998,-0.000946,0.001309,0.000754,-0.728737,-0.226686,0.080212,0.641187,26.100438,10.008258,-80.361107
47361,-1.535608,4.242933,8.756678,-0.000758,-0.187819,0.036407,-0.242791,0.216248,0.155687,-0.015295,0.042524,0.087532,0.999998,-0.001214,0.001081,0.000778,-0.729646,-0.226390,0.078827,0.640430,25.982140,10.075347,-80.218530
47362,-0.459049,2.628603,8.233128,-1.030531,-1.247086,-1.310491,-0.400895,0.257605,0.104012,-0.004498,0.026449,0.082284,0.999997,-0.002004,0.001288,0.000520,-0.730577,-0.225678,0.076730,0.639874,25.771665,10.177409,-80.092738
47363,-1.451948,2.283005,9.414583,-1.961528,-0.607286,-0.234684,-0.038241,0.346877,0.012785,-0.014358,0.022847,0.094166,0.999998,-0.000191,0.001734,0.000064,-0.730842,-0.226601,0.075359,0.639409,25.763607,10.348165,-79.992258
47364,-2.229715,2.712197,9.995546,-1.931806,0.015244,0.603954,-0.051165,0.242943,-0.101957,-0.022162,0.027159,0.099975,0.999999,-0.000256,0.001215,-0.000510,-0.730711,-0.227193,0.074201,0.639484,25.733617,10.494086,-79.978344
47365,-1.122234,1.808329,8.876447,-2.098504,-0.884657,-0.973321,-0.084217,0.166636,-0.265100,-0.011124,0.018135,0.088766,0.999999,-0.000421,0.000833,-0.001325,-0.730068,-0.227475,0.073026,0.640252,25.664603,10.640948,-80.069471
47366,-1.215882,2.290501,8.997132,-1.717841,-0.809307,-0.643875,0.027282,0.224407,-0.438079,-0.012008,0.022919,0.089988,0.999997,0.000136,0.001122,-0.002190,-0.728762,-0.228414,0.071802,0.641543,25.645398,10.860682,-80.237145
47367,-1.728531,2.778834,9.076917,-1.389695,-0.327402,-0.270066,0.107114,0.191134,-0.523265,-0.017126,0.027785,0.090800,0.999996,0.000536,0.000956,-0.002616,-0.727075,-0.229563,0.070857,0.643150,25.660656,11.084161,-80.458146
47368,-1.558106,3.953486,8.518737,-0.083631,-0.314328,-0.298452,0.260000,0.209484,-0.538297,-0.015386,0.039466,0.085255,0.999995,0.001300,0.001047,-0.002691,-0.725165,-0.231332,0.070318,0.644730,25.762217,11.321214,-80.682363
47369,-2.487524,4.694590,8.765885,0.329258,0.525764,0.418767,0.251272,0.235343,-0.520678,-0.024650,0.046900,0.087747,0.999995,0.001256,0.001177,-0.002603,-0.723324,-0.233142,0.069677,0.646213,25.860842,11.567451,-80.890479
47370,-2.348901,4.882822,8.763545,0.519460,0.357902,0.471325,0.117361,0.203268,-0.498007,-0.023278,0.048835,0.087688,0.999996,0.000587,0.001016,-0.002490,-0.721695,-0.234357,0.068746,0.647694,25.882902,11.791855,-81.094773
47371,-2.196649,4.942630,8.619400,0.657145,0.207737,0.339838,0.128481,0.210066,-0.466630,-0.021761,0.049422,0.086249,0.999997,0.000642,0.001050,-0.002333,-0.720152,-0.235620,0.067861,0.649044,25.914092,12.011847,-81.280846
47372,-2.413389,5.256867,8.636514,0.905981,0.386999,0.535151,0.064476,0.203201,-0.427089,-0.023934,0.052592,0.086406,0.999997,0.000322,0.001016,-0.002135,-0.718806,-0.236617,0.066841,0.650279,25.912244,12.218637,-81.447941
47373,-2.666738,5.882444,8.489485,1.499440,0.656957,0.727993,0.077142,0.193336,-0.362455,-0.026479,0.058840,0.084943,0.999998,0.000386,0.000967,-0.001812,-0.717649,-0.237603,0.065973,0.651285,25.923476,12.403980,-81.583564
47374,-2.588005,6.010884,8.057670,1.808895,0.663429,0.387422,-0.023195,0.171752,-0.254162,-0.025734,0.060151,0.080592,0.999999,-0.000116,0.000859,-0.001271,-0.716953,-0.238126,0.064986,0.651960,25.888503,12.551311,-81.667704
47375,-1.686362,6.065260,7.728121,2.130004,-0.146836,-0.076338,-0.077799,0.241315,-0.141667,-0.016727,0.060695,0.077278,0.999999,-0.000389,0.001207,-0.000708,-0.716711,-0.238639,0.063703,0.652164,25.838341,12.706081,-81.674731
47376,-2.184173,5.249604,8.664074,0.958375,0.037257,0.505994,-0.125626,0.306517,-0.025360,-0.021702,0.052553,0.086641,0.999999,-0.000628,0.001533,-0.000127,-0.716923,-0.239162,0.062173,0.651888,25.778909,12.865705,-81.603740
47377,-2.819191,4.675185,8.840732,0.290671,0.560024,0.558695,-0.128126,0.271398,0.038584,-0.028081,0.046803,0.088416,0.999999,-0.000641,0.001357,0.000193,-0.717335,-0.239534,0.060834,0.651424,25.722877,12.991116,-81.507964
47378,-2.546219,3.339214,9.018010,-0.934415,0.181798,0.089425,-0.210063,0.240367,0.018947,-0.025357,0.033484,0.090175,0.999999,-0.001050,0.001202,0.000095,-0.717768,-0.239525,0.059319,0.651090,25.616916,13.105780,-81.430661
47379,-1.826970,2.824295,8.960046,-1.255508,-0.533195,-0.339766,-0.140506,0.208356,-0.067798,-0.018167,0.028312,0.089600,0.999999,-0.000703,0.001042,-0.000339,-0.717826,-0.239678,0.058038,0.651085,25.537600,13.225207,-81.407663
47380,-1.654731,2.263616,9.027353,-1.747386,-0.758590,-0.553838,-0.163924,0.223235,-0.213492,-0.016422,0.022728,0.090273,0.999998,-0.000820,0.001116,-0.001067,-0.717439,-0.239844,0.056455,0.651589,25.428713,13.388549,-81.458535
47381,-2.862413,3.041627,9.874106,-1.530508,0.177733,0.797155,-0.043515,0.165977,-0.350979,-0.028489,0.030488,0.098758,0.999998,-0.000218,0.000830,-0.001755,-0.716444,-0.240287,0.055302,0.652620,25.367398,13.555701,-81.597317
47382,-2.968440,3.851715,9.101256,-0.486232,0.494483,0.482903,-0.087415,0.039205,-0.456207,-0.029579,0.038624,0.091001,0.999997,-0.000437,0.000196,-0.002281,-0.715118,-0.240191,0.054334,0.654189,25.260269,13.683032,-81.824485
47383,-2.446227,3.833405,8.483474,-0.164200,0.142193,-0.189741,-0.128020,0.033036,-0.472475,-0.024358,0.038446,0.084814,0.999997,-0.000640,0.000165,-0.002362,-0.713783,-0.239929,0.053235,0.655831,25.126364,13.810409,-82.062270
47384,-2.213529,4.835255,8.561373,0.769891,-0.098543,0.235895,-0.050663,0.053652,-0.434099,-0.022007,0.048422,0.085607,0.999998,-0.000253,0.000268,-0.002170,-0.712482,-0.240004,0.052362,0.657287,25.042769,13.939043,-82.274779
47385,-2.163385,4.890249,8.233118,0.974208,-0.078705,-0.044185,-0.124885,0.088658,-0.383938,-0.021503,0.048995,0.082310,0.999998,-0.000624,0.000443,-0.001920,-0.711442,-0.239910,0.051179,0.658539,24.924263,14.073035,-82.452046
47386,-2.841228,5.404249,8.753393,1.175378,0.416718,0.786612,-0.093062,0.109411,-0.300551,-0.028283,0.054126,0.087524,0.999999,-0.000465,0.000547,-0.001503,-0.710640,-0.239981,0.050129,0.659460,24.836272,14.197689,-82.579819
47387,-2.271849,5.945587,7.828102,2.119118,0.113585,0.050723,-0.141466,0.080182,-0.189905,-0.022631,0.059533,0.078248,0.999999,-0.000707,0.000401,-0.000950,-0.710254,-0.239751,0.049155,0.660033,24.732501,14.280069,-82.655715
47388,-1.817520,5.445339,7.412580,1.902086,-0.229053,-0.634945,-0.286343,0.198452,-0.077427,-0.018081,0.054566,0.074066,0.999998,-0.001432,0.000992,-0.000387,-0.710437,-0.239375,0.047420,0.660098,24.568594,14.397281,-82.642224
47389,-2.522617,5.143770,8.231378,1.249934,0.200251,0.135933,-0.237931,0.295474,0.020352,-0.025110,0.051533,0.082290,0.999998,-0.001190,0.001477,0.000102,-0.710909,-0.239460,0.045614,0.659687,24.450626,14.541570,-82.552553
47390,-2.650527,4.288859,8.411526,0.407523,0.241401,-0.017335,-0.321629,0.279130,0.058604,-0.026400,0.043016,0.084083,0.999998,-0.001608,0.001396,0.000293,-0.711597,-0.239192,0.043640,0.659175,24.290149,14.668749,-82.446550
47391,-2.476982,3.073369,8.720389,-0.767588,-0.051489,-0.271503,-0.431516,0.295358,0.015767,-0.024644,0.030920,0.087174,0.999997,-0.002158,0.001477,0.000079,-0.712278,-0.238586,0.041191,0.658817,24.060846,14.814557,-82.360145
47392,-2.641183,2.524910,9.198303,-1.434991,-0.064763,-0.020025,-0.307382,0.297935,-0.091304,-0.026263,0.025402,0.091983,0.999998,-0.001537,0.001490,-0.000457,-0.712451,-0.238460,0.039017,0.658807,23.889110,14.987201,-82.331585
47393,-2.486071,2.366849,9.278259,-1.554706,-0.264891,-0.046359,-0.336858,0.238865,-0.216473,-0.024724,0.023852,0.092772,0.999997,-0.001684,0.001194,-0.001082,-0.712235,-0.238050,0.036803,0.659317,23.677981,15.157620,-82.385703
47394,-2.438647,2.007301,9.424710,-1.896701,-0.384091,-0.063008,-0.285080,0.232734,-0.318805,-0.024245,0.020246,0.094247,0.999997,-0.001425,0.001164,-0.001594,-0.711613,-0.237827,0.034662,0.660184,23.481961,15.348359,-82.497646
47395,-2.822769,2.871991,9.780223,-1.244770,-0.135418,0.689750,-0.144207,0.206989,-0.383876,-0.028071,0.028844,0.097811,0.999997,-0.000721,0.001035,-0.001919,-0.710603,-0.238024,0.032998,0.661286,23.354229,15.539802,-82.651828
47396,-2.458537,2.413414,10.383883,-1.815380,-0.694858,0.953716,-0.147587,0.182296,-0.403346,-0.024442,0.024260,0.103843,0.999997,-0.000738,0.000911,-0.002017,-0.709522,-0.238135,0.031388,0.662484,23.220020,15.722582,-82.823052
47397,-2.780339,4.160816,11.273759,-0.540297,-0.662507,2.492166,0.043624,0.089160,-0.417613,-0.027666,0.041641,0.112759,0.999998,0.000218,0.000446,-0.002088,-0.708151,-0.238611,0.030723,0.663810,23.186188,15.859033,-83.024346
47398,-1.652015,4.639453,8.575497,1.023949,-0.957142,-0.023502,-0.166672,-0.019030,-0.482641,-0.016416,0.046506,0.085715,0.999997,-0.000833,-0.000095,-0.002413,-0.706793,-0.237996,0.029667,0.665524,23.014994,15.952910,-83.286933
47399,-2.075112,5.611996,7.803179,2.178146,-0.347852,-0.230165,-0.075848,0.097692,-0.517884,-0.020568,0.056203,0.078021,0.999996,-0.000379,0.000488,-0.002589,-0.705223,-0.238090,0.028457,0.667206,22.896996,16.115432,-83.542140
47400,-1.830027,6.798156,7.596152,3.411032,-0.562693,-0.049832,-0.319648,0.200350,-0.535492,-0.018042,0.068151,0.075871,0.999995,-0.001598,0.001002,-0.002677,-0.703892,-0.237672,0.026054,0.668856,22.642761,16.335336,-83.784101
47401,-1.613727,5.994023,8.082915,2.570059,-0.956462,0.002874,-0.575985,0.379683,-0.571621,-0.015812,0.060218,0.080686,0.999990,-0.002880,0.001898,-0.002858,-0.702759,-0.236948,0.022116,0.670445,22.245472,16.656746,-84.006758
47402,0.012796,7.502092,8.770273,3.971072,-2.800681,0.655583,-0.616722,0.527998,-0.777812,0.000652,0.075289,0.087470,0.999984,-0.003084,0.002640,-0.003889,-0.700980,-0.236602,0.017282,0.672568,21.800082,17.099525,-84.313410
47403,1.017146,7.917597,9.761331,4.217020,-4.172948,1.314145,-1.012493,0.708210,-1.132078,0.010966,0.079608,0.097173,0.999965,-0.005062,0.003541,-0.005660,-0.698460,-0.235487,0.010059,0.675721,21.075092,17.709710,-84.784171
47404,1.613218,9.386126,10.288299,5.590775,-5.092555,1.992178,-0.859167,0.802043,-1.491361,0.017245,0.094176,0.102411,0.999955,-0.004296,0.004010,-0.007457,-0.694493,-0.235230,0.002617,0.679955,20.374806,18.436660,-85.446967
47405,4.497566,12.084709,11.269729,8.120826,-8.441726,2.679559,-0.685614,0.777967,-1.700230,0.046440,0.120841,0.112104,0.999950,-0.003428,0.003890,-0.008501,-0.689548,-0.235468,-0.004411,0.684879,19.720393,19.184916,-86.245600
47406,6.017494,15.257672,12.814720,10.757595,-10.788503,4.368190,-0.348174,0.553899,-1.579924,0.061733,0.152316,0.127712,0.999963,-0.001741,0.002769,-0.007900,-0.684564,-0.236092,-0.009342,0.689598,19.257533,19.779884,-87.031255
47407,7.606528,12.451838,10.675688,8.847186,-11.589784,0.877395,-0.622093,0.326093,-1.302735,0.077049,0.124350,0.106245,0.999973,-0.003110,0.001630,-0.006514,-0.680827,-0.234984,-0.014138,0.693583,18.664708,20.194806,-87.710963
47408,7.139694,11.143343,10.643385,7.565622,-11.187894,0.483936,-0.043699,0.224535,-1.262108,0.072218,0.111003,0.106329,0.999979,-0.000218,0.001123,-0.006310,-0.676529,-0.235491,-0.016485,0.697553,18.403222,20.538731,-88.390931
47409,6.260871,10.756103,11.082783,6.969269,-10.610545,0.983790,0.004892,-0.025354,-1.269797,0.063276,0.107158,0.110838,0.999980,0.000024,-0.000127,-0.006349,-0.672137,-0.235275,-0.017875,0.701824,18.142421,20.748821,-89.127125
47410,5.696969,9.521927,10.858401,5.761556,-9.988372,0.582628,0.324611,-0.281207,-1.232258,0.057401,0.094690,0.108818,0.999979,0.001623,-0.001406,-0.006161,-0.667503,-0.235233,-0.017171,0.706265,18.059092,20.805522,-89.890226
47411,5.273870,10.537411,10.641976,6.667829,-9.709682,0.834489,0.566710,-0.486419,-1.118147,0.053066,0.104776,0.106846,0.999977,0.002834,-0.002432,-0.005591,-0.662970,-0.235271,-0.014859,0.710561,18.118416,20.735301,-90.627141
47412,5.103141,9.951616,9.798097,6.245925,-9.256599,0.004725,0.577693,-0.614328,-0.914852,0.051183,0.098998,0.098424,0.999981,0.002888,-0.003072,-0.004574,-0.659137,-0.234898,-0.011763,0.714299,18.225884,20.553431,-91.268124
47413,5.275781,9.588282,8.923487,6.054356,-9.119310,-0.891983,0.705442,-0.603720,-0.641232,0.052794,0.095398,0.089731,0.999984,0.003527,-0.003019,-0.003206,-0.656099,-0.234990,-0.008005,0.717112,18.457857,20.336472,-91.749555
47414,4.759307,9.362245,9.265866,5.630739,-8.722177,-0.411831,0.672451,-0.565082,-0.325080,0.047482,0.093233,0.093107,0.999989,0.003362,-0.002825,-0.001625,-0.654225,-0.235119,-0.004025,0.718813,18.746710,20.076786,-92.038979
47415,5.040304,7.932883,9.354119,4.152261,-8.788211,-0.792722,0.692266,-0.546183,0.021530,0.050138,0.079010,0.093952,0.999990,0.003461,-0.002731,0.000108,-0.653549,-0.235383,0.000277,0.719353,19.109067,19.772459,-92.127695
47416,5.065656,7.089007,9.799758,3.121336,-8.777684,-0.584568,0.819008,-0.558153,0.354867,0.050257,0.070577,0.098428,0.999986,0.004095,-0.002791,0.001774,-0.653919,-0.236009,0.005574,0.718789,19.616112,19.389717,-92.027839
47417,5.327756,5.867188,10.316596,1.714698,-8.936142,-0.515117,0.754359,-0.564229,0.632457,0.052801,0.058449,0.103536,0.999984,0.003772,-0.002821,0.003162,-0.655331,-0.236391,0.010878,0.717316,20.126788,18.958100,-91.776632
47418,4.835420,4.462365,10.659499,0.228982,-8.294009,-0.427883,0.832027,-0.568417,0.817606,0.047869,0.044376,0.106916,0.999979,0.004160,-0.002842,0.004088,-0.657306,-0.236983,0.016811,0.715197,20.721114,18.474277,-91.424430
47419,3.912564,4.775006,11.840611,0.031239,-7.709428,1.090085,1.043447,-0.607055,0.938652,0.038543,0.047313,0.118771,0.999971,0.005217,-0.003035,0.004693,-0.659410,-0.238119,0.023650,0.712684,21.440936,17.951750,-91.021257
47420,3.215556,4.215545,12.389841,-0.774133,-7.012715,1.669433,0.814372,-0.745679,1.057815,0.031471,0.041818,0.124187,0.999971,0.004072,-0.003728,0.005289,-0.662175,-0.237959,0.030397,0.709913,22.043133,17.313790,-90.588175
47421,2.132210,3.725410,13.039036,-1.553770,-5.956879,2.456774,0.886737,-0.918362,1.180503,0.020504,0.036798,0.130650,0.999962,0.004434,-0.004592,0.005902,-0.665199,-0.237409,0.037990,0.706897,22.678584,16.565166,-90.137104
47422,2.065540,3.865748,12.328010,-1.253868,-5.553560,1.967470,0.934571,-1.138178,1.305882,0.019702,0.038211,0.123573,0.999952,0.004673,-0.005691,0.006529,-0.668530,-0.236171,0.046758,0.703637,23.345538,15.654635,-89.677584
47423,0.989137,3.761327,11.852227,-1.269594,-4.206056,1.861838,0.868537,-1.177936,1.414261,0.008929,0.037163,0.118739,0.999948,0.004343,-0.005890,0.007071,-0.672223,-0.234548,0.055421,0.700023,23.968690,14.706471,-89.182868
47424,-0.428714,4.268576,12.157802,-1.055765,-2.750799,2.738416,0.816663,-1.245772,1.554407,-0.005374,0.042150,0.121720,0.999942,0.004083,-0.006229,0.007772,-0.676395,-0.232415,0.064419,0.695933,24.573045,13.670966,-88.640459
47425,-0.567903,4.547261,11.673921,-0.709130,-2.304927,2.494207,0.658429,-1.355555,1.724718,-0.006860,0.045032,0.116844,0.999934,0.003292,-0.006778,0.008623,-0.681202,-0.229314,0.073297,0.691380,25.080565,12.546197,-88.048325
47426,-0.809434,4.024545,10.663459,-0.865573,-1.596282,1.468247,0.665323,-1.340523,1.916996,-0.009192,0.039806,0.106708,0.999926,0.003327,-0.006702,0.009585,-0.686596,-0.226148,0.082487,0.686032,25.606812,11.362632,-87.362616
47427,-1.518264,4.824159,10.473540,-0.193255,-0.676151,1.796484,0.642595,-1.239762,2.109400,-0.016337,0.047737,0.104790,0.999920,0.003213,-0.006199,0.010547,-0.692589,-0.223171,0.091328,0.679834,26.120110,10.191157,-86.565022
47428,-2.319335,3.780059,10.049175,-1.102673,0.431518,1.107378,0.465394,-1.121098,2.283284,-0.024184,0.037294,0.100445,0.999916,0.002327,-0.005605,0.011416,-0.699329,-0.219827,0.099464,0.672846,26.540530,9.015584,-85.658189
47429,-3.751917,3.464187,10.396588,-1.763502,1.976675,1.463151,0.548214,-1.005152,2.421072,-0.038455,0.033895,0.103868,0.999910,0.002741,-0.005026,0.012105,-0.706359,-0.217096,0.107477,0.665113,26.996816,7.871453,-84.662498
47430,-3.934703,2.787959,10.160591,-2.416209,2.360481,0.914767,0.413797,-0.955379,2.491048,-0.040173,0.027173,0.101472,0.999909,0.002069,-0.004777,0.012455,-0.713681,-0.213933,0.115048,0.657005,27.366900,6.712950,-83.628411
47431,-3.705172,1.347624,9.436036,-3.461262,2.316547,-0.472752,0.189082,-0.818211,2.439511,-0.037597,0.012931,0.094220,0.999917,0.000945,-0.004091,0.012197,-0.721010,-0.210455,0.121192,0.648973,27.582677,5.646921,-82.592877
47432,-4.935486,0.174430,10.358168,-5.174739,3.403153,-0.152469,0.158962,-0.649266,2.303073,-0.049706,0.001091,0.103422,0.999928,0.000795,-0.003246,0.011515,-0.727933,-0.207419,0.126583,0.641146,27.765071,4.685386,-81.587064
47433,-7.218546,-0.477336,11.520719,-6.749579,5.493949,0.642801,0.492441,-0.739949,2.244669,-0.072549,-0.005869,0.114926,0.999927,0.002462,-0.003700,0.011223,-0.734143,-0.205358,0.133177,0.633345,28.112359,3.702984,-80.641293
47434,-8.406650,0.996720,11.608754,-5.901268,6.903021,1.320289,0.856228,-0.942738,2.194260,-0.084712,0.008544,0.115728,0.999920,0.004281,-0.004714,0.010971,-0.739586,-0.203944,0.141698,0.625573,28.649548,2.611713,-79.784882
47435,-7.442535,-0.171669,9.508724,-5.942970,6.160782,-1.294544,0.097185,-1.213061,1.960147,-0.074978,-0.002496,0.094632,0.999933,0.000486,-0.006065,0.009801,-0.744754,-0.199060,0.148481,0.619411,28.724534,1.457537,-79.127270
47436,-7.078836,-2.953653,6.683211,-7.038188,5.754908,-5.247270,-0.272240,-1.103939,1.569581,-0.070922,-0.030002,0.066482,0.999953,-0.001361,-0.005520,0.007848,-0.749089,-0.193358,0.153398,0.614774,28.575096,0.454081,-78.635543
47437,-8.764475,-1.575811,8.057628,-6.903848,7.526422,-3.495121,0.648588,-0.848482,1.166578,-0.087890,-0.016531,0.080151,0.999969,0.003243,-0.004242,0.005833,-0.751418,-0.192231,0.159697,0.610668,28.943152,-0.299028,-78.277885
47438,-9.684033,0.466307,8.003173,-5.405236,8.846905,-2.701978,0.340483,-0.903342,0.915608,-0.097220,0.004083,0.079600,0.999978,0.001702,-0.004517,0.004578,-0.753205,-0.189922,0.165086,0.607749,29.133086,-1.022082,-78.064630
47439,-8.444800,-0.490925,5.577193,-4.848897,7.709075,-5.372145,-0.124971,-0.774981,0.665555,-0.084646,-0.005156,0.055447,0.999987,-0.000625,-0.003875,0.003328,-0.754739,-0.186497,0.168259,0.606033,29.054621,-1.600884,-77.941711
47440,-9.918916,0.395931,5.762052,-4.519759,9.336040,-4.898169,0.267981,-0.431772,0.479061,-0.099322,0.003644,0.057411,0.999994,0.001340,-0.002159,0.002395,-0.755628,-0.185705,0.171212,0.604340,29.200990,-1.964950,-77.816440
47441,-10.076233,2.658182,5.789781,-2.680021,9.957341,-3.830499,0.194245,-0.246235,0.313410,-0.100875,0.026368,0.057799,0.999998,0.000971,-0.001231,0.001567,-0.756225,-0.185377,0.173024,0.603176,29.304859,-2.181181,-77.723090
47442,-11.723540,2.244312,6.655826,-3.823093,11.431770,-3.372432,-0.177491,-0.071496,0.240039,-0.117286,0.022361,0.066496,0.999999,-0.000887,-0.000357,0.001200,-0.757103,-0.184199,0.173035,0.602432,29.195478,-2.296795,-77.617202
47443,-11.822321,3.288723,7.231541,-3.250192,11.710996,-2.385242,-0.034026,-0.071685,0.195880,-0.118281,0.032784,0.072267,0.999999,-0.000170,-0.000358,0.000979,-0.757705,-0.183636,0.173388,0.601745,29.168514,-2.392760,-77.533606
47444,-11.545103,2.296603,6.041411,-3.467819,11.324448,-3.914083,-0.187881,-0.051847,0.193912,-0.115489,0.022911,0.060363,0.999999,-0.000939,-0.000259,0.000970,-0.758465,-0.182526,0.173237,0.601169,29.053371,-2.483449,-77.445128
47445,-10.648810,3.721845,4.945711,-1.546884,10.827296,-4.148225,-0.011931,0.091805,0.130389,-0.106490,0.037152,0.049504,1.000000,-0.000060,0.000459,0.000652,-0.758990,-0.182595,0.172976,0.600560,29.038308,-2.479105,-77.348608
47446,-9.927945,2.978418,4.157560,-1.649207,10.015695,-5.155832,-0.311814,0.297971,0.051065,-0.099225,0.029824,0.041677,0.999998,-0.001559,0.001490,0.000255,-0.759731,-0.182197,0.170983,0.600315,28.851083,-2.352690,-77.234581
47447,-9.625108,3.824323,4.526769,-1.049263,9.856874,-4.381236,-0.085152,0.519009,0.026202,-0.096138,0.038250,0.045501,0.999997,-0.000426,0.002595,0.000131,-0.760371,-0.183360,0.168783,0.599773,28.791937,-2.104742,-77.072348
47448,-9.265786,4.542207,5.339200,-0.757486,9.569503,-3.267153,-0.274343,0.645089,0.038561,-0.092494,0.045478,0.053628,0.999994,-0.001372,0.003225,0.000193,-0.761322,-0.184162,0.165560,0.599219,28.624202,-1.798375,-76.869724
47449,-8.531930,4.243605,5.527177,-0.934891,8.744679,-3.178831,-0.396298,0.619489,0.055332,-0.085159,0.042522,0.055452,0.999993,-0.001981,0.003097,0.000277,-0.762403,-0.184414,0.162068,0.598721,28.387237,-1.506911,-76.666757
47450,-7.107641,2.299586,3.172543,-1.158188,7.120569,-6.094143,-0.533925,0.718001,-0.067520,-0.070954,0.023105,0.031919,0.999990,-0.002670,0.003590,-0.000338,-0.763309,-0.184535,0.157679,0.598701,28.074032,-1.131864,-76.500710
47451,-6.290202,1.154054,0.912990,-0.897892,6.272085,-8.553190,-0.221134,0.992657,-0.562130,-0.062823,0.011728,0.009429,0.999983,-0.001106,0.004963,-0.002811,-0.762643,-0.187055,0.152712,0.600054,27.943445,-0.483747,-76.512300
47452,11.773080,10.867557,12.015403,6.499346,-10.666746,5.840540,0.578643,1.729136,-2.671449,0.120200,0.106735,0.119433,0.999869,0.002893,0.008645,-0.013357,-0.755349,-0.196425,0.145340,0.608064,28.266853,1.106626,-77.390268
47453,-22.668087,32.084222,49.190842,0.075576,21.395151,49.390625,0.733284,2.012089,-1.053675,-0.220021,0.320201,0.495319,0.999929,0.003666,0.010060,-0.005268,-0.752878,-0.206016,0.138930,0.609451,28.683717,2.402520,-77.365649
47454,-4.585577,6.055505,-6.493369,7.152909,6.393063,-12.607462,-3.336454,-2.198244,1.319477,-0.045524,0.059154,-0.066430,0.999779,-0.016681,-0.010990,0.006597,-0.758679,-0.185767,0.138370,0.608893,26.771841,0.932093,-77.277173
47455,14.842455,-10.541556,-13.957443,0.011115,-14.764796,-27.368806,-3.088010,2.849770,0.850690,0.146884,-0.106948,-0.140031,0.999770,-0.015439,0.014248,0.004253,-0.765977,-0.182051,0.118922,0.604974,25.029838,2.182907,-76.119268
47456,-6.314596,9.207664,25.035668,-4.104153,4.120192,16.971669,5.192267,2.736768,0.734145,-0.060013,0.085298,0.253466,0.999563,0.025958,0.013682,0.003670,-0.764802,-0.209664,0.124772,0.596280,28.055416,3.393040,-75.035776
47457,1.111928,6.306626,9.989371,1.486526,-1.503329,1.862775,-2.940123,1.181707,0.892568,0.011420,0.064575,0.098885,0.999865,-0.014700,0.005908,0.004463,-0.771223,-0.201313,0.112413,0.593340,26.414888,3.755805,-74.263994
47458,-3.069023,-9.715672,10.159447,-13.420820,-1.014894,-4.726272,-1.692933,1.164081,0.396019,-0.029904,-0.096351,0.102588,0.999945,-0.008465,0.005820,0.001980,-0.774751,-0.197974,0.103303,0.591519,25.477572,4.251944,-73.761468
47459,-0.663000,-3.707209,11.787878,-8.128904,-2.450400,-0.809991,1.584095,1.341011,-0.218731,-0.005882,-0.037998,0.117621,0.999946,0.007920,0.006705,-0.001094,-0.773231,-0.208135,0.102577,0.590145,26.399692,4.992637,-73.531481
47460,-5.166702,0.981961,13.630144,-6.118976,2.331546,3.247163,0.529665,1.031465,-0.832219,-0.050923,0.009671,0.136591,0.999975,0.002648,0.005157,-0.004161,-0.770777,-0.213607,0.099283,0.591961,26.684323,5.730213,-73.688868
47461,-3.451712,0.840865,11.611748,-4.922806,0.984009,1.244042,-0.015628,0.472645,-1.156802,-0.034193,0.008616,0.116198,0.999980,-0.000078,0.002363,-0.005784,-0.767634,-0.215472,0.096184,0.595868,26.622459,6.264439,-74.156514
47462,-3.206696,3.783670,11.810983,-2.339843,1.209049,2.723695,0.420880,0.401428,-1.246990,-0.031594,0.037786,0.118253,0.999976,0.002104,0.002007,-0.006235,-0.763685,-0.218836,0.094544,0.599964,26.798166,6.787294,-74.688923
47463,-3.418041,5.139940,10.255259,-0.566605,1.914084,1.989301,0.382103,0.208111,-1.197564,-0.033766,0.051406,0.102686,0.999980,0.001911,0.001041,-0.005988,-0.759803,-0.221437,0.093590,0.604074,26.945293,7.198644,-75.245450
47464,-4.426548,5.790416,10.321976,-0.261552,2.901386,2.482820,0.323219,0.085204,-1.082742,-0.043908,0.057976,0.103332,0.999984,0.001616,0.000426,-0.005414,-0.756249,-0.223384,0.093031,0.607892,27.057601,7.520281,-75.774528
47465,-3.332923,6.727462,9.612482,1.134391,2.097941,2.148853,0.318417,-0.103431,-0.970665,-0.033052,0.067282,0.096215,0.999987,0.001592,-0.000517,-0.004853,-0.752931,-0.224679,0.093311,0.611480,27.166940,7.715811,-76.295413
47466,-2.035990,6.593934,8.490668,1.797641,1.033758,0.930513,0.124990,-0.158076,-0.811409,-0.020159,0.065968,0.084932,0.999991,0.000625,-0.000790,-0.004057,-0.750274,-0.225004,0.093364,0.614610,27.172215,7.844314,-76.748765
47467,-1.807892,6.935167,8.412409,2.186198,0.841969,0.987550,0.234566,-0.081026,-0.629465,-0.017895,0.069309,0.084198,0.999994,0.001173,-0.000405,-0.003147,-0.748081,-0.225884,0.093686,0.616907,27.255889,7.962774,-77.088206
47468,-2.387812,7.107043,8.845121,2.023019,1.298430,1.530561,0.188883,-0.113864,-0.432631,-0.023775,0.071038,0.088505,0.999997,0.000944,-0.000569,-0.002163,-0.746522,-0.226404,0.094195,0.618526,27.325159,8.015275,-77.335098
47469,-1.601161,6.143610,7.818753,1.775265,0.624573,0.081699,0.051128,-0.136174,-0.287730,-0.015976,0.061439,0.078192,0.999999,0.000256,-0.000681,-0.001439,-0.745556,-0.226266,0.094541,0.619687,27.325544,8.016435,-77.513378
47470,-0.517913,5.279712,7.632232,1.325126,-0.500681,-0.626398,0.045100,-0.038528,-0.216785,-0.005137,0.052785,0.076333,0.999999,0.000225,-0.000193,-0.001084,-0.744857,-0.226383,0.094570,0.620479,27.330861,8.050727,-77.629357
47471,-0.845338,5.111323,8.170421,0.880924,-0.333542,-0.184151,0.024026,0.029293,-0.200302,-0.008390,0.051112,0.081712,0.999999,0.000120,0.000146,-0.001002,-0.744269,-0.226615,0.094314,0.621139,27.328010,8.113126,-77.718756
47472,-0.893777,4.623217,8.194145,0.436858,-0.364913,-0.379079,-0.060837,0.031603,-0.250773,-0.008867,0.046268,0.081929,0.999999,-0.000304,0.000158,-0.001254,-0.743617,-0.226570,0.093716,0.622027,27.272695,8.191881,-77.833667
47473,-0.828859,4.098595,7.882879,0.128266,-0.436398,-0.900990,-0.037309,0.057872,-0.281057,-0.008208,0.041012,0.078824,0.999999,-0.000187,0.000289,-0.001405,-0.742858,-0.226700,0.093072,0.622982,27.229567,8.289902,-77.957175
47474,-0.366670,4.544339,7.859427,0.635763,-0.843067,-0.788218,-0.019974,0.144864,-0.293687,-0.003543,0.045456,0.078592,0.999999,-0.000100,0.000724,-0.001468,-0.742076,-0.227179,0.092131,0.623879,27.198392,8.437353,-78.064372
47475,-0.929658,4.733822,8.634815,0.365005,-0.474997,0.060226,0.107916,0.222574,-0.244447,-0.009143,0.047303,0.086384,0.999998,0.000540,0.001113,-0.001222,-0.741340,-0.228343,0.091370,0.624441,27.247114,8.609632,-78.125507
47476,-1.444714,4.491073,8.874106,-0.051295,-0.086578,0.237014,-0.024346,0.184334,-0.227512,-0.014314,0.044938,0.088749,0.999999,-0.000122,0.000922,-0.001138,-0.740784,-0.228898,0.090345,0.625046,27.219616,8.759742,-78.188173
47477,-0.667758,2.786342,8.334879,-1.166602,-0.933984,-1.126695,-0.024545,0.210679,-0.265660,-0.006553,0.027882,0.083352,0.999999,-0.000123,0.001053,-0.001328,-0.740123,-0.229542,0.089189,0.625758,27.189919,8.931498,-78.263509
47478,-0.929836,2.782226,9.174257,-1.572985,-0.902542,-0.353122,0.154870,0.277646,-0.365010,-0.009120,0.027768,0.091777,0.999997,0.000774,0.001388,-0.001825,-0.738970,-0.231111,0.088221,0.626681,27.257325,9.165103,-78.372413
47479,-1.795912,3.436425,9.225473,-1.192481,-0.042622,0.123093,0.191600,0.193081,-0.487617,-0.017786,0.034319,0.092305,0.999996,0.000958,0.000965,-0.002438,-0.737350,-0.232595,0.087550,0.628131,27.331729,9.386332,-78.566761
47480,-0.785951,3.272554,8.283280,-0.744338,-0.851923,-0.943632,0.096083,0.185330,-0.600994,-0.007684,0.032709,0.082856,0.999995,0.000480,0.000927,-0.003005,-0.735474,-0.233757,0.086462,0.630048,27.340212,9.635203,-78.821728
47481,-2.177467,4.575507,8.911106,-0.125208,0.428665,0.428638,0.326366,0.234838,-0.627026,-0.021527,0.045677,0.089211,0.999993,0.001632,0.001174,-0.003135,-0.733262,-0.235924,0.085899,0.631893,27.479872,9.914828,-79.076683
47482,-1.573956,5.596900,8.296326,1.152212,0.031982,0.252244,0.069813,0.182477,-0.615649,-0.015492,0.055988,0.082997,0.999995,0.000349,0.000912,-0.003078,-0.731355,-0.236982,0.084717,0.633864,27.469479,10.166692,-79.339773
47483,-2.028248,4.834069,8.170732,0.453978,0.390819,-0.123319,0.111762,0.238004,-0.531301,-0.020057,0.048348,0.081758,0.999996,0.000559,0.001190,-0.002657,-0.729684,-0.238327,0.083576,0.635434,27.492882,10.422928,-79.544482
47484,-2.639744,6.947154,8.935910,1.899329,0.913509,1.617075,0.140696,0.246658,-0.463180,-0.026126,0.069469,0.089440,0.999996,0.000703,0.001233,-0.002316,-0.728191,-0.239780,0.082565,0.636731,27.538486,10.667222,-79.711746
47485,-2.383966,5.484082,7.753702,1.162781,0.807429,-0.123815,-0.166180,0.133070,-0.317673,-0.023701,0.054943,0.077507,0.999998,-0.000831,0.000665,-0.001588,-0.727482,-0.239687,0.081176,0.637755,27.416352,10.813630,-79.834474
47486,-1.386708,5.123910,7.738462,1.043081,-0.206974,-0.489049,-0.091568,0.290375,-0.268615,-0.013686,0.051293,0.077381,0.999998,-0.000458,0.001452,-0.001343,-0.726896,-0.240354,0.079500,0.638382,27.349228,11.028583,-79.890017
47487,-1.536265,4.315474,8.651263,-0.062617,-0.377960,-0.031031,-0.256073,0.297530,-0.305774,-0.015168,0.043289,0.086480,0.999997,-0.001280,0.001488,-0.001529,-0.726393,-0.240452,0.077240,0.639195,27.184302,11.255181,-79.963283
47488,-1.808981,3.376876,9.239767,-1.159873,-0.361527,0.115695,-0.215568,0.331701,-0.382428,-0.017872,0.033903,0.092391,0.999996,-0.001078,0.001659,-0.001912,-0.725600,-0.240842,0.074881,0.640228,27.036012,11.520594,-80.068159
47489,-3.304429,4.352494,9.786224,-0.745432,0.966618,1.329281,0.010759,0.225189,-0.422511,-0.032842,0.043589,0.097902,0.999997,0.000054,0.001126,-0.002113,-0.724366,-0.241718,0.073595,0.641443,27.006993,11.740347,-80.222599
47490,-2.524787,4.487290,9.129401,-0.196386,0.358056,0.660581,-0.206622,0.112507,-0.452325,-0.025095,0.045024,0.091262,0.999997,-0.001033,0.000563,-0.002262,-0.723250,-0.241462,0.071973,0.642982,26.843302,11.911639,-80.423087
47491,-3.012881,4.828001,8.939272,0.132272,0.870205,0.747747,0.019409,0.107666,-0.426138,-0.029978,0.048335,0.089414,0.999998,0.000097,0.000538,-0.002131,-0.721943,-0.241990,0.071137,0.644344,26.811237,12.071727,-80.611455
47492,-2.625196,5.538321,8.646962,0.973774,0.584088,0.725106,-0.175507,0.046134,-0.392351,-0.026123,0.055510,0.086427,0.999998,-0.000878,0.000231,-0.001962,-0.720952,-0.241610,0.069923,0.645727,26.667080,12.193034,-80.798858
47493,-2.303340,4.508726,8.500949,0.190783,0.242494,0.076945,-0.205736,0.056882,-0.355006,-0.022929,0.045215,0.084970,0.999998,-0.001029,0.000284,-0.001775,-0.720122,-0.241135,0.068630,0.646969,26.510086,12.308092,-80.964122
47494,-2.140274,4.553222,8.398071,0.327561,0.096670,-0.028851,-0.206167,0.084679,-0.342493,-0.021289,0.045655,0.083943,0.999998,-0.001031,0.000423,-0.001712,-0.719336,-0.240751,0.067239,0.648131,26.355278,12.435508,-81.116111
47495,-2.242596,3.774904,8.688017,-0.475693,0.068861,-0.090052,-0.251416,0.091040,-0.358610,-0.022319,0.037898,0.086843,0.999997,-0.001257,0.000455,-0.001793,-0.718555,-0.240220,0.065671,0.649354,26.172736,12.568113,-81.275225
47496,-2.197191,3.118843,9.571628,-1.385650,-0.249462,0.394590,-0.236871,0.103350,-0.406598,-0.021859,0.031346,0.095691,0.999997,-0.001184,0.000517,-0.002033,-0.717597,-0.239805,0.064035,0.650729,25.993060,12.720375,-81.457150
47497,-3.600743,3.399705,10.187504,-1.557749,0.939072,1.367657,-0.013203,-0.006431,-0.449430,-0.035934,0.034085,0.101872,0.999997,-0.000066,-0.000032,-0.002247,-0.716196,-0.239839,0.063481,0.652311,25.929926,12.824727,-81.690189
47498,-2.541559,3.478704,9.128155,-0.881579,0.189473,0.240716,-0.228095,-0.145019,-0.532155,-0.025389,0.034959,0.091223,0.999996,-0.001140,-0.000725,-0.002661,-0.714731,-0.238684,0.062610,0.654423,25.725302,12.879512,-82.002948
47499,-1.684968,3.091036,8.204070,-0.718969,-0.413026,-0.923770,-0.047842,-0.104323,-0.588210,-0.016801,0.030979,0.082025,0.999996,-0.000239,-0.000522,-0.002941,-0.712878,-0.238314,0.062129,0.656621,25.619553,12.966612,-82.335121
47500,-2.023432,4.617138,8.253666,0.616989,-0.076426,-0.161332,-0.020548,-0.064132,-0.614049,-0.020119,0.046242,0.082525,0.999995,-0.000103,-0.000321,-0.003070,-0.710910,-0.238186,0.061549,0.658852,25.527522,13.082082,-82.671237
47501,-1.642986,4.211545,7.796283,0.498054,-0.353274,-0.821268,-0.085026,-0.039090,-0.593290,-0.016320,0.042197,0.077942,0.999995,-0.000425,-0.000195,-0.002966,-0.709092,-0.237896,0.060705,0.660990,25.402228,13.203005,-82.990224
47502,-1.050330,4.516031,7.416931,1.010098,-0.848048,-1.165778,0.027040,0.064782,-0.538826,-0.010358,0.045178,0.074179,0.999996,0.000135,0.000324,-0.002694,-0.707344,-0.238334,0.059915,0.662776,25.352539,13.365553,-83.254565
47503,-1.561161,4.558724,7.673898,0.891594,-0.451985,-0.806659,0.086538,0.207114,-0.436034,-0.015433,0.045588,0.076775,0.999997,0.000433,0.001036,-0.002180,-0.705906,-0.239416,0.058954,0.664003,25.357585,13.574773,-83.428379
47504,-2.159041,5.306402,7.917259,1.401180,0.023388,-0.141168,0.238575,0.348586,-0.310013,-0.021370,0.053003,0.079273,0.999997,0.001193,0.001743,-0.001550,-0.704739,-0.241473,0.058137,0.664570,25.473153,13.827965,-83.499363
47505,-3.837583,6.628417,9.037009,1.954422,1.297096,1.798857,0.155730,0.424350,-0.199046,-0.038118,0.066252,0.090503,0.999997,0.000779,0.002122,-0.000995,-0.704062,-0.243448,0.056924,0.664672,25.560249,14.091495,-83.491414
47506,-2.996140,5.264976,8.614434,0.986311,0.559269,0.657250,-0.222092,0.317099,-0.097124,-0.029799,0.052760,0.086133,0.999998,-0.001110,0.001585,-0.000486,-0.704145,-0.243716,0.054945,0.664653,25.437483,14.276048,-83.456650
47507,-2.337547,4.811423,8.610207,0.666651,-0.104184,0.301372,-0.095074,0.357878,-0.083246,-0.023201,0.048165,0.086121,0.999998,-0.000475,0.001789,-0.000416,-0.704133,-0.244553,0.053272,0.664495,25.391989,14.476717,-83.404179
47508,-1.319997,4.297704,10.208997,-0.301329,-1.554792,1.229407,-0.325170,0.389539,-0.064064,-0.012987,0.043147,0.102045,0.999997,-0.001626,0.001948,-0.000320,-0.704465,-0.244688,0.050737,0.664291,25.219459,14.690813,-83.333975
47509,-2.374268,5.047493,10.529255,0.157046,-0.667767,2.083063,0.010533,0.292056,-0.051405,-0.023576,0.050475,0.105330,0.999999,0.000053,0.001460,-0.000257,-0.704406,-0.245668,0.049685,0.664071,25.234787,14.849755,-83.281645
47510,-2.017395,5.749219,7.789257,1.945392,-0.270059,-0.120513,-0.412307,0.170409,-0.201055,-0.020050,0.057673,0.077791,0.999997,-0.002062,0.000852,-0.001005,-0.704332,-0.244800,0.047465,0.664632,24.979404,14.983522,-83.340756
47511,-2.426324,4.636846,7.488597,1.050175,0.188635,-0.739225,-0.510473,0.270821,-0.299948,-0.024092,0.046596,0.074800,0.999995,-0.002552,0.001354,-0.001500,-0.704072,-0.243932,0.044452,0.665435,24.659991,15.191554,-83.428676
47512,-1.888709,5.931580,7.449162,2.372067,-0.352659,-0.405815,-0.675420,0.298896,-0.416398,-0.018652,0.059606,0.074319,0.999991,-0.003377,0.001494,-0.002082,-0.703617,-0.242610,0.040642,0.666642,24.230812,15.442687,-83.574360
47513,-0.277078,4.237653,6.763958,1.330890,-1.728930,-2.129963,-1.020321,0.537743,-0.602009,-0.002461,0.042729,0.067429,0.999979,-0.005102,0.002689,-0.003010,-0.702994,-0.240891,0.034623,0.668261,23.590494,15.859300,-83.765868
47514,-1.444059,5.345131,10.199502,1.061252,-1.707898,1.617102,-0.871280,0.829195,-0.822396,-0.013797,0.053953,0.101819,0.999973,-0.004356,0.004146,-0.004112,-0.701468,-0.240706,0.027806,0.670247,23.018568,16.478476,-84.014581
47515,-3.562663,6.882968,12.171257,1.679161,-0.417715,4.512497,-0.581514,0.573091,-0.886831,-0.034971,0.069339,0.121612,0.999982,-0.002908,0.002865,-0.004434,-0.699314,-0.240668,0.022783,0.672696,22.580650,16.973346,-84.364424
47516,2.335303,10.015975,10.055466,5.986898,-5.570474,2.019912,-0.531044,0.362936,-1.124610,0.024099,0.100292,0.100245,0.999979,-0.002655,0.001815,-0.005623,-0.696245,-0.240127,0.018376,0.676198,22.115054,17.407032,-84.899176
47517,5.977098,10.751811,10.589832,6.857911,-9.352742,1.543488,-0.755750,0.595713,-1.210100,0.060736,0.107551,0.105312,0.999970,-0.003779,0.002979,-0.006050,-0.693148,-0.239577,0.012298,0.679704,21.515098,17.976938,-85.435159
47518,7.058687,14.839497,10.787978,10.683419,-10.770045,2.688602,0.248373,0.251247,-1.215825,0.071622,0.147828,0.107974,0.999980,0.001242,0.001256,-0.006079,-0.688770,-0.241333,0.010828,0.683547,21.461583,18.361361,-86.055292
47519,10.539666,12.766826,8.315939,9.782037,-13.320640,-1.440097,-0.697897,0.342558,-0.939707,0.106138,0.127459,0.082533,0.999981,-0.003489,0.001713,-0.004699,-0.686459,-0.240110,0.006133,0.686355,20.915130,18.734409,-86.503379
47520,7.065407,9.345801,10.409098,5.650665,-10.619123,0.232972,-0.077610,0.518181,-0.982128,0.071381,0.093149,0.103870,0.999985,-0.000388,0.002591,-0.004911,-0.683240,-0.241620,0.002942,0.689053,20.727327,19.205493,-86.940990
