// General information: 
//  MT Manager version: 2022.0.0 
//  XDA version: 2022.0.0 build 7085 rev 119802 built on 2022-11-08
// Device information: 
//  DeviceId: 00B4737C
//  ProductCode: MTW2-3A7G6
//  Firmware Version: 4.14.0
//  Hardware Version: 2.0.0
// Device settings: 
//  Filter Profile: human(46.1)
//  Option Flags: Orientation Smoother Disabled, Position/Velocity Smoother Disabled, Continuous Zero Rotation Update Disabled, AHS Disabled, ICC Disabled
// Coordinate system: ENU
PacketCounter,Acc_X,Acc_Y,Acc_Z,FreeAcc_E,FreeAcc_N,FreeAcc_U,Gyr_X,Gyr_Y,Gyr_Z,VelInc_X,VelInc_Y,VelInc_Z,OriInc_q0,OriInc_q1,OriInc_q2,OriInc_q3,Quat_q0,Quat_q1,Quat_q2,Quat_q3,Roll,Pitch,Yaw
19631,-3.742204,1.493508,8.881008,0.007857,0.100956,-0.060933,-0.108015,0.081518,0.101599,-0.037393,0.014964,0.088817,1.000000,-0.000540,0.000408,0.000508,0.907343,-0.004949,0.213655,0.362015,9.110434,23.035374,45.362630
19632,-4.025571,1.314160,9.132286,0.038471,-0.166390,0.252188,-0.142089,0.083834,0.109067,-0.040225,0.013185,0.091330,1.000000,-0.000710,0.000419,0.000545,0.907040,-0.005648,0.213753,0.362706,9.056131,23.070431,45.442840
19633,-4.358521,1.183621,9.309681,-0.022508,-0.444739,0.525084,-0.070519,0.046960,0.122370,-0.043571,0.011842,0.093103,1.000000,-0.000353,0.000235,0.000612,0.906754,-0.005940,0.213814,0.363381,9.044761,23.083418,45.527557
19634,-4.128921,1.104783,9.142487,0.112608,-0.377705,0.271869,-0.077009,0.006668,0.111649,-0.041292,0.011060,0.091422,1.000000,-0.000385,0.000033,0.000558,0.906529,-0.006202,0.213680,0.364016,9.025438,23.074641,45.601792
19635,-4.145932,0.962021,9.080599,0.171109,-0.504350,0.201696,-0.030805,0.002390,0.103297,-0.041463,0.009613,0.090805,1.000000,-0.000154,0.000012,0.000516,0.906325,-0.006254,0.213611,0.364563,9.030470,23.064173,45.670436
19636,-3.987095,1.122131,9.074804,0.163747,-0.285182,0.157269,-0.029432,-0.015425,0.083830,-0.039883,0.011218,0.090743,1.000000,-0.000147,-0.000077,0.000419,0.906175,-0.006289,0.213463,0.365021,9.030827,23.045402,45.725391
19637,-3.852755,1.169184,8.990242,0.184784,-0.178885,0.034598,-0.007575,-0.019616,0.058525,-0.038540,0.011684,0.089898,1.000000,-0.000038,-0.000098,0.000293,0.906077,-0.006244,0.213335,0.365340,9.037462,23.026531,45.764172
19638,-3.685729,1.299384,9.001414,0.207997,0.026565,-0.001750,-0.017998,-0.013296,0.036181,-0.036866,0.012995,0.090011,1.000000,-0.000090,-0.000066,0.000181,0.906012,-0.006282,0.213215,0.365570,9.032959,23.013248,45.790024
19639,-3.758290,1.454964,8.948912,0.036717,0.081634,0.001418,0.012030,-0.016336,0.043941,-0.037593,0.014536,0.089487,1.000000,0.000060,-0.000082,0.000220,0.905938,-0.006170,0.213137,0.365802,9.047399,22.997525,45.820215
19640,-3.652202,1.408887,8.855218,0.099000,0.100068,-0.131849,-0.013131,-0.003704,0.040021,-0.036526,0.014087,0.088551,1.000000,-0.000066,-0.000019,0.000200,0.905856,-0.006199,0.213070,0.366044,9.046959,22.989319,45.849358
19641,-3.587530,1.441899,8.847496,0.115605,0.165700,-0.159356,-0.009561,0.026467,0.035865,-0.035866,0.014417,0.088479,1.000000,-0.000048,0.000132,0.000179,0.905749,-0.006272,0.213146,0.366264,9.048698,22.998529,45.879068
19642,-3.887442,1.413259,8.999224,0.001857,-0.026353,0.091596,-0.017332,0.039745,0.035205,-0.038859,0.014134,0.089999,1.000000,-0.000087,0.000199,0.000176,0.905629,-0.006405,0.213268,0.366487,9.046364,23.015341,45.909507
19643,-4.013478,1.423576,9.000820,-0.084364,-0.100119,0.143828,-0.023372,0.016772,0.036276,-0.040130,0.014239,0.090010,1.000000,-0.000117,0.000084,0.000181,0.905531,-0.006522,0.213274,0.366722,9.039941,23.019024,45.938310
19644,-3.943815,1.299401,9.002453,0.043608,-0.143002,0.100129,-0.023219,0.023398,0.027614,-0.039429,0.012999,0.090028,1.000000,-0.000116,0.000117,0.000138,0.905442,-0.006660,0.213311,0.366917,9.031791,23.027275,45.962483
19645,-3.934264,1.470134,9.047690,-0.046811,-0.002815,0.162192,-0.011278,0.016040,0.018150,-0.039337,0.014703,0.090479,1.000000,-0.000056,0.000080,0.000091,0.905379,-0.006741,0.213336,0.367057,9.027911,23.032191,45.980042
19646,-3.933711,1.449793,8.976723,-0.060151,-0.027867,0.094539,-0.020376,0.015690,0.012033,-0.039331,0.014505,0.089769,1.000000,-0.000102,0.000078,0.000060,0.905327,-0.006868,0.213343,0.367179,9.017351,23.037485,45.993881
19647,-4.067003,1.456058,9.047302,-0.123257,-0.098630,0.211751,-0.012867,0.004456,0.024525,-0.040670,0.014561,0.090473,1.000000,-0.000064,0.000022,0.000123,0.905265,-0.006928,0.213312,0.367350,9.013651,23.035286,46.014285
19648,-3.878294,1.436717,8.930811,-0.035012,-0.007730,0.029234,-0.015036,-0.001812,0.033918,-0.038786,0.014367,0.089307,1.000000,-0.000075,-0.000009,0.000170,0.905191,-0.006976,0.213250,0.367566,9.010747,23.028715,46.039874
19649,-3.812482,1.416719,8.938046,0.022550,0.022260,0.007179,-0.013286,0.010004,0.037910,-0.038123,0.014166,0.089381,1.000000,-0.000066,0.000050,0.000190,0.905098,-0.007033,0.213245,0.367797,9.010244,23.028462,46.069030
19650,-3.768246,1.326868,8.938353,0.111149,-0.013602,-0.022802,-0.013020,0.016783,0.036159,-0.037677,0.013268,0.089386,1.000000,-0.000065,0.000084,0.000181,0.905000,-0.007103,0.213271,0.368021,9.009743,23.032213,46.097810
19651,-3.850771,1.320427,8.996735,0.085878,-0.062597,0.061618,-0.006615,0.022650,0.039125,-0.038500,0.013200,0.089971,1.000000,-0.000033,0.000113,0.000196,0.904892,-0.007153,0.213335,0.368250,9.013832,23.039004,46.128950
19652,-3.838008,1.314869,9.014942,0.105614,-0.054360,0.072365,-0.011984,0.019850,0.028011,-0.038373,0.013149,0.090152,1.000000,-0.000060,0.000099,0.000140,0.904806,-0.007233,0.213376,0.368435,9.012087,23.045221,46.153022
19653,-3.755838,1.343473,8.991616,0.130927,0.018047,0.023111,-0.003017,0.025064,0.021943,-0.037549,0.013432,0.089921,1.000000,-0.000015,0.000125,0.000110,0.904726,-0.007289,0.213457,0.368584,9.014183,23.054916,46.173947
19654,-3.926759,1.445652,8.992140,-0.044430,-0.020024,0.105254,0.007719,0.028245,0.015068,-0.039256,0.014450,0.089928,1.000000,0.000039,0.000141,0.000075,0.904655,-0.007309,0.213572,0.368690,9.020937,23.067044,46.190880
19655,-3.861844,1.459238,8.913247,-0.040601,0.020608,0.010098,-0.006488,0.025485,0.015100,-0.038608,0.014592,0.089137,1.000000,-0.000032,0.000127,0.000075,0.904588,-0.007389,0.213648,0.368809,9.019428,23.077585,46.207449
19656,-3.764754,1.461890,8.837875,-0.007702,0.076284,-0.096070,-0.008170,0.042818,0.010426,-0.037629,0.014621,0.088386,1.000000,-0.000041,0.000214,0.000052,0.904510,-0.007513,0.213800,0.368910,9.016526,23.098376,46.222954
19657,-3.739019,1.627952,8.867000,-0.089580,0.223109,-0.055824,-0.027981,0.058261,0.014151,-0.037366,0.016289,0.088679,1.000000,-0.000140,0.000291,0.000071,0.904408,-0.007751,0.213985,0.369048,9.003742,23.127553,46.242186
19658,-3.902257,1.561038,8.963153,-0.110074,0.087956,0.085934,-0.042177,0.064342,0.024266,-0.038996,0.015625,0.089641,1.000000,-0.000211,0.000322,0.000121,0.904280,-0.008053,0.214171,0.369247,8.985540,23.159290,46.268302
19659,-4.072727,1.470603,9.056798,-0.120193,-0.069151,0.225048,-0.042034,0.064584,0.034637,-0.040701,0.014718,0.090578,1.000000,-0.000210,0.000323,0.000173,0.904133,-0.008345,0.214359,0.369492,8.969944,23.190221,46.300823
19660,-4.035514,1.356865,9.019133,-0.032693,-0.128419,0.159958,-0.039598,0.057394,0.037719,-0.040332,0.013579,0.090200,1.000000,-0.000198,0.000287,0.000189,0.903987,-0.008608,0.214520,0.369749,8.956240,23.216839,46.334541
19661,-4.111066,1.234370,9.158228,0.055912,-0.238814,0.298569,-0.041603,0.043910,0.033632,-0.041093,0.012356,0.091589,1.000000,-0.000208,0.000220,0.000168,0.903863,-0.008861,0.214615,0.369991,8.939881,23.236181,46.364542
19662,-4.092448,1.303860,9.164061,0.024232,-0.173036,0.306486,0.003310,0.015701,0.033881,-0.040919,0.013030,0.091644,1.000000,0.000017,0.000079,0.000169,0.903771,-0.008858,0.214666,0.370187,8.948252,23.239552,46.391853
19663,-3.899668,1.193711,8.921178,0.128231,-0.167586,-0.005789,-0.014630,0.001573,0.034053,-0.038998,0.011937,0.089211,1.000000,-0.000073,0.000008,0.000170,0.903693,-0.008910,0.214620,0.370402,8.945818,23.234913,46.417845
19664,-3.845971,1.295031,9.038456,0.139380,-0.038246,0.093947,0.013776,0.017116,0.023494,-0.038453,0.012940,0.090389,1.000000,0.000069,0.000086,0.000117,0.903619,-0.008873,0.214697,0.370539,8.957716,23.240009,46.438896
19665,-3.884344,1.317637,8.946864,0.066454,-0.064732,0.029165,0.017641,0.001013,0.024048,-0.038845,0.013164,0.089470,1.000000,0.000088,0.000005,0.000120,0.903562,-0.008789,0.214707,0.370675,8.971296,23.235940,46.458643
19666,-3.724073,1.259511,8.807106,0.155220,-0.025821,-0.169273,0.013734,0.017045,0.020039,-0.037234,0.012585,0.088075,1.000000,0.000069,0.000085,0.000100,0.903494,-0.008756,0.214783,0.370796,8.982328,23.241296,46.477562
19667,-3.676878,1.213321,8.879516,0.246162,-0.014556,-0.128857,0.009080,0.038101,0.005233,-0.036752,0.012128,0.088803,1.000000,0.000045,0.000191,0.000026,0.903431,-0.008799,0.214945,0.370855,8.987846,23.259885,46.489361
19668,-4.006689,1.188085,9.112021,0.146803,-0.210622,0.208696,0.031663,0.037428,-0.006056,-0.040049,0.011868,0.091130,1.000000,0.000158,0.000187,-0.000030,0.903391,-0.008751,0.215145,0.370838,9.003598,23.279108,46.494199
19669,-3.855280,1.199751,9.061854,0.218644,-0.109544,0.104973,0.026727,0.018947,-0.023484,-0.038543,0.011990,0.090624,1.000000,0.000134,0.000095,-0.000117,0.903403,-0.008711,0.215251,0.370749,9.011477,23.289425,46.486462
19670,-4.009508,1.226307,9.024181,0.092013,-0.200165,0.135544,0.059338,0.020217,-0.026474,-0.040084,0.012242,0.090249,1.000000,0.000297,0.000101,-0.000132,0.903420,-0.008528,0.215424,0.370611,9.037452,23.300741,46.477048
19671,-3.934447,1.287016,8.984079,0.086582,-0.114089,0.078190,0.043524,0.012202,-0.042600,-0.039336,0.012859,0.089846,1.000000,0.000218,0.000061,-0.000213,0.903475,-0.008420,0.215530,0.370418,9.050005,23.308967,46.456922
19672,-3.871010,1.322124,8.975917,0.103049,-0.048410,0.050722,0.061470,0.017518,-0.052853,-0.038699,0.013204,0.089767,1.000000,0.000307,0.000088,-0.000264,0.903544,-0.008250,0.215693,0.370159,9.070663,23.321142,46.430997
19673,-3.906300,1.388450,8.956004,0.032355,-0.027997,0.056210,0.062414,0.019147,-0.050707,-0.039051,0.013866,0.089568,1.000000,0.000312,0.000096,-0.000254,0.903607,-0.008079,0.215865,0.369908,9.092315,23.334042,46.406515
19674,-3.893090,1.524693,8.858976,-0.083747,0.061856,-0.017206,0.067710,0.021901,-0.043022,-0.038918,0.015225,0.088599,1.000000,0.000339,0.000110,-0.000215,0.903653,-0.007879,0.216060,0.369686,9.119111,23.347824,46.387085
19675,-3.923682,1.476918,8.955051,-0.029050,0.022594,0.075090,0.066961,0.030752,-0.038450,-0.039220,0.014747,0.089561,1.000000,0.000335,0.000154,-0.000192,0.903681,-0.007694,0.216293,0.369485,9.146816,23.366196,46.371257
19676,-4.071766,1.568639,9.025458,-0.152407,0.002301,0.211063,0.060773,0.021466,-0.039522,-0.040705,0.015667,0.090264,1.000000,0.000304,0.000107,-0.000198,0.903720,-0.007521,0.216474,0.369286,9.170470,23.379428,46.353950
19677,-4.026561,1.409744,8.969320,-0.035162,-0.093877,0.119040,0.051915,0.012675,-0.038477,-0.040257,0.014082,0.089699,1.000000,0.000260,0.000063,-0.000192,0.903767,-0.007372,0.216598,0.369103,9.188833,23.387595,46.336488
19678,-4.023667,1.508501,9.026110,-0.074669,-0.011465,0.183833,0.053199,0.007291,-0.039424,-0.040230,0.015069,0.090267,1.000000,0.000266,0.000036,-0.000197,0.903821,-0.007207,0.216700,0.368913,9.207608,23.392813,46.317834
19679,-3.926876,1.544924,8.900577,-0.083935,0.056342,0.037044,0.044791,0.001769,-0.041681,-0.039265,0.015437,0.089010,1.000000,0.000224,0.000009,-0.000208,0.903885,-0.007073,0.216761,0.368723,9.220677,23.395125,46.297230
19680,-3.849106,1.584726,8.790153,-0.101966,0.117356,-0.087997,0.031155,0.016474,-0.026403,-0.038482,0.015839,0.087907,1.000000,0.000156,0.000082,-0.000132,0.903904,-0.007010,0.216865,0.368616,9.230371,23.404348,46.287522
19681,-3.956252,1.582177,8.896593,-0.124549,0.063026,0.050633,0.028213,0.024158,-0.014294,-0.039551,0.015812,0.088973,1.000000,0.000141,0.000121,-0.000071,0.903893,-0.006962,0.216998,0.368566,9.241551,23.416811,46.285999
19682,-3.890642,1.585372,8.939428,-0.065996,0.116675,0.063845,0.021686,0.021861,-0.012278,-0.038896,0.015846,0.089400,1.000000,0.000108,0.000109,-0.000061,0.903880,-0.006937,0.217108,0.368533,9.249492,23.427783,46.285537
19683,-4.186478,1.403799,9.098229,-0.067711,-0.183976,0.298523,0.032348,0.028732,-0.010663,-0.041851,0.014026,0.090991,1.000000,0.000162,0.000144,-0.000053,0.903857,-0.006875,0.217270,0.368497,9.264122,23.442498,46.286938
19684,-4.066698,1.478638,9.030156,-0.066076,-0.062445,0.200297,0.027747,-0.003201,-0.012080,-0.040668,0.014776,0.090303,1.000000,0.000139,-0.000016,-0.000060,0.903871,-0.006776,0.217279,0.368459,9.274583,23.439280,46.284083
19685,-3.904708,1.367598,8.906527,0.063927,-0.058836,0.007483,0.030041,-0.001785,-0.009271,-0.039047,0.013664,0.089067,1.000000,0.000150,-0.000009,-0.000046,0.903878,-0.006667,0.217298,0.368431,9.287016,23.436626,46.283100
19686,-3.817599,1.545686,8.926786,0.008945,0.131577,0.017538,0.014774,0.012523,-0.018865,-0.038169,0.015454,0.089271,1.000000,0.000074,0.000063,-0.000094,0.903887,-0.006663,0.217354,0.368376,9.289011,23.442928,46.277647
19687,-3.973345,1.588495,8.959715,-0.105091,0.065759,0.115651,0.010399,0.006275,-0.022565,-0.039729,0.015885,0.089599,1.000000,0.000052,0.000031,-0.000113,0.903910,-0.006672,0.217373,0.368310,9.287253,23.446050,46.269400
19688,-4.018167,1.519022,9.002629,-0.071679,-0.005278,0.162043,-0.029308,0.004051,-0.029970,-0.040178,0.015209,0.090025,1.000000,-0.000147,0.000020,-0.000150,0.903947,-0.006863,0.217309,0.368253,9.260927,23.448585,46.256248
19689,-4.269250,1.556019,9.075858,-0.230649,-0.128553,0.333699,-0.026818,-0.005815,-0.062865,-0.042690,0.015586,0.090755,1.000000,-0.000134,-0.000029,-0.000314,0.904055,-0.007062,0.217203,0.368045,9.227482,23.448585,46.221881
19690,-3.839976,1.135612,8.852975,0.229061,-0.183700,-0.100635,-0.096723,-0.034615,-0.094705,-0.038410,0.011417,0.088518,1.000000,-0.000484,-0.000173,-0.000474,0.904251,-0.007557,0.216838,0.367769,9.145119,23.435153,46.164961
19691,-3.959953,1.506127,8.997219,-0.046042,0.038402,0.131960,-0.018576,0.005680,-0.100339,-0.039589,0.015089,0.089972,1.000000,-0.000093,0.000028,-0.000502,0.904416,-0.007781,0.216798,0.367382,9.107660,23.445004,46.108562
19692,-4.030773,1.476796,8.917413,-0.106691,-0.038913,0.083545,-0.033683,-0.018920,-0.084787,-0.040310,0.014800,0.089168,1.000000,-0.000168,-0.000095,-0.000424,0.904578,-0.008009,0.216620,0.367083,9.064476,23.439463,46.059332
19693,-3.778044,1.451649,8.881802,0.052123,0.107801,-0.052925,-0.044498,-0.004352,-0.054362,-0.037778,0.014547,0.088814,1.000000,-0.000222,-0.000022,-0.000272,0.904668,-0.008281,0.216489,0.366933,9.023043,23.439432,46.030387
19694,-3.818871,1.475600,8.982797,0.046430,0.119208,0.058252,-0.004334,0.010210,-0.033300,-0.038182,0.014764,0.089830,1.000000,-0.000022,0.000051,-0.000166,0.904705,-0.008375,0.216499,0.366833,9.010444,23.445697,46.015771
19695,-4.048867,1.259345,8.992491,0.047397,-0.187671,0.127469,0.001060,0.003066,-0.008145,-0.040487,0.012595,0.089926,1.000000,0.000005,0.000015,-0.000041,0.904703,-0.008405,0.216487,0.366844,9.006753,23.445672,46.016294
19696,-3.913563,1.274622,8.959140,0.110347,-0.093191,0.045607,0.012750,-0.002223,-0.005720,-0.039136,0.012742,0.089592,1.000000,0.000064,-0.000011,-0.000029,0.904704,-0.008369,0.216473,0.366851,9.010227,23.442425,46.017474
19697,-3.770096,1.388179,8.949360,0.122659,0.082135,-0.004022,0.020606,0.004923,-0.012349,-0.037698,0.013875,0.089496,1.000000,0.000103,0.000025,-0.000062,0.904711,-0.008317,0.216505,0.366818,9.016768,23.443850,46.015055
19698,-4.081863,1.398404,8.994574,-0.064609,-0.108627,0.162458,0.017820,0.005179,-0.020594,-0.040815,0.013980,0.089948,1.000000,0.000089,0.000026,-0.000103,0.904731,-0.008288,0.216533,0.366751,9.019784,23.446128,46.007785
19699,-4.034185,1.468350,8.917265,-0.110659,-0.039313,0.083500,0.006756,0.000111,-0.020742,-0.040340,0.014685,0.089173,1.000000,0.000034,0.000001,-0.000104,0.904757,-0.008299,0.216517,0.366695,9.016137,23.445586,45.999695
19700,-4.027645,1.491772,8.919308,-0.121687,-0.017477,0.086113,0.014581,-0.002954,-0.023701,-0.040276,0.014916,0.089194,1.000000,0.000073,-0.000015,-0.000119,0.904792,-0.008273,0.216502,0.366619,9.016218,23.443540,45.989711
19701,-3.914897,1.414753,8.843235,-0.028347,-0.012143,-0.038753,-0.003121,0.003445,-0.020513,-0.039146,0.014153,0.088433,1.000000,-0.000016,0.000017,-0.000103,0.904814,-0.008335,0.216484,0.366575,9.007113,23.444862,45.982202
19702,-3.924422,1.358490,8.925938,0.035132,-0.044464,0.031891,0.016128,0.012479,-0.014726,-0.039238,0.013581,0.089263,1.000000,0.000081,0.000062,-0.000074,0.904815,-0.008320,0.216542,0.366537,9.010884,23.450743,45.979264
19703,-3.913505,1.320561,9.029543,0.108358,-0.046484,0.115965,0.012720,0.012953,-0.018127,-0.039128,0.013203,0.090299,1.000000,0.000064,0.000065,-0.000091,0.904823,-0.008325,0.216596,0.366487,9.011818,23.457219,45.974213
19704,-3.968028,1.313144,9.004020,0.069028,-0.091994,0.113477,0.012147,-0.000780,-0.021510,-0.039679,0.013130,0.090041,1.000000,0.000061,-0.000004,-0.000108,0.904851,-0.008311,0.216586,0.366423,9.011126,23.456206,45.965792
19705,-3.977021,1.269030,8.965385,0.077989,-0.137400,0.075705,0.024550,-0.001011,-0.018853,-0.039769,0.012683,0.089655,1.000000,0.000123,-0.000005,-0.000094,0.904876,-0.008238,0.216599,0.366355,9.018112,23.454853,45.958568
19706,-3.934148,1.379282,9.029022,0.056686,-0.018004,0.132143,0.018120,-0.001968,-0.030575,-0.039340,0.013791,0.090291,1.000000,0.000091,-0.000010,-0.000153,0.904923,-0.008205,0.216595,0.366243,9.018570,23.453983,45.944440
19707,-4.028852,1.463721,8.968117,-0.083542,-0.029806,0.126799,0.028151,-0.008872,-0.035791,-0.040290,0.014632,0.089681,1.000000,0.000141,-0.000044,-0.000179,0.904986,-0.008121,0.216577,0.366100,9.023102,23.449713,45.926713
19708,-3.972334,1.452259,8.922800,-0.057724,-0.009442,0.061594,0.014465,-0.008283,-0.032211,-0.039725,0.014523,0.089227,1.000000,0.000072,-0.000041,-0.000161,0.905042,-0.008094,0.216537,0.365986,9.020819,23.445417,45.910958
19709,-3.959082,1.551814,8.912426,-0.120462,0.069688,0.061239,0.016969,-0.015395,-0.025654,-0.039596,0.015516,0.089123,1.000000,0.000085,-0.000077,-0.000128,0.905093,-0.008037,0.216470,0.365901,9.021196,23.436544,45.898803
19710,-3.844049,1.549367,8.858213,-0.067329,0.133963,-0.034001,0.005939,-0.005161,-0.031315,-0.038440,0.015497,0.088582,1.000000,0.000030,-0.000026,-0.000157,0.905143,-0.008054,0.216429,0.365799,9.014374,23.433933,45.883909
19711,-3.771938,1.678495,8.874687,-0.101856,0.280463,-0.029237,-0.013498,0.013528,-0.027564,-0.037711,0.016796,0.088748,1.000000,-0.000067,0.000068,-0.000138,0.905164,-0.008191,0.216437,0.365740,8.997954,23.441590,45.873789
19712,-3.836162,1.750019,8.817273,-0.213079,0.283766,-0.045545,-0.022637,0.030971,-0.006705,-0.038347,0.017511,0.088177,1.000000,-0.000113,0.000155,-0.000034,0.905129,-0.008377,0.216508,0.365780,8.982201,23.457217,45.877601
19713,-3.918598,1.582315,8.919201,-0.114749,0.128443,0.055525,-0.041676,0.041517,0.018055,-0.039169,0.015838,0.089197,1.000000,-0.000208,0.000208,0.000090,0.905038,-0.008641,0.216594,0.365950,8.961992,23.476632,45.897489
19714,-4.036675,1.455422,8.965950,-0.087525,-0.030195,0.126763,-0.037047,0.034296,0.034248,-0.040354,0.014564,0.089664,1.000000,-0.000185,0.000171,0.000171,0.904924,-0.008853,0.216655,0.366190,8.948180,23.490491,45.926886
19715,-3.918150,1.295111,8.920817,0.077833,-0.073562,0.015777,-0.041956,0.043669,0.033335,-0.039164,0.012963,0.089214,1.000000,-0.000210,0.000218,0.000167,0.904801,-0.009106,0.216750,0.366430,8.931673,23.509774,45.956531
19716,-4.150706,1.328258,9.256686,0.037520,-0.140637,0.417546,-0.019608,0.026172,0.027550,-0.041497,0.013286,0.092571,1.000000,-0.000098,0.000131,0.000138,0.904709,-0.009232,0.216807,0.366621,8.925903,23.519642,45.981006
19717,-4.043033,1.271578,8.971696,0.033534,-0.159903,0.108384,-0.022750,-0.000955,0.021493,-0.040432,0.012722,0.089715,1.000000,-0.000114,-0.000005,0.000107,0.904658,-0.009329,0.216735,0.366787,8.915749,23.514749,45.998708
19718,-3.819645,1.316546,8.882579,0.110560,0.005764,-0.055078,-0.018634,0.018876,0.016175,-0.038189,0.013171,0.088828,1.000000,-0.000093,0.000094,0.000081,0.904595,-0.009449,0.216759,0.366926,8.907454,23.521503,46.015452
19719,-3.949405,1.450293,8.924046,-0.045453,0.027099,0.053262,-0.017535,0.022027,0.011486,-0.039485,0.014508,0.089244,1.000000,-0.000088,0.000110,0.000057,0.904537,-0.009576,0.216800,0.367040,8.898694,23.530513,46.029344
19720,-3.998806,1.338126,8.893470,-0.013653,-0.090771,0.029386,-0.018857,0.022310,0.014267,-0.039979,0.013387,0.088938,1.000000,-0.000094,0.000112,0.000071,0.904473,-0.009706,0.216840,0.367171,8.889937,23.539385,46.045242
19721,-4.018639,1.276757,9.044243,0.072609,-0.119771,0.165203,-0.023427,0.019487,0.008648,-0.040178,0.012776,0.090445,1.000000,-0.000117,0.000097,0.000043,0.904422,-0.009858,0.216858,0.367282,8.877004,23.547197,46.057564
19722,-4.141771,1.306988,9.081211,-0.012355,-0.170770,0.252180,-0.008320,0.004736,-0.002485,-0.041415,0.013074,0.090813,1.000000,-0.000042,0.000024,-0.000012,0.904408,-0.009926,0.216837,0.367327,8.869477,23.547606,46.061421
19723,-3.840943,1.368795,8.846905,0.046339,0.032504,-0.071488,-0.014907,0.002257,-0.007387,-0.038408,0.013696,0.088468,1.000000,-0.000075,0.000011,-0.000037,0.904408,-0.010025,0.216793,0.367352,8.856805,23.547113,46.061514
19724,-3.823117,1.542931,8.823885,-0.068267,0.168735,-0.074891,-0.009077,0.018755,0.003696,-0.038223,0.015433,0.088242,1.000000,-0.000045,0.000094,0.000018,0.904367,-0.010116,0.216834,0.367424,8.850909,23.554915,46.070536
19725,-3.829205,1.498720,8.750473,-0.070566,0.121740,-0.145219,-0.025116,0.031893,0.012691,-0.038279,0.014996,0.087509,1.000000,-0.000126,0.000159,0.000063,0.904296,-0.010293,0.216905,0.367552,8.838494,23.569413,46.086094
19726,-3.906416,1.343885,8.974844,0.071741,0.001646,0.067028,-0.023747,0.061063,0.019575,-0.039038,0.013446,0.089759,1.000000,-0.000119,0.000305,0.000098,0.904180,-0.010511,0.217111,0.367709,8.829748,23.599774,46.108988
19727,-4.404450,1.381695,9.256011,-0.160328,-0.246325,0.526346,-0.012591,0.017853,0.014023,-0.044037,0.013820,0.092563,1.000000,-0.000063,0.000089,0.000070,0.904124,-0.010604,0.217143,0.367828,8.824315,23.606219,46.123748
19728,-4.171524,1.136909,8.978183,0.044072,-0.320540,0.147094,-0.006861,-0.010438,0.020932,-0.041721,0.011368,0.089779,1.000000,-0.000034,-0.000052,0.000105,0.904083,-0.010612,0.217057,0.367977,8.822837,23.595982,46.140619
19729,-3.894888,1.169461,8.878975,0.158835,-0.132671,-0.048920,-0.001675,-0.002790,0.016434,-0.038951,0.011692,0.088789,1.000000,-0.000008,-0.000014,0.000082,0.904044,-0.010616,0.217015,0.368097,8.823439,23.590544,46.155145
19730,-3.757992,1.259328,8.867907,0.181210,0.020827,-0.101100,0.009707,0.005279,-0.000497,-0.037578,0.012589,0.088681,1.000000,0.000049,0.000026,-0.000002,0.904027,-0.010601,0.217030,0.368131,8.826756,23.591090,46.160283
19731,-3.699761,1.343681,8.880072,0.167488,0.123545,-0.101556,0.010676,0.027280,-0.009121,-0.036985,0.013434,0.088806,1.000000,0.000053,0.000136,-0.000046,0.904003,-0.010633,0.217145,0.368122,8.829259,23.604900,46.162055
19732,-4.256000,1.374174,9.169663,-0.091848,-0.168527,0.387694,0.025066,0.036772,-0.017721,-0.042542,0.013734,0.091706,1.000000,0.000125,0.000184,-0.000089,0.903984,-0.010625,0.217329,0.368059,8.838327,23.624790,46.159575
19733,-4.258476,1.312081,9.025707,-0.106273,-0.240600,0.249637,0.001835,-0.010947,-0.014322,-0.042589,0.013123,0.090255,1.000000,0.000009,-0.000055,-0.000072,0.904011,-0.010632,0.217255,0.368036,8.833000,23.617432,46.154144
19734,-3.963449,1.393961,8.896866,-0.024024,-0.010581,0.026296,0.034462,-0.014498,-0.011911,-0.039640,0.013927,0.088968,1.000000,0.000172,-0.000072,-0.000060,0.904038,-0.010481,0.217225,0.367992,8.846917,23.607784,46.150330
19735,-3.958168,1.565105,8.976620,-0.104670,0.130362,0.120510,0.009523,-0.005318,-0.014099,-0.039583,0.015650,0.089766,1.000000,0.000048,-0.000027,-0.000070,0.904060,-0.010462,0.217191,0.367959,8.846284,23.603602,46.145280
19736,-4.026639,1.541895,8.896306,-0.164856,0.052784,0.071925,0.000994,-0.022494,0.001010,-0.040276,0.015418,0.088959,1.000000,0.000005,-0.000112,0.000005,0.904070,-0.010434,0.217064,0.368011,8.843913,23.588289,46.148679
19737,-3.972110,1.423072,8.915375,-0.045062,0.004299,0.050611,-0.004904,-0.010929,0.013312,-0.039727,0.014230,0.089151,1.000000,-0.000025,-0.000055,0.000067,0.904046,-0.010440,0.216979,0.368118,8.841610,23.578493,46.160166
19738,-3.808503,1.299768,8.914203,0.139782,0.021940,-0.033266,-0.009567,0.000130,0.012478,-0.038086,0.013000,0.089141,1.000000,-0.000048,0.000001,0.000062,0.904010,-0.010489,0.216936,0.368232,8.836890,23.574979,46.172823
19739,-3.864650,1.259480,8.973854,0.154071,-0.033866,0.037540,0.010445,0.010406,0.003187,-0.038642,0.012589,0.089741,1.000000,0.000052,0.000052,0.000016,0.903980,-0.010478,0.216975,0.368283,8.841647,23.578162,46.180939
19740,-4.238043,1.332560,9.082532,-0.089143,-0.209096,0.295599,0.025192,-0.002381,0.000434,-0.042382,0.013314,0.090826,1.000000,0.000126,-0.000012,0.000002,0.903971,-0.010378,0.216983,0.368304,8.853771,23.574287,46.185915
19741,-4.011511,1.274589,9.023734,0.070298,-0.113743,0.143552,0.007612,-0.023896,-0.012887,-0.040125,0.012745,0.090233,1.000000,0.000038,-0.000119,-0.000064,0.904008,-0.010334,0.216862,0.368285,8.851604,23.559479,46.180603
19742,-3.876203,1.448298,8.947485,0.009126,0.086810,0.044918,0.024928,-0.018245,-0.018242,-0.038769,0.014475,0.089473,1.000000,0.000125,-0.000091,-0.000091,0.904050,-0.010227,0.216797,0.368223,8.858355,23.548269,46.172517
19743,-3.972115,1.553105,8.957384,-0.118912,0.099584,0.107015,0.017554,-0.016925,-0.013308,-0.039728,0.015526,0.089572,1.000000,0.000088,-0.000085,-0.000067,0.904078,-0.010153,0.216724,0.368199,8.862024,23.537425,46.168474
19744,-3.986350,1.538697,8.902540,-0.140433,0.067581,0.060990,0.014545,-0.024536,0.007741,-0.039875,0.015379,0.089022,1.000000,0.000073,-0.000123,0.000039,0.904078,-0.010052,0.216613,0.368266,8.868992,23.520361,46.175825
19745,-3.922394,1.413772,8.974671,0.010914,0.029291,0.083154,0.010684,-0.008202,0.017489,-0.039229,0.014129,0.089746,1.000000,0.000053,-0.000041,0.000087,0.904041,-0.009991,0.216570,0.368384,8.876680,23.511741,46.191266
19746,-4.271567,1.400316,9.135134,-0.140076,-0.186268,0.365894,0.028662,-0.022983,0.024973,-0.042728,0.013985,0.091348,1.000000,0.000143,-0.000115,0.000125,0.904009,-0.009811,0.216493,0.368514,8.896032,23.494028,46.209396
19747,-4.358609,1.226562,9.149265,-0.073653,-0.374821,0.388541,0.055100,-0.061326,0.038909,-0.043617,0.012232,0.091483,1.000000,0.000275,-0.000307,0.000195,0.903992,-0.009427,0.216292,0.368683,8.932390,23.453421,46.232772
19748,-3.910943,1.353492,8.956600,0.049765,-0.029554,0.053657,0.050243,-0.081144,0.038729,-0.039148,0.013505,0.089554,1.000000,0.000251,-0.000406,0.000194,0.903998,-0.009028,0.215992,0.368854,8.965199,23.401547,46.253707
19749,-3.715509,1.213389,8.837348,0.220020,-0.031535,-0.152116,0.042378,-0.057864,0.023982,-0.037182,0.012111,0.088365,1.000000,0.000212,-0.000289,0.000120,0.904006,-0.008724,0.215783,0.368965,8.990692,23.364229,46.267735
19750,-4.209926,1.172941,9.257012,0.094023,-0.323814,0.418531,0.071893,-0.054046,0.024640,-0.042126,0.011691,0.092563,1.000000,0.000359,-0.000270,0.000123,0.904009,-0.008292,0.215645,0.369048,9.033458,23.328932,46.282559
19751,-4.311473,1.326020,9.164261,-0.107599,-0.309495,0.396300,0.139811,-0.106068,0.033551,-0.043166,0.013189,0.091629,1.000000,0.000699,-0.000530,0.000168,0.904054,-0.007448,0.215397,0.369099,9.115127,23.263486,46.297673
19752,-3.620353,1.202703,8.746213,0.252895,-0.027663,-0.274084,0.083052,-0.107182,0.029820,-0.036252,0.011985,0.087448,1.000000,0.000415,-0.000536,0.000149,0.904105,-0.006862,0.215040,0.369195,9.163403,23.197629,46.310326
19753,-3.502873,1.660423,8.801352,0.042276,0.380509,-0.203091,0.120733,-0.058900,0.007485,-0.035055,0.016550,0.088013,1.000000,0.000604,-0.000294,0.000037,0.904144,-0.006221,0.214969,0.369152,9.229571,23.161187,46.314583
19754,-3.699079,1.621690,8.842382,-0.038131,0.219657,-0.094093,0.070914,-0.035407,0.004783,-0.037007,0.016185,0.088423,1.000000,0.000355,-0.000177,0.000024,0.904163,-0.005849,0.214913,0.369145,9.267591,23.138202,46.318881
19755,-3.537890,1.777351,8.643359,-0.114100,0.400267,-0.314790,0.066978,-0.010354,0.017614,-0.035385,0.017741,0.086438,1.000000,0.000335,-0.000052,0.000088,0.904132,-0.005528,0.214963,0.369197,9.307342,23.128273,46.333226
19756,-3.324125,1.822550,8.620261,-0.014751,0.569511,-0.412909,0.002087,0.037978,0.018832,-0.033227,0.018221,0.086209,1.000000,0.000010,0.000190,0.000094,0.904044,-0.005587,0.215111,0.369325,9.312217,23.145475,46.353532
19757,-3.596374,1.721274,8.630528,-0.112449,0.319288,-0.311734,-0.012500,0.075201,0.036396,-0.035934,0.017212,0.086318,1.000000,-0.000062,0.000376,0.000182,0.903883,-0.005763,0.215402,0.369547,9.314397,23.182147,46.388340
19758,-3.660967,1.605139,8.667248,-0.057515,0.204807,-0.270409,-0.060877,0.108785,0.034074,-0.036565,0.016072,0.086687,1.000000,-0.000304,0.000544,0.000170,0.903688,-0.006222,0.215754,0.369810,9.289731,23.237976,46.425167
19759,-3.841548,1.426864,8.894406,0.039244,0.003929,-0.019714,-0.061989,0.120820,0.026331,-0.038364,0.014291,0.088963,1.000000,-0.000310,0.000604,0.000132,0.903495,-0.006716,0.216159,0.370036,9.263025,23.301377,46.458082
19760,-4.264427,1.282646,9.246354,0.009281,-0.311235,0.445413,-0.047184,0.118368,0.023377,-0.042591,0.012843,0.092486,1.000000,-0.000236,0.000592,0.000117,0.903310,-0.007142,0.216580,0.370235,9.244040,23.363639,46.489264
19761,-4.554698,1.215785,9.462971,-0.041627,-0.508019,0.747209,-0.023250,0.054112,0.016299,-0.045522,0.012165,0.094641,1.000000,-0.000116,0.000271,0.000081,0.903211,-0.007347,0.216755,0.370370,9.234464,23.390303,46.508605
19762,-4.249927,1.129723,9.116289,0.075684,-0.425029,0.299608,-0.013597,0.005899,0.008619,-0.042497,0.011302,0.091163,1.000000,-0.000068,0.000029,0.000043,0.903175,-0.007429,0.216729,0.370470,9.226666,23.390328,46.519418
19763,-3.877111,1.245737,8.876381,0.140252,-0.133720,-0.048649,0.005857,0.007478,-0.005918,-0.038767,0.012456,0.088766,1.000000,0.000029,0.000037,-0.000030,0.903165,-0.007443,0.216746,0.370485,9.226427,23.392645,46.521704
19764,-3.802789,1.397666,8.928298,0.105652,0.036063,-0.008774,0.004932,0.020989,-0.020500,-0.038017,0.013978,0.089287,1.000000,0.000025,0.000105,-0.000103,0.903167,-0.007501,0.216822,0.370433,9.222720,23.403879,46.516085
19765,-3.841672,1.542643,8.841966,-0.048689,0.102662,-0.050226,-0.000645,0.030420,-0.023504,-0.038401,0.015431,0.088425,1.000000,-0.000003,0.000152,-0.000118,0.903164,-0.007606,0.216930,0.370375,9.215345,23.420784,46.509828
19766,-3.733259,1.557967,8.856988,0.016371,0.192379,-0.077522,-0.014773,0.042900,-0.029085,-0.037311,0.015592,0.088577,1.000000,-0.000074,0.000214,-0.000145,0.903158,-0.007803,0.217068,0.370305,9.199110,23.445196,46.501101
19767,-4.175236,1.522528,9.229480,-0.093854,-0.057742,0.430449,-0.008270,0.040121,-0.029241,-0.041732,0.015235,0.092303,1.000000,-0.000041,0.000201,-0.000146,0.903158,-0.007965,0.217205,0.370221,9.186385,23.468112,46.491306
19768,-4.078073,1.459504,9.012908,-0.074247,-0.073695,0.186433,-0.013548,-0.002008,-0.028989,-0.040780,0.014607,0.090128,1.000000,-0.000068,-0.000010,-0.000145,0.903201,-0.008073,0.217142,0.370152,9.169082,23.467110,46.478148
19769,-3.781136,1.422090,8.720972,0.024383,0.047841,-0.201662,-0.009392,0.017814,-0.034349,-0.037801,0.014231,0.087212,1.000000,-0.000047,0.000089,-0.000172,0.903231,-0.008206,0.217177,0.370055,9.153522,23.477877,46.463978
19770,-3.768295,1.667191,8.751650,-0.120275,0.243780,-0.143300,-0.021526,0.044020,-0.028991,-0.037661,0.016687,0.087523,1.000000,-0.000108,0.000220,-0.000145,0.903223,-0.008435,0.217307,0.369993,9.133463,23.502905,46.455387
19771,-3.696496,1.668997,8.726144,-0.084876,0.294673,-0.194934,-0.041641,0.071881,-0.010409,-0.036933,0.016710,0.087271,1.000000,-0.000208,0.000359,-0.000052,0.903150,-0.008787,0.217527,0.370034,9.107510,23.542028,46.460961
19772,-3.860303,1.568724,8.871683,-0.062670,0.147549,-0.012490,-0.063781,0.100105,0.008893,-0.038559,0.015714,0.088731,1.000000,-0.000319,0.000501,0.000044,0.903009,-0.009269,0.217834,0.370186,9.074784,23.595350,46.481263
19773,-4.222653,1.336743,9.121879,-0.036627,-0.207305,0.325460,-0.064806,0.083093,0.008835,-0.042189,0.013395,0.091232,1.000000,-0.000324,0.000415,0.000044,0.902887,-0.009726,0.218062,0.370338,9.040748,23.639109,46.499734
19774,-4.043405,1.130986,9.049016,0.186625,-0.242330,0.158239,-0.059631,0.042160,-0.011654,-0.040414,0.011339,0.090495,1.000000,-0.000298,0.000211,-0.000058,0.902846,-0.010104,0.218114,0.370395,9.003031,23.661510,46.501602
19775,-3.992612,1.156228,9.109248,0.225153,-0.173148,0.196085,-0.010415,0.054219,-0.034055,-0.039899,0.011574,0.091103,1.000000,-0.000052,0.000271,-0.000170,0.902841,-0.010306,0.218311,0.370286,8.988388,23.692838,46.489436
19776,-4.047872,1.304890,9.003142,0.050670,-0.115252,0.143654,-0.018203,0.048268,-0.048092,-0.040454,0.013067,0.090040,1.000000,-0.000091,0.000241,-0.000240,0.902864,-0.010549,0.218466,0.370132,8.965586,23.721955,46.469359
19777,-4.153342,1.362204,8.937705,-0.078780,-0.149875,0.135164,-0.007447,0.041366,-0.047751,-0.041512,0.013635,0.089385,1.000000,-0.000037,0.000207,-0.000239,0.902895,-0.010730,0.218609,0.369967,8.948682,23.747177,46.448456
19778,-4.036988,1.473696,8.977210,-0.065220,0.020304,0.139934,-0.023088,0.023296,-0.046456,-0.040356,0.014757,0.089775,1.000000,-0.000115,0.000116,-0.000232,0.902942,-0.010947,0.218642,0.369828,8.922483,23.762000,46.426933
19779,-3.898934,1.318081,8.796893,0.055702,-0.028563,-0.100817,-0.033115,0.035350,-0.043111,-0.038971,0.013204,0.087974,1.000000,-0.000166,0.000177,-0.000216,0.902969,-0.011228,0.218711,0.369711,8.891766,23.783405,46.408266
19780,-4.156920,1.321722,8.951379,-0.049663,-0.163346,0.143465,-0.011855,0.044158,-0.034487,-0.041547,0.013230,0.089522,1.000000,-0.000059,0.000221,-0.000172,0.902971,-0.011420,0.218859,0.369612,8.875782,23.808961,46.396143
19781,-4.040449,1.202224,9.013748,0.128923,-0.156969,0.136029,-0.013761,0.030603,-0.038554,-0.040388,0.012036,0.090143,1.000000,-0.000069,0.000153,-0.000193,0.902994,-0.011602,0.218942,0.369501,8.857049,23.827261,46.380572
19782,-3.922013,1.221185,8.961458,0.171343,-0.070441,0.043624,0.005785,0.032423,-0.046106,-0.039203,0.012218,0.089621,1.000000,0.000029,0.000162,-0.000231,0.903031,-0.011705,0.219069,0.369332,8.847793,23.847192,46.360108
19783,-4.110561,1.367256,9.045623,-0.011702,-0.070790,0.216482,0.020824,0.026523,-0.047102,-0.041090,0.013673,0.090463,1.000000,0.000104,0.000133,-0.000236,0.903080,-0.011730,0.219198,0.369135,8.846563,23.863973,46.337616
19784,-3.921232,1.359504,8.810176,0.022798,0.007946,-0.073954,0.008577,0.012920,-0.051148,-0.039203,0.013601,0.088105,1.000000,0.000043,0.000065,-0.000256,0.903148,-0.011790,0.219242,0.368940,8.836869,23.873303,46.312142
19785,-3.788089,1.320944,8.792008,0.126744,0.067977,-0.149705,0.006012,0.044218,-0.056593,-0.037858,0.013218,0.087929,1.000000,0.000030,0.000221,-0.000283,0.903193,-0.011926,0.219423,0.368719,8.825418,23.900938,46.285917
19786,-4.163268,1.443710,9.126698,-0.060638,-0.024524,0.321879,0.016093,0.047490,-0.068871,-0.041606,0.014444,0.091278,1.000000,0.000080,0.000237,-0.000344,0.903256,-0.012035,0.219635,0.368434,8.816903,23.931390,46.252776
19787,-4.169947,1.461967,8.916253,-0.157736,-0.049971,0.137086,0.001313,0.015403,-0.070319,-0.041687,0.014634,0.089166,1.000000,0.000007,0.000077,-0.000352,0.903352,-0.012158,0.219676,0.368171,8.798125,23.943844,46.216922
19788,-3.950967,1.409333,8.770706,-0.040966,0.034280,-0.090610,-0.017951,0.035744,-0.070034,-0.039489,0.014115,0.087713,1.000000,-0.000090,0.000179,-0.000350,0.903428,-0.012401,0.219773,0.367919,8.769321,23.967727,46.181904
19789,-4.025616,1.560265,8.959371,-0.115995,0.135606,0.131079,-0.008441,0.039622,-0.060213,-0.040234,0.015619,0.089601,1.000000,-0.000042,0.000198,-0.000301,0.903483,-0.012597,0.219905,0.367697,8.748470,23.993026,46.152832
19790,-3.851319,1.566325,8.862670,-0.047111,0.242821,-0.026383,-0.028414,0.039664,-0.047769,-0.038492,0.015685,0.088632,1.000000,-0.000142,0.000198,-0.000239,0.903513,-0.012870,0.220002,0.367557,8.719396,24.017164,46.131955
19791,-4.123118,1.458317,8.868577,-0.144117,-0.007755,0.074557,-0.024458,0.053278,-0.027144,-0.041206,0.014600,0.088695,1.000000,-0.000122,0.000266,-0.000136,0.903492,-0.013127,0.220169,0.367500,8.698237,24.047293,46.124579
19792,-4.026238,1.468656,8.952853,-0.056728,0.085457,0.112563,-0.045605,0.044797,-0.018552,-0.040241,0.014711,0.089534,1.000000,-0.000228,0.000224,-0.000093,0.903461,-0.013454,0.220260,0.367510,8.666869,24.071794,46.122278
19793,-4.177666,1.296474,9.007992,-0.016018,-0.123465,0.200412,-0.033219,0.044608,-0.015810,-0.041756,0.012983,0.090087,1.000000,-0.000166,0.000223,-0.000079,0.903425,-0.013723,0.220372,0.367520,8.643218,24.095994,46.121770
19794,-4.367621,1.238506,9.063411,-0.075889,-0.276111,0.320103,-0.016402,0.021323,-0.012087,-0.043666,0.012395,0.090638,1.000000,-0.000082,0.000107,-0.000060,0.903410,-0.013869,0.220410,0.367529,8.629307,24.106641,46.121246
19795,-4.409587,1.201106,9.020137,-0.095226,-0.336883,0.293124,-0.017803,0.000937,-0.008910,-0.044095,0.012021,0.090201,1.000000,-0.000089,0.000005,-0.000045,0.903409,-0.013982,0.220354,0.367560,8.614498,24.105544,46.121435
19796,-4.043322,1.339089,8.890488,-0.007931,-0.018527,0.045405,-0.007472,-0.004195,-0.010536,-0.040434,0.013396,0.088904,1.000000,-0.000037,-0.000021,-0.000053,0.903420,-0.014039,0.220294,0.367568,8.605114,24.101600,46.119470
19797,-4.015546,1.453748,8.936071,-0.050728,0.092087,0.090863,0.000210,-0.003512,-0.001545,-0.040157,0.014538,0.089360,1.000000,0.000001,-0.000018,-0.000008,0.903408,-0.014057,0.220251,0.367622,8.602269,24.097351,46.124930
19798,-3.985067,1.474352,8.889455,-0.064387,0.119044,0.039144,-0.018430,0.006415,0.001003,-0.039848,0.014752,0.088894,1.000000,-0.000092,0.000032,0.000005,0.903385,-0.014170,0.220219,0.367693,8.589938,24.098430,46.131123
19799,-3.965911,1.479684,8.752866,-0.109907,0.112303,-0.091273,-0.030764,0.022149,-0.000313,-0.039649,0.014810,0.087531,1.000000,-0.000154,0.000111,-0.000002,0.903345,-0.014371,0.220236,0.367774,8.570723,24.108613,46.138401
19800,-3.741978,1.491728,8.717274,0.008509,0.267121,-0.213360,-0.072529,0.049580,0.002391,-0.037398,0.014948,0.087177,1.000000,-0.000363,0.000248,0.000012,0.903268,-0.014806,0.220299,0.367908,8.529396,24.134035,46.149484
19801,-4.186300,1.308474,9.164297,0.023204,-0.065022,0.346878,-0.085202,0.093173,0.010696,-0.041821,0.013122,0.091657,1.000000,-0.000426,0.000466,0.000053,0.903128,-0.015369,0.220537,0.368086,8.484552,24.183529,46.169322
19802,-4.779725,1.242636,9.349646,-0.235689,-0.458229,0.748576,-0.086592,0.062810,0.031300,-0.047770,0.012459,0.093506,1.000000,-0.000433,0.000314,0.000156,0.902981,-0.015859,0.220637,0.368365,8.443031,24.214026,46.199555
19803,-4.732717,1.400646,9.331092,-0.322429,-0.307454,0.733933,-0.115261,0.029630,0.036570,-0.047316,0.014052,0.093310,1.000000,-0.000576,0.000148,0.000183,0.902856,-0.016416,0.220535,0.368709,8.385061,24.225401,46.230877
19804,-4.910597,0.715537,9.439770,0.062051,-0.893710,0.814289,-0.146548,0.017751,0.050461,-0.049099,0.007212,0.094397,1.000000,-0.000733,0.000089,0.000252,0.902718,-0.017073,0.220322,0.369143,8.312377,24.228817,46.268851
19805,-5.416802,0.557315,9.512016,-0.131551,-1.319484,1.067222,-0.148284,-0.010105,0.017355,-0.054173,0.005639,0.095113,1.000000,-0.000741,-0.000051,0.000087,0.902670,-0.017726,0.219977,0.369435,8.229121,24.219338,46.284056
19806,-4.276364,0.084368,8.837425,0.629834,-1.029727,-0.069105,-0.274936,-0.058875,-0.110653,-0.042789,0.000989,0.088360,0.999999,-0.001375,-0.000294,-0.000553,0.902901,-0.018998,0.219167,0.369290,8.038982,24.192482,46.215006
19807,-2.737241,0.062423,8.319727,1.398511,-0.111379,-1.167115,-0.267929,0.083842,-0.298963,-0.027336,0.000777,0.083208,0.999998,-0.001340,0.000419,-0.001495,0.903321,-0.020711,0.218996,0.368271,7.809670,24.261460,46.041214
19808,-2.749715,0.826253,8.930836,1.097329,0.594238,-0.515052,-0.250439,0.259918,-0.501019,-0.027360,0.008443,0.089333,0.999995,-0.001252,0.001300,-0.002505,0.903915,-0.022889,0.219629,0.366301,7.544183,24.444999,45.755798
19809,-2.529759,1.978191,9.699401,0.750242,1.787687,0.218877,-0.282474,0.288339,-0.692861,-0.025089,0.020006,0.097002,0.999992,-0.001412,0.001442,-0.003464,0.904810,-0.025479,0.220306,0.363503,7.209627,24.657518,45.352825
19810,-1.285378,2.479046,9.962134,1.308642,3.076664,-0.021712,-0.335325,0.316684,-0.798386,-0.012597,0.025008,0.099600,0.999989,-0.001677,0.001583,-0.003992,0.905847,-0.028470,0.220999,0.360263,6.816006,24.891115,44.882253
19811,-0.919502,3.286390,10.874223,1.364050,4.168173,0.706805,-0.264800,0.425250,-0.822936,-0.008828,0.033045,0.108718,0.999988,-0.001324,0.002126,-0.004115,0.906800,-0.031364,0.222301,0.356808,6.456321,25.185247,44.401101
19812,-1.157753,3.603941,11.811998,1.376542,4.528899,1.652290,-0.258522,0.385060,-0.755262,-0.011214,0.036235,0.118095,0.999990,-0.001293,0.001925,-0.003776,0.907657,-0.034081,0.223439,0.353655,6.114031,25.449636,43.957110
19813,-0.254017,3.882752,12.761067,2.161247,5.573732,2.114062,-0.150696,0.245828,-0.593468,-0.002268,0.038931,0.127584,0.999995,-0.000753,0.001229,-0.002967,0.908388,-0.035883,0.224156,0.351138,5.870879,25.622609,43.604234
19814,1.750959,3.963589,14.001192,3.892427,7.194410,2.348672,-0.241856,-0.018008,-0.326973,0.017562,0.039776,0.139965,0.999998,-0.001209,-0.000090,-0.001635,0.908924,-0.037335,0.223565,0.349974,5.640331,25.628889,43.401515
19815,3.863788,2.952844,11.818629,5.089435,7.257340,-0.606346,-0.034514,-0.297771,-0.118274,0.038479,0.029526,0.118239,0.999999,-0.000173,-0.001489,-0.000591,0.909450,-0.037114,0.222099,0.349564,5.578616,25.462640,43.311685
19816,3.336658,3.899748,11.767774,4.097238,7.611334,-0.320481,0.150516,-0.205972,-0.011591,0.033248,0.038907,0.117741,0.999999,0.000753,-0.001030,-0.000058,0.909714,-0.036102,0.221397,0.349429,5.654143,25.343613,43.296739
19817,2.842277,3.181582,11.059679,3.958403,6.585547,-0.786117,-0.012756,-0.331679,0.132533,0.028218,0.031842,0.110642,0.999998,-0.000064,-0.001658,0.000663,0.909836,-0.035442,0.219852,0.350152,5.672069,25.142985,43.364505
19818,0.675402,2.242783,10.700516,2.986058,4.428080,-0.249074,0.114465,-0.333426,0.300081,0.006542,0.022377,0.107029,0.999997,0.000572,-0.001667,0.001500,0.909683,-0.034027,0.218562,0.351497,5.806514,24.933469,43.537371
19819,-1.384555,1.835327,10.120064,1.660343,2.667755,0.078074,0.175162,-0.450589,0.440338,-0.014114,0.018234,0.101185,0.999995,0.000876,-0.002253,0.002202,0.909416,-0.031964,0.216852,0.353434,6.009024,24.646056,43.789940
19820,-3.352529,0.737915,9.004004,0.654373,0.315354,-0.203939,0.189512,-0.551405,0.530160,-0.033793,0.007205,0.089954,0.999992,0.000948,-0.002757,0.002651,0.909088,-0.029572,0.214737,0.355772,6.237541,24.297253,44.089846
19821,-5.254644,-0.638078,8.515102,0.118496,-2.081112,-0.005550,0.109819,-0.572370,0.559820,-0.052772,-0.006575,0.084997,0.999992,0.000549,-0.002862,0.002799,0.908705,-0.027460,0.212367,0.358331,6.425409,23.931100,44.404857
19822,-8.593590,-2.150427,7.532235,-1.426135,-5.615016,0.269253,0.320355,-0.663944,0.592279,-0.086121,-0.021879,0.075002,0.999989,0.001602,-0.003320,0.002961,0.908370,-0.024205,0.209977,0.360816,6.735669,23.511995,44.730511
19823,-8.494309,-1.241683,6.515371,-2.338808,-5.164603,-0.647467,0.236623,-0.665025,0.510797,-0.085127,-0.012711,0.064856,0.999991,0.001183,-0.003325,0.002554,0.908156,-0.021404,0.207400,0.363015,6.974898,23.094181,45.002588
19824,-10.582451,-2.635529,5.840637,-3.013275,-7.744075,-0.647736,-0.016093,-0.532543,0.445665,-0.105920,-0.026587,0.058127,0.999994,-0.000080,-0.002663,0.002228,0.907879,-0.020068,0.204973,0.365156,7.054755,22.757812,45.242298
19825,-11.089935,-1.767244,5.001701,-4.225103,-7.652835,-1.169250,0.084862,-0.458978,0.384453,-0.110979,-0.017907,0.049755,0.999995,0.000424,-0.002295,0.001922,0.907641,-0.018464,0.203043,0.366908,7.178577,22.465580,45.448869
19826,-10.030101,-1.707141,3.787958,-4.004924,-7.171220,-2.713393,-0.249832,-0.233466,0.315505,-0.100318,-0.017182,0.037784,0.999997,-0.001249,-0.001167,0.001578,0.907260,-0.018869,0.201526,0.368660,7.100061,22.308031,45.629851
19827,-10.940895,-1.452596,4.191576,-4.610291,-7.530800,-1.975931,-0.163550,0.063443,0.256080,-0.109377,-0.014632,0.041962,0.999999,-0.000818,0.000317,0.001280,0.906695,-0.019487,0.201502,0.370028,7.065431,22.322772,45.797079
19828,-11.465673,-0.387975,4.828833,-5.424928,-7.000713,-1.066836,-0.060053,0.080906,0.242221,-0.114632,-0.004004,0.048336,0.999999,-0.000300,0.000405,0.001211,0.906146,-0.019685,0.201754,0.371224,7.087545,22.349329,45.957123
19829,-9.400468,0.580636,4.390204,-4.888385,-5.020805,-2.139683,0.050866,0.105209,0.201063,-0.093987,0.005701,0.043953,0.999999,0.000254,0.000526,0.001005,0.905658,-0.019468,0.202316,0.372120,7.164151,22.392399,46.093750
19830,-7.401615,2.804270,6.353644,-4.403759,-1.729678,-0.833177,0.279146,0.233554,0.172254,-0.073966,0.027890,0.063662,0.999998,0.001396,0.001168,0.000861,0.905113,-0.018484,0.203883,0.372640,7.369135,22.510294,46.222963
19831,-4.769260,3.766306,8.407172,-2.624649,1.089002,0.164121,0.101108,0.035246,0.161230,-0.047708,0.037582,0.084099,1.000000,0.000506,0.000176,0.000806,0.904772,-0.017950,0.204221,0.373309,7.463562,22.516424,46.329862
19832,-1.270190,3.903613,10.113961,0.136405,3.825778,0.409276,0.246159,0.026160,0.116561,-0.012711,0.038904,0.101189,0.999999,0.001231,0.000131,0.000583,0.904535,-0.016786,0.204782,0.373629,7.630463,22.520125,46.408622
19833,-2.528454,4.231962,12.735359,0.084733,3.675674,3.339265,0.430050,0.114763,0.145713,-0.025242,0.042027,0.127459,0.999997,0.002150,0.000574,0.000729,0.904166,-0.014926,0.206091,0.373883,7.912593,22.571900,46.512770
19834,-3.836540,1.878599,11.762886,0.521634,0.903914,2.658256,-0.125786,-0.177409,0.302397,-0.038498,0.018802,0.117583,0.999998,-0.000629,-0.000887,0.001512,0.903759,-0.014871,0.205049,0.375438,7.903433,22.444966,46.688337
19835,-2.271672,-2.031569,8.526338,3.008386,-1.441950,-1.395052,-0.273687,-0.211335,0.437488,-0.022762,-0.020249,0.085267,0.999996,-0.001368,-0.001057,0.002187,0.903117,-0.015280,0.203587,0.377756,7.839779,22.288428,46.943882
19836,-4.161101,-3.297050,8.525904,2.700923,-3.631484,-0.846449,0.388746,0.122933,0.374956,-0.041497,-0.033214,0.085220,0.999996,0.001944,0.000615,0.001875,0.902296,-0.013395,0.204876,0.379088,8.151389,22.325875,47.189357
19837,-2.951459,-1.379692,8.978037,2.344918,-1.390730,-0.659176,0.537996,0.069069,0.213492,-0.029469,-0.014070,0.089753,0.999996,0.002690,0.000345,0.001067,0.901839,-0.010901,0.206194,0.379540,8.509150,22.344999,47.331287
19838,-0.901796,-1.637784,8.838453,3.796651,-0.228290,-1.618361,0.431367,0.240493,0.068860,-0.008906,-0.016572,0.088360,0.999997,0.002157,0.001202,0.000344,0.901468,-0.009360,0.208073,0.379438,8.778498,22.472824,47.400784
19839,-3.017256,-0.588639,9.933795,2.214695,-0.747155,0.319779,0.786324,0.430094,-0.065611,-0.029961,-0.006267,0.099378,0.999990,0.003932,0.002150,-0.000328,0.901160,-0.006722,0.211469,0.378346,9.226800,22.719600,47.407149
19840,-4.739651,0.249500,9.283234,0.394041,-1.453271,0.504158,0.775786,0.299888,-0.232839,-0.047255,0.002190,0.092912,0.999991,0.003879,0.001499,-0.001164,0.901288,-0.004059,0.214250,0.376510,9.625363,22.908417,47.299784
19841,-4.014215,1.056914,8.438106,0.030156,-0.538051,-0.424289,0.619592,0.282210,-0.456187,-0.039999,0.010399,0.084470,0.999992,0.003098,0.001411,-0.002281,0.901838,-0.002310,0.216648,0.373828,9.879641,23.109488,47.054436
19842,-5.325031,2.718298,8.725778,-1.743213,-0.170791,0.618799,0.772325,0.352974,-0.592467,-0.053016,0.027003,0.087456,0.999987,0.003862,0.001765,-0.002962,0.902547,-0.000148,0.219645,0.370357,10.191380,23.365204,46.733883
19843,-5.412127,5.410977,9.008328,-3.415995,1.789292,1.360883,0.614939,0.301824,-0.516471,-0.053846,0.053972,0.090331,0.999991,0.003075,0.001509,-0.002582,0.903153,0.001478,0.222115,0.367394,10.427824,23.585767,46.454963
19844,-5.287785,4.893992,9.305459,-2.833134,1.569071,1.501670,0.028861,0.147727,-0.299448,-0.052736,0.049006,0.093101,0.999999,0.000144,0.000739,-0.001497,0.903525,0.000985,0.222809,0.366057,10.374828,23.697383,46.292296
19845,-4.864546,4.647168,9.129828,-2.462431,1.659695,1.132428,0.036705,0.092901,-0.083341,-0.048584,0.046475,0.091329,1.000000,0.000184,0.000465,-0.000417,0.903562,0.000868,0.223269,0.365686,10.376891,23.755878,46.256281
19846,-4.737294,2.911196,8.920991,-1.323439,0.451073,0.605858,-0.255116,0.028963,0.019569,-0.047363,0.029221,0.089180,0.999999,-0.001276,0.000145,0.000098,0.903482,-0.000335,0.222906,0.366106,10.234547,23.767596,46.276452
19847,-4.016682,1.733000,8.776931,-0.162376,0.058864,-0.007502,-0.283215,0.030142,0.024488,-0.040156,0.017449,0.087751,0.999999,-0.001416,0.000151,0.000122,0.903390,-0.001662,0.222497,0.366578,10.077376,23.779722,46.299745
19848,-4.314985,0.920633,9.273374,0.372255,-0.631052,0.430617,-0.244083,0.054566,0.001898,-0.043125,0.009319,0.092734,0.999999,-0.001220,0.000273,0.000009,0.903310,-0.002881,0.222268,0.366904,9.938066,23.807741,46.311742
19849,-5.100568,0.839224,9.698627,0.089433,-1.126491,1.119214,-0.095884,-0.021041,0.013091,-0.051016,0.008435,0.096977,1.000000,-0.000479,-0.000105,0.000065,0.903296,-0.003281,0.221972,0.367116,9.883128,23.792204,46.322431
19850,-3.973513,1.277001,9.076645,0.251723,-0.166796,0.172993,-0.045623,-0.137746,-0.002667,-0.039797,0.012791,0.090736,1.000000,-0.000228,-0.000689,-0.000013,0.903440,-0.003256,0.221238,0.367204,9.848046,23.712141,46.310907
19851,-4.623996,1.366616,9.337564,-0.124797,-0.496181,0.683850,0.040140,-0.095072,0.018022,-0.046286,0.013643,0.093356,1.000000,0.000201,-0.000475,0.000090,0.903500,-0.002900,0.220857,0.367288,9.869007,23.654368,46.316698
19852,-4.232726,2.116989,8.809185,-0.594421,0.208133,0.167426,0.030507,-0.201820,0.073645,-0.042424,0.021141,0.088052,0.999999,0.000153,-0.001009,0.000368,0.903576,-0.002329,0.219974,0.367637,9.893631,23.530637,46.345293
19853,-2.937621,2.031893,8.260880,0.055575,0.899163,-0.857870,0.006389,-0.111936,0.125728,-0.029435,0.020298,0.082593,1.000000,0.000032,-0.000560,0.000629,0.903455,-0.001976,0.219456,0.368245,9.920928,23.452752,46.415496
19854,-3.423657,2.416066,8.448508,-0.437460,0.878216,-0.433271,-0.024733,-0.003552,0.183981,-0.034260,0.024140,0.084481,1.000000,-0.000124,-0.000018,0.000920,0.903107,-0.001899,0.219368,0.369150,9.949266,23.429985,46.533166
19855,-2.959260,2.119718,8.279049,-0.015879,0.941664,-0.817906,-0.126545,0.051810,0.229648,-0.029596,0.021216,0.082785,0.999999,-0.000633,0.000259,0.001148,0.902612,-0.002333,0.219345,0.370371,9.932808,23.434148,46.684876
19856,-3.088755,1.863158,8.392861,0.118326,0.693847,-0.704645,-0.141376,0.148558,0.217261,-0.030845,0.018657,0.083938,0.999999,-0.000707,0.000743,0.001086,0.902031,-0.003027,0.219728,0.371551,9.909039,23.493972,46.839417
19857,-3.203646,1.179225,8.616021,0.594861,0.174905,-0.565783,-0.229150,0.197115,0.166855,-0.031961,0.011864,0.086178,0.999999,-0.001146,0.000986,0.000834,0.901487,-0.004262,0.220167,0.372598,9.824926,23.586445,46.968156
19858,-3.775674,0.858736,9.078544,0.638930,-0.338986,0.030580,-0.162427,0.220980,0.109790,-0.037661,0.008640,0.090820,0.999999,-0.000812,0.001105,0.000549,0.901022,-0.005304,0.220835,0.373313,9.766090,23.697945,47.064233
19859,-4.947124,0.647077,9.749711,0.322898,-1.139956,1.075187,-0.102352,0.173086,0.043168,-0.049388,0.006510,0.097537,0.999999,-0.000512,0.000865,0.000216,0.900735,-0.006060,0.221398,0.373662,9.723243,23.789063,47.114099
19860,-4.539233,1.000059,9.208512,0.131156,-0.699184,0.477861,0.024549,0.032192,0.050916,-0.045380,0.009978,0.092094,1.000000,0.000123,0.000161,0.000255,0.900592,-0.005972,0.221563,0.373909,9.749040,23.799750,47.153834
19861,-3.827348,0.923899,8.856473,0.491268,-0.337236,-0.138793,-0.023436,0.073147,0.063501,-0.038244,0.009237,0.088578,1.000000,-0.000117,0.000366,0.000318,0.900379,-0.006163,0.221824,0.374265,9.752195,23.832500,47.205671
19862,-4.042863,1.341026,8.906515,0.101254,-0.170686,0.057961,0.037350,0.073774,0.066353,-0.040400,0.013380,0.089083,1.000000,0.000187,0.000369,0.000332,0.900161,-0.006078,0.222200,0.374567,9.791011,23.865142,47.259382
19863,-3.001096,1.331559,8.397189,0.560477,0.436623,-0.824494,-0.031660,0.140863,0.032979,-0.029954,0.013324,0.083991,1.000000,-0.000158,0.000704,0.000165,0.899929,-0.006468,0.222749,0.374792,9.784798,23.939065,47.299634
19864,-3.978068,1.406333,9.033102,0.167757,-0.038661,0.155765,-0.018048,0.250234,0.010373,-0.039668,0.014069,0.090379,0.999999,-0.000090,0.001251,0.000052,0.899617,-0.007025,0.223814,0.374897,9.785616,24.076780,47.337629
19865,-4.766200,0.803662,9.425638,0.257403,-0.912363,0.737502,-0.069073,0.187579,0.002275,-0.047574,0.008069,0.094298,1.000000,-0.000345,0.000938,0.000011,0.899387,-0.007704,0.224501,0.375024,9.752388,24.180044,47.363904
19866,-4.240355,-0.318151,9.602078,1.424681,-1.317063,0.508036,-0.014309,0.194406,0.005564,-0.042310,-0.003176,0.096062,1.000000,-0.000072,0.000972,0.000028,0.899144,-0.008145,0.225321,0.375105,9.751814,24.286720,47.392958
19867,-4.457082,0.250519,9.372167,0.833764,-1.087264,0.477526,0.181419,0.207337,-0.001141,-0.044474,0.002420,0.093770,0.999999,0.000907,0.001037,-0.000006,0.898907,-0.007741,0.226566,0.374933,9.862121,24.401477,47.419323
19868,-3.575686,0.607025,9.134363,1.067353,-0.277568,-0.046714,0.156733,0.274333,-0.040016,-0.035630,0.006006,0.091397,0.999999,0.000784,0.001372,-0.000200,0.898663,-0.007614,0.228063,0.374611,9.951690,24.557686,47.429141
19869,-3.605903,1.216924,9.842865,0.948387,0.290468,0.693573,0.034442,0.333213,-0.178663,-0.035884,0.012184,0.098491,0.999998,0.000172,0.001666,-0.000893,0.898605,-0.008308,0.229590,0.373802,9.937688,24.760974,47.359318
19870,-2.483342,0.116554,9.342294,2.190547,0.189271,-0.398625,-0.213558,0.300347,-0.415255,-0.024690,0.001317,0.093459,0.999996,-0.001068,0.001502,-0.002076,0.899012,-0.010324,0.230495,0.372214,9.718072,24.968580,47.138248
19871,-0.747968,2.030275,9.990348,2.251915,2.896077,-0.271736,-0.044989,0.527474,-0.712966,-0.007144,0.020351,0.099918,0.999990,-0.000225,0.002637,-0.003565,0.899707,-0.012351,0.232715,0.369078,9.524292,25.332302,46.753975
19872,0.158854,3.392843,11.907181,2.721625,4.935370,1.212336,-0.388412,0.705599,-0.974196,0.002174,0.034150,0.118999,0.999980,-0.001942,0.003528,-0.004871,0.900630,-0.016552,0.235080,0.365143,9.067221,25.818912,46.220689
19873,1.090199,4.602275,13.474880,3.191682,6.856709,2.300874,-0.341755,0.777805,-1.125558,0.011685,0.046189,0.134626,0.999975,-0.001709,0.003889,-0.005628,0.901708,-0.020853,0.237829,0.360451,8.590455,26.355418,45.592281
19874,6.324093,8.484969,19.382564,6.408198,14.454270,5.604089,-0.672858,0.645800,-0.939258,0.064265,0.085200,0.193333,0.999978,-0.003364,0.003229,-0.004696,0.902531,-0.026185,0.239399,0.356989,7.963148,26.796609,45.061463
19875,6.820115,2.792997,16.935750,9.423245,10.133524,2.420343,-1.108299,-0.023836,-0.810632,0.068296,0.028591,0.169208,0.999976,-0.005541,-0.000119,-0.004053,0.903829,-0.032127,0.237165,0.354702,7.092529,26.840252,44.548728
19876,12.641379,8.613179,18.590710,10.028904,18.491213,1.896183,0.673412,-0.062329,-0.687939,0.126650,0.085070,0.186234,0.999988,0.003367,-0.000312,-0.003440,0.905209,-0.029807,0.237939,0.350848,7.276196,26.851758,44.110570
19877,13.435467,8.291903,18.410373,10.791472,18.604935,1.394826,0.009708,-0.601324,-0.606693,0.134051,0.082503,0.184511,0.999991,0.000049,-0.003007,-0.003033,0.906973,-0.029437,0.235096,0.348229,7.085067,26.548332,43.681722
19878,13.049934,5.470259,16.562297,11.682016,15.703297,-0.248951,0.657557,-0.951564,-0.517314,0.129849,0.053820,0.166420,0.999980,0.003288,-0.004758,-0.002587,0.909059,-0.025424,0.231819,0.345291,7.280798,26.042108,43.282795
19879,11.344467,5.277241,15.882069,10.503369,14.170336,0.069570,0.809543,-1.227760,-0.567017,0.112614,0.051807,0.159725,0.999969,0.004048,-0.006139,-0.002835,0.911529,-0.020280,0.227500,0.341976,7.544627,25.379747,42.830075
19880,8.415866,3.559392,14.075666,9.000454,10.494841,-0.301451,0.951886,-1.330683,-0.638197,0.083331,0.034655,0.141479,0.999961,0.004759,-0.006653,-0.003191,0.914184,-0.014411,0.222963,0.338154,7.870956,24.670852,42.322377
19881,4.570707,2.679514,12.927492,6.553433,7.053368,0.311010,0.916479,-1.330339,-0.741662,0.044943,0.026034,0.129696,0.999961,0.004582,-0.006652,-0.003708,0.916946,-0.008793,0.218303,0.333881,8.156850,23.967322,41.749629
19882,0.162815,1.278323,11.728879,3.941265,2.896358,0.925165,1.090081,-1.365849,-0.754337,0.000873,0.012139,0.117364,0.999955,0.005450,-0.006829,-0.003772,0.919692,-0.002358,0.213792,0.329325,8.542528,23.253353,41.163887
19883,-3.563791,1.566850,11.232245,0.959578,0.611235,2.020387,1.203133,-1.399604,-0.681345,-0.036371,0.015117,0.112162,0.999952,0.006016,-0.006998,-0.003407,0.922275,0.004759,0.209248,0.324964,9.016336,22.511844,40.617868
19884,-8.345273,0.309328,9.943703,-2.224084,-3.595370,2.464909,1.130098,-1.574352,-0.403925,-0.084226,0.002703,0.098792,0.999951,0.005650,-0.007872,-0.002020,0.924496,0.012085,0.203797,0.321913,9.509786,21.656301,40.219544
19885,-7.352324,-0.089637,7.549044,-2.313710,-3.737911,-0.235413,0.904733,-1.774712,0.048629,-0.074189,-0.001254,0.074829,0.999950,0.004524,-0.008873,0.000243,0.926121,0.019179,0.196966,0.321149,9.971006,20.640954,40.069981
19886,-8.921233,-1.884240,6.290635,-2.945285,-6.357122,-1.232456,0.578367,-1.478809,0.420403,-0.089634,-0.019211,0.062189,0.999966,0.002892,-0.007394,0.002102,0.926805,0.024623,0.190973,0.322420,10.332030,19.761878,40.168258
19887,-11.750208,-2.518699,5.953844,-4.787095,-8.732749,-0.830558,0.429155,-1.335552,0.726564,-0.117803,-0.025741,0.058698,0.999969,0.002146,-0.006678,0.003633,0.926822,0.029461,0.185313,0.325258,10.671011,18.925572,40.459492
19888,-12.295450,-3.403301,4.100277,-5.350916,-10.009225,-2.688585,0.017709,-1.270359,0.891424,-0.123058,-0.034585,0.040218,0.999970,0.000089,-0.006352,0.004457,0.926509,0.032412,0.179290,0.329221,10.801017,18.112665,40.850390
19889,-13.716038,-4.739688,2.280107,-6.196327,-12.139979,-4.333880,-0.143382,-0.907770,0.883403,-0.137051,-0.047986,0.022213,0.999980,-0.000717,-0.004539,0.004417,0.925865,0.034030,0.174640,0.333341,10.844974,17.499558,41.275010
19890,-15.135024,-3.585453,1.526902,-8.123584,-12.263520,-4.533736,0.018528,-0.637812,0.781420,-0.151256,-0.036447,0.014783,0.999987,0.000093,-0.003189,0.003907,0.925095,0.035839,0.171555,0.336875,10.967897,17.053355,41.667647
19891,-14.252784,-3.155048,0.611438,-8.008967,-11.497211,-5.672730,-0.437333,-0.477229,0.811581,-0.142412,-0.032116,0.005844,0.999987,-0.002187,-0.002386,0.004058,0.924195,0.035306,0.168408,0.340964,10.837396,16.690842,42.095623
19892,-14.637532,-4.371758,-0.661408,-7.873278,-12.810261,-7.035192,-0.430639,-0.145243,0.792708,-0.146196,-0.044312,-0.006625,0.999990,-0.002153,-0.000726,0.003964,0.923021,0.034208,0.166832,0.345006,10.716104,16.521525,42.549613
19893,-16.806650,-4.829562,-4.368365,-10.255048,-14.821321,-9.992115,-0.307904,0.260284,0.470477,-0.168009,-0.048758,-0.043390,0.999995,-0.001540,0.001301,0.002352,0.922031,0.032714,0.167374,0.347525,10.623602,16.613305,42.859561
19894,-24.355066,-6.236501,-13.396441,-17.698223,-21.356411,-16.307265,0.257938,1.853295,-0.557976,-0.244951,-0.061512,-0.131779,0.999952,0.001290,0.009266,-0.002790,0.921353,0.030192,0.176421,0.345069,10.732202,17.713381,42.741329
19895,-35.235814,4.892717,17.391942,-21.267627,-17.654902,18.538894,2.170803,3.230265,-1.188274,-0.349191,0.049076,0.180109,0.999793,0.010853,0.016150,-0.005941,0.920026,0.033540,0.195157,0.338143,11.869697,19.658637,42.424070
19896,-0.986441,9.151554,14.482827,-0.914638,7.444119,5.621475,-1.704966,-1.219863,0.530341,-0.010989,0.092717,0.143977,0.999942,-0.008525,-0.006099,0.002652,0.920542,0.028254,0.186534,0.342067,10.945900,18.910733,42.597845
19897,9.443116,5.076784,9.892439,7.043649,10.714817,-2.856885,-0.425135,1.175964,-0.414269,0.095115,0.050781,0.098259,0.999978,-0.002126,0.005880,-0.002071,0.920182,0.023875,0.191250,0.340760,10.662092,19.615001,42.489305
19898,-5.497278,8.587080,11.948929,-4.566296,4.123263,4.639763,1.635169,1.281952,-0.474220,-0.054000,0.085017,0.120535,0.999943,0.008176,0.006410,-0.002371,0.919507,0.028738,0.199952,0.337195,11.550754,20.385415,42.360854
19899,-6.182236,6.863057,7.970077,-5.404277,2.070787,0.927357,-1.232893,0.443122,0.342957,-0.061764,0.069015,0.079413,0.999977,-0.006164,0.002216,0.001715,0.918631,0.022646,0.199830,0.340106,10.932492,20.593545,42.624186
19900,-3.565573,-0.583669,7.168867,0.638994,-1.982330,-2.059766,-1.511710,0.574890,0.528645,-0.035435,-0.005388,0.071833,0.999964,-0.007558,0.002874,0.002643,0.917285,0.015232,0.199805,0.344143,10.199247,20.859182,43.011875
19901,-2.339948,-1.916155,9.861442,3.348906,-1.817088,-0.227453,-0.574308,1.053051,0.511726,-0.022831,-0.018937,0.098790,0.999979,-0.002872,0.005265,0.002559,0.915365,0.011278,0.203579,0.347182,10.020513,21.399344,43.439710
19902,-4.353789,-2.810901,11.842483,3.378516,-3.429630,2.184083,-0.504052,0.994039,0.430905,-0.042888,-0.027903,0.118710,0.999982,-0.002520,0.004970,0.002155,0.913606,0.007664,0.207198,0.349763,9.864800,21.915130,43.811985
19903,-5.343087,-2.896834,11.054442,2.541943,-4.140411,1.829295,-0.143362,0.690152,0.151698,-0.053027,-0.028929,0.110749,0.999994,-0.000717,0.003451,0.000758,0.912614,0.005939,0.210066,0.350675,9.842484,22.287457,43.982283
19904,-4.261653,-3.875537,9.660543,3.397153,-4.320187,0.000702,-0.052670,0.568559,-0.089976,-0.042359,-0.038711,0.096736,0.999996,-0.000263,0.002843,-0.000450,0.912161,0.004587,0.212543,0.350381,9.811843,22.614669,43.992330
19905,-5.042757,-1.714150,9.809272,1.608557,-3.141268,0.776656,0.516113,0.581515,-0.410213,-0.050178,-0.017292,0.098194,0.999990,0.002581,0.002908,-0.002051,0.912230,0.005463,0.216080,0.348018,10.031556,22.981030,43.808234
19906,-4.668640,1.199856,9.628621,-0.003186,-0.700972,0.932291,0.440076,0.429972,-0.660319,-0.046440,0.011940,0.096413,0.999990,0.002200,0.002150,-0.003302,0.912882,0.005989,0.218795,0.344586,10.140601,23.287249,43.454952
19907,-5.810027,2.871022,9.240964,-1.914074,-0.170501,1.309428,0.509443,0.408512,-0.701895,-0.057811,0.028678,0.092601,0.999989,0.002547,0.002043,-0.003509,0.913608,0.006817,0.221529,0.340880,10.275962,23.586572,43.073522
19908,-6.257457,5.611723,9.467573,-3.755922,1.715279,2.155292,0.581599,0.264094,-0.545598,-0.062296,0.056012,0.094921,0.999991,0.002908,0.001320,-0.002728,0.914207,0.008400,0.223717,0.337796,10.483909,23.789124,42.772382
19909,-4.035283,5.532872,8.311238,-2.662411,2.907456,0.208841,-0.179705,0.066873,-0.302576,-0.040241,0.055464,0.083076,0.999998,-0.000899,0.000334,-0.001513,0.914638,0.007103,0.223706,0.336663,10.306026,23.855889,42.598315
19910,-3.747793,4.464559,8.565235,-1.708505,2.325742,0.137858,-0.165466,0.258783,-0.081503,-0.037349,0.044732,0.085664,0.999999,-0.000827,0.001294,-0.000408,0.914480,0.005800,0.224587,0.336531,10.200221,24.007505,42.581798
19911,-5.404140,3.502898,9.415910,-1.886627,0.711867,1.415318,-0.479608,0.178362,0.083712,-0.053972,0.035232,0.094123,0.999997,-0.002398,0.000892,0.000419,0.914139,0.003380,0.224568,0.337503,9.952128,24.097536,42.657952
19912,-4.202244,1.222066,8.531167,-0.060213,-0.400208,-0.233062,-0.496945,0.096980,0.185985,-0.041993,0.012394,0.085301,0.999996,-0.002485,0.000485,0.000930,0.913710,0.001134,0.224142,0.338958,9.716351,24.131517,42.788294
19913,-3.437044,1.579422,8.559784,0.232459,0.380506,-0.465020,-0.297830,0.196499,0.188134,-0.034301,0.015889,0.085608,0.999998,-0.001489,0.000982,0.000941,0.913160,-0.000370,0.224510,0.340198,9.599628,24.222306,42.930379
19914,-4.272134,1.568164,8.943415,-0.162622,-0.064051,0.220475,-0.299855,0.196958,0.182052,-0.042648,0.015777,0.089453,0.999998,-0.001499,0.000985,0.000910,0.912615,-0.001889,0.224872,0.341412,9.480358,24.313762,43.068662
19915,-3.792384,0.855879,8.651395,0.480425,-0.332571,-0.345910,-0.308404,0.187502,0.162676,-0.037850,0.008661,0.086536,0.999998,-0.001542,0.000938,0.000813,0.912110,-0.003454,0.225179,0.342545,9.351010,24.402385,43.193810
19916,-3.981254,0.500648,9.067091,0.747554,-0.628597,0.054385,-0.253842,0.208072,0.076210,-0.039720,0.005106,0.090706,0.999999,-0.001269,0.001040,0.000381,0.911729,-0.004902,0.225667,0.343221,9.231670,24.510463,43.267245
19917,-4.424117,-0.026912,9.472725,0.951672,-1.212680,0.527995,-0.231462,0.176877,-0.033678,-0.044157,-0.000152,0.094767,0.999999,-0.001157,0.000884,-0.000168,0.911568,-0.006319,0.226052,0.343371,9.095447,24.611479,43.268972
19918,-5.007154,-0.238728,9.409626,0.672765,-1.729958,0.686087,-0.027725,0.046755,-0.053023,-0.050050,-0.002361,0.094108,1.000000,-0.000139,0.000234,-0.000265,0.911594,-0.006605,0.226189,0.343206,9.065517,24.640219,43.245589
19919,-3.027972,0.536949,8.422282,1.095331,-0.063672,-0.913926,0.019490,0.076865,-0.064323,-0.030246,0.005371,0.084235,1.000000,0.000097,0.000384,-0.000322,0.911607,-0.006743,0.226547,0.342935,9.060753,24.687447,43.218079
19920,-3.543542,1.642416,8.523332,0.113969,0.485851,-0.450406,0.087139,0.248074,-0.048137,-0.035326,0.016396,0.085284,0.999999,0.000436,0.001240,-0.000241,0.911399,-0.006845,0.227799,0.342655,9.106250,24.829646,43.217770
19921,-3.597127,1.651320,8.841755,0.221046,0.532353,-0.142605,-0.123352,0.296376,-0.039026,-0.035837,0.016575,0.088461,0.999999,-0.000617,0.001482,-0.000195,0.911111,-0.007981,0.228912,0.342654,9.035350,24.998739,43.227854
19922,-4.544321,0.049212,9.446058,0.867756,-1.148535,0.570425,-0.090980,0.349841,-0.028944,-0.045278,0.000542,0.094540,0.999998,-0.000455,0.001749,-0.000145,0.910744,-0.009048,0.230322,0.342659,8.988071,25.196804,43.249426
19923,-4.270224,-0.492050,9.344656,1.369185,-1.383749,0.287313,0.009115,0.319936,-0.063201,-0.042554,-0.004911,0.093514,0.999999,0.000046,0.001600,-0.000316,0.910471,-0.009649,0.231767,0.342393,8.987509,25.381390,43.246460
19924,-3.892028,-0.022502,9.324396,1.344260,-0.777019,0.171392,0.210339,0.345957,-0.136445,-0.038759,-0.000297,0.093311,0.999998,0.001052,0.001730,-0.000682,0.910301,-0.009461,0.233668,0.341558,9.083915,25.586922,43.200421
19925,-3.723005,1.144952,9.407667,0.797885,0.248284,0.335094,0.291096,0.358704,-0.233131,-0.037048,0.011356,0.094160,0.999997,0.001455,0.001794,-0.001166,0.910279,-0.009044,0.235761,0.340185,9.200422,25.808890,43.095201
19926,-2.408480,3.049090,9.827706,0.699283,2.613469,0.403085,0.246311,0.424941,-0.465125,-0.023805,0.030425,0.098365,0.999994,0.001232,0.002125,-0.002326,0.910565,-0.009213,0.238066,0.337804,9.230403,26.089382,42.851027
19927,-1.164245,4.456643,11.296324,1.317644,4.775263,1.335583,-0.233379,0.504055,-0.775233,-0.011185,0.044742,0.112940,0.999989,-0.001167,0.002520,-0.003876,0.911242,-0.012072,0.239902,0.334573,8.900255,26.442277,42.417577
19928,0.226042,4.831511,12.531209,2.565200,6.237274,1.803681,-0.627345,0.584704,-1.126071,0.002900,0.048693,0.125152,0.999975,-0.003137,0.002923,-0.005630,0.912353,-0.017278,0.241417,0.330199,8.243604,26.867249,41.764679
19929,3.634660,6.091496,15.984251,5.575838,10.038308,3.376436,-0.704389,0.506596,-1.275232,0.037141,0.061242,0.159534,0.999970,-0.003522,0.002533,-0.006376,0.913748,-0.022885,0.242420,0.325227,7.488489,27.252178,41.001653
19930,8.096920,4.954051,17.845334,10.043577,12.248696,2.743286,-1.069751,0.193279,-0.757870,0.081331,0.050186,0.178108,0.999978,-0.005349,0.000966,-0.003789,0.914593,-0.029024,0.241446,0.323080,6.657961,27.413197,40.537104
19931,9.658851,8.542898,17.265608,8.716767,15.893553,1.840071,0.524993,0.081783,-0.474267,0.096861,0.084746,0.172840,0.999994,0.002625,0.000409,-0.002371,0.915322,-0.027342,0.242564,0.320314,6.819727,27.488080,40.244543
19932,10.217893,10.436031,18.656630,8.606304,17.961026,3.021596,-0.086911,-0.267025,-0.085655,0.101974,0.104398,0.186657,0.999999,-0.000435,-0.001335,-0.000428,0.915759,-0.027435,0.241166,0.320112,6.733382,27.339621,40.174503
19933,10.543587,6.219577,16.741164,10.494165,14.387143,0.817368,-0.025142,-0.606714,0.208954,0.104862,0.062327,0.167722,0.999995,-0.000126,-0.003034,0.001045,0.916141,-0.026332,0.238332,0.321233,6.757930,26.975445,40.267827
19934,8.967458,5.369639,16.496982,9.777847,12.695726,1.350139,0.354969,-0.755697,0.234201,0.088987,0.053508,0.165402,0.999991,0.001775,-0.003778,0.001171,0.916692,-0.023233,0.235444,0.322028,7.000347,26.527175,40.364100
19935,6.526770,4.035770,15.299979,8.373920,9.885981,1.372892,0.418666,-1.053221,0.170646,0.064426,0.040092,0.153425,0.999984,0.002093,-0.005266,0.000853,0.917685,-0.019416,0.231254,0.322489,7.250252,25.910064,40.394488
19936,5.558061,2.572944,13.348140,7.734947,7.678913,0.030416,0.417822,-1.255214,0.022577,0.054738,0.025456,0.133880,0.999978,0.002089,-0.006276,0.000113,0.919110,-0.015468,0.226140,0.322272,7.449690,25.192764,40.311816
19937,3.468185,1.154794,12.352919,6.690723,5.032488,-0.021747,0.460802,-1.183360,-0.183885,0.033960,0.011232,0.123758,0.999979,0.002304,-0.005917,-0.000919,0.920756,-0.011648,0.221366,0.321046,7.623201,24.527316,40.104365
19938,-0.399826,0.648018,11.855132,4.051245,2.147397,1.146229,0.640869,-1.230100,-0.306548,-0.004718,0.006107,0.118544,0.999975,0.003204,-0.006150,-0.001533,0.922613,-0.007082,0.216682,0.319037,7.867308,23.850219,39.814465
19939,-2.077824,0.576753,11.188767,2.582382,0.862822,1.251807,0.642341,-1.368476,-0.328291,-0.021534,0.005443,0.111760,0.999970,0.003212,-0.006842,-0.001641,0.924609,-0.002288,0.211313,0.316921,8.106073,23.092289,39.498227
19940,-4.248310,0.272207,10.515436,0.872537,-0.887622,1.463171,0.699162,-1.420656,-0.257962,-0.043225,0.002411,0.104858,0.999968,0.003496,-0.007103,-0.001290,0.926487,0.002902,0.205817,0.315043,8.394231,22.305503,39.218002
19941,-4.418537,0.099928,9.345116,0.306899,-1.414183,0.422941,0.656543,-1.561955,-0.050296,-0.044913,0.000704,0.093105,0.999964,0.003283,-0.007810,-0.000251,0.928126,0.008355,0.199544,0.314156,8.704284,21.417114,39.049438
19942,-4.973698,-0.987756,7.928383,-0.085325,-2.898662,-0.859409,0.597886,-1.471282,0.154221,-0.050311,-0.010152,0.078885,0.999968,0.002989,-0.007356,0.000771,0.929287,0.013572,0.193616,0.314251,9.027935,20.568095,39.008636
19943,-6.524433,-1.179677,7.582074,-1.305558,-4.117609,-0.713966,0.536591,-1.318267,0.312866,-0.065723,-0.012102,0.075356,0.999973,0.002683,-0.006591,0.001564,0.930005,0.018440,0.188243,0.315142,9.354443,19.786259,39.073968
19944,-7.390798,-1.553954,6.912614,-2.027244,-5.095298,-1.166906,0.287575,-1.249474,0.521749,-0.074297,-0.015832,0.068640,0.999976,0.001438,-0.006247,0.002609,0.930300,0.022215,0.182807,0.317221,9.578899,19.028406,39.266529
19945,-8.046841,-2.291299,6.113105,-2.409860,-6.227489,-1.889205,0.055347,-1.096580,0.633611,-0.080729,-0.023185,0.060683,0.999980,0.000277,-0.005483,0.003168,0.930267,0.024787,0.177657,0.320043,9.694055,18.340941,39.538509
19946,-9.944822,-3.188242,5.827136,-3.401423,-8.180480,-1.779691,-0.107606,-0.885146,0.605277,-0.099608,-0.032153,0.057848,0.999985,-0.000538,-0.004426,0.003026,0.930074,0.026218,0.173263,0.322885,9.713159,17.780034,39.812868
19947,-12.214223,-3.213782,6.132110,-4.964430,-9.634711,-0.888332,-0.089547,-0.795092,0.504900,-0.122303,-0.032419,0.060850,0.999989,-0.000448,-0.003975,0.002524,0.929942,0.027515,0.169293,0.325255,9.725137,17.275470,40.036287
19948,-11.980800,-2.258275,5.517537,-5.593342,-8.842234,-1.469368,-0.186184,-0.829444,0.458922,-0.119983,-0.022807,0.054699,0.999988,-0.000931,-0.004147,0.002295,0.929902,0.028364,0.165040,0.327474,9.670361,16.760175,40.228314
19949,-11.165502,-1.451158,5.189979,-5.615181,-7.777739,-1.958633,-0.341962,-0.654623,0.429947,-0.111793,-0.014663,0.051559,0.999991,-0.001710,-0.003273,0.002150,0.929770,0.028188,0.161320,0.329710,9.525145,16.343377,40.421408
19950,-10.132936,-0.501048,5.511684,-5.354542,-6.417315,-1.846965,-0.331967,-0.515547,0.410585,-0.101461,-0.005127,0.054864,0.999993,-0.001660,-0.002578,0.002053,0.929539,0.027802,0.158289,0.331857,9.385186,16.010820,40.617184
19951,-9.004439,-0.327927,5.571347,-4.637273,-5.606633,-2.112781,-0.309390,-0.415619,0.368097,-0.090154,-0.003359,0.055531,0.999995,-0.001547,-0.002078,0.001840,0.929286,0.027329,0.155742,0.333802,9.253025,15.736495,40.798337
19952,-8.095540,-0.272658,5.733836,-3.973666,-5.006677,-2.221107,-0.231537,-0.275691,0.273767,-0.081031,-0.002771,0.057230,0.999997,-0.001158,-0.001378,0.001369,0.929063,0.026904,0.154009,0.335261,9.153613,15.552964,40.937579
19953,-9.101088,-0.207523,6.575342,-4.500789,-5.565081,-1.159324,-0.097191,-0.229250,0.196091,-0.091084,-0.002133,0.065650,0.999999,-0.000486,-0.001146,0.000980,0.928913,0.026969,0.152709,0.336264,9.119620,15.400807,41.035863
19954,-8.959530,0.502358,6.277536,-4.939690,-4.963614,-1.392777,-0.001815,-0.327149,0.099630,-0.089700,0.004979,0.062629,0.999999,-0.000009,-0.001636,0.000498,0.928983,0.027563,0.151145,0.336728,9.122806,15.204174,41.068169
19955,-8.646106,0.251596,5.068286,-4.935431,-5.033396,-2.684406,0.042020,-0.196906,-0.056439,-0.086510,0.002530,0.050598,0.999999,0.000210,-0.000985,-0.000282,0.929211,0.028027,0.150267,0.336454,9.130052,15.093832,41.021332
19956,-10.664567,1.138534,4.856005,-7.026330,-5.633790,-2.229739,0.186925,0.011220,-0.234235,-0.106630,0.011465,0.048577,0.999999,0.000935,0.000056,-0.001171,0.929558,0.028677,0.150638,0.335271,9.198580,15.119038,40.889829
19957,-13.000622,1.193407,4.727935,-8.812049,-7.049523,-1.722840,0.109857,0.115095,-0.324051,-0.129959,0.012119,0.047361,0.999998,0.000549,0.000575,-0.001620,0.929988,0.028728,0.151367,0.333745,9.211366,15.210367,40.715601
19958,-13.594778,1.405874,2.368066,-10.095980,-7.336081,-3.758341,0.175459,0.182136,-0.309940,-0.135904,0.014249,0.023817,0.999998,0.000877,0.000911,-0.001550,0.930329,0.028982,0.152523,0.332241,9.265534,15.339358,40.555943
19959,-13.935430,1.111137,1.153414,-10.531645,-7.798054,-4.809177,-0.085703,0.688351,-0.276954,-0.139298,0.011309,0.012009,0.999993,-0.000429,0.003442,-0.001385,0.930260,0.027204,0.155593,0.331160,9.187199,15.751530,40.463677
19960,-13.746138,1.877685,7.185087,-8.944725,-6.727051,1.088878,0.027588,1.005252,0.112525,-0.137108,0.018690,0.072543,0.999987,0.000138,0.005026,0.000563,0.929265,0.025731,0.160269,0.331840,9.244787,16.307218,40.630559
19961,-4.869067,4.790632,13.316314,-2.236951,1.487148,4.910294,-0.133958,0.681705,0.439956,-0.048342,0.047889,0.133296,0.999992,-0.000670,0.003409,0.002200,0.927987,0.024303,0.163135,0.334120,9.257104,16.650554,40.960122
19962,2.139968,4.374540,15.510244,3.820451,5.755765,4.903248,-0.163689,0.441922,0.540004,0.021624,0.043930,0.155019,0.999994,-0.000818,0.002210,0.002700,0.926728,0.023223,0.164817,0.336855,9.264538,16.848144,41.326277
19963,3.662781,3.100636,11.030734,4.258526,5.468227,0.019424,0.036811,0.250431,0.629010,0.036668,0.031101,0.110267,0.999994,0.000184,0.001252,0.003145,0.925441,0.023466,0.165943,0.339811,9.397781,16.929409,41.726913
19964,-0.061234,-0.522898,6.486854,2.385230,0.031413,-3.757446,-0.352067,0.609506,0.478442,-0.000402,-0.005116,0.064879,0.999991,-0.001760,0.003048,0.002392,0.924144,0.021176,0.168080,0.342430,9.293667,17.226951,42.073916
19965,-2.972844,-3.016028,6.927243,2.064166,-3.656845,-2.863798,-0.186558,0.904762,0.426512,-0.029350,-0.030158,0.069434,0.999987,-0.000933,0.004524,0.002133,0.922650,0.019100,0.171868,0.344694,9.286125,17.696880,42.419166
19966,-2.878315,-1.896547,9.420444,2.332760,-2.480181,-0.377006,0.149647,1.157746,0.235266,-0.028215,-0.019069,0.094355,0.999982,0.000748,0.005789,0.001176,0.921208,0.017975,0.177414,0.345800,9.447379,18.326907,42.677277
19967,-3.431230,-1.492466,11.256018,2.419949,-2.299898,1.569390,0.149238,1.081956,0.022385,-0.033701,-0.015013,0.112732,0.999985,0.000746,0.005410,0.000112,0.920171,0.016786,0.182625,0.345908,9.568638,18.933988,42.803388
19968,-4.850752,-2.127645,11.295367,1.955112,-3.631858,1.961351,0.328646,0.968499,-0.174906,-0.047979,-0.021420,0.113152,0.999987,0.001643,0.004842,-0.000875,0.919538,0.016442,0.187633,0.344925,9.752226,19.495291,42.802133
19969,-6.535733,-0.228549,10.865641,-0.458121,-3.270342,2.431675,0.615552,0.704795,-0.443425,-0.064979,-0.002476,0.108878,0.999987,0.003078,0.003524,-0.002217,0.919568,0.017613,0.191943,0.342408,10.036852,19.934558,42.614648
19970,-6.429900,1.354246,9.538922,-1.780855,-2.097773,1.438809,0.537883,0.467231,-0.615353,-0.064034,0.013483,0.095575,0.999989,0.002689,0.002336,-0.003077,0.920104,0.018675,0.195036,0.339146,10.232623,20.257533,42.299996
19971,-5.459459,4.248675,9.146363,-2.972643,0.734467,1.238839,0.581605,0.430210,-0.670844,-0.054255,0.042403,0.091704,0.999988,0.002908,0.002151,-0.003354,0.920746,0.019939,0.198037,0.335574,10.438315,20.566938,41.948359
19972,-5.110999,6.508930,9.707010,-3.833636,2.795253,2.028086,0.239823,0.287265,-0.530163,-0.050798,0.065108,0.097221,0.999995,0.001199,0.001436,-0.002651,0.921312,0.020015,0.199786,0.332969,10.471653,20.781302,41.665764
19973,-5.388273,5.923972,9.209055,-3.832530,2.158522,1.570899,-0.073476,0.165389,-0.217258,-0.053742,0.059332,0.092113,0.999999,-0.000367,0.000827,-0.001086,0.921505,0.019158,0.200424,0.332103,10.386521,20.895068,41.557800
19974,-4.687311,4.869243,8.764684,-2.876669,1.753476,0.730090,-0.278574,0.105225,0.072032,-0.046845,0.048798,0.087604,0.999999,-0.001393,0.000526,0.000360,0.921295,0.017751,0.200411,0.332770,10.243961,20.944388,41.617601
19975,-3.427956,2.751483,8.744801,-0.737028,0.907463,-0.095367,-0.431316,0.128879,0.223196,-0.034254,0.027665,0.087411,0.999997,-0.002157,0.000644,0.001116,0.920819,0.015750,0.200245,0.334286,10.047412,20.992692,41.771066
19976,-3.925503,1.065700,9.681760,0.286582,-0.584938,0.668602,-0.381908,0.162233,0.280629,-0.039192,0.010787,0.096829,0.999997,-0.001910,0.000811,0.001403,0.920204,0.013980,0.200303,0.336018,9.893062,21.053825,41.962755
19977,-4.225534,-0.120434,9.861854,0.867373,-1.647821,0.754154,-0.266586,0.057560,0.238813,-0.042226,-0.001123,0.098632,0.999998,-0.001333,0.000288,0.001194,0.919751,0.012873,0.200082,0.337432,9.791786,21.061095,42.118005
19978,-2.957381,-0.686932,9.228867,1.846137,-1.345584,-0.369642,-0.244049,-0.010910,0.052140,-0.029577,-0.006764,0.092295,0.999999,-0.001220,-0.000055,0.000261,0.919678,0.011800,0.199589,0.337961,9.660311,21.047328,42.153232
19979,-2.073442,-0.170426,8.477921,1.849531,-0.464378,-1.294064,-0.089485,0.068618,-0.147681,-0.020707,-0.001651,0.084787,1.000000,-0.000447,0.000343,-0.000738,0.919852,0.011101,0.199740,0.337421,9.576661,21.098406,42.075605
19980,-2.472227,1.311707,8.725026,0.754784,0.476605,-0.693386,-0.078559,0.196060,-0.250386,-0.024620,0.013182,0.087269,0.999999,-0.000393,0.000980,-0.001252,0.920071,0.010138,0.200495,0.336404,9.481514,21.230396,41.948652
19981,-4.259414,1.840435,9.493337,-0.509303,-0.118189,0.740978,0.043023,0.194255,-0.181338,-0.042485,0.018422,0.094979,0.999999,0.000215,0.000971,-0.000907,0.920167,0.009802,0.201447,0.335582,9.470553,21.355393,41.863074
19982,-4.068181,2.245062,9.301929,-0.689016,0.307389,0.557801,-0.065615,0.081510,-0.098077,-0.040633,0.022501,0.093028,1.000000,-0.000328,0.000408,-0.000490,0.920242,0.009244,0.201690,0.335247,9.411715,21.408143,41.816603
19983,-2.663695,1.398512,8.632461,0.554253,0.458000,-0.699317,-0.062757,0.123757,-0.094751,-0.026577,0.014025,0.086337,1.000000,-0.000314,0.000619,-0.000474,0.920267,0.008627,0.202136,0.334925,9.356500,21.485093,41.776236
19984,-4.258572,1.915151,9.240949,-0.631394,-0.044718,0.521610,0.013824,0.154405,-0.056227,-0.042509,0.019157,0.092444,1.000000,0.000069,0.000772,-0.000281,0.920194,0.008355,0.202845,0.334706,9.355030,21.575091,41.762366
19985,-3.674351,3.464074,8.471716,-1.454355,1.431866,-0.163583,0.058957,0.125024,0.067854,-0.036702,0.034603,0.084750,1.000000,0.000295,0.000625,0.000339,0.919939,0.008461,0.203493,0.335009,9.405897,21.637557,41.820946
19986,-2.593696,4.134287,7.940179,-1.311950,2.561996,-0.948096,-0.152003,0.225621,0.230996,-0.025895,0.041373,0.079400,0.999998,-0.000760,0.001128,0.001155,0.919317,0.007598,0.204239,0.336281,9.376620,21.740966,41.989017
19987,-3.417730,2.813821,8.243291,-0.947603,1.077290,-0.566511,-0.225680,0.340857,0.433396,-0.034098,0.028157,0.082459,0.999996,-0.001128,0.001704,0.002167,0.918233,0.006408,0.205387,0.338561,9.355600,21.891348,42.291964
19988,-3.271387,0.121458,8.556718,0.954372,-0.847776,-0.740504,-0.268358,0.348146,0.535387,-0.032568,0.001242,0.085622,0.999994,-0.001342,0.001741,0.002677,0.916961,0.005116,0.206486,0.341350,9.334489,22.035835,42.658115
19989,-1.658261,-1.673692,8.965818,3.352576,-1.125068,-1.243484,-0.231594,0.423751,0.341511,-0.016364,-0.016661,0.089712,0.999996,-0.001158,0.002119,0.001708,0.915931,0.003661,0.208001,0.343209,9.293873,22.241850,42.913821
19990,-4.081512,-2.188318,10.132882,2.515995,-2.851687,0.659187,0.062747,0.503863,0.046491,-0.040555,-0.021924,0.101424,0.999997,0.000314,0.002519,0.000232,0.915312,0.003111,0.210388,0.343412,9.357465,22.519882,42.997711
19991,-4.619429,-1.186457,9.827180,1.445910,-2.446187,0.734619,0.189244,0.334927,-0.156092,-0.046039,-0.011922,0.098338,0.999998,0.000946,0.001675,-0.000780,0.915211,0.003214,0.212224,0.342549,9.439489,22.721834,42.940869
19992,-3.456441,0.054446,9.053126,1.187706,-0.866386,-0.234189,0.363332,0.313202,-0.283843,-0.034422,0.000429,0.090586,0.999996,0.001817,0.001566,-0.001419,0.915344,0.004019,0.214256,0.340915,9.590241,22.923157,42.803914
19993,-4.461100,2.016640,9.312910,-0.567571,0.054141,0.693181,0.368851,0.344311,-0.329820,-0.044417,0.020068,0.093243,0.999995,0.001844,0.001722,-0.001649,0.915515,0.004742,0.216443,0.339061,9.733612,23.147360,42.642227
19994,-4.808519,2.605400,8.923519,-1.282085,0.251131,0.571542,0.240224,0.275901,-0.264021,-0.047928,0.026010,0.089333,0.999997,0.001201,0.001380,-0.001320,0.915645,0.005068,0.218092,0.337645,9.816390,23.326265,42.514078
19995,-4.574700,3.360224,8.871001,-1.575328,0.985868,0.553600,0.226853,0.275300,-0.188414,-0.045593,0.033545,0.088811,0.999998,0.001134,0.001376,-0.000942,0.915644,0.005412,0.219716,0.336588,9.909272,23.498189,42.432397
19996,-5.110421,3.495476,8.733517,-2.048915,0.755453,0.667782,0.029712,0.247224,-0.083014,-0.050982,0.034963,0.087403,0.999999,0.000149,0.001236,-0.000415,0.915500,0.005021,0.220873,0.336228,9.914144,23.643338,42.412766
19997,-4.002918,2.443368,8.651238,-0.673237,0.634081,-0.015648,-0.128662,0.238219,0.006500,-0.039927,0.024488,0.086544,0.999999,-0.000643,0.001191,0.000033,0.915217,0.004015,0.221724,0.336452,9.849759,23.775240,42.447164
19998,-4.503106,1.038682,9.270991,0.114838,-0.649657,0.525242,-0.143785,0.251857,0.001968,-0.044914,0.010453,0.092759,0.999999,-0.000719,0.001259,0.000010,0.914926,0.002915,0.222608,0.336672,9.776418,23.914674,42.480169
19999,-4.016100,0.833528,9.037437,0.484113,-0.518526,0.086597,-0.076745,0.201966,-0.050257,-0.040068,0.008380,0.090412,0.999999,-0.000384,0.001010,-0.000251,0.914775,0.002145,0.223381,0.336576,9.726021,24.031695,42.475386
20000,-3.854873,1.039614,9.056195,0.486780,-0.238539,0.069701,-0.000506,0.237843,-0.071560,-0.038437,0.010410,0.090608,0.999999,-0.000003,0.001189,-0.000358,0.914618,0.001643,0.224441,0.336299,9.715652,24.170377,42.461236
20001,-4.192220,0.953230,9.628653,0.563845,-0.409280,0.709139,-0.043228,0.228859,-0.070375,-0.041809,0.009568,0.096332,0.999999,-0.000216,0.001144,-0.000352,0.914468,0.000958,0.225393,0.336073,9.680392,24.304511,42.446702
20002,-4.035519,1.077096,9.296993,0.474598,-0.250215,0.365314,0.082289,0.243330,-0.064273,-0.040239,0.010746,0.093023,0.999999,0.000411,0.001217,-0.000321,0.914290,0.000833,0.226618,0.335735,9.719469,24.445583,42.437566
20003,-3.888569,2.295356,9.073265,-0.246767,0.766744,0.290031,-0.020017,0.262255,-0.085592,-0.038757,0.022979,0.090781,0.999999,-0.000100,0.001311,-0.000428,0.914124,0.000181,0.227760,0.335413,9.694944,24.600033,42.417114
20004,-3.130836,3.691633,8.685254,-0.738050,2.277600,-0.162213,-0.051481,0.305120,-0.092544,-0.031159,0.036953,0.086891,0.999999,-0.000257,0.001526,-0.000463,0.913920,-0.000691,0.229042,0.335096,9.652686,24.778724,42.396858
20005,-1.600427,3.310153,9.263921,0.768353,3.054178,-0.356476,-0.545854,0.404697,-0.195529,-0.015784,0.033370,0.092580,0.999994,-0.002729,0.002023,-0.000978,0.913765,-0.004110,0.229952,0.334870,9.303958,25.023917,42.322011
20006,-2.764319,1.809223,11.311336,1.759734,1.589939,1.730093,-0.536558,0.491090,-0.323731,-0.027336,0.018440,0.113132,0.999992,-0.002683,0.002455,-0.001619,0.913714,-0.007776,0.231262,0.334043,8.929222,25.328614,42.173895
20007,-1.288850,2.269342,11.839690,2.680267,3.021260,1.618707,-0.542708,0.363533,-0.492331,-0.012617,0.023046,0.118358,0.999992,-0.002714,0.001818,-0.002462,0.914076,-0.011453,0.231972,0.332451,8.498314,25.575146,41.905009
20008,0.646008,3.226508,12.237121,3.554901,5.096456,1.230977,-0.602952,0.541685,-0.633405,0.006894,0.032612,0.122255,0.999987,-0.003015,0.002708,-0.003167,0.914443,-0.015863,0.233380,0.330267,7.998955,25.931923,41.560732
20009,3.238547,5.246931,15.966869,5.613201,9.021086,3.606307,-0.699941,0.519521,-0.423911,0.032912,0.052958,0.159399,0.999988,-0.003500,0.002598,-0.002120,0.914459,-0.020435,0.234537,0.329149,7.497587,26.257240,41.342516
20010,4.516492,3.483411,14.376184,6.866603,8.216333,1.347402,-0.856055,0.415811,-0.403457,0.045534,0.035357,0.143517,0.999987,-0.004280,0.002079,-0.002017,0.914525,-0.025526,0.234960,0.328309,6.906111,26.520223,41.124970
20011,6.634436,5.592087,14.924873,7.231481,11.319386,1.032344,-0.370322,0.592051,-0.526688,0.066933,0.056021,0.148948,0.999990,-0.001852,0.002960,-0.002633,0.914628,-0.028826,0.236959,0.326306,6.561341,26.889453,40.839274
20012,8.794168,6.225011,16.058033,8.804337,13.385210,1.016293,-0.512309,0.470058,-0.576671,0.088498,0.062406,0.160213,0.999990,-0.002562,0.002350,-0.002883,0.914917,-0.032638,0.238162,0.324253,6.113430,27.191313,40.509157
20013,10.331291,5.737042,16.304346,10.267083,13.997552,0.392009,-0.313137,0.298625,-0.442024,0.103683,0.057397,0.162799,0.999995,-0.001566,0.001493,-0.002210,0.915214,-0.035091,0.238910,0.322604,5.811824,27.383825,40.251200
20014,10.297856,6.212612,16.000070,9.849830,14.310439,0.128979,-0.166867,0.060389,-0.330984,0.103130,0.062089,0.159918,0.999998,-0.000834,0.000302,-0.001655,0.915634,-0.036367,0.238834,0.321326,5.618265,27.434899,40.047765
20015,9.778649,4.684208,15.186680,10.091468,12.627635,-0.490450,-0.165996,-0.158260,-0.278384,0.097731,0.046832,0.151905,0.999998,-0.000830,-0.000791,-0.001392,0.916231,-0.037210,0.237747,0.320331,5.435319,27.354891,39.864799
20016,7.391520,3.648382,15.362991,9.162773,10.461524,0.702374,0.105894,-0.340154,-0.288432,0.073706,0.036296,0.153775,0.999997,0.000529,-0.001701,-0.001442,0.917104,-0.036542,0.236279,0.318995,5.399825,27.174256,39.664264
20017,5.917918,3.441894,14.852556,8.069820,9.283232,0.965315,0.284448,-0.636092,-0.345670,0.058765,0.034106,0.148762,0.999992,0.001422,-0.003180,-0.001728,0.918446,-0.034632,0.233698,0.317242,5.443958,26.824020,39.410137
20018,4.270674,2.187979,14.259592,7.433524,7.134083,1.151260,0.315852,-0.774951,-0.394007,0.042196,0.021571,0.142794,0.999989,0.001579,-0.003875,-0.001970,0.920010,-0.032432,0.230545,0.315243,5.489176,26.401312,39.116691
20019,2.290983,2.252307,13.603795,5.732994,5.818959,1.529946,0.547205,-0.955254,-0.359354,0.022300,0.022110,0.136206,0.999983,0.002736,-0.004776,-0.001797,0.921747,-0.028820,0.226893,0.313165,5.675246,25.869724,38.834982
20020,1.923818,1.911317,12.397691,5.159803,4.984567,0.655639,0.398845,-1.052792,-0.301218,0.018614,0.018837,0.124114,0.999983,0.001994,-0.005264,-0.001506,0.923444,-0.025695,0.222593,0.311518,5.790665,25.284535,38.582963
20021,0.838141,1.353083,12.085234,4.548278,3.758598,0.853659,0.389802,-0.994150,-0.236447,0.007796,0.013286,0.120918,0.999985,0.001949,-0.004971,-0.001182,0.924951,-0.022606,0.218514,0.310172,5.923224,24.724320,38.375958
20022,-1.658149,0.567003,12.237664,3.227826,1.639282,2.007794,0.360948,-1.035119,-0.151245,-0.017210,0.005462,0.122299,0.999985,0.001805,-0.005176,-0.000756,0.926332,-0.019517,0.214241,0.309238,6.060561,24.141265,38.218399
20023,-1.043998,0.695446,11.064390,3.064677,1.781405,0.743207,0.378059,-1.259733,-0.111489,-0.011133,0.006751,0.110588,0.999978,0.001890,-0.006299,-0.000557,0.927867,-0.015933,0.208910,0.308490,6.214227,23.422744,38.070443
20024,-0.740252,0.133009,10.721700,3.398551,1.343093,0.294989,0.205330,-1.171059,-0.133809,-0.008029,0.001225,0.107173,0.999982,0.001027,-0.005855,-0.000669,0.929286,-0.013335,0.203755,0.307790,6.265957,22.761803,37.913347
20025,-3.567636,-0.294359,11.184012,1.669218,-0.642680,1.793148,0.407874,-1.277338,-0.045998,-0.036390,-0.003163,0.111603,0.999977,0.002039,-0.006387,-0.000230,0.930660,-0.009517,0.198372,0.307295,6.454310,22.029437,37.803031
20026,-2.286305,0.958787,9.781014,1.279952,0.779069,0.165652,0.471591,-1.551682,0.094633,-0.023626,0.009346,0.097651,0.999967,0.002358,-0.007758,0.000473,0.932035,-0.004866,0.191849,0.307378,6.703058,21.137722,37.756388
20027,-2.871845,0.164220,8.500523,0.759194,-0.480571,-0.883829,0.356438,-1.452291,0.203193,-0.029336,0.001461,0.084796,0.999972,0.001782,-0.007261,0.001016,0.933093,-0.000775,0.185560,0.308065,6.912316,20.289684,37.780107
20028,-4.218442,0.729730,8.307811,-0.713327,-0.928376,-0.540410,0.437874,-1.399786,0.317599,-0.042776,0.007048,0.082796,0.999972,0.002189,-0.006999,0.001588,0.933868,0.003696,0.179674,0.309184,7.190268,19.469046,37.872344
20029,-5.643706,-0.147957,8.461709,-1.300856,-2.564071,-0.055373,0.302726,-1.426737,0.417727,-0.057035,-0.001726,0.084209,0.999971,0.001514,-0.007134,0.002089,0.934466,0.007692,0.173398,0.310882,7.408193,18.619829,38.019072
20030,-6.286306,-0.010017,7.655308,-2.206791,-3.025973,-0.642467,0.490225,-1.454399,0.481026,-0.063417,-0.000439,0.076092,0.999968,0.002451,-0.007272,0.002405,0.934919,0.012637,0.167315,0.312685,7.739954,17.755074,38.195848
20031,-7.128093,-0.195323,7.047944,-2.997165,-3.836388,-1.048055,0.263659,-1.341152,0.455593,-0.071747,-0.002209,0.069997,0.999974,0.001318,-0.006706,0.002278,0.935282,0.016346,0.161357,0.314555,7.937164,16.950468,38.362290
20032,-8.722028,-0.445264,6.506195,-4.280455,-5.125871,-1.210137,0.377567,-1.255019,0.434107,-0.087616,-0.004765,0.064504,0.999976,0.001888,-0.006275,0.002171,0.935548,0.020412,0.156016,0.316215,8.193825,16.201183,38.518724
20033,-9.101785,-0.232154,5.458410,-5.060785,-5.343386,-2.162470,0.319528,-1.132358,0.442158,-0.091319,-0.002610,0.054064,0.999980,0.001598,-0.005662,0.002211,0.935674,0.024039,0.151111,0.317965,8.419300,15.515229,38.687062
20034,-10.453012,-0.811936,5.019632,-5.900016,-6.725998,-2.391710,0.369741,-0.897775,0.426189,-0.104736,-0.008435,0.049711,0.999986,0.001849,-0.004489,0.002131,0.935607,0.027494,0.147418,0.319612,8.673052,14.967798,38.862817
20035,-12.804720,-0.770202,5.500637,-7.573570,-8.183970,-1.417860,0.551733,-0.821782,0.358642,-0.128257,-0.008083,0.054458,0.999986,0.002759,-0.004109,0.001793,0.935543,0.031646,0.144344,0.320817,9.021061,14.464136,39.002928
20036,-11.203600,-1.202705,4.854677,-6.327635,-7.647601,-2.600951,0.306985,-0.872534,0.222470,-0.112233,-0.012226,0.048039,0.999989,0.001535,-0.004363,0.001112,0.935746,0.034618,0.140690,0.321539,9.205609,13.947822,39.055731
20037,-11.897268,-1.918168,4.773193,-6.485476,-8.688252,-2.709175,0.438255,-0.640729,-0.004695,-0.119125,-0.019283,0.047308,0.999992,0.002191,-0.003204,-0.000023,0.936113,0.037685,0.138341,0.321145,9.438846,13.579898,38.996710
20038,-13.109641,-1.418371,5.339555,-7.580649,-9.052195,-1.876937,0.384219,-0.609018,-0.201003,-0.131272,-0.014154,0.052969,0.999993,0.001921,-0.003045,-0.001005,0.936768,0.040298,0.136116,0.319866,9.614892,13.252286,38.825194
20039,-12.157253,-1.112408,4.470418,-7.337444,-8.250299,-2.948667,0.468855,-0.587511,-0.334816,-0.121722,-0.011025,0.044321,0.999992,0.002344,-0.002938,-0.001674,0.937592,0.043192,0.134131,0.317906,9.823430,12.947551,38.577553
20040,-12.570399,-0.519246,3.939085,-8.199523,-8.023791,-3.317521,0.419557,-0.361784,-0.452308,-0.125786,-0.004990,0.039153,0.999994,0.002098,-0.001809,-0.002262,0.938447,0.045405,0.133171,0.315468,9.994082,12.785377,38.283696
20041,-13.517380,0.455020,3.345129,-9.697919,-7.788121,-3.534807,0.383131,-0.129001,-0.488440,-0.135184,0.004816,0.033373,0.999995,0.001916,-0.000645,-0.002442,0.939203,0.047064,0.133237,0.312938,10.145222,12.756972,37.992665
20042,-14.174337,0.947084,2.015965,-10.884807,-7.739914,-4.569848,0.207402,0.148708,-0.393302,-0.141709,0.009729,0.020275,0.999997,0.001037,0.000744,-0.001967,0.939659,0.047519,0.134323,0.311031,10.213734,12.878064,37.785222
20043,-17.003598,0.824524,0.058387,-13.552028,-9.474994,-5.766532,0.023500,0.664720,-0.288421,-0.170021,0.008490,0.001150,0.999993,0.000118,0.003324,-0.001442,0.939640,0.046382,0.137515,0.309862,10.202152,13.278513,37.692221
20044,-23.552022,-1.845353,-4.203833,-18.264993,-15.510714,-8.559385,-0.464395,1.569512,-0.071334,-0.235847,-0.018464,-0.040145,0.999966,-0.002322,0.007847,-0.000357,0.938739,0.041694,0.144153,0.310244,9.961476,14.168459,37.817445
20045,-28.227939,-4.424974,11.158926,-15.529671,-20.119209,7.359951,-1.793292,2.639045,0.814871,-0.280590,-0.044370,0.115697,0.999864,-0.008966,0.013195,0.004074,0.935809,0.029742,0.153544,0.315912,9.119999,15.580008,38.557742
20046,-10.663891,1.104399,17.055583,-3.371885,-4.888900,9.437149,0.129792,0.326096,1.799080,-0.106454,0.009975,0.170736,0.999958,0.000649,0.001630,0.008995,0.932648,0.031191,0.154973,0.324310,9.483538,15.595253,39.649859
20047,16.190963,4.833813,13.495219,13.133756,14.495119,-0.592540,-1.210529,0.362614,1.827045,0.161698,0.050630,0.134357,0.999938,-0.006053,0.001813,0.009135,0.929525,0.026345,0.154390,0.333847,9.085042,15.630255,40.761910
20048,5.616984,-1.386873,10.705868,8.236283,3.124884,-1.417206,-0.394039,1.655879,0.764198,0.057106,-0.013441,0.106615,0.999956,-0.001970,0.008279,0.003821,0.926971,0.022315,0.161293,0.337951,9.023766,16.495777,41.371942
20049,-2.415261,-1.537305,9.631531,2.306446,-2.031611,-0.246383,0.203517,1.360846,0.694108,-0.023443,-0.015553,0.096461,0.999970,0.001018,0.006804,0.003471,0.924639,0.021494,0.167837,0.341190,9.294001,17.200140,41.916531
20050,-8.081209,-5.118366,8.022266,0.125629,-8.429222,-0.604558,-0.462035,1.425153,0.421958,-0.080129,-0.051167,0.080913,0.999970,-0.002310,0.007126,0.002110,0.922734,0.017258,0.173559,0.343716,9.143474,17.964897,42.308821
20051,-4.313095,-5.030960,8.763000,3.086320,-5.802799,-1.009021,0.127453,1.207432,0.009219,-0.042599,-0.050368,0.087856,0.999982,0.000637,0.006037,0.000046,0.921631,0.015753,0.179321,0.343791,9.251740,18.645032,42.435477
20052,-5.980101,-0.786560,12.264693,0.592031,-3.237512,3.452597,0.705283,1.373112,-0.277880,-0.058968,-0.008217,0.123025,0.999969,0.003526,0.006865,-0.001389,0.920783,0.016371,0.186849,0.342021,9.643459,19.444691,42.410705
20053,-7.767143,3.231049,11.877287,-3.117274,-1.295768,4.344964,0.955979,0.899225,-0.376545,-0.077076,0.031887,0.119273,0.999977,0.004780,0.004496,-0.001883,0.920476,0.018854,0.192627,0.339505,10.143469,19.987436,42.283629
20054,-6.809339,5.279411,9.918164,-4.307343,0.717307,2.578469,0.381141,0.616314,-0.077605,-0.067767,0.052631,0.099491,0.999993,0.001906,0.003082,-0.000388,0.919961,0.019466,0.196089,0.338883,10.366203,20.340231,42.308741
20055,-6.018722,5.513481,8.980455,-4.182290,1.320362,1.502649,0.156281,0.528609,0.184059,-0.060000,0.055009,0.090006,0.999996,0.000781,0.002643,0.000920,0.919101,0.019443,0.198744,0.339671,10.511913,20.617257,42.482679
20056,-6.315624,5.461943,9.412738,-4.149728,1.141589,2.010849,-0.065741,0.383659,0.312322,-0.063061,0.054552,0.094230,0.999997,-0.000329,0.001918,0.001562,0.918182,0.018779,0.200337,0.341254,10.553324,20.798041,42.718477
20057,-4.885165,4.439918,9.097892,-2.641107,1.240552,1.042492,-0.315001,0.268724,0.399063,-0.048818,0.044445,0.090975,0.999996,-0.001575,0.001344,0.001995,0.917246,0.017249,0.200975,0.343470,10.466425,20.906137,42.993773
20058,-3.801754,2.386696,9.278393,-0.563515,0.402169,0.471224,-0.537529,0.181638,0.434157,-0.037985,0.024034,0.092754,0.999994,-0.002688,0.000908,0.002171,0.916347,0.014887,0.200818,0.346061,10.256613,20.961161,43.280576
20059,-2.490592,-0.119922,9.455345,1.951379,-0.604685,-0.249883,-0.614139,0.185254,0.371019,-0.024816,-0.000955,0.094580,0.999993,-0.003071,0.000926,0.001855,0.915547,0.012101,0.200556,0.348433,9.989611,21.026770,43.529421
20060,-2.259877,-2.215873,9.245304,3.346503,-2.019584,-0.856416,-0.447131,0.230782,0.186802,-0.022471,-0.021973,0.092528,0.999996,-0.002236,0.001154,0.000934,0.915002,0.009819,0.200794,0.349795,9.780248,21.136089,43.671554
20061,-3.302264,-2.408645,9.944687,3.034473,-2.711353,0.139385,-0.124078,0.311811,-0.088007,-0.032878,-0.024010,0.099513,0.999998,-0.000620,0.001559,-0.000440,0.914835,0.008592,0.201987,0.349576,9.698832,21.319134,43.655387
20062,-3.368211,-0.469118,9.610937,1.645429,-1.309938,0.162864,0.134447,0.182450,-0.288152,-0.033601,-0.004707,0.096137,0.999998,0.000672,0.000912,-0.001441,0.915136,0.008577,0.203041,0.348176,9.716502,21.447454,43.504371
20063,-2.876974,0.637932,8.951004,1.041315,-0.227641,-0.449557,0.110435,0.204366,-0.375151,-0.028666,0.006384,0.089543,0.999998,0.000552,0.001022,-0.001876,0.915563,0.008319,0.204163,0.346400,9.701051,21.597526,43.302561
20064,-3.602207,1.942254,8.991183,-0.231796,0.320404,0.058134,0.276730,0.287151,-0.358243,-0.035858,0.019362,0.089990,0.999996,0.001384,0.001436,-0.001791,0.915864,0.008702,0.205943,0.344535,9.787686,21.791858,43.119639
20065,-4.027243,2.662952,8.794942,-1.016959,0.589825,0.151189,0.182031,0.216072,-0.279994,-0.040140,0.026606,0.088017,0.999998,0.000910,0.001080,-0.001400,0.916103,0.008848,0.207237,0.343119,9.834058,21.939551,42.976750
20066,-3.115975,2.106271,8.228430,-0.246465,0.686672,-0.794904,0.064077,0.266040,-0.253459,-0.031024,0.021076,0.082332,0.999998,0.000320,0.001330,-0.001267,0.916246,0.008403,0.208549,0.341949,9.820922,22.111963,42.855295
20067,-3.584478,2.178511,8.913731,-0.319791,0.557048,0.017690,0.066790,0.347731,-0.212593,-0.035667,0.021793,0.089207,0.999998,0.000334,0.001739,-0.001063,0.916231,0.007866,0.210243,0.340965,9.821187,22.327415,42.767084
20068,-4.298088,2.109954,9.288824,-0.588242,0.126086,0.620227,0.100033,0.275325,-0.149350,-0.042837,0.021085,0.092958,0.999999,0.000500,0.001377,-0.000747,0.916180,0.007678,0.211654,0.340232,9.852392,22.494896,42.709882
20069,-3.444807,1.838101,9.018930,0.076311,0.435279,0.005207,0.023381,0.260705,-0.124650,-0.034319,0.018392,0.090236,0.999999,0.000117,0.001304,-0.000623,0.916103,0.007184,0.212871,0.339691,9.844372,22.652641,42.666089
20070,-4.132888,1.698511,8.961166,-0.305092,-0.092272,0.195636,0.079115,0.281408,-0.104990,-0.041194,0.016971,0.089676,0.999999,0.000396,0.001407,-0.000525,0.915967,0.006936,0.214271,0.339183,9.874012,22.819224,42.636620
20071,-3.904482,2.253164,8.666267,-0.587318,0.455026,-0.072366,0.043058,0.269014,-0.086289,-0.038918,0.022530,0.086720,0.999999,0.000215,0.001345,-0.000431,0.915811,0.006559,0.215558,0.338796,9.886541,22.977901,42.617211
20072,-3.408517,3.174773,8.389075,-0.910185,1.455963,-0.372062,-0.000037,0.304657,-0.081425,-0.033944,0.031762,0.083943,0.999999,-0.000000,0.001523,-0.000407,0.915608,0.005935,0.216928,0.338479,9.877312,23.155301,42.604685
20073,-3.538444,3.095358,8.105484,-1.045322,1.298607,-0.591975,-0.133584,0.336191,0.019119,-0.035251,0.031004,0.081093,0.999998,-0.000668,0.001681,0.000096,0.915202,0.004751,0.218220,0.338766,9.816946,23.341548,42.657064
20074,-2.289194,2.457612,7.960671,0.146926,1.594513,-1.322200,-0.262421,0.445799,0.108839,-0.022728,0.024668,0.079625,0.999997,-0.001312,0.002229,0.000544,0.914524,0.002894,0.219785,0.339607,9.709706,23.580135,42.776167
20075,-4.511381,1.157648,9.453991,0.082269,-0.526779,0.712806,-0.311938,0.605046,0.077077,-0.044832,0.011707,0.094658,0.999994,-0.001560,0.003025,0.000385,0.913715,0.000501,0.221999,0.340354,9.573213,23.912808,42.891988
20076,-6.370957,-0.219195,9.962481,-0.077698,-2.611411,1.722581,-0.285195,0.368174,-0.019806,-0.063526,-0.002043,0.099745,0.999997,-0.001426,0.001841,-0.000099,0.913327,-0.001470,0.223168,0.340628,9.418030,24.120196,42.922756
20077,-4.687805,-0.630262,9.151167,0.985403,-1.967224,0.250888,-0.145441,0.246567,-0.087968,-0.046768,-0.006215,0.091574,0.999999,-0.000727,0.001233,-0.000440,0.913188,-0.002676,0.224025,0.340431,9.320192,24.266176,42.898289
20078,-4.629064,1.186827,9.287661,-0.033455,-0.493499,0.620562,0.137979,0.263038,-0.074040,-0.046164,0.011821,0.092946,0.999999,0.000690,0.001315,-0.000370,0.913009,-0.002596,0.225433,0.339982,9.389130,24.419246,42.884177
20079,-4.662802,1.701156,8.980603,-0.480197,-0.153690,0.435855,-0.015363,0.218766,-0.042077,-0.046526,0.017028,0.089856,0.999999,-0.000077,0.001094,-0.000210,0.912821,-0.003111,0.226385,0.339850,9.376243,24.545255,42.885325
20080,-4.157977,-0.241093,8.795259,1.002589,-1.348502,-0.227292,-0.022603,0.217279,-0.007841,-0.041484,-0.002399,0.087998,0.999999,-0.000113,0.001086,-0.000039,0.912577,-0.003611,0.227311,0.339883,9.368308,24.666284,42.907699
20081,-3.582806,-0.240287,9.178947,1.565717,-0.922649,-0.125351,0.241715,0.244397,-0.058022,-0.035717,-0.002503,0.091830,0.999998,0.001209,0.001222,-0.000290,0.912388,-0.003015,0.228815,0.339385,9.499678,24.808291,42.901691
20082,-4.040753,0.519336,9.032093,0.761265,-0.645572,0.045290,0.315199,0.253985,-0.118824,-0.040290,0.005075,0.090380,0.999998,0.001576,0.001270,-0.000594,0.912291,-0.002163,0.230480,0.338525,9.658151,24.960566,42.859336
20083,-4.392546,0.755336,9.105767,0.448376,-0.672040,0.293112,0.361805,0.239019,-0.125331,-0.043812,0.007416,0.091124,0.999997,0.001809,0.001195,-0.000627,0.912218,-0.001087,0.232160,0.337578,9.840562,25.106064,42.811628
20084,-3.828278,0.548891,9.034277,0.958625,-0.502405,-0.045208,0.428222,0.246664,-0.172308,-0.038167,0.005328,0.090401,0.999997,0.002141,0.001233,-0.000862,0.912211,0.000230,0.233980,0.336340,10.049474,25.259742,42.736092
20085,-3.657998,-0.377692,9.815132,2.010813,-0.996631,0.425655,0.327648,0.273704,-0.252731,-0.036450,-0.003892,0.098195,0.999997,0.001638,0.001369,-0.001264,0.912301,0.000943,0.235757,0.334850,10.180005,25.437880,42.613614
20086,-4.961226,0.948408,10.129392,0.526875,-0.733450,1.470116,0.871309,0.305985,-0.239206,-0.049446,0.009102,0.101410,0.999989,0.004357,0.001530,-0.001196,0.912316,0.004104,0.238584,0.332777,10.627783,25.632451,42.504245
20087,-3.576382,4.663295,9.321910,-1.078519,2.853001,0.776529,0.685415,0.264499,-0.175093,-0.035600,0.046344,0.093425,0.999993,0.003427,0.001322,-0.000875,0.912260,0.006555,0.240911,0.331210,10.983921,25.798357,42.431153
20088,-2.732309,5.955027,9.415021,-1.183803,4.386694,0.719436,0.331616,0.435896,-0.208281,-0.027056,0.059422,0.094308,0.999996,0.001658,0.002179,-0.001041,0.912056,0.007076,0.243428,0.329921,11.138124,26.063699,42.359123
20089,-0.790043,5.895696,10.531880,0.685404,5.728650,0.818210,-0.342976,0.515291,-0.478269,-0.007488,0.059156,0.105237,0.999992,-0.001715,0.002576,-0.002391,0.912212,0.004055,0.245205,0.328219,10.834270,26.403860,42.126762
20090,0.072138,3.991246,13.008770,3.525541,5.244472,2.238342,-0.743963,0.701130,-0.801575,0.001338,0.040391,0.129934,0.999979,-0.003720,0.003506,-0.004008,0.912654,-0.001490,0.247166,0.325530,10.216222,26.880093,41.708662
20091,3.732938,4.551383,15.937017,6.952298,8.488889,3.158041,-0.902618,0.606300,-0.935885,0.038027,0.046055,0.159049,0.999974,-0.004513,0.003031,-0.004679,0.913387,-0.007774,0.248427,0.322409,9.456895,27.311824,41.186814
20092,8.212927,4.053759,15.026315,9.833399,10.692855,0.119083,-0.909359,0.607154,-0.799685,0.082748,0.040889,0.149827,0.999977,-0.004547,0.003036,-0.003998,0.913856,-0.013918,0.249671,0.319904,8.726849,27.725220,40.743743
20093,7.832164,7.767063,15.380559,7.614485,13.591920,0.934611,-0.207976,1.148459,-1.010256,0.079594,0.077430,0.153270,0.999970,-0.001040,0.005742,-0.005051,0.913987,-0.017984,0.254480,0.315507,8.352349,28.459010,40.210813
20094,5.349373,7.616490,18.108274,7.372775,12.732639,4.260391,-0.856167,0.924249,-0.987137,0.054706,0.076670,0.180504,0.999968,-0.004281,0.004621,-0.004936,0.914252,-0.024628,0.257231,0.312041,7.592895,29.059477,39.660871
20095,10.268785,7.399852,17.809288,10.728171,15.361617,1.425723,-0.441691,0.325658,-0.905758,0.103312,0.073924,0.177762,0.999986,-0.002208,0.001628,-0.004529,0.915171,-0.028332,0.257881,0.308475,7.064256,29.307017,39.104037
20096,14.206108,7.277845,18.491879,13.830941,17.590433,-0.014155,-0.379205,0.016153,-0.827510,0.142376,0.072540,0.184770,0.999990,-0.001896,0.000081,-0.004138,0.916353,-0.031178,0.257225,0.305221,6.581292,29.370204,38.570550
20097,11.913745,7.967840,18.916642,12.137786,16.934879,1.551508,0.388935,-0.392812,-0.564034,0.118989,0.078974,0.189554,0.999992,0.001945,-0.001964,-0.002820,0.917767,-0.029527,0.255886,0.302250,6.608741,29.178789,38.178616
20098,12.900455,8.459768,17.306325,11.856169,17.422217,-0.148732,0.223450,-0.965625,-0.272483,0.128282,0.084229,0.173778,0.999987,0.001117,-0.004828,-0.001362,0.919425,-0.027410,0.251725,0.300901,6.614185,28.644868,37.933960
20099,10.755005,6.206877,15.526119,10.849956,13.950905,-0.707622,0.440033,-1.061912,-0.030187,0.106733,0.061710,0.155965,0.999983,0.002200,-0.005310,-0.000151,0.920848,-0.023826,0.247444,0.300405,6.818100,28.036383,37.839500
20100,7.656074,5.870088,15.143660,8.684454,11.796775,0.570737,0.543769,-1.194063,0.167315,0.075605,0.058352,0.152049,0.999978,0.002719,-0.005970,0.000837,0.922109,-0.019341,0.242753,0.300687,7.134105,27.343316,37.858321
20101,4.972640,4.438728,14.673479,7.347108,8.936712,1.407445,0.521762,-1.264320,0.343644,0.048721,0.044088,0.147160,0.999975,0.002609,-0.006322,0.001718,0.923151,-0.014612,0.237676,0.301810,7.485091,26.592456,37.979960
20102,3.042987,3.871656,13.798656,5.845376,7.119123,1.580201,0.438245,-1.391563,0.474540,0.029377,0.038484,0.138278,0.999971,0.002191,-0.006958,0.002373,0.924084,-0.009945,0.231917,0.303620,7.814436,25.763656,38.167063
20103,2.226337,2.667046,12.920287,5.471554,5.414882,1.129965,0.200480,-1.334690,0.553165,0.021327,0.026601,0.129374,0.999973,0.001002,-0.006673,0.002766,0.924774,-0.006343,0.226010,0.306060,8.027622,24.954574,38.403681
20104,-0.085084,1.889018,12.407988,3.948163,3.297417,1.635917,0.095527,-1.244676,0.593349,-0.001679,0.018827,0.124080,0.999976,0.000478,-0.006223,0.002967,0.925243,-0.003347,0.220389,0.308775,8.188066,24.198175,38.668184
20105,-0.962714,1.006722,12.628055,3.795238,2.020146,2.142269,-0.165603,-1.252216,0.602307,-0.010448,0.010141,0.126208,0.999976,-0.000828,-0.006261,0.003012,0.925665,-0.001508,0.214276,0.311815,8.198082,23.430458,38.935529
20106,-4.626960,-1.184249,12.943027,2.439107,-1.925562,3.628783,0.013426,-1.419067,0.723519,-0.047143,-0.012021,0.129097,0.999968,0.000067,-0.007095,0.003618,0.926017,0.001521,0.207702,0.315197,8.327928,22.563809,39.259191
20107,-3.284048,0.052086,11.355244,1.933813,-0.521274,1.836916,0.464010,-1.882513,0.755944,-0.033908,0.000131,0.113237,0.999946,0.002320,-0.009412,0.003780,0.926723,0.007428,0.199629,0.318241,8.701169,21.424420,39.554504
20108,-2.050178,-0.488082,9.267500,2.230038,-0.619286,-0.594830,0.193915,-1.839776,0.698471,-0.021336,-0.005044,0.092476,0.999951,0.000970,-0.009199,0.003492,0.927385,0.011929,0.191350,0.321247,8.899012,20.319001,39.810010
20109,-2.886916,-0.229118,8.542905,1.107909,-1.124387,-0.931584,0.462972,-1.734435,0.657049,-0.029600,-0.002585,0.085169,0.999954,0.002315,-0.008672,0.003285,0.927914,0.017495,0.183931,0.323788,9.240144,19.269687,40.044022
20110,-4.014195,0.138922,7.762968,-0.286423,-1.721244,-1.248228,0.423978,-1.657819,0.658368,-0.040788,0.001092,0.077296,0.999958,0.002120,-0.008289,0.003292,0.928286,0.022728,0.176833,0.326340,9.554067,18.268448,40.278029
20111,-6.355557,0.253533,7.031367,-2.378608,-3.256800,-1.231859,0.537209,-1.584773,0.617989,-0.064117,0.002150,0.069813,0.999960,0.002686,-0.007924,0.003090,0.928575,0.028356,0.170204,0.328596,9.922648,17.305017,40.488473
20112,-7.382734,-0.340649,5.738911,-3.269409,-4.556042,-2.322206,0.267113,-1.566281,0.557115,-0.074264,-0.003689,0.056804,0.999965,0.001336,-0.007831,0.002786,0.928911,0.032620,0.163258,0.330767,10.120605,16.363166,40.658391
20113,-8.535918,-1.368817,3.655859,-4.217959,-6.267009,-4.241991,0.368363,-1.355761,0.476189,-0.085571,-0.013958,0.035953,0.999972,0.001842,-0.006779,0.002381,0.929138,0.036962,0.157417,0.332502,10.366723,15.541924,40.799065
20114,-10.073792,-0.344548,2.195414,-6.454031,-6.554503,-5.143350,0.427227,-1.032000,0.315731,-0.100844,-0.003651,0.021426,0.999983,0.002136,-0.005160,0.001579,0.929320,0.040887,0.153243,0.333480,10.627523,14.924950,40.876381
20115,-14.463036,-2.352271,3.504763,-8.050323,-10.903559,-3.232455,-0.000955,-0.726833,0.384920,-0.144711,-0.023801,0.034522,0.999992,-0.000005,-0.003634,0.001925,0.929219,0.042387,0.149717,0.335171,10.661214,14.467163,41.025928
20116,-19.487819,-3.329769,2.304561,-11.486925,-14.967067,-3.471985,0.896757,-1.039997,0.672744,-0.194880,-0.034053,0.021881,0.999971,0.004484,-0.005200,0.003364,0.928643,0.048775,0.146212,0.337439,11.238647,13.806265,41.304027
20117,-13.789974,-1.528409,-0.171442,-9.163705,-10.045869,-7.049792,0.197436,-0.954307,0.675459,-0.137837,-0.015748,-0.002388,0.999982,0.000987,-0.004772,0.003377,0.928128,0.051788,0.141886,0.340243,11.414268,13.187362,41.588677
20118,-19.108438,-4.656838,-0.673631,-11.217276,-15.930257,-7.043093,-0.185866,-0.459434,0.477308,-0.190956,-0.047031,-0.007132,0.999994,-0.000929,-0.002297,0.002387,0.927674,0.052021,0.139284,0.342513,11.354513,12.872633,41.815052
20119,-20.201595,-2.541542,-0.890097,-13.347751,-15.080438,-6.686432,0.059349,-0.281326,0.298139,-0.201965,-0.025714,-0.009193,0.999998,0.000297,-0.001407,0.001491,0.927332,0.052973,0.137950,0.343829,11.416175,12.675200,41.958873
20120,-22.007918,-3.783617,-10.098840,-16.561732,-17.200244,-15.336358,-0.261735,0.263681,-0.112135,-0.220233,-0.037845,-0.100649,0.999998,-0.001309,0.001318,-0.000561,0.927400,0.051205,0.138723,0.343603,11.255373,12.833274,41.929256
20121,-30.052940,-6.934616,-23.472825,-24.596066,-25.077008,-26.189808,-0.799487,3.833045,-1.396686,-0.305429,-0.068147,-0.228632,0.999784,-0.003997,0.019164,-0.006983,0.927136,0.039916,0.155408,0.338635,10.702616,15.137427,41.555408
20122,-79.883702,-5.077557,27.308042,-44.955473,-53.485293,37.828332,0.871253,5.189562,-0.920607,-0.791624,-0.048369,0.293471,0.999643,0.004356,0.025945,-0.004602,0.924148,0.034416,0.181037,0.334650,11.213106,18.154214,41.609450
20123,10.295371,11.210795,18.466790,6.761308,16.160970,6.488966,-0.897581,-2.534514,2.456100,0.099213,0.114173,0.185432,0.999834,-0.004488,-0.012672,0.012280,0.922322,0.036697,0.167357,0.346362,11.038474,16.456859,42.766660
20124,21.462615,3.548888,7.124283,15.132760,17.145474,-8.819250,-1.356902,2.612365,0.831541,0.215379,0.036853,0.068186,0.999883,-0.006784,0.013061,0.004158,0.918827,0.026585,0.176853,0.351815,10.488709,17.835692,43.553642
20125,-11.375535,-0.110055,11.457304,-3.724422,-6.507285,4.485933,0.095130,2.744493,-1.402447,-0.112173,-0.000365,0.116119,0.999881,0.000476,0.013722,-0.007012,0.918734,0.020928,0.189770,0.345656,10.369485,19.525585,43.024589
20126,-10.310295,3.064024,10.267845,-5.205270,-3.318943,3.715252,0.175999,1.423639,0.356161,-0.102423,0.030367,0.103436,0.999973,0.000880,0.007118,0.001781,0.916713,0.019592,0.196543,0.347310,10.594042,20.287918,43.400555
20127,-7.908320,-0.166190,11.167664,-1.076766,-4.030114,3.221211,-0.928206,1.025805,0.396185,-0.078506,-0.001298,0.112087,0.999974,-0.004641,0.005129,0.001981,0.915072,0.013921,0.199569,0.350174,10.183053,20.823441,43.756895
20128,-5.920509,-2.552905,9.972019,1.398091,-4.551464,1.065668,-0.689610,1.052111,0.193042,-0.058655,-0.025241,0.100117,0.999980,-0.003448,0.005261,0.000965,0.913702,0.009096,0.203130,0.351857,9.867919,21.395212,43.990930
20129,-4.804811,0.341745,11.254927,0.855967,-1.390702,2.320266,-0.006847,0.931936,-0.020821,-0.047523,0.003426,0.112771,0.999989,-0.000034,0.004660,-0.000104,0.912770,0.007378,0.207354,0.351852,9.892977,21.921864,44.081594
20130,-6.298449,1.284544,11.481900,-0.585755,-1.542063,3.242304,-0.184194,0.676861,-0.000489,-0.062595,0.012951,0.115019,0.999994,-0.000921,0.003384,-0.000002,0.912059,0.005326,0.210091,0.352110,9.811810,22.301434,44.157759
20131,-6.027789,-0.104595,9.833274,-0.105491,-2.585635,1.427487,-0.065776,0.519797,0.111579,-0.060021,-0.001047,0.098489,0.999996,-0.000329,0.002599,0.000558,0.911303,0.004202,0.212322,0.352745,9.818373,22.582620,44.285587
20132,-5.789043,-0.096194,10.086091,0.190408,-2.359452,1.573621,0.061725,0.420199,0.075635,-0.057678,-0.001015,0.100982,0.999998,0.000309,0.002101,0.000378,0.910708,0.003803,0.214316,0.353079,9.886398,22.809840,44.381378
20133,-4.941391,0.497110,9.923890,0.342087,-1.372536,1.193996,0.140744,0.290263,-0.083924,-0.049268,0.004922,0.099314,0.999999,0.000704,0.001451,-0.000420,0.910529,0.003815,0.215869,0.352595,9.956317,22.980659,44.365799
20134,-5.410656,1.545985,9.395817,-0.820386,-0.951974,1.066987,0.204906,0.183898,-0.207196,-0.054004,0.015420,0.094024,0.999999,0.001025,0.000919,-0.001036,0.910679,0.004180,0.217044,0.351480,10.029371,23.102446,44.263481
20135,-3.862659,2.358856,8.415985,-0.692121,0.521365,-0.296266,0.115816,0.103863,-0.243114,-0.038554,0.023587,0.084194,0.999999,0.000579,0.000519,-0.001216,0.910977,0.004234,0.217707,0.350294,10.038686,23.184071,44.130314
20136,-1.953368,2.545656,8.069475,0.321838,1.849414,-1.333980,-0.037424,0.216973,-0.215892,-0.019419,0.025493,0.080711,0.999999,-0.000187,0.001085,-0.001079,0.911108,0.003429,0.218607,0.349402,9.971799,23.325406,44.026104
20137,-2.126386,2.581651,9.248018,0.673180,1.968644,-0.201060,-0.101748,0.399696,-0.213902,-0.021051,0.025886,0.092509,0.999997,-0.000509,0.001998,-0.001070,0.911031,0.002006,0.220234,0.348590,9.875505,23.570820,43.942283
20138,-5.568039,2.509652,9.837529,-1.288101,-0.157920,1.693577,0.125725,0.306716,-0.099554,-0.055517,0.025062,0.098476,0.999999,0.000629,0.001534,-0.000498,0.910853,0.001915,0.221824,0.348047,9.933827,23.751173,43.918828
20139,-4.390218,2.714853,8.659874,-1.099758,0.583500,0.191707,-0.081938,0.142016,0.013448,-0.043843,0.027181,0.086619,1.000000,-0.000410,0.000710,0.000067,0.910660,0.001284,0.222310,0.348246,9.893742,23.828678,43.947202
20140,-3.478334,1.821077,8.463576,-0.005063,0.468378,-0.494543,-0.069091,0.201729,0.083021,-0.034706,0.018226,0.084664,0.999999,-0.000345,0.001009,0.000415,0.910280,0.000691,0.223080,0.348748,9.881372,23.931802,44.025054
20141,-3.305637,1.496797,8.626233,0.391650,0.372967,-0.469936,-0.105168,0.252650,0.135131,-0.032957,0.014991,0.086296,0.999999,-0.000526,0.001263,0.000676,0.909749,-0.000103,0.224028,0.349526,9.863536,24.059816,44.140502
20142,-3.847063,0.541133,9.113012,0.860834,-0.600478,0.038101,-0.017996,0.297566,0.122693,-0.038338,0.005396,0.091187,0.999999,-0.000090,0.001488,0.000613,0.909189,-0.000587,0.225323,0.350151,9.895072,24.213147,44.253356
20143,-3.952913,-0.029634,8.932255,1.104026,-1.114492,-0.171600,0.067915,0.234939,0.041378,-0.039424,-0.000335,0.089369,0.999999,0.000340,0.001175,0.000207,0.908838,-0.000668,0.226491,0.350306,9.952395,24.340296,44.309217
20144,-4.547201,-0.695745,8.988179,1.190085,-1.980072,0.016422,0.203976,0.263765,-0.019394,-0.045354,-0.007045,0.089934,0.999999,0.001020,0.001319,-0.000097,0.908562,-0.000244,0.228019,0.350033,10.073955,24.488470,44.330969
20145,-3.631011,1.992841,8.682761,-0.010345,0.574985,-0.209821,0.566188,0.200889,-0.053615,-0.036218,0.019692,0.086920,0.999995,0.002831,0.001004,-0.000268,0.908411,0.001889,0.229903,0.349187,10.391191,24.605820,44.324983
20146,-3.772282,3.194840,8.862424,-0.744643,1.415149,0.208410,0.237208,0.309833,-0.044222,-0.037578,0.031852,0.088720,0.999998,0.001186,0.001549,-0.000221,0.908116,0.002355,0.231697,0.348763,10.528211,24.782373,44.337932
20147,-5.008167,2.570409,8.822644,-1.136267,0.159490,0.589772,0.122354,0.249212,0.007870,-0.049973,0.025648,0.088304,0.999999,0.000612,0.001246,0.000039,0.907799,0.002460,0.233023,0.348704,10.609893,24.920473,44.376454
20148,-3.093387,2.413026,7.777594,-0.217617,1.100316,-1.174133,0.015265,0.258624,-0.016866,-0.030831,0.024127,0.077818,0.999999,0.000076,0.001293,-0.000084,0.907515,0.002040,0.234196,0.348660,10.624710,25.065268,44.401003
20149,-2.938977,3.389167,7.034413,-1.032045,1.839045,-1.740532,-0.046392,0.430501,-0.090703,-0.029223,0.033921,0.070399,0.999998,-0.000232,0.002153,-0.000454,0.907155,0.000948,0.236050,0.348352,10.592955,25.315832,44.399531
20150,-3.159204,3.604576,7.905762,-0.922507,2.049999,-0.844926,-0.454878,0.558487,-0.175945,-0.031339,0.036253,0.079063,0.999993,-0.002274,0.002792,-0.000880,0.906787,-0.002315,0.237763,0.348138,10.310569,25.646183,44.358950
20151,-6.126755,1.215324,10.038773,-0.405999,-1.184221,1.944139,-0.663956,0.565050,-0.257991,-0.060968,0.012566,0.100519,0.999990,-0.003320,0.002825,-0.001290,0.906535,-0.006639,0.239145,0.347793,9.884912,25.989377,44.265209
20152,-6.998525,-1.081738,9.996443,0.456317,-3.394986,1.949276,-0.498016,0.190072,-0.264608,-0.069904,-0.010476,0.100057,0.999996,-0.002490,0.000950,-0.001323,0.906736,-0.009561,0.239104,0.347229,9.533381,26.119730,44.124306
20153,-4.125213,-0.331791,9.189193,1.476237,-1.134504,0.091974,-0.053718,0.156450,-0.248561,-0.041184,-0.003242,0.091925,0.999999,-0.000269,0.000782,-0.001243,0.906964,-0.010398,0.239690,0.346203,9.438456,26.230296,43.989134
20154,-5.119968,1.981733,9.147762,-0.635259,0.013449,0.837152,0.168123,0.206467,-0.191334,-0.051086,0.019789,0.091547,0.999999,0.000841,0.001032,-0.000957,0.907044,-0.010241,0.240881,0.345171,9.488882,26.362468,43.895231
20155,-3.814140,1.195342,8.865365,0.593822,0.196029,-0.108046,-0.230353,0.204314,-0.125248,-0.038043,0.012079,0.088679,0.999999,-0.001152,0.001022,-0.000626,0.906988,-0.011814,0.241385,0.344915,9.328835,26.488372,43.842434
20156,-3.567491,-0.713697,9.228620,2.120769,-1.006986,-0.174637,-0.087560,0.300557,-0.105697,-0.035540,-0.007078,0.092343,0.999999,-0.000438,0.001503,-0.000528,0.906790,-0.012876,0.242564,0.344570,9.260636,26.665572,43.811746
20157,-3.799344,-2.418097,11.429704,4.014220,-1.994916,1.625254,-0.127794,0.374011,-0.077017,-0.037789,-0.024093,0.114383,0.999998,-0.000639,0.001870,-0.000385,0.906446,-0.014218,0.244016,0.344397,9.180323,26.882813,43.806318
20158,-4.391342,-0.500125,9.930551,1.831223,-1.190316,0.835256,0.974635,0.413648,-0.011091,-0.043708,-0.005483,0.099370,0.999986,0.004873,0.002068,-0.000055,0.906006,-0.010545,0.247538,0.343172,9.753408,27.115092,43.848081
20159,-1.507497,5.364578,10.674211,0.450500,5.177714,1.049017,0.975684,0.730016,0.018566,-0.014690,0.053123,0.107056,0.999981,0.004878,0.003650,0.000093,0.905093,-0.007381,0.252496,0.342049,10.352936,27.523591,43.946894
20160,-0.930158,7.193403,13.734222,1.157402,7.552730,3.709664,-0.363495,0.954080,-0.085895,-0.008616,0.072187,0.137253,0.999987,-0.001817,0.004770,-0.000429,0.903999,-0.010784,0.256159,0.342128,10.168521,28.067661,44.007269
20161,4.224990,4.480506,17.192404,7.647345,9.521387,3.765039,-1.797607,0.869335,-0.095668,0.043017,0.046326,0.171326,0.999950,-0.008988,0.004347,-0.000478,0.902895,-0.020541,0.256974,0.343980,9.152252,28.566104,44.045811
20162,9.085020,0.787245,19.643746,13.972032,10.552121,2.932936,-2.337721,0.837976,-0.353984,0.091688,0.010003,0.195946,0.999921,-0.011688,0.004190,-0.001770,0.902105,-0.033006,0.256654,0.345321,7.739453,29.068340,43.902510
20163,12.973194,4.466012,22.109698,15.156014,16.461745,3.468386,0.055446,0.577110,-1.477869,0.130694,0.043636,0.220733,0.999968,0.000277,0.002886,-0.007389,0.903885,-0.035668,0.259073,0.338527,7.322599,29.504596,42.994911
20164,17.655282,14.684621,24.718008,13.228904,27.553659,4.473275,1.073847,-0.248008,-1.568678,0.177383,0.144126,0.248178,0.999954,0.005369,-0.001240,-0.007843,0.907000,-0.032443,0.259453,0.330124,7.421740,29.476625,41.955203
20165,23.556541,16.543507,21.972103,15.068015,31.581341,-0.488825,0.031233,-0.943737,-1.167720,0.235485,0.164026,0.220858,0.999972,0.000156,-0.004719,-0.005839,0.910123,-0.032269,0.254990,0.324983,7.028272,29.020233,41.121970
