// General information: 
//  MT Manager version: 2022.0.0 
//  XDA version: 2022.0.0 build 7085 rev 119802 built on 2022-11-08
// Device information: 
//  DeviceId: 00B472EC
//  ProductCode: MTW2-3A7G6
//  Firmware Version: 4.4.0
//  Hardware Version: 2.0.0
// Device settings: 
//  Filter Profile: human(46.1)
//  Option Flags: Orientation Smoother Disabled, Position/Velocity Smoother Disabled, Continuous Zero Rotation Update Disabled, AHS Disabled, ICC Disabled
// Coordinate system: ENU
PacketCounter,Acc_X,Acc_Y,Acc_Z,FreeAcc_E,FreeAcc_N,FreeAcc_U,Gyr_X,Gyr_Y,Gyr_Z,VelInc_X,VelInc_Y,VelInc_Z,OriInc_q0,OriInc_q1,OriInc_q2,OriInc_q3,Quat_q0,Quat_q1,Quat_q2,Quat_q3,Roll,Pitch,Yaw
19631,-9.510483,1.129015,-1.700197,0.087692,-0.094352,-0.086535,-0.158077,0.025837,-0.072618,-0.095103,0.011311,-0.016999,1.000000,-0.000790,0.000129,-0.000363,0.597245,-0.184506,0.744449,0.234630,143.847747,77.374232,178.544643
19632,-9.479606,1.091258,-1.629374,0.156530,-0.082657,-0.133984,-0.157970,0.013562,-0.067231,-0.094793,0.010932,-0.016296,1.000000,-0.000790,0.000068,-0.000336,0.597139,-0.185204,0.744230,0.235045,143.885476,77.390417,178.676834
19633,-9.462421,0.955909,-1.700086,0.169503,-0.232223,-0.155627,-0.170985,0.023397,-0.067167,-0.094623,0.009576,-0.016998,1.000000,-0.000855,0.000117,-0.000336,0.596978,-0.185953,0.744027,0.235506,143.929923,77.401175,178.824275
19634,-9.623760,0.811152,-1.815362,0.192095,-0.415347,0.003668,-0.156579,0.029976,-0.064658,-0.096238,0.008128,-0.018146,1.000000,-0.000783,0.000150,-0.000323,0.596808,-0.186657,0.743859,0.235909,143.988293,77.408865,178.977072
19635,-9.573943,0.847217,-1.701672,0.251008,-0.317785,-0.060259,-0.124359,0.019815,-0.065664,-0.095738,0.008493,-0.017013,1.000000,-0.000622,0.000099,-0.000328,0.596701,-0.187257,0.743700,0.236204,144.051251,77.420715,179.116096
19636,-9.483809,0.838038,-1.812575,0.146460,-0.386119,-0.129722,-0.123310,0.022606,-0.062490,-0.094838,0.008399,-0.018120,1.000000,-0.000617,0.000113,-0.000312,0.596585,-0.187854,0.743548,0.236503,144.113406,77.431077,179.254463
19637,-9.477438,0.979764,-1.695585,0.157630,-0.200296,-0.138401,-0.079849,0.017735,-0.057190,-0.094773,0.009818,-0.016951,1.000000,-0.000399,0.000089,-0.000286,0.596517,-0.188287,0.743444,0.236659,144.181432,77.440982,179.372541
19638,-9.432377,1.201779,-1.674539,0.038035,-0.004054,-0.157812,-0.062825,0.014130,-0.054091,-0.094322,0.012038,-0.016743,1.000000,-0.000314,0.000071,-0.000270,0.596478,-0.188662,0.743346,0.236767,144.248411,77.452364,179.480363
19639,-9.414839,1.213859,-1.574292,0.105905,0.065751,-0.191071,-0.042368,0.011441,-0.039605,-0.094147,0.012154,-0.015740,1.000000,-0.000212,0.000057,-0.000198,0.596447,-0.188910,0.743283,0.236842,144.291971,77.459257,179.551367
19640,-9.470287,1.241609,-1.670347,0.024373,0.034582,-0.116493,-0.054473,0.012959,-0.043184,-0.094701,0.012432,-0.016701,1.000000,-0.000272,0.000065,-0.000216,0.596409,-0.189215,0.743202,0.236949,144.339466,77.467499,179.633825
19641,-9.429721,1.246336,-1.567169,0.093872,0.100013,-0.173694,-0.057591,0.015565,-0.045934,-0.094296,0.012481,-0.015668,1.000000,-0.000288,0.000078,-0.000230,0.596356,-0.189537,0.743128,0.237058,144.393899,77.474559,179.724898
19642,-9.439879,1.248167,-1.678772,0.004501,0.038564,-0.143872,-0.089017,0.009443,-0.047029,-0.094397,0.012496,-0.016789,1.000000,-0.000445,0.000047,-0.000235,0.596303,-0.189951,0.742993,0.237282,144.424654,77.485701,179.809774
19643,-9.422896,1.045400,-1.716283,0.084169,-0.147391,-0.179378,-0.084374,0.012521,-0.041812,-0.094228,0.010466,-0.017161,1.000000,-0.000422,0.000063,-0.000209,0.596231,-0.190334,0.742881,0.237505,144.450685,77.492781,179.887465
19644,-9.458638,1.012387,-1.918592,-0.051218,-0.290539,-0.112959,-0.085353,0.017630,-0.040098,-0.094586,0.010135,-0.019182,1.000000,-0.000427,0.000088,-0.000200,0.596141,-0.190729,0.742779,0.237735,144.481209,77.497794,179.971316
19645,-9.481431,0.969716,-1.844565,0.036202,-0.280742,-0.109070,-0.052606,0.018277,-0.043449,-0.094814,0.009713,-0.018440,1.000000,-0.000263,0.000091,-0.000217,0.596080,-0.191030,0.742720,0.237830,144.537633,77.502713,-179.938507
19646,-9.440728,0.974820,-1.741606,0.105555,-0.215231,-0.166272,-0.034064,0.010235,-0.028721,-0.094407,0.009759,-0.017413,1.000000,-0.000170,0.000051,-0.000144,0.596053,-0.191215,0.742670,0.237905,144.562906,77.507354,-179.891140
19647,-9.508597,1.016884,-1.707522,0.123041,-0.160297,-0.100723,-0.024415,0.011334,-0.023922,-0.095086,0.010178,-0.017071,1.000000,-0.000122,0.000057,-0.000120,0.596022,-0.191352,0.742642,0.237961,144.584007,77.509007,-179.853690
19648,-9.528034,1.134816,-1.658015,0.099149,-0.034602,-0.075684,-0.026513,0.012008,-0.026414,-0.095280,0.011359,-0.016576,1.000000,-0.000133,0.000060,-0.000132,0.595994,-0.191504,0.742609,0.238009,144.611622,77.512030,-179.808918
19649,-9.454031,1.244293,-1.552717,0.104106,0.116650,-0.152799,-0.035097,0.012153,-0.028985,-0.094539,0.012454,-0.015524,1.000000,-0.000175,0.000061,-0.000145,0.595955,-0.191692,0.742567,0.238089,144.638531,77.514973,-179.759251
19650,-9.429787,1.256578,-1.506647,0.127955,0.154201,-0.183061,-0.068458,0.016232,-0.026652,-0.094297,0.012573,-0.015063,1.000000,-0.000342,0.000081,-0.000133,0.595872,-0.191977,0.742495,0.238289,144.648895,77.516093,-179.707396
19651,-9.493906,1.196856,-1.558214,0.134953,0.075804,-0.118835,-0.088274,0.018135,-0.022206,-0.094939,0.011972,-0.015579,1.000000,-0.000441,0.000091,-0.000111,0.595752,-0.192305,0.742414,0.238580,144.639999,77.513989,-179.663196
19652,-9.489785,1.151862,-1.700782,0.046704,-0.043745,-0.103342,-0.085611,0.019670,-0.029835,-0.094898,0.011525,-0.017003,1.000000,-0.000428,0.000098,-0.000149,0.595643,-0.192657,0.742329,0.238832,144.652342,77.514579,-179.599227
19653,-9.452069,1.162717,-1.762978,-0.017061,-0.070933,-0.127839,-0.063562,0.012570,-0.028131,-0.094520,0.011635,-0.017628,1.000000,-0.000318,0.000063,-0.000141,0.595574,-0.192927,0.742254,0.239019,144.661783,77.517038,-179.550748
19654,-9.406633,1.135673,-1.779616,-0.024882,-0.102266,-0.172644,-0.044896,0.014816,-0.022458,-0.094066,0.011363,-0.017792,1.000000,-0.000224,0.000074,-0.000112,0.595512,-0.193126,0.742210,0.239148,144.674587,77.517442,-179.509750
19655,-9.454277,1.069014,-1.774574,0.027627,-0.152683,-0.135333,-0.024409,0.014495,-0.021954,-0.094543,0.010698,-0.017740,1.000000,-0.000122,0.000072,-0.000110,0.595466,-0.193259,0.742194,0.239206,144.696305,77.516950,-179.471673
19656,-9.506270,1.152284,-1.761211,0.001609,-0.076403,-0.076520,-0.024470,0.011295,-0.023952,-0.095062,0.011532,-0.017608,1.000000,-0.000122,0.000056,-0.000120,0.595438,-0.193404,0.742160,0.239262,144.718663,77.519489,-179.432224
19657,-9.466144,1.205616,-1.735517,-0.017764,-0.017508,-0.113574,-0.023509,0.006159,-0.025702,-0.094660,0.012066,-0.017354,1.000000,-0.000118,0.000031,-0.000129,0.595428,-0.193538,0.742117,0.239314,144.736368,77.524130,-179.398786
19658,-9.394069,1.235205,-1.617012,0.042630,0.075968,-0.201163,-0.030201,0.003037,-0.018405,-0.093940,0.012358,-0.016171,1.000000,-0.000151,0.000015,-0.000092,0.595420,-0.193663,0.742059,0.239410,144.731544,77.528670,-179.384763
19659,-9.456830,1.196926,-1.624786,0.071833,0.040551,-0.143283,-0.050319,0.017082,-0.019327,-0.094569,0.011974,-0.016243,1.000000,-0.000252,0.000085,-0.000097,0.595336,-0.193866,0.742022,0.239570,144.736761,77.526091,-179.348384
19660,-9.505934,1.157198,-1.741591,0.013129,-0.059535,-0.079686,-0.065594,0.021137,-0.025689,-0.095060,0.011578,-0.017410,1.000000,-0.000328,0.000106,-0.000128,0.595234,-0.194149,0.741968,0.239762,144.754007,77.524590,-179.290330
19661,-9.489593,1.149171,-1.685561,0.058813,-0.032690,-0.106527,-0.066062,0.018242,-0.024986,-0.094896,0.011498,-0.016851,1.000000,-0.000330,0.000091,-0.000125,0.595138,-0.194422,0.741910,0.239962,144.763889,77.523336,-179.239935
19662,-9.520829,1.075829,-1.623696,0.156687,-0.055065,-0.096083,-0.067103,0.020156,-0.025245,-0.095209,0.010765,-0.016231,1.000000,-0.000336,0.000101,-0.000126,0.595037,-0.194706,0.741851,0.240161,144.777883,77.522128,-179.184491
19663,-9.516553,0.972280,-1.711342,0.146376,-0.189548,-0.097676,-0.053752,0.019336,-0.028776,-0.095166,0.009732,-0.017107,1.000000,-0.000269,0.000097,-0.000144,0.594953,-0.194957,0.741807,0.240303,144.804456,77.521608,-179.124222
19664,-9.468964,1.035774,-1.718447,0.094077,-0.141401,-0.134964,-0.038664,0.019763,-0.026093,-0.094690,0.010367,-0.017177,1.000000,-0.000193,0.000099,-0.000130,0.594883,-0.195157,0.741781,0.240393,144.836030,77.520844,-179.067750
19665,-9.452287,0.979169,-1.585073,0.228635,-0.107874,-0.181849,-0.025263,0.015080,-0.016552,-0.094523,0.009798,-0.015845,1.000000,-0.000126,0.000075,-0.000083,0.594827,-0.195273,0.741770,0.240470,144.846700,77.518273,-179.040486
19666,-9.482954,1.023725,-1.634876,0.170958,-0.100522,-0.137569,-0.012613,0.019704,-0.011638,-0.094831,0.010242,-0.016340,1.000000,-0.000063,0.000099,-0.000058,0.594767,-0.195338,0.741791,0.240502,144.862661,77.512777,-179.015945
19667,-9.397046,1.052656,-1.626169,0.143731,-0.071703,-0.219399,-0.008615,0.021251,-0.011321,-0.093972,0.010531,-0.016252,1.000000,-0.000043,0.000106,-0.000057,0.594699,-0.195392,0.741824,0.240527,144.880958,77.505587,-178.990639
19668,-9.378534,1.194608,-1.615679,0.067005,0.049510,-0.221678,-0.009962,0.012623,-0.009188,-0.093786,0.011950,-0.016151,1.000000,-0.000050,0.000063,-0.000046,0.594662,-0.195440,0.741826,0.240571,144.882544,77.502630,-178.981089
19669,-9.516193,1.141763,-1.480004,0.235207,0.087466,-0.117896,0.001663,0.019183,-0.004515,-0.095163,0.011420,-0.014791,1.000000,0.000008,0.000096,-0.000023,0.594603,-0.195436,0.741872,0.240579,144.889238,77.494165,-178.973698
19670,-9.503289,1.119139,-1.634189,0.125282,-0.021421,-0.106020,-0.003340,0.021158,-0.004082,-0.095034,0.011193,-0.016332,1.000000,-0.000017,0.000106,-0.000020,0.594535,-0.195456,0.741912,0.240606,144.896418,77.485536,-178.962132
19671,-9.414937,1.004134,-1.800429,0.043173,-0.211961,-0.177125,0.003426,0.029083,-0.008363,-0.094152,0.010046,-0.017990,1.000000,0.000017,0.000145,-0.000042,0.594445,-0.195473,0.741986,0.240587,144.926903,77.473696,-178.931406
19672,-9.481623,1.067544,-1.724410,0.082735,-0.114120,-0.117609,0.039424,0.027372,-0.008815,-0.094818,0.010683,-0.017229,1.000000,0.000197,0.000137,-0.000044,0.594402,-0.195389,0.742092,0.240433,144.977807,77.463681,-178.900602
19673,-9.509405,1.164862,-1.665740,0.080693,0.000758,-0.088806,0.039597,0.022875,-0.005145,-0.095096,0.011654,-0.016644,1.000000,0.000198,0.000114,-0.000026,0.594367,-0.195279,0.742194,0.240295,145.012926,77.453687,-178.886357
19674,-9.440914,1.120555,-1.702976,0.063397,-0.056277,-0.154559,0.044371,0.016718,0.000807,-0.094411,0.011209,-0.017019,1.000000,0.000222,0.000084,0.000004,0.594356,-0.195133,0.742284,0.240164,145.030480,77.445488,-178.892206
19675,-9.410862,1.159957,-1.833712,-0.067551,-0.100778,-0.155689,0.042240,0.015787,-0.002695,-0.094110,0.011605,-0.018327,1.000000,0.000211,0.000079,-0.000013,0.594347,-0.194998,0.742370,0.240031,145.051448,77.438015,-178.894009
19676,-9.408974,1.191065,-1.770187,-0.034225,-0.037324,-0.164971,0.016610,0.027288,-0.003509,-0.094092,0.011914,-0.017688,1.000000,0.000083,0.000136,-0.000018,0.594275,-0.194961,0.742454,0.239977,145.077837,77.426260,-178.874991
19677,-9.507798,1.220553,-1.730916,0.003360,0.010955,-0.071850,0.017634,0.025353,-0.003262,-0.095080,0.012209,-0.017296,1.000000,0.000088,0.000127,-0.000016,0.594207,-0.194912,0.742538,0.239924,145.099931,77.414479,-178.861196
19678,-9.493795,1.159947,-1.786074,-0.006588,-0.069731,-0.083208,0.000041,0.025895,-0.005758,-0.094940,0.011602,-0.017848,1.000000,0.000000,0.000129,-0.000029,0.594126,-0.194936,0.742595,0.239931,145.119336,77.404130,-178.838831
19679,-9.471863,1.120032,-1.851058,-0.038074,-0.139766,-0.097952,-0.005474,0.020214,-0.007613,-0.094720,0.011203,-0.018501,1.000000,-0.000027,0.000101,-0.000038,0.594060,-0.194966,0.742632,0.239955,145.129753,77.396188,-178.823433
19680,-9.464459,1.070883,-1.829174,0.006950,-0.166555,-0.115221,0.015421,0.012585,0.001315,-0.094646,0.010710,-0.018285,1.000000,0.000077,0.000063,0.000007,0.594036,-0.194899,0.742675,0.239936,145.123692,77.389792,-178.836658
19681,-9.440231,1.084388,-1.783406,0.030942,-0.128943,-0.145381,0.030843,0.007924,-0.001683,-0.094403,0.010847,-0.017829,1.000000,0.000154,0.000040,-0.000008,0.594043,-0.194784,0.742725,0.239856,145.124448,77.385684,-178.852481
19682,-9.414340,1.236887,-1.805015,-0.078569,-0.018563,-0.147738,0.018543,0.009981,0.004062,-0.094145,0.012369,-0.018044,1.000000,0.000093,0.000050,0.000020,0.594030,-0.194689,0.742769,0.239830,145.110796,77.379575,-178.876256
19683,-9.465850,1.284400,-1.692082,-0.004458,0.085721,-0.111771,0.009081,0.005947,0.003887,-0.094659,0.012843,-0.016917,1.000000,0.000045,0.000030,0.000019,0.594017,-0.194616,0.742792,0.239849,145.084526,77.374569,-178.906998
19684,-9.467515,1.241974,-1.781136,-0.048808,-0.001523,-0.099480,-0.013173,0.020611,0.000409,-0.094677,0.012418,-0.017802,1.000000,-0.000066,0.000103,0.000002,0.593936,-0.194647,0.742824,0.239926,145.075828,77.364690,-178.906079
19685,-9.552904,1.211904,-1.793300,-0.021198,-0.032878,-0.017735,-0.013930,0.012650,-0.008546,-0.095530,0.012122,-0.017928,1.000000,-0.000070,0.000063,-0.000043,0.593891,-0.194697,0.742828,0.239987,145.072274,77.360610,-178.900032
19686,-9.458735,1.272593,-1.771675,-0.059187,0.028388,-0.105901,-0.026519,0.011215,-0.011477,-0.094588,0.012729,-0.017713,1.000000,-0.000133,0.000056,-0.000057,0.593845,-0.194804,0.742803,0.240090,145.066989,77.359047,-178.887170
19687,-9.375363,1.200771,-1.793319,-0.053041,-0.043536,-0.192366,-0.040826,0.003076,-0.008552,-0.093753,0.012008,-0.017934,1.000000,-0.000204,0.000015,-0.000043,0.593809,-0.194922,0.742746,0.240260,145.034030,77.359466,-178.895464
19688,-9.449115,1.068525,-1.944682,-0.079921,-0.240517,-0.109849,-0.048695,0.009541,-0.003208,-0.094492,0.010682,-0.019445,1.000000,-0.000243,0.000048,-0.000016,0.593737,-0.195061,0.742699,0.240471,144.996273,77.355894,-178.903162
19689,-9.418012,1.082138,-1.951936,-0.099810,-0.235240,-0.137217,-0.019692,0.001207,-0.005012,-0.094180,0.010822,-0.019520,1.000000,-0.000098,0.000006,-0.000025,0.593725,-0.195101,0.742665,0.240574,144.965277,77.356024,-178.921853
19690,-9.425499,1.072319,-1.919726,-0.066984,-0.225523,-0.136949,-0.021951,0.002492,0.001877,-0.094255,0.010720,-0.019197,1.000000,-0.000110,0.000012,0.000009,0.593702,-0.195124,0.742636,0.240700,144.922223,77.354087,-178.952060
19691,-9.525213,1.043940,-1.821993,0.048387,-0.192201,-0.060771,-0.009889,-0.005317,0.001529,-0.095252,0.010438,-0.018223,1.000000,-0.000049,-0.000027,0.000008,0.593715,-0.195102,0.742601,0.240793,144.873602,77.355114,-178.994572
19692,-9.454641,1.005733,-1.668402,0.175430,-0.134690,-0.161968,0.021868,-0.014330,0.006192,-0.094546,0.010056,-0.016690,1.000000,0.000109,-0.000072,0.000031,0.593791,-0.194965,0.742577,0.240790,144.821875,77.359626,-179.058500
19693,-9.533993,1.221096,-1.526122,0.180638,0.121876,-0.082854,0.047269,-0.007291,0.005668,-0.095340,0.012212,-0.015262,1.000000,0.000236,-0.000036,0.000028,0.593862,-0.194756,0.742609,0.240685,144.794428,77.360196,-179.112873
19694,-9.451444,1.443442,-1.418310,0.119240,0.363700,-0.154612,0.021034,-0.009835,-0.001452,-0.094514,0.014437,-0.014186,1.000000,0.000105,-0.000049,-0.000007,0.593930,-0.194653,0.742591,0.240656,144.764788,77.365106,-179.154002
19695,-9.452930,1.411246,-1.484042,0.086140,0.297922,-0.145439,-0.040345,0.009131,-0.007268,-0.094529,0.014113,-0.014839,1.000000,-0.000202,0.000046,-0.000036,0.593871,-0.194772,0.742554,0.240822,144.738343,77.362258,-179.155903
19696,-9.551136,1.205566,-1.627122,0.113233,0.047226,-0.050000,-0.056296,0.011577,-0.018637,-0.095511,0.012060,-0.016269,1.000000,-0.000281,0.000058,-0.000093,0.593805,-0.194987,0.742490,0.241008,144.731676,77.362850,-179.128297
19697,-9.478992,1.038256,-1.792735,0.063399,-0.186045,-0.111939,-0.056307,0.011564,-0.018645,-0.094790,0.010386,-0.017925,1.000000,-0.000282,0.000058,-0.000093,0.593735,-0.195198,0.742429,0.241197,144.723417,77.362628,-179.102187
19698,-9.381434,0.917063,-1.845088,0.070522,-0.315791,-0.213106,-0.022245,-0.001004,-0.006804,-0.093814,0.009172,-0.018452,1.000000,-0.000111,-0.000005,-0.000034,0.593732,-0.195261,0.742378,0.241310,144.692814,77.365154,-179.117872
19699,-9.447738,0.794695,-2.028492,0.011010,-0.523759,-0.131178,0.013583,-0.003671,0.001189,-0.094477,0.007948,-0.020286,1.000000,0.000068,-0.000018,0.000006,0.593763,-0.195173,0.742376,0.241313,144.660728,77.365489,-179.157219
19700,-9.459772,0.944876,-1.965355,-0.023461,-0.365960,-0.111748,0.063227,-0.004254,0.004976,-0.094598,0.009453,-0.019653,1.000000,0.000316,-0.000021,0.000025,0.593846,-0.194918,0.742434,0.241133,144.650304,77.365648,-179.204931
19701,-9.492860,1.096686,-1.740144,0.073847,-0.111133,-0.100458,0.078509,-0.006706,0.012367,-0.094929,0.010968,-0.017400,1.000000,0.000393,-0.000034,0.000062,0.593938,-0.194592,0.742512,0.240932,144.627632,77.363689,-179.272754
19702,-9.435949,1.166493,-1.612365,0.122008,0.019267,-0.169955,0.065055,-0.010718,0.012849,-0.094359,0.011664,-0.016125,1.000000,0.000325,-0.000054,0.000064,0.594035,-0.194300,0.742560,0.240779,144.592205,77.364172,-179.346316
19703,-9.479362,1.293528,-1.564330,0.096668,0.148952,-0.120056,0.045421,-0.004736,0.010833,-0.094794,0.012934,-0.015643,1.000000,0.000227,-0.000024,0.000054,0.594089,-0.194080,0.742602,0.240694,144.556706,77.361786,-179.407857
19704,-9.462399,1.356398,-1.541214,0.075534,0.212313,-0.132741,0.026622,0.002213,0.004393,-0.094624,0.013564,-0.015409,1.000000,0.000133,0.000011,0.000022,0.594108,-0.193959,0.742631,0.240655,144.535718,77.359026,-179.442466
19705,-9.450007,1.264570,-1.660179,0.032451,0.067011,-0.135269,0.009704,0.004337,0.006852,-0.094501,0.012643,-0.016599,1.000000,0.000049,0.000022,0.000034,0.594098,-0.193871,0.742653,0.240682,144.501529,77.353717,-179.481693
19706,-9.467316,1.239385,-1.783994,-0.046267,-0.026902,-0.099504,0.008877,0.008832,-0.000794,-0.094674,0.012395,-0.017835,1.000000,0.000044,0.000044,-0.000004,0.594083,-0.193827,0.742676,0.240685,144.491027,77.349625,-179.495606
19707,-9.459263,1.259730,-1.794889,-0.067774,-0.017379,-0.102831,0.007340,0.003106,-0.003323,-0.094593,0.012600,-0.017947,1.000000,0.000037,0.000016,-0.000017,0.594088,-0.193783,0.742682,0.240691,144.474835,77.348272,-179.515000
19708,-9.444084,1.182848,-1.704348,0.044437,-0.026620,-0.143563,0.035766,0.001148,-0.005103,-0.094441,0.011834,-0.017041,1.000000,0.000179,0.000006,-0.000026,0.594134,-0.193661,0.742711,0.240585,144.477418,77.349204,-179.531901
19709,-9.416042,1.178799,-1.921247,-0.130886,-0.157281,-0.132773,0.048257,-0.003808,-0.006171,-0.094160,0.011796,-0.019211,1.000000,0.000241,-0.000019,-0.000031,0.594207,-0.193498,0.742742,0.240438,144.480329,77.352022,-179.555744
19710,-9.435621,1.317865,-1.826988,-0.132565,0.011322,-0.112796,0.072091,-0.002531,-0.009253,-0.094355,0.013190,-0.018266,1.000000,0.000360,-0.000013,-0.000046,0.594307,-0.193278,0.742801,0.240187,144.506998,77.356077,-179.569566
19711,-9.424159,1.422015,-1.662125,-0.065324,0.193163,-0.140150,0.061531,-0.009433,-0.012676,-0.094240,0.014231,-0.016621,1.000000,0.000308,-0.000047,-0.000063,0.594422,-0.193092,0.742825,0.239977,144.522694,77.363687,-179.588099
19712,-9.400412,1.434291,-1.615234,-0.041477,0.230950,-0.170133,0.043190,-0.005049,-0.007757,-0.094003,0.014350,-0.016152,1.000000,0.000216,-0.000025,-0.000039,0.594501,-0.192952,0.742842,0.239842,144.525802,77.368379,-179.608780
19713,-9.403362,1.320410,-1.668818,-0.019000,0.107318,-0.172159,0.020959,-0.007628,-0.015526,-0.094032,0.013213,-0.016690,1.000000,0.000105,-0.000038,-0.000078,0.594573,-0.192899,0.742821,0.239772,144.526858,77.376095,-179.618494
19714,-9.449867,1.333191,-1.674548,-0.022156,0.114531,-0.124144,-0.002253,-0.005081,-0.021555,-0.094497,0.013342,-0.016748,1.000000,-0.000011,-0.000025,-0.000108,0.594623,-0.192948,0.742769,0.239768,144.532358,77.385308,-179.609511
19715,-9.496252,1.297915,-1.602394,0.063666,0.128471,-0.096182,-0.025467,-0.002539,-0.027584,-0.094961,0.012990,-0.016027,1.000000,-0.000127,-0.000013,-0.000138,0.594646,-0.193084,0.742695,0.239829,144.539519,77.394657,-179.585711
19716,-9.434614,1.322433,-1.616073,0.023559,0.140436,-0.150794,-0.053080,-0.001228,-0.031219,-0.094344,0.013235,-0.016165,1.000000,-0.000265,-0.000006,-0.000156,0.594647,-0.193319,0.742586,0.239977,144.541956,77.405343,-179.550924
19717,-9.478104,1.083298,-1.662294,0.132293,-0.079830,-0.130366,-0.050231,0.013097,-0.030866,-0.094780,0.010843,-0.016619,1.000000,-0.000251,0.000065,-0.000154,0.594592,-0.193560,0.742526,0.240105,144.565088,77.408484,-179.496222
19718,-9.520406,0.972144,-1.798856,0.096466,-0.249018,-0.078842,-0.029598,0.005164,-0.028613,-0.095203,0.009732,-0.017988,1.000000,-0.000148,0.000026,-0.000143,0.594585,-0.193732,0.742464,0.240175,144.584860,77.415317,-179.456029
19719,-9.387932,1.006748,-1.738459,0.094584,-0.184928,-0.214463,-0.004063,0.006125,-0.026479,-0.093879,0.010080,-0.017382,1.000000,-0.000020,0.000031,-0.000132,0.594596,-0.193810,0.742442,0.240152,144.614958,77.420248,-179.421296
19720,-9.454451,1.149483,-1.672193,0.078602,-0.029591,-0.143296,-0.005748,0.001031,-0.019613,-0.094543,0.011504,-0.016722,1.000000,-0.000029,0.000005,-0.000098,0.594617,-0.193871,0.742406,0.240162,144.623626,77.426055,-179.406771
19721,-9.469328,1.186453,-1.663938,0.066579,0.005633,-0.125579,-0.024928,0.009881,-0.022342,-0.094693,0.011873,-0.016636,1.000000,-0.000125,0.000049,-0.000112,0.594588,-0.194002,0.742374,0.240225,144.638724,77.427855,-179.375158
19722,-9.469178,1.243560,-1.720460,-0.011142,0.019243,-0.108499,-0.046025,0.014912,-0.023890,-0.094692,0.012443,-0.017200,1.000000,-0.000230,0.000075,-0.000119,0.594526,-0.194212,0.742327,0.240356,144.653987,77.428608,-179.330641
19723,-9.518013,1.085663,-1.725715,0.085897,-0.110840,-0.079771,-0.032039,0.012508,-0.024426,-0.095180,0.010865,-0.017253,1.000000,-0.000160,0.000063,-0.000122,0.594483,-0.194375,0.742293,0.240437,144.673292,77.429866,-179.290543
19724,-9.433637,1.034050,-1.703699,0.114067,-0.139243,-0.172513,-0.017857,0.005637,-0.021272,-0.094336,0.010349,-0.017035,1.000000,-0.000089,0.000028,-0.000106,0.594478,-0.194481,0.742255,0.240480,144.685423,77.434036,-179.265757
19725,-9.401903,1.067441,-1.667114,0.116349,-0.090752,-0.205778,-0.015547,0.002093,-0.014086,-0.094018,0.010680,-0.016671,1.000000,-0.000078,0.000010,-0.000070,0.594477,-0.194543,0.742220,0.240541,144.677032,77.436737,-179.263717
19726,-9.409160,1.173958,-1.746120,-0.006349,-0.051582,-0.171282,-0.010353,-0.004354,-0.010826,-0.094091,0.011744,-0.017464,1.000000,-0.000052,-0.000022,-0.000054,0.594504,-0.194578,0.742170,0.240598,144.656710,77.442130,-179.276329
19727,-9.439029,1.191793,-1.672847,0.047193,0.005299,-0.152884,-0.024945,0.002828,-0.011269,-0.094390,0.011921,-0.016729,1.000000,-0.000125,0.000014,-0.000056,0.594488,-0.194658,0.742129,0.240701,144.638113,77.443553,-179.279229
19728,-9.588964,0.963441,-1.668246,0.214957,-0.176749,-0.036080,-0.034879,0.013147,-0.006426,-0.095890,0.009635,-0.016678,1.000000,-0.000174,0.000066,-0.000032,0.594421,-0.194770,0.742106,0.240846,144.620561,77.439328,-179.274636
19729,-9.582639,0.940969,-1.767184,0.149085,-0.253413,-0.027551,-0.012136,0.010036,-0.013738,-0.095827,0.009415,-0.017668,1.000000,-0.000061,0.000050,-0.000069,0.594394,-0.194831,0.742099,0.240887,144.625208,77.438203,-179.261241
19730,-9.442629,0.986965,-1.739001,0.114277,-0.199925,-0.163416,0.012105,0.002436,-0.009428,-0.094426,0.009875,-0.017388,1.000000,0.000061,0.000012,-0.000047,0.594416,-0.194802,0.742098,0.240858,144.625011,77.439966,-179.266451
19731,-9.400730,1.153719,-1.658418,0.072558,-0.018247,-0.197618,0.030521,-0.004150,-0.000264,-0.094007,0.011540,-0.016584,1.000000,0.000153,-0.000021,-0.000001,0.594466,-0.194668,0.742113,0.240795,144.604722,77.440998,-179.303643
19732,-9.399222,1.303062,-1.703626,-0.049635,0.074720,-0.172270,0.012723,-0.007800,0.003624,-0.093992,0.013030,-0.017039,1.000000,0.000064,-0.000039,0.000018,0.594515,-0.194562,0.742100,0.240800,144.562580,77.443150,-179.354501
19733,-9.539926,1.127907,-1.643172,0.129852,-0.032096,-0.067715,0.023125,0.008375,0.006363,-0.095400,0.011278,-0.016426,1.000000,0.000116,0.000042,0.000032,0.594504,-0.194441,0.742150,0.240772,144.542848,77.436125,-179.386781
19734,-9.534681,1.132034,-1.863659,-0.047191,-0.158631,-0.033246,0.034079,0.003151,-0.009315,-0.095347,0.011328,-0.018633,1.000000,0.000170,0.000016,-0.000047,0.594546,-0.194342,0.742179,0.240658,144.556150,77.437500,-179.391781
19735,-9.392094,1.300647,-1.759439,-0.093091,0.038878,-0.169629,0.023176,-0.000249,-0.008031,-0.093920,0.013012,-0.017593,1.000000,0.000116,-0.000001,-0.000040,0.594584,-0.194264,0.742189,0.240595,144.553743,77.439283,-179.406341
19736,-9.420886,1.291659,-1.564967,0.071378,0.145734,-0.177115,0.002251,-0.001302,-0.006894,-0.094208,0.012920,-0.015650,1.000000,0.000011,-0.000007,-0.000034,0.594606,-0.194252,0.742168,0.240616,144.536905,77.441846,-179.422539
19737,-9.484468,1.221748,-1.639030,0.067368,0.045136,-0.110748,-0.029813,0.015966,-0.003859,-0.094846,0.012217,-0.016385,1.000000,-0.000149,0.000080,-0.000019,0.594528,-0.194335,0.742167,0.240746,144.519592,77.434674,-179.421265
19738,-9.438321,1.254826,-1.711887,-0.018216,0.028965,-0.138708,-0.016246,0.019331,-0.013758,-0.094384,0.012553,-0.017111,1.000000,-0.000081,0.000097,-0.000069,0.594466,-0.194420,0.742180,0.240789,144.537424,77.429896,-179.392336
19739,-9.437450,1.275131,-1.669113,0.004150,0.070886,-0.144579,-0.024702,0.010158,-0.015684,-0.094374,0.012757,-0.016688,1.000000,-0.000124,0.000051,-0.000078,0.594428,-0.194525,0.742157,0.240871,144.539122,77.429365,-179.374585
19740,-9.445745,1.242943,-1.681424,0.014801,0.037495,-0.138362,-0.054195,0.012370,-0.015177,-0.094458,0.012432,-0.016812,1.000000,-0.000271,0.000062,-0.000076,0.594356,-0.194727,0.742100,0.241062,144.527682,77.428393,-179.352310
19741,-9.485187,1.245441,-1.764595,-0.043182,-0.009434,-0.084802,-0.049992,0.019661,-0.020263,-0.094852,0.012460,-0.017640,1.000000,-0.000250,0.000098,-0.000101,0.594263,-0.194935,0.742069,0.241215,144.538631,77.424950,-179.310234
19742,-9.508666,1.240177,-1.791042,-0.055813,-0.028020,-0.057858,-0.014909,0.017720,-0.031307,-0.095086,0.012415,-0.017903,1.000000,-0.000075,0.000089,-0.000157,0.594231,-0.195079,0.742062,0.241201,144.591566,77.426794,-179.246268
19743,-9.399660,1.223189,-1.678377,0.018430,0.025849,-0.186383,-0.011630,0.005871,-0.027865,-0.093995,0.012244,-0.016782,1.000000,-0.000058,0.000029,-0.000139,0.594236,-0.195185,0.742029,0.241202,144.619887,77.432303,-179.208914
19744,-9.462168,1.183174,-1.686966,0.047580,-0.010089,-0.128886,-0.003617,0.012175,-0.025216,-0.094621,0.011843,-0.016864,1.000000,-0.000018,0.000061,-0.000126,0.594227,-0.195267,0.742025,0.241171,144.658291,77.434704,-179.166230
19745,-9.476296,1.299609,-1.690865,-0.020013,0.082875,-0.099762,-0.022704,0.010115,-0.028282,-0.094762,0.013008,-0.016905,1.000000,-0.000114,0.000051,-0.000141,0.594207,-0.195413,0.741991,0.241208,144.687499,77.438358,-179.121467
19746,-9.437411,1.283524,-1.631046,0.027125,0.105971,-0.150364,-0.061867,0.012692,-0.031674,-0.094373,0.012845,-0.016308,1.000000,-0.000309,0.000063,-0.000158,0.594144,-0.195702,0.741909,0.241382,144.706598,77.442614,-179.062839
19747,-9.540196,1.108336,-1.654882,0.131581,-0.048309,-0.067805,-0.090099,0.023442,-0.033350,-0.095402,0.011092,-0.016543,1.000000,-0.000450,0.000117,-0.000167,0.594013,-0.196083,0.741828,0.241640,144.727666,77.441705,-178.986855
19748,-9.588614,0.998081,-1.738969,0.139679,-0.185296,-0.019432,-0.081995,0.025903,-0.042115,-0.095886,0.009994,-0.017381,1.000000,-0.000410,0.000130,-0.000211,0.593899,-0.196470,0.741756,0.241831,144.777087,77.443128,-178.888000
19749,-9.457363,1.001082,-1.744937,0.104480,-0.185388,-0.146074,-0.070735,0.017167,-0.038033,-0.094573,0.010023,-0.017445,1.000000,-0.000354,0.000086,-0.000190,0.593816,-0.196803,0.741675,0.242010,144.809801,77.446681,-178.811453
19750,-9.363572,1.071456,-1.700631,0.077544,-0.101883,-0.236662,-0.044739,0.010885,-0.027468,-0.093635,0.010724,-0.017004,1.000000,-0.000224,0.000054,-0.000137,0.593772,-0.197021,0.741613,0.242132,144.827393,77.450400,-178.764838
19751,-9.595458,1.061658,-1.721572,0.117331,-0.120201,-0.007814,-0.043811,0.024583,-0.023882,-0.095955,0.010624,-0.017206,1.000000,-0.000219,0.000123,-0.000119,0.593672,-0.197230,0.741600,0.242246,144.856782,77.445797,-178.707502
19752,-9.648446,1.143225,-1.709155,0.091410,-0.044598,0.051913,0.005130,0.023321,-0.040056,-0.096484,0.011452,-0.017080,1.000000,0.000026,0.000117,-0.000200,0.593650,-0.197351,0.741626,0.242124,144.948165,77.447796,-178.616346
19753,-9.316313,1.257577,-1.799375,-0.118825,-0.004752,-0.241962,-0.014053,0.013239,-0.048179,-0.093161,0.012597,-0.017988,1.000000,-0.000070,0.000066,-0.000241,0.593650,-0.197548,0.741592,0.242066,145.029043,77.456471,-178.523731
19754,-9.322049,1.317659,-1.613934,-0.008320,0.155856,-0.261916,-0.009798,0.006482,-0.031077,-0.093219,0.013190,-0.016137,1.000000,-0.000049,0.000032,-0.000155,0.593662,-0.197663,0.741558,0.242047,145.068005,77.463308,-178.476863
19755,-9.430156,1.312781,-1.584744,0.039954,0.171007,-0.162205,-0.029268,0.009460,-0.028455,-0.094300,0.013139,-0.015845,1.000000,-0.000146,0.000047,-0.000142,0.593638,-0.197828,0.741513,0.242108,145.093073,77.467257,-178.432493
19756,-9.470586,1.282316,-1.733751,-0.051395,0.059384,-0.100012,-0.022369,0.009737,-0.031048,-0.094705,0.012836,-0.017334,1.000000,-0.000112,0.000049,-0.000155,0.593628,-0.197978,0.741475,0.242126,145.129753,77.472555,-178.381688
19757,-9.294420,1.170525,-1.765129,-0.050023,-0.049557,-0.280264,-0.026956,0.004322,-0.022272,-0.092943,0.011713,-0.017651,1.000000,-0.000135,0.000022,-0.000111,0.593617,-0.198107,0.741425,0.242202,145.135536,77.476885,-178.358433
19758,-9.427251,1.051963,-1.815221,0.007756,-0.174346,-0.156381,-0.045994,-0.000066,-0.011291,-0.094272,0.010521,-0.018155,1.000000,-0.000230,-0.000000,-0.000056,0.593593,-0.198252,0.741345,0.242385,145.102181,77.480354,-178.363672
19759,-9.341884,1.033517,-1.725786,0.069292,-0.137739,-0.257923,-0.025923,-0.009418,-0.013958,-0.093417,0.010339,-0.017264,1.000000,-0.000130,-0.000047,-0.000070,0.593624,-0.198331,0.741263,0.242496,145.070664,77.488418,-178.379231
19760,-9.442689,1.089633,-1.804834,-0.004176,-0.140317,-0.138526,-0.026650,0.000770,-0.002493,-0.094427,0.010895,-0.018049,1.000000,-0.000133,0.000004,-0.000012,0.593607,-0.198384,0.741219,0.242629,145.031180,77.488637,-178.402756
19761,-9.571512,1.237488,-1.656786,0.053492,0.065897,-0.020703,-0.019142,-0.005323,-0.005127,-0.095714,0.012376,-0.016572,1.000000,-0.000096,-0.000027,-0.000026,0.593619,-0.198414,0.741166,0.242737,144.990872,77.491873,-178.431300
19762,-9.695044,1.192472,-1.607018,0.145047,0.059539,0.085484,-0.031960,0.011027,-0.018848,-0.096950,0.011931,-0.016067,1.000000,-0.000160,0.000055,-0.000094,0.593578,-0.198557,0.741130,0.242832,144.998108,77.492621,-178.403720
19763,-9.574504,1.070514,-1.822524,0.020606,-0.166658,-0.009090,-0.035653,0.009797,-0.037013,-0.095744,0.010720,-0.018222,1.000000,-0.000178,0.000049,-0.000185,0.593556,-0.198773,0.741070,0.242891,145.038223,77.499233,-178.340196
19764,-9.413453,1.055615,-1.900284,-0.068093,-0.224434,-0.154350,-0.004439,-0.000545,-0.037242,-0.094133,0.010573,-0.019003,1.000000,-0.000022,-0.000003,-0.000186,0.593609,-0.198881,0.741017,0.242836,145.083206,77.511368,-178.291135
19765,-9.374144,1.128717,-1.828692,-0.065320,-0.121942,-0.196370,0.028502,-0.009623,-0.031232,-0.093739,0.011304,-0.018290,1.000000,0.000143,-0.000048,-0.000156,0.593716,-0.198861,0.740983,0.242694,145.119207,77.525191,-178.269478
19766,-9.412315,1.261147,-1.811324,-0.123503,-0.003401,-0.145847,0.069155,-0.017448,-0.032249,-0.094120,0.012633,-0.018117,1.000000,0.000346,-0.000087,-0.000161,0.593896,-0.198720,0.740971,0.242404,145.170811,77.543675,-178.255518
19767,-9.326754,1.458491,-1.799856,-0.250876,0.163477,-0.207202,0.089690,-0.017558,-0.031620,-0.093264,0.014608,-0.018000,1.000000,0.000448,-0.000088,-0.000158,0.594093,-0.198511,0.740987,0.242042,145.231111,77.561350,-178.244882
19768,-9.510693,1.455709,-1.582088,-0.041465,0.294546,-0.066565,0.085910,-0.007046,-0.033355,-0.095104,0.014580,-0.015818,1.000000,0.000430,-0.000035,-0.000167,0.594253,-0.198336,0.741025,0.241676,145.310248,77.575259,-178.212694
19769,-9.551140,1.304059,-1.620362,0.022815,0.153471,-0.038929,0.033763,0.002088,-0.056576,-0.095508,0.013070,-0.016200,1.000000,0.000169,0.000010,-0.000283,0.594352,-0.198409,0.741008,0.241428,145.421254,77.591792,-178.117327
19770,-9.383600,1.205983,-1.741167,-0.054197,0.005644,-0.193174,0.000365,0.003483,-0.064884,-0.093832,0.012090,-0.017410,1.000000,0.000002,0.000017,-0.000324,0.594426,-0.198617,0.740943,0.241274,145.534855,77.610914,-177.999841
19771,-9.398254,1.221619,-1.589138,0.055925,0.112373,-0.203883,0.017147,-0.001059,-0.059905,-0.093979,0.012246,-0.015891,1.000000,0.000086,-0.000005,-0.000300,0.594524,-0.198748,0.740892,0.241080,145.639446,77.629933,-177.901309
19772,-9.398598,1.306443,-1.578480,0.011543,0.190570,-0.195225,0.010623,-0.003284,-0.061045,-0.093982,0.013094,-0.015786,1.000000,0.000053,-0.000016,-0.000305,0.594628,-0.198903,0.740823,0.240907,145.741207,77.650866,-177.801839
19773,-9.393055,1.338209,-1.731855,-0.132079,0.128523,-0.169781,-0.016664,0.000614,-0.065502,-0.093926,0.013411,-0.017319,1.000000,-0.000083,0.000003,-0.000328,0.594693,-0.199157,0.740731,0.240820,145.841646,77.670821,-177.687743
19774,-9.502257,1.227636,-1.734981,-0.050490,0.042607,-0.075862,-0.010005,0.006951,-0.070789,-0.095019,0.012309,-0.017347,1.000000,-0.000050,0.000035,-0.000354,0.594751,-0.199421,0.740658,0.240684,145.968512,77.690019,-177.550561
19775,-9.541605,1.105657,-1.706980,0.047066,-0.033802,-0.056913,0.003737,0.002737,-0.079006,-0.095412,0.011095,-0.017068,1.000000,0.000019,0.000014,-0.000395,0.594844,-0.199667,0.740583,0.240479,146.113975,77.713180,-177.402365
19776,-9.511294,0.881722,-1.658019,0.204865,-0.179900,-0.121618,0.031790,-0.001815,-0.080016,-0.095109,0.008858,-0.016580,1.000000,0.000159,-0.000009,-0.000400,0.594985,-0.199837,0.740523,0.240175,146.272883,77.739308,-177.255996
19777,-9.505682,0.740564,-1.810977,0.161300,-0.379033,-0.116483,0.051126,-0.000902,-0.071229,-0.095054,0.007444,-0.018108,1.000000,0.000256,-0.000005,-0.000356,0.595130,-0.199908,0.740502,0.239821,146.424256,77.761566,-177.129563
19778,-9.451706,0.851819,-1.761004,0.120590,-0.254962,-0.164790,0.074198,0.006061,-0.065801,-0.094515,0.008556,-0.017604,1.000000,0.000371,0.000030,-0.000329,0.595270,-0.199895,0.740535,0.239382,146.589161,77.779182,-177.004118
19779,-9.458609,0.977975,-1.609761,0.164541,-0.058182,-0.169939,0.084906,0.006983,-0.059664,-0.094584,0.009815,-0.016090,1.000000,0.000425,0.000035,-0.000298,0.595406,-0.199833,0.740589,0.238930,146.746730,77.793873,-176.891167
19780,-9.482318,1.068901,-1.604076,0.118559,0.023988,-0.137186,0.056820,0.011466,-0.058681,-0.094821,0.010721,-0.016032,1.000000,0.000284,0.000057,-0.000293,0.595498,-0.199860,0.740620,0.238579,146.894451,77.806644,-176.771692
19781,-9.521216,1.118399,-1.578450,0.116065,0.084628,-0.097995,0.023458,0.019132,-0.062977,-0.095210,0.011216,-0.015774,1.000000,0.000117,0.000096,-0.000315,0.595531,-0.200008,0.740633,0.238332,147.042337,77.816409,-176.632638
19782,-9.568440,1.205620,-1.598431,0.057415,0.149188,-0.038334,0.026739,0.017487,-0.068648,-0.095682,0.012091,-0.015974,1.000000,0.000134,0.000087,-0.000343,0.595582,-0.200168,0.740637,0.238057,147.204138,77.829193,-176.481139
19783,-9.423222,1.215769,-1.690811,-0.054500,0.106390,-0.162829,0.011599,0.012030,-0.074435,-0.094229,0.012194,-0.016902,1.000000,0.000058,0.000060,-0.000372,0.595643,-0.200385,0.740604,0.237827,147.361195,77.845768,-176.325767
19784,-9.454476,0.970209,-1.794239,0.010279,-0.146382,-0.141795,0.040876,0.022513,-0.073596,-0.094543,0.009741,-0.017930,1.000000,0.000204,0.000113,-0.000368,0.595693,-0.200538,0.740631,0.237487,147.549887,77.857559,-176.153552
19785,-9.493964,0.985878,-1.834847,-0.025487,-0.150457,-0.094114,0.082507,0.009683,-0.076401,-0.094937,0.009903,-0.018340,1.000000,0.000413,0.000048,-0.000382,0.595835,-0.200548,0.740673,0.236991,147.749517,77.875664,-175.996206
19786,-9.395017,1.162776,-1.791452,-0.118620,0.023468,-0.178734,0.081383,0.003542,-0.081700,-0.093946,0.011673,-0.017908,1.000000,0.000407,0.000018,-0.000408,0.596009,-0.200576,0.740686,0.236487,147.954001,77.898829,-175.833352
19787,-9.433843,1.140315,-1.731777,-0.054455,0.047914,-0.153935,0.087050,0.006410,-0.075153,-0.094335,0.011446,-0.017310,1.000000,0.000435,0.000032,-0.000376,0.596167,-0.200564,0.740724,0.235981,148.149906,77.917914,-175.682502
19788,-9.558899,1.079781,-1.870857,-0.107148,-0.073560,-0.013622,0.093993,0.007540,-0.086234,-0.095585,0.010848,-0.018700,1.000000,0.000470,0.000038,-0.000431,0.596343,-0.200577,0.740760,0.235412,148.378857,77.940258,-175.501973
19789,-9.413051,1.205086,-1.721698,-0.097083,0.120957,-0.169144,0.089284,-0.000565,-0.094589,-0.094125,0.012103,-0.017212,1.000000,0.000446,-0.000003,-0.000473,0.596551,-0.200622,0.740760,0.234847,148.612017,77.968324,-175.314364
19790,-9.489274,1.088082,-1.588054,0.086546,0.113317,-0.131168,0.048531,-0.001847,-0.090125,-0.094888,0.010927,-0.015879,1.000000,0.000243,-0.000009,-0.000451,0.596720,-0.200773,0.740710,0.234445,148.812199,77.996022,-175.136565
19791,-9.521002,1.054018,-1.603274,0.095748,0.083782,-0.101111,0.030527,0.000357,-0.088963,-0.095205,0.010585,-0.016031,1.000000,0.000153,0.000002,-0.000445,0.596859,-0.200973,0.740649,0.234114,149.001787,78.021689,-174.959122
19792,-9.454471,1.109736,-1.772053,-0.088180,0.035287,-0.130245,0.004436,0.012674,-0.095613,-0.094541,0.011143,-0.017714,1.000000,0.000022,0.000063,-0.000478,0.596935,-0.201297,0.740583,0.233847,149.211154,78.043651,-174.745620
19793,-9.476232,1.001329,-1.642315,0.077011,0.030438,-0.143563,-0.013679,0.005977,-0.091000,-0.094758,0.010055,-0.016421,1.000000,-0.000068,0.000030,-0.000455,0.597011,-0.201643,0.740485,0.233667,149.389451,78.066891,-174.553859
19794,-9.544790,0.777581,-1.781577,0.105873,-0.225304,-0.075147,-0.036710,0.006860,-0.091423,-0.095445,0.007816,-0.017814,1.000000,-0.000184,0.000034,-0.000457,0.597064,-0.202061,0.740360,0.233566,149.558989,78.090161,-174.357984
19795,-9.545325,0.758493,-1.804359,0.094969,-0.248058,-0.072375,-0.031224,0.016666,-0.096039,-0.095451,0.007628,-0.018037,1.000000,-0.000156,0.000083,-0.000480,0.597088,-0.202491,0.740268,0.233425,149.755145,78.109327,-174.137730
19796,-9.570372,0.814674,-1.864860,0.015730,-0.230674,-0.031075,-0.008926,0.015691,-0.099649,-0.095701,0.008194,-0.018641,1.000000,-0.000045,0.000078,-0.000498,0.597146,-0.202867,0.740193,0.233187,149.973667,78.130361,-173.908097
19797,-9.480602,0.981997,-1.789319,-0.044534,-0.045871,-0.115074,0.015410,0.003635,-0.098283,-0.094802,0.009868,-0.017891,1.000000,0.000077,0.000018,-0.000491,0.597268,-0.203150,0.740114,0.232880,150.185594,78.156303,-173.699066
19798,-9.465586,1.030767,-1.601328,0.067552,0.110880,-0.158300,0.032677,0.009398,-0.098472,-0.094652,0.010357,-0.016007,1.000000,0.000163,0.000047,-0.000492,0.597386,-0.203402,0.740066,0.232508,150.418052,78.179769,-173.477679
19799,-9.545218,1.099464,-1.613869,0.029115,0.168458,-0.071263,0.030132,0.005485,-0.101295,-0.095447,0.011045,-0.016134,1.000000,0.000151,0.000027,-0.000506,0.597519,-0.203655,0.740006,0.232136,150.649951,78.205297,-173.256898
19800,-9.447154,1.120704,-1.712351,-0.086070,0.133785,-0.147723,0.018066,0.017940,-0.115944,-0.094467,0.011263,-0.017114,1.000000,0.000090,0.000090,-0.000580,0.597610,-0.204025,0.739949,0.231758,150.928941,78.228889,-172.979397
19801,-9.552177,1.285121,-1.719072,-0.170569,0.274544,-0.027681,-0.005665,0.017055,-0.121388,-0.095515,0.012909,-0.017183,1.000000,-0.000028,0.000085,-0.000607,0.597687,-0.204472,0.739861,0.231446,151.206192,78.253762,-172.691381
19802,-9.966080,1.376809,-1.854956,-0.253868,0.289937,0.410360,-0.041752,0.021754,-0.152222,-0.099652,0.013840,-0.018542,1.000000,-0.000209,0.000109,-0.000761,0.597749,-0.205145,0.739713,0.231164,151.546680,78.284864,-172.318417
19803,-10.103712,1.438873,-2.195012,-0.540137,0.157906,0.611165,-0.012268,0.010770,-0.209881,-0.101023,0.014493,-0.021946,0.999999,-0.000061,0.000054,-0.001049,0.597944,-0.205932,0.739507,0.230618,152.031080,78.336138,-171.815074
19804,-9.932488,1.474568,-2.415229,-0.783286,0.072038,0.485040,0.063950,0.001454,-0.278736,-0.099304,0.014892,-0.024147,0.999999,0.000320,0.000007,-0.001394,0.598332,-0.206741,0.739286,0.229595,152.723588,78.409798,-171.143378
19805,-10.340529,1.938868,-2.774342,-1.275937,0.278483,0.989026,0.183925,-0.010608,-0.368457,-0.103368,0.019605,-0.027731,0.999998,0.000920,-0.000053,-0.001842,0.598988,-0.207501,0.739075,0.227871,153.703269,78.510405,-170.249536
19806,-10.419423,2.691197,-2.223534,-1.290815,1.256871,1.027273,0.424682,-0.057453,-0.518346,-0.104118,0.027229,-0.022208,0.999994,0.002123,-0.000287,-0.002592,0.600236,-0.208041,0.738835,0.224852,155.169376,78.668722,-169.000735
19807,-9.803012,3.456785,-1.959029,-1.679188,2.068404,0.423899,0.601473,-0.106930,-0.645887,-0.097907,0.034943,-0.019538,0.999990,0.003007,-0.000535,-0.003229,0.601982,-0.208462,0.738503,0.220848,157.057364,78.874996,-167.425753
19808,-9.205512,3.625152,-1.815425,-1.813852,2.332867,-0.197805,0.803018,-0.151032,-0.740804,-0.091906,0.036665,-0.018077,0.999985,0.004015,-0.000755,-0.003704,0.604192,-0.208572,0.738144,0.215854,159.342097,79.113701,-165.565538
19809,-9.262262,3.432141,-1.282011,-1.305658,2.557925,-0.275172,0.974932,-0.162824,-0.793365,-0.092475,0.034751,-0.012727,0.999980,0.004875,-0.000814,-0.003967,0.606660,-0.208338,0.737854,0.210073,161.956241,79.353311,-163.471670
19810,-9.382778,3.396292,-0.391530,-0.579877,3.114429,-0.342312,1.014920,-0.107121,-0.832443,-0.093683,0.034372,-0.003792,0.999978,0.005075,-0.000536,-0.004162,0.608977,-0.208181,0.737702,0.203967,164.858524,79.549559,-161.108230
19811,-9.816565,3.607759,-0.308389,-0.584025,3.442027,0.050711,0.948041,-0.048520,-0.813488,-0.098017,0.036491,-0.002935,0.999980,0.004740,-0.000243,-0.004067,0.610968,-0.208204,0.737652,0.198088,167.800095,79.688362,-158.668452
19812,-9.957601,3.549385,-0.044652,-0.336334,3.625301,0.111899,0.802196,0.003473,-0.748487,-0.099442,0.035868,-0.000301,0.999985,0.004011,0.000017,-0.003742,0.612530,-0.208465,0.737663,0.192878,170.545818,79.768723,-156.345209
19813,-9.977691,3.203527,-0.308361,-0.381391,3.264419,0.142697,0.549939,0.076637,-0.628388,-0.099677,0.032357,-0.002957,0.999991,0.002750,0.000383,-0.003142,0.613429,-0.209133,0.737759,0.188892,172.833363,79.779538,-154.339428
19814,-9.927249,3.046925,-0.582340,-0.543412,3.039365,0.119073,0.335384,0.137448,-0.451723,-0.099207,0.030703,-0.005704,0.999996,0.001677,0.000687,-0.002259,0.613698,-0.209867,0.738013,0.186192,174.451655,79.732106,-152.886645
19815,-10.408817,3.339404,0.459741,0.235695,3.916845,0.400498,0.289931,0.074732,-0.204862,-0.104052,0.033494,0.004685,0.999998,0.001450,0.000374,-0.001024,0.613923,-0.209765,0.738289,0.184462,175.246566,79.702579,-152.246090
19816,-8.706928,3.114657,0.531644,0.149899,3.633036,-1.293714,0.004192,0.007086,0.058631,-0.087078,0.031121,0.005320,1.000000,0.000021,0.000035,0.000293,0.613852,-0.209502,0.738368,0.184682,175.021436,79.698244,-152.474820
19817,-8.262202,2.712046,0.258635,0.077740,3.094728,-1.682337,-0.165016,-0.010563,0.382209,-0.082674,0.026965,0.002560,0.999998,-0.000825,-0.000053,0.001911,0.613371,-0.208551,0.738574,0.186523,173.688574,79.685250,-153.731949
19818,-8.353237,2.200848,0.413120,0.511878,2.713041,-1.617072,-0.306785,-0.063842,0.634692,-0.083603,0.021750,0.004071,0.999994,-0.001534,-0.000319,0.003173,0.612701,-0.207042,0.738739,0.189725,171.461408,79.677429,-155.815301
19819,-8.268797,1.238138,0.084017,0.767770,1.664279,-1.654662,-0.486319,-0.077782,0.794578,-0.082737,0.012055,0.000778,0.999989,-0.002432,-0.000389,0.003973,0.611732,-0.205484,0.738846,0.194082,168.644719,79.644712,-158.393723
19820,-8.446757,0.232489,-0.535768,0.862720,0.431150,-1.400903,-0.598024,-0.066784,0.888593,-0.084475,0.001933,-0.005392,0.999986,-0.002990,-0.000334,0.004443,0.610504,-0.203916,0.738952,0.199132,165.503134,79.570421,-161.237751
19821,-8.854508,-0.731243,-0.712470,1.353665,-0.519271,-1.018257,-0.618398,-0.042864,0.904099,-0.088509,-0.007735,-0.007120,0.999985,-0.003092,-0.000214,0.004520,0.609129,-0.202380,0.739107,0.204266,162.384905,79.452039,-164.047110
19822,-9.330846,-1.791297,-1.070144,1.774464,-1.645719,-0.562773,-0.715000,-0.036246,0.820584,-0.093232,-0.018334,-0.010653,0.999985,-0.003575,-0.000181,0.004103,0.607703,-0.201438,0.739074,0.209497,159.521266,79.319757,-166.542184
19823,-10.121501,-2.184605,-1.777066,1.610875,-2.393975,0.289226,-0.730237,-0.024914,0.658270,-0.101140,-0.022244,-0.017703,0.999988,-0.003651,-0.000125,0.003291,0.606369,-0.201158,0.738879,0.214266,157.189565,79.194547,-168.488112
19824,-10.316055,-2.522450,-2.126103,1.598359,-2.915301,0.495077,-0.688663,-0.069910,0.446788,-0.103096,-0.025528,-0.021210,0.999992,-0.003443,-0.000350,0.002234,0.605462,-0.201474,0.738359,0.218289,155.441978,79.129402,-169.864075
19825,-10.187576,-3.162840,-2.383321,1.762468,-3.627103,0.346456,-0.681345,-0.067167,0.196259,-0.101837,-0.031809,-0.023759,0.999994,-0.003407,-0.000336,0.000981,0.604811,-0.202700,0.737596,0.221512,154.399273,79.116835,-170.526830
19826,-10.108698,-3.131494,-3.006267,1.258336,-3.974341,0.368217,-0.743856,-0.043784,-0.043237,-0.101087,-0.031405,-0.029968,0.999993,-0.003719,-0.000219,-0.000216,0.604274,-0.205015,0.736578,0.224221,153.989717,79.151024,-170.508266
19827,-9.102586,-3.468261,-3.014120,1.281276,-4.280908,-0.647376,-0.769893,-0.033936,-0.254262,-0.091065,-0.034683,-0.030023,0.999992,-0.003849,-0.000170,-0.001271,0.603895,-0.208200,0.735337,0.226368,154.152699,79.232350,-169.891757
19828,-8.028136,-3.931164,-3.520357,0.975497,-4.969055,-1.648455,-0.838139,0.047888,-0.410259,-0.080370,-0.039294,-0.035020,0.999989,-0.004191,0.000239,-0.002051,0.603315,-0.212251,0.734085,0.228210,154.813533,79.309764,-168.728803
19829,-7.652997,-4.245598,-4.739282,0.167747,-5.930008,-1.821389,-0.848551,0.171741,-0.521393,-0.076681,-0.042457,-0.047147,0.999987,-0.004243,0.000859,-0.002607,0.602376,-0.216880,0.733064,0.229614,155.947905,79.345059,-167.078223
19830,-7.091493,-3.901566,-5.675441,-0.826989,-6.208790,-2.164888,-0.736047,0.266775,-0.574046,-0.071102,-0.039020,-0.056516,0.999988,-0.003680,0.001334,-0.002870,0.601262,-0.221468,0.732380,0.230339,157.414277,79.336021,-165.155409
19831,-7.307497,-2.977689,-5.561965,-1.218686,-5.364997,-1.879655,-0.450020,0.327643,-0.477085,-0.073237,-0.029727,-0.055433,0.999993,-0.002250,0.001638,-0.002385,0.600114,-0.224905,0.732306,0.230236,158.831328,79.264289,-163.449383
19832,-8.851883,-0.884335,-4.850409,-1.640211,-3.159412,-0.326273,0.034236,0.287314,-0.231140,-0.088599,-0.008733,-0.048378,0.999998,0.000171,0.001437,-0.001156,0.599373,-0.225945,0.732937,0.229138,159.771620,79.158295,-162.510614
19833,-11.526852,1.829009,-3.057384,-1.402390,0.261006,2.167558,0.500228,0.169546,0.014553,-0.115296,0.018358,-0.030430,0.999997,0.002501,0.000848,0.000073,0.599303,-0.224548,0.734025,0.227204,160.153432,79.065023,-162.412164
19834,-13.635107,3.766544,1.262035,1.201424,4.540851,3.590029,0.912552,0.008385,0.100250,-0.136369,0.037539,0.012798,0.999989,0.004563,0.000042,0.000501,0.600183,-0.221419,0.735182,0.224188,160.371341,79.042232,-162.721252
19835,-11.154710,4.480584,4.052144,2.546301,6.634586,0.695482,0.522647,-0.009824,-0.070325,-0.111533,0.044739,0.040633,0.999997,0.002613,-0.000049,-0.000352,0.600880,-0.220060,0.735651,0.222114,160.820741,79.061851,-162.567025
19836,-8.374694,3.908565,2.515493,1.168298,5.123017,-1.804587,-0.733822,0.273704,-0.301274,-0.083653,0.039304,0.025126,0.999991,-0.003669,0.001369,-0.001506,0.599404,-0.223638,0.735310,0.223652,161.467202,78.970777,-161.478659
19837,-9.671508,2.450016,1.383909,1.355381,3.402807,-0.429761,-1.497868,0.482655,-0.475745,-0.096623,0.024834,0.013887,0.999966,-0.007489,0.002413,-0.002379,0.596472,-0.230371,0.734517,0.227234,162.328523,78.793678,-159.724736
19838,-10.197437,-0.103848,0.270044,2.132668,0.808134,0.130629,-1.706221,0.499237,-0.529903,-0.101969,-0.000744,0.002962,0.999957,-0.008531,0.002496,-0.002649,0.593260,-0.237924,0.733414,0.231384,163.190687,78.612424,-157.847062
19839,-9.435286,-3.656714,-2.813753,1.901012,-3.868933,-0.235099,-1.224779,0.439810,-0.394998,-0.094486,-0.036551,-0.027706,0.999977,-0.006124,0.002199,-0.001975,0.590638,-0.243471,0.732808,0.234223,163.874993,78.436180,-156.431234
19840,-9.492820,-6.044043,-5.431119,1.505477,-7.311757,0.207925,-0.158471,0.323749,-0.205762,-0.095078,-0.060386,-0.054109,0.999998,-0.000792,0.001619,-0.001029,0.589509,-0.245034,0.733316,0.233849,164.546348,78.292014,-155.651523
19841,-9.231249,-4.206349,-5.951601,-0.113109,-6.209611,0.175225,0.919346,0.191045,-0.131240,-0.092397,-0.041729,-0.059620,0.999989,0.004597,0.000955,-0.000656,0.590086,-0.242988,0.734779,0.229903,165.524283,78.207132,-155.189172
19842,-8.882891,-0.639545,-4.587868,-1.437388,-2.572402,-0.237743,1.360506,0.106867,-0.088421,-0.088856,-0.006044,-0.045873,0.999977,0.006802,0.000534,-0.000442,0.591444,-0.239383,0.736523,0.224553,166.579165,78.162178,-154.906309
19843,-9.456892,2.232570,-2.843550,-1.793265,0.855939,0.114763,1.283707,0.087961,-0.045178,-0.094576,0.022529,-0.028250,0.999979,0.006418,0.000440,-0.000226,0.592700,-0.235809,0.738149,0.219630,167.455344,78.120567,-154.761066
19844,-9.608563,3.692115,-1.990047,-1.984085,2.586407,0.151761,0.693135,0.126292,-0.060940,-0.096087,0.037019,-0.019712,0.999994,0.003466,0.000631,-0.000305,0.593124,-0.234083,0.739198,0.216785,168.057297,78.059539,-154.550225
19845,-9.697796,3.688892,-1.921538,-1.900822,2.661402,0.219822,-0.015425,0.189704,-0.144445,-0.096969,0.036957,-0.019126,0.999999,-0.000077,0.000949,-0.000722,0.592566,-0.234830,0.739568,0.216239,168.501384,77.971754,-154.085701
19846,-9.529894,2.470645,-2.354440,-1.529476,1.432047,0.090660,-0.604182,0.229744,-0.234733,-0.095297,0.024747,-0.023510,0.999994,-0.003021,0.001149,-0.001174,0.591267,-0.237700,0.739306,0.217553,168.861675,77.871396,-153.361723
19847,-9.487800,-0.201648,-3.070367,-0.453239,-1.109569,0.089310,-0.796928,0.212814,-0.263472,-0.094913,-0.002014,-0.030595,0.999991,-0.003985,0.001064,-0.001317,0.589819,-0.241221,0.738742,0.219513,169.167527,77.782376,-152.580218
19848,-9.499678,-2.161684,-3.442227,0.489457,-2.862813,0.103479,-0.538936,0.145660,-0.217037,-0.095045,-0.021606,-0.034295,0.999996,-0.002695,0.000728,-0.001085,0.588875,-0.243735,0.738306,0.220733,169.462763,77.725729,-151.960613
19849,-9.679198,-2.363363,-3.333002,0.742733,-2.920267,0.252184,-0.078970,0.087816,-0.141428,-0.096823,-0.023578,-0.033278,1.000000,-0.000395,0.000439,-0.000707,0.588616,-0.244549,0.738299,0.220549,169.793120,77.692811,-151.574690
19850,-9.618676,-1.012098,-2.604246,0.444579,-1.407338,0.094234,0.310053,0.052716,-0.084865,-0.096198,-0.010040,-0.026033,0.999999,0.001550,0.000264,-0.000424,0.588901,-0.243973,0.738683,0.219134,170.185330,77.673821,-151.353568
19851,-9.307350,0.860674,-1.716752,-0.099671,0.585801,-0.327876,0.321216,0.045807,-0.068214,-0.093074,0.008666,-0.017132,0.999999,0.001606,0.000229,-0.000341,0.589203,-0.243291,0.739080,0.217739,170.534077,77.656561,-151.183463
19852,-9.502928,1.383963,-1.122480,0.069041,1.391816,-0.245084,0.053366,0.094906,-0.095223,-0.095028,0.013888,-0.011176,1.000000,0.000267,0.000475,-0.000476,0.589028,-0.243555,0.739294,0.217190,170.822024,77.614109,-150.918479
19853,-9.499152,1.702361,-1.065468,-0.083861,1.689243,-0.252010,-0.253599,0.129688,-0.151643,-0.094985,0.017082,-0.010615,0.999999,-0.001268,0.000648,-0.000758,0.588409,-0.244965,0.739209,0.217570,171.088270,77.556525,-150.495568
19854,-9.210767,1.234430,-1.380756,-0.089802,1.110604,-0.483860,-0.489418,0.147636,-0.172159,-0.092107,0.012390,-0.013770,0.999996,-0.002447,0.000738,-0.000861,0.587457,-0.247166,0.738889,0.218736,171.278356,77.490538,-150.012178
19855,-9.159998,0.612444,-2.103092,-0.257808,0.184742,-0.399769,-0.518976,0.149429,-0.154480,-0.091611,0.006141,-0.020978,0.999996,-0.002595,0.000747,-0.000772,0.586436,-0.249386,0.738561,0.220062,171.401286,77.421407,-149.580108
19856,-9.174484,0.185490,-2.357889,-0.173026,-0.294673,-0.344402,-0.415006,0.144639,-0.142141,-0.091761,0.001871,-0.023516,0.999997,-0.002075,0.000723,-0.000711,0.585547,-0.251251,0.738341,0.221043,171.549823,77.354044,-149.182728
19857,-9.151400,-0.316207,-2.178363,0.281154,-0.565846,-0.421514,-0.267753,0.108686,-0.110079,-0.091528,-0.003141,-0.021730,0.999999,-0.001339,0.000543,-0.000550,0.584936,-0.252523,0.738219,0.221620,171.683753,77.303846,-148.886702
19858,-9.376682,-0.387129,-1.967364,0.532660,-0.454009,-0.249597,-0.111107,0.111387,-0.083593,-0.093779,-0.003843,-0.019619,1.000000,-0.000556,0.000557,-0.000418,0.584484,-0.253245,0.738308,0.221690,171.842436,77.250077,-148.657255
19859,-9.489740,0.109902,-1.617654,0.506998,0.171474,-0.200321,-0.050954,0.111098,-0.066944,-0.094906,0.001127,-0.016124,1.000000,-0.000255,0.000555,-0.000335,0.584089,-0.253726,0.738486,0.221590,171.989893,77.194697,-148.474606
19860,-9.645311,-0.018147,-1.298921,0.863078,0.300773,-0.123303,-0.076082,0.154764,-0.071670,-0.096463,-0.000152,-0.012915,1.000000,-0.000380,0.000774,-0.000358,0.583508,-0.254349,0.738755,0.221510,172.150684,77.115129,-148.263471
19861,-9.577229,0.107015,-1.685749,0.490126,0.162586,-0.101363,-0.131379,0.195350,-0.094752,-0.095788,0.001104,-0.016765,0.999999,-0.000657,0.000977,-0.000474,0.582729,-0.255260,0.739053,0.221518,172.345497,77.013833,-147.984838
19862,-9.479378,0.216720,-1.825112,0.308267,0.164528,-0.163104,-0.254082,0.207252,-0.113181,-0.094811,0.002198,-0.018156,0.999998,-0.001270,0.001036,-0.000566,0.581772,-0.256613,0.739222,0.221908,172.517908,76.907348,-147.656924
19863,-9.502383,0.083636,-2.113188,0.194147,-0.099049,-0.080252,-0.229191,0.214917,-0.122577,-0.095046,0.000870,-0.021031,0.999999,-0.001146,0.001075,-0.000613,0.580823,-0.257933,0.739429,0.222170,172.723161,76.796579,-147.309779
19864,-9.354040,-0.195907,-2.935611,-0.255521,-0.831159,-0.045492,-0.121418,0.219755,-0.108097,-0.093574,-0.001926,-0.029252,0.999999,-0.000607,0.001099,-0.000540,0.579982,-0.258894,0.739784,0.222067,172.954399,76.682114,-146.999227
19865,-9.746318,-0.322360,-3.106804,-0.216402,-0.966786,0.373839,0.094642,0.192241,-0.113127,-0.097495,-0.003154,-0.030976,0.999999,0.000473,0.000961,-0.000566,0.579524,-0.259213,0.740295,0.221187,173.306121,76.582897,-146.691931
19866,-10.467930,0.375026,-3.503870,-0.816167,-0.561004,1.187965,0.266896,0.176655,-0.181002,-0.104707,0.003892,-0.034941,0.999998,0.001334,0.000883,-0.000905,0.579423,-0.259270,0.740859,0.219490,173.910913,76.496613,-146.225796
19867,-11.043435,1.128650,-3.814348,-1.427236,-0.059155,1.838055,0.458313,0.120901,-0.308121,-0.110440,0.011544,-0.038050,0.999996,0.002292,0.000605,-0.001541,0.579911,-0.259177,0.741305,0.216790,174.903661,76.447406,-145.473291
19868,-10.697097,2.219067,-4.023611,-2.373239,0.667937,1.565474,0.833343,0.003258,-0.467722,-0.106919,0.022608,-0.040141,0.999989,0.004167,0.000016,-0.002339,0.581486,-0.258460,0.741596,0.212383,176.465819,76.468586,-144.356092
19869,-10.559483,3.705567,-3.523122,-3.004176,2.201761,1.312607,1.322927,-0.105229,-0.650371,-0.105455,0.037631,-0.035039,0.999973,0.006615,-0.000526,-0.003252,0.584267,-0.256869,0.741830,0.205765,178.737423,76.547309,-142.798002
19870,-10.616992,5.731520,-1.993609,-3.127641,4.844455,0.971208,1.694105,-0.207571,-0.867011,-0.105899,0.057941,-0.019557,0.999954,0.008470,-0.001038,-0.004335,0.588085,-0.254874,0.741813,0.197252,-178.228993,76.667286,-140.675918
19871,-10.499002,7.474188,-0.616231,-3.161720,7.169577,0.437674,1.914835,-0.222307,-1.079388,-0.104578,0.075362,-0.005559,0.999939,0.009574,-0.001112,-0.005397,0.592385,-0.252975,0.741622,0.187296,-174.510504,76.758795,-137.980971
19872,-10.693272,8.515447,0.637676,-2.754248,8.917006,0.195450,1.886929,-0.177796,-1.247528,-0.106405,0.085755,0.007089,0.999936,0.009434,-0.000889,-0.006238,0.596569,-0.251790,0.741232,0.176867,-170.386040,76.769964,-134.853121
19873,-11.375131,9.132473,1.205753,-2.538198,10.008356,0.562074,1.464420,-0.031431,-1.347448,-0.113135,0.091997,0.012712,0.999950,0.007322,-0.000157,-0.006737,0.599699,-0.252339,0.740696,0.167500,-166.355804,76.636247,-131.572574
19874,-12.157886,9.186607,1.261979,-2.412479,10.373192,1.158806,0.938523,0.076236,-1.288665,-0.120979,0.092586,0.013099,0.999968,0.004693,0.000381,-0.006443,0.601670,-0.254309,0.740056,0.160114,-162.922417,76.403816,-128.593393
19875,-13.094422,8.864298,2.535722,-1.078858,11.102504,1.678088,0.861525,-0.005277,-0.988999,-0.130505,0.089179,0.025737,0.999978,0.004308,-0.000026,-0.004945,0.603573,-0.255331,0.739452,0.154003,-160.237624,76.232528,-126.336730
19876,-10.004057,8.339885,2.102977,-1.577615,9.925431,-1.265533,0.477566,-0.027963,-0.545056,-0.099816,0.083621,0.021215,0.999993,0.002388,-0.000140,-0.002725,0.604713,-0.255832,0.739030,0.150688,-158.777910,76.144717,-125.113774
19877,-8.408726,7.215125,0.905661,-2.132109,8.075967,-2.476630,0.186869,0.147253,0.079427,-0.084109,0.072109,0.009186,0.999999,0.000934,0.000736,0.000397,0.604357,-0.255049,0.739712,0.150098,-158.985668,76.087559,-125.436555
19878,-8.775304,6.463524,0.158368,-2.224527,7.119437,-1.864565,0.327397,0.100421,0.745674,-0.087992,0.064305,0.001733,0.999992,0.001637,0.000502,0.003728,0.603850,-0.251320,0.741201,0.151077,-160.532389,76.188395,-127.221301
19879,-9.171371,5.691199,0.181364,-1.632180,6.516146,-1.362205,0.643395,-0.034307,1.337247,-0.092092,0.056291,0.001980,0.999972,0.003217,-0.000172,0.006686,0.603768,-0.244353,0.743238,0.152818,-163.151358,76.450843,-130.294580
19880,-10.571702,4.425130,-0.515872,-1.180134,5.243089,0.322527,0.908816,-0.173873,1.822049,-0.106110,0.043309,-0.005053,0.999948,0.004544,-0.000869,0.009110,0.604112,-0.234634,0.745590,0.155214,-166.802705,76.824537,-134.580996
19881,-10.337085,3.535792,-0.178360,-0.325459,4.478970,0.148107,1.186624,-0.302930,2.128462,-0.103737,0.034266,-0.001735,0.999925,0.005933,-0.001515,0.010642,0.604945,-0.222826,0.748030,0.157612,-171.203019,77.232223,-139.792530
19882,-9.453163,3.130455,0.373572,0.334062,4.114936,-0.743350,1.154182,-0.278919,2.266728,-0.094883,0.030209,0.003780,0.999918,0.005771,-0.001395,0.011333,0.605450,-0.210558,0.750553,0.160520,-176.278098,77.538522,-145.668906
19883,-8.910485,2.868882,0.277776,0.417378,3.605010,-1.179601,0.820370,-0.207999,2.286789,-0.089428,0.027656,0.002800,0.999926,0.004102,-0.001040,0.011434,0.605223,-0.199273,0.752925,0.164618,178.205069,77.683162,-151.796755
19884,-9.277653,1.474010,0.983093,1.890891,2.601187,-0.931886,0.373692,-0.161383,2.213032,-0.092940,0.013694,0.009782,0.999937,0.001868,-0.000807,0.011065,0.604354,-0.189602,0.754892,0.170131,172.546207,77.676786,-157.806204
19885,-10.168100,-0.874532,0.698642,3.074251,0.303470,-0.060948,-0.116255,-0.169869,2.046860,-0.101590,-0.009781,0.006906,0.999947,-0.000581,-0.000849,0.010234,0.603121,-0.182035,0.756172,0.176954,167.107691,77.567333,-163.304245
19886,-10.434229,-2.906464,0.193718,3.773477,-1.878601,0.166627,-0.575738,-0.244871,1.819291,-0.104075,-0.030007,0.001895,0.999954,-0.002879,-0.001224,0.009096,0.601898,-0.176604,0.756532,0.184903,162.025712,77.426972,-168.169847
19887,-10.357205,-4.159034,-0.420648,3.923985,-3.431389,0.065141,-0.964355,-0.331391,1.549648,-0.103239,-0.042411,-0.004175,0.999957,-0.004822,-0.001657,0.007748,0.600850,-0.173292,0.755969,0.193546,157.432054,77.298204,-172.309689
19888,-10.014175,-5.127677,-1.564034,3.439505,-4.982233,-0.201862,-1.155906,-0.371455,1.253107,-0.099789,-0.051993,-0.015527,0.999962,-0.005779,-0.001857,0.006265,0.600030,-0.171600,0.754777,0.202063,153.444067,77.193812,-175.717632
19889,-9.405693,-5.984361,-2.693977,2.862879,-6.406987,-0.741305,-1.156213,-0.394499,0.926762,-0.093725,-0.060434,-0.026777,0.999971,-0.005781,-0.001972,0.004634,0.599580,-0.171129,0.753188,0.209586,150.226064,77.142300,-178.337090
19890,-7.894624,-6.836475,-3.263389,2.557336,-7.509829,-2.277857,-1.109449,-0.396467,0.626216,-0.078667,-0.068792,-0.032409,0.999978,-0.005547,-0.001982,0.003131,0.599468,-0.171619,0.751339,0.216042,147.682963,77.151540,179.708296
19891,-7.022398,-7.226871,-3.128252,2.740837,-7.803946,-3.261855,-1.006687,-0.365259,0.319882,-0.070051,-0.072538,-0.031046,0.999984,-0.005033,-0.001826,0.001599,0.599628,-0.172999,0.749410,0.221139,145.896108,77.225517,178.468853
19892,-6.521400,-7.495669,-3.007245,2.931274,-7.971438,-3.844382,-1.050541,-0.323536,0.016438,-0.065159,-0.075119,-0.029784,0.999985,-0.005253,-0.001618,0.000082,0.599918,-0.175673,0.747265,0.225463,144.747897,77.371923,177.910648
19893,-6.379126,-7.704511,-3.615041,2.586305,-8.465761,-3.916706,-1.215593,-0.234688,-0.284271,-0.063859,-0.077173,-0.035757,0.999980,-0.006078,-0.001173,-0.001421,0.600041,-0.180074,0.744916,0.229400,144.264646,77.574959,178.130592
19894,-9.201996,-8.784444,-9.419179,-0.771456,-12.604447,-0.268462,-1.966619,0.176299,-0.758505,-0.092437,-0.088414,-0.093243,0.999944,-0.009833,0.000881,-0.003792,0.598463,-0.188943,0.742448,0.234335,144.983075,77.743740,-179.978802
19895,-8.561365,-17.146217,-19.196723,-3.551149,-25.059182,-0.056760,-2.674956,0.951574,-1.457792,-0.087777,-0.173371,-0.189243,0.999873,-0.013374,0.004758,-0.007289,0.594041,-0.203411,0.740681,0.239021,148.011054,77.749386,-175.310433
19896,-15.091999,-11.015346,-18.344766,-4.687222,-19.347890,7.196236,0.087352,1.224853,-1.663918,-0.152949,-0.108807,-0.182563,0.999947,0.000437,0.006124,-0.008319,0.591559,-0.210727,0.742681,0.232546,153.406439,77.603724,-169.837644
19897,-11.338253,-0.832422,-4.151351,-0.454668,-2.655973,1.986359,2.744695,-0.664187,-0.767165,-0.113273,-0.007315,-0.041995,0.999893,0.013723,-0.003321,-0.003836,0.597751,-0.204624,0.743012,0.220807,156.038666,78.135753,-168.752331
19898,-7.014174,4.743617,1.111535,-0.344854,4.811486,-2.765284,3.059671,-0.778952,0.071579,-0.070203,0.047236,0.011566,0.999875,0.015298,-0.003895,0.000358,0.603627,-0.194294,0.744034,0.210468,156.711850,78.528668,-169.853512
19899,-9.469366,5.800702,3.877672,1.933811,7.294444,-0.790305,2.007667,-0.197291,0.106447,-0.094763,0.057564,0.039263,0.999949,0.010038,-0.000986,0.000532,0.606176,-0.187584,0.745608,0.203548,157.330675,78.609422,-170.394248
19900,-9.295477,6.521590,2.589069,0.516753,7.230886,-0.697471,-0.090147,0.423654,-0.469620,-0.092746,0.065446,0.026058,0.999995,-0.000451,0.002118,-0.002348,0.604995,-0.190001,0.746346,0.202109,158.923161,78.485207,-168.715192
19901,-10.698540,6.944344,3.301753,1.083940,8.102056,0.519931,-1.548347,0.569424,-1.024419,-0.106533,0.070244,0.032780,0.999953,-0.007742,0.002847,-0.005122,0.602413,-0.199036,0.745487,0.204285,161.240547,78.379248,-165.442752
19902,-10.470486,3.348670,3.095906,2.669861,5.081891,0.060100,-2.945199,0.360154,-0.981605,-0.104482,0.034453,0.030645,0.999878,-0.014725,0.001801,-0.004908,0.599079,-0.211869,0.742485,0.211973,162.425266,78.360018,-162.508799
19903,-9.338169,-5.828714,-1.724161,3.832575,-5.119849,-0.689021,-3.305660,0.576775,-0.692433,-0.093631,-0.058235,-0.016009,0.999853,-0.016527,0.002884,-0.003462,0.594088,-0.224883,0.739859,0.221576,162.794565,78.164363,-160.195654
19904,-9.595657,-11.454778,-6.820965,3.495765,-12.507734,0.244310,-1.772306,0.636396,-0.551150,-0.096487,-0.114879,-0.066886,0.999952,-0.008861,0.003182,-0.002756,0.590333,-0.232840,0.739119,0.225819,163.667457,77.908255,-158.263805
19905,-10.165952,-10.397499,-9.066192,1.356367,-12.906920,1.377537,0.311812,0.336346,-0.451291,-0.102046,-0.103604,-0.090652,0.999995,0.001559,0.001682,-0.002256,0.589965,-0.233928,0.739929,0.222990,165.210447,77.793344,-156.866709
19906,-9.435984,-5.656951,-6.704461,0.040223,-7.729425,0.494601,1.867553,-0.073888,-0.230382,-0.094400,-0.055831,-0.067603,0.999956,0.009338,-0.000369,-0.001152,0.592662,-0.229146,0.741481,0.215521,166.797873,77.868386,-156.335894
19907,-9.090526,-0.625926,-3.777007,-0.862954,-1.939534,-0.180036,2.318913,-0.151297,-0.052649,-0.090878,-0.005796,-0.037908,0.999932,0.011594,-0.000756,-0.000263,0.595903,-0.222253,0.743414,0.206975,168.143519,77.961286,-156.316995
19908,-9.456382,2.944077,-2.049856,-1.511034,2.050796,-0.024771,1.928155,-0.042907,-0.002683,-0.094559,0.029638,-0.020234,0.999954,0.009641,-0.000215,-0.000013,0.598189,-0.216433,0.745235,0.199879,169.205334,77.987844,-156.359394
19909,-9.445634,4.843191,-1.117150,-1.799344,4.194784,-0.164356,1.155259,0.083555,-0.082429,-0.094441,0.048534,-0.010852,0.999983,0.005776,0.000418,-0.000412,0.599207,-0.213327,0.746530,0.195282,170.093105,77.951225,-156.126958
19910,-9.246167,5.467625,-0.046629,-1.293044,5.321111,-0.571343,0.098437,0.137953,-0.206136,-0.092406,0.054772,-0.000376,0.999999,0.000492,0.000690,-0.001031,0.599007,-0.213904,0.746810,0.194193,170.726966,77.895284,-155.534921
19911,-9.586878,3.673266,-0.016034,-0.224761,3.891767,-0.315061,-0.904847,0.224806,-0.291429,-0.095815,0.036871,-0.000219,0.999988,-0.004524,0.001124,-0.001457,0.597483,-0.217880,0.746276,0.196504,171.036840,77.796696,-154.686108
19912,-9.754962,0.837004,-1.872400,-0.108335,0.546313,0.139976,-1.440729,0.317930,-0.349517,-0.097565,0.008406,-0.018629,0.999971,-0.007204,0.001590,-0.001748,0.595063,-0.223759,0.745399,0.200529,171.220174,77.650081,-153.652167
19913,-9.457159,-1.396892,-4.079108,-0.615296,-2.547596,0.245107,-1.298087,0.282673,-0.340599,-0.094653,-0.014072,-0.040566,0.999976,-0.006490,0.001413,-0.001703,0.592892,-0.229131,0.744533,0.204080,171.432547,77.521581,-152.671645
19914,-9.090977,-2.494032,-4.181125,-0.087780,-3.523383,-0.121151,-0.628526,0.116521,-0.226067,-0.090962,-0.024969,-0.041680,0.999994,-0.003143,0.000583,-0.001130,0.591974,-0.231919,0.743965,0.205661,171.665906,77.477032,-152.062243
19915,-9.145974,-2.689661,-3.640272,0.474292,-3.351160,-0.185670,0.019674,0.044158,-0.120893,-0.091484,-0.026838,-0.036385,1.000000,0.000098,0.000221,-0.000604,0.591963,-0.232318,0.743969,0.205226,171.971016,77.464084,-151.759726
19916,-9.322800,-1.042732,-2.296919,0.585900,-1.210239,-0.248706,0.472419,0.034306,-0.098212,-0.093237,-0.010327,-0.022978,0.999997,0.002362,0.000172,-0.000491,0.592491,-0.231287,0.744431,0.203181,172.477024,77.454624,-151.517146
19917,-9.307353,0.762683,-1.052206,0.500385,0.984631,-0.480178,0.494187,0.058343,-0.114578,-0.093072,0.007706,-0.010476,0.999997,0.002471,0.000292,-0.000573,0.592967,-0.230270,0.744965,0.200982,173.040837,77.432082,-151.228092
19918,-9.594662,1.530821,-0.364224,0.654215,2.052625,-0.331533,0.233840,0.149969,-0.152721,-0.095938,0.015386,-0.003552,0.999999,0.001169,0.000750,-0.000764,0.592839,-0.230263,0.745459,0.199529,173.581416,77.359483,-150.809954
19919,-10.103992,1.485240,-0.666164,0.542651,1.924473,0.224354,-0.014885,0.223383,-0.254260,-0.101028,0.014980,-0.006550,0.999999,-0.000074,0.001117,-0.001271,0.592248,-0.231439,0.745807,0.198621,174.246077,77.250134,-150.118384
19920,-9.679222,1.272637,-1.515965,-0.087047,1.253591,-0.013406,-0.188969,0.239890,-0.339003,-0.096789,0.012876,-0.015056,0.999997,-0.000945,0.001199,-0.001695,0.591480,-0.233467,0.745926,0.198088,175.018320,77.134261,-149.213897
19921,-9.620680,0.754225,-2.687005,-0.721595,0.193123,0.176718,-0.129091,0.249514,-0.373998,-0.096226,0.007705,-0.026755,0.999997,-0.000645,0.001248,-0.001870,0.590774,-0.235453,0.746092,0.197219,175.895089,77.011366,-148.236930
19922,-10.057137,0.313227,-3.269480,-0.843347,-0.399574,0.725930,0.163281,0.254686,-0.441104,-0.100606,0.003381,-0.032564,0.999996,0.000816,0.001273,-0.002206,0.590458,-0.236832,0.746475,0.195052,177.089187,76.884162,-147.105695
19923,-10.396385,0.398756,-4.098146,-1.499508,-0.694163,1.246591,0.554527,0.212069,-0.566612,-0.103995,0.004396,-0.040859,0.999992,0.002773,0.001060,-0.002833,0.590878,-0.237477,0.746959,0.191104,178.784001,76.777337,-145.689898
19924,-10.342925,1.328332,-4.043069,-2.043015,0.182498,1.181788,1.148515,0.121821,-0.706677,-0.103405,0.013880,-0.040289,0.999977,0.005743,0.000609,-0.003533,0.592458,-0.236800,0.747552,0.184623,-178.863955,76.711045,-143.948045
19925,-10.319886,2.480632,-3.395133,-2.239330,1.610493,0.984083,1.688557,0.022536,-0.861235,-0.103094,0.025536,-0.033726,0.999955,0.008443,0.000113,-0.004306,0.595149,-0.234990,0.748119,0.175773,-175.841343,76.678775,-141.834723
19926,-10.388503,5.122337,-2.715630,-3.192213,4.337309,0.795242,2.116699,-0.036967,-1.012763,-0.103618,0.052032,-0.026628,0.999931,0.010583,-0.000185,-0.005064,0.598632,-0.232396,0.748621,0.164919,-172.209189,76.643159,-139.346800
19927,-10.865375,8.673773,-0.935972,-3.567882,8.508080,0.629742,2.138552,-0.067132,-1.145627,-0.108151,0.087452,-0.008464,0.999926,0.010692,-0.000336,-0.005728,0.602278,-0.230174,0.748791,0.153600,-168.263787,76.573876,-136.549200
19928,-11.303698,10.337607,-0.036575,-3.579434,10.634198,0.615014,1.655742,-0.014770,-1.275856,-0.112374,0.104093,0.000486,0.999945,0.008279,-0.000074,-0.006379,0.605195,-0.229903,0.748504,0.143617,-164.373268,76.413747,-133.522211
19929,-11.514964,9.426117,0.702046,-2.436961,10.425457,0.546173,0.931912,0.104330,-1.350755,-0.114506,0.095002,0.007522,0.999966,0.004660,0.000522,-0.006754,0.606836,-0.232169,0.747905,0.135965,-160.909834,76.130534,-130.505117
19930,-12.104654,8.048738,0.624527,-1.727356,9.461943,1.104259,0.511823,0.222830,-1.230129,-0.120541,0.081213,0.006587,0.999977,0.002559,0.001114,-0.006151,0.607430,-0.235320,0.747479,0.130112,-158.179488,75.770220,-127.991363
19931,-12.357546,9.402039,2.730904,-0.616492,11.788535,0.637875,0.539724,-0.001852,-0.789127,-0.123204,0.094433,0.027562,0.999989,0.002699,-0.000009,-0.003946,0.608589,-0.236590,0.746882,0.125748,-156.253787,75.601373,-126.321598
19932,-9.765910,9.606843,2.001729,-1.731398,11.145697,-1.784801,0.037108,0.032587,-0.252649,-0.097534,0.096188,0.020051,0.999999,0.000186,0.000163,-0.001263,0.608682,-0.237393,0.746700,0.124862,-155.772148,75.532132,-125.844653
19933,-10.364961,9.158112,0.013047,-3.111476,9.933800,-0.705447,-0.308893,0.104498,0.219645,-0.103750,0.091467,0.000043,0.999998,-0.001544,0.000522,0.001098,0.607798,-0.237542,0.747079,0.126608,-156.507426,75.533645,-126.419708
19934,-11.050255,8.038161,0.038852,-2.407056,9.084179,0.107235,-0.285905,0.008585,0.596057,-0.110741,0.080052,0.000279,0.999995,-0.001430,0.000043,0.002980,0.607058,-0.236134,0.747623,0.129542,-157.932358,75.668451,-127.720134
19935,-10.876772,6.077145,-0.301381,-1.693296,7.135671,0.264042,-0.317613,-0.112140,0.902440,-0.109039,0.060275,-0.003171,0.999988,-0.001588,-0.000561,0.004512,0.606521,-0.233614,0.748128,0.133648,-159.948975,75.919386,-129.611110
19936,-10.505154,3.567099,-0.474892,-0.572167,4.734181,0.215606,-0.127117,-0.185905,1.171054,-0.105253,0.035052,-0.004869,0.999982,-0.000636,-0.000930,0.005855,0.606288,-0.229432,0.748828,0.137958,-162.479115,76.243382,-132.141103
19937,-10.225614,1.927763,-0.799813,0.000235,3.002208,0.182517,0.151134,-0.243504,1.410730,-0.102379,0.018562,-0.008109,0.999974,0.000756,-0.001218,0.007054,0.606394,-0.223482,0.749787,0.141993,-165.473064,76.605454,-135.308610
19938,-10.176117,1.276721,-0.694511,0.471311,2.345671,0.184274,0.366872,-0.303456,1.583282,-0.101847,0.011974,-0.007077,0.999966,0.001834,-0.001517,0.007916,0.606809,-0.216150,0.750865,0.145822,-168.906829,76.982668,-139.049847
19939,-10.049235,1.009753,-0.227801,1.041198,2.169425,-0.001175,0.437172,-0.311540,1.656449,-0.100568,0.009270,-0.002414,0.999962,0.002186,-0.001558,0.008282,0.607230,-0.208333,0.751993,0.149586,-172.664345,77.315138,-143.159207
19940,-10.120270,0.285753,-0.003567,1.661554,1.498364,0.061181,0.267213,-0.333560,1.643614,-0.101221,0.002026,-0.000201,0.999964,0.001336,-0.001668,0.008218,0.607524,-0.201023,0.752857,0.153984,-176.690780,77.598269,-147.439191
19941,-9.394577,-1.185412,0.070984,2.363588,0.010806,-0.643195,0.074814,-0.332222,1.628906,-0.093846,-0.012619,0.000549,0.999965,0.000374,-0.001661,0.008144,0.607584,-0.194364,0.753508,0.159026,179.058366,77.811284,-151.832092
19942,-9.239401,-2.192922,0.006130,2.812326,-1.066042,-0.805587,-0.165351,-0.330329,1.604819,-0.092214,-0.022670,-0.000073,0.999966,-0.000827,-0.001652,0.008024,0.607385,-0.188489,0.753897,0.164910,174.589340,77.953419,-156.304290
19943,-9.618299,-2.718236,-0.014353,3.163962,-1.651555,-0.476720,-0.355153,-0.380842,1.570277,-0.095965,-0.027937,-0.000277,0.999966,-0.001776,-0.001904,0.007851,0.607179,-0.183291,0.753892,0.171419,170.019529,78.051547,-160.766507
19944,-9.893127,-3.157225,-0.316926,3.213027,-2.309800,-0.206350,-0.510047,-0.429610,1.464645,-0.098689,-0.032304,-0.003300,0.999968,-0.002550,-0.002148,0.007323,0.607070,-0.178884,0.753456,0.178244,165.542229,78.117139,-165.041945
19945,-9.689503,-3.922714,-1.060095,2.949437,-3.487596,-0.350466,-0.642570,-0.486069,1.314339,-0.096608,-0.039897,-0.010709,0.999970,-0.003213,-0.002430,0.006572,0.607145,-0.175406,0.752551,0.185131,161.322959,78.170636,-168.975419
19946,-9.301632,-4.504741,-1.587092,2.744144,-4.391042,-0.728699,-0.772671,-0.511012,1.152599,-0.092714,-0.045644,-0.015932,0.999973,-0.003863,-0.002555,0.005763,0.607321,-0.172878,0.751260,0.192047,157.379127,78.213051,-172.550461
19947,-9.383040,-4.588685,-2.146895,2.365240,-4.846730,-0.613761,-0.877877,-0.490677,0.955629,-0.093557,-0.046429,-0.021496,0.999976,-0.004389,-0.002453,0.004778,0.607481,-0.171441,0.749725,0.198713,153.891262,78.243605,-175.597924
19948,-9.590619,-4.896109,-3.041455,1.844806,-5.653195,-0.334321,-0.885215,-0.449177,0.713642,-0.095662,-0.049437,-0.030411,0.999981,-0.004426,-0.002246,0.003568,0.607699,-0.170949,0.748063,0.204645,151.016614,78.282995,-178.014191
19949,-9.810718,-5.241291,-3.606360,1.622977,-6.314653,-0.106112,-0.812288,-0.463299,0.497061,-0.097893,-0.052803,-0.036077,0.999986,-0.004061,-0.002316,0.002485,0.608228,-0.171044,0.746228,0.209633,148.679058,78.369119,-179.924369
19950,-8.966850,-5.704838,-3.463073,1.836029,-6.695599,-1.052549,-0.767421,-0.454804,0.351060,-0.089489,-0.057338,-0.034615,0.999989,-0.003837,-0.002274,0.001755,0.608907,-0.171536,0.744316,0.214012,146.681565,78.481457,178.487217
19951,-8.054805,-5.849295,-3.479505,1.742735,-6.863789,-1.999104,-0.718082,-0.352072,0.286717,-0.080403,-0.058733,-0.034726,0.999991,-0.003590,-0.001760,0.001434,0.609296,-0.172239,0.742705,0.217904,145.008033,78.555310,177.200851
19952,-7.774695,-5.450756,-4.067245,1.020374,-6.871867,-2.168399,-0.573687,-0.271877,0.286473,-0.077613,-0.054735,-0.040621,0.999994,-0.002868,-0.001359,0.001432,0.609508,-0.172577,0.741477,0.221198,143.525119,78.585202,176.024979
19953,-7.896105,-4.640654,-4.031503,0.669658,-6.204735,-1.990295,-0.399167,-0.231642,0.276373,-0.078850,-0.046596,-0.040314,0.999996,-0.001996,-0.001158,0.001382,0.609721,-0.172474,0.740555,0.223766,142.238741,78.594273,174.947488
19954,-8.122273,-4.311653,-4.163601,0.445443,-6.035000,-1.733240,-0.326041,-0.196305,0.244640,-0.081129,-0.043284,-0.041645,0.999997,-0.001630,-0.000982,0.001223,0.609903,-0.172297,0.739785,0.225942,141.118661,78.594633,173.997092
19955,-8.395884,-4.297269,-4.761956,0.008402,-6.380667,-1.391253,-0.168984,-0.123550,0.195142,-0.083887,-0.043095,-0.047635,0.999999,-0.000845,-0.000618,0.000976,0.609999,-0.171912,0.739375,0.227315,140.336246,78.577200,173.299170
19956,-8.390605,-4.064788,-4.991436,-0.300882,-6.328458,-1.345146,-0.031653,-0.058702,0.105226,-0.083870,-0.040700,-0.049933,1.000000,-0.000158,-0.000294,0.000526,0.610080,-0.171511,0.739235,0.227856,139.942880,78.563267,172.918000
19957,-8.222379,-3.545119,-4.753727,-0.412774,-5.763501,-1.482923,-0.007528,0.039320,-0.041370,-0.082240,-0.035436,-0.047520,1.000000,-0.000038,0.000197,-0.000207,0.609981,-0.171694,0.739300,0.227771,140.065130,78.559700,173.048633
19958,-8.401938,-3.652409,-4.899052,-0.435834,-5.924364,-1.289470,-0.074269,0.151805,-0.257300,-0.084103,-0.036434,-0.048913,0.999999,-0.000371,0.000759,-0.001286,0.609658,-0.173005,0.739443,0.227179,140.821630,78.585481,173.865464
19959,-8.902437,-4.405258,-5.034393,-0.036623,-6.604942,-0.847316,-0.285529,0.228975,-0.561700,-0.089205,-0.043874,-0.050179,0.999994,-0.001428,0.001145,-0.002808,0.609205,-0.176173,0.739316,0.226370,142.282536,78.681498,175.523966
19960,-9.756376,-5.679857,-6.620555,-0.447619,-8.492661,0.134798,-0.759114,0.442147,-0.902652,-0.097965,-0.056607,-0.065774,0.999980,-0.003796,0.002211,-0.004513,0.607921,-0.182282,0.738982,0.226079,144.655420,78.785172,178.388524
19961,-13.229119,-2.658824,-6.340480,-1.145715,-5.739822,3.899374,-0.486296,0.510844,-1.039590,-0.132589,-0.026053,-0.063003,0.999980,-0.002431,0.002554,-0.005198,0.606759,-0.188138,0.739013,0.224293,147.671742,78.872945,-178.251424
19962,-12.443542,3.053189,-0.181904,0.553657,2.548529,2.733004,0.264379,0.136415,-0.775306,-0.124317,0.031016,-0.001693,0.999991,0.001322,0.000682,-0.003877,0.607375,-0.190319,0.738977,0.220877,149.943963,79.036063,-176.089135
19963,-8.945695,5.367613,3.824404,1.858139,6.717733,-1.159245,0.183425,0.089342,-0.326390,-0.089352,0.053787,0.038333,0.999998,0.000917,0.000447,-0.001632,0.607585,-0.191028,0.739130,0.219170,150.984175,79.083422,-175.135206
19964,-8.240456,3.393202,3.682580,2.690411,5.010784,-2.025904,-0.216408,0.226861,-0.131801,-0.082340,0.034026,0.036882,0.999999,-0.001082,0.001134,-0.000659,0.606692,-0.192386,0.739443,0.219398,151.489712,79.006089,-174.492431
19965,-8.653562,1.678149,0.881892,1.433114,2.065602,-1.318140,-1.039182,0.477486,-0.347584,-0.086485,0.016978,0.008938,0.999982,-0.005196,0.002387,-0.001738,0.604304,-0.197306,0.739395,0.221770,152.413735,78.858157,-172.942705
19966,-10.376758,1.126230,0.259113,1.564691,1.359638,0.420360,-1.593233,0.558736,-0.604529,-0.103725,0.011598,0.002789,0.999960,-0.007966,0.002794,-0.003023,0.601322,-0.204930,0.738678,0.225320,153.755475,78.730147,-170.642708
19967,-10.213567,-1.146732,-0.423744,2.303118,-0.809579,0.179859,-1.632981,0.534604,-0.641868,-0.102183,-0.011172,-0.003872,0.999958,-0.008165,0.002673,-0.003209,0.598378,-0.212766,0.737749,0.228912,155.099898,78.612752,-168.315855
19968,-9.897606,-4.565547,-3.823113,1.636428,-5.509404,0.206823,-1.074491,0.525697,-0.474479,-0.099184,-0.045624,-0.037725,0.999979,-0.005372,0.002628,-0.002372,0.595837,-0.218293,0.737560,0.230939,156.281929,78.451277,-166.479973
19969,-10.037482,-6.630390,-6.690988,0.718711,-8.813385,0.736705,-0.019522,0.416177,-0.357748,-0.100632,-0.066131,-0.066694,0.999996,-0.000098,0.002081,-0.001789,0.594697,-0.220112,0.738376,0.229537,157.607322,78.312619,-165.113935
19970,-9.651620,-4.619986,-6.943882,-0.772412,-7.321054,0.604619,0.866910,0.292911,-0.317979,-0.096691,-0.045745,-0.069496,0.999988,0.004335,0.001465,-0.001590,0.594937,-0.219009,0.739872,0.225110,159.186313,78.225037,-164.006992
19971,-9.345767,-0.640587,-5.589598,-2.181248,-3.264726,0.364749,1.319968,0.188174,-0.260514,-0.093518,-0.005915,-0.055848,0.999977,0.006600,0.000941,-0.001303,0.595971,-0.216215,0.741608,0.219288,160.756370,78.175711,-163.174148
19972,-9.056968,2.683043,-3.643595,-2.659289,0.625207,-0.063841,1.175407,0.168955,-0.184576,-0.090575,0.027127,-0.036201,0.999982,0.005877,0.000845,-0.000923,0.596816,-0.213548,0.743177,0.214234,162.025919,78.119196,-162.563542
19973,-9.391309,3.445709,-2.609500,-2.199848,1.922532,0.104138,0.589959,0.199856,-0.173641,-0.093909,0.034615,-0.025899,0.999995,0.002950,0.000999,-0.000868,0.596892,-0.212607,0.744208,0.211357,162.942912,78.041086,-161.970305
19974,-9.721341,2.662578,-2.707548,-1.758232,1.285751,0.394172,0.004169,0.253697,-0.251476,-0.097214,0.026749,-0.026952,0.999998,0.000021,0.001268,-0.001257,0.596226,-0.213767,0.744692,0.210363,163.761312,77.944636,-161.134527
19975,-9.544654,2.094606,-2.238009,-1.093444,1.104343,0.090909,-0.419261,0.238146,-0.347561,-0.095437,0.021065,-0.022311,0.999996,-0.002096,0.001191,-0.001738,0.595260,-0.216522,0.744578,0.210680,164.555995,77.869074,-160.074631
19976,-9.343869,0.736886,-1.410059,0.302211,0.478774,-0.351263,-0.695237,0.216031,-0.331038,-0.093442,0.007475,-0.014026,0.999992,-0.003476,0.001080,-0.001655,0.594055,-0.220018,0.744116,0.212090,165.128147,77.800806,-159.080338
19977,-9.673681,-1.183724,-2.080930,0.959143,-1.418510,0.004611,-0.708134,0.240891,-0.293111,-0.096779,-0.011769,-0.020651,0.999992,-0.003541,0.001204,-0.001466,0.592692,-0.223427,0.743745,0.213635,165.599340,77.711186,-158.181494
19978,-9.769953,-1.794417,-2.777968,0.804254,-2.282060,0.213992,-0.340483,0.216400,-0.262925,-0.097753,-0.017863,-0.027643,0.999997,-0.001702,0.001082,-0.001315,0.591794,-0.225612,0.743718,0.213923,166.182791,77.629395,-157.383074
19979,-9.346816,-1.461628,-2.448129,0.789361,-1.828943,-0.245845,0.066419,0.142729,-0.217802,-0.093501,-0.014506,-0.024419,0.999999,0.000332,0.000714,-0.001089,0.591576,-0.226340,0.743958,0.212917,166.827803,77.580619,-156.760122
19980,-9.141603,-0.301417,-1.961541,0.443136,-0.604041,-0.488196,0.312687,0.078682,-0.151183,-0.091426,-0.002914,-0.019584,0.999998,0.001563,0.000393,-0.000756,0.591805,-0.226030,0.744343,0.211260,167.408630,77.557837,-156.347310
19981,-9.145990,0.726041,-1.480566,0.216148,0.525409,-0.536613,0.303198,0.099427,-0.119101,-0.091463,0.007337,-0.014749,0.999999,0.001516,0.000497,-0.000596,0.591909,-0.225642,0.744815,0.209714,167.907398,77.518530,-156.012908
19982,-9.585831,1.448223,-1.327945,0.003106,1.257956,-0.108748,0.201429,0.150315,-0.146420,-0.095858,0.014566,-0.013193,0.999999,0.001007,0.000752,-0.000732,0.591737,-0.225718,0.745297,0.208402,168.445621,77.453406,-155.578306
19983,-9.382680,1.687137,-1.621443,-0.404362,1.286433,-0.237107,-0.031247,0.178460,-0.195006,-0.093825,0.016960,-0.016133,0.999999,-0.000156,0.000892,-0.000975,0.591246,-0.226685,0.745565,0.207788,168.976925,77.376885,-155.014068
19984,-9.330741,0.994983,-1.673407,-0.049529,0.710505,-0.307652,-0.235144,0.156411,-0.193582,-0.093311,0.010021,-0.016673,0.999999,-0.001176,0.000782,-0.000968,0.590605,-0.228232,0.745554,0.207957,169.375636,77.311797,-154.465844
19985,-9.536781,0.412941,-2.242090,-0.111578,-0.053340,-0.007976,-0.231491,0.153972,-0.186828,-0.095381,0.004193,-0.022352,0.999999,-0.001157,0.000770,-0.000934,0.589967,-0.229734,0.745547,0.208139,169.749354,77.246408,-153.945238
19986,-9.222557,1.482616,-2.135860,-0.717329,0.858698,-0.296193,-0.200654,0.149070,-0.190303,-0.092227,0.014893,-0.021305,0.999999,-0.001003,0.000745,-0.000952,0.589386,-0.231158,0.745550,0.208197,170.146789,77.183522,-153.418308
19987,-8.700564,1.711223,-1.857068,-0.736692,1.165778,-0.858636,-0.452028,0.161208,-0.177413,-0.087005,0.017147,-0.018539,0.999997,-0.002260,0.000806,-0.000887,0.588451,-0.233280,0.745340,0.209220,170.365046,77.111751,-152.927282
19988,-9.271214,0.197996,-1.568028,0.505525,0.189541,-0.423235,-0.521658,0.194635,-0.183685,-0.092725,0.002024,-0.015595,0.999996,-0.002608,0.000973,-0.000918,0.587315,-0.235670,0.745142,0.210439,170.572049,77.021411,-152.406721
19989,-9.789188,-0.584849,-1.346137,1.255898,-0.232945,0.003154,-0.344401,0.154094,-0.210446,-0.097908,-0.005769,-0.013376,0.999998,-0.001722,0.000770,-0.001052,0.586561,-0.237588,0.744976,0.210969,170.921246,76.955774,-151.844282
19990,-9.545120,-0.895252,-1.194130,1.514442,-0.396299,-0.279266,-0.121108,0.115816,-0.170718,-0.095466,-0.008878,-0.011881,0.999999,-0.000606,0.000579,-0.000854,0.586174,-0.238669,0.744977,0.210825,171.286400,76.907668,-151.396681
19991,-9.737709,-1.651347,-1.688710,1.629115,-1.253486,-0.005731,0.046547,0.157212,-0.128765,-0.097401,-0.016447,-0.016814,0.999999,0.000233,0.000786,-0.000644,0.585785,-0.239140,0.745327,0.210134,171.653584,76.831729,-151.045510
19992,-9.822913,-1.142698,-2.673723,0.580624,-1.399613,0.318851,0.247633,0.195748,-0.171203,-0.098265,-0.011310,-0.026655,0.999998,0.001238,0.000979,-0.000856,0.585539,-0.239226,0.745946,0.208518,172.250834,76.736894,-150.576252
19993,-9.469411,-0.198411,-2.654540,-0.045066,-0.645604,0.002443,0.412216,0.149921,-0.170980,-0.094716,-0.001849,-0.026478,0.999997,0.002061,0.000750,-0.000855,0.585656,-0.238774,0.746602,0.206348,172.915946,76.666685,-150.133989
19994,-9.345510,-0.312573,-3.212230,-0.439042,-1.050329,0.008649,0.404941,0.152565,-0.144629,-0.093482,-0.002993,-0.032057,0.999997,0.002025,0.000763,-0.000723,0.585726,-0.238253,0.747284,0.204272,173.513333,76.592264,-149.756938
19995,-9.606674,0.223164,-3.782585,-1.153243,-0.891241,0.410890,0.405464,0.177047,-0.165108,-0.096098,0.002388,-0.037736,0.999997,0.002027,0.000885,-0.000826,0.585721,-0.237825,0.748012,0.202110,174.155961,76.504036,-149.333533
19996,-9.533138,0.557085,-3.451715,-1.111810,-0.404714,0.272222,0.358080,0.144239,-0.191789,-0.095351,0.005724,-0.034438,0.999998,0.001790,0.000721,-0.000959,0.585809,-0.237608,0.748558,0.200079,174.824987,76.434952,-148.854941
19997,-9.530526,0.533417,-3.333909,-1.011303,-0.322689,0.242334,0.307093,0.147266,-0.222202,-0.095324,0.005491,-0.033261,0.999998,0.001535,0.000736,-0.001111,0.585850,-0.237649,0.749025,0.198151,175.526741,76.364197,-148.312452
19998,-9.728737,0.770364,-2.656537,-0.587078,0.317036,0.279571,0.288156,0.120018,-0.263960,-0.097293,0.007870,-0.026496,0.999998,0.001441,0.000600,-0.001320,0.586012,-0.237880,0.749340,0.196197,176.309274,76.309054,-147.675555
19999,-9.690367,0.463988,-2.223364,-0.085494,0.346857,0.133875,0.352214,0.099022,-0.302989,-0.096907,0.004826,-0.022177,0.999997,0.001761,0.000495,-0.001515,0.586362,-0.238042,0.749607,0.193919,177.207165,76.265018,-146.957527
20000,-9.451062,0.845696,-2.559636,-0.633939,0.473007,-0.016580,0.417264,0.116104,-0.346362,-0.094511,0.008674,-0.025524,0.999996,0.002086,0.000581,-0.001732,0.586766,-0.238197,0.749930,0.191243,178.243682,76.209272,-146.135029
20001,-9.778270,1.308068,-2.328975,-0.672122,1.069817,0.244808,0.458925,0.106886,-0.433898,-0.097766,0.013346,-0.023207,0.999995,0.002295,0.000534,-0.002169,0.587331,-0.238541,0.750156,0.188169,179.495448,76.155968,-145.115224
20002,-10.327153,1.919273,-2.744003,-1.269010,1.467312,0.869046,0.414147,0.101189,-0.551539,-0.103232,0.019534,-0.027348,0.999994,0.002071,0.000506,-0.002758,0.587969,-0.239455,0.750173,0.184916,-179.011202,76.099733,-143.819944
20003,-10.048202,2.508952,-3.183924,-2.045055,1.733844,0.685381,0.536736,0.036164,-0.694019,-0.100400,0.025523,-0.031753,0.999990,0.002684,0.000181,-0.003470,0.589120,-0.240474,0.749932,0.180866,-177.128273,76.068978,-142.195396
20004,-9.329531,3.405461,-3.541018,-3.021898,2.247283,0.035817,0.704196,-0.002438,-0.803374,-0.093157,0.034553,-0.035290,0.999986,0.003521,-0.000012,-0.004017,0.590702,-0.241373,0.749579,0.175903,-174.897347,76.041765,-140.310972
20005,-9.616340,5.058364,-2.209244,-2.883384,4.476128,-0.086902,0.865551,-0.026282,-0.908590,-0.095929,0.051115,-0.021885,0.999980,0.004328,-0.000131,-0.004543,0.592641,-0.242157,0.749146,0.170052,-172.340752,76.002676,-138.185921
20006,-10.127920,6.031598,-1.764738,-3.022148,5.705950,0.206116,0.698298,-0.024609,-1.021621,-0.100967,0.060893,-0.017448,0.999981,0.003491,-0.000123,-0.005108,0.594444,-0.243855,0.748410,0.164481,-169.641125,75.928793,-135.814156
20007,-11.536224,6.169460,-1.859207,-2.983014,6.123762,1.509956,0.647091,-0.013389,-1.143658,-0.115005,0.062413,-0.018399,0.999978,0.003235,-0.000067,-0.005718,0.596220,-0.246158,0.747487,0.158721,-166.739303,75.806499,-133.202606
20008,-12.538567,6.384248,-1.299544,-2.547444,6.912577,2.244960,0.706823,-0.050939,-1.266586,-0.124975,0.064680,-0.012800,0.999974,0.003534,-0.000255,-0.006333,0.598278,-0.248700,0.746313,0.152411,-163.568789,75.653287,-130.347541
20009,-12.463686,6.689703,-0.300282,-1.984434,7.817316,1.812045,0.779854,-0.093901,-1.287589,-0.124201,0.067709,-0.002798,0.999972,0.003899,-0.000470,-0.006438,0.600571,-0.251057,0.744999,0.145811,-160.351795,75.480828,-127.485619
20010,-13.388427,9.183970,1.789159,-1.552016,11.292847,1.885869,0.881410,-0.123631,-1.190550,-0.133346,0.092555,0.018216,0.999972,0.004407,-0.000618,-0.005953,0.602999,-0.252707,0.743752,0.139156,-157.328848,75.306071,-124.882083
20011,-11.762918,10.226464,2.093287,-2.146477,12.089564,0.013888,0.482799,-0.092625,-1.061139,-0.117094,0.102836,0.021126,0.999983,0.002414,-0.000463,-0.005306,0.604691,-0.255093,0.742451,0.134325,-154.883209,75.113660,-122.637237
20012,-10.487577,9.037189,0.874432,-2.733551,10.281900,-0.911356,0.165551,0.062863,-0.867709,-0.104480,0.090818,0.008852,0.999990,0.000828,0.000314,-0.004339,0.605257,-0.257808,0.741635,0.131063,-153.201145,74.870172,-120.992442
20013,-11.072111,7.355550,0.521076,-2.070185,8.892278,-0.137538,0.157888,0.075915,-0.563042,-0.110511,0.073863,0.005311,0.999996,0.000789,0.000380,-0.002815,0.605555,-0.259431,0.741235,0.128725,-152.146919,74.689049,-119.992120
20014,-11.062169,6.710906,0.844083,-1.465722,8.549923,-0.175741,0.329266,-0.087953,-0.179340,-0.110565,0.067194,0.008503,0.999998,0.001646,-0.000440,-0.000897,0.606434,-0.258991,0.740944,0.127137,-151.562374,74.692262,-119.580118
20015,-10.098702,6.618552,1.351144,-1.105999,8.505768,-1.207854,0.466885,-0.215473,0.246105,-0.101083,0.066030,0.013557,0.999996,0.002334,-0.001077,0.001231,0.607688,-0.256490,0.740898,0.126482,-151.550351,74.873672,-119.843355
20016,-9.780555,6.417813,1.030837,-1.269858,8.074556,-1.380686,0.478804,-0.229614,0.641560,-0.098023,0.063839,0.010349,0.999991,0.002394,-0.001148,0.003208,0.608754,-0.252457,0.741317,0.127016,-152.280710,75.170516,-120.881843
20017,-10.057180,6.120567,0.871714,-1.152165,7.751261,-0.983335,0.491115,-0.217100,0.932982,-0.100865,0.060714,0.008757,0.999986,0.002456,-0.001085,0.004665,0.609588,-0.247327,0.742130,0.128357,-153.621195,75.530026,-122.556677
20018,-10.525580,5.693511,0.926602,-0.749127,7.436101,-0.420986,0.416697,-0.225039,1.138837,-0.105588,0.056315,0.009265,0.999981,0.002083,-0.001125,0.005694,0.610208,-0.241624,0.743102,0.130627,-155.510224,75.934604,-124.750617
20019,-10.925614,4.521466,0.590749,-0.297342,6.252386,0.236142,0.325130,-0.252545,1.274098,-0.109549,0.044508,0.005842,0.999978,0.001626,-0.001263,0.006370,0.610704,-0.235692,0.744061,0.133657,-157.829553,76.362003,-127.329721
20020,-11.202796,3.797671,0.404594,0.025456,5.470328,0.683087,0.333021,-0.321650,1.356766,-0.112289,0.037209,0.003928,0.999974,0.001665,-0.001608,0.006784,0.611383,-0.229344,0.744876,0.137008,-160.444571,76.818800,-130.212598
20021,-10.856840,2.822377,0.531883,0.641397,4.497419,0.457624,0.320572,-0.370030,1.408886,-0.108773,0.027450,0.005162,0.999972,0.001603,-0.001850,0.007044,0.612157,-0.222822,0.745553,0.140590,-163.333300,77.276314,-133.363641
20022,-10.445622,2.272448,0.401834,0.801685,3.751014,0.173381,0.228122,-0.381873,1.456532,-0.104625,0.021958,0.003844,0.999971,0.001141,-0.001909,0.007283,0.612806,-0.216355,0.746139,0.144693,-166.622041,77.711152,-136.864582
20023,-10.297465,2.252251,0.154814,0.629511,3.447865,0.129556,0.115698,-0.383915,1.473524,-0.103140,0.021762,0.001363,0.999971,0.000578,-0.001920,0.007368,0.613290,-0.210183,0.746611,0.149235,-170.237243,78.100506,-140.628053
20024,-10.170205,1.587877,0.243563,1.061270,2.749103,0.052796,0.006092,-0.421287,1.486286,-0.101821,0.015122,0.002222,0.999970,0.000030,-0.002106,0.007431,0.613755,-0.204229,0.746855,0.154282,-174.192546,78.461274,-144.669488
20025,-9.703884,0.132412,-0.017922,1.520873,1.155337,-0.297781,-0.145245,-0.436520,1.504431,-0.097044,0.000594,-0.000392,0.999969,-0.000726,-0.002183,0.007522,0.614067,-0.198677,0.746908,0.159930,-178.500784,78.769543,-148.977705
20026,-9.270439,-0.549560,-0.680715,1.254650,0.048776,-0.586205,-0.181577,-0.456216,1.564683,-0.092642,-0.006227,-0.007013,0.999966,-0.000908,-0.002281,0.007823,0.614332,-0.192953,0.746881,0.165935,176.751153,79.022092,-153.708659
20027,-9.036306,-0.589367,-0.496436,1.424635,-0.066740,-0.856537,-0.205341,-0.514940,1.607929,-0.090299,-0.006625,-0.005190,0.999964,-0.001027,-0.002575,0.008040,0.614709,-0.187108,0.746644,0.172179,171.671621,79.225413,-158.759670
20028,-8.560974,-1.045240,-0.702285,1.420100,-0.745392,-1.309637,-0.280105,-0.534969,1.619748,-0.085502,-0.011155,-0.007236,0.999963,-0.001401,-0.002675,0.008099,0.615040,-0.181388,0.746234,0.178771,166.323621,79.352152,-164.037455
20029,-8.341215,-1.495342,-1.141626,1.256373,-1.506949,-1.490183,-0.364953,-0.525137,1.604388,-0.083258,-0.015643,-0.011607,0.999963,-0.001825,-0.002626,0.008022,0.615220,-0.176011,0.745710,0.185583,160.925148,79.382978,-169.315844
20030,-8.679942,-1.949908,-1.863880,0.958580,-2.390153,-1.095813,-0.539612,-0.492718,1.557969,-0.086598,-0.020225,-0.018798,0.999963,-0.002698,-0.002464,0.007790,0.615127,-0.171332,0.745023,0.192887,155.587661,79.315289,-174.430578
20031,-9.370571,-2.233291,-2.519184,0.706238,-3.098055,-0.376454,-0.598103,-0.503322,1.487829,-0.093472,-0.023105,-0.025359,0.999965,-0.002990,-0.002517,0.007439,0.615040,-0.167101,0.744136,0.200162,150.514538,79.185927,-179.243894
20032,-9.085207,-3.384921,-2.795366,1.026700,-4.378165,-0.780066,-0.606350,-0.508293,1.385411,-0.090543,-0.034562,-0.028080,0.999968,-0.003032,-0.002541,0.006927,0.615031,-0.163232,0.743084,0.207167,145.807553,79.013430,176.318140
20033,-8.762632,-4.358886,-3.755973,0.676413,-5.831928,-1.128219,-0.600469,-0.463890,1.298453,-0.087253,-0.044269,-0.037630,0.999972,-0.003002,-0.002319,0.006492,0.614909,-0.159731,0.742064,0.213811,141.568753,78.785806,172.350704
20034,-8.423849,-5.112149,-4.044925,0.781965,-6.732847,-1.596097,-0.454024,-0.408794,1.181311,-0.083851,-0.051709,-0.040504,0.999978,-0.002270,-0.002044,0.005907,0.614797,-0.156242,0.741232,0.219517,137.925674,78.524634,168.902024
20035,-7.988234,-5.847172,-4.115794,1.038090,-7.475833,-2.198615,-0.356110,-0.331344,1.040716,-0.079508,-0.058959,-0.041185,0.999984,-0.001781,-0.001657,0.005204,0.614601,-0.153075,0.740612,0.224338,134.948508,78.249227,166.072480
20036,-8.141890,-6.141735,-4.930530,0.558787,-8.236209,-2.055556,-0.206528,-0.196295,0.903472,-0.081092,-0.061835,-0.049321,0.999989,-0.001033,-0.000981,0.004517,0.614159,-0.150083,0.740444,0.228092,132.697113,77.950279,163.894214
20037,-8.964608,-6.273307,-5.296877,0.500446,-8.653662,-1.289865,0.005423,-0.154666,0.760543,-0.089366,-0.063072,-0.053040,0.999992,0.000027,-0.000773,0.003803,0.613870,-0.147035,0.740529,0.230568,131.016407,77.682340,162.173119
20038,-8.914062,-6.583332,-4.778939,1.083518,-8.700895,-1.520583,0.157859,-0.154743,0.620523,-0.088899,-0.066072,-0.047910,0.999995,0.000789,-0.000774,0.003103,0.613849,-0.144019,0.740672,0.232061,129.713916,77.465228,160.748390
20039,-8.604412,-7.263401,-5.088514,1.087550,-9.461428,-1.939679,0.276677,-0.054729,0.488949,-0.085852,-0.072774,-0.051009,0.999996,0.001383,-0.000274,0.002445,0.613687,-0.141257,0.741162,0.232622,128.942455,77.265629,159.796839
20040,-9.243500,-6.863528,-5.191861,0.914427,-9.251593,-1.264153,0.459082,0.020545,0.350726,-0.092320,-0.068678,-0.052067,0.999996,0.002295,0.000103,0.001754,0.613533,-0.138522,0.741989,0.232039,128.655575,77.098077,159.234475
20041,-9.209062,-6.271211,-4.640296,1.057935,-8.474505,-1.284456,0.498733,0.067969,0.190447,-0.092047,-0.062684,-0.046528,0.999996,0.002494,0.000340,0.000952,0.613409,-0.136325,0.742893,0.230771,128.748039,76.985737,159.037649
20042,-8.830855,-6.039781,-4.713691,0.782029,-8.283178,-1.599333,0.397283,0.140369,-0.005226,-0.088343,-0.060302,-0.047195,0.999998,0.001986,0.000702,-0.000026,0.613171,-0.135242,0.743762,0.229236,129.220102,76.934217,159.290142
20043,-9.214540,-6.067506,-4.450662,1.088518,-8.185817,-1.248917,0.220436,0.207971,-0.247769,-0.092267,-0.060512,-0.044477,0.999998,0.001102,0.001040,-0.001239,0.612836,-0.135687,0.744471,0.227562,130.104184,76.964721,160.069528
20044,-13.185936,-6.349377,-4.525987,2.008321,-8.713808,2.625289,-0.233503,0.278287,-0.669041,-0.132134,-0.063105,-0.045002,0.999993,-0.001168,0.001391,-0.003345,0.612406,-0.139167,0.744585,0.226240,131.553988,77.147794,161.695962
20045,-19.051928,-8.698163,-4.403728,4.516948,-10.893104,8.046625,-1.025192,0.341565,-1.564947,-0.191268,-0.085710,-0.043270,0.999955,-0.005126,0.001708,-0.007825,0.612171,-0.148474,0.743336,0.225063,134.312218,77.668841,165.125475
20046,-13.519858,-3.985957,-4.364534,1.090010,-6.260656,3.503903,-1.124252,0.623654,-2.268674,-0.135776,-0.038565,-0.043003,0.999915,-0.005621,0.003118,-0.011343,0.611527,-0.161000,0.742220,0.221862,139.237502,78.297834,170.820985
20047,-8.253141,4.879943,1.764183,0.562268,4.866407,-1.384214,-1.413554,0.172463,-1.750945,-0.082084,0.049643,0.017364,0.999936,-0.007068,0.000862,-0.008755,0.611659,-0.171963,0.739712,0.221648,142.554409,78.852841,175.032622
20048,-4.981804,5.482490,7.112695,3.906056,8.403595,-5.386992,-1.297671,0.168380,-0.795471,-0.049539,0.055482,0.070810,0.999971,-0.006488,0.000842,-0.003977,0.610792,-0.179019,0.738071,0.223909,143.941064,79.047474,177.204572
20049,-8.437977,-1.411073,2.409054,4.344841,0.110651,-2.060039,-1.501765,0.464456,-0.373091,-0.084349,-0.013771,0.024391,0.999967,-0.007509,0.002322,-0.001865,0.608138,-0.185458,0.737441,0.227936,144.735870,78.954849,178.892301
20050,-10.925390,-5.011260,-2.977094,2.480280,-5.808452,0.838529,-1.006678,0.693859,-0.598305,-0.109505,-0.049933,-0.029140,0.999977,-0.005033,0.003469,-0.002992,0.605324,-0.191475,0.737818,0.229227,146.704247,78.819162,-178.512301
20051,-10.122487,-3.999924,-4.109807,0.922372,-5.525503,0.383942,-0.899702,0.636981,-0.934774,-0.101541,-0.039709,-0.040596,0.999974,-0.004498,0.003185,-0.004674,0.603174,-0.198334,0.737791,0.229148,149.425136,78.792147,-175.211677
20052,-10.069377,-1.695334,-2.498855,0.926331,-2.616543,0.326623,-0.858807,0.486098,-0.897756,-0.100829,-0.016607,-0.024672,0.999978,-0.004294,0.002430,-0.004489,0.601554,-0.204754,0.737354,0.229167,151.851903,78.802059,-172.234571
20053,-10.047394,-2.395343,-1.859748,1.856225,-2.725024,0.150971,-0.894473,0.463230,-0.671879,-0.100596,-0.023698,-0.018258,0.999982,-0.004472,0.002316,-0.003359,0.599694,-0.210410,0.737013,0.230013,153.639527,78.742368,-169.888077
20054,-9.686589,-4.371588,-6.521724,-0.680355,-7.012331,0.475028,-0.478860,0.599165,-0.577255,-0.097186,-0.043591,-0.064822,0.999988,-0.002394,0.002996,-0.002886,0.597649,-0.214627,0.737631,0.229458,155.556384,78.575045,-167.651631
20055,-9.360337,-3.328485,-9.434074,-3.611443,-7.847933,0.820423,0.210633,0.462356,-0.546354,-0.093911,-0.032929,-0.094159,0.999993,0.001053,0.002312,-0.002732,0.596798,-0.216504,0.738656,0.226598,157.574070,78.456906,-165.714380
20056,-9.250912,0.073096,-6.205861,-3.125984,-3.127673,0.411928,0.575081,0.210133,-0.463226,-0.092572,0.001124,-0.061959,0.999993,0.002875,0.001051,-0.002316,0.597172,-0.216705,0.739418,0.222904,159.298555,78.443546,-164.289025
20057,-9.251495,1.997658,-2.492591,-1.351674,0.671503,-0.142338,0.297382,0.203935,-0.393571,-0.092501,0.020196,-0.024802,0.999996,0.001487,0.001020,-0.001968,0.597182,-0.217461,0.739921,0.220455,160.664068,78.411802,-163.067598
20058,-9.029415,1.451948,-1.924247,-0.628950,0.595720,-0.507280,-0.060762,0.319129,-0.372982,-0.090297,0.014682,-0.019103,0.999997,-0.000304,0.001596,-0.001865,0.596352,-0.219343,0.740391,0.219259,161.868023,78.308441,-161.801308
20059,-9.530819,0.079499,-1.374431,0.709217,-0.115596,-0.209804,-0.066396,0.323792,-0.364424,-0.095329,0.000964,-0.013590,0.999997,-0.000332,0.001619,-0.001822,0.595484,-0.221207,0.740874,0.218110,163.022107,78.195678,-160.582171
20060,-9.988827,0.081188,0.566175,2.324425,1.100759,-0.143717,-0.136140,0.290288,-0.368672,-0.099878,0.001000,0.005806,0.999997,-0.000681,0.001451,-0.001843,0.594665,-0.223263,0.741172,0.217236,164.105491,78.097314,-159.393972
20061,-9.509206,0.075576,0.419869,2.122419,1.021982,-0.590014,-0.407568,0.343972,-0.364900,-0.095083,0.000938,0.004360,0.999995,-0.002038,0.001720,-0.001824,0.593334,-0.226162,0.741334,0.217324,165.036612,77.964346,-158.201943
20062,-9.466582,-1.013372,-1.440947,1.317764,-0.907993,-0.317518,-0.426934,0.410958,-0.346070,-0.094713,-0.010000,-0.014193,0.999994,-0.002135,0.002055,-0.001730,0.591708,-0.229126,0.741684,0.217455,165.932926,77.787842,-157.033466
20063,-9.573307,-1.230664,-2.568956,0.608401,-1.697925,0.011211,-0.031027,0.382202,-0.286803,-0.095799,-0.012173,-0.025505,0.999997,-0.000155,0.001911,-0.001434,0.590571,-0.230659,0.742444,0.216331,166.851810,77.615269,-156.073298
20064,-9.291888,-0.717007,-2.946080,-0.037656,-1.494630,-0.153640,0.285780,0.283712,-0.229207,-0.092969,-0.007022,-0.029339,0.999997,0.001429,0.001419,-0.001146,0.590102,-0.230942,0.743316,0.214306,167.731938,77.487532,-155.338144
20065,-9.156745,-0.009635,-2.498337,-0.134977,-0.638682,-0.343711,0.393996,0.242447,-0.201510,-0.091598,0.000045,-0.024872,0.999997,0.001970,0.001212,-0.001008,0.589876,-0.230750,0.744212,0.212014,168.561159,77.377112,-154.718341
20066,-9.184634,0.945537,-2.574136,-0.752624,0.124786,-0.257816,0.425315,0.254803,-0.215927,-0.091869,0.009609,-0.025604,0.999996,0.002127,0.001274,-0.001080,0.589653,-0.230539,0.745153,0.209541,169.443376,77.259480,-154.062338
20067,-9.172300,1.768275,-1.846736,-0.667076,1.249960,-0.396700,0.287455,0.243820,-0.237395,-0.091724,0.017818,-0.018330,0.999998,0.001437,0.001219,-0.001187,0.589330,-0.230793,0.745891,0.207536,170.275314,77.147924,-153.376593
20068,-9.493665,1.549554,-1.701343,-0.355377,1.225686,-0.127820,0.058629,0.254379,-0.261930,-0.094938,0.015625,-0.016888,0.999998,0.000293,0.001272,-0.001310,0.588728,-0.231831,0.746390,0.206292,171.033596,77.030692,-152.631606
20069,-9.613038,1.136517,-1.849044,-0.199219,0.854670,0.003160,-0.000150,0.280267,-0.295817,-0.096139,0.011507,-0.018356,0.999998,-0.000001,0.001401,-0.001479,0.587992,-0.233186,0.746864,0.205144,171.831021,76.899344,-151.811488
20070,-9.315691,0.667602,-2.582041,-0.551547,0.056964,-0.138642,0.000441,0.278083,-0.320183,-0.093182,0.006825,-0.025691,0.999998,0.000002,0.001390,-0.001601,0.587289,-0.234634,0.747299,0.203918,172.675973,76.768571,-150.942486
20071,-9.384001,0.968548,-2.590321,-0.720068,0.342012,-0.062215,0.088823,0.249541,-0.334666,-0.093856,0.009854,-0.025782,0.999998,0.000444,0.001248,-0.001673,0.586808,-0.235840,0.747722,0.202357,173.576375,76.651954,-150.068085
20072,-8.925480,1.623433,-2.187639,-0.884428,1.090161,-0.586924,0.057042,0.236457,-0.350321,-0.089252,0.016397,-0.021766,0.999998,0.000285,0.001182,-0.001752,0.586352,-0.237190,0.748051,0.200878,174.482279,76.540597,-149.168918
20073,-8.694557,1.140979,-1.979823,-0.483754,0.829245,-0.874282,-0.112850,0.258658,-0.340858,-0.086951,0.011547,-0.019692,0.999998,-0.000564,0.001293,-0.001704,0.585599,-0.239017,0.748284,0.200042,175.253407,76.413040,-148.307783
20074,-9.211126,0.172184,-2.177844,0.041591,0.032522,-0.346189,-0.200187,0.283757,-0.334781,-0.092139,0.001854,-0.021650,0.999997,-0.001001,0.001419,-0.001674,0.584639,-0.241108,0.748505,0.199513,175.953664,76.268287,-147.467614
20075,-9.268894,-0.380268,-1.948002,0.567254,-0.237926,-0.353658,-0.375166,0.243930,-0.300877,-0.092718,-0.003700,-0.019360,0.999996,-0.001876,0.001220,-0.001504,0.583579,-0.243535,0.748472,0.199790,176.449710,76.142980,-146.733980
20076,-9.451864,-1.477671,-2.458317,0.877764,-1.360982,-0.068883,-0.452774,0.281440,-0.253208,-0.094572,-0.014712,-0.024417,0.999996,-0.002264,0.001407,-0.001266,0.582232,-0.246053,0.748522,0.200444,176.789816,75.993309,-146.114791
20077,-9.974146,-2.772921,-3.262305,1.163515,-2.763213,0.619284,-0.291995,0.317109,-0.246590,-0.099827,-0.027654,-0.032424,0.999997,-0.001460,0.001586,-0.001233,0.580938,-0.248105,0.748842,0.200476,177.195920,75.822097,-145.522074
20078,-9.879215,-2.808943,-3.658196,0.878396,-3.002518,0.631672,0.000085,0.261320,-0.229647,-0.098872,-0.027976,-0.036453,0.999998,0.000000,0.001307,-0.001148,0.580197,-0.249195,0.749308,0.199525,177.718423,75.681152,-144.981556
20079,-9.637468,-1.806001,-2.661230,0.994973,-1.621531,0.167552,0.257553,0.200151,-0.163350,-0.096416,-0.017947,-0.026539,0.999998,0.001288,0.001001,-0.000817,0.579937,-0.249221,0.749936,0.197884,178.220956,75.572786,-144.613598
20080,-9.259693,-1.016684,-2.988995,0.191601,-1.210431,-0.106622,0.262172,0.254875,-0.145841,-0.092642,-0.010060,-0.029785,0.999998,0.001311,0.001274,-0.000729,0.579460,-0.249231,0.750744,0.196200,178.689293,75.431908,-144.283540
20081,-10.110527,0.033445,-2.989208,-0.263673,-0.211837,0.725087,0.462242,0.237579,-0.191991,-0.101140,0.000500,-0.029771,0.999996,0.002311,0.001188,-0.000960,0.579337,-0.248806,0.751639,0.193659,179.359020,75.300718,-143.863560
20082,-9.889376,0.405776,-2.599868,-0.233338,0.319867,0.413104,0.564593,0.175303,-0.234322,-0.098912,0.004247,-0.025900,0.999995,0.002823,0.000877,-0.001172,0.579613,-0.248191,0.752391,0.190679,-179.825357,75.203763,-143.353196
20083,-9.523256,-0.400854,-3.416942,-0.476218,-0.808961,0.269333,0.728049,0.177250,-0.277735,-0.095268,-0.003752,-0.034099,0.999992,0.003640,0.000886,-0.001389,0.580117,-0.247255,0.753243,0.186962,-178.836942,75.103571,-142.760667
20084,-9.820473,0.317211,-3.522285,-0.943522,-0.183880,0.580787,1.030052,0.148220,-0.361956,-0.098225,0.003531,-0.035132,0.999985,0.005150,0.000741,-0.001810,0.581170,-0.245736,0.754170,0.181886,-177.498958,75.015161,-141.985233
20085,-9.956353,0.853084,-2.854699,-0.732029,0.720028,0.529029,1.272689,0.092162,-0.474587,-0.099556,0.008948,-0.028445,0.999977,0.006363,0.000461,-0.002373,0.582813,-0.243868,0.754990,0.175638,-175.793095,74.950036,-140.972508
20086,-11.291725,1.925289,-4.201403,-2.186498,1.173755,2.133096,1.293203,0.056682,-0.607789,-0.112869,0.019867,-0.041855,0.999974,0.006466,0.000283,-0.003039,0.584703,-0.242408,0.755523,0.168952,-173.794146,74.889461,-139.668184
20087,-11.411474,3.083046,-4.156636,-2.833756,2.304863,2.173123,1.677969,-0.098483,-0.783912,-0.113971,0.031625,-0.041359,0.999957,0.008390,-0.000492,-0.003920,0.587755,-0.240333,0.755665,0.160481,-171.178708,74.890595,-137.953406
20088,-10.486245,6.096353,-4.295888,-4.836288,4.741712,1.128273,1.731470,-0.170514,-0.914722,-0.104545,0.061812,-0.042515,0.999952,0.008657,-0.000853,-0.004574,0.591195,-0.238522,0.755412,0.151489,-168.229333,74.896803,-135.924577
20089,-10.502017,9.584545,-1.553019,-4.467952,9.246624,0.142265,1.640749,-0.172394,-1.040207,-0.104506,0.096513,-0.014830,0.999952,0.008204,-0.000862,-0.005201,0.594572,-0.237422,0.754863,0.142464,-165.079694,74.859814,-133.634268
20090,-11.356885,11.047720,-0.667818,-4.335416,11.246614,0.492187,1.209450,-0.074172,-1.167293,-0.112919,0.111175,-0.006049,0.999965,0.006047,-0.000371,-0.005836,0.597108,-0.238138,0.754087,0.134557,-162.001708,74.715426,-131.161166
20091,-13.462059,10.673753,-0.491101,-3.649759,11.591384,2.340969,0.706171,0.029926,-1.325518,-0.133910,0.107643,-0.004512,0.999972,0.003531,0.000150,-0.006628,0.598721,-0.241005,0.753047,0.127946,-159.039849,74.450953,-128.506979
20092,-14.259357,10.365046,0.142187,-2.890550,11.961242,2.810784,0.572294,-0.048529,-1.367722,-0.141881,0.104618,0.001686,0.999972,0.002861,-0.000243,-0.006839,0.600462,-0.244366,0.751595,0.121802,-156.112409,74.182966,-125.805426
20093,-13.140937,10.406904,1.897293,-1.672132,12.721043,1.140111,0.733418,-0.194090,-1.134906,-0.130835,0.104742,0.019229,0.999977,0.003667,-0.000970,-0.005674,0.602776,-0.246269,0.750050,0.115921,-153.477058,74.012096,-123.500641
20094,-11.428144,9.440256,0.654249,-2.520195,11.018829,-0.201163,0.652098,-0.022048,-0.865712,-0.113872,0.094874,0.006839,0.999985,0.003260,-0.000110,-0.004329,0.604166,-0.247491,0.749281,0.110947,-151.576404,73.800797,-121.909778
20095,-11.160214,9.925865,-0.185264,-3.513389,11.064906,-0.414277,0.750686,0.047906,-0.657169,-0.111276,0.099631,-0.001452,0.999988,0.003753,0.000240,-0.003286,0.605284,-0.247673,0.749015,0.106138,-150.082301,73.599040,-120.799698
20096,-10.664832,10.193229,1.513471,-2.226478,12.018175,-1.414076,0.825305,0.029411,-0.297449,-0.106494,0.102027,0.015571,0.999990,0.004127,0.000147,-0.001487,0.606361,-0.246255,0.749164,0.102170,-149.159372,73.505433,-120.328855
20097,-9.596148,9.890913,1.804821,-1.920583,11.651076,-2.482129,0.543046,-0.080730,0.241618,-0.096088,0.098744,0.018278,0.999996,0.002715,-0.000404,0.001208,0.607217,-0.243626,0.749486,0.101016,-149.184757,73.621949,-120.678183
20098,-9.545946,10.235623,2.298312,-1.603918,12.133120,-2.644085,0.394018,-0.172393,0.802037,-0.095889,0.101927,0.023102,0.999990,0.001970,-0.000862,0.004010,0.607945,-0.239281,0.750128,0.102248,-150.172900,73.946938,-121.940785
20099,-10.176690,9.962715,1.706037,-1.812336,11.717266,-1.741161,0.224538,-0.222619,1.262970,-0.102412,0.098963,0.017058,0.999979,0.001123,-0.001113,0.006315,0.608402,-0.233707,0.751056,0.105558,-152.078535,74.413866,-124.053587
20100,-10.749851,8.903074,1.580603,-1.241996,10.762261,-0.871245,0.074312,-0.245811,1.565014,-0.108210,0.088180,0.015706,0.999969,0.000372,-0.001229,0.007825,0.608581,-0.227408,0.752149,0.110393,-154.760318,74.949107,-126.876647
20101,-11.188818,8.282785,1.233727,-1.101661,10.015422,-0.128216,-0.273855,-0.268186,1.716969,-0.112610,0.081880,0.012074,0.999961,-0.001369,-0.001341,0.008585,0.608318,-0.221592,0.753099,0.116997,-158.120589,75.488726,-130.188018
20102,-11.819787,7.197673,1.015188,-0.611686,8.914032,0.803573,-0.550590,-0.312676,1.770666,-0.118845,0.070954,0.009770,0.999956,-0.002753,-0.001563,0.008853,0.607837,-0.216342,0.753749,0.124870,-161.985055,76.011031,-133.847965
20103,-11.830819,5.369382,0.534590,-0.101133,6.901050,1.207503,-0.707699,-0.377008,1.801606,-0.118795,0.052643,0.004935,0.999951,-0.003538,-0.001885,0.009008,0.607348,-0.211421,0.754067,0.133462,-166.231519,76.506431,-137.800466
20104,-11.717162,3.570003,0.184325,0.488970,4.936023,1.388322,-0.803366,-0.460785,1.839826,-0.117497,0.034626,0.001432,0.999947,-0.004017,-0.002304,0.009199,0.606990,-0.206537,0.754029,0.142634,-170.899058,76.981119,-142.121108
20105,-11.371582,2.226591,0.265658,1.191465,3.536958,1.160338,-0.870163,-0.509383,1.840221,-0.113920,0.021229,0.002273,0.999945,-0.004351,-0.002547,0.009201,0.606677,-0.201829,0.753714,0.152065,-175.883778,77.396538,-146.720110
20106,-10.534464,1.208803,0.107094,1.442655,2.267922,0.444965,-0.957018,-0.526124,1.817912,-0.105451,0.011134,0.000739,0.999944,-0.004785,-0.002631,0.009089,0.606291,-0.197400,0.753173,0.161785,178.829480,77.730047,-151.570579
20107,-10.124467,0.454564,-0.691511,1.104797,0.989800,0.236496,-0.979538,-0.497588,1.814519,-0.101262,0.003592,-0.007186,0.999944,-0.004898,-0.002488,0.009072,0.605705,-0.193085,0.752613,0.171504,173.332396,77.946344,-156.618070
20108,-9.908174,-0.501395,-0.663869,1.611242,-0.035406,-0.001291,-0.852190,-0.573025,1.831716,-0.099011,-0.005950,-0.006898,0.999945,-0.004261,-0.002865,0.009158,0.605448,-0.188200,0.751862,0.180879,167.650800,78.100094,-161.925124
20109,-9.126322,-1.878896,-0.925161,1.976388,-1.588825,-0.799220,-0.739485,-0.593199,1.857828,-0.091055,-0.019670,-0.009450,0.999946,-0.003697,-0.002966,0.009289,0.605277,-0.182871,0.751095,0.189878,161.882413,78.149817,-167.385006
20110,-8.330949,-2.507230,-1.662178,1.560780,-2.709821,-1.525838,-0.617834,-0.599184,1.887435,-0.083017,-0.025908,-0.016792,0.999946,-0.003089,-0.002996,0.009437,0.605151,-0.177003,0.750367,0.198524,156.085755,78.083333,-172.944990
20111,-7.781194,-2.361062,-1.907503,1.210954,-2.884024,-2.068419,-0.602305,-0.618951,1.895016,-0.077524,-0.024404,-0.019243,0.999946,-0.003011,-0.003095,0.009475,0.605033,-0.171054,0.749523,0.207101,150.393629,77.910956,-178.409829
20112,-7.609748,-2.853490,-2.076673,1.324817,-3.544769,-2.326676,-0.578097,-0.555575,1.853329,-0.075770,-0.029298,-0.020894,0.999949,-0.002890,-0.002778,0.009266,0.604683,-0.165204,0.748775,0.215412,145.082469,77.611791,176.496314
20113,-7.287465,-4.212197,-3.482682,0.818510,-5.571984,-2.653130,-0.639298,-0.500824,1.762209,-0.072412,-0.042873,-0.034872,0.999953,-0.003196,-0.002504,0.008811,0.604110,-0.159954,0.747982,0.223584,140.305229,77.226580,171.978510
20114,-7.367154,-5.820596,-4.193921,1.110905,-7.441572,-2.803456,-0.549280,-0.465913,1.644673,-0.073091,-0.058924,-0.041949,0.999960,-0.002746,-0.002330,0.008223,0.603560,-0.154868,0.747229,0.231040,136.123433,76.794507,168.011728
20115,-6.657113,-7.518970,-3.678300,2.287053,-8.672878,-3.987732,-0.441760,-0.431066,1.473100,-0.065935,-0.075758,-0.036759,0.999968,-0.002209,-0.002155,0.007365,0.603114,-0.150155,0.746523,0.237509,132.627630,76.361577,164.679576
20116,-5.707366,-9.568057,-3.922452,2.949834,-10.540242,-5.373427,-0.456815,-0.322340,1.224995,-0.056423,-0.096117,-0.039097,0.999977,-0.002284,-0.001612,0.006125,0.602515,-0.146511,0.745894,0.243212,129.881939,75.951667,162.123102
20117,-8.009419,-8.182083,-5.321962,1.655022,-10.361376,-2.789727,-0.434406,-0.199965,0.895416,-0.079673,-0.082294,-0.053121,0.999987,-0.002172,-0.001000,0.004477,0.601851,-0.144196,0.745398,0.247719,127.981878,75.621733,160.421335
20118,-8.646969,-7.667927,-5.073995,1.783285,-9.907230,-2.198321,-0.495836,-0.329029,0.536568,-0.086180,-0.077036,-0.050691,0.999992,-0.002479,-0.001645,0.002683,0.602060,-0.143221,0.744157,0.251480,126.356875,75.486440,159.038395
20119,-7.554331,-9.188818,-5.456326,2.040518,-11.317434,-3.565662,-0.694713,-0.264080,0.158506,-0.075398,-0.092137,-0.054343,0.999993,-0.003474,-0.001320,0.000793,0.602346,-0.144351,0.742585,0.254775,125.254037,75.498159,158.311909
20120,-9.316350,-9.509234,-7.772889,0.782863,-13.031022,-1.614104,-0.786901,-0.074078,-0.261215,-0.093259,-0.095276,-0.077389,0.999991,-0.003934,-0.000370,-0.001306,0.602389,-0.147541,0.741148,0.257020,124.969158,75.640910,158.485005
20121,-22.258396,-8.217002,-13.277699,-1.251577,-16.162154,12.015376,-1.794092,0.433892,-0.981605,-0.223274,-0.082259,-0.131555,0.999945,-0.008970,0.002169,-0.004908,0.600691,-0.157093,0.739373,0.260424,126.005289,75.951404,160.615675
20122,-17.365658,-27.907219,-13.775062,8.377285,-31.823834,3.866119,-1.877565,0.638266,-2.468078,-0.177526,-0.278171,-0.134574,0.999875,-0.009387,0.003191,-0.012340,0.600002,-0.172620,0.736800,0.259471,129.676925,76.841232,165.501455
20123,-15.481779,-10.883053,-22.119760,-7.828286,-22.473002,6.950892,-1.028481,2.027974,-3.230033,-0.158789,-0.107417,-0.219046,0.999805,-0.005142,0.010139,-0.016149,0.595721,-0.190162,0.738609,0.251816,138.333665,77.364667,174.987169
20124,-8.317327,-1.673611,2.537659,4.707147,0.024606,-2.312112,2.444943,-0.889348,-1.919262,-0.083442,-0.016242,0.024805,0.999869,0.012224,-0.004447,-0.009596,0.603672,-0.188788,0.737109,0.237927,142.129303,78.458476,177.437550
20125,-3.010661,3.287586,5.847207,3.433079,6.026569,-7.372106,0.830284,-0.790849,-0.626396,-0.030235,0.032728,0.058489,0.999979,0.004151,-0.003954,-0.003132,0.608108,-0.187607,0.735093,0.233765,142.607422,79.035200,177.441498
20126,-7.873379,-3.942298,1.225667,4.686124,-2.587222,-2.714765,0.498127,0.266964,-0.456596,-0.078807,-0.039274,0.012264,0.999993,0.002491,0.001335,-0.002283,0.608130,-0.188047,0.736044,0.230339,144.415595,79.066923,178.994026
20127,-11.984406,-3.553459,-4.490102,0.650495,-5.444760,2.284556,-0.291251,0.891496,-0.846266,-0.120192,-0.035091,-0.044314,0.999980,-0.001456,0.004457,-0.004231,0.605543,-0.193032,0.737599,0.228042,147.745564,78.912735,-177.442098
20128,-12.310541,-0.788388,-2.313264,0.941923,-1.773884,2.576247,-0.623124,0.701363,-1.318824,-0.123234,-0.007143,-0.022678,0.999967,-0.003116,0.003507,-0.006594,0.603846,-0.200543,0.737705,0.225706,151.727357,78.946479,-173.019542
20129,-9.880410,1.792645,-0.085403,0.758655,1.697397,0.055717,-0.947158,0.229678,-1.227542,-0.098693,0.018528,-0.000827,0.999969,-0.004736,0.001148,-0.006138,0.603422,-0.208146,0.736068,0.225304,154.698535,79.146110,-169.439013
20130,-8.127060,-2.988091,-0.255970,3.047521,-2.241568,-2.019727,-1.765105,0.439553,-0.858182,-0.081403,-0.029552,-0.002119,0.999949,-0.008825,0.002198,-0.004291,0.600910,-0.217082,0.734466,0.228785,156.528541,79.120400,-166.544263
20131,-10.215411,-9.254295,-3.929296,4.382712,-9.243088,0.226673,-1.591371,0.645285,-0.639960,-0.102575,-0.092522,-0.038226,0.999958,-0.007957,0.003226,-0.003200,0.597525,-0.224905,0.733851,0.232044,158.059124,78.921353,-164.054863
20132,-10.355908,-8.904159,-6.963276,1.972616,-10.695229,0.991729,-0.304769,0.595731,-0.588868,-0.104027,-0.088841,-0.069188,0.999990,-0.001524,0.002979,-0.002944,0.595681,-0.228636,0.734598,0.230772,160.066759,78.724218,-161.828872
20133,-10.044990,-5.028100,-6.997132,-0.487278,-7.595487,1.013827,0.966000,0.237541,-0.422420,-0.100639,-0.049730,-0.070093,0.999985,0.004830,0.001188,-0.002112,0.596396,-0.227543,0.735920,0.225739,161.951490,78.675255,-160.469800
20134,-9.082733,-2.137161,-4.090617,-0.231451,-3.550055,-0.265978,1.443984,0.020691,-0.160473,-0.090849,-0.021003,-0.041049,0.999974,0.007220,0.000103,-0.000802,0.598135,-0.223819,0.737401,0.219955,163.208741,78.692796,-160.029830
20135,-9.385529,-0.127894,-1.706242,0.462005,-0.470557,-0.295291,1.456001,0.085596,-0.055836,-0.093863,-0.001129,-0.017031,0.999973,0.007280,0.000428,-0.000279,0.599499,-0.219721,0.739169,0.214366,164.229588,78.655984,-159.838001
20136,-9.068317,2.510145,-0.068726,0.176583,2.629058,-0.779604,1.251263,0.190987,-0.065428,-0.090675,0.025134,-0.000443,0.999980,0.006256,0.000955,-0.000327,0.600233,-0.216388,0.740987,0.209368,165.243788,78.561808,-159.533218
20137,-9.009414,5.309449,0.342898,-1.067659,5.187457,-0.788972,0.697641,0.270930,-0.115890,-0.090058,0.053134,0.003736,0.999993,0.003488,0.001355,-0.000579,0.600108,-0.214968,0.742392,0.206189,166.113688,78.429351,-159.051893
20138,-9.533331,4.959528,0.857141,-0.335908,5.258724,-0.407958,-0.213514,0.295651,-0.165652,-0.095279,0.049683,0.008659,0.999998,-0.001068,0.001478,-0.000828,0.598958,-0.216502,0.742870,0.206204,166.607170,78.288861,-158.421615
20139,-9.854746,1.804959,-0.850876,0.156612,1.749867,0.087376,-0.929854,0.401152,-0.250958,-0.098542,0.018134,-0.008395,0.999986,-0.004649,0.002006,-0.001255,0.596719,-0.220592,0.742823,0.208517,166.961957,78.099628,-157.513376
20140,-9.137490,0.130256,-2.548619,-0.343606,-0.618785,-0.351977,-0.912528,0.459467,-0.318371,-0.091431,0.001332,-0.025282,0.999986,-0.004563,0.002297,-0.001592,0.594337,-0.224945,0.742872,0.210487,167.522901,77.885031,-156.403821
20141,-9.501279,-0.636139,-2.927978,-0.094948,-1.399026,0.050658,-0.607801,0.387940,-0.299659,-0.095079,-0.006308,-0.029076,0.999992,-0.003039,0.001940,-0.001498,0.592530,-0.228232,0.743035,0.211463,168.134948,77.705723,-155.419816
20142,-9.427497,-1.244729,-2.657739,0.482788,-1.708102,-0.099817,-0.217588,0.256772,-0.222105,-0.094323,-0.012371,-0.026443,0.999998,-0.001088,0.001284,-0.001111,0.591569,-0.229945,0.743303,0.211360,168.689591,77.589094,-154.722890
20143,-9.309761,-1.268444,-2.338383,0.734618,-1.523448,-0.279167,0.160176,0.251788,-0.158342,-0.093137,-0.012592,-0.023277,0.999999,0.000801,0.001259,-0.000792,0.590990,-0.230288,0.744027,0.210054,169.277135,77.466737,-154.213628
20144,-9.347675,-0.037598,-2.553591,-0.147860,-0.621950,-0.143537,0.482429,0.268801,-0.168469,-0.093511,-0.000236,-0.025411,0.999996,0.002412,0.001344,-0.000842,0.590727,-0.229743,0.745122,0.207490,170.078161,77.334550,-153.674560
20145,-9.741739,1.873188,-1.822116,-0.612446,1.427191,0.153167,0.616749,0.242592,-0.229848,-0.097418,0.018900,-0.018045,0.999994,0.003084,0.001213,-0.001149,0.590773,-0.228990,0.746204,0.204281,171.077142,77.221085,-153.011190
20146,-9.228584,3.459886,-0.695486,-0.743346,3.356609,-0.549767,0.387653,0.223559,-0.308316,-0.092240,0.034754,-0.006784,0.999996,0.001938,0.001118,-0.001542,0.590704,-0.229196,0.746896,0.201706,172.125663,77.122378,-152.162120
20147,-9.019910,2.720515,-1.604414,-1.069899,2.254282,-0.587314,-0.114105,0.305893,-0.384663,-0.090171,0.027369,-0.015922,0.999997,-0.000571,0.001529,-0.001923,0.589823,-0.231239,0.747235,0.200692,173.079220,76.979271,-151.115087
20148,-9.360203,1.559709,-3.054101,-1.469520,0.558948,0.031171,-0.327467,0.344303,-0.473905,-0.093617,0.015769,-0.030406,0.999994,-0.001637,0.001722,-0.002370,0.588639,-0.234291,0.747361,0.200159,174.122137,76.815904,-149.850155
20149,-9.123130,0.304781,-3.530102,-1.154922,-0.715660,-0.120430,-0.271838,0.267186,-0.509473,-0.091270,0.003232,-0.035183,0.999995,-0.001359,0.001336,-0.002547,0.587836,-0.237223,0.747269,0.199409,175.232786,76.693110,-148.547630
