PacketCounter,Acc_X,Acc_Y,Acc_Z,FreeAcc_E,FreeAcc_N,FreeAcc_U,Gyr_X,Gyr_Y,Gyr_Z,VelInc_X,VelInc_Y,VelInc_Z,OriInc_q0,OriInc_q1,OriInc_q2,OriInc_q3,Quat_q0,Quat_q1,Quat_q2,Quat_q3,Roll,Pitch,Yaw
48277,0.713517,4.029578,8.442181,-0.106579,-0.387112,-0.439546,0.168640,-0.162615,-0.149945,0.007097,0.040219,0.084462,0.999999,0.000843,-0.000813,-0.000750,0.249903,0.029595,-0.205353,-0.945782,23.807760,-2.674160,-150.961951
48278,0.835563,4.140889,8.487842,-0.173463,-0.501421,-0.346587,0.157003,-0.061984,-0.157189,0.008362,0.041336,0.084913,0.999999,0.000785,-0.000310,-0.000786,0.249128,0.029628,-0.206117,-0.945819,23.897549,-2.674060,-151.052980
48279,0.830138,4.227073,8.731061,-0.178369,-0.466323,-0.089550,0.111807,0.032736,-0.162317,0.008350,0.042215,0.087333,1.000000,0.000559,0.000164,-0.000812,0.248434,0.030054,-0.206553,-0.945893,23.960923,-2.623528,-151.124652
48280,0.780856,4.267429,8.955608,-0.167879,-0.387877,0.129392,0.075803,0.105585,-0.158793,0.007890,0.042634,0.089568,0.999999,0.000379,0.000528,-0.000794,0.247836,0.030780,-0.206725,-0.945989,24.002362,-2.535183,-151.177453
48281,0.504742,4.399878,9.255981,0.068205,-0.249576,0.444988,0.050608,0.137613,-0.141903,0.005142,0.043972,0.092567,0.999999,0.000253,0.000688,-0.000710,0.247356,0.031606,-0.206744,-0.946083,24.028939,-2.434415,-151.213866
48282,-0.037103,4.555489,9.562052,0.548205,-0.001739,0.764937,0.030726,0.093209,-0.117504,-0.000300,0.045540,0.095628,1.000000,0.000154,0.000466,-0.000588,0.246947,0.032174,-0.206725,-0.946175,24.043632,-2.362160,-151.247843
48283,-0.185494,4.705644,9.667332,0.722444,-0.012691,0.916372,0.000375,-0.020838,-0.083849,-0.001845,0.047057,0.096673,1.000000,0.000002,-0.000104,-0.000419,0.246586,0.032128,-0.206711,-0.946274,24.041618,-2.357837,-151.290822
48284,-0.001471,4.577818,9.593763,0.521053,-0.025785,0.804494,-0.012453,-0.150012,-0.049694,-0.000075,0.045784,0.095935,1.000000,-0.000062,-0.000750,-0.000248,0.246253,0.031423,-0.206798,-0.946365,24.032499,-2.428614,-151.346109
48285,0.162858,4.222324,9.246909,0.288181,0.055670,0.349678,0.020484,-0.254252,-0.009145,0.001513,0.042214,0.092475,0.999999,0.000102,-0.001271,-0.000046,0.246000,0.030220,-0.207179,-0.946387,24.042780,-2.563868,-151.404492
48286,0.440548,4.289002,8.878429,0.154588,-0.253285,0.052808,0.062361,-0.306627,0.009188,0.004267,0.042863,0.088804,0.999999,0.000312,-0.001533,0.000046,0.245772,0.028805,-0.207821,-0.946349,24.077064,-2.730275,-151.465608
48287,0.452983,4.202329,8.487145,0.187400,-0.319757,-0.338567,0.076026,-0.306976,0.025784,0.004394,0.041992,0.084894,0.999999,0.000380,-0.001535,0.000129,0.245620,0.027384,-0.208534,-0.946274,24.119209,-2.901214,-151.518209
48288,0.293791,4.176414,8.092838,0.396111,-0.354270,-0.716518,0.096504,-0.292787,0.029781,0.002813,0.041726,0.080953,0.999999,0.000483,-0.001464,0.000149,0.245497,0.026055,-0.209323,-0.946169,24.172740,-3.065124,-151.565566
48289,0.183475,4.155376,7.800403,0.544772,-0.378498,-0.997529,0.102898,-0.251954,0.033358,0.001730,0.041514,0.078028,0.999999,0.000514,-0.001260,0.000167,0.245434,0.024920,-0.210095,-0.946045,24.229669,-3.208993,-151.601583
48290,-0.070490,4.192389,7.603084,0.827802,-0.347023,-1.176584,0.089666,-0.202376,0.034384,-0.000789,0.041890,0.076049,0.999999,0.000448,-0.001012,0.000172,0.245428,0.024006,-0.210742,-0.945927,24.278252,-3.326642,-151.625552
48291,0.087125,4.060199,7.459872,0.661591,-0.360178,-1.352483,0.059444,-0.157195,0.028510,0.000807,0.040580,0.074611,1.000000,0.000297,-0.000786,0.000143,0.245446,0.023270,-0.211191,-0.945840,24.309279,-3.419825,-151.641970
48292,0.360806,3.824646,7.463920,0.320908,-0.294002,-1.429444,0.041962,-0.081211,0.014853,0.003575,0.038231,0.074649,1.000000,0.000210,-0.000406,0.000074,0.245480,0.022892,-0.211461,-0.945780,24.329588,-3.469522,-151.647669
48293,0.379973,3.519393,7.502522,0.160604,-0.041611,-1.518665,0.072711,0.011143,-0.010732,0.003806,0.035166,0.075038,1.000000,0.000364,0.000056,-0.000054,0.245489,0.023010,-0.211762,-0.945708,24.367080,-3.465547,-151.644862
48294,0.206162,3.323744,7.681103,0.190386,0.270800,-1.447311,0.154885,0.081479,-0.040987,0.002100,0.033178,0.076836,1.000000,0.000774,0.000407,-0.000205,0.245418,0.023599,-0.212360,-0.945577,24.451562,-3.417121,-151.641242
48295,-0.132165,3.316847,8.026970,0.416870,0.583470,-1.156076,0.282293,0.109744,-0.053975,-0.001269,0.033055,0.080317,0.999999,0.001411,0.000549,-0.000270,0.245302,0.024486,-0.213525,-0.945322,24.609085,-3.351473,-151.637506
48296,-0.261771,3.731256,8.353660,0.647617,0.468028,-0.694800,0.391616,0.066822,-0.056875,-0.002579,0.037150,0.083610,0.999998,0.001958,0.000334,-0.000284,0.245111,0.025313,-0.215257,-0.944957,24.829854,-3.306838,-151.645429
48297,0.165291,4.252248,8.617972,0.445446,-0.010664,-0.211660,0.401488,0.022019,-0.060505,0.001675,0.042349,0.086265,0.999998,0.002007,0.000110,-0.000303,0.244853,0.025939,-0.217090,-0.944588,25.057065,-3.285215,-151.665849
48298,0.532778,4.321135,8.626949,0.131920,-0.205121,-0.152422,0.362003,0.010098,-0.070967,0.005347,0.043053,0.086347,0.999998,0.001810,0.000050,-0.000355,0.244536,0.026478,-0.218748,-0.944272,25.262056,-3.266439,-151.694602
48299,0.911662,4.333961,8.640189,-0.217104,-0.363201,-0.112786,0.312438,0.043826,-0.088380,0.009155,0.043201,0.086467,0.999999,0.001562,0.000219,-0.000442,0.244181,0.027128,-0.220130,-0.944025,25.438734,-3.226543,-151.723965
48300,1.029317,4.432448,8.779769,-0.320484,-0.420555,0.062068,0.257487,0.113910,-0.093063,0.010364,0.044207,0.087849,0.999999,0.001287,0.000570,-0.000465,0.243886,0.028053,-0.221164,-0.943832,25.583030,-3.148487,-151.738391
48301,0.420333,4.614949,9.053799,0.229051,-0.151277,0.354431,0.220888,0.148305,-0.062772,0.004285,0.046048,0.090586,0.999999,0.001104,0.000742,-0.000314,0.243779,0.029056,-0.221989,-0.943636,25.705047,-3.060825,-151.728353
48302,0.174971,4.855767,9.251466,0.501092,-0.133387,0.624257,0.148066,0.094845,-0.008806,0.001796,0.048489,0.092550,1.000000,0.000740,0.000474,-0.000044,0.243875,0.029663,-0.222541,-0.943462,25.784568,-3.013547,-151.703668
48303,0.347740,4.743227,9.285866,0.284384,-0.105955,0.615847,0.072128,0.045798,0.063958,0.003484,0.047400,0.092875,1.000000,0.000361,0.000229,0.000320,0.244273,0.029861,-0.222808,-0.943290,25.819261,-3.010395,-151.653526
48304,0.529874,4.559312,9.156302,0.063892,-0.096596,0.429019,0.024509,0.010179,0.129423,0.005274,0.045585,0.091568,1.000000,0.000123,0.000051,0.000647,0.244945,0.029765,-0.222901,-0.943096,25.825376,-3.041286,-151.578553
48305,0.808104,4.388863,8.937312,-0.215196,-0.182241,0.172861,-0.000678,0.021946,0.168050,0.008054,0.043896,0.089372,1.000000,-0.000003,0.000110,0.000840,0.245818,0.029644,-0.222869,-0.942881,25.815762,-3.076428,-151.480606
48306,1.006982,4.208476,8.724986,-0.431249,-0.223658,-0.085681,-0.015603,0.080843,0.170294,0.010069,0.042100,0.087243,1.000000,-0.000078,0.000404,0.000851,0.246767,0.029786,-0.222692,-0.942670,25.796755,-3.081066,-151.366857
48307,0.974683,4.151556,8.686808,-0.422832,-0.184034,-0.146592,-0.009610,0.148919,0.142686,0.009782,0.041527,0.086859,0.999999,-0.000048,0.000745,0.000713,0.247663,0.030282,-0.222457,-0.942475,25.781023,-3.044327,-151.250298
48308,0.757122,4.224832,8.720685,-0.211854,-0.131296,-0.096173,-0.022355,0.221839,0.110094,0.007645,0.042262,0.087194,0.999999,-0.000112,0.001109,0.000550,0.248486,0.031147,-0.222065,-0.942323,25.758084,-2.961209,-151.132481
48309,0.577626,4.224419,8.866075,-0.091850,0.001393,0.024903,-0.044964,0.263047,0.067162,0.005879,0.042266,0.088644,0.999999,-0.000225,0.001315,0.000336,0.249158,0.032220,-0.221509,-0.942240,25.722957,-2.846677,-151.026563
48310,0.345725,4.173278,8.933577,0.060009,0.164028,0.052099,-0.059621,0.289610,0.030145,0.003580,0.041760,0.089318,0.999999,-0.000298,0.001448,0.000151,0.249684,0.033446,-0.220843,-0.942214,25.680319,-2.708591,-150.933328
48311,0.341186,4.179428,9.054294,0.027439,0.190901,0.163635,-0.066794,0.296668,-0.011059,0.003548,0.041824,0.090524,0.999999,-0.000334,0.001483,-0.000055,0.250027,0.034737,-0.220129,-0.942244,25.634668,-2.557137,-150.859692
48312,0.369933,4.176967,9.250585,-0.054401,0.237663,0.341017,-0.039318,0.306675,-0.031066,0.003848,0.041787,0.092492,0.999999,-0.000197,0.001533,-0.000155,0.250279,0.036136,-0.219527,-0.942265,25.605334,-2.394928,-150.794095
48313,0.134780,4.259280,9.595233,0.103482,0.409105,0.677784,0.017044,0.281260,-0.018684,0.001487,0.042584,0.095954,0.999999,0.000085,0.001406,-0.000093,0.250553,0.037467,-0.219224,-0.942210,25.608437,-2.249482,-150.728372
48314,0.152476,4.558449,9.861979,0.154498,0.264146,1.048605,0.057127,0.212754,0.021429,0.001625,0.045556,0.098631,0.999999,0.000286,0.001064,0.000107,0.250931,0.038487,-0.219202,-0.942074,25.634499,-2.148785,-150.658929
48315,0.227838,4.775218,10.015758,0.144875,0.117641,1.283942,0.068434,0.122962,0.072867,0.002323,0.047719,0.100172,1.000000,0.000342,0.000615,0.000364,0.251452,0.039036,-0.219357,-0.941876,25.666968,-2.107856,-150.585074
48316,0.641611,4.803142,9.868659,-0.180873,-0.162429,1.178817,0.044478,0.050087,0.114800,0.006413,0.048013,0.098696,1.000000,0.000222,0.000250,0.000574,0.252093,0.039172,-0.219498,-0.941666,25.685588,-2.114384,-150.507703
48317,0.685742,4.693740,9.708846,-0.237769,-0.157912,0.989240,0.035050,0.015876,0.148012,0.006830,0.046925,0.097096,1.000000,0.000175,0.000079,0.000740,0.252857,0.039093,-0.219645,-0.941430,25.698470,-2.147464,-150.421611
48318,0.639189,4.710104,9.592992,-0.162967,-0.188115,0.890452,0.030922,-0.002628,0.156591,0.006354,0.047091,0.095937,1.000000,0.000155,-0.000013,0.000783,0.253640,0.038916,-0.219796,-0.941192,25.708930,-2.191665,-150.335755
48319,0.446119,4.670193,9.508637,0.010210,-0.089553,0.789943,0.008432,-0.035051,0.152414,0.004409,0.046701,0.095089,1.000000,0.000042,-0.000175,0.000762,0.254373,0.038559,-0.219883,-0.940988,25.706828,-2.252154,-150.260060
48320,0.499914,4.535523,9.362319,-0.060850,-0.065101,0.602012,-0.010323,-0.055646,0.135643,0.004942,0.045363,0.093622,1.000000,-0.000052,-0.000278,0.000678,0.255007,0.038104,-0.219903,-0.940831,25.694450,-2.318540,-150.198201
48321,0.508051,4.426330,9.272408,-0.089963,-0.016221,0.474182,-0.014822,-0.067093,0.123198,0.005022,0.044273,0.092722,1.000000,-0.000074,-0.000335,0.000616,0.255571,0.037598,-0.219916,-0.940695,25.679797,-2.388289,-150.145540
48322,0.609553,4.280957,9.149371,-0.211926,0.000969,0.304833,-0.002737,-0.059107,0.101510,0.006047,0.042814,0.091495,1.000000,-0.000014,-0.000296,0.000508,0.256039,0.037174,-0.219969,-0.940572,25.672402,-2.447978,-150.102147
48323,0.680302,4.323284,9.062637,-0.229266,-0.097146,0.248276,0.012301,-0.039358,0.085169,0.006767,0.043230,0.090630,1.000000,0.000062,-0.000197,0.000426,0.256450,0.036875,-0.220066,-0.940449,25.673730,-2.493952,-150.062229
48324,0.640870,4.403116,9.061868,-0.152260,-0.136511,0.280567,0.004936,-0.012725,0.059257,0.006390,0.044031,0.090620,1.000000,0.000025,-0.000064,0.000296,0.256769,0.036725,-0.220089,-0.940363,25.671108,-2.519229,-150.029140
48325,0.486135,4.523699,9.056757,0.042138,-0.154079,0.321389,-0.013228,0.012929,0.037646,0.004859,0.045244,0.090564,1.000000,-0.000066,0.000065,0.000188,0.257018,0.036691,-0.219990,-0.940319,25.658283,-2.526402,-150.000792
48326,0.367138,4.461825,9.074414,0.115098,-0.042819,0.305247,-0.039494,0.016657,0.008000,0.003677,0.044636,0.090735,1.000000,-0.000197,0.000083,0.000040,0.257136,0.036678,-0.219756,-0.940342,25.631051,-2.523796,-149.986898
48327,0.329068,4.212747,9.046140,0.038778,0.152984,0.170462,-0.037196,0.008379,-0.007614,0.003296,0.042144,0.090453,1.000000,-0.000186,0.000042,-0.000038,0.257173,0.036643,-0.219542,-0.940383,25.605573,-2.522085,-149.983078
48328,0.540821,4.233980,8.997483,-0.124932,0.009442,0.145128,0.006671,0.006824,-0.015415,0.005415,0.042336,0.089976,1.000000,0.000033,0.000034,-0.000077,0.257161,0.036669,-0.219534,-0.940387,25.605432,-2.518745,-149.983733
48329,0.486559,4.326471,9.016945,-0.039995,-0.026239,0.200209,0.039382,0.016184,-0.020861,0.004877,0.043246,0.090178,1.000000,0.000197,0.000081,-0.000104,0.257130,0.036782,-0.219668,-0.940360,25.624045,-2.509720,-149.984830
48330,0.112076,4.361275,9.035330,0.293732,0.145848,0.215418,0.084663,-0.000477,0.000213,0.001120,0.043574,0.090372,1.000000,0.000423,-0.000002,0.000001,0.257170,0.036857,-0.220039,-0.940260,25.668312,-2.514039,-149.979213
48331,0.070023,4.599684,9.096789,0.429207,0.017598,0.372057,0.115872,-0.052903,0.040725,0.000667,0.045944,0.090995,1.000000,0.000579,-0.000265,0.000204,0.257338,0.036677,-0.220632,-0.940082,25.730103,-2.555983,-149.965651
48332,0.180565,4.635990,8.969637,0.377730,-0.101316,0.278221,0.110386,-0.103441,0.087782,0.001739,0.046311,0.089723,1.000000,0.000552,-0.000517,0.000439,0.257671,0.036204,-0.221272,-0.939858,25.788227,-2.635213,-149.940479
48333,0.581179,4.577132,8.822327,0.039257,-0.298287,0.138735,0.110714,-0.124678,0.123717,0.005728,0.045726,0.088252,0.999999,0.000554,-0.000623,0.000619,0.258150,0.035588,-0.221948,-0.939591,25.845864,-2.734912,-149.902080
48334,0.656698,4.446994,8.708545,-0.056683,-0.263929,-0.016113,0.124213,-0.102424,0.166241,0.006485,0.044421,0.087116,0.999999,0.000621,-0.000512,0.000831,0.258850,0.035051,-0.222666,-0.939249,25.909889,-2.833286,-149.836325
48335,0.803481,4.365918,8.565944,-0.187627,-0.313897,-0.171709,0.157971,-0.070728,0.199090,0.007961,0.043599,0.085697,0.999999,0.000790,-0.000354,0.000995,0.259734,0.034666,-0.223507,-0.938819,25.991851,-2.924178,-149.745729
48336,0.740789,4.523540,8.627535,-0.065140,-0.358706,-0.049870,0.178866,-0.025447,0.223138,0.007346,0.045166,0.086317,0.999999,0.000894,-0.000127,0.001116,0.260776,0.034497,-0.224390,-0.938325,26.084507,-2.997453,-149.631525
48337,0.603448,4.648119,8.593539,0.121469,-0.379642,-0.032137,0.161114,0.015988,0.244819,0.005985,0.046419,0.085972,0.999999,0.000806,0.000080,0.001224,0.261970,0.034472,-0.225140,-0.937814,26.165650,-3.055548,-149.495728
48338,0.386452,4.602721,8.623276,0.283556,-0.206516,-0.036584,0.144888,0.037032,0.274241,0.003817,0.045970,0.086265,0.999999,0.000724,0.000185,0.001371,0.263327,0.034494,-0.225791,-0.937276,26.236381,-3.109979,-149.339587
48339,0.442339,4.513179,8.629728,0.194493,-0.147845,-0.067076,0.154199,0.034729,0.305492,0.004370,0.045072,0.086331,0.999999,0.000771,0.000174,0.001527,0.264827,0.034479,-0.226494,-0.936685,26.311324,-3.174186,-149.167948
48340,0.557633,4.505908,8.524851,0.115002,-0.226905,-0.157506,0.156347,0.043794,0.330478,0.005521,0.045002,0.085282,0.999998,0.000782,0.000219,0.001652,0.266451,0.034484,-0.227198,-0.936053,26.386609,-3.239840,-148.981295
48341,0.761269,4.486912,8.487082,-0.058098,-0.317078,-0.187796,0.146778,0.073409,0.338211,0.007568,0.044820,0.084901,0.999998,0.000734,0.000367,0.001691,0.268147,0.034603,-0.227818,-0.935414,26.455415,-3.292982,-148.783108
48342,0.902253,4.397058,8.438193,-0.212003,-0.330108,-0.262957,0.136299,0.124169,0.327780,0.009003,0.043928,0.084406,0.999998,0.000681,0.000621,0.001639,0.269852,0.034960,-0.228319,-0.934788,26.517827,-3.317196,-148.577412
48343,0.884377,4.337156,8.465252,-0.234597,-0.256932,-0.266355,0.125466,0.192433,0.302442,0.008860,0.043332,0.084671,0.999998,0.000627,0.000962,0.001512,0.271518,0.035647,-0.228672,-0.934193,26.573580,-3.300602,-148.367169
48344,0.609772,4.380034,8.698009,-0.034192,-0.045068,-0.055195,0.143490,0.253850,0.294287,0.006144,0.043747,0.087004,0.999998,0.000717,0.001269,0.001471,0.273211,0.036658,-0.229023,-0.933574,26.639315,-3.250263,-148.145384
48345,0.021496,4.456248,8.917947,0.446325,0.305189,0.142011,0.167687,0.244222,0.327410,0.000251,0.044488,0.089216,0.999998,0.000838,0.001221,0.001637,0.275043,0.037615,-0.229505,-0.932879,26.718065,-3.214065,-147.908971
48346,-0.147965,4.622258,8.941293,0.656483,0.295261,0.228015,0.194210,0.165286,0.367061,-0.001490,0.046133,0.089459,0.999998,0.000971,0.000826,0.001835,0.276962,0.038199,-0.230227,-0.932110,26.812256,-3.228402,-147.672662
48347,-0.000570,4.822506,8.937316,0.628797,0.087231,0.322851,0.199832,0.098599,0.419712,-0.000063,0.048136,0.089421,0.999997,0.000999,0.000493,0.002099,0.279048,0.038415,-0.231075,-0.931268,26.908762,-3.291282,-147.426633
48348,0.175901,4.772497,8.847334,0.476656,0.017121,0.229993,0.196382,0.039716,0.478068,0.001663,0.047642,0.088520,0.999997,0.000982,0.000199,0.002390,0.281335,0.038289,-0.231999,-0.930355,27.002304,-3.399295,-147.166235
48349,0.679069,4.746970,8.679059,0.084958,-0.278302,0.098729,0.215344,0.009535,0.524009,0.006671,0.047394,0.086841,0.999996,0.001077,0.000048,0.002620,0.283797,0.037991,-0.233061,-0.929354,27.105000,-3.535628,-146.890303
48350,1.093344,4.799583,8.607492,-0.208763,-0.544805,0.085790,0.226184,0.044285,0.556678,0.010819,0.047929,0.086127,0.999995,0.001131,0.000221,0.002783,0.286445,0.037836,-0.234128,-0.928279,27.211922,-3.662779,-146.588878
48351,1.159824,4.841780,8.596443,-0.230332,-0.592244,0.101091,0.214195,0.107557,0.570234,0.011507,0.048359,0.086010,0.999995,0.001071,0.000538,0.002851,0.289230,0.037937,-0.235049,-0.927178,27.309612,-3.762314,-146.263995
48352,0.680606,4.949979,8.772258,0.193265,-0.309790,0.276151,0.210624,0.168242,0.596937,0.006732,0.049428,0.087769,0.999995,0.001053,0.000841,0.002985,0.292207,0.038287,-0.235870,-0.926021,27.403103,-3.838089,-145.909706
48353,0.223765,4.884103,8.883833,0.517836,0.064358,0.314240,0.217838,0.135551,0.647715,0.002140,0.048751,0.088890,0.999994,0.001089,0.000678,0.003239,0.295378,0.038431,-0.236777,-0.924777,27.498703,-3.944931,-145.538192
48354,0.405514,4.848530,8.781938,0.379720,-0.025695,0.219769,0.220342,0.078199,0.687803,0.003923,0.048402,0.087871,0.999993,0.001102,0.000391,0.003439,0.298660,0.038270,-0.237787,-0.923469,27.594899,-4.091683,-145.161720
48355,0.610746,4.608223,8.631561,0.128520,-0.004257,-0.009833,0.220526,0.053895,0.712678,0.005967,0.046008,0.086365,0.999993,0.001103,0.000269,0.003563,0.302025,0.037962,-0.238833,-0.922116,27.689400,-4.258476,-144.779139
48356,0.806765,4.378470,8.501619,-0.114937,0.020751,-0.216560,0.257964,0.067901,0.707089,0.007942,0.043703,0.085070,0.999993,0.001290,0.000340,0.003535,0.305368,0.037787,-0.240029,-0.920711,27.804574,-4.416892,-144.395986
48357,0.926779,4.274441,8.479230,-0.256643,0.044793,-0.275437,0.306583,0.101454,0.681585,0.009165,0.042646,0.084853,0.999993,0.001533,0.000507,0.003408,0.308622,0.037865,-0.241387,-0.919267,27.946596,-4.552821,-144.016950
48358,0.914586,4.305527,8.480291,-0.229427,0.061910,-0.261100,0.355185,0.144342,0.641965,0.009069,0.042934,0.084873,0.999993,0.001776,0.000722,0.003210,0.311730,0.038267,-0.242893,-0.917803,28.116727,-4.656963,-143.646844
48359,0.606007,4.620732,8.685086,0.141259,0.146556,0.041631,0.377847,0.184348,0.603961,0.006001,0.046061,0.086932,0.999993,0.001889,0.000922,0.003020,0.314706,0.038930,-0.244428,-0.916351,28.299629,-4.732206,-143.285294
48360,0.257425,4.922317,8.855413,0.540688,0.255021,0.304443,0.349116,0.168434,0.578410,0.002507,0.049076,0.088638,0.999994,0.001746,0.000842,0.002892,0.317544,0.039509,-0.245850,-0.914966,28.467377,-4.809162,-142.941314
48361,0.306735,4.960509,8.904113,0.506897,0.254692,0.368770,0.296292,0.105153,0.560078,0.002976,0.049482,0.089113,0.999995,0.001481,0.000526,0.002800,0.320230,0.039733,-0.247123,-0.913676,28.606253,-4.914323,-142.624038
48362,0.558652,4.874324,8.826435,0.277766,0.159746,0.280593,0.258497,0.065875,0.556177,0.005480,0.048644,0.088325,0.999995,0.001292,0.000329,0.002781,0.322852,0.039726,-0.248284,-0.912438,28.724317,-5.038357,-142.319861
48363,0.799030,4.693554,8.744997,0.009133,0.130939,0.143495,0.265724,0.030865,0.551695,0.007875,0.046841,0.087511,0.999995,0.001329,0.000154,0.002758,0.325407,0.039571,-0.249530,-0.911197,28.846553,-5.179879,-142.027732
48364,1.133624,4.714461,8.801797,-0.250170,-0.030775,0.233170,0.308136,0.039512,0.561771,0.011221,0.047041,0.088088,0.999995,0.001541,0.000198,0.002809,0.328005,0.039517,-0.250956,-0.909875,28.992063,-5.320013,-141.728503
48365,0.846056,4.851340,8.975325,0.015238,0.169106,0.423464,0.368752,0.036972,0.612964,0.008329,0.048373,0.089841,0.999994,0.001844,0.000185,0.003065,0.330819,0.039481,-0.252668,-0.908383,29.168856,-5.477036,-141.404449
48366,0.941049,5.015112,8.945934,0.047369,0.035691,0.485999,0.389248,-0.013140,0.662895,0.009239,0.050008,0.089557,0.999993,0.001946,-0.000066,0.003314,0.333785,0.039192,-0.254563,-0.906779,29.355708,-5.673605,-141.069939
48367,1.277259,5.140866,8.798844,-0.094314,-0.272234,0.453585,0.363498,-0.027926,0.695773,0.012582,0.051293,0.088084,0.999992,0.001817,-0.000140,0.003479,0.336884,0.038746,-0.256367,-0.905143,29.525085,-5.888354,-140.723511
48368,1.519908,5.060738,8.700121,-0.290994,-0.373510,0.355348,0.311718,0.000931,0.696878,0.015023,0.050524,0.087080,0.999993,0.001559,0.000005,0.003484,0.340028,0.038346,-0.257887,-0.903551,29.663026,-6.089473,-140.368884
48369,1.426136,5.002120,8.606893,-0.217653,-0.282378,0.237510,0.255372,0.056478,0.666254,0.014119,0.049958,0.086129,0.999994,0.001277,0.000282,0.003331,0.343113,0.038136,-0.259046,-0.902061,29.767177,-6.255489,-140.013911
48370,1.060525,4.918207,8.576746,0.028318,0.019804,0.130792,0.225593,0.097427,0.632308,0.010492,0.049119,0.085818,0.999994,0.001128,0.000487,0.003162,0.346097,0.038107,-0.259993,-0.900649,29.854296,-6.391631,-139.664474
48371,0.492930,4.855284,8.630301,0.414086,0.475712,0.081807,0.218647,0.087405,0.614022,0.004818,0.048473,0.086354,0.999995,0.001093,0.000437,0.003070,0.348986,0.038040,-0.260918,-0.899269,29.937610,-6.528481,-139.327054
48372,0.591133,4.801556,8.444059,0.361463,0.393366,-0.095639,0.227651,0.019431,0.596868,0.005776,0.047937,0.084495,0.999995,0.001138,0.000097,0.002984,0.351701,0.037709,-0.261997,-0.897910,30.028812,-6.694199,-139.018024
48373,1.019911,5.056273,8.282613,0.246785,-0.081444,-0.058706,0.247548,0.009227,0.603909,0.010050,0.050491,0.082888,0.999995,0.001238,0.000046,0.003020,0.354428,0.037353,-0.263180,-0.896505,30.130099,-6.867979,-138.708486
48374,1.423116,5.137256,8.172913,0.036121,-0.410615,-0.063680,0.253137,0.026462,0.639108,0.014078,0.051314,0.081792,0.999994,0.001266,0.000132,0.003196,0.357329,0.037043,-0.264363,-0.895017,30.231314,-7.043411,-138.376704
48375,1.984898,5.341919,8.106519,-0.222515,-0.904420,0.052606,0.246574,0.107995,0.685103,0.019710,0.053387,0.081120,0.999993,0.001233,0.000540,0.003426,0.360543,0.037020,-0.265375,-0.893429,30.321704,-7.192830,-137.998308
48376,2.156990,5.606536,8.069506,-0.158859,-1.171046,0.177615,0.202473,0.235410,0.753540,0.021454,0.056065,0.080727,0.999992,0.001012,0.001177,0.003768,0.364231,0.037399,-0.265971,-0.891738,30.377428,-7.299115,-137.548837
48377,2.255084,5.807114,8.028741,-0.076168,-1.360395,0.257672,0.155526,0.376813,0.835227,0.022460,0.058103,0.080290,0.999989,0.000778,0.001884,0.004176,0.368476,0.038210,-0.266107,-0.889917,30.394715,-7.359895,-137.017192
48378,2.031844,5.810866,8.079857,0.093430,-1.182821,0.275465,0.123806,0.507002,0.965963,0.020242,0.058157,0.080783,0.999985,0.000619,0.002535,0.004830,0.373470,0.039370,-0.265884,-0.887849,30.380654,-7.393928,-136.382437
48379,1.725619,5.749994,8.064503,0.298420,-0.941362,0.192369,0.107014,0.585601,1.109904,0.017173,0.057552,0.080625,0.999980,0.000535,0.002928,0.005549,0.379199,0.040651,-0.265456,-0.885488,30.343833,-7.430819,-135.652753
48380,1.449840,5.683727,8.125594,0.454401,-0.680251,0.175446,0.125124,0.660147,1.254211,0.014410,0.056877,0.081244,0.999975,0.000626,0.003301,0.006271,0.385644,0.042107,-0.264987,-0.882773,30.305354,-7.471888,-134.829422
48381,1.125105,5.254488,8.077402,0.429241,-0.222625,-0.123204,0.157527,0.667651,1.352925,0.011165,0.052557,0.080778,0.999971,0.000788,0.003338,0.006765,0.392507,0.043522,-0.264650,-0.879775,30.277320,-7.537525,-133.954352
48382,1.202031,5.051526,8.028217,0.267681,-0.175842,-0.256931,0.190187,0.679347,1.367850,0.011948,0.050521,0.080290,0.999970,0.000951,0.003397,0.006839,0.399420,0.045033,-0.264425,-0.876650,30.266267,-7.601188,-133.068457
48383,1.070653,4.661182,7.948179,0.122228,0.105233,-0.537967,0.223887,0.701043,1.314145,0.010679,0.046593,0.079496,0.999972,0.001119,0.003505,0.006571,0.406097,0.046772,-0.264272,-0.873532,30.275753,-7.638791,-132.202760
48384,0.754918,4.414096,8.031735,0.133522,0.510952,-0.632056,0.268595,0.705408,1.222900,0.007563,0.044079,0.080350,0.999974,0.001343,0.003527,0.006114,0.412347,0.048742,-0.264275,-0.870490,30.317104,-7.648052,-131.381496
48385,0.619408,4.445738,8.039825,0.227866,0.606742,-0.627539,0.293487,0.666645,1.093910,0.006219,0.044373,0.080443,0.999978,0.001467,0.003333,0.005470,0.417960,0.050759,-0.264417,-0.867650,30.382060,-7.640081,-130.635721
48386,0.770919,4.577678,8.041981,0.205366,0.432495,-0.539411,0.256433,0.646432,0.958865,0.007750,0.045711,0.080453,0.999982,0.001282,0.003232,0.004794,0.422951,0.052791,-0.264401,-0.865111,30.436479,-7.603472,-129.963403
48387,0.793154,4.362422,8.039212,0.023521,0.522561,-0.646713,0.229936,0.644329,0.836138,0.008008,0.043565,0.080417,0.999985,0.001150,0.003222,0.004181,0.427404,0.054915,-0.264229,-0.862840,30.483791,-7.533078,-129.352711
48388,0.971486,4.254565,7.958711,-0.159307,0.401351,-0.746284,0.250727,0.632725,0.736071,0.009810,0.042482,0.079609,0.999987,0.001254,0.003164,0.003680,0.431391,0.057168,-0.264140,-0.860734,30.551485,-7.439641,-128.795467
48389,1.111174,4.264290,7.934895,-0.255746,0.272180,-0.743956,0.306764,0.650119,0.666924,0.011228,0.042558,0.079378,0.999988,0.001534,0.003251,0.003335,0.435078,0.059703,-0.264225,-0.858678,30.655416,-7.318547,-128.267305
48390,0.519459,4.308408,8.149765,0.033274,0.795059,-0.613910,0.422847,0.649122,0.639980,0.005322,0.042929,0.081571,0.999987,0.002114,0.003246,0.003200,0.438601,0.062524,-0.264800,-0.856505,30.829322,-7.191059,-127.752835
48391,0.526781,4.645877,8.208083,0.208408,0.658832,-0.391614,0.502264,0.567807,0.612871,0.005359,0.046269,0.082182,0.999988,0.002511,0.002839,0.003064,0.441866,0.065201,-0.265874,-0.854292,31.053729,-7.097585,-127.275448
48392,1.130608,4.918350,8.050027,0.055147,0.002417,-0.311730,0.480117,0.536399,0.545477,0.011388,0.049021,0.080588,0.999990,0.002401,0.002682,0.002727,0.444797,0.067788,-0.266899,-0.852247,31.272017,-7.001035,-126.840635
48393,1.369848,4.583882,7.862152,-0.300175,-0.103101,-0.614805,0.432567,0.558798,0.445232,0.013816,0.045699,0.078682,0.999991,0.002163,0.002794,0.002226,0.447341,0.070493,-0.267629,-0.850466,31.468477,-6.865514,-126.448094
48394,1.393789,4.177144,7.652720,-0.573800,-0.023021,-1.002162,0.455362,0.601487,0.327512,0.014100,0.041620,0.076580,0.999992,0.002277,0.003007,0.001638,0.449423,0.073590,-0.268317,-0.848887,31.684937,-6.674942,-126.100320
48395,1.241557,4.189995,7.593682,-0.503487,0.062024,-1.066037,0.543078,0.642952,0.212439,0.012615,0.041707,0.076010,0.999991,0.002715,0.003215,0.001062,0.451034,0.077209,-0.269234,-0.847419,31.957315,-6.431195,-125.795513
48396,1.103124,4.484242,7.555027,-0.256691,0.017269,-0.961859,0.607518,0.691090,0.118023,0.011266,0.044619,0.075647,0.999989,0.003038,0.003455,0.000590,0.452275,0.081307,-0.270277,-0.846042,32.271868,-6.136625,-125.521096
48397,1.181526,4.519931,7.343122,-0.263544,-0.154534,-1.114789,0.653613,0.720581,0.040338,0.012071,0.044962,0.073535,0.999988,0.003268,0.003603,0.000202,0.453199,0.085734,-0.271407,-0.844747,32.616623,-5.805749,-125.273660
48398,1.622147,4.296077,7.008820,-0.619765,-0.555694,-1.474954,0.704162,0.791385,-0.041480,0.016508,0.042710,0.070174,0.999986,0.003521,0.003957,-0.000207,0.453839,0.090686,-0.272552,-0.843517,32.993908,-5.416707,-125.041921
48399,1.931090,4.085015,6.668973,-0.890716,-0.864776,-1.853431,0.796415,0.935482,-0.149503,0.019653,0.040570,0.066760,0.999981,0.003982,0.004677,-0.000748,0.454165,0.096596,-0.273697,-0.842314,33.425686,-4.926557,-124.814069
48400,2.013925,4.176326,6.536391,-0.910223,-1.053183,-1.920709,0.900910,1.136130,-0.282741,0.020570,0.041440,0.065435,0.999973,0.004505,0.005681,-0.001414,0.454132,0.103769,-0.274754,-0.841134,33.919700,-4.300144,-124.582334
48401,1.794034,4.473221,6.604166,-0.713949,-1.021261,-1.732518,0.966683,1.359576,-0.423889,0.018484,0.044374,0.066132,0.999963,0.004833,0.006798,-0.002119,0.453750,0.112216,-0.275486,-0.840015,34.453047,-3.524596,-124.340041
48402,1.225874,4.656617,6.699257,-0.435772,-0.655819,-1.600201,1.041913,1.566323,-0.531790,0.012907,0.046183,0.067134,0.999952,0.005209,0.007831,-0.002659,0.453119,0.121842,-0.275984,-0.838850,35.032218,-2.618897,-124.073787
48403,0.626724,5.067803,6.827476,-0.023077,-0.360494,-1.294661,1.160693,1.722693,-0.585283,0.007004,0.050261,0.068509,0.999942,0.005803,0.008613,-0.002926,0.452360,0.132453,-0.276562,-0.837460,35.682056,-1.625262,-123.771081
48404,0.119102,5.650912,6.941722,0.433194,-0.224506,-0.874386,1.266409,1.838657,-0.577869,0.001994,0.056063,0.069757,0.999934,0.006332,0.009193,-0.002889,0.451666,0.143763,-0.277294,-0.835726,36.397258,-0.584177,-123.414242
48405,-0.378892,6.149586,7.172686,0.739959,-0.020677,-0.386309,1.349682,1.909620,-0.523831,-0.002941,0.061018,0.072171,0.999928,0.006748,0.009548,-0.002619,0.451175,0.155462,-0.278211,-0.833589,37.166164,0.466328,-122.994809
48406,-0.875560,6.603621,7.440178,0.967913,0.215381,0.124268,1.402654,1.928603,-0.453384,-0.007886,0.065530,0.074941,0.999926,0.007013,0.009643,-0.002267,0.450897,0.167240,-0.279325,-0.831084,37.974457,1.494887,-122.522320
48407,-1.161948,7.076684,7.786987,1.027642,0.294206,0.719145,1.406266,1.896048,-0.360942,-0.010750,0.070236,0.078470,0.999929,0.007031,0.009480,-0.001805,0.450891,0.178737,-0.280560,-0.828274,38.794106,2.469206,-122.005036
48408,-1.460118,7.523690,8.074604,1.089606,0.379635,1.259846,1.372364,1.829842,-0.273439,-0.013756,0.074699,0.081388,0.999934,0.006862,0.009149,-0.001367,0.451121,0.189738,-0.281848,-0.825258,39.604880,3.374978,-121.458709
48409,-1.673385,8.405386,8.444114,1.327923,0.229166,2.142788,1.214342,1.743936,-0.205205,-0.015908,0.083555,0.085091,0.999943,0.006072,0.008720,-0.001026,0.451608,0.199906,-0.282704,-0.822293,40.333534,4.210514,-120.901360
48410,-2.102947,8.900508,9.177909,1.223517,0.521559,3.075396,0.837224,1.603800,-0.221104,-0.020192,0.088642,0.092315,0.999958,0.004186,0.008019,-0.001106,0.452162,0.208653,-0.282286,-0.819956,40.850615,4.984987,-120.393745
48411,-2.186419,8.024608,9.296246,0.487512,0.910237,2.618176,0.354560,1.429412,-0.293680,-0.021081,0.080112,0.093257,0.999972,0.001773,0.007147,-0.001468,0.452647,0.215679,-0.280185,-0.818590,41.088532,5.707857,-119.977730
48412,-2.346449,6.778543,9.587451,-0.494513,1.554655,2.049451,0.113681,1.248867,-0.371093,-0.022739,0.067774,0.096057,0.999979,0.000568,0.006244,-0.001855,0.452798,0.221523,-0.277413,-0.817890,41.183728,6.380964,-119.661147
48413,-2.290994,4.793080,9.134222,-1.552328,2.150726,0.415687,0.049510,1.048289,-0.517634,-0.022307,0.047966,0.091472,0.999983,0.000248,0.005241,-0.002588,0.452127,0.226592,-0.274655,-0.817803,41.228871,7.022358,-119.483133
48414,-1.898258,4.796353,8.942301,-1.701324,1.670640,0.231533,0.323067,0.924191,-0.690207,-0.018404,0.047883,0.089586,0.999982,0.001615,0.004621,-0.003451,0.450252,0.232005,-0.273095,-0.817842,41.417837,7.675571,-119.425771
48415,-1.941694,5.563121,8.691825,-1.146376,1.225211,0.553107,0.449897,0.806374,-0.816387,-0.018839,0.055513,0.087120,0.999981,0.002249,0.004032,-0.004082,0.447539,0.237381,-0.272159,-0.818100,41.666064,8.325690,-119.465644
48416,-1.248081,6.179302,8.186155,-0.892296,0.150555,0.479749,0.506601,0.815487,-0.934887,-0.011858,0.061642,0.082067,0.999978,0.002533,0.004077,-0.004674,0.444267,0.243077,-0.271284,-0.818502,41.939868,9.025481,-119.550271
48417,-1.344126,6.993935,8.033233,-0.369655,-0.267827,0.913186,0.451264,0.883488,-1.034143,-0.012725,0.069825,0.080547,0.999974,0.002256,0.004417,-0.005171,0.440728,0.249048,-0.269897,-0.819078,42.178413,9.792314,-119.648237
48418,-2.005357,7.328445,7.982675,0.075539,0.022515,1.207404,0.331709,0.910363,-1.051688,-0.019304,0.073255,0.080037,0.999974,0.001659,0.004552,-0.005258,0.437280,0.254880,-0.267926,-0.819779,42.348368,10.577951,-119.740690
48419,-2.313523,6.867216,7.885441,-0.071700,0.366901,0.890103,0.178922,0.897782,-1.022926,-0.022429,0.068717,0.079018,0.999976,0.000895,0.004489,-0.005115,0.434107,0.260272,-0.265380,-0.820599,42.431011,11.347045,-119.824168
48420,-2.286658,6.595658,7.757334,-0.239867,0.331970,0.615078,0.180133,0.908424,-1.037519,-0.022171,0.066003,0.077735,0.999976,0.000901,0.004542,-0.005188,0.430865,0.265721,-0.262785,-0.821396,42.513232,12.126724,-119.908829
48421,-2.702917,6.783214,7.953498,-0.144496,0.518048,0.970861,0.211423,0.869632,-1.011917,-0.026339,0.067882,0.079722,0.999977,0.001057,0.004348,-0.005060,0.427618,0.271029,-0.260423,-0.822111,42.611322,12.879915,-119.996817
48422,-2.775021,6.996663,7.845919,-0.002463,0.341152,1.054443,0.231291,0.818627,-0.959889,-0.027093,0.070007,0.078652,0.999979,0.001156,0.004093,-0.004799,0.424471,0.276093,-0.258312,-0.822722,42.720647,13.591921,-120.081483
48423,-2.811334,7.394728,8.010575,0.042005,0.097100,1.445299,0.219807,0.779072,-0.872349,-0.027478,0.073980,0.080295,0.999982,0.001099,0.003895,-0.004362,0.421635,0.280844,-0.256348,-0.823187,42.827802,14.253032,-120.142942
48424,-2.988016,7.629862,8.219341,0.038273,0.063052,1.793083,0.145907,0.707173,-0.785331,-0.029289,0.076354,0.082353,0.999986,0.000730,0.003536,-0.003927,0.419153,0.285026,-0.254345,-0.823638,42.894568,14.850492,-120.194719
48425,-3.157988,7.271318,8.284976,-0.182443,0.309558,1.648366,0.056547,0.592331,-0.716201,-0.031074,0.072802,0.082963,0.999989,0.000283,0.002962,-0.003581,0.416929,0.288450,-0.252308,-0.824201,42.905282,15.372453,-120.262564
48426,-3.169183,6.709293,8.350308,-0.572731,0.541001,1.330230,-0.003439,0.473070,-0.690687,-0.031262,0.067203,0.083576,0.999991,-0.000017,0.002365,-0.003453,0.414737,0.291223,-0.250304,-0.824943,42.871152,15.834767,-120.367832
48427,-3.134973,6.238080,8.260252,-0.817537,0.671219,0.950863,0.018851,0.377493,-0.732084,-0.030965,0.062487,0.082667,0.999992,0.000094,0.001887,-0.003660,0.412216,0.293691,-0.248526,-0.825868,42.832971,16.272621,-120.530499
48428,-3.140144,6.095448,8.196285,-0.879060,0.669497,0.816169,0.024256,0.290111,-0.818694,-0.031033,0.061072,0.082015,0.999991,0.000121,0.001451,-0.004093,0.409213,0.295916,-0.246817,-0.827079,42.775691,16.707728,-120.767360
48429,-3.060862,5.864322,7.882236,-0.851309,0.604312,0.424418,-0.001146,0.252953,-0.939674,-0.030233,0.058786,0.078860,0.999988,-0.000006,0.001265,-0.004698,0.405694,0.298074,-0.244897,-0.828607,42.681773,17.173534,-121.073705
48430,-3.240089,6.178279,7.760660,-0.541570,0.478794,0.597594,0.028203,0.237706,-1.041933,-0.031986,0.061939,0.077654,0.999986,0.000141,0.001189,-0.005210,0.401677,0.300350,-0.242968,-0.830308,42.586270,17.672515,-121.433059
48431,-3.491297,6.242665,7.549389,-0.263793,0.529089,0.570140,-0.008780,0.199128,-1.046754,-0.034510,0.062611,0.075526,0.999986,-0.000044,0.000996,-0.005234,0.397639,0.302386,-0.240952,-0.832099,42.460611,18.156007,-121.812222
48432,-3.338366,6.318307,7.126901,-0.030222,0.210856,0.277526,-0.055778,0.184388,-1.024706,-0.032994,0.063373,0.071282,0.999986,-0.000279,0.000922,-0.005124,0.393734,0.304234,-0.238793,-0.833902,42.305377,18.624282,-122.189874
48433,-2.974767,5.370621,6.456210,-0.254301,0.278502,-0.911413,-0.016563,0.246976,-1.081487,-0.029377,0.053871,0.064594,0.999985,-0.000083,0.001235,-0.005407,0.389598,0.306478,-0.236584,-0.835651,42.168930,19.139639,-122.569815
48434,-3.504687,5.241533,6.368784,-0.019217,0.683763,-0.876841,0.121286,0.308042,-1.157226,-0.034645,0.052578,0.063773,0.999982,0.000606,0.001540,-0.005786,0.384992,0.309327,-0.234705,-0.837264,42.104082,19.709854,-122.961253
48435,-3.680767,5.794678,6.175377,0.439990,0.384882,-0.597529,0.260596,0.310104,-1.169208,-0.036373,0.058080,0.061886,0.999981,0.001303,0.001551,-0.005846,0.380110,0.312453,-0.233382,-0.838703,42.113403,20.284940,-123.358912
48436,-3.835537,6.934926,6.481973,0.813910,-0.219412,0.390692,0.208513,0.297346,-1.166395,-0.037854,0.069503,0.064949,0.999981,0.001043,0.001487,-0.005832,0.375291,0.315415,-0.231857,-0.840186,42.087021,20.853950,-123.762153
48437,-4.200654,6.278574,6.997248,0.283152,0.447230,0.470617,-0.033208,0.211067,-1.208449,-0.041552,0.063049,0.070006,0.999981,-0.000166,0.001055,-0.006042,0.370564,0.317595,-0.229407,-0.842133,41.898016,21.401147,-124.222629
48438,-4.569277,4.740716,7.355072,-0.524381,1.635919,-0.091699,-0.148757,0.083520,-1.433524,-0.045320,0.047788,0.073534,0.999974,-0.000744,0.000418,-0.007168,0.364909,0.319272,-0.226335,-0.844796,41.579192,21.978277,-124.843464
48439,-5.254677,4.426413,7.517975,-0.415018,2.267791,0.107408,-0.128428,-0.096730,-1.775474,-0.052187,0.044777,0.075126,0.999960,-0.000642,-0.000484,-0.008877,0.357550,0.320587,-0.223122,-0.848292,41.175396,22.603259,-125.703458
48440,-5.032623,4.514608,7.137769,-0.207889,1.868518,-0.162770,-0.045645,-0.239339,-1.907228,-0.049978,0.045640,0.071307,0.999954,-0.000228,-0.001197,-0.009536,0.349309,0.321568,-0.220279,-0.852088,40.760027,23.210984,-126.692302
48441,-4.329738,6.453116,6.914550,0.444555,-0.079140,0.579388,0.073904,-0.304380,-1.813860,-0.042815,0.064895,0.069104,0.999958,0.000370,-0.001522,-0.009069,0.341173,0.322347,-0.218195,-0.855619,40.408096,23.748844,-127.671815
48442,-3.651052,8.279419,6.994266,0.804376,-1.915406,1.433700,-0.192774,-0.289106,-1.674441,-0.035916,0.083164,0.069810,0.999963,-0.000964,-0.001446,-0.008372,0.334052,0.322562,-0.215146,-0.859113,39.921286,24.235990,-128.586633
48443,-3.948247,7.027616,7.006549,0.426978,-0.985722,0.813321,-0.576908,-0.258234,-1.560589,-0.039022,0.070783,0.069811,0.999965,-0.002885,-0.001291,-0.007803,0.328050,0.322120,-0.210569,-0.862718,39.232346,24.685893,-129.442481
48444,-4.641536,5.054369,7.067137,-0.027147,0.748713,0.009332,-0.619902,-0.283828,-1.532780,-0.046125,0.051117,0.070448,0.999965,-0.003099,-0.001419,-0.007664,0.322651,0.321564,-0.205692,-0.866132,38.509523,25.106309,-130.242293
48445,-4.800317,4.631934,7.059376,-0.063375,1.038927,-0.156181,-0.440056,-0.352469,-1.476832,-0.047783,0.046828,0.070407,0.999969,-0.002200,-0.001762,-0.007384,0.316652,0.320800,-0.201968,-0.869498,37.882399,25.465200,-131.110826
48446,-4.499357,4.641595,6.856547,-0.062723,0.701609,-0.415666,-0.219691,-0.393287,-1.357102,-0.044812,0.046796,0.068426,0.999974,-0.001098,-0.001966,-0.006785,0.311253,0.320190,-0.199251,-0.872295,37.392421,25.757639,-131.876295
48447,-4.086477,5.679519,6.665528,0.271452,-0.437841,-0.162838,-0.102974,-0.384911,-1.271180,-0.040631,0.057088,0.066548,0.999978,-0.000515,-0.001925,-0.006356,0.305546,0.319575,-0.197356,-0.874965,36.985404,26.016639,-132.664232
48448,-4.143319,5.991198,6.780063,0.368251,-0.694449,0.107608,-0.212416,-0.339680,-1.263296,-0.041168,0.060244,0.067667,0.999978,-0.001062,-0.001698,-0.006316,0.300076,0.318973,-0.194911,-0.877622,36.519643,26.288966,-133.435015
48449,-4.655291,4.643095,6.665147,0.241120,0.532753,-0.468629,-0.335377,-0.324955,-1.376472,-0.046340,0.046862,0.066498,0.999974,-0.001677,-0.001625,-0.006882,0.294309,0.318342,-0.191720,-0.880502,35.954716,26.599527,-134.263086
48450,-5.260430,3.644624,6.997263,0.035544,1.621308,-0.469985,-0.306938,-0.369826,-1.612650,-0.052437,0.036977,0.069819,0.999965,-0.001535,-0.001849,-0.008063,0.287393,0.317766,-0.188327,-0.883721,35.335588,26.961053,-135.237303
48451,-6.076849,3.007132,7.481927,0.034558,2.577842,-0.050417,-0.281287,-0.503054,-1.948280,-0.060659,0.030768,0.074624,0.999948,-0.001406,-0.002515,-0.009741,0.278806,0.316923,-0.184695,-0.887533,34.618854,27.359444,-136.445555
48452,-6.475490,2.916103,7.945619,0.026230,2.826916,0.462223,-0.237097,-0.695061,-2.289384,-0.064690,0.029996,0.079196,0.999928,-0.001185,-0.003475,-0.011447,0.268421,0.315570,-0.180956,-0.891976,33.797907,27.763083,-137.916498
48453,-6.707938,3.150416,8.376639,0.080231,2.692589,1.042258,-0.211442,-0.926276,-2.531018,-0.067060,0.032441,0.083422,0.999909,-0.001057,-0.004631,-0.012655,0.256668,0.313384,-0.177239,-0.896938,32.878204,28.111482,-139.612320
48454,-6.583571,3.692083,8.586743,0.164629,2.054126,1.432619,-0.186895,-1.158336,-2.650099,-0.065834,0.037873,0.085451,0.999895,-0.000934,-0.005791,-0.013250,0.244083,0.310237,-0.173699,-0.902222,31.889434,28.360092,-141.465894
48455,-6.238079,4.244627,8.720519,0.146738,1.267458,1.647959,-0.209020,-1.356632,-2.658708,-0.062398,0.043367,0.086737,0.999888,-0.001045,-0.006783,-0.013293,0.231273,0.306105,-0.170259,-0.907648,30.845501,28.484297,-143.399016
48456,-5.789691,4.473808,8.536991,0.141983,0.651635,1.410847,-0.217409,-1.500473,-2.602070,-0.057946,0.045584,0.084886,0.999887,-0.001087,-0.007502,-0.013010,0.218554,0.301198,-0.166986,-0.913033,29.784679,28.490725,-145.351610
48457,-5.294661,4.603553,8.335023,0.066204,0.113851,1.081290,-0.213977,-1.575079,-2.522284,-0.053014,0.046793,0.082883,0.999889,-0.001070,-0.007875,-0.012611,0.206087,0.295816,-0.163903,-0.918236,28.738870,28.404960,-147.281110
48458,-4.915759,4.485871,8.150395,-0.025149,-0.129815,0.708575,-0.200410,-1.589504,-2.449807,-0.049248,0.045543,0.081067,0.999893,-0.001002,-0.007947,-0.012249,0.193872,0.290262,-0.160959,-0.923176,27.722589,28.262713,-149.169938
48459,-4.549031,4.199451,7.705231,-0.014330,-0.245165,0.068490,-0.126134,-1.540747,-2.397399,-0.045574,0.042589,0.076675,0.999898,-0.000631,-0.007703,-0.011987,0.181795,0.284899,-0.158363,-0.927742,26.778347,28.102178,-151.007638
48460,-4.495875,3.989387,7.449384,0.125445,-0.237127,-0.244609,-0.015519,-1.455825,-2.355283,-0.045025,0.040430,0.074163,0.999904,-0.000078,-0.007279,-0.011776,0.169783,0.279944,-0.156221,-0.931880,25.926377,27.950037,-152.791227
48461,-4.371272,3.852655,7.213327,0.198945,-0.307788,-0.547280,0.120769,-1.346906,-2.319569,-0.043747,0.038990,0.071862,0.999910,0.000604,-0.006734,-0.011597,0.157804,0.275529,-0.154653,-0.935555,25.183895,27.822615,-154.517978
48462,-4.190353,3.963016,7.026053,0.229214,-0.600459,-0.745371,0.238330,-1.184991,-2.266907,-0.041867,0.040021,0.070060,0.999918,0.001192,-0.005925,-0.011334,0.146004,0.271880,-0.153544,-0.938716,24.546795,27.749120,-156.166838
48463,-4.310905,4.076554,6.843020,0.473342,-0.781763,-0.801955,0.314839,-1.016224,-2.271873,-0.042990,0.041147,0.068276,0.999921,0.001574,-0.005081,-0.011359,0.134187,0.269036,-0.152649,-0.941441,23.975986,27.748786,-157.771593
48464,-4.806920,4.422491,7.163919,0.768895,-0.956349,-0.196035,0.294647,-0.871467,-2.281344,-0.047873,0.044666,0.071496,0.999924,0.001473,-0.004357,-0.011406,0.122439,0.266829,-0.151516,-0.943851,23.406370,27.813195,-159.345270
48465,-4.954651,3.969786,7.191101,0.812000,-0.586498,-0.272482,0.225496,-0.827821,-2.197363,-0.049404,0.040160,0.071751,0.999930,0.001127,-0.004139,-0.010987,0.111198,0.264680,-0.150130,-0.946066,22.824759,27.866985,-160.858712
48466,-4.776480,4.059158,7.172076,0.690674,-0.818711,-0.347896,0.274355,-0.795823,-2.023686,-0.047637,0.040976,0.071587,0.999940,0.001372,-0.003979,-0.010118,0.100720,0.262549,-0.149159,-0.947985,22.321009,27.887560,-162.261828
48467,-4.288949,4.904065,7.406561,0.246823,-1.765354,-0.110924,0.214114,-0.722414,-1.843324,-0.042703,0.049356,0.073964,0.999950,0.001071,-0.003612,-0.009216,0.091224,0.260568,-0.148095,-0.949658,21.842442,27.896900,-163.538480
48468,-3.658707,4.942801,7.344196,-0.266503,-2.044725,-0.458422,0.051800,-0.579903,-1.657972,-0.036389,0.049711,0.073349,0.999961,0.000259,-0.002899,-0.008290,0.082914,0.259035,-0.146416,-0.951099,21.337525,27.934096,-164.670203
48469,-3.169879,4.603411,7.224684,-0.669167,-1.932549,-0.910292,-0.098528,-0.357640,-1.469967,-0.031488,0.046302,0.072168,0.999971,-0.000493,-0.001788,-0.007350,0.075852,0.258337,-0.144171,-0.952220,20.823450,28.041791,-165.636806
48470,-3.256156,4.258920,7.110629,-0.587430,-1.676818,-1.086588,-0.132734,-0.121574,-1.286582,-0.032330,0.042845,0.071058,0.999979,-0.000664,-0.000608,-0.006433,0.069872,0.258608,-0.141898,-0.952945,20.363706,28.232445,-166.440678
48471,-4.057354,4.448520,7.739646,-0.247762,-1.608930,-0.142993,-0.178089,0.064079,-1.126748,-0.040297,0.044782,0.077370,0.999984,-0.000890,0.000320,-0.005634,0.064844,0.259622,-0.139552,-0.953371,19.940641,28.485384,-167.108108
48472,-4.797786,4.412521,8.303589,0.056213,-1.372202,0.654019,-0.251668,0.095193,-1.025628,-0.047711,0.044475,0.083003,0.999986,-0.001258,0.000476,-0.005128,0.060411,0.260685,-0.136966,-0.953747,19.503485,28.731597,-167.710620
48473,-5.228907,3.722659,8.601258,0.212455,-0.647599,0.897872,-0.378337,0.033425,-0.942364,-0.052098,0.037635,0.085950,0.999987,-0.001892,0.000167,-0.004712,0.056498,0.261348,-0.133906,-0.954240,19.009019,28.923898,-168.278236
48474,-4.849162,2.895177,8.105227,0.092654,-0.114458,0.065015,-0.274109,-0.024983,-0.941043,-0.048364,0.029291,0.081006,0.999988,-0.001371,-0.000125,-0.004705,0.052413,0.261758,-0.131353,-0.954716,18.565345,29.080634,-168.860379
48475,-4.986019,2.288645,8.040092,0.210639,0.407848,-0.090019,-0.182401,-0.009742,-0.980587,-0.049751,0.023204,0.080377,0.999988,-0.000912,-0.000049,-0.004903,0.048030,0.262281,-0.129184,-0.955098,18.161734,29.248591,-169.465935
48476,-5.599033,1.608094,7.705710,0.879337,1.026980,-0.247911,0.091333,-0.029019,-1.062079,-0.055915,0.016343,0.077056,0.999986,0.000457,-0.000145,-0.005310,0.042883,0.262827,-0.128211,-0.955324,17.884961,29.417793,-170.128775
48477,-7.560517,2.437794,9.445574,1.671263,0.844161,2.386367,0.247694,-0.155643,-1.277398,-0.075521,0.024744,0.094427,0.999979,0.001238,-0.000778,-0.006387,0.036422,0.262927,-0.127730,-0.955629,17.616898,29.552319,-170.953607
48478,-9.359399,2.072409,10.755007,2.575882,1.628267,4.268322,0.028816,-0.699337,-1.529223,-0.093807,0.021425,0.107225,0.999965,0.000144,-0.003497,-0.007646,0.028693,0.260540,-0.125959,-0.956781,17.091747,29.428142,-172.044864
48479,-7.658880,0.522044,10.281110,1.479822,2.676140,2.648333,0.001985,-1.316645,-1.692076,-0.077216,0.005871,0.102304,0.999943,0.000010,-0.006583,-0.008460,0.019831,0.255271,-0.123929,-0.958689,16.451806,28.982008,-173.350471
48480,-5.021199,0.560746,8.917714,0.012566,1.954565,0.248611,0.165872,-1.533097,-1.808505,-0.050841,0.005992,0.088794,0.999929,0.000829,-0.007665,-0.009042,0.010063,0.249025,-0.122535,-0.960662,15.866591,28.423927,-174.757153
48481,-3.481500,1.185742,8.132395,-0.859744,0.981889,-0.983285,0.298331,-1.439981,-1.875927,-0.035287,0.012066,0.081089,0.999929,0.001492,-0.007200,-0.009379,-0.000136,0.243234,-0.121678,-0.962305,15.363642,27.915167,-176.176091
48482,-3.480063,2.383536,8.183869,-0.871564,-0.207169,-0.649457,0.428837,-1.251328,-1.825473,-0.035094,0.023980,0.081671,0.999936,0.002144,-0.006257,-0.009127,-0.010139,0.238292,-0.121486,-0.963512,14.978993,27.494195,-177.521554
48483,-4.045289,3.588858,8.494860,-0.548898,-1.318289,0.155632,0.357245,-1.161496,-1.644672,-0.040649,0.036071,0.084777,0.999948,0.001786,-0.005807,-0.008223,-0.019127,0.233645,-0.121163,-0.964554,14.625204,27.088164,-178.730818
48484,-4.652129,4.948935,8.971807,-0.301197,-2.561241,1.140687,0.181229,-1.182553,-1.442845,-0.046693,0.049745,0.089487,0.999956,0.000906,-0.005913,-0.007214,-0.026950,0.228772,-0.120206,-0.965654,14.236261,26.635250,-179.810834
48485,-4.806361,4.526853,9.007994,-0.074735,-2.215603,1.133634,-0.119218,-1.253249,-1.260342,-0.048340,0.045626,0.089750,0.999960,-0.000596,-0.006266,-0.006302,-0.033585,0.223466,-0.117995,-0.966960,13.733689,26.109709,179.220577
48486,-4.030360,3.417938,8.620710,-0.399289,-1.307399,0.205941,-0.240415,-1.286875,-1.106730,-0.040667,0.034507,0.085905,0.999963,-0.001202,-0.006434,-0.005534,-0.039362,0.217914,-0.115349,-0.968328,13.212781,25.537724,178.351491
48487,-3.610982,2.237971,8.225089,-0.382864,-0.316817,-0.568662,-0.140411,-1.183609,-1.021322,-0.036481,0.022623,0.082020,0.999969,-0.000702,-0.005918,-0.005107,-0.044769,0.212774,-0.113300,-0.969477,12.790201,25.005437,177.559470
48488,-4.564498,1.567789,8.600676,0.500880,0.329373,0.031300,0.072001,-1.057470,-1.001337,-0.046020,0.015877,0.085770,0.999973,0.000360,-0.005287,-0.005007,-0.050234,0.208179,-0.112317,-0.970321,12.510268,24.537249,176.803685
48489,-6.554527,1.552002,9.598955,2.015009,0.424003,1.731535,0.272804,-1.177797,-1.033720,-0.066028,0.015730,0.095623,0.999968,0.001364,-0.005889,-0.005169,-0.056127,0.202951,-0.112244,-0.971114,12.339264,24.002560,176.017121
48490,-6.566741,1.735897,9.936116,1.999654,0.261566,2.052915,0.356019,-1.517548,-1.076471,-0.066325,0.017538,0.098891,0.999955,0.001780,-0.007588,-0.005382,-0.062502,0.196064,-0.112422,-0.972118,12.196700,23.281469,175.164345
48491,-3.541796,1.966751,9.113394,-0.359516,0.024026,0.153998,0.339913,-1.696235,-1.071085,-0.036084,0.019705,0.090863,0.999948,0.001700,-0.008481,-0.005355,-0.068926,0.188287,-0.112465,-0.973216,12.051058,22.457093,174.298762
48492,-1.805527,2.138090,8.572220,-1.670535,-0.130892,-0.952358,0.384019,-1.527941,-0.983830,-0.018605,0.021307,0.085622,0.999957,0.001920,-0.007640,-0.004919,-0.074868,0.181252,-0.112848,-0.974068,11.971361,21.715701,173.513876
48493,-3.135731,2.538249,9.203837,-0.620329,-0.504741,0.204578,0.421054,-1.345483,-0.854020,-0.031868,0.025324,0.091878,0.999966,0.002105,-0.006727,-0.004270,-0.080101,0.175000,-0.113593,-0.974708,11.961107,21.059955,172.835197
48494,-4.775513,2.374668,9.904458,0.825542,-0.382337,1.399518,0.368495,-1.441730,-0.736421,-0.048380,0.023742,0.098741,0.999966,0.001842,-0.007209,-0.003682,-0.084766,0.168225,-0.114134,-0.975443,11.949420,20.336683,172.217732
48495,-3.989127,2.036936,9.772355,0.350373,-0.019057,0.931426,0.360601,-1.630905,-0.665015,-0.040619,0.020328,0.097431,0.999960,0.001803,-0.008154,-0.003325,-0.089175,0.160472,-0.114612,-0.976299,11.949241,19.498339,171.622466
48496,-2.151575,1.748954,9.057987,-0.945910,0.310795,-0.392376,0.350433,-1.628716,-0.653825,-0.022196,0.017403,0.090432,0.999960,0.001752,-0.008143,-0.003269,-0.093516,0.152721,-0.115037,-0.977086,11.954023,18.660465,171.036857
48497,-1.696315,1.774532,8.657056,-1.138500,0.246532,-0.890077,0.395046,-1.449058,-0.678070,-0.017530,0.017633,0.086480,0.999966,0.001975,-0.007245,-0.003390,-0.097897,0.145825,-0.115742,-0.977627,11.995956,17.925848,170.462074
48498,-2.404136,2.066046,8.596973,-0.416104,-0.158215,-0.660783,0.465073,-1.263432,-0.679745,-0.024514,0.020543,0.085864,0.999972,0.002325,-0.006317,-0.003399,-0.102225,0.139797,-0.116866,-0.977931,12.090972,17.296520,169.910613
48499,-3.385841,2.312051,8.845835,0.486821,-0.493793,-0.087634,0.482100,-1.203414,-0.639698,-0.034316,0.023017,0.088308,0.999974,0.002410,-0.006017,-0.003198,-0.106327,0.134019,-0.118131,-0.978151,12.211321,16.696550,169.391046
48500,-3.980257,2.671615,9.140570,0.993938,-0.869634,0.423758,0.476703,-1.259160,-0.568864,-0.040301,0.026613,0.091217,0.999973,0.002383,-0.006296,-0.002844,-0.110107,0.127927,-0.119376,-0.978397,12.343050,16.058250,168.905796
48501,-3.240886,2.668294,8.973625,0.446730,-0.780106,0.053409,0.448852,-1.337169,-0.464497,-0.032946,0.026558,0.089577,0.999972,0.002244,-0.006686,-0.002322,-0.113399,0.121395,-0.120508,-0.978714,12.478637,15.364119,168.471550
48502,-2.933954,2.582645,8.919376,0.307927,-0.655490,-0.101472,0.484117,-1.351677,-0.297773,-0.029903,0.025655,0.089055,0.999973,0.002421,-0.006758,-0.001489,-0.115900,0.114669,-0.121894,-0.979061,12.663390,14.642750,168.131202
48503,-4.053224,2.805196,9.491149,1.334816,-0.927438,0.757831,0.621261,-1.434808,-0.048513,-0.041205,0.027768,0.094704,0.999969,0.003106,-0.007174,-0.000243,-0.117302,0.107294,-0.124043,-0.979460,12.963849,13.844169,167.921873
48504,-3.589117,4.060883,9.839916,0.674586,-1.909443,1.236870,0.541616,-1.642937,0.131324,-0.036725,0.040319,0.098209,0.999962,0.002708,-0.008215,0.000657,-0.117903,0.098833,-0.125765,-0.980058,13.237909,12.907701,167.784382
48505,-2.064130,2.924893,9.234098,-0.213001,-0.689980,0.064579,0.314358,-1.704248,0.208822,-0.021458,0.029082,0.092206,0.999962,0.001572,-0.008521,0.001044,-0.118040,0.090144,-0.126369,-0.980801,13.391582,11.926741,167.679996
48506,-0.652001,2.567200,8.785559,-1.249459,-0.190968,-0.724107,0.226533,-1.598249,0.132368,-0.007239,0.025568,0.087829,0.999967,0.001133,-0.007991,0.000662,-0.118439,0.082075,-0.126560,-0.981437,13.490096,11.015891,167.544540
48507,-0.205663,0.537742,8.528680,-1.000319,1.730538,-1.501650,0.185918,-1.344522,-0.020260,-0.002629,0.005298,0.085275,0.999977,0.000930,-0.006723,-0.000101,-0.119401,0.075360,-0.126634,-0.981849,13.557873,10.266397,167.356362
48508,-2.184361,0.746986,9.317412,0.873734,1.321833,-0.345292,0.584972,-1.235065,-0.068688,-0.022416,0.007205,0.093058,0.999977,0.002925,-0.006175,-0.000343,-0.120678,0.068977,-0.128705,-0.981893,13.853717,9.585490,167.153771
48509,-3.349468,2.097867,10.002675,1.721585,0.012754,0.803675,0.819268,-1.402254,0.054312,-0.034201,0.020560,0.099873,0.999967,0.004096,-0.007011,0.000272,-0.121531,0.061543,-0.131864,-0.981863,14.293451,8.795332,166.992984
48510,-3.709775,3.874926,10.381329,1.769469,-1.577621,1.629576,0.987192,-1.688152,0.368482,-0.038044,0.038168,0.103684,0.999950,0.004936,-0.008441,0.001842,-0.121074,0.052398,-0.135755,-0.981920,14.849808,7.803363,166.959897
48511,-3.237669,4.747448,10.434541,1.331702,-2.219388,1.814656,0.877878,-2.011818,0.748278,-0.033602,0.046893,0.104218,0.999933,0.004389,-0.010059,0.003741,-0.118927,0.041460,-0.139001,-0.982250,15.363941,6.575386,167.080746
48512,-2.124778,4.728467,10.023680,0.560189,-2.035564,1.272556,0.729770,-2.261060,1.108233,-0.022641,0.046796,0.100157,0.999914,0.003649,-0.011305,0.005541,-0.115139,0.029137,-0.141423,-0.982799,15.805463,5.154288,167.351962
48513,-1.272815,4.325600,9.802943,0.130993,-1.523670,0.868242,0.556863,-2.390622,1.356244,-0.014191,0.042890,0.097985,0.999902,0.002784,-0.011953,0.006781,-0.110175,0.016089,-0.142932,-0.983449,16.149420,3.620086,167.729428
48514,-0.610431,3.261499,9.549638,0.015538,-0.461909,0.286081,0.515481,-2.437464,1.487128,-0.007509,0.032316,0.095494,0.999895,0.002577,-0.012187,0.007435,-0.104578,0.002744,-0.144193,-0.984004,16.461967,2.037813,168.161833
48515,0.011995,3.136370,9.461959,-0.286150,-0.245905,0.148076,0.538404,-2.404951,1.466988,-0.001247,0.031103,0.094694,0.999897,0.002692,-0.012024,0.007335,-0.099032,-0.010446,-0.145554,-0.984326,16.775625,0.473478,168.579547
48516,1.367192,2.971913,8.971251,-1.343972,0.028514,-0.358982,0.463329,-2.287330,1.331189,0.012447,0.029597,0.089928,0.999910,0.002317,-0.011436,0.006656,-0.094056,-0.022913,-0.146583,-0.984450,17.035343,-1.004953,168.934378
48517,2.489826,2.945373,8.443886,-2.251569,0.103681,-0.807715,0.404287,-2.026028,1.146965,0.023872,0.029421,0.084744,0.999930,0.002021,-0.010130,0.005735,-0.089784,-0.033934,-0.147441,-0.984403,17.254539,-2.311542,169.226528
48518,2.603342,2.616718,8.443736,-2.119909,0.415726,-0.854345,0.262950,-1.685315,0.942972,0.025197,0.026176,0.084686,0.999953,0.001315,-0.008426,0.004715,-0.086281,-0.043054,-0.147774,-0.984309,17.389428,-3.397188,169.461274
48519,1.661202,1.724327,8.832686,-0.855665,1.181144,-0.778295,0.292671,-1.438950,0.793660,0.015908,0.017178,0.088468,0.999965,0.001463,-0.007195,0.003968,-0.083315,-0.050867,-0.148379,-0.984101,17.540124,-4.323767,169.654300
48520,0.313767,1.001667,9.836520,0.843628,1.908577,-0.143006,0.415096,-1.361274,0.734663,0.002432,0.009822,0.098404,0.999968,0.002075,-0.006806,0.003673,-0.080546,-0.058297,-0.149623,-0.983731,17.759600,-5.197797,169.825715
48521,-1.772457,0.450075,10.611565,3.236652,2.323375,0.190909,0.927592,-1.574216,0.848723,-0.018577,0.003931,0.105991,0.999949,0.004638,-0.007871,0.004244,-0.077218,-0.067066,-0.153258,-0.982879,18.268135,-6.209636,170.016393
48522,-1.289142,2.138608,10.544690,2.745686,0.888515,0.631982,1.389224,-2.000006,1.042816,-0.014055,0.020582,0.105455,0.999912,0.006946,-0.010000,0.005214,-0.073099,-0.078238,-0.158907,-0.981470,19.035032,-7.489555,170.223633
48523,0.602098,3.844341,9.522605,0.781879,-0.592688,0.426997,1.520874,-2.273501,1.191146,0.004710,0.037748,0.095573,0.999889,0.007604,-0.011367,0.005956,-0.068402,-0.090909,-0.165016,-0.979707,19.871302,-8.948958,170.441687
48524,2.885649,4.348912,8.093690,-1.506853,-1.042301,-0.358363,1.468447,-2.233193,1.268211,0.027674,0.043070,0.081568,0.999891,0.007342,-0.011166,0.006341,-0.063304,-0.103401,-0.170807,-0.977817,20.666602,-10.404069,170.689611
48525,4.161169,4.708333,7.356498,-2.693721,-1.342358,-0.618204,1.345173,-1.931125,1.207488,0.040614,0.046833,0.074276,0.999913,0.006726,-0.009655,0.006037,-0.058295,-0.114312,-0.176091,-0.975975,21.383614,-11.689101,170.949240
48526,3.972864,4.312470,7.535675,-2.230158,-0.887055,-0.571278,1.148031,-1.531280,1.051840,0.038923,0.042896,0.075903,0.999940,0.005740,-0.007656,0.005259,-0.053798,-0.123055,-0.180592,-0.974346,21.984826,-12.730495,171.196608
48527,3.267249,3.942486,7.956409,-1.246581,-0.452806,-0.444592,0.993639,-1.298559,0.865874,0.031984,0.039168,0.079968,0.999957,0.004968,-0.006493,0.004329,-0.050086,-0.130448,-0.184500,-0.972849,22.507225,-13.611112,171.384998
48528,3.685186,3.714431,7.729045,-1.553227,-0.207453,-0.611686,0.918670,-1.138151,0.728933,0.036276,0.036921,0.077668,0.999967,0.004593,-0.005691,0.003645,-0.046938,-0.136901,-0.188159,-0.971417,22.994834,-14.377730,171.528075
48529,4.073768,4.083164,7.808688,-1.792853,-0.416788,-0.280948,0.829612,-0.912161,0.634783,0.040251,0.040635,0.078440,0.999976,0.004148,-0.004561,0.003174,-0.044091,-0.142144,-0.191492,-0.970145,23.431006,-15.005664,171.666732
48530,2.124726,3.604016,8.967413,0.532669,0.221740,0.065765,0.856015,-0.723208,0.706248,0.020796,0.035730,0.089903,0.999978,0.004280,-0.003616,0.003531,-0.040697,-0.146535,-0.194935,-0.968954,23.859930,-15.551528,171.884732
48531,-0.065382,4.110237,9.768791,2.974936,-0.172407,0.358103,1.066081,-0.998862,0.966334,-0.001339,0.040576,0.097900,0.999962,0.005330,-0.004994,0.004832,-0.036155,-0.152552,-0.199138,-0.967349,24.387651,-16.304493,172.172992
48532,2.376402,5.001872,8.626308,0.459139,-1.019687,0.376781,1.062003,-1.280907,1.216682,0.022907,0.049700,0.086676,0.999947,0.005310,-0.006404,0.006083,-0.030683,-0.160163,-0.203060,-0.965491,24.891463,-17.266115,172.521209
48533,4.140467,5.179672,7.658898,-1.338125,-1.285342,0.146519,0.876254,-1.150060,1.277777,0.040632,0.051721,0.077051,0.999953,0.004381,-0.005750,0.006389,-0.024928,-0.167164,-0.206037,-0.963838,25.265055,-18.177693,172.930127
48534,4.174821,4.286303,7.374936,-1.326102,-0.553879,-0.425236,0.731280,-0.914694,1.256581,0.041141,0.042852,0.074095,0.999963,0.003656,-0.004573,0.006283,-0.019153,-0.172973,-0.208345,-0.962448,25.535184,-18.963957,173.385013
48535,3.436030,3.958201,7.757906,-0.385289,-0.165031,-0.459512,0.729440,-0.747987,1.186195,0.033835,0.039500,0.077850,0.999969,0.003647,-0.003740,0.005931,-0.013543,-0.177898,-0.210707,-0.961130,25.797569,-19.649119,173.843416
48536,2.894527,3.917880,8.314407,0.427768,0.069689,-0.186242,0.748230,-0.696358,1.130973,0.028434,0.039029,0.083390,0.999971,0.003741,-0.003482,0.005655,-0.008127,-0.182504,-0.213199,-0.959777,26.071938,-20.295485,174.283720
48537,2.928513,4.143762,8.236155,0.498001,-0.126600,-0.152674,0.776242,-0.753210,1.128700,0.028741,0.041280,0.082631,0.999969,0.003881,-0.003766,0.005643,-0.002755,-0.187374,-0.215812,-0.958284,26.363907,-20.972910,174.705938
48538,4.202184,4.296762,7.665041,-0.760894,-0.358289,-0.108833,0.767603,-0.723698,1.145321,0.041498,0.042911,0.076966,0.999970,0.003838,-0.003618,0.005727,0.002719,-0.192106,-0.218356,-0.956770,26.640735,-21.640987,175.143610
48539,4.042070,4.612123,7.757823,-0.434782,-0.591696,0.049037,0.734656,-0.574815,1.158453,0.039930,0.046068,0.077863,0.999972,0.003673,-0.002874,0.005792,0.008388,-0.196132,-0.220715,-0.955378,26.876418,-22.238519,175.628707
48540,3.764298,4.201899,7.928200,-0.051106,-0.146261,-0.083485,0.655873,-0.518388,1.179841,0.037189,0.041979,0.079516,0.999974,0.003279,-0.002592,0.005899,0.014143,-0.199902,-0.222663,-0.954076,27.052016,-22.814048,176.141105
48541,3.523963,3.911288,8.021118,0.269802,0.162639,-0.223383,0.686133,-0.502281,1.210662,0.034801,0.039049,0.080433,0.999973,0.003431,-0.002511,0.006053,0.020093,-0.203619,-0.224709,-0.952702,27.231459,-23.391241,176.675498
48542,3.795598,4.120220,7.925171,0.110108,-0.028404,-0.108188,0.688122,-0.517613,1.201994,0.037503,0.041155,0.079491,0.999973,0.003441,-0.002588,0.006010,0.025984,-0.207386,-0.226765,-0.951259,27.410783,-23.975132,177.200934
48543,4.051160,4.121728,7.711116,-0.106891,-0.091469,-0.177270,0.653124,-0.482836,1.154237,0.040087,0.041197,0.077343,0.999975,0.003266,-0.002414,0.005771,0.031651,-0.210929,-0.228686,-0.949847,27.571741,-24.530505,177.710366
48544,4.338507,4.124992,7.542549,-0.339978,-0.141480,-0.190217,0.634759,-0.440213,1.114589,0.042989,0.041250,0.075651,0.999977,0.003174,-0.002201,0.005573,0.037157,-0.214215,-0.230545,-0.948462,27.721819,-25.054604,178.210530
48545,4.297300,4.319863,7.626401,-0.148835,-0.259124,-0.055636,0.682718,-0.368617,1.104521,0.042594,0.043174,0.076490,0.999977,0.003414,-0.001843,0.005523,0.042748,-0.217133,-0.232617,-0.947056,27.888377,-25.541339,178.726794
48546,3.791765,4.756371,8.044631,0.638283,-0.441209,0.242851,0.630667,-0.358528,1.111382,0.037509,0.047519,0.080664,0.999978,0.003153,-0.001793,0.005557,0.048324,-0.220010,-0.234424,-0.945677,28.018076,-26.025687,179.250489
48547,3.998441,4.277998,7.815365,0.359618,-0.101305,-0.054181,0.568956,-0.409366,1.166354,0.039575,0.042789,0.078357,0.999977,0.002845,-0.002047,0.005832,0.054031,-0.223200,-0.235879,-0.944258,28.100546,-26.551758,179.791293
48548,5.057224,4.198485,7.180262,-0.764467,-0.315672,-0.113501,0.614627,-0.371081,1.214461,0.050183,0.042069,0.072025,0.999975,0.003073,-0.001855,0.006072,0.060057,-0.226239,-0.237476,-0.942769,28.186773,-27.071824,-179.627632
48549,4.892211,4.504117,7.265421,-0.428228,-0.538692,0.012433,0.607435,-0.235921,1.229633,0.048559,0.045119,0.072849,0.999976,0.003037,-0.001180,0.006148,0.066306,-0.228653,-0.238967,-0.941390,28.240538,-27.528770,-178.994757
48550,4.955172,4.250524,7.157784,-0.505669,-0.368607,-0.145087,0.560877,-0.168413,1.258522,0.049223,0.042615,0.071739,0.999976,0.002804,-0.000842,0.006293,0.072713,-0.230786,-0.240175,-0.940089,28.245214,-27.959456,-178.322611
48551,5.233046,4.030595,7.087899,-0.759678,-0.221513,-0.156488,0.653737,-0.072736,1.324325,0.052037,0.040419,0.071030,0.999973,0.003269,-0.000364,0.006622,0.079649,-0.232505,-0.241693,-0.938713,28.265643,-28.360140,-177.580693
48552,3.874927,5.077352,7.959622,1.129607,-0.643504,0.309539,0.753468,-0.013388,1.398693,0.038389,0.050742,0.079790,0.999968,0.003767,-0.000067,0.006993,0.087116,-0.233980,-0.243558,-0.937200,28.308652,-28.751206,-176.775390
48553,3.729589,5.005032,8.170572,1.402801,-0.449514,0.363160,0.550577,-0.118681,1.430671,0.036889,0.050090,0.081866,0.999970,0.002753,-0.000593,0.007153,0.094363,-0.236062,-0.244462,-0.935739,28.235117,-29.204125,-175.980724
48554,5.253119,3.553630,7.121415,-0.681323,0.180691,-0.302652,0.518954,-0.150636,1.426560,0.052223,0.035725,0.071346,0.999971,0.002595,-0.000753,0.007133,0.101508,-0.238288,-0.245228,-0.934226,28.142251,-29.670710,-175.194307
48555,5.545779,3.863982,7.108737,-0.773131,-0.128509,-0.034879,0.586459,-0.017367,1.354739,0.055189,0.038806,0.071206,0.999973,0.002932,-0.000087,0.006774,0.108556,-0.239758,-0.246309,-0.932772,28.080762,-30.049979,-174.403957
48556,4.974693,3.676294,7.366585,-0.180155,0.201256,-0.197278,0.540545,0.052058,1.274267,0.049531,0.036880,0.073753,0.999976,0.002703,0.000260,0.006371,0.115253,-0.240815,-0.247226,-0.931453,28.000334,-30.371355,-173.635974
48557,5.054274,3.374867,7.105372,-0.401009,0.308709,-0.476445,0.628292,0.063828,1.288926,0.050347,0.033850,0.071144,0.999974,0.003141,0.000319,0.006445,0.122133,-0.241775,-0.248511,-0.929984,27.958330,-30.690266,-172.852532
48558,5.600895,4.337897,6.785664,-0.601785,-0.735841,-0.049046,0.769439,0.137958,1.383918,0.055755,0.043504,0.067985,0.999968,0.003847,0.000690,0.006920,0.129710,-0.242406,-0.250280,-0.928318,27.951939,-30.996669,-171.987449
48559,5.302469,4.788718,6.877893,-0.084336,-1.035832,0.050019,0.764761,0.271537,1.554063,0.052745,0.048034,0.068891,0.999962,0.003824,0.001358,0.007770,0.138230,-0.242618,-0.251715,-0.926643,27.863414,-31.280672,-170.976642
48560,5.500814,4.667416,6.543285,-0.353736,-1.154776,-0.148362,0.773216,0.369269,1.774863,0.054713,0.046907,0.065513,0.999951,0.003866,0.001846,0.008874,0.147893,-0.242627,-0.252835,-0.924843,27.689558,-31.571953,-169.800531
48561,6.641298,3.950634,5.673855,-1.845088,-1.246665,-0.488114,0.851866,0.566839,2.015455,0.066173,0.039932,0.056720,0.999936,0.004259,0.002834,0.010077,0.158998,-0.241942,-0.253849,-0.922900,27.445233,-31.823175,-168.414254
48562,6.777313,4.203485,5.494270,-1.843783,-1.646800,-0.449150,1.096709,0.882696,2.287504,0.067531,0.042507,0.054877,0.999910,0.005483,0.004413,0.011437,0.172029,-0.239913,-0.255377,-0.920668,27.197435,-31.980093,-166.763047
48563,4.832967,6.229405,6.578895,1.120566,-2.352644,0.119764,1.251783,1.180725,2.552559,0.047922,0.062495,0.065896,0.999882,0.006259,0.005903,0.012762,0.186812,-0.236666,-0.256987,-0.918176,26.900466,-32.047313,-164.857506
48564,3.359208,6.965088,7.901143,3.207340,-1.870225,0.600733,0.829417,1.244480,2.665489,0.033155,0.069767,0.079093,0.999883,0.004147,0.006222,0.013327,0.201650,-0.233612,-0.256410,-0.915979,26.313207,-32.098517,-162.863065
48565,2.648650,4.645024,8.244023,2.821654,0.320885,-0.405740,0.471698,1.137006,2.627964,0.026343,0.046603,0.082400,0.999895,0.002358,0.005685,0.013139,0.215718,-0.231309,-0.254284,-0.913949,25.546239,-32.175585,-160.920803
48566,3.287135,2.561734,8.370691,1.306018,1.792211,-0.728738,0.235542,0.960418,2.365027,0.032968,0.025908,0.083579,0.999918,0.001178,0.004802,0.011825,0.228042,-0.229688,-0.251532,-0.912125,24.754315,-32.257742,-159.188427
48567,3.778071,0.278441,8.307867,-0.325353,3.295462,-1.303547,0.273464,0.806123,1.965617,0.038086,0.003044,0.082930,0.999943,0.001367,0.004031,0.009828,0.238366,-0.228195,-0.249545,-0.910404,24.134869,-32.307700,-157.742799
48568,3.864040,0.509631,8.730512,-0.170963,3.267859,-0.829150,0.402661,0.661977,1.517466,0.038890,0.005215,0.087187,0.999964,0.002013,0.003310,0.007587,0.246592,-0.226621,-0.248811,-0.908806,23.758742,-32.318100,-156.614053
48569,3.979507,0.846434,8.862774,-0.060778,3.013340,-0.538116,0.433653,0.452465,1.136546,0.039947,0.008499,0.088556,0.999979,0.002168,0.002262,0.005683,0.252850,-0.225476,-0.248889,-0.907349,23.556133,-32.346253,-155.778135
48570,5.395945,1.142525,8.121488,-1.209643,1.861369,-0.249624,0.508680,0.304685,0.868290,0.054033,0.011453,0.081162,0.999986,0.002543,0.001523,0.004341,0.257781,-0.224563,-0.249789,-0.905939,23.507040,-32.388815,-155.148965
48571,6.349966,1.817744,7.496878,-1.733255,0.656049,0.005401,0.700681,0.305576,0.767347,0.063544,0.018159,0.074935,0.999985,0.003503,0.001528,0.003837,0.262466,-0.223267,-0.251662,-0.904394,23.600648,-32.408308,-154.581867
48572,7.085809,2.960522,6.973628,-1.771585,-0.752006,0.380489,0.935168,0.381228,0.859737,0.070864,0.029584,0.069740,0.999978,0.004676,0.001906,0.004299,0.267915,-0.221429,-0.254385,-0.902485,23.786894,-32.410339,-153.936856
48573,7.651024,3.928157,6.221053,-1.815298,-2.100248,0.432493,1.188950,0.561818,1.097894,0.076469,0.039332,0.062229,0.999963,0.005945,0.002809,0.005489,0.274935,-0.218727,-0.257731,-0.900080,24.012820,-32.375224,-153.094447
48574,8.105975,5.246519,5.855892,-1.421467,-3.437916,0.849597,1.418723,0.849335,1.412966,0.080937,0.052622,0.058588,0.999941,0.007093,0.004247,0.007065,0.283967,-0.214800,-0.261348,-0.897174,24.225012,-32.266277,-151.978087
48575,7.604808,6.177913,5.937422,-0.399929,-3.855542,0.968187,1.527444,1.174759,1.747291,0.075856,0.061989,0.059401,0.999915,0.007637,0.005874,0.008736,0.295000,-0.209665,-0.264593,-0.893871,24.344507,-32.068844,-150.566226
48576,7.161239,6.420222,5.978262,0.153798,-3.831475,0.842730,1.489664,1.466061,2.037682,0.071394,0.064485,0.059738,0.999893,0.007448,0.007330,0.010188,0.307619,-0.203630,-0.266889,-0.890323,24.312469,-31.789103,-148.898542
48577,6.372043,5.988369,6.299260,0.566059,-3.037807,0.511804,1.415768,1.768161,2.229391,0.063607,0.060148,0.062855,0.999874,0.007079,0.008840,0.011146,0.321349,-0.196571,-0.268128,-0.886680,24.144023,-31.393771,-147.036190
48578,5.271920,4.834923,6.763624,0.683446,-1.547373,-0.114517,1.279202,1.943469,2.323209,0.052812,0.048531,0.067433,0.999865,0.006396,0.009717,0.011616,0.335510,-0.189031,-0.268326,-0.883007,23.861282,-30.922825,-145.079620
48579,4.193435,4.148018,7.576550,1.071031,-0.150215,-0.271985,1.233522,2.024016,2.255668,0.042232,0.041489,0.075595,0.999866,0.006167,0.010120,0.011278,0.349349,-0.181067,-0.268171,-0.879349,23.582805,-30.385325,-143.155127
48580,2.768423,3.354492,8.369300,1.527272,1.501476,-0.627148,1.082356,1.937891,2.047919,0.028152,0.033379,0.083603,0.999886,0.005412,0.009689,0.010239,0.361933,-0.173425,-0.267632,-0.875958,23.316039,-29.838430,-141.393759
48581,2.356383,2.529017,9.053794,1.184262,2.578525,-0.546233,0.902907,1.711208,1.717080,0.024122,0.025087,0.090447,0.999916,0.004514,0.008556,0.008585,0.372539,-0.166621,-0.266942,-0.873037,23.093381,-29.329166,-139.903018
48582,2.341784,1.473675,9.213779,0.321642,3.242603,-0.761157,0.798540,1.441776,1.330105,0.023984,0.014527,0.092025,0.999944,0.003993,0.007209,0.006650,0.380956,-0.160649,-0.266591,-0.870628,22.974286,-28.871716,-138.724217
48583,2.880883,1.365051,9.161136,-0.219775,2.912432,-0.562944,0.754773,1.173788,0.917461,0.029284,0.013439,0.091491,0.999965,0.003774,0.005869,0.004587,0.387152,-0.155361,-0.266860,-0.868771,22.991374,-28.462048,-137.866698
48584,3.595076,1.649710,9.037440,-0.569896,2.220678,-0.217663,0.764125,0.979632,0.570552,0.036346,0.016255,0.090259,0.999977,0.003821,0.004898,0.002853,0.391565,-0.150426,-0.267803,-0.867370,23.142645,-28.078111,-137.269171
48585,4.475863,2.190168,8.548507,-0.839133,1.085540,-0.013501,0.832272,0.809493,0.393401,0.045062,0.021635,0.085393,0.999981,0.004161,0.004047,0.001967,0.395018,-0.145852,-0.269493,-0.866061,23.405637,-27.745377,-136.820841
48586,5.341569,3.441242,8.099057,-0.540142,-0.389617,0.459857,1.046263,0.814992,0.449395,0.053669,0.034109,0.080951,0.999975,0.005231,0.004075,0.002247,0.398859,-0.140901,-0.272049,-0.864319,23.777545,-27.424886,-136.337400
48587,5.571342,4.827080,7.866343,0.296523,-1.400689,0.872333,1.197995,0.869245,0.674423,0.055893,0.047988,0.078709,0.999967,0.005990,0.004346,0.003372,0.403831,-0.135711,-0.274975,-0.861912,24.170545,-27.131158,-135.705934
48588,5.516214,5.520118,7.635925,0.809094,-1.850582,0.917094,1.170987,0.966802,0.918624,0.055278,0.055008,0.076415,0.999961,0.005855,0.004834,0.004593,0.409941,-0.130481,-0.277406,-0.859051,24.474542,-26.847715,-134.905424
48589,5.292671,4.443824,7.282856,0.074988,-1.366550,0.133504,1.105248,1.071318,1.056528,0.053082,0.044316,0.072790,0.999956,0.005526,0.005357,0.005283,0.416713,-0.125118,-0.279224,-0.855996,24.695675,-26.545786,-133.996986
48590,4.664958,3.386013,7.221571,-0.408744,-0.489933,-0.594738,1.189950,1.173147,1.087672,0.046889,0.033685,0.072142,0.999950,0.005950,0.005866,0.005438,0.423773,-0.119174,-0.281152,-0.852742,24.950887,-26.202051,-133.044605
48591,3.088508,3.731471,7.926462,0.731334,0.776565,-0.584853,1.307328,1.200467,1.012656,0.031173,0.036954,0.079320,0.999948,0.006537,0.006002,0.005063,0.430579,-0.112747,-0.283533,-0.849411,25.294227,-25.830079,-132.128757
48592,2.046996,3.682373,8.348990,1.205880,1.748433,-0.705341,1.168606,1.009646,0.890090,0.020729,0.036427,0.083599,0.999960,0.005843,0.005048,0.004450,0.436475,-0.107246,-0.285784,-0.846354,25.616695,-25.531706,-131.335919
48593,3.403164,1.771903,7.337875,-1.149433,1.117682,-1.688981,1.222091,0.894378,0.775435,0.034292,0.017403,0.073333,0.999964,0.006110,0.004472,0.003877,0.441719,-0.101943,-0.288547,-0.843346,26.014348,-25.268405,-130.639874
48594,3.199983,3.400290,7.485768,0.176890,0.623359,-1.013947,1.495358,0.961161,0.717023,0.032239,0.033558,0.074955,0.999954,0.007477,0.004806,0.003585,0.446914,-0.095662,-0.292326,-0.840037,26.577987,-24.961422,-129.957706
48595,3.501292,4.124594,7.596895,0.480215,0.182366,-0.500353,1.329896,0.964046,0.702231,0.035236,0.040864,0.076072,0.999960,0.006649,0.004820,0.003511,0.451935,-0.089709,-0.295381,-0.836933,27.052234,-24.654585,-129.281470
48596,4.184692,2.772188,6.983153,-1.024282,-0.085843,-1.274309,1.498945,1.071601,0.767933,0.042115,0.027360,0.069812,0.999950,0.007495,0.005358,0.003840,0.457424,-0.083013,-0.298848,-0.833404,27.598663,-24.315876,-128.536408
48597,3.216916,5.004604,7.758753,1.130148,0.161370,-0.102473,1.701415,1.178650,0.847118,0.032417,0.049522,0.077820,0.999937,0.008507,0.005893,0.004236,0.463437,-0.075517,-0.302844,-0.829342,28.233259,-23.951102,-127.713995
48598,3.957521,4.548330,7.641456,0.257383,-0.242596,-0.085648,1.506624,1.134637,0.912999,0.039803,0.045088,0.076530,0.999945,0.007533,0.005673,0.004565,0.469528,-0.068745,-0.306077,-0.825309,28.751145,-23.634186,-126.866902
48599,4.187461,3.181240,7.488596,-1.058632,0.010012,-0.723551,1.731981,1.226554,0.956610,0.042183,0.031365,0.074901,0.999932,0.008660,0.006133,0.004783,0.475960,-0.061124,-0.309969,-0.820759,29.381054,-23.291037,-125.966597
48600,2.925063,4.193916,7.999332,0.226946,0.890631,-0.363474,2.020800,1.201092,1.034269,0.029517,0.041281,0.080236,0.999918,0.010104,0.006005,0.005171,0.482687,-0.053031,-0.315040,-0.815445,30.167169,-22.993050,-125.030001
48601,3.089184,6.157890,8.291905,1.541706,0.329576,0.851761,2.079216,1.110426,1.070996,0.031027,0.060880,0.083382,0.999916,0.010396,0.005552,0.005355,0.489358,-0.045216,-0.320502,-0.809792,30.992780,-22.762466,-124.099598
48602,3.026214,5.804965,8.351172,1.136736,0.592081,0.720756,1.735992,0.970511,1.077974,0.030358,0.057486,0.083865,0.999936,0.008680,0.004852,0.005390,0.495681,-0.038811,-0.324871,-0.804520,31.640329,-22.613559,-123.209029
48603,3.854975,3.988601,7.435847,-0.645890,0.020105,-0.558327,1.701256,0.906130,0.972888,0.038695,0.039441,0.074520,0.999942,0.008506,0.004531,0.004864,0.501411,-0.032577,-0.329238,-0.799455,32.298558,-22.473367,-122.393842
48604,2.962703,5.231777,8.101617,0.524006,0.769105,0.233096,1.663031,0.940088,0.783167,0.029805,0.051759,0.081308,0.999947,0.008315,0.004700,0.003916,0.506376,-0.025985,-0.333364,-0.794844,32.970734,-22.266962,-121.665834
48605,2.170203,5.041759,8.486048,0.518031,1.688671,0.138239,1.368339,0.796590,0.606980,0.021889,0.049902,0.085116,0.999964,0.006842,0.003983,0.003035,0.510319,-0.020415,-0.336672,-0.791082,33.528166,-22.081164,-121.076112
48606,2.678977,3.944415,7.760331,-0.510212,1.180553,-0.795863,1.353083,0.692720,0.471270,0.026967,0.038982,0.077775,0.999968,0.006765,0.003464,0.002356,0.513513,-0.015063,-0.340179,-0.787627,34.118035,-21.906907,-120.590772
48607,3.011216,4.844558,7.577931,0.027999,0.615336,-0.347918,1.320847,0.639897,0.368613,0.030266,0.048000,0.076001,0.999971,0.006604,0.003199,0.001843,0.516181,-0.009828,-0.343679,-0.784440,34.716151,-21.729146,-120.174591
48608,3.882821,5.013946,7.072334,-0.166983,-0.385760,-0.322883,1.275702,0.678371,0.232883,0.039010,0.049733,0.070909,0.999973,0.006378,0.003392,0.001164,0.518351,-0.004323,-0.346892,-0.781639,35.309886,-21.492576,-119.812121
48609,3.212678,5.488116,7.311766,0.345980,0.185820,-0.130357,1.149536,0.736731,0.084423,0.032374,0.054474,0.073313,0.999977,0.005748,0.003684,0.000422,0.520014,0.001339,-0.349445,-0.779405,35.851334,-21.182832,-119.501043
48610,2.938683,4.742898,7.121762,-0.159318,0.460673,-0.778746,1.039774,0.688774,-0.017206,0.029636,0.047056,0.071361,0.999981,0.005199,0.003444,-0.000086,0.521176,0.006709,-0.351681,-0.777593,36.355330,-20.863482,-119.255536
48611,3.104877,5.482299,6.863691,0.360594,0.022416,-0.502763,1.089039,0.708030,-0.128138,0.031327,0.054429,0.068823,0.999979,0.005445,0.003540,-0.000641,0.521918,0.012474,-0.354039,-0.775952,36.904400,-20.499629,-119.054767
48612,2.618798,6.158235,6.900887,1.006904,0.290850,-0.257331,0.970940,0.705462,-0.224952,0.026501,0.061217,0.069214,0.999981,0.004855,0.003527,-0.001125,0.522266,0.018094,-0.355928,-0.774743,37.403056,-20.105000,-118.899213
48613,2.945264,5.604193,6.829023,0.351803,0.076420,-0.507484,0.789904,0.645371,-0.314376,0.029761,0.055725,0.068415,0.999986,0.003949,0.003227,-0.001572,0.522161,0.023165,-0.357250,-0.774069,37.819920,-19.707734,-118.806048
48614,3.889834,4.829981,6.513657,-0.647678,-0.746284,-0.873445,0.762048,0.714413,-0.449363,0.039239,0.047964,0.065180,0.999984,0.003810,0.003572,-0.002247,0.521643,0.028674,-0.358261,-0.773767,38.233917,-19.232077,-118.749049
48615,3.603649,5.478621,6.923802,-0.273668,-0.471910,-0.292088,0.714974,0.847044,-0.659586,0.036510,0.054419,0.069279,0.999979,0.003575,0.004235,-0.003298,0.520539,0.034945,-0.358698,-0.774050,38.636076,-18.622648,-118.738271
48616,2.724759,5.359971,7.682889,-0.390290,0.607900,-0.083494,0.487152,0.853286,-0.824515,0.027796,0.053299,0.076841,0.999979,0.002436,0.004266,-0.004123,0.518825,0.040945,-0.358196,-0.775138,38.930625,-17.951166,-118.799026
48617,4.350488,3.183541,6.948265,-2.594191,-0.755092,-1.443767,0.368708,0.872016,-1.074993,0.043977,0.031472,0.069350,0.999974,0.001844,0.004360,-0.005375,0.516176,0.047154,-0.357116,-0.777050,39.188206,-17.180796,-118.965761
48618,4.998562,2.935232,6.834824,-3.136529,-1.391439,-1.533813,0.403952,1.134696,-1.550369,0.050597,0.028824,0.068121,0.999952,0.002020,0.005673,-0.007752,0.512103,0.055322,-0.355359,-0.780006,39.496792,-16.120524,-119.248074
48619,3.197644,5.198856,7.821634,-1.153321,-0.033152,0.040997,0.332116,1.388667,-2.059203,0.033051,0.051522,0.078075,0.999922,0.001661,0.006943,-0.010296,0.506453,0.065191,-0.352485,-0.784226,39.792596,-14.760836,-119.659345
48620,0.669568,7.528463,9.084542,1.067981,1.939604,1.795287,-0.020247,1.362678,-2.265597,0.008167,0.075207,0.090785,0.999913,-0.000101,0.006813,-0.011328,0.499979,0.074419,-0.348171,-0.789468,39.900190,-13.335549,-120.166504
48621,0.227483,7.492986,8.314984,1.494636,1.715502,1.148755,-0.302816,1.113213,-2.148919,0.003543,0.075022,0.083019,0.999926,-0.001514,0.005566,-0.010744,0.493557,0.081742,-0.343352,-0.794877,39.842497,-12.062475,-120.711506
48622,0.137401,10.070750,8.861801,3.053139,1.090738,3.204699,-0.208215,1.152995,-1.785706,0.002784,0.100779,0.088500,0.999943,-0.001041,0.005765,-0.008928,0.488543,0.088823,-0.338914,-0.799108,39.792122,-10.905534,-121.077298
48623,-0.839000,7.474537,8.582486,1.737129,2.344189,1.219844,-0.452630,0.737250,-1.139319,-0.007647,0.074984,0.085684,0.999974,-0.002263,0.003686,-0.005697,0.485477,0.092542,-0.334775,-0.802293,39.571241,-10.169375,-121.309465
48624,3.252105,5.422438,6.974246,-1.102067,-1.305501,-0.555284,-0.108456,0.585497,-0.867013,0.032960,0.054120,0.069617,0.999986,-0.000542,0.002927,-0.004335,0.483069,0.096033,-0.332497,-0.804281,39.534081,-9.599689,-121.477007
48625,3.921927,5.754177,7.209190,-1.380655,-1.960738,-0.080661,-0.028149,0.891916,-0.994290,0.039826,0.057355,0.071907,0.999978,-0.000141,0.004460,-0.004971,0.480604,0.101154,-0.329730,-0.806266,39.531764,-8.848670,-121.588113
48626,2.761570,5.841856,7.942763,-1.141943,-0.822380,0.329219,-0.262078,1.077265,-1.336889,0.028433,0.058334,0.079199,0.999962,-0.001310,0.005386,-0.006684,0.477153,0.107021,-0.325382,-0.809320,39.406430,-7.890815,-121.784794
48627,2.233201,5.708181,8.225659,-1.164383,-0.386626,0.371769,-0.653208,1.152346,-1.776765,0.023312,0.057146,0.081938,0.999939,-0.003266,0.005762,-0.008884,0.472208,0.112961,-0.319004,-0.813939,39.075190,-6.741195,-122.154125
48628,1.804365,5.517132,8.030781,-1.033313,-0.253683,0.038763,-0.979591,1.283974,-2.172128,0.019158,0.055359,0.079916,0.999908,-0.004898,0.006420,-0.010860,0.465975,0.119282,-0.310716,-0.819814,38.563598,-5.393464,-122.660971
48629,1.205774,4.988233,7.963255,-1.093576,0.176570,-0.404327,-1.160248,1.454112,-2.412239,0.013239,0.050188,0.079249,0.999884,-0.005801,0.007270,-0.012061,0.459035,0.126226,-0.301083,-0.826258,37.940653,-3.889135,-123.227803
48630,0.257057,4.505595,7.721348,-0.838285,0.821238,-0.946835,-1.005338,1.576709,-2.493063,0.003742,0.045401,0.076959,0.999879,-0.005026,0.007883,-0.012465,0.451740,0.134123,-0.291687,-0.832382,37.391694,-2.306754,-123.802708
48631,-0.656213,4.857462,7.939016,-0.265963,1.265478,-0.572793,-0.731999,1.625253,-2.491259,-0.005310,0.048936,0.079258,0.999883,-0.003660,0.008126,-0.012456,0.444232,0.142806,-0.283251,-0.837874,36.983249,-0.707694,-124.372532
48632,-1.119284,5.118030,8.212986,-0.052663,1.379273,-0.169607,-0.524003,1.635109,-2.437046,-0.009895,0.051521,0.082080,0.999889,-0.002620,0.008175,-0.012185,0.436716,0.151883,-0.275638,-0.842754,36.678103,0.873757,-124.923856
48633,-1.617873,5.097951,8.302147,0.073374,1.583078,-0.065134,-0.357257,1.656827,-2.366951,-0.014885,0.051309,0.083057,0.999894,-0.001786,0.008284,-0.011834,0.429305,0.161286,-0.268674,-0.847053,36.454390,2.438647,-125.443026
48634,-2.494313,5.304808,8.437959,0.529901,2.009167,0.249057,-0.055627,1.526064,-2.227632,-0.023705,0.053340,0.084549,0.999909,-0.000278,0.007630,-0.011138,0.421981,0.170565,-0.263327,-0.850587,36.390483,3.894752,-125.946931
48635,-2.263918,6.219511,8.499484,0.805658,1.169492,0.865650,0.141413,1.371113,-2.047956,-0.021418,0.062358,0.085189,0.999924,0.000707,0.006855,-0.010240,0.414978,0.179335,-0.259256,-0.853474,36.429791,5.217988,-126.421728
48636,-2.099062,6.829381,8.500978,0.938521,0.524830,1.239554,0.193803,1.280572,-1.867791,-0.019807,0.068400,0.085205,0.999935,0.000969,0.006403,-0.009339,0.408522,0.187571,-0.255718,-0.855883,36.493723,6.438975,-126.843845
48637,-2.524595,7.131504,8.683450,1.137239,0.567860,1.633452,0.135473,1.164266,-1.712246,-0.024128,0.071466,0.087026,0.999946,0.000677,0.005821,-0.008561,0.402590,0.194967,-0.252288,-0.858056,36.519858,7.553312,-127.233716
48638,-2.695819,7.153277,8.943765,0.990798,0.582574,1.896410,-0.017212,1.006947,-1.601473,-0.025934,0.071751,0.089564,0.999955,-0.000086,0.005035,-0.008007,0.397044,0.201226,-0.248599,-0.860269,36.450609,8.557808,-127.627590
48639,-2.547958,7.026634,8.908993,0.750115,0.354509,1.786643,-0.174468,0.854123,-1.513960,-0.024566,0.070532,0.089135,0.999962,-0.000872,0.004271,-0.007570,0.391810,0.206386,-0.244608,-0.862587,36.282655,9.460740,-128.036210
48640,-2.338195,6.165816,8.648578,0.201437,0.454568,1.051605,-0.339867,0.749801,-1.431868,-0.022615,0.061969,0.086466,0.999966,-0.001699,0.003749,-0.007159,0.386945,0.210661,-0.240172,-0.864993,36.013394,10.286730,-128.446626
48641,-1.964969,5.611519,8.258495,-0.180833,0.246248,0.358734,-0.306413,0.731968,-1.395191,-0.018955,0.056376,0.082569,0.999968,-0.001532,0.003660,-0.006976,0.382157,0.214863,-0.235942,-0.867249,35.758892,11.089651,-128.850666
48642,-2.181910,5.949424,8.356212,0.032597,0.095021,0.674000,-0.267456,0.739978,-1.378747,-0.021099,0.059753,0.083561,0.999968,-0.001337,0.003700,-0.006894,0.377383,0.219144,-0.231864,-0.869366,35.522155,11.889747,-129.248832
48643,-2.465698,5.970395,8.105645,0.304327,0.096809,0.546988,-0.318401,0.697911,-1.377146,-0.023962,0.060000,0.081046,0.999969,-0.001592,0.003490,-0.006886,0.372601,0.223127,-0.227636,-0.871530,35.247158,12.667267,-129.665271
48644,-2.885346,5.654907,7.943479,0.436445,0.431404,0.337374,-0.329740,0.635015,-1.353228,-0.028217,0.056872,0.079431,0.999971,-0.001649,0.003175,-0.006766,0.367841,0.226778,-0.223484,-0.873681,34.956727,13.406067,-130.096702
48645,-3.289017,5.384281,7.721195,0.629774,0.721746,0.112331,-0.330518,0.542461,-1.306329,-0.032328,0.054183,0.077211,0.999974,-0.001653,0.002712,-0.006532,0.363164,0.229955,-0.219545,-0.875804,34.657621,14.083156,-130.541699
48646,-3.091749,5.194171,7.509651,0.491713,0.530939,-0.199763,-0.314021,0.467194,-1.289258,-0.030406,0.052257,0.075086,0.999975,-0.001570,0.002336,-0.006446,0.358440,0.232807,-0.215818,-0.877920,34.357397,14.717643,-131.008594
48647,-2.726780,5.137682,7.458450,0.230447,0.170640,-0.358799,-0.400148,0.493157,-1.387030,-0.026726,0.051713,0.074548,0.999971,-0.002001,0.002466,-0.006935,0.353399,0.235706,-0.211546,-0.880227,33.991293,15.392519,-131.519974
48648,-2.592196,4.254957,7.376380,-0.297110,0.512839,-0.931113,-0.486966,0.552518,-1.586243,-0.025379,0.042932,0.073730,0.999962,-0.002435,0.002763,-0.007931,0.347620,0.238914,-0.206533,-0.882850,33.545750,16.156398,-132.117111
48649,-2.234699,3.431087,7.025093,-0.781382,0.608069,-1.741991,-0.552902,0.716209,-1.959896,-0.021757,0.034720,0.070234,0.999942,-0.002764,0.003581,-0.009799,0.340408,0.243087,-0.200483,-0.885910,33.013254,17.110434,-132.856632
48650,-2.681569,3.598876,7.250934,-0.571092,0.688575,-1.332381,-0.642324,0.886688,-2.371406,-0.026063,0.036534,0.072509,0.999915,-0.003212,0.004433,-0.011857,0.331603,0.248246,-0.193214,-0.889428,32.365295,18.267473,-133.763663
48651,-3.490039,3.220745,7.320221,-0.306478,1.328358,-1.194281,-0.722610,0.974580,-2.642824,-0.034112,0.032926,0.073252,0.999894,-0.003613,0.004873,-0.013214,0.321715,0.253873,-0.185073,-0.893194,31.610488,19.538156,-134.803061
48652,-4.249370,3.493483,7.536327,0.160771,1.457514,-0.598406,-0.590182,1.010015,-2.718666,-0.041631,0.035727,0.075470,0.999891,-0.002951,0.005050,-0.013593,0.311281,0.259892,-0.177324,-0.896725,30.890463,20.836812,-135.896637
48653,-4.802900,4.771056,7.992611,0.803224,0.702902,0.606904,-0.480058,0.949933,-2.583430,-0.047026,0.048514,0.080035,0.999902,-0.002400,0.004750,-0.012917,0.301196,0.265634,-0.170308,-0.899841,30.221442,22.053065,-136.963139
48654,-4.919475,5.629340,8.351061,0.989305,-0.065994,1.351660,-0.478380,0.806175,-2.301230,-0.048204,0.057052,0.083570,0.999923,-0.002392,0.004031,-0.011506,0.292201,0.270452,-0.163854,-0.902566,29.565320,23.106694,-137.946262
48655,-4.889716,5.591809,8.516126,0.792039,-0.255297,1.456992,-0.474861,0.641020,-1.988689,-0.048064,0.056601,0.085182,0.999943,-0.002374,0.003205,-0.009943,0.284440,0.274232,-0.158066,-0.904934,28.936608,23.979072,-138.829036
48656,-4.785120,5.151544,8.768459,0.338816,-0.130850,1.420612,-0.491675,0.466327,-1.730245,-0.047197,0.052141,0.087667,0.999957,-0.002458,0.002332,-0.008651,0.277702,0.276972,-0.152781,-0.907098,28.317203,24.684762,-139.637824
48657,-4.226702,3.876044,8.360161,-0.369897,0.349454,0.312545,-0.442721,0.377691,-1.678123,-0.041781,0.039297,0.083594,0.999961,-0.002214,0.001888,-0.008391,0.271045,0.279309,-0.147908,-0.909200,27.713610,25.322702,-140.456221
48658,-4.248160,3.118994,8.572951,-0.811243,0.860016,0.180868,-0.349618,0.366470,-1.802731,-0.042040,0.031720,0.085752,0.999956,-0.001748,0.001832,-0.009014,0.263658,0.281797,-0.143280,-0.911343,27.117456,25.980986,-141.360238
48659,-4.716066,2.292961,8.511940,-0.792613,1.656317,0.014765,-0.274231,0.334737,-2.014209,-0.046783,0.023519,0.085166,0.999947,-0.001371,0.001674,-0.010071,0.255156,0.284358,-0.138733,-0.913668,26.492233,26.667994,-142.406743
48660,-5.200635,1.648690,8.383574,-0.632707,2.307790,-0.100768,-0.037745,0.304849,-2.217378,-0.051691,0.017077,0.083912,0.999937,-0.000189,0.001524,-0.011087,0.245337,0.287198,-0.134991,-0.916027,25.926560,27.382238,-143.593770
48661,-5.674316,2.125192,8.441925,-0.162376,2.024662,0.378140,0.110563,0.239407,-2.419260,-0.056380,0.021889,0.084499,0.999926,0.000553,0.001197,-0.012096,0.234306,0.290012,-0.131710,-0.918502,25.362871,28.101331,-144.932165
48662,-5.664332,2.235603,8.169896,0.017292,1.747141,0.225984,0.156118,0.178239,-2.665163,-0.056266,0.023044,0.081767,0.999911,0.000781,0.000891,-0.013325,0.221998,0.292718,-0.128320,-0.921177,24.723457,28.836880,-146.450816
48663,-6.359935,2.488443,8.653325,0.308276,1.748931,1.066861,0.209031,0.101798,-2.860780,-0.063192,0.025700,0.086592,0.999897,0.001045,0.000509,-0.014303,0.208624,0.295196,-0.124958,-0.923970,24.021437,29.562091,-148.127011
48664,-7.049652,2.068798,8.468549,0.802713,2.231433,1.144824,0.221568,-0.132218,-2.927343,-0.070241,0.021624,0.084663,0.999892,0.001108,-0.000661,-0.014636,0.194729,0.296591,-0.121762,-0.926978,23.246578,30.161931,-149.927848
48665,-6.591379,2.453718,8.120426,0.799741,1.472285,0.798567,0.391170,-0.333688,-2.957850,-0.065678,0.025351,0.081144,0.999887,0.001956,-0.001668,-0.014789,0.180282,0.297166,-0.119489,-0.930007,22.510366,30.640476,-151.817537
48666,-6.431302,3.449593,8.355022,0.809616,0.359198,1.245369,0.413512,-0.438408,-3.066828,-0.063959,0.035306,0.083482,0.999878,0.002067,-0.002192,-0.015334,0.165184,0.297275,-0.117209,-0.933061,21.716075,31.066322,-153.817925
48667,-6.428513,3.564766,8.400751,0.808138,0.074313,1.320340,0.296639,-0.541752,-3.145060,-0.063943,0.036531,0.083888,0.999872,0.001483,-0.002709,-0.015725,0.149799,0.296772,-0.114339,-0.936169,20.798377,31.426347,-155.906883
48668,-6.289568,3.263455,8.540698,0.561712,0.140126,1.269487,0.334361,-0.630375,-3.110767,-0.062648,0.033468,0.085265,0.999873,0.001672,-0.003152,-0.015553,0.134424,0.295794,-0.111719,-0.939125,19.883915,31.704505,-158.009488
48669,-5.829846,3.583750,8.313249,0.398966,-0.495541,0.935989,0.491993,-0.719266,-2.977150,-0.058057,0.036499,0.083013,0.999880,0.002460,-0.003596,-0.014885,0.119366,0.294350,-0.110084,-0.941802,19.083539,31.881091,-160.056006
48670,-5.093908,4.671394,8.344178,-0.053125,-1.866159,0.860099,0.534828,-0.670976,-2.877214,-0.050542,0.047220,0.083398,0.999887,0.002674,-0.003355,-0.014386,0.104710,0.293042,-0.108728,-0.944108,18.336721,32.043126,-162.035515
48671,-4.662255,4.537804,8.487387,-0.548927,-1.942971,0.689045,0.477503,-0.514728,-2.754797,-0.046212,0.045814,0.084864,0.999899,0.002387,-0.002574,-0.013774,0.090783,0.292307,-0.107191,-0.945952,17.609550,32.245955,-163.908836
48672,-4.488802,3.912880,8.273207,-0.686092,-1.507353,0.245263,0.512567,-0.363865,-2.445285,-0.044557,0.039463,0.082752,0.999920,0.002563,-0.001819,-0.012226,0.078329,0.292089,-0.106172,-0.947247,17.014850,32.461133,-165.559158
48673,-3.948225,4.988191,7.896878,-0.882219,-2.779458,-0.100487,0.602583,-0.251573,-2.042961,-0.039071,0.050044,0.079070,0.999942,0.003013,-0.001258,-0.010215,0.067702,0.292178,-0.106121,-0.948044,16.618019,32.658227,-166.930588
48674,-3.676843,5.928107,7.333490,-0.808397,-3.874908,-0.497522,0.479294,0.019486,-1.682376,-0.036262,0.059412,0.073481,0.999962,0.002396,0.000097,-0.008412,0.059098,0.293297,-0.105899,-0.948298,16.297555,32.939180,-168.019868
48675,-3.918948,5.876005,7.323548,-0.697562,-3.832644,-0.413580,0.083264,0.260410,-1.323954,-0.038704,0.058987,0.073311,0.999977,0.000416,0.001302,-0.006620,0.052902,0.295228,-0.104259,-0.948247,15.896999,33.289367,-168.833064
48676,-4.164535,4.754178,6.620329,-0.213849,-2.871669,-1.124677,-0.044043,0.453155,-0.886658,-0.041284,0.047740,0.066287,0.999988,-0.000220,0.002266,-0.004433,0.049064,0.297805,-0.102599,-0.947828,15.594223,33.674132,-169.327723
48677,-4.722461,4.953737,6.815615,0.068406,-2.991574,-0.629061,-0.121884,0.639103,-0.553123,-0.046869,0.049709,0.068276,0.999991,-0.000609,0.003196,-0.002766,0.047019,0.301064,-0.101026,-0.947071,15.385210,34.108214,-169.570144
48678,-5.778083,4.289366,7.190772,0.623585,-2.168138,0.107084,-0.343592,0.716335,-0.317958,-0.057455,0.043109,0.072040,0.999991,-0.001718,0.003582,-0.001590,0.046457,0.304515,-0.098733,-0.946237,15.141957,34.549104,-169.644695
48679,-6.160449,3.389097,7.519381,0.651493,-1.229327,0.387409,-0.457981,0.703873,-0.205587,-0.061305,0.034126,0.075332,0.999991,-0.002290,0.003519,-0.001028,0.046597,0.307816,-0.096076,-0.945435,14.873515,34.965759,-169.648271
48680,-7.207163,1.728726,8.181658,0.994624,0.595032,1.165805,-0.528412,0.598172,-0.174535,-0.071811,0.017566,0.081985,0.999992,-0.002642,0.002991,-0.000873,0.046938,0.310584,-0.093153,-0.944805,14.564237,35.319725,-169.652378
48681,-7.989387,0.768085,8.617133,1.285983,1.664710,1.773941,-0.264884,0.316121,-0.225644,-0.079749,0.007885,0.086287,0.999997,-0.001324,0.001581,-0.001128,0.046498,0.312099,-0.091464,-0.944493,14.356179,35.524075,-169.742600
48682,-8.252239,2.115608,9.863839,0.776635,0.512478,3.187484,-0.240496,-0.050082,-0.437471,-0.082500,0.021455,0.098592,0.999997,-0.001202,-0.000250,-0.002187,0.044851,0.311990,-0.089641,-0.944783,14.039989,35.555034,-170.042211
48683,-8.058310,1.126891,10.047207,0.515372,1.406451,3.028963,-0.385777,-0.464814,-0.618224,-0.080781,0.011712,0.100262,0.999991,-0.001929,-0.002324,-0.003091,0.042391,0.309961,-0.086944,-0.945816,13.529283,35.377541,-170.534556
48684,-7.121494,1.551965,9.942799,-0.087394,0.768865,2.491114,-0.249312,-0.816929,-0.718865,-0.071564,0.015900,0.099116,0.999984,-0.001247,-0.004085,-0.003594,0.039088,0.306338,-0.084806,-0.947332,13.027921,35.014083,-171.149048
48685,-6.992632,2.078602,10.146950,-0.189532,0.180380,2.681617,-0.369338,-1.069307,-0.799219,-0.070383,0.021254,0.101055,0.999976,-0.001847,-0.005346,-0.003996,0.035482,0.301513,-0.082025,-0.949264,12.413161,34.514155,-171.849042
48686,-6.972372,1.614275,10.206946,-0.106296,0.553625,2.640467,-0.321487,-1.345325,-0.807309,-0.070342,0.016589,0.101571,0.999968,-0.001607,-0.006727,-0.004037,0.031647,0.295377,-0.079500,-0.951541,11.811759,33.855154,-172.583716
48687,-6.812777,1.875137,10.216417,-0.064771,0.189723,2.607511,-0.339140,-1.613439,-0.906892,-0.068862,0.019235,0.101578,0.999956,-0.001696,-0.008067,-0.004534,0.027259,0.287976,-0.076784,-0.954165,11.159743,33.049705,-173.406730
48688,-6.490991,0.689872,10.097592,-0.077344,1.212069,2.149361,-0.353094,-1.771346,-1.107251,-0.065761,0.007439,0.100383,0.999944,-0.001765,-0.008857,-0.005536,0.021869,0.279872,-0.073722,-0.956953,10.436639,32.169337,-174.364767
48689,-6.767955,-0.550608,9.951794,0.457204,2.335641,1.997335,-0.180027,-1.935346,-1.312932,-0.068672,-0.004968,0.098861,0.999931,-0.000900,-0.009677,-0.006565,0.015191,0.271038,-0.071214,-0.959810,9.756381,31.206660,-175.455725
48690,-6.884745,-0.586302,9.759627,0.908152,2.256580,1.895023,0.182906,-2.154062,-1.456884,-0.069934,-0.005445,0.096842,0.999915,0.000915,-0.010770,-0.007284,0.007249,0.261197,-0.070252,-0.962698,9.251172,30.125094,-176.642475
48691,-6.318789,0.649173,9.328542,0.867892,0.870345,1.405764,0.415187,-2.375012,-1.521417,-0.064239,0.006785,0.092541,0.999898,0.002076,-0.011875,-0.007607,-0.001384,0.250270,-0.070325,-0.965618,8.879992,28.915910,-177.870375
48692,-4.577237,1.758847,8.255264,0.049949,-0.482920,-0.223381,0.512174,-2.444886,-1.466384,-0.046648,0.017718,0.082031,0.999895,0.002561,-0.012224,-0.007332,-0.009900,0.238940,-0.070911,-0.968391,8.610379,27.657141,-179.048178
48693,-3.227342,2.397001,7.480828,-0.644853,-1.268559,-1.440284,0.495297,-2.277402,-1.313068,-0.032965,0.024000,0.074495,0.999911,0.002476,-0.011387,-0.006565,-0.017588,0.228316,-0.071602,-0.970791,8.414708,26.475356,179.906955
48694,-3.332051,2.831832,7.647465,-0.510845,-1.688121,-1.181735,0.442100,-2.026550,-1.148740,-0.033931,0.028343,0.076196,0.999930,0.002210,-0.010133,-0.005744,-0.024329,0.218824,-0.072225,-0.972784,8.267387,25.420006,179.002435
48695,-4.204736,2.020232,7.990039,0.336857,-0.869605,-0.607779,0.353106,-1.881405,-1.045242,-0.042691,0.020284,0.079537,0.999941,0.001765,-0.009407,-0.005226,-0.030411,0.209977,-0.072545,-0.974537,8.121924,24.435795,178.186806
48696,-4.603996,0.811548,8.086269,0.922457,0.297567,-0.522829,0.422972,-1.837270,-1.014991,-0.046739,0.008181,0.080453,0.999943,0.002115,-0.009186,-0.005075,-0.036401,0.201305,-0.073229,-0.976109,8.040843,23.473344,177.401855
48697,-4.337962,0.227765,8.355844,0.796445,0.902461,-0.472517,0.545533,-1.822038,-1.042059,-0.044127,0.002279,0.083165,0.999941,0.002728,-0.009110,-0.005210,-0.042634,0.192666,-0.074484,-0.977504,8.039407,22.520569,176.608370
48698,-4.585002,-0.032432,8.806481,1.058669,1.201656,-0.014218,0.697482,-1.786391,-1.128237,-0.046636,-0.000369,0.087649,0.999938,0.003487,-0.008932,-0.005641,-0.049419,0.184184,-0.076391,-0.978672,8.119175,21.596154,175.769497
48699,-5.514357,0.133592,9.617124,1.805844,1.090021,1.071343,0.783070,-1.925023,-1.281482,-0.056057,0.001318,0.095640,0.999925,0.003915,-0.009625,-0.006407,-0.057077,0.175030,-0.078537,-0.979765,8.225497,20.606154,174.829689
48700,-3.049811,0.394228,9.130258,-0.163567,0.948286,-0.226804,0.858335,-2.065284,-1.335135,-0.031413,0.003759,0.090998,0.999915,0.004292,-0.010326,-0.006675,-0.065112,0.165168,-0.080945,-0.980779,8.375542,19.543869,173.848639
48701,-1.444377,1.674865,8.682282,-1.552675,-0.197749,-0.991040,0.928426,-1.903703,-1.294788,-0.015163,0.016442,0.086758,0.999923,0.004642,-0.009518,-0.006474,-0.072928,0.156026,-0.083777,-0.981488,8.596753,18.571894,172.909212
48702,-1.900505,2.367902,8.773781,-1.130427,-0.871545,-0.638855,0.871227,-1.684961,-1.177844,-0.019605,0.023411,0.087677,0.999938,0.004356,-0.008425,-0.005889,-0.080027,0.147913,-0.086479,-0.981957,8.826414,17.717846,172.060043
48703,-2.887718,2.760676,9.110028,-0.236982,-1.289034,0.048027,0.827419,-1.606538,-1.011505,-0.029469,0.027378,0.090979,0.999946,0.004137,-0.008033,-0.005057,-0.086231,0.140108,-0.089120,-0.982340,9.075581,16.896053,171.317448
48704,-2.714268,2.587761,8.941424,-0.195706,-1.110000,-0.182473,0.728758,-1.593064,-0.871184,-0.027742,0.025672,0.089289,0.999952,0.003644,-0.007965,-0.004356,-0.091664,0.132340,-0.091362,-0.982719,9.301134,16.072575,170.658257
48705,-2.597488,2.177442,8.743961,-0.046022,-0.720575,-0.462697,0.677906,-1.560562,-0.766996,-0.026573,0.021579,0.087307,0.999956,0.003389,-0.007803,-0.003835,-0.096526,0.124690,-0.093439,-0.983059,9.524836,15.259605,170.063083
48706,-2.154321,2.155518,8.536489,-0.292510,-0.656986,-0.777165,0.599226,-1.477915,-0.724629,-0.022096,0.021379,0.085267,0.999962,0.002996,-0.007389,-0.003623,-0.101086,0.117459,-0.095181,-0.983324,9.718698,14.491927,169.499760
48707,-2.507728,2.071230,8.429697,0.198559,-0.652623,-0.803128,0.569950,-1.382017,-0.695537,-0.025588,0.020561,0.084180,0.999966,0.002850,-0.006910,-0.003478,-0.105432,0.110687,-0.096844,-0.983491,9.910069,13.776815,168.962530
48708,-2.170114,1.751077,8.221310,0.097718,-0.323071,-1.137966,0.509632,-1.331293,-0.652557,-0.022191,0.017373,0.082111,0.999969,0.002548,-0.006656,-0.003263,-0.109502,0.104174,-0.098249,-0.983618,10.079266,13.088255,168.454486
48709,-2.709345,1.872955,8.358373,0.661024,-0.512483,-0.867831,0.519882,-1.253533,-0.576505,-0.027563,0.018591,0.083460,0.999973,0.002599,-0.006268,-0.002882,-0.113158,0.097989,-0.099787,-0.983685,10.272269,12.436855,167.997871
48710,-2.912841,2.201427,8.462879,0.860807,-0.844927,-0.675104,0.460841,-1.284368,-0.485363,-0.029618,0.021891,0.084490,0.999974,0.002304,-0.006422,-0.002427,-0.116348,0.091640,-0.101050,-0.983796,10.445939,11.760720,167.589367
48711,-2.694715,2.088237,8.572494,0.770017,-0.671983,-0.644024,0.383629,-1.299827,-0.378876,-0.027464,0.020770,0.085587,0.999975,0.001918,-0.006499,-0.001894,-0.118979,0.085197,-0.101975,-0.983965,10.592555,11.065250,167.239710
48712,-2.214816,1.984361,8.649837,0.437722,-0.458004,-0.687979,0.362031,-1.324419,-0.243214,-0.022696,0.019715,0.086385,0.999976,0.001810,-0.006622,-0.001216,-0.120942,0.078578,-0.102826,-0.984188,10.744076,10.343161,166.963951
48713,-2.493623,1.918079,8.846403,0.817417,-0.411682,-0.468330,0.494978,-1.342329,-0.048650,-0.025525,0.018968,0.088341,0.999974,0.002475,-0.006712,-0.000243,-0.122001,0.071681,-0.104397,-0.984418,10.994552,9.590208,166.795643
48714,-2.960025,2.002683,9.286362,1.333576,-0.478821,0.036130,0.732261,-1.444949,0.194320,-0.030290,0.019658,0.092719,0.999967,0.003661,-0.007225,0.000972,-0.121997,0.064010,-0.107149,-0.984652,11.402171,8.754316,166.749943
48715,-3.723823,1.835653,9.889767,2.229839,-0.304287,0.674218,1.105254,-1.652584,0.533490,-0.038102,0.017710,0.098684,0.999947,0.005526,-0.008263,0.002667,-0.120541,0.054894,-0.111715,-0.984874,12.047920,7.762092,166.864591
48716,-3.053731,3.456877,10.369036,1.375264,-1.490253,1.353027,1.314412,-1.980617,0.849541,-0.031708,0.033755,0.103604,0.999920,0.006572,-0.009903,0.004248,-0.117756,0.043863,-0.117181,-0.985128,12.826182,6.547049,167.103766
48717,-0.925687,4.016559,9.850713,-0.518432,-1.593804,0.732953,1.092319,-2.161263,1.082345,-0.010537,0.039572,0.098615,0.999912,0.005461,-0.010806,0.005412,-0.113860,0.031920,-0.121482,-0.985525,13.481860,5.196934,167.434067
48718,-0.186385,4.195143,9.683873,-1.000341,-1.603253,0.571635,0.740648,-2.138399,1.237878,-0.003158,0.041576,0.096964,0.999917,0.003703,-0.010692,0.006189,-0.109110,0.020200,-0.124065,-0.986050,13.933777,3.836465,167.840389
48719,-0.012719,4.105066,9.500223,-0.886623,-1.527836,0.384382,0.313005,-2.122943,1.220105,-0.001386,0.040896,0.095056,0.999924,0.001565,-0.010614,0.006100,-0.104375,0.008786,-0.124529,-0.986672,14.130644,2.483628,168.230717
48720,2.316295,2.830292,8.802414,-2.686675,-0.066105,-0.667625,-0.254256,-1.923533,0.965436,0.022178,0.028524,0.088204,0.999941,-0.001271,-0.009617,0.004827,-0.100735,-0.001180,-0.122270,-0.987371,13.989774,1.277957,168.506071
48721,1.737334,-0.273196,8.376636,-1.361929,2.601037,-1.772835,-0.247961,-1.553176,0.707193,0.016731,-0.002568,0.083901,0.999963,-0.001240,-0.007766,0.003536,-0.098132,-0.009173,-0.120218,-0.987843,13.846279,0.313459,168.691800
48722,-0.261052,-0.227826,9.075858,0.742666,2.298839,-1.057481,0.145539,-1.434413,0.555803,-0.003255,-0.002353,0.090735,0.999970,0.000728,-0.007172,0.002779,-0.096182,-0.016674,-0.120166,-0.987943,13.925079,-0.563286,168.810127
48723,-0.840675,0.848922,9.639497,1.284925,1.296442,-0.272592,0.511700,-1.494010,0.580533,-0.009151,0.008217,0.096350,0.999965,0.002558,-0.007470,0.002903,-0.094107,-0.024666,-0.121885,-0.987765,14.212113,-1.477744,168.931169
48724,-2.016899,1.662304,10.361432,2.523386,0.508875,0.558425,0.902590,-1.675067,0.865207,-0.021107,0.016066,0.103514,0.999945,0.004513,-0.008375,0.004326,-0.090682,-0.033900,-0.125400,-0.987372,14.716043,-2.533342,169.178012
48725,-2.150302,3.005225,10.469288,2.675189,-0.682390,0.940506,1.301803,-2.063237,1.319482,-0.022777,0.029223,0.104654,0.999904,0.006509,-0.010316,0.006597,-0.085174,-0.045518,-0.130617,-0.986718,15.433947,-3.874818,169.607606
48726,1.172769,4.709565,9.375023,-0.676669,-1.889397,0.551180,1.358523,-2.306662,1.718872,0.010241,0.046549,0.094192,0.999873,0.006792,-0.011533,0.008594,-0.077825,-0.058601,-0.135887,-0.985923,16.159457,-5.416879,170.203738
48727,2.806610,4.591649,8.719173,-2.048721,-1.617848,0.094997,1.200874,-2.083379,1.936889,0.026711,0.045654,0.087749,0.999881,0.006004,-0.010416,0.009684,-0.069275,-0.070667,-0.140373,-0.985141,16.764664,-6.879672,170.940265
48728,3.140439,4.021848,8.776838,-2.027433,-0.986500,0.085853,0.972189,-1.857733,1.973263,0.030190,0.040092,0.088248,0.999896,0.004861,-0.009288,0.009866,-0.060454,-0.081542,-0.143764,-0.984392,17.214391,-8.230514,171.723540
48729,3.219014,2.293283,8.925787,-1.685792,0.723229,-0.225060,0.930652,-1.585281,1.878103,0.031266,0.022813,0.089614,0.999914,0.004653,-0.007926,0.009390,-0.051910,-0.090989,-0.147047,-0.983567,17.625455,-9.422964,172.493704
48730,2.238628,2.149419,9.554959,-0.401707,0.942151,0.181138,1.008587,-1.476683,1.651101,0.021504,0.021191,0.095818,0.999926,0.005043,-0.007383,0.008255,-0.044359,-0.099734,-0.150819,-0.982517,18.085294,-10.521215,173.150863
48731,2.857300,1.940871,9.323660,-0.861457,1.195190,0.020343,0.983384,-1.444525,1.377065,0.027766,0.019142,0.093534,0.999938,0.004917,-0.007222,0.006885,-0.038135,-0.108102,-0.154593,-0.981306,18.548148,-11.558639,173.655309
48732,3.455054,2.169054,8.925830,-1.377554,0.974917,-0.145099,0.966412,-1.327749,1.092961,0.033839,0.021444,0.089589,0.999951,0.004832,-0.006639,0.005465,-0.033222,-0.115656,-0.158439,-0.980009,19.022099,-12.483572,174.017332
48733,3.270488,2.375206,9.050539,-1.028263,0.851565,0.009005,0.907963,-1.150805,0.857144,0.032082,0.023479,0.090798,0.999964,0.004540,-0.005754,0.004286,-0.029353,-0.122142,-0.162153,-0.978737,19.480633,-13.271833,174.276224
48734,1.726825,2.270921,9.761757,0.780048,1.085697,0.269066,0.936736,-1.101785,0.769348,0.016643,0.022316,0.097816,0.999966,0.004684,-0.005509,0.003847,-0.025855,-0.128309,-0.166055,-0.977392,19.962364,-14.018160,174.490377
48735,0.756912,2.418732,10.053425,1.935803,1.033065,0.320281,1.100378,-1.303043,0.845102,0.006813,0.023663,0.100711,0.999955,0.005502,-0.006515,0.004225,-0.022046,-0.135538,-0.170671,-0.975712,20.536792,-14.890143,174.698924
48736,2.348702,3.557358,9.066460,0.311972,-0.127182,0.200043,1.169074,-1.552223,0.956995,0.022612,0.035152,0.091049,0.999941,0.005845,-0.007761,0.004785,-0.017857,-0.144065,-0.175497,-0.973718,21.146315,-15.919664,174.908629
48737,5.165651,4.399437,7.631319,-2.601436,-1.088870,0.001581,1.013372,-1.410579,0.944812,0.050908,0.043847,0.076896,0.999951,0.005067,-0.007053,0.004724,-0.013711,-0.151868,-0.179573,-0.971855,21.659666,-16.873748,175.132804
48738,5.773255,4.405178,7.329400,-3.116788,-1.108099,-0.039651,0.749057,-0.997252,0.818175,0.057185,0.044011,0.073745,0.999972,0.003745,-0.004986,0.004091,-0.010010,-0.157515,-0.182470,-0.970460,22.013424,-17.582029,175.372239
48739,4.173759,3.713035,8.208424,-1.239101,-0.244864,0.035610,0.658058,-0.669767,0.690733,0.041334,0.037003,0.082345,0.999983,0.003290,-0.003349,0.003454,-0.006700,-0.161450,-0.185039,-0.969355,22.313205,-18.090875,175.611420
48740,2.674018,3.765280,9.156272,0.576618,-0.019887,0.426022,0.725184,-0.665668,0.646661,0.026314,0.037406,0.091787,0.999983,0.003626,-0.003328,0.003233,-0.003544,-0.165318,-0.187959,-0.968157,22.657194,-18.588866,175.824757
48741,2.999814,4.020726,9.242457,0.411303,-0.147834,0.694256,0.740343,-0.777868,0.672175,0.029503,0.039964,0.092688,0.999980,0.003702,-0.003889,0.003361,-0.000358,-0.169750,-0.190926,-0.966815,23.013168,-19.153303,176.023294
48742,3.619565,4.378497,8.870476,-0.158206,-0.522722,0.706731,0.725500,-0.844719,0.725797,0.035662,0.043593,0.089014,0.999978,0.003627,-0.004224,0.003629,0.003010,-0.174546,-0.193764,-0.965391,23.354624,-19.765808,176.232975
48743,4.671007,4.426771,8.328769,-1.206274,-0.665092,0.622079,0.621424,-0.787908,0.800153,0.046204,0.044194,0.083608,0.999979,0.003107,-0.003940,0.004001,0.006702,-0.179137,-0.196029,-0.964074,23.616670,-20.366839,176.495304
48744,4.561268,4.270201,8.311104,-1.012655,-0.507825,0.523169,0.570673,-0.646060,0.878967,0.045156,0.042663,0.083379,0.999981,0.002853,-0.003230,0.004395,0.010867,-0.183113,-0.197963,-0.962893,23.819545,-20.912340,176.835210
48745,3.700480,4.167119,8.731877,0.028398,-0.273917,0.542380,0.530014,-0.571953,0.958443,0.036555,0.041615,0.087534,0.999981,0.002650,-0.002860,0.004792,0.015451,-0.186809,-0.199620,-0.961777,23.973905,-21.438739,177.237502
48746,3.267162,3.816636,9.020327,0.596286,0.162594,0.493839,0.494808,-0.619249,1.008210,0.032200,0.038106,0.090398,0.999979,0.002474,-0.003096,0.005041,0.020193,-0.190776,-0.201054,-0.960611,24.098252,-22.002193,177.656154
48747,3.588934,3.535152,8.718889,0.260367,0.334921,0.247923,0.506446,-0.695384,1.016018,0.035406,0.035311,0.087402,0.999978,0.002532,-0.003477,0.005080,0.024906,-0.195108,-0.202538,-0.959318,24.231076,-22.608368,178.060196
48748,4.341465,3.413594,8.300184,-0.499327,0.322385,0.139190,0.541514,-0.689039,0.954812,0.042965,0.034117,0.083243,0.999979,0.002708,-0.003445,0.004774,0.029365,-0.199333,-0.204239,-0.957962,24.392652,-23.197469,178.431336
48749,4.107565,3.494728,8.300257,-0.176611,0.265291,0.080600,0.582574,-0.631985,0.880229,0.040659,0.034885,0.083233,0.999981,0.002913,-0.003160,0.004401,0.033565,-0.203196,-0.206195,-0.956592,24.585844,-23.740443,178.774335
48750,3.638406,3.635244,8.481757,0.434004,0.234015,0.094343,0.631573,-0.639914,0.846350,0.035959,0.036237,0.085048,0.999981,0.003158,-0.003200,0.004232,0.037643,-0.207045,-0.208412,-0.955133,24.812817,-24.280349,179.095323
48751,3.510137,3.925691,8.551893,0.720633,0.036948,0.204562,0.664451,-0.707314,0.867928,0.034628,0.039123,0.085772,0.999979,0.003322,-0.003537,0.004340,0.041787,-0.211225,-0.210770,-0.953527,25.058849,-24.861924,179.409576
48752,3.932517,4.067224,8.209264,0.335176,-0.190243,0.149710,0.671278,-0.755530,0.927904,0.038826,0.040577,0.082376,0.999976,0.003356,-0.003778,0.004639,0.046171,-0.215685,-0.213094,-0.951808,25.296852,-25.484003,179.744158
48753,4.248533,4.468434,7.916450,0.119227,-0.640044,0.200408,0.646865,-0.732460,0.960753,0.041980,0.044630,0.079463,0.999977,0.003234,-0.003662,0.004804,0.050707,-0.220068,-0.215255,-0.950086,25.507421,-26.103714,-179.897193
48754,4.703040,4.000997,7.606176,-0.392995,-0.326403,-0.029100,0.539473,-0.677749,0.952961,0.046581,0.040027,0.076328,0.999979,0.002697,-0.003389,0.004765,0.055145,-0.224197,-0.216888,-0.948501,25.648166,-26.693857,-179.528082
48755,4.267208,3.596901,7.838347,0.105603,0.164124,-0.192521,0.599476,-0.605494,0.966950,0.042260,0.035939,0.078620,0.999979,0.002997,-0.003027,0.004835,0.059793,-0.227976,-0.218764,-0.946887,25.807399,-27.251402,-179.130690
48756,3.869658,3.840706,8.057373,0.695413,0.078013,-0.109289,0.657338,-0.653814,1.010379,0.038239,0.038336,0.080825,0.999976,0.003287,-0.003269,0.005052,0.064656,-0.232001,-0.220866,-0.945100,25.990509,-27.845439,-178.721397
48757,4.051510,4.110771,7.937297,0.650189,-0.184418,-0.022079,0.698033,-0.689608,1.077431,0.040020,0.041047,0.079655,0.999973,0.003490,-0.003448,0.005387,0.069841,-0.236246,-0.223086,-0.943156,26.179639,-28.476300,-178.283180
48758,4.632292,4.317863,7.461239,0.104947,-0.568465,-0.043512,0.656639,-0.716822,1.152219,0.045806,0.043198,0.074919,0.999972,0.003283,-0.003584,0.005761,0.075295,-0.240702,-0.225017,-0.941149,26.322806,-29.140783,-177.808267
48759,5.638336,4.135908,6.747117,-1.003474,-0.751806,-0.176975,0.634800,-0.600062,1.202752,0.055931,0.041482,0.067771,0.999972,0.003174,-0.003000,0.006014,0.081088,-0.244663,-0.226729,-0.939233,26.416965,-29.759484,-177.268153
48760,4.987362,4.111167,7.099276,-0.192289,-0.529502,-0.228478,0.657723,-0.435912,1.265046,0.049458,0.041191,0.071236,0.999972,0.003289,-0.002180,0.006325,0.087382,-0.247897,-0.228393,-0.937416,26.475532,-30.310131,-176.640483
48761,4.284338,4.109545,7.233734,0.569226,-0.413288,-0.481282,0.733733,-0.429828,1.412679,0.042397,0.041130,0.072580,0.999966,0.003669,-0.002149,0.007063,0.094465,-0.251226,-0.230215,-0.935395,26.525172,-30.896284,-175.920063
48762,5.216414,4.587908,6.702282,-0.207175,-1.130329,-0.228389,0.758834,-0.387906,1.552903,0.051677,0.046027,0.067298,0.999961,0.003794,-0.001940,0.007764,0.102276,-0.254487,-0.231940,-0.933263,26.530565,-31.496740,-175.098911
48763,5.536647,4.622966,6.504693,-0.439093,-1.282187,-0.195023,0.721934,-0.222432,1.647772,0.054912,0.046448,0.065276,0.999959,0.003610,-0.001112,0.008239,0.110666,-0.257087,-0.233269,-0.931260,26.448697,-32.036509,-174.165312
48764,5.297983,4.089536,6.650544,-0.246980,-0.740979,-0.409929,0.696584,-0.080048,1.726983,0.052599,0.041119,0.066669,0.999957,0.003483,-0.000400,0.008635,0.119549,-0.259106,-0.234281,-0.929346,26.293311,-32.521378,-173.134309
48765,5.407410,4.159547,6.781917,-0.166114,-0.765051,-0.225054,0.720106,0.014476,1.785606,0.053706,0.041832,0.067966,0.999954,0.003600,0.000072,0.008928,0.128835,-0.260719,-0.235248,-0.927408,26.105559,-32.970196,-172.031846
48766,5.548742,3.846587,7.023464,-0.209890,-0.416383,-0.081510,0.650256,0.119468,1.782232,0.055185,0.038730,0.070327,0.999955,0.003251,0.000597,0.008911,0.138125,-0.261861,-0.235807,-0.925605,25.851233,-33.360235,-170.892859
48767,4.892423,3.400437,7.203369,0.307898,0.117046,-0.470393,0.681551,0.169280,1.791993,0.048679,0.034196,0.072109,0.999954,0.003408,0.000846,0.008960,0.147548,-0.262740,-0.236441,-0.923739,25.592854,-33.722991,-169.725761
48768,5.522279,3.380999,6.836216,-0.302794,-0.173710,-0.403210,0.671707,0.164249,1.790283,0.054975,0.034073,0.068431,0.999954,0.003358,0.000821,0.008951,0.156930,-0.263620,-0.237015,-0.921792,25.320613,-34.083156,-168.554497
48769,6.602197,3.023842,5.979567,-1.613941,-0.539914,-0.561149,0.741399,0.290183,1.803740,0.065834,0.030611,0.059813,0.999951,0.003707,0.001451,0.009019,0.166601,-0.263859,-0.237769,-0.919831,25.053085,-34.376986,-167.330870
48770,6.893029,3.373074,5.812320,-1.701765,-1.030213,-0.393741,0.884569,0.504726,1.918515,0.068751,0.034134,0.058100,0.999941,0.004423,0.002524,0.009592,0.177224,-0.263098,-0.238828,-0.917786,24.784038,-34.582199,-165.966989
48771,7.538743,3.661200,5.290011,-2.224768,-1.749575,-0.314819,1.107149,0.723922,2.201882,0.075172,0.037148,0.052832,0.999918,0.005536,0.003620,0.011009,0.189678,-0.261436,-0.240305,-0.915383,24.498035,-34.735604,-164.355671
48772,8.474604,4.424711,4.750117,-2.714995,-2.975652,0.073283,1.392744,1.059094,2.628351,0.084409,0.045028,0.047365,0.999875,0.006963,0.005295,0.013141,0.204820,-0.258430,-0.242168,-0.912479,24.162240,-34.807749,-162.374090
48773,8.867338,5.354664,4.671784,-2.445494,-4.001566,0.537692,1.692650,1.509063,3.161238,0.088168,0.054549,0.046510,0.999811,0.008463,0.007545,0.015805,0.223261,-0.253625,-0.244169,-0.908961,23.730472,-34.757023,-159.924244
48774,8.687675,6.351834,4.777904,-1.547848,-4.833133,0.812207,1.894545,1.979376,3.735049,0.086147,0.064681,0.047533,0.999732,0.009472,0.009896,0.018674,0.245036,-0.247048,-0.245730,-0.904733,23.138999,-34.572636,-156.981952
48775,8.480336,6.800794,4.904564,-0.858605,-5.212044,0.878922,1.925947,2.480522,4.212442,0.083958,0.069312,0.048664,0.999655,0.009629,0.012401,0.021060,0.269474,-0.238595,-0.246072,-0.899947,22.334963,-34.198781,-153.611750
48776,7.761912,6.356737,5.388442,-0.214626,-4.536858,0.630199,1.848963,2.993897,4.518994,0.076965,0.064817,0.053324,0.999590,0.009244,0.014967,0.022592,0.295625,-0.228142,-0.244835,-0.894770,21.344683,-33.575032,-149.941407
48777,4.448936,6.471522,7.173103,2.871555,-2.338748,0.157793,1.675050,3.332217,4.584649,0.044192,0.065131,0.071537,0.999563,0.008374,0.016659,0.022920,0.322037,-0.216311,-0.242026,-0.889340,20.249406,-32.726553,-146.191348
48778,1.708063,5.468303,9.090002,4.563592,0.683814,-0.109406,1.101270,3.207112,4.313564,0.017361,0.054555,0.090924,0.999624,0.005506,0.016034,0.021565,0.346206,-0.205465,-0.236979,-0.884175,19.013631,-31.831435,-142.701461
48779,0.981931,1.269345,9.836082,2.107752,4.132761,-0.992433,0.610832,2.879007,3.743000,0.010998,0.012592,0.098247,0.999717,0.003054,0.014394,0.018713,0.366736,-0.196097,-0.230745,-0.879663,17.796220,-30.946898,-139.700298
48780,-0.633661,-1.783638,10.694748,0.852264,7.286828,-1.804691,0.615830,2.348320,2.964906,-0.004812,-0.018245,0.106954,0.999816,0.003079,0.011741,0.014824,0.383062,-0.188070,-0.226175,-0.875636,16.948362,-30.174748,-137.344512
48781,-0.907567,-2.241922,11.428403,0.554545,8.019621,-1.337366,0.700945,1.642711,2.064973,-0.007902,-0.022905,0.114272,0.999907,0.003505,0.008213,0.010325,0.394628,-0.181892,-0.224098,-0.872333,16.535044,-29.617784,-135.717600
48782,0.475701,-1.640716,11.190616,-0.053255,6.634324,-0.640483,0.634271,0.966884,1.160030,0.005394,-0.016732,0.111828,0.999966,0.003171,0.004834,0.005800,0.401377,-0.177759,-0.223864,-0.870163,16.442992,-29.279187,-134.798265
48783,1.895375,-1.171963,10.481581,-0.757731,5.077741,-0.406767,0.622124,0.473270,0.475460,0.019230,-0.012000,0.104733,0.999990,0.003111,0.002366,0.002377,0.404569,-0.175021,-0.225160,-0.868904,16.602934,-29.100245,-134.403537
48784,4.200904,0.046874,9.072516,-1.454912,2.197973,-0.168408,0.742712,0.152163,0.071946,0.042078,0.000147,0.090694,0.999993,0.003714,0.000761,0.000360,0.405744,-0.172977,-0.227978,-0.868030,16.984973,-29.032109,-134.322331
48785,5.868861,1.086794,7.945294,-1.852369,-0.005806,-0.049467,1.060484,0.119018,0.048080,0.058733,0.010461,0.079474,0.999986,0.005302,0.000595,0.000240,0.407044,-0.170402,-0.232259,-0.866795,17.559302,-28.978803,-134.261936
48786,6.534929,3.903769,7.532020,-0.162170,-2.171026,0.672326,1.473954,0.250350,0.278611,0.065390,0.038573,0.075524,0.999971,0.007370,0.001252,0.001393,0.409832,-0.166676,-0.237856,-0.864686,18.287594,-28.895048,-134.030622
48787,7.514993,4.776198,6.715627,-0.199172,-3.658537,0.721162,1.403695,0.417563,0.626219,0.075141,0.047525,0.067333,0.999968,0.007018,0.002088,0.003131,0.414236,-0.162775,-0.242505,-0.862035,18.855199,-28.786305,-133.548308
48788,8.335142,3.577841,5.964913,-1.731996,-3.928323,0.158478,1.631418,0.823137,0.946397,0.083428,0.035687,0.059597,0.999947,0.008157,0.004116,0.004732,0.420664,-0.157031,-0.247014,-0.858701,19.418086,-28.522566,-132.781302
48789,5.837083,4.987884,7.138479,0.917362,-2.390882,0.353439,1.859437,1.159076,1.198565,0.058487,0.049565,0.071508,0.999922,0.009297,0.005795,0.005993,0.428712,-0.149654,-0.251565,-0.854707,20.006941,-28.132906,-131.785468
48790,4.253061,5.659963,8.017355,2.357968,-1.160792,0.555221,1.639076,1.214212,1.255389,0.042665,0.056209,0.080377,0.999928,0.008195,0.006071,0.006277,0.436844,-0.142566,-0.254980,-0.850780,20.453680,-27.733427,-130.742501
48791,2.938671,4.206935,8.547363,1.858153,0.755222,-0.047051,1.314926,1.181975,1.176321,0.029646,0.041681,0.085574,0.999944,0.006575,0.005910,0.005881,0.444311,-0.136201,-0.257107,-0.847309,20.746762,-27.340626,-129.755479
48792,2.329724,2.858015,8.513867,1.001050,1.794900,-0.765187,1.125005,1.068661,1.004641,0.023610,0.028219,0.085172,0.999957,0.005625,0.005343,0.005023,0.450731,-0.130505,-0.258777,-0.844301,20.996904,-26.978053,-128.899269
48793,2.316103,2.332669,8.375244,0.483293,1.958000,-1.044431,0.994890,1.009063,0.787514,0.023493,0.023002,0.083749,0.999967,0.004974,0.005045,0.003938,0.456039,-0.125062,-0.260149,-0.841849,21.242176,-26.605355,-128.187649
48794,2.342979,2.245093,8.312503,0.309875,1.924749,-1.104854,0.886287,0.951700,0.602010,0.023758,0.022154,0.083111,0.999974,0.004431,0.004758,0.003010,0.460397,-0.119859,-0.261299,-0.839876,21.485142,-26.227423,-127.600667
48795,2.783240,2.196523,8.058273,-0.044130,1.471044,-1.132803,0.871524,0.912550,0.495071,0.028146,0.021684,0.080550,0.999977,0.004358,0.004563,0.002475,0.464224,-0.114708,-0.262525,-0.838104,21.754619,-25.849960,-127.086125
48796,3.349791,2.678057,7.802861,-0.014637,0.695561,-0.936137,0.956666,0.905508,0.466899,0.033789,0.026486,0.078003,0.999976,0.004783,0.004528,0.002334,0.467950,-0.109346,-0.264130,-0.836243,22.083831,-25.472586,-126.589431
48797,3.939127,2.990750,7.449596,-0.124209,-0.077140,-0.872001,0.993885,0.957385,0.458516,0.039680,0.029628,0.074454,0.999974,0.004969,0.004787,0.002293,0.471706,-0.103665,-0.265758,-0.834338,22.433628,-25.068593,-126.084244
48798,4.214323,2.724170,7.256001,-0.558033,-0.299734,-1.013295,1.059230,1.033073,0.468682,0.042454,0.026957,0.072485,0.999970,0.005296,0.005165,0.002343,0.475613,-0.097520,-0.267462,-0.832314,22.813736,-24.629652,-125.553741
48799,3.837882,4.146945,7.792973,0.702050,-0.332166,-0.218272,1.207396,1.137551,0.444402,0.038731,0.041085,0.077959,0.999963,0.006037,0.005688,0.002222,0.479599,-0.090551,-0.269526,-0.830145,23.277036,-24.133814,-125.009931
48800,3.159484,4.549086,8.240851,1.248394,0.238880,0.034735,1.067098,1.081263,0.439397,0.031941,0.045121,0.082478,0.999969,0.005335,0.005406,0.002197,0.483391,-0.084137,-0.271129,-0.828096,23.670371,-23.670092,-124.481144
48801,2.962103,4.247692,8.384585,0.981613,0.566396,-0.023251,1.018127,0.980238,0.456475,0.029936,0.042118,0.083915,0.999972,0.005091,0.004901,0.002282,0.487070,-0.078279,-0.272748,-0.825981,24.044728,-23.266555,-123.966404
48802,3.568199,3.488789,7.983271,-0.006652,0.165161,-0.399486,1.037768,0.894330,0.464667,0.035958,0.034557,0.079852,0.999974,0.005189,0.004472,0.002323,0.490645,-0.072733,-0.274642,-0.823741,24.440011,-22.912821,-123.467656
48803,2.928156,3.911180,8.337596,0.534574,0.675786,-0.187527,1.064603,0.881149,0.429568,0.029566,0.038731,0.083453,0.999974,0.005323,0.004406,0.002148,0.494043,-0.067126,-0.276675,-0.821502,24.861593,-22.561031,-122.990569
48804,3.086003,2.742584,8.116416,-0.589002,0.845470,-0.765088,0.951746,0.773656,0.358601,0.031125,0.027095,0.081174,0.999980,0.004759,0.003868,0.001793,0.496939,-0.062135,-0.278523,-0.819522,25.246752,-22.250663,-122.580159
48805,3.660235,2.125756,7.585976,-1.391887,0.320994,-1.244019,1.119238,0.801859,0.255668,0.036880,0.020880,0.075830,0.999975,0.005596,0.004009,0.001278,0.499483,-0.056468,-0.281005,-0.817535,25.747886,-21.903527,-122.217927
