PacketCounter,Acc_X,Acc_Y,Acc_Z,FreeAcc_E,FreeAcc_N,FreeAcc_U,Gyr_X,Gyr_Y,Gyr_Z,VelInc_X,VelInc_Y,VelInc_Z,OriInc_q0,OriInc_q1,OriInc_q2,OriInc_q3,Quat_q0,Quat_q1,Quat_q2,Quat_q3,Roll,Pitch,Yaw
48277,-5.187655,8.234158,-2.904016,-0.384868,-0.507326,0.323433,-0.011524,0.077470,0.073061,-0.051918,0.082321,-0.029025,1.000000,-0.000058,0.000387,0.000365,0.365586,0.054331,0.780888,0.503596,105.264199,31.080465,148.061346
48278,-5.244144,8.015484,-2.951550,-0.300000,-0.672153,0.183255,0.190767,0.015546,0.061378,-0.052468,0.080167,-0.029435,0.999999,0.000954,0.000078,0.000307,0.365319,0.054939,0.781362,0.502988,105.369263,31.039315,148.054016
48279,-5.137147,8.075945,-2.755126,-0.255070,-0.430487,0.134745,0.400722,-0.032079,0.053614,-0.051389,0.080801,-0.027398,0.999998,0.002004,-0.000160,0.000268,0.365199,0.056020,0.782277,0.501532,105.579465,31.009610,148.017270
48280,-5.073617,7.987728,-2.507638,-0.101359,-0.236235,-0.026602,0.437970,-0.072188,0.061936,-0.050752,0.079916,-0.024920,0.999997,0.002190,-0.000361,0.000310,0.365204,0.057302,0.783206,0.499931,105.796928,30.981789,147.953098
48281,-4.896431,7.936943,-2.400851,-0.128590,-0.076750,-0.183997,0.454205,-0.091479,0.066759,-0.048980,0.079407,-0.023851,0.999997,0.002271,-0.000457,0.000334,0.365264,0.058680,0.784135,0.498268,106.016802,30.954407,147.875534
48282,-4.699840,8.170771,-2.177587,-0.173440,0.316814,-0.145146,0.401883,-0.080878,0.077634,-0.047021,0.081733,-0.021631,0.999998,0.002009,-0.000404,0.000388,0.365270,0.059978,0.784946,0.496830,106.209190,30.919734,147.802682
48283,-4.694210,8.170575,-1.948631,-0.015549,0.501390,-0.203347,0.197267,-0.058374,0.085898,-0.046972,0.081705,-0.019419,0.999999,0.000986,-0.000292,0.000429,0.365227,0.060880,0.785285,0.496216,106.290923,30.876915,147.742630
48284,-4.637838,7.827520,-2.012029,0.005097,0.309935,-0.499697,0.040088,-0.031054,0.092000,-0.046411,0.078258,-0.020112,1.000000,0.000200,-0.000155,0.000460,0.365110,0.061450,0.785281,0.496237,106.291049,30.826511,147.698934
48285,-4.609661,7.618418,-2.203185,-0.073972,0.072079,-0.640304,-0.026207,0.030177,0.092910,-0.046135,0.076160,-0.022035,1.000000,-0.000131,0.000151,0.000465,0.364770,0.061752,0.785225,0.496540,106.273207,30.765641,147.694302
48286,-4.778650,7.763529,-2.315367,-0.053624,-0.023593,-0.407085,-0.050026,0.053071,0.099656,-0.047831,0.077606,-0.023160,1.000000,-0.000250,0.000265,0.000498,0.364330,0.061979,0.785148,0.496955,106.248593,30.697502,147.703090
48287,-4.827196,7.925150,-2.324049,-0.060814,0.016208,-0.246756,-0.149966,0.075663,0.094286,-0.048318,0.079211,-0.023282,1.000000,-0.000750,0.000378,0.000471,0.363846,0.061947,0.784865,0.497760,106.174607,30.628593,147.727388
48288,-4.951613,7.739469,-2.383516,0.043755,-0.193429,-0.322711,-0.210519,0.087357,0.075824,-0.049556,0.077351,-0.023895,0.999999,-0.001053,0.000437,0.000379,0.363381,0.061703,0.784458,0.498771,106.071515,30.568132,147.762686
48289,-5.021522,7.755445,-2.438146,0.057249,-0.272970,-0.261280,-0.146673,0.076454,0.054187,-0.050246,0.077523,-0.024419,1.000000,-0.000733,0.000382,0.000271,0.362991,0.061518,0.784196,0.499489,106.003482,30.521243,147.795074
48290,-5.049558,7.742675,-2.597622,-0.018679,-0.421133,-0.220140,-0.142680,0.081870,0.020003,-0.050514,0.077403,-0.026011,1.000000,-0.000713,0.000409,0.000100,0.362665,0.061191,0.783964,0.500130,105.942703,30.492483,147.837235
48291,-5.144271,7.448730,-2.590258,0.132228,-0.611911,-0.417762,-0.105197,0.043477,-0.012650,-0.051444,0.074477,-0.025931,1.000000,-0.000526,0.000217,-0.000063,0.362559,0.060902,0.783765,0.500554,105.893942,30.487661,147.860820
48292,-5.013539,7.195664,-2.690221,0.041143,-0.749210,-0.670072,0.094503,0.013562,-0.047028,-0.050120,0.071981,-0.026865,1.000000,0.000473,0.000068,-0.000235,0.362596,0.060913,0.784023,0.500123,105.953130,30.506619,147.871571
48293,-4.964385,7.178780,-2.776151,-0.041151,-0.784945,-0.687494,0.215322,0.030036,-0.079955,-0.049619,0.071837,-0.027677,0.999999,0.001077,0.000150,-0.000400,0.362612,0.060975,0.784621,0.499163,106.089935,30.540951,147.898917
48294,-5.011059,7.085488,-2.628199,0.116200,-0.721477,-0.774535,0.296536,0.010550,-0.096264,-0.050078,0.070918,-0.026174,0.999999,0.001483,0.000053,-0.000481,0.362722,0.061167,0.785391,0.497848,106.268647,30.587463,147.916999
48295,-4.870208,7.224248,-2.544170,0.037733,-0.496506,-0.749938,0.443206,0.005136,-0.113997,-0.048662,0.072326,-0.025280,0.999997,0.002216,0.000026,-0.000570,0.362849,0.061569,0.786518,0.495922,106.531364,30.644377,147.935130
48296,-4.900770,7.568993,-2.415186,0.061113,-0.207341,-0.480299,0.426588,0.022365,-0.131053,-0.048961,0.075773,-0.023985,0.999998,0.002133,0.000112,-0.000655,0.362955,0.061831,0.787637,0.494032,106.792130,30.707932,147.967889
48297,-4.958643,7.530022,-2.291966,0.200090,-0.127290,-0.512895,0.403851,0.001654,-0.151895,-0.049529,0.075384,-0.022767,0.999998,0.002019,0.000008,-0.000759,0.363199,0.062020,0.788665,0.492186,107.035272,30.786059,147.991767
48298,-4.836152,7.646571,-2.303164,0.081472,0.016456,-0.476953,0.447075,0.005430,-0.156432,-0.048302,0.076555,-0.022859,0.999997,0.002235,0.000027,-0.000782,0.363425,0.062260,0.789804,0.490159,107.305244,30.866128,148.019435
48299,-4.857892,7.896218,-2.335102,0.021749,0.149576,-0.253446,0.414384,0.033035,-0.157581,-0.048520,0.079049,-0.023179,0.999998,0.002072,0.000165,-0.000788,0.363552,0.062369,0.790908,0.488267,107.565776,30.941786,148.065310
48300,-4.833053,8.175775,-2.270089,-0.018907,0.387139,-0.055399,0.326090,0.019768,-0.141105,-0.048275,0.081829,-0.022563,0.999998,0.001630,0.000099,-0.000706,0.363718,0.062414,0.791765,0.486746,107.770022,31.010785,148.099847
48301,-4.781850,8.402192,-2.104898,-0.004916,0.674024,0.058439,0.189531,0.028425,-0.128464,-0.047767,0.084073,-0.020963,0.999999,0.000948,0.000142,-0.000642,0.363860,0.062240,0.792300,0.485791,107.897578,31.071095,148.137504
48302,-4.959735,8.271078,-1.981247,0.233255,0.629307,0.009970,-0.002335,0.011628,-0.125505,-0.049547,0.082742,-0.019811,1.000000,-0.000012,0.000058,-0.000628,0.364122,0.061769,0.792336,0.485596,107.909546,31.132884,148.164009
48303,-4.952880,7.985029,-2.078800,0.229539,0.417910,-0.200936,-0.054300,-0.002784,-0.127967,-0.049477,0.079876,-0.020810,1.000000,-0.000272,-0.000014,-0.000640,0.364462,0.061229,0.792220,0.485598,107.887190,31.198383,148.181806
48304,-5.003735,7.826284,-2.260328,0.180777,0.184298,-0.255987,-0.054598,0.016039,-0.133208,-0.049987,0.078290,-0.022621,1.000000,-0.000273,0.000080,-0.000666,0.364741,0.060621,0.792140,0.485596,107.871511,31.263601,148.212692
48305,-5.140199,7.980180,-2.471258,0.095983,0.054761,-0.004537,-0.020560,0.000863,-0.123583,-0.051353,0.079831,-0.024721,1.000000,-0.000103,0.000004,-0.000618,0.365045,0.060152,0.792111,0.485474,107.869254,31.326075,148.231901
48306,-5.084175,8.397062,-2.465898,-0.059897,0.305866,0.303783,-0.041323,-0.014653,-0.128422,-0.050786,0.083998,-0.024680,1.000000,-0.000207,-0.000073,-0.000642,0.365430,0.059662,0.792004,0.485419,107.850525,31.394087,148.242211
48307,-5.094126,8.468294,-2.444843,-0.071043,0.355244,0.361207,-0.105258,-0.014682,-0.125420,-0.050886,0.084702,-0.024497,1.000000,-0.000526,-0.000073,-0.000627,0.365825,0.059068,0.791741,0.485623,107.794776,31.460302,148.251827
48308,-5.133420,8.360568,-2.465031,-0.041992,0.265553,0.299443,-0.117566,-0.005389,-0.128718,-0.051280,0.083624,-0.024701,1.000000,-0.000588,-0.000027,-0.000644,0.366196,0.058415,0.791465,0.485872,107.735436,31.526858,148.267999
48309,-5.138327,8.241989,-2.636365,-0.131815,0.075096,0.250124,-0.140341,-0.003613,-0.137885,-0.051326,0.082437,-0.026422,1.000000,-0.000702,-0.000018,-0.000689,0.366587,0.057680,0.791139,0.486195,107.664571,31.597967,148.287102
48310,-5.249762,8.041343,-2.744730,-0.082354,-0.158871,0.173538,-0.094936,-0.013300,-0.143179,-0.052438,0.080438,-0.027489,1.000000,-0.000475,-0.000066,-0.000716,0.367017,0.057030,0.790907,0.486325,107.617035,31.673812,148.301003
48311,-5.226569,8.091239,-2.785273,-0.152298,-0.148949,0.212158,-0.038572,-0.019631,-0.150517,-0.052202,0.080946,-0.027873,1.000000,-0.000193,-0.000098,-0.000753,0.367473,0.056471,0.790802,0.486216,107.600415,31.754621,148.312294
48312,-5.193880,8.037254,-2.700776,-0.121250,-0.095719,0.129352,-0.033179,-0.034382,-0.150487,-0.051874,0.080407,-0.027030,1.000000,-0.000166,-0.000172,-0.000752,0.367986,0.055957,0.790683,0.486082,107.581927,31.838117,148.314092
48313,-5.077384,8.117609,-2.622578,-0.190497,0.060435,0.112702,-0.018321,-0.038965,-0.140425,-0.050712,0.081209,-0.026243,1.000000,-0.000092,-0.000195,-0.000702,0.368488,0.055523,0.790587,0.485907,107.569266,31.916765,148.310856
48314,-5.061949,7.969366,-2.448692,-0.063879,0.119940,-0.060163,-0.060129,-0.045652,-0.124388,-0.050564,0.079718,-0.024522,1.000000,-0.000301,-0.000228,-0.000622,0.368990,0.055089,0.790374,0.485923,107.528657,31.987943,148.300018
48315,-4.940167,7.762654,-2.458839,-0.113646,0.061171,-0.289386,-0.020530,-0.039428,-0.104916,-0.049356,0.077650,-0.024606,1.000000,-0.000103,-0.000197,-0.000525,0.369407,0.054792,0.790262,0.485821,107.510685,32.047266,148.289164
48316,-5.019042,7.816827,-2.515648,-0.115924,0.016567,-0.189365,0.004391,-0.023408,-0.086604,-0.050154,0.078191,-0.025161,1.000000,0.000022,-0.000117,-0.000433,0.369711,0.054573,0.790235,0.485658,107.510520,32.093951,148.284912
48317,-4.963068,7.973074,-2.531973,-0.214409,0.115257,-0.088821,0.024346,-0.017721,-0.058026,-0.049605,0.079748,-0.025314,1.000000,0.000122,-0.000089,-0.000290,0.369917,0.054491,0.790259,0.485472,107.520606,32.123910,148.278499
48318,-5.041583,8.242373,-2.516843,-0.224543,0.235239,0.166441,0.014819,-0.007078,-0.037871,-0.050399,0.082435,-0.025164,1.000000,0.000074,-0.000035,-0.000189,0.370034,0.054445,0.790275,0.485362,107.526741,32.141143,148.274866
48319,-5.097541,8.326361,-2.427816,-0.152903,0.319234,0.241277,-0.030232,-0.004920,-0.023245,-0.050965,0.083266,-0.024292,1.000000,-0.000151,-0.000025,-0.000116,0.370120,0.054368,0.790181,0.485459,107.506178,32.149890,148.269628
48320,-5.124395,8.348145,-2.492749,-0.184588,0.267463,0.289745,-0.089375,0.011187,-0.016055,-0.051239,0.083474,-0.024962,1.000000,-0.000447,0.000056,-0.000080,0.370141,0.054171,0.789971,0.485806,107.456511,32.152038,148.273330
48321,-5.192463,8.194960,-2.619533,-0.179000,0.058172,0.234480,-0.110849,0.021150,-0.018624,-0.051920,0.081940,-0.026235,1.000000,-0.000554,0.000106,-0.000093,0.370134,0.053900,0.789728,0.486237,107.398207,32.153779,148.283972
48322,-5.231127,8.185909,-2.679220,-0.190946,-0.013520,0.262796,-0.080049,0.015676,-0.017536,-0.052306,0.081853,-0.026821,1.000000,-0.000400,0.000078,-0.000088,0.370138,0.053703,0.789549,0.486546,107.355581,32.155960,148.290868
48323,-5.202780,8.255396,-2.620454,-0.196548,0.072853,0.288962,-0.070192,0.007056,-0.011929,-0.052024,0.082548,-0.026232,1.000000,-0.000351,0.000035,-0.000060,0.370159,0.053568,0.789376,0.486824,107.315007,32.156460,148.291052
48324,-5.189044,8.177181,-2.610291,-0.181950,0.040200,0.215840,-0.074473,-0.002234,-0.010311,-0.051886,0.081765,-0.026134,1.000000,-0.000372,-0.000011,-0.000052,0.370215,0.053454,0.789176,0.487120,107.268644,32.157738,148.284921
48325,-5.226908,8.082150,-2.595709,-0.122282,-0.020491,0.155464,-0.052710,-0.001235,-0.006611,-0.052266,0.080816,-0.025979,1.000000,-0.000264,-0.000006,-0.000033,0.370251,0.053392,0.789029,0.487337,107.234666,32.156737,148.278678
48326,-5.238044,7.949444,-2.672286,-0.128364,-0.154218,0.073243,-0.043512,0.003748,-0.005409,-0.052379,0.079490,-0.026739,1.000000,-0.000218,0.000019,-0.000027,0.370262,0.053340,0.788913,0.487521,107.207582,32.154303,148.275434
48327,-5.209320,7.866493,-2.646799,-0.111061,-0.168314,-0.015565,-0.012913,0.001943,-0.008945,-0.052090,0.078666,-0.026473,1.000000,-0.000065,0.000010,-0.000045,0.370281,0.053335,0.788870,0.487577,107.197749,32.154036,148.271714
48328,-5.114233,7.795707,-2.609486,-0.136101,-0.135792,-0.132766,0.017105,0.001675,-0.004213,-0.051141,0.077960,-0.026088,1.000000,0.000086,0.000008,-0.000021,0.370282,0.053405,0.788898,0.487523,107.204569,32.151296,148.266899
48329,-5.099929,7.790721,-2.593274,-0.132984,-0.118165,-0.148421,0.049061,0.013940,-0.008850,-0.050998,0.077916,-0.025910,1.000000,0.000245,0.000070,-0.000044,0.370237,0.053486,0.789028,0.487339,107.234361,32.148944,148.270915
48330,-5.062417,7.875778,-2.515091,-0.131659,0.001935,-0.119170,0.017539,0.015237,-0.003505,-0.050625,0.078761,-0.025140,1.000000,0.000088,0.000076,-0.000018,0.370182,0.053526,0.789082,0.487288,107.246029,32.143514,148.274729
48331,-5.090341,7.787350,-2.387944,-0.004967,0.036219,-0.207724,-0.007195,0.013231,0.000996,-0.050905,0.077872,-0.023879,1.000000,-0.000036,0.000066,0.000005,0.370130,0.053544,0.789071,0.487344,107.242293,32.135893,148.276310
48332,-5.104487,7.715521,-2.422548,0.004089,-0.033439,-0.249599,-0.009273,0.030537,-0.003334,-0.051047,0.077155,-0.024221,1.000000,-0.000046,0.000153,-0.000017,0.370022,0.053498,0.789088,0.487403,107.243839,32.127766,148.289976
48333,-5.155939,7.622693,-2.434093,0.060934,-0.112637,-0.294412,0.016469,0.021025,-0.006628,-0.051559,0.076231,-0.024329,1.000000,0.000082,0.000105,-0.000033,0.369952,0.053510,0.789151,0.487353,107.257152,32.122992,148.298121
48334,-4.996757,7.685651,-2.484440,-0.100505,-0.043064,-0.315462,0.057234,0.030452,-0.008804,-0.049968,0.076866,-0.024815,1.000000,0.000286,0.000152,-0.000044,0.369839,0.053566,0.789331,0.487141,107.297353,32.117868,148.312826
48335,-5.093639,7.856112,-2.444552,-0.048370,0.035321,-0.136123,0.046093,0.036440,0.000253,-0.050941,0.078567,-0.024418,1.000000,0.000230,0.000182,0.000001,0.369684,0.053623,0.789493,0.486990,107.332188,32.106694,148.329533
48336,-5.179516,7.857549,-2.384066,0.055950,0.045611,-0.104597,0.060835,0.026669,0.001344,-0.051799,0.078582,-0.023810,1.000000,0.000304,0.000133,0.000007,0.369560,0.053734,0.789672,0.486781,107.372062,32.096649,148.339739
48337,-5.168692,7.923912,-2.416081,0.014146,0.065960,-0.048638,0.058932,0.043463,-0.005729,-0.051690,0.079248,-0.024126,1.000000,0.000295,0.000217,-0.000029,0.369388,0.053774,0.789879,0.486571,107.417288,32.087523,148.362166
48338,-5.123163,7.970939,-2.508083,-0.086543,0.047046,-0.011491,0.016121,0.042471,-0.012209,-0.051232,0.079715,-0.025064,1.000000,0.000081,0.000212,-0.000061,0.369247,0.053711,0.789983,0.486517,107.438401,32.082161,148.385292
48339,-5.170804,7.881839,-2.460090,0.003835,0.015292,-0.070388,-0.024493,0.035680,-0.020133,-0.051704,0.078821,-0.024601,1.000000,-0.000122,0.000178,-0.000101,0.369163,0.053559,0.789977,0.486608,107.434701,32.082231,148.405606
48340,-5.192289,7.744830,-2.410459,0.088592,-0.028165,-0.182322,0.019120,0.025755,-0.028918,-0.051915,0.077458,-0.024090,1.000000,0.000096,0.000129,-0.000145,0.369128,0.053476,0.790061,0.486507,107.453600,32.088864,148.421332
48341,-5.125986,7.881145,-2.438873,-0.013784,0.055340,-0.100169,0.039398,0.033629,-0.032421,-0.051251,0.078825,-0.024365,1.000000,0.000197,0.000168,-0.000162,0.369065,0.053398,0.790209,0.486322,107.487135,32.095993,148.442820
48342,-5.107404,7.863051,-2.522602,-0.075050,-0.003370,-0.103361,0.000352,0.031477,-0.038872,-0.051063,0.078640,-0.025218,1.000000,0.000002,0.000157,-0.000194,0.369036,0.053228,0.790261,0.486278,107.498328,32.107072,148.464270
48343,-5.068211,7.819330,-2.595669,-0.137755,-0.058653,-0.140885,0.031553,0.033859,-0.038988,-0.050671,0.078207,-0.025936,1.000000,0.000158,0.000169,-0.000195,0.368990,0.053109,0.790393,0.486112,107.528169,32.117736,148.487254
48344,-5.087041,7.922048,-2.536488,-0.113695,0.034630,-0.062996,0.033575,0.048965,-0.039112,-0.050861,0.079235,-0.025339,1.000000,0.000168,0.000245,-0.000196,0.368884,0.052956,0.790557,0.485942,107.564432,32.125902,148.520053
48345,-5.066095,7.924975,-2.400045,-0.043375,0.147175,-0.106646,-0.046329,0.043555,-0.038854,-0.050651,0.079254,-0.024008,1.000000,-0.000232,0.000218,-0.000194,0.368820,0.052670,0.790517,0.486086,107.552977,32.134801,148.549280
48346,-5.206208,7.606377,-2.386109,0.151307,-0.071394,-0.292861,-0.044175,0.017425,-0.048413,-0.052046,0.076071,-0.023873,1.000000,-0.000221,0.000087,-0.000242,0.368882,0.052414,0.790437,0.486197,107.534895,32.153492,148.563634
48347,-5.193447,7.659736,-2.511703,0.045092,-0.127389,-0.224475,0.020824,0.030056,-0.058939,-0.051916,0.076615,-0.025101,1.000000,0.000104,0.000150,-0.000295,0.368902,0.052206,0.790541,0.486036,107.559479,32.175700,148.588255
48348,-5.179922,7.818283,-2.495662,-0.001053,-0.023215,-0.107795,-0.021094,0.023758,-0.069224,-0.051775,0.078198,-0.024959,1.000000,-0.000105,0.000119,-0.000346,0.368984,0.051894,0.790534,0.486019,107.559080,32.204668,148.610961
48349,-5.143570,7.763979,-2.474227,-0.003545,-0.017237,-0.176445,-0.008771,-0.005754,-0.074020,-0.051406,0.077658,-0.024747,1.000000,-0.000044,-0.000029,-0.000370,0.369190,0.051659,0.790503,0.485937,107.556053,32.241300,148.615562
48350,-5.097881,7.852694,-2.465743,-0.059491,0.060153,-0.131473,0.043625,0.010814,-0.067818,-0.050954,0.078550,-0.024638,1.000000,0.000218,0.000054,-0.000339,0.369302,0.051504,0.790629,0.485663,107.588153,32.271742,148.629647
48351,-5.078562,7.989142,-2.459604,-0.109774,0.149182,-0.033447,-0.010359,0.030260,-0.059165,-0.050766,0.079905,-0.024592,1.000000,-0.000052,0.000151,-0.000296,0.369330,0.051236,0.790657,0.485624,107.595037,32.294022,148.654500
48352,-5.054895,7.939828,-2.457331,-0.115016,0.136625,-0.086464,-0.047569,0.028947,-0.050031,-0.050533,0.079405,-0.024585,1.000000,-0.000238,0.000145,-0.000250,0.369351,0.050939,0.790591,0.485748,107.579224,32.311581,148.676667
48353,-5.117966,7.893918,-2.385720,-0.016294,0.135067,-0.108015,-0.107419,0.043342,-0.056221,-0.051163,0.078941,-0.023889,1.000000,-0.000537,0.000217,-0.000281,0.369345,0.050473,0.790406,0.486102,107.534706,32.330005,148.709368
48354,-5.209798,7.588155,-2.433327,0.099551,-0.102753,-0.293092,-0.086853,0.038755,-0.059396,-0.052080,0.075886,-0.024356,1.000000,-0.000434,0.000194,-0.000297,0.369359,0.050042,0.790264,0.486366,107.500783,32.351017,148.739776
48355,-5.175997,7.616944,-2.547089,-0.008124,-0.155258,-0.259036,-0.008410,0.062727,-0.062894,-0.051744,0.076185,-0.025458,1.000000,-0.000042,0.000314,-0.000314,0.369268,0.049685,0.790357,0.486321,107.520452,32.369767,148.786375
48356,-5.242020,7.700090,-2.671510,-0.063687,-0.227775,-0.125005,-0.006216,0.056950,-0.064294,-0.052403,0.077017,-0.026703,1.000000,-0.000031,0.000285,-0.000321,0.369202,0.049340,0.790446,0.486262,107.539621,32.390324,148.829580
48357,-5.232135,7.768531,-2.640599,-0.071806,-0.160017,-0.082975,0.025359,0.041163,-0.066094,-0.052301,0.077706,-0.026385,1.000000,0.000127,0.000206,-0.000330,0.369195,0.049085,0.790582,0.486072,107.571562,32.414518,148.862921
48358,-5.242046,7.901443,-2.585123,-0.067270,-0.046968,0.015230,0.057372,0.047316,-0.065578,-0.052401,0.079039,-0.025816,1.000000,0.000287,0.000237,-0.000328,0.369155,0.048875,0.790808,0.485757,107.624028,32.437388,148.900208
48359,-5.211703,7.943276,-2.547392,-0.076806,0.024254,0.022972,0.055195,0.044251,-0.068391,-0.052095,0.079458,-0.025440,1.000000,0.000276,0.000221,-0.000342,0.369134,0.048658,0.791022,0.485445,107.674448,32.462253,148.936084
48360,-5.223820,8.036222,-2.528730,-0.083427,0.088515,0.099367,0.017344,0.038745,-0.072193,-0.052214,0.080383,-0.025270,1.000000,0.000087,0.000194,-0.000361,0.369153,0.048370,0.791136,0.485273,107.701790,32.490177,148.969258
48361,-5.264323,7.849999,-2.444915,0.047503,0.038972,-0.050033,-0.024360,0.020250,-0.079578,-0.052614,0.078518,-0.024453,1.000000,-0.000122,0.000101,-0.000398,0.369273,0.048020,0.791116,0.485250,107.699578,32.525303,148.991961
48362,-5.162409,7.693442,-2.461248,0.002762,-0.006992,-0.226385,-0.001726,0.021970,-0.087119,-0.051593,0.076957,-0.024607,1.000000,-0.000009,0.000110,-0.000436,0.369399,0.047678,0.791156,0.485122,107.711870,32.564296,149.017396
48363,-5.185488,7.728308,-2.504127,-0.022052,-0.025163,-0.174971,-0.010023,0.040456,-0.091914,-0.051824,0.077306,-0.025035,1.000000,-0.000050,0.000202,-0.000460,0.369466,0.047257,0.791211,0.485023,107.726339,32.602625,149.055772
48364,-5.121038,7.751976,-2.522359,-0.090554,0.006985,-0.186047,0.007661,0.034836,-0.077400,-0.051185,0.077541,-0.025212,1.000000,0.000038,0.000174,-0.000387,0.369515,0.046939,0.791295,0.484879,107.747481,32.634041,149.087567
48365,-5.088955,8.000883,-2.444015,-0.137894,0.213341,-0.023904,-0.012806,0.044537,-0.065405,-0.050869,0.080024,-0.024434,1.000000,-0.000064,0.000223,-0.000327,0.369502,0.046608,0.791344,0.484841,107.758879,32.657172,149.123141
48366,-5.188810,7.846137,-2.275985,0.080104,0.213187,-0.137262,-0.068196,0.029784,-0.061262,-0.051867,0.078469,-0.022779,1.000000,-0.000341,0.000149,-0.000306,0.369550,0.046226,0.791230,0.485026,107.733016,32.680669,149.148344
48367,-5.104624,7.727311,-2.391869,-0.023533,0.102625,-0.248250,-0.014940,0.035621,-0.051029,-0.051031,0.077284,-0.023915,1.000000,-0.000075,0.000178,-0.000255,0.369538,0.045970,0.791254,0.485021,107.738486,32.697520,149.175164
48368,-5.141064,7.803652,-2.477603,-0.073531,0.067180,-0.145417,0.013559,0.056515,-0.040211,-0.051402,0.078049,-0.024756,1.000000,0.000068,0.000283,-0.000201,0.369410,0.045758,0.791383,0.484928,107.766449,32.704839,149.213335
48369,-5.177853,7.956080,-2.549787,-0.134704,0.081761,0.015128,0.008404,0.049704,-0.025016,-0.051775,0.079568,-0.025482,1.000000,0.000042,0.000249,-0.000125,0.369273,0.045613,0.791484,0.484882,107.787323,32.705018,149.243898
48370,-5.214568,8.099261,-2.530201,-0.135531,0.157502,0.144646,-0.009208,0.052070,-0.022699,-0.052143,0.080997,-0.025292,1.000000,-0.000046,0.000260,-0.000113,0.369126,0.045439,0.791546,0.484910,107.798727,32.703508,149.275540
48371,-5.263020,8.085275,-2.466630,-0.056455,0.175720,0.143278,-0.051737,0.052765,-0.022925,-0.052627,0.080852,-0.024673,1.000000,-0.000259,0.000264,-0.000115,0.368986,0.045184,0.791505,0.485106,107.785979,32.702003,149.307651
48372,-5.347129,7.858623,-2.444736,0.081448,0.035468,0.001516,-0.044677,0.037614,-0.039899,-0.053460,0.078591,-0.024455,1.000000,-0.000223,0.000188,-0.000199,0.368945,0.044912,0.791458,0.485239,107.773894,32.712427,149.333511
48373,-5.240234,7.714804,-2.552258,-0.023742,-0.071463,-0.143841,0.012373,0.036788,-0.050605,-0.052388,0.077163,-0.025508,1.000000,0.000062,0.000184,-0.000253,0.368921,0.044704,0.791550,0.485127,107.795401,32.728824,149.361026
48374,-5.224030,7.761805,-2.530926,-0.035967,-0.018816,-0.120420,0.043269,0.037402,-0.056981,-0.052223,0.077638,-0.025283,1.000000,0.000216,0.000187,-0.000285,0.368902,0.044527,0.791719,0.484881,107.835614,32.748586,149.390315
48375,-5.308303,7.610691,-2.442993,0.124405,-0.061612,-0.218437,0.100940,0.015053,-0.052673,-0.053065,0.076133,-0.024388,1.000000,0.000505,0.000075,-0.000263,0.368949,0.044527,0.791986,0.484409,107.900512,32.769897,149.404209
48376,-5.134515,7.838522,-2.421618,-0.049277,0.160865,-0.135829,0.182931,0.026845,-0.040376,-0.051333,0.078418,-0.024138,1.000000,0.000915,0.000134,-0.000202,0.368902,0.044699,0.792470,0.483637,108.015245,32.782473,149.423254
48377,-5.190828,8.006973,-2.364117,-0.014867,0.280386,0.014139,0.124309,0.014552,-0.023197,-0.051901,0.080090,-0.023588,1.000000,0.000622,0.000073,-0.000116,0.368874,0.044860,0.792785,0.483127,108.090037,32.787778,149.430683
48378,-5.211635,7.942631,-2.310644,0.058501,0.287065,-0.040290,0.162852,0.012351,-0.003350,-0.052116,0.079446,-0.023039,1.000000,0.000814,0.000062,-0.000017,0.368798,0.045177,0.793185,0.482499,108.183920,32.782659,149.432505
48379,-5.360768,7.970372,-2.177457,0.250123,0.346042,0.027214,0.146058,0.020973,-0.000846,-0.053610,0.079720,-0.021711,1.000000,0.000730,0.000105,-0.000004,0.368685,0.045451,0.793558,0.481945,108.270853,32.774631,149.439345
48380,-5.332278,8.055942,-2.314436,0.124276,0.309981,0.115881,0.045453,0.011424,-0.006478,-0.053321,0.080566,-0.023123,1.000000,0.000227,0.000057,-0.000032,0.368647,0.045541,0.793673,0.481777,108.297472,32.771379,149.441209
48381,-5.407110,8.147607,-2.397517,0.099674,0.265999,0.251494,-0.060280,0.015066,-0.029780,-0.054061,0.081477,-0.023996,1.000000,-0.000301,0.000075,-0.000149,0.368674,0.045335,0.793545,0.481987,108.267457,32.780149,149.450403
48382,-5.305214,7.982389,-2.372450,0.081411,0.234150,0.058021,-0.157403,-0.003363,-0.053195,-0.053031,0.079819,-0.023788,1.000000,-0.000787,-0.000017,-0.000266,0.368853,0.044901,0.793154,0.482534,108.178055,32.804963,149.452635
48383,-5.155776,7.967083,-2.535118,-0.136079,0.159632,0.007660,-0.247321,0.049766,-0.065955,-0.051538,0.079656,-0.025437,0.999999,-0.001237,0.000249,-0.000330,0.368871,0.044122,0.792646,0.483426,108.057206,32.827271,149.491956
48384,-5.205307,8.016298,-2.597969,-0.166436,0.104177,0.090197,-0.303195,0.106165,-0.079522,-0.052035,0.080144,-0.026074,0.999999,-0.001516,0.000531,-0.000398,0.368711,0.043051,0.792108,0.484525,107.925707,32.847088,149.570669
48385,-5.373761,7.788150,-2.743764,-0.083471,-0.210121,0.036662,-0.321168,0.097288,-0.099713,-0.053712,0.077864,-0.027537,0.999998,-0.001606,0.000486,-0.000499,0.368637,0.041887,0.791512,0.485656,107.783092,32.879610,149.647803
48386,-5.307427,7.509248,-2.920413,-0.175091,-0.472522,-0.177729,-0.282385,0.066136,-0.111220,-0.053042,0.075081,-0.029293,0.999999,-0.001412,0.000331,-0.000556,0.368705,0.040825,0.790953,0.486604,107.652978,32.924003,149.707028
48387,-5.245809,7.118682,-2.902609,-0.108260,-0.648796,-0.529013,-0.261946,0.056191,-0.125493,-0.052422,0.071182,-0.029105,0.999999,-0.001310,0.000281,-0.000627,0.368843,0.039768,0.790427,0.487441,107.532685,32.978018,149.762634
48388,-5.356527,7.080283,-2.885440,-0.018010,-0.706352,-0.504127,-0.084102,0.046847,-0.142567,-0.053522,0.070829,-0.028872,1.000000,-0.000421,0.000234,-0.000713,0.369023,0.038994,0.790319,0.487542,107.512934,33.043050,149.815653
48389,-5.314726,7.591390,-2.370282,0.111447,-0.032400,-0.248156,0.039883,0.049623,-0.149061,-0.053097,0.075958,-0.023674,1.000000,0.000199,0.000248,-0.000745,0.369183,0.038417,0.790520,0.487141,107.566002,33.111118,149.871852
48390,-5.309498,7.954523,-2.255081,0.062202,0.253664,0.009857,-0.045791,0.023330,-0.141654,-0.053041,0.079578,-0.022563,1.000000,-0.000229,0.000117,-0.000708,0.369446,0.037775,0.790461,0.487087,107.559886,33.179689,149.909489
48391,-5.260504,7.592823,-2.542622,-0.055012,-0.124555,-0.233009,-0.083141,0.007598,-0.145745,-0.052551,0.075956,-0.025456,1.000000,-0.000416,0.000038,-0.000729,0.369788,0.037086,0.790283,0.487169,107.527225,33.253200,149.937656
48392,-5.254457,7.211989,-2.557809,0.034277,-0.327772,-0.536057,-0.018445,0.002398,-0.155857,-0.052489,0.072158,-0.025584,1.000000,-0.000092,0.000012,-0.000779,0.370162,0.036489,0.790255,0.486976,107.531012,33.333151,149.964539
48393,-5.177522,7.007781,-2.809587,-0.126215,-0.582508,-0.677358,-0.004842,-0.009342,-0.147197,-0.051722,0.070115,-0.028100,1.000000,-0.000024,-0.000047,-0.000736,0.370560,0.035981,0.790235,0.486743,107.537365,33.410383,149.981959
48394,-5.183858,7.289734,-2.581799,-0.072999,-0.256502,-0.506391,0.120209,0.029968,-0.152020,-0.051787,0.072952,-0.025766,1.000000,0.000601,0.000150,-0.000760,0.370791,0.035589,0.790594,0.486014,107.630250,33.483452,150.026253
48395,-5.309392,7.581899,-2.488625,-0.015419,-0.065777,-0.228144,0.194395,0.064666,-0.162676,-0.053040,0.075886,-0.024795,0.999999,0.000972,0.000323,-0.000813,0.370897,0.035208,0.791197,0.484977,107.779509,33.556194,150.095667
48396,-5.351848,7.611413,-2.566593,-0.042996,-0.102649,-0.161218,0.159150,0.065508,-0.162892,-0.053465,0.076178,-0.025588,0.999999,0.000796,0.000328,-0.000814,0.371006,0.034760,0.791716,0.484078,107.909256,33.628789,150.165986
48397,-5.373948,7.566098,-2.578666,-0.023028,-0.123462,-0.181547,0.114118,0.095904,-0.181009,-0.053683,0.075724,-0.025718,0.999999,0.000571,0.000480,-0.000905,0.371046,0.034082,0.792185,0.483329,108.026453,33.705735,150.260270
48398,-5.467843,7.518707,-2.449516,0.137557,-0.067758,-0.199945,0.182511,0.116854,-0.200965,-0.054617,0.075264,-0.024395,0.999999,0.000913,0.000584,-0.001005,0.371038,0.033401,0.792860,0.482274,108.193256,33.789693,150.372931
48399,-5.446742,7.690109,-2.496865,0.041561,0.027155,-0.064018,0.247126,0.133018,-0.203843,-0.054406,0.076987,-0.024837,0.999998,0.001236,0.000665,-0.001019,0.370962,0.032789,0.793718,0.480960,108.403566,33.871930,150.497177
48400,-5.457636,7.647988,-2.803804,-0.124073,-0.192018,-0.010318,0.289981,0.158209,-0.202426,-0.054521,0.076576,-0.027884,0.999998,0.001450,0.000791,-0.001012,0.370775,0.032202,0.794724,0.479481,108.647948,33.948443,150.638184
48401,-5.427448,7.628719,-3.081147,-0.303707,-0.354036,0.032628,0.411607,0.157201,-0.192427,-0.054225,0.076403,-0.030612,0.999997,0.002058,0.000786,-0.000962,0.370546,0.031883,0.796015,0.477535,108.960806,34.019107,150.776799
48402,-5.369616,7.715872,-3.064269,-0.349333,-0.224372,0.065805,0.469662,0.139114,-0.179313,-0.053648,0.077278,-0.030424,0.999997,0.002348,0.000696,-0.000897,0.370346,0.031766,0.797403,0.475376,109.299230,34.085408,150.901274
48403,-5.483318,7.769943,-2.842044,-0.130652,-0.027741,0.111924,0.528182,0.124857,-0.165249,-0.054787,0.077819,-0.028181,0.999996,0.002641,0.000624,-0.000826,0.370157,0.031848,0.798896,0.473005,109.664474,34.146209,151.013730
48404,-5.519786,7.969557,-2.570566,0.022532,0.319318,0.211629,0.594978,0.103496,-0.154129,-0.055150,0.079814,-0.025440,0.999995,0.002975,0.000517,-0.000771,0.370014,0.032148,0.800500,0.470379,110.059241,34.204540,151.110287
48405,-5.518773,8.200645,-2.263344,0.161811,0.723479,0.300686,0.511551,0.068900,-0.151839,-0.055133,0.082106,-0.022405,0.999996,0.002558,0.000344,-0.000759,0.370014,0.032383,0.801835,0.468083,110.393493,34.268000,151.184246
48406,-5.498970,8.095723,-2.334196,0.145026,0.662557,0.225627,0.354138,0.034607,-0.149362,-0.054933,0.081039,-0.023189,0.999998,0.001771,0.000173,-0.000747,0.370170,0.032418,0.802735,0.466412,110.625164,34.336754,151.235818
48407,-5.335142,8.026804,-2.338653,0.046781,0.714403,0.079229,0.199945,0.015226,-0.142725,-0.053296,0.080329,-0.023302,0.999999,0.001000,0.000076,-0.000714,0.370411,0.032239,0.803235,0.465370,110.760504,34.405696,151.273430
48408,-5.308565,7.811812,-2.277770,0.123719,0.663496,-0.120528,0.004845,0.022462,-0.150215,-0.053030,0.078159,-0.022770,1.000000,0.000024,0.000112,-0.000751,0.370673,0.031651,0.803296,0.465098,110.787978,34.477144,151.317767
48409,-5.391253,7.535681,-2.436652,0.155288,0.366265,-0.240274,-0.068562,0.028111,-0.145313,-0.053861,0.075388,-0.024385,1.000000,-0.000343,0.000141,-0.000727,0.370911,0.030934,0.803194,0.465131,110.774766,34.544805,151.364586
48410,-5.348993,7.697412,-2.900373,-0.224892,0.139417,-0.004323,-0.173154,0.073215,-0.151490,-0.053442,0.076989,-0.029051,0.999999,-0.000866,0.000366,-0.000757,0.370999,0.029894,0.802934,0.465578,110.719237,34.606659,151.442278
48411,-5.271857,7.884783,-3.428382,-0.686623,-0.124969,0.248568,-0.624569,0.166130,-0.196524,-0.052670,0.078792,-0.034486,0.999994,-0.003123,0.000831,-0.000983,0.370884,0.027619,0.801796,0.467766,110.445697,34.674122,151.591403
48412,-5.663483,7.108726,-3.361109,-0.155327,-0.696147,-0.148466,-0.645089,0.118783,-0.208995,-0.056581,0.071038,-0.033807,0.999994,-0.003225,0.000594,-0.001045,0.370985,0.025366,0.800516,0.470001,110.144509,34.758233,151.712321
48413,-5.178012,7.515433,-3.239970,-0.580696,-0.216782,-0.147974,-0.439672,0.161196,-0.168706,-0.051743,0.075127,-0.032523,0.999997,-0.002198,0.000806,-0.000844,0.370794,0.023556,0.799784,0.471490,109.971293,34.812814,151.851060
48414,-5.459434,7.447772,-2.992394,-0.226139,-0.207861,-0.110387,-0.673040,0.162653,-0.162907,-0.054558,0.074421,-0.030130,0.999994,-0.003365,0.000813,-0.000815,0.370606,0.021332,0.798497,0.473918,109.664206,34.864417,151.989238
48415,-5.429668,6.851287,-2.891508,-0.013375,-0.470299,-0.616988,-0.219316,0.122891,-0.096737,-0.054281,0.068507,-0.028957,0.999999,-0.001097,0.000614,-0.000484,0.370370,0.020308,0.798199,0.474650,109.593163,34.888384,152.085546
48416,-5.271937,7.793893,-2.727801,-0.329075,0.229407,-0.024018,0.019118,0.150286,-0.043183,-0.052723,0.077953,-0.027231,1.000000,0.000096,0.000751,-0.000216,0.369872,0.019873,0.798511,0.474531,109.661952,34.878174,152.187404
48417,-5.320111,7.920854,-2.942921,-0.464655,0.115181,0.161033,-0.279541,0.124267,0.003097,-0.053221,0.079167,-0.029507,0.999999,-0.001398,0.000621,0.000015,0.369398,0.019133,0.798060,0.475687,109.543515,34.848026,152.261201
48418,-5.733088,7.432085,-2.325848,0.370672,0.144598,-0.150626,0.097283,0.094316,0.019740,-0.057349,0.074326,-0.023195,1.000000,0.000486,0.000472,0.000099,0.368967,0.019226,0.798448,0.475367,109.627556,34.814592,152.311455
48419,-5.530591,8.400621,-2.568759,-0.214940,0.589765,0.548888,0.415882,0.091799,0.062939,-0.055344,0.084042,-0.025487,0.999998,0.002079,0.000459,0.000315,0.368412,0.020086,0.799582,0.473854,109.887177,34.758301,152.349654
48420,-5.464508,9.015397,-2.816308,-0.591272,0.778861,1.055320,-0.147973,0.173269,0.040338,-0.054688,0.090122,-0.028182,0.999999,-0.000740,0.000866,0.000202,0.367640,0.019624,0.799531,0.474559,109.857181,34.698195,152.446505
48421,-6.008839,7.818427,-2.553638,0.346942,0.096209,0.366967,-0.264199,0.104470,0.023798,-0.060111,0.078143,-0.025608,0.999999,-0.001321,0.000522,0.000119,0.367193,0.019044,0.799077,0.475692,109.737012,34.660524,152.502149
48422,-5.922063,7.610870,-2.583787,0.337822,-0.007029,0.165183,0.297460,-0.000374,0.042689,-0.059237,0.076134,-0.025725,0.999999,0.001487,-0.000002,0.000213,0.367066,0.019822,0.799763,0.474604,109.897071,34.632951,152.484643
48423,-5.517725,8.425415,-2.386326,-0.080503,0.756618,0.509545,0.232754,0.021552,0.046566,-0.055199,0.084269,-0.023759,0.999999,0.001164,0.000108,0.000233,0.366848,0.020443,0.800334,0.473783,110.027588,34.599106,152.480442
48424,-5.607836,8.076035,-2.374245,0.110800,0.541848,0.286883,-0.084574,0.019192,0.038873,-0.056096,0.080739,-0.023771,1.000000,-0.000423,0.000096,0.000194,0.366689,0.020458,0.800149,0.474217,109.976465,34.569759,152.476510
48425,-5.523057,7.627188,-2.486490,0.124122,0.237060,-0.076713,-0.025384,0.006684,0.041277,-0.055247,0.076257,-0.024873,1.000000,-0.000127,0.000033,0.000206,0.366570,0.020620,0.800081,0.474418,109.954282,34.541672,152.463844
48426,-5.240366,7.907043,-2.698057,-0.297501,0.332434,0.039381,-0.122093,0.015111,0.043224,-0.052423,0.079043,-0.027025,1.000000,-0.000610,0.000076,0.000216,0.366421,0.020593,0.799798,0.475010,109.879530,34.510821,152.456306
48427,-5.148081,7.820381,-2.632675,-0.303176,0.346377,-0.097746,-0.406037,0.027970,0.055549,-0.051506,0.078136,-0.026478,0.999998,-0.002030,0.000140,0.000278,0.366220,0.020064,0.798862,0.476760,109.645321,34.470877,152.454342
48428,-5.346053,7.416829,-2.729795,-0.097155,-0.053646,-0.271775,-0.376826,0.021273,0.084025,-0.053495,0.074094,-0.027432,0.999998,-0.001884,0.000106,0.000420,0.365973,0.019718,0.797977,0.478443,109.421719,34.416735,152.441584
48429,-5.300206,7.551702,-2.626954,-0.114236,0.086045,-0.220984,-0.254839,0.039412,0.111176,-0.053049,0.075454,-0.026355,0.999999,-0.001274,0.000197,0.000556,0.365577,0.019661,0.797411,0.479690,109.271351,34.344537,152.434675
48430,-5.268379,7.582468,-2.773753,-0.232079,-0.018313,-0.174787,-0.192366,0.047356,0.144386,-0.052745,0.075760,-0.027798,0.999999,-0.000962,0.000237,0.000722,0.365061,0.019831,0.797006,0.480748,109.155577,34.252734,152.425582
48431,-5.436573,7.444349,-2.631088,0.029199,-0.069835,-0.226681,-0.143500,0.055790,0.167610,-0.054435,0.074379,-0.026349,0.999999,-0.000717,0.000279,0.000838,0.364452,0.020163,0.796730,0.481653,109.068061,34.146889,152.416966
48432,-5.525362,7.503354,-2.696354,0.048038,-0.139155,-0.113277,-0.093879,0.054817,0.183725,-0.055330,0.074970,-0.026984,0.999999,-0.000469,0.000274,0.000919,0.363801,0.020651,0.796569,0.482390,109.006699,34.032405,152.404274
48433,-5.415349,7.582160,-2.891952,-0.165267,-0.223730,-0.060707,-0.212981,0.012386,0.179208,-0.054223,0.075742,-0.028997,0.999999,-0.001065,0.000062,0.000896,0.363343,0.021007,0.796042,0.483588,108.862325,33.928322,152.365108
48434,-5.509580,7.171508,-2.640886,0.195813,-0.303769,-0.398356,0.098983,-0.001474,0.165461,-0.055155,0.071683,-0.026374,1.000000,0.000495,-0.000007,0.000827,0.362939,0.021909,0.796245,0.483517,108.893464,33.834120,152.320182
48435,-5.740860,7.522231,-2.439404,0.398392,-0.045722,-0.048918,0.511185,-0.062478,0.185239,-0.057471,0.075231,-0.024220,0.999996,0.002556,-0.000312,0.000926,0.362684,0.023784,0.797329,0.481832,109.136179,33.740791,152.230781
48436,-5.696001,7.944405,-2.250658,0.375153,0.358824,0.204991,0.461559,-0.118691,0.163912,-0.057012,0.079449,-0.022357,0.999997,0.002308,-0.000593,0.000820,0.362707,0.025620,0.798187,0.480296,109.332755,33.669784,152.109345
48437,-5.625811,7.902068,-2.534853,0.186441,0.167285,0.210043,0.367207,-0.121181,0.111165,-0.056287,0.079036,-0.025238,0.999998,0.001836,-0.000606,0.000556,0.362878,0.027080,0.798817,0.479038,109.481083,33.628172,151.998155
48438,-5.364561,7.871797,-2.522379,0.022267,0.272027,0.037775,0.156155,-0.103061,0.049559,-0.053652,0.078724,-0.025190,1.000000,0.000781,-0.000515,0.000248,0.363151,0.027868,0.798981,0.478512,109.522858,33.616449,151.912814
48439,-5.275487,7.375380,-2.866132,-0.102106,-0.217778,-0.305645,-0.020878,-0.111869,-0.003350,-0.052738,0.073752,-0.028699,1.000000,-0.000104,-0.000559,-0.000017,0.363610,0.028144,0.798712,0.478596,109.466749,33.635049,151.833914
48440,-4.849043,7.278893,-3.202140,-0.595115,-0.357003,-0.524653,-0.036300,-0.040968,-0.007228,-0.048481,0.072785,-0.032045,1.000000,-0.000181,-0.000205,-0.000036,0.363798,0.028208,0.798536,0.478744,109.427791,33.641998,151.801813
48441,-5.367364,7.331732,-2.678821,0.085712,-0.149723,-0.341193,-0.126360,0.052557,0.025736,-0.053690,0.073293,-0.026820,1.000000,-0.000632,0.000263,0.000129,0.363546,0.028015,0.798309,0.479325,109.366641,33.613478,151.822946
48442,-5.707497,7.109280,-2.140818,0.731071,-0.009507,-0.476418,0.035121,-0.065596,0.057837,-0.057089,0.071080,-0.021414,1.000000,0.000176,-0.000328,0.000289,0.363665,0.028526,0.798249,0.479303,109.351530,33.589985,151.760117
48443,-5.373045,7.438710,-2.122926,0.404777,0.319040,-0.408159,0.349370,-0.090252,0.059922,-0.053743,0.074408,-0.021124,0.999998,0.001747,-0.000451,0.000300,0.363833,0.029676,0.798896,0.478026,109.507367,33.570202,151.680778
48444,-5.238461,8.016873,-2.084976,0.164658,0.723210,-0.039832,0.142416,-0.102919,0.037170,-0.052389,0.080174,-0.020820,1.000000,0.000712,-0.000515,0.000186,0.364136,0.030390,0.799027,0.477533,109.542926,33.565096,151.598406
48445,-5.144866,7.540762,-2.390577,0.047213,0.267250,-0.380090,-0.221191,-0.132699,0.014390,-0.051438,0.075377,-0.024023,0.999999,-0.001106,-0.000663,0.000072,0.364667,0.030421,0.798238,0.478444,109.362410,33.578038,151.501969
48446,-5.120510,7.044300,-2.608160,0.032302,-0.174926,-0.723541,-0.282468,-0.096546,0.024877,-0.051201,0.070400,-0.026206,0.999999,-0.001412,-0.000483,0.000124,0.365036,0.030297,0.797365,0.479624,109.158356,33.578065,151.426511
48447,-5.309016,6.841377,-2.578146,0.240661,-0.356072,-0.787600,-0.170837,-0.038161,0.028496,-0.053095,0.068384,-0.025850,1.000000,-0.000854,-0.000191,0.000142,0.365148,0.030249,0.796865,0.480374,109.038854,33.565150,151.388237
48448,-5.456501,7.108606,-2.399970,0.376871,-0.144524,-0.544321,0.098323,-0.000282,0.033349,-0.054577,0.071089,-0.023965,1.000000,0.000492,-0.000001,0.000167,0.365056,0.030623,0.797079,0.480065,109.086639,33.542445,151.373436
48449,-5.276779,7.863416,-2.480978,-0.023792,0.279266,-0.027270,0.146412,0.045031,0.018278,-0.052781,0.078647,-0.024740,1.000000,0.000732,0.000225,0.000091,0.364812,0.030914,0.797493,0.479543,109.180048,33.519457,151.391495
48450,-5.438694,8.087131,-2.637757,-0.064336,0.220572,0.281175,-0.122968,0.088328,-0.024213,-0.054389,0.080862,-0.026403,1.000000,-0.000615,0.000442,-0.000121,0.364538,0.030441,0.797346,0.480026,109.139847,33.511223,151.447202
48451,-5.606234,7.726097,-2.836025,0.039692,-0.196969,0.143470,-0.211587,0.009338,-0.051878,-0.056044,0.077245,-0.028439,0.999999,-0.001058,0.000047,-0.000259,0.364659,0.029886,0.796846,0.480798,109.024050,33.532922,151.457864
48452,-5.336300,7.528361,-3.043364,-0.236119,-0.361644,-0.105586,-0.193238,-0.005078,-0.072503,-0.053335,0.075273,-0.030508,0.999999,-0.000966,-0.000025,-0.000363,0.364884,0.029315,0.796366,0.481458,108.915983,33.568491,151.463767
48453,-5.272108,7.205320,-2.916324,-0.121164,-0.425389,-0.430735,-0.225528,-0.026794,-0.096871,-0.052682,0.072046,-0.029252,0.999999,-0.001128,-0.000134,-0.000484,0.365258,0.028642,0.795771,0.482197,108.784675,33.621311,151.460813
48454,-5.244354,7.093056,-3.274275,-0.339221,-0.750930,-0.439503,-0.171836,-0.005588,-0.105272,-0.052405,0.070930,-0.032805,0.999999,-0.000859,-0.000028,-0.000526,0.365560,0.027983,0.795345,0.482711,108.692711,33.674690,151.473400
48455,-5.367694,7.093199,-2.764429,0.050603,-0.420844,-0.507420,-0.010848,-0.028572,-0.098309,-0.053638,0.070957,-0.027656,1.000000,-0.000054,-0.000143,-0.000492,0.365913,0.027700,0.795264,0.482592,108.683833,33.728610,151.469420
48456,-5.481576,7.212922,-2.494403,0.255185,-0.190607,-0.421495,0.253044,-0.141111,-0.085848,-0.054767,0.072184,-0.024891,0.999999,0.001265,-0.000706,-0.000429,0.366647,0.028221,0.795611,0.481432,108.783769,33.796450,151.389359
48457,-5.333447,7.546048,-2.325745,0.144935,0.191465,-0.286939,0.393517,-0.257407,-0.060230,-0.053282,0.075522,-0.023177,0.999997,0.001968,-0.001287,-0.000301,0.367761,0.029382,0.796076,0.479741,108.918769,33.872096,151.227693
48458,-5.007544,7.792027,-2.324895,-0.170286,0.470694,-0.276139,0.261776,-0.307803,-0.023074,-0.050031,0.077956,-0.023224,0.999998,0.001309,-0.001539,-0.000115,0.369004,0.030568,0.796123,0.478633,108.955087,33.937175,151.024861
48459,-4.855487,7.725101,-2.237951,-0.210821,0.566051,-0.437374,0.130702,-0.209872,0.011116,-0.048536,0.077263,-0.022380,0.999999,0.000654,-0.001049,0.000056,0.369795,0.031415,0.796030,0.478123,108.947600,33.965548,150.878182
48460,-5.022113,7.762296,-2.205792,-0.082080,0.543606,-0.323845,0.129892,-0.168279,0.056887,-0.050225,0.077623,-0.022050,0.999999,0.000649,-0.000841,0.000284,0.370309,0.032344,0.796003,0.477707,108.949047,33.961286,150.748377
48461,-5.144421,7.933189,-2.395162,-0.159636,0.445033,-0.070315,0.055754,-0.087445,0.079296,-0.051465,0.079318,-0.023952,1.000000,0.000279,-0.000437,0.000396,0.370461,0.033031,0.795944,0.477640,108.934757,33.929920,150.666394
48462,-5.283467,8.313011,-2.409405,-0.181587,0.569963,0.309986,-0.195831,-0.046988,0.104288,-0.052872,0.083079,-0.024188,0.999999,-0.000979,-0.000235,0.000521,0.370432,0.033254,0.795355,0.478628,108.787973,33.877398,150.605406
48463,-5.276701,8.432342,-2.848730,-0.502331,0.280082,0.518444,-0.479765,0.032229,0.097323,-0.052813,0.084229,-0.028681,0.999997,-0.002399,0.000161,0.000487,0.370152,0.032734,0.794231,0.480742,108.508487,33.813972,150.597962
48464,-5.644510,8.134346,-2.166582,0.266557,0.435631,0.309626,-0.423049,0.044799,0.081034,-0.056483,0.081275,-0.021825,0.999998,-0.002115,0.000224,0.000405,0.369849,0.032225,0.793265,0.482602,108.268160,33.757035,150.602656
48465,-5.796179,7.951319,-2.486812,0.230433,0.014053,0.333745,-0.159239,0.056307,0.060129,-0.057993,0.079476,-0.024915,1.000000,-0.000796,0.000282,0.000301,0.369507,0.032092,0.792958,0.483376,108.185852,33.709492,150.619553
48466,-5.975038,8.256066,-2.476753,0.271265,0.094034,0.671375,-0.236441,0.061090,0.022005,-0.059767,0.082525,-0.024847,0.999999,-0.001182,0.000305,0.000110,0.369251,0.031655,0.792479,0.484386,108.065603,33.681760,150.647759
48467,-5.868860,8.133921,-2.519776,0.195888,0.017698,0.527269,-0.372439,0.018070,0.002423,-0.058692,0.081291,-0.025344,0.999998,-0.001862,0.000090,0.000012,0.369233,0.030993,0.791591,0.485891,107.854174,33.672489,150.652120
48468,-5.669486,7.942059,-2.579870,0.060821,-0.070624,0.280200,-0.272809,0.004804,-0.017303,-0.056689,0.079390,-0.025906,0.999999,-0.001364,0.000024,-0.000087,0.369299,0.030468,0.790922,0.486962,107.697221,33.676210,150.651936
48469,-5.673583,8.106535,-2.353889,0.142134,0.169405,0.355761,-0.068608,-0.061561,-0.011280,-0.056724,0.081060,-0.023584,1.000000,-0.000343,-0.000308,-0.000056,0.369581,0.030506,0.790627,0.487226,107.632520,33.688285,150.606972
48470,-5.579642,8.432740,-2.178859,0.074381,0.503902,0.518406,0.018860,-0.117503,0.003943,-0.055785,0.084328,-0.021813,1.000000,0.000094,-0.000588,0.000020,0.370034,0.030903,0.790438,0.487162,107.595814,33.701684,150.521988
48471,-5.493518,8.401508,-1.689516,0.315416,0.878983,0.323703,-0.111400,-0.153192,0.017628,-0.054930,0.084001,-0.016984,1.000000,-0.000557,-0.000766,0.000088,0.370615,0.031199,0.789864,0.487634,107.469827,33.713694,150.410800
48472,-5.337419,7.893298,-2.291561,-0.024174,0.205456,-0.014700,-0.334335,-0.123796,0.010614,-0.053364,0.078892,-0.023081,0.999998,-0.001672,-0.000619,0.000053,0.371130,0.030983,0.788798,0.488978,107.227352,33.724086,150.320315
48473,-5.122538,7.573658,-2.288098,-0.097001,0.099107,-0.388425,-0.440155,-0.087455,-0.003839,-0.051214,0.075687,-0.023070,0.999997,-0.002201,-0.000437,-0.000019,0.371553,0.030424,0.787542,0.490715,106.939340,33.736063,150.256624
48474,-4.948372,7.519860,-2.665113,-0.457263,-0.173401,-0.437282,-0.463375,-0.017567,0.000855,-0.049482,0.075136,-0.026830,0.999997,-0.002317,-0.000088,0.000004,0.371690,0.029669,0.786353,0.492560,106.662907,33.733577,150.237976
48475,-4.989802,7.481753,-2.486747,-0.321792,-0.109629,-0.488366,-0.489502,0.061619,0.012483,-0.049910,0.074753,-0.025035,0.999997,-0.002448,0.000308,0.000062,0.371489,0.028715,0.785241,0.494538,106.399435,33.711775,150.269403
48476,-5.129509,7.571097,-2.608958,-0.338294,-0.249348,-0.311987,-0.501344,0.052446,0.034921,-0.051315,0.075636,-0.026266,0.999997,-0.002507,0.000262,0.000175,0.371268,0.027851,0.784074,0.496602,106.123273,33.679107,150.290541
48477,-5.075519,7.309866,-2.292726,-0.115675,-0.159792,-0.625059,-0.654327,0.068549,0.024705,-0.050772,0.073017,-0.023149,0.999995,-0.003272,0.000343,0.000124,0.371027,0.026622,0.782552,0.499242,105.766735,33.649750,150.324489
48478,-5.049684,6.629969,-2.682081,-0.164326,-0.829167,-1.098637,-0.740133,0.169001,-0.015595,-0.050514,0.066204,-0.027023,0.999993,-0.003701,0.000845,-0.000078,0.370500,0.024825,0.780997,0.502152,105.401978,33.627252,150.432698
48479,-5.284445,6.720572,-3.408805,-0.474744,-1.474154,-0.740047,-0.537739,0.180197,-0.039995,-0.052862,0.067124,-0.034221,0.999996,-0.002689,0.000901,-0.000200,0.369962,0.023279,0.779966,0.504221,105.159963,33.617125,150.552873
48480,-5.286541,7.504840,-3.156149,-0.592759,-0.922390,-0.167523,-0.349426,0.118573,-0.018683,-0.052877,0.074998,-0.031661,0.999998,-0.001747,0.000593,-0.000093,0.369586,0.022320,0.779289,0.505586,105.000981,33.604659,150.628366
48481,-5.395429,7.819736,-2.382675,-0.161419,-0.233210,-0.022099,-0.119977,0.006834,0.032934,-0.053968,0.078174,-0.023872,1.000000,-0.000600,0.000034,0.000165,0.369489,0.022269,0.778978,0.506137,104.927384,33.580365,150.620413
48482,-5.259926,7.612134,-1.665518,0.242585,0.269391,-0.418331,0.171453,-0.150839,0.089462,-0.052621,0.076112,-0.016630,0.999999,0.000857,-0.000754,0.000447,0.369830,0.023374,0.779106,0.505641,104.957242,33.548046,150.497816
48483,-5.329108,7.489306,-1.773488,0.280756,0.104314,-0.456159,0.383898,-0.176668,0.107957,-0.053316,0.074898,-0.017638,0.999998,0.001919,-0.000883,0.000540,0.370199,0.025010,0.779719,0.504346,105.097668,33.509505,150.354655
48484,-5.552836,7.696102,-2.226742,0.115137,-0.220341,-0.067919,0.419995,-0.201240,0.092066,-0.055541,0.076982,-0.022162,0.999997,0.002100,-0.001006,0.000460,0.370698,0.026714,0.780376,0.502875,105.251441,33.483691,150.198005
48485,-5.573342,8.256710,-1.896876,0.156436,0.315404,0.321885,0.428363,-0.298482,0.077384,-0.055737,0.082586,-0.018875,0.999997,0.002142,-0.001492,0.000387,0.371609,0.028619,0.780870,0.501328,105.375891,33.481075,149.979529
48486,-5.252839,8.699977,-1.717113,-0.101894,0.818384,0.461077,0.348193,-0.336756,0.059353,-0.052525,0.087014,-0.017108,0.999997,0.001741,-0.001684,0.000297,0.372724,0.030402,0.781090,0.500051,105.442278,33.494466,149.738958
48487,-4.956618,8.924928,-1.800994,-0.436772,0.993653,0.496913,0.080334,-0.231935,0.060385,-0.049572,0.089242,-0.018032,0.999999,0.000402,-0.001160,0.000302,0.373466,0.031427,0.780832,0.499837,105.393306,33.491433,149.567629
48488,-5.076730,8.632067,-1.601033,-0.138876,0.931950,0.284896,-0.263838,-0.106070,0.058620,-0.050784,0.086285,-0.016151,0.999999,-0.001319,-0.000530,0.000293,0.373774,0.031489,0.779948,0.500982,105.193447,33.469875,149.479970
48489,-5.084837,7.989600,-1.565690,0.080050,0.599656,-0.232790,-0.593283,-0.050165,0.058901,-0.050868,0.079834,-0.015907,0.999996,-0.002966,-0.000251,0.000295,0.373914,0.030794,0.778338,0.503418,104.825287,33.439673,149.429579
48490,-5.097564,7.424605,-2.146601,-0.107062,-0.179036,-0.556666,-0.867251,0.024105,0.049646,-0.050997,0.074139,-0.021782,0.999991,-0.004336,0.000121,0.000248,0.373825,0.029366,0.776169,0.506906,104.328521,33.403530,149.430335
48491,-5.299723,7.332547,-2.829745,-0.369014,-0.886797,-0.381994,-0.676578,0.100609,0.055056,-0.053032,0.073215,-0.028519,0.999994,-0.003383,0.000503,0.000275,0.373392,0.028119,0.774613,0.509669,103.968563,33.353721,149.481496
48492,-5.670917,7.968190,-2.661096,-0.217009,-0.637043,0.300663,-0.036112,0.070924,0.064720,-0.056744,0.079659,-0.026605,1.000000,-0.000181,0.000355,0.000324,0.372956,0.028180,0.774626,0.509964,103.963725,33.302727,149.511536
48493,-5.787907,8.560347,-1.634081,0.299571,0.386050,0.637712,0.181636,-0.094681,0.066408,-0.057900,0.085599,-0.016290,0.999999,0.000908,-0.000473,0.000332,0.373127,0.029076,0.774886,0.509393,104.023160,33.273780,149.431041
48494,-5.409034,8.026233,-1.196124,0.472928,0.618894,-0.091471,-0.120764,-0.214302,0.073679,-0.054107,0.080235,-0.012068,0.999999,-0.000604,-0.001072,0.000368,0.373785,0.029743,0.774151,0.509991,103.865017,33.256971,149.269793
48495,-5.245274,7.070796,-1.831290,0.281513,-0.275328,-0.828947,-0.125651,-0.164759,0.081428,-0.052466,0.070675,-0.018401,0.999999,-0.000628,-0.000824,0.000407,0.374233,0.030302,0.773493,0.510627,103.721628,33.229004,149.140383
48496,-5.323661,7.324617,-2.456901,-0.125263,-0.670235,-0.455187,0.365403,-0.142529,0.095622,-0.053254,0.073265,-0.024473,0.999998,0.001827,-0.000713,0.000478,0.374483,0.031777,0.774125,0.509395,103.866297,33.190140,149.023600
48497,-5.194325,8.425349,-2.508717,-0.595517,-0.104688,0.380224,0.565945,-0.155528,0.123769,-0.051976,0.084292,-0.024889,0.999996,0.002830,-0.000778,0.000619,0.374678,0.033771,0.775235,0.507431,104.118835,33.137730,148.893315
48498,-5.276656,8.891633,-1.924608,-0.309847,0.545848,0.685617,0.219336,-0.170585,0.126536,-0.052806,0.088904,-0.019194,0.999999,0.001097,-0.000853,0.000633,0.374979,0.035164,0.775433,0.506812,104.167081,33.086120,148.752535
48499,-5.386452,8.131719,-1.417227,0.336131,0.508024,0.024800,-0.035747,-0.195776,0.127656,-0.053902,0.081280,-0.014240,0.999999,-0.000179,-0.000979,0.000638,0.375420,0.036147,0.774935,0.507178,104.060167,33.037404,148.594936
48500,-5.356954,7.833830,-1.527704,0.346779,0.280802,-0.210572,0.100359,-0.156017,0.118127,-0.053604,0.078314,-0.015280,0.999999,0.000502,-0.000780,0.000591,0.375706,0.037248,0.774856,0.507006,104.046449,32.988216,148.465483
48501,-5.475410,8.096833,-1.624490,0.293170,0.278094,0.087540,0.111229,-0.109909,0.084447,-0.054779,0.080954,-0.016230,1.000000,0.000556,-0.000550,0.000422,0.375896,0.038121,0.774898,0.506736,104.058939,32.951430,148.372163
48502,-5.680542,8.250372,-1.490883,0.475830,0.357059,0.297012,0.004573,-0.152210,0.057254,-0.056818,0.082488,-0.014950,1.000000,0.000023,-0.000761,0.000286,0.376338,0.038799,0.774595,0.506820,103.997562,32.935337,148.255266
48503,-5.896457,7.911914,-0.861790,1.125408,0.563073,0.012060,0.030111,-0.265815,0.023437,-0.058962,0.079114,-0.008684,0.999999,0.000151,-0.001329,0.000117,0.377302,0.039679,0.774149,0.506717,103.912949,32.953884,148.068790
48504,-5.281198,7.579606,-1.553854,0.352528,0.141696,-0.452582,-0.021908,-0.255668,0.013512,-0.052797,0.075791,-0.015614,0.999999,-0.000110,-0.001278,0.000068,0.378261,0.040395,0.773589,0.506801,103.802697,32.976261,147.890608
48505,-4.937458,7.822367,-2.567876,-0.614368,-0.361743,-0.239099,-0.056150,-0.134265,-0.004092,-0.049356,0.078217,-0.025734,1.000000,-0.000281,-0.000671,-0.000020,0.378801,0.040673,0.773176,0.507006,103.718416,32.991668,147.795724
48506,-5.012217,8.824075,-2.398567,-0.783238,0.209582,0.583579,-0.022901,-0.061698,-0.002694,-0.050114,0.088239,-0.024011,1.000000,-0.000115,-0.000308,-0.000013,0.379050,0.040835,0.772983,0.507101,103.679025,32.996172,147.748705
48507,-4.941505,9.067824,-2.133442,-0.753187,0.546172,0.691114,-0.213170,-0.060804,0.014333,-0.049415,0.090652,-0.021446,0.999999,-0.001066,-0.000304,0.000072,0.379291,0.040699,0.772306,0.507962,103.529679,32.991202,147.699575
48508,-5.337669,8.126326,-1.292278,0.341809,0.521782,-0.024499,-0.412592,-0.148638,0.037498,-0.053382,0.081226,-0.013130,0.999998,-0.002063,-0.000743,0.000187,0.379852,0.040498,0.770948,0.509619,103.232137,32.984688,147.588441
48509,-5.510258,6.102076,-1.449101,1.003928,-0.671707,-1.551995,-0.254685,-0.251165,0.057234,-0.055102,0.060986,-0.014638,0.999998,-0.001273,-0.001256,0.000286,0.380724,0.040934,0.769792,0.510680,102.986489,32.980159,147.406089
48510,-5.656616,5.459037,-1.957019,0.992219,-1.432695,-1.901229,0.546844,-0.282515,0.050233,-0.056552,0.054630,-0.019501,0.999995,0.002734,-0.001413,0.000251,0.381568,0.042949,0.770618,0.508634,103.189205,32.983422,147.203895
48511,-5.740101,6.766125,-1.682788,0.821141,-0.602131,-0.839183,1.211842,-0.321656,0.008823,-0.057377,0.067759,-0.016510,0.999980,0.006059,-0.001608,0.000044,0.382517,0.046171,0.773051,0.503925,103.762425,33.016258,146.982354
48512,-5.527912,8.125437,-1.556935,0.362445,0.319977,0.125630,1.341585,-0.393656,-0.026827,-0.055238,0.081364,-0.015133,0.999976,0.006708,-0.001968,-0.000134,0.383788,0.049682,0.775647,0.498608,104.387048,33.081004,146.719313
48513,-5.168654,8.837561,-1.595865,-0.087401,0.893064,0.510019,1.289309,-0.384490,-0.070276,-0.051625,0.088495,-0.015488,0.999977,0.006446,-0.001922,-0.000351,0.385125,0.052899,0.778105,0.493389,104.989327,33.170731,146.470472
48514,-4.993846,8.991499,-1.835712,-0.366561,0.963737,0.584015,1.250658,-0.378820,-0.075686,-0.049870,0.090047,-0.017889,0.999979,0.006253,-0.001894,-0.000378,0.386447,0.056005,0.780445,0.488292,105.571854,33.264590,146.227135
48515,-4.711408,9.513700,-2.594047,-1.174059,0.899929,1.015429,0.944452,-0.291930,-0.056589,-0.047050,0.095272,-0.025559,0.999988,0.004722,-0.001460,-0.000283,0.387455,0.058380,0.782174,0.484432,106.008915,33.336333,146.038411
48516,-4.714008,9.444924,-2.912567,-1.342949,0.685630,1.033410,0.361960,-0.209387,-0.022600,-0.047099,0.094507,-0.029004,0.999998,0.001810,-0.001047,-0.000113,0.388223,0.059560,0.782631,0.482933,106.138504,33.376909,145.897845
48517,-4.975433,8.817390,-3.020582,-1.050079,0.175711,0.698814,0.197550,-0.073637,0.003472,-0.049745,0.088203,-0.030137,0.999999,0.000988,-0.000368,0.000017,0.388445,0.060193,0.782944,0.482167,106.220457,33.381821,145.841900
48518,-5.310123,8.778502,-2.738611,-0.610210,0.210176,0.786508,0.200780,-0.005089,0.035434,-0.053116,0.087803,-0.027299,0.999999,0.001004,-0.000025,0.000177,0.388319,0.060794,0.783387,0.481475,106.325267,33.357873,145.824896
48519,-5.395190,8.467953,-2.668143,-0.406644,0.063090,0.568254,0.109895,-0.013186,0.059489,-0.053975,0.084678,-0.026638,1.000000,0.000549,-0.000066,0.000297,0.388195,0.061330,0.783588,0.481178,106.372975,33.322375,145.797963
48520,-5.411602,7.867019,-2.695519,-0.238247,-0.280805,0.102232,0.078572,-0.012384,0.065091,-0.054140,0.078663,-0.026928,1.000000,0.000393,-0.000062,0.000325,0.388064,0.061825,0.783714,0.481016,106.402239,33.283672,145.770476
48521,-5.386921,7.127797,-2.679643,-0.036274,-0.652174,-0.507944,-0.007505,-0.044290,0.044291,-0.053879,0.071265,-0.026811,1.000000,-0.000038,-0.000221,0.000221,0.388135,0.062150,0.783577,0.481140,106.373097,33.261572,145.726025
48522,-5.498588,6.124799,-2.787839,0.245731,-1.314197,-1.225943,0.092904,-0.084730,0.022839,-0.054981,0.061255,-0.027873,1.000000,0.000465,-0.000424,0.000114,0.388383,0.062683,0.783608,0.480819,106.388899,33.257465,145.659107
48523,-5.267979,6.307819,-3.016439,-0.112508,-1.261429,-1.150402,0.304119,-0.051313,0.018085,-0.052678,0.063119,-0.030082,0.999999,0.001521,-0.000257,0.000090,0.388446,0.063526,0.784214,0.479669,106.538562,33.250953,145.615104
48524,-5.240360,7.245268,-2.589668,-0.087589,-0.429467,-0.513792,0.471901,-0.063661,0.039890,-0.052410,0.072503,-0.025742,0.999997,0.002360,-0.000318,0.000199,0.388449,0.064811,0.785187,0.477899,106.777318,33.234265,145.558687
48525,-5.034913,8.575050,-2.543877,-0.533087,0.438508,0.428237,0.490635,-0.036996,0.071404,-0.050375,0.085795,-0.025238,0.999997,0.002453,-0.000185,0.000357,0.388265,0.066191,0.786243,0.476121,107.033172,33.196423,145.513407
48526,-4.939231,9.241163,-2.419151,-0.664862,0.951845,0.878396,0.310055,0.005497,0.099759,-0.049439,0.092424,-0.024047,0.999999,0.001550,0.000027,0.000499,0.387904,0.067230,0.786938,0.475120,107.197470,33.135981,145.490139
48527,-5.027734,9.191747,-2.523487,-0.640405,0.817235,0.913742,0.060670,0.064097,0.113685,-0.050338,0.091897,-0.025191,1.000000,0.000303,0.000320,0.000568,0.387363,0.067701,0.787149,0.475145,107.238339,33.058061,145.502157
48528,-5.369564,8.417170,-2.676891,-0.291759,0.123428,0.519124,-0.069591,0.104912,0.113301,-0.053757,0.084132,-0.026770,1.000000,-0.000348,0.000525,0.000567,0.386705,0.067823,0.787129,0.475697,107.219112,32.973205,145.540846
48529,-5.561110,8.133876,-2.776552,-0.142940,-0.202328,0.421263,-0.120808,0.099728,0.109849,-0.055670,0.081291,-0.027787,1.000000,-0.000604,0.000499,0.000549,0.386094,0.067843,0.786978,0.476440,107.169035,32.891354,145.576891
48530,-5.312691,7.953313,-2.452160,-0.044448,0.027155,0.061026,-0.198603,0.063204,0.118042,-0.053182,0.079477,-0.024584,0.999999,-0.000993,0.000316,0.000590,0.385630,0.067835,0.786567,0.477494,107.060530,32.810795,145.587556
48531,-5.509075,7.243242,-2.008262,0.575487,-0.156378,-0.512585,-0.227791,0.015633,0.096361,-0.055127,0.072383,-0.020161,0.999999,-0.001139,0.000078,0.000482,0.385417,0.067796,0.786000,0.478603,106.921010,32.750522,145.571763
48532,-5.583281,6.792426,-2.486067,0.427404,-0.777835,-0.718573,0.044667,0.021049,0.075112,-0.055861,0.067909,-0.024840,1.000000,0.000223,0.000105,0.000376,0.385141,0.068185,0.786102,0.478603,106.941629,32.700856,145.563863
48533,-5.447285,7.950152,-2.628326,-0.057794,-0.198284,0.174468,0.046004,-0.000860,0.064399,-0.054498,0.079490,-0.026265,1.000000,0.000230,-0.000004,0.000322,0.384976,0.068587,0.786169,0.478568,106.956668,32.660846,145.543742
48534,-5.050173,8.475594,-2.352595,-0.281333,0.457788,0.315783,-0.040709,-0.040300,0.068204,-0.050526,0.084734,-0.023553,1.000000,-0.000204,-0.000202,0.000341,0.384985,0.068933,0.785951,0.478869,106.907734,32.625020,145.497220
48535,-4.949611,8.614019,-2.336486,-0.375903,0.578856,0.369785,-0.116920,0.003945,0.070801,-0.049527,0.086109,-0.023414,1.000000,-0.000585,0.000020,0.000354,0.384842,0.069036,0.785635,0.479488,106.830496,32.580678,145.479048
48536,-4.991215,8.107605,-2.431644,-0.282082,0.205092,0.007532,-0.269017,0.040436,0.062442,-0.049942,0.081028,-0.024415,0.999999,-0.001345,0.000202,0.000312,0.384625,0.068726,0.785026,0.480701,106.679786,32.534575,145.486385
48537,-5.166414,7.601940,-2.479550,-0.066048,-0.202371,-0.295117,-0.311869,0.079652,0.052957,-0.051694,0.075967,-0.024893,0.999999,-0.001559,0.000398,0.000265,0.384294,0.068201,0.784391,0.482076,106.519373,32.487567,145.521236
48538,-5.293285,7.314647,-2.565600,0.036155,-0.494962,-0.439379,-0.238784,0.075512,0.048025,-0.052960,0.073103,-0.025723,0.999999,-0.001194,0.000378,0.000240,0.383962,0.067809,0.783925,0.483153,106.399912,32.443733,145.554461
48539,-5.210069,7.395872,-2.476555,0.014216,-0.366306,-0.440245,-0.191562,0.058693,0.053926,-0.052128,0.073921,-0.024821,0.999999,-0.000958,0.000293,0.000270,0.383668,0.067569,0.783537,0.484049,106.301078,32.399700,145.575683
48540,-5.143838,7.389046,-2.393302,0.026226,-0.292025,-0.501458,-0.091587,0.043561,0.065799,-0.051468,0.073863,-0.023956,1.000000,-0.000458,0.000218,0.000329,0.383369,0.067606,0.783357,0.484571,106.253022,32.351382,145.584892
48541,-5.134589,7.672222,-2.532698,-0.144810,-0.247160,-0.244015,-0.055577,0.044554,0.058109,-0.051374,0.076700,-0.025337,1.000000,-0.000278,0.000223,0.000291,0.383074,0.067677,0.783269,0.484937,106.226768,32.307348,145.596195
48542,-5.192694,7.603651,-2.398236,0.007135,-0.222455,-0.300507,-0.037098,0.013009,0.058323,-0.051951,0.076017,-0.023993,1.000000,-0.000185,0.000065,0.000292,0.382894,0.067863,0.783165,0.485221,106.200131,32.268034,145.586983
48543,-5.045983,7.994190,-2.440146,-0.223254,0.014527,-0.051885,-0.042579,0.036036,0.050120,-0.050484,0.079924,-0.024409,1.000000,-0.000213,0.000180,0.000251,0.382646,0.067949,0.783094,0.485518,106.179179,32.229766,145.594289
48544,-5.060216,8.040373,-2.288024,-0.121454,0.132182,-0.042518,-0.076371,0.040286,0.047924,-0.050626,0.080383,-0.022901,1.000000,-0.000382,0.000201,0.000240,0.382398,0.067952,0.782951,0.485945,106.140569,32.191790,145.604834
48545,-5.064469,8.052801,-2.242929,-0.089774,0.159606,-0.040603,-0.101521,0.060011,0.049554,-0.050671,0.080504,-0.022455,1.000000,-0.000508,0.000300,0.000248,0.382078,0.067865,0.782783,0.486479,106.094221,32.150028,145.627888
48546,-5.124868,7.968399,-2.263317,-0.037541,0.061542,-0.072202,-0.143270,0.061832,0.050981,-0.051276,0.079655,-0.022674,1.000000,-0.000716,0.000309,0.000255,0.381760,0.067700,0.782516,0.487181,106.024471,32.106988,145.651944
48547,-5.116941,7.888312,-2.178888,0.033838,0.072253,-0.161276,-0.143686,0.061939,0.031947,-0.051189,0.078859,-0.021830,1.000000,-0.000718,0.000310,0.000160,0.381489,0.067459,0.782254,0.487846,105.956394,32.074662,145.679621
48548,-5.241548,7.827371,-2.365313,0.013398,-0.161922,-0.101360,-0.132677,0.073740,0.031341,-0.052436,0.078250,-0.023686,1.000000,-0.000663,0.000369,0.000157,0.381169,0.067209,0.782041,0.488472,105.898793,32.040600,145.715132
48549,-5.187029,7.925220,-2.348989,-0.040957,-0.084583,-0.054445,-0.139669,0.044750,0.027533,-0.051886,0.079229,-0.023534,1.000000,-0.000698,0.000224,0.000138,0.380974,0.067000,0.781757,0.489108,105.827532,32.013452,145.732516
48550,-5.083692,7.824559,-2.283038,-0.044285,-0.050177,-0.206677,-0.123473,0.048640,0.024636,-0.050852,0.078225,-0.022866,1.000000,-0.000617,0.000243,0.000123,0.380764,0.066802,0.781520,0.489676,105.767192,31.987073,145.753037
48551,-5.153366,7.836373,-2.280680,0.002421,-0.084360,-0.160729,-0.108752,0.068201,0.018644,-0.051549,0.078347,-0.022832,1.000000,-0.000544,0.000341,0.000093,0.380489,0.066559,0.781358,0.490181,105.722596,31.961211,145.787351
48552,-5.084409,7.753919,-2.153394,0.058800,-0.012037,-0.293865,-0.158087,0.051497,0.019007,-0.050857,0.077517,-0.021582,1.000000,-0.000790,0.000257,0.000095,0.380293,0.066267,0.781043,0.490874,105.643985,31.937511,145.810784
48553,-5.021424,7.842730,-2.178708,-0.026833,0.036970,-0.248808,-0.067919,0.062731,0.016887,-0.050228,0.078416,-0.021798,1.000000,-0.000340,0.000314,0.000084,0.380030,0.066108,0.780971,0.491214,105.621071,31.913520,145.841902
48554,-5.138076,8.317631,-2.335170,-0.175469,0.104890,0.236892,-0.106690,0.085510,0.005869,-0.051393,0.083162,-0.023374,1.000000,-0.000533,0.000428,0.000029,0.379716,0.065778,0.780851,0.491692,105.584829,31.891891,145.889889
48555,-5.119587,8.166010,-2.340048,-0.152133,0.024441,0.104267,-0.158985,0.073579,0.006711,-0.051207,0.081640,-0.023447,1.000000,-0.000795,0.000368,0.000034,0.379465,0.065380,0.780578,0.492371,105.514429,31.871889,145.929926
48556,-5.014231,7.902964,-2.211961,-0.074480,0.021469,-0.195718,-0.198100,0.070774,0.007858,-0.050153,0.079006,-0.022180,0.999999,-0.000991,0.000354,0.000039,0.379233,0.064921,0.780203,0.493205,105.420567,31.851480,145.967990
48557,-5.147493,7.574228,-2.351223,0.015059,-0.319131,-0.363254,-0.147035,0.097359,0.008399,-0.051490,0.075723,-0.023543,1.000000,-0.000735,0.000487,0.000042,0.378881,0.064494,0.780003,0.493847,105.365009,31.827021,146.023234
48558,-5.322894,7.475238,-2.162689,0.287672,-0.324473,-0.394537,-0.140335,0.070297,-0.005525,-0.053234,0.074739,-0.021661,1.000000,-0.000702,0.000351,-0.000028,0.378665,0.064093,0.779772,0.494429,105.305352,31.814167,146.063418
48559,-5.205016,7.496386,-1.868582,0.389235,-0.051137,-0.505407,-0.076762,0.052320,-0.009332,-0.052052,0.074959,-0.018701,1.000000,-0.000384,0.000262,-0.000047,0.378509,0.063841,0.779666,0.494749,105.276274,31.806397,146.092556
48560,-5.250998,7.748963,-1.715776,0.450804,0.161459,-0.308267,-0.067360,0.059568,-0.020961,-0.052507,0.077489,-0.017168,1.000000,-0.000337,0.000298,-0.000105,0.378349,0.063544,0.779600,0.495013,105.256183,31.803782,146.128537
48561,-5.326887,8.109683,-1.706679,0.408832,0.310986,0.025584,-0.072870,0.056184,-0.031977,-0.053261,0.081099,-0.017081,1.000000,-0.000364,0.000281,-0.000160,0.378233,0.063201,0.779517,0.495276,105.232776,31.807969,146.164209
48562,-5.274323,8.496806,-1.473173,0.410131,0.692723,0.263837,-0.204404,0.046670,-0.044936,-0.052728,0.084965,-0.014806,0.999999,-0.001022,0.000233,-0.000225,0.378226,0.062584,0.779094,0.496025,105.131951,31.820567,146.195994
48563,-5.322794,8.472080,-1.296546,0.550537,0.770527,0.231835,-0.330487,0.010476,-0.054855,-0.053205,0.084714,-0.013103,0.999999,-0.001652,0.000052,-0.000274,0.378424,0.061778,0.778292,0.497233,104.947362,31.844317,146.205893
48564,-5.219493,8.839964,-1.022286,0.529421,1.180373,0.422520,-0.398024,0.001425,-0.073949,-0.052162,0.088398,-0.010398,0.999998,-0.001990,0.000007,-0.000370,0.378724,0.060793,0.777307,0.498664,104.722610,31.879814,146.213080
48565,-5.056228,9.184743,-1.449900,0.005958,1.086932,0.715630,-0.595931,0.065137,-0.116672,-0.050513,0.091833,-0.014756,0.999995,-0.002980,0.000326,-0.000583,0.378941,0.059107,0.775958,0.500799,104.410242,31.930035,146.268954
48566,-5.188683,9.065699,-2.233679,-0.418966,0.347493,0.855110,-0.845361,0.083984,-0.157211,-0.051825,0.090602,-0.022698,0.999991,-0.004227,0.000420,-0.000786,0.379255,0.056745,0.774020,0.503824,103.964793,32.000237,146.343472
48567,-4.965762,8.333798,-2.386197,-0.511673,-0.071658,0.164159,-0.954236,0.066780,-0.170879,-0.049595,0.083265,-0.024243,0.999988,-0.004771,0.000334,-0.000854,0.379693,0.054164,0.771764,0.507228,103.451992,32.081113,146.408297
48568,-4.916081,6.917957,-2.921442,-0.509199,-1.179396,-0.929547,-0.947314,0.081171,-0.168308,-0.049115,0.069082,-0.029522,0.999988,-0.004737,0.000406,-0.000842,0.380056,0.051570,0.769533,0.510604,102.947484,32.158845,146.481343
48569,-4.979675,5.982490,-2.806290,-0.133795,-1.606538,-1.697047,-0.650207,0.060327,-0.141273,-0.049763,0.059768,-0.028242,0.999994,-0.003251,0.000302,-0.000706,0.380350,0.049696,0.768002,0.512872,102.603616,32.224880,146.536018
48570,-4.918847,5.655452,-2.696619,-0.021099,-1.667477,-2.023592,-0.227138,0.051636,-0.110983,-0.049164,0.056551,-0.027018,0.999999,-0.001136,0.000258,-0.000555,0.380490,0.048765,0.767526,0.513569,102.496565,32.275012,146.580218
48571,-4.997977,6.199003,-2.531779,-0.036265,-1.324648,-1.562760,0.109293,0.037605,-0.060197,-0.049966,0.062019,-0.025275,1.000000,0.000546,0.000188,-0.000301,0.380472,0.048704,0.767875,0.513066,102.573390,32.298720,146.607664
48572,-4.945084,7.063704,-2.217636,-0.139966,-0.642393,-0.933759,0.364348,-0.007003,-0.018451,-0.049444,0.070682,-0.022049,0.999998,0.001822,-0.000035,-0.000092,0.380455,0.049404,0.768781,0.511653,102.777337,32.304467,146.599526
48573,-4.917951,7.816806,-1.767873,-0.090718,0.088288,-0.410670,0.468770,0.020298,0.035518,-0.049195,0.078200,-0.017490,0.999997,0.002344,0.000101,0.000178,0.380168,0.050439,0.769990,0.509944,103.046375,32.276784,146.601226
48574,-5.055700,8.690757,-1.739660,-0.217848,0.490863,0.376876,0.493859,0.052332,0.067247,-0.050591,0.086933,-0.017169,0.999997,0.002469,0.000262,0.000336,0.379668,0.051563,0.771312,0.508205,103.338456,32.226987,146.619018
48575,-5.190063,9.681430,-1.249626,-0.081490,1.296402,1.166428,0.375141,0.090432,0.068209,-0.051939,0.096820,-0.012291,0.999998,0.001876,0.000452,0.000341,0.379048,0.052368,0.772399,0.506932,103.575545,32.171724,146.661438
48576,-5.226176,10.199736,-1.154572,-0.129101,1.614637,1.591558,0.056027,0.142261,0.055663,-0.052298,0.101986,-0.011480,1.000000,0.000280,0.000711,0.000278,0.378340,0.052388,0.772778,0.506881,103.648903,32.116177,146.739784
48577,-5.340520,10.214636,-1.432766,-0.225328,1.353826,1.721137,-0.284148,0.199217,0.027557,-0.053434,0.102119,-0.014420,0.999998,-0.001421,0.000996,0.000138,0.377574,0.051511,0.772408,0.508104,103.549493,32.068808,146.859966
48578,-5.440503,9.921494,-1.549084,-0.152421,1.051881,1.558546,-0.537789,0.220995,-0.006353,-0.054419,0.099175,-0.015697,0.999996,-0.002689,0.001105,-0.000032,0.376872,0.049969,0.771439,0.510247,103.315117,32.037503,146.999915
48579,-5.419863,9.334738,-2.003788,-0.299843,0.399755,1.154420,-0.706134,0.207514,-0.041316,-0.054200,0.093287,-0.020311,0.999993,-0.003531,0.001038,-0.000207,0.376350,0.048009,0.770016,0.512963,102.982524,32.028282,147.136504
48580,-5.343893,8.645070,-2.369313,-0.398986,-0.212248,0.613414,-0.749676,0.189596,-0.076949,-0.053428,0.086382,-0.023966,0.999992,-0.003748,0.000948,-0.000385,0.375992,0.045875,0.768444,0.515770,102.621517,32.041667,147.266673
48581,-5.227736,8.226039,-2.455034,-0.433395,-0.463494,0.218327,-0.710301,0.149302,-0.105950,-0.052252,0.082200,-0.024803,0.999993,-0.003551,0.000747,-0.000530,0.375851,0.043807,0.766895,0.518353,102.271276,32.077216,147.374411
48582,-5.089991,7.410469,-2.764581,-0.489056,-1.049808,-0.478635,-0.634698,0.113296,-0.109924,-0.050875,0.074044,-0.027852,0.999995,-0.003173,0.000566,-0.000550,0.375835,0.041959,0.765465,0.520626,101.951873,32.119498,147.458682
48583,-5.099726,6.705134,-2.792060,-0.288691,-1.422550,-1.057427,-0.392443,0.075265,-0.112233,-0.050970,0.067025,-0.028033,0.999998,-0.001962,0.000376,-0.000561,0.375919,0.040655,0.764589,0.521954,101.758083,32.168226,147.517924
48584,-4.760274,6.420558,-2.616047,-0.339902,-1.271850,-1.506405,-0.115383,0.035651,-0.092978,-0.047578,0.064213,-0.026189,1.000000,-0.000577,0.000178,-0.000465,0.376046,0.040050,0.764356,0.522250,101.707667,32.210623,147.548226
48585,-4.619058,6.330109,-2.469066,-0.322341,-1.132069,-1.681465,0.109126,0.046745,-0.050551,-0.046180,0.063326,-0.024645,1.000000,0.000546,0.000234,-0.000253,0.375976,0.039999,0.764721,0.521770,101.786674,32.228171,147.579993
48586,-4.571851,6.437449,-2.177044,-0.202969,-0.823208,-1.666327,0.329870,0.060374,0.008338,-0.045728,0.064408,-0.021650,0.999999,0.001649,0.000302,0.000042,0.375653,0.040553,0.765676,0.520558,101.992733,32.210852,147.612767
48587,-4.786491,6.749705,-1.799577,0.100294,-0.464750,-1.358025,0.538594,0.025521,0.065386,-0.047889,0.067530,-0.017808,0.999996,0.002693,0.000128,0.000327,0.375273,0.041807,0.767092,0.518645,102.301581,32.165831,147.614104
48588,-4.813707,7.417422,-1.674707,0.009656,-0.043542,-0.813111,0.622933,0.047712,0.097757,-0.048177,0.074202,-0.016504,0.999995,0.003115,0.000239,0.000489,0.374701,0.043288,0.768756,0.516469,102.664030,32.099691,147.625150
48589,-4.936785,8.397326,-1.567382,-0.111033,0.473970,0.041568,0.652266,0.078382,0.111204,-0.049421,0.083996,-0.015381,0.999994,0.003261,0.000392,0.000556,0.373968,0.044794,0.770541,0.514206,103.052489,32.022327,147.653774
48590,-4.976083,9.052276,-1.675359,-0.312121,0.720152,0.622617,0.551426,0.181002,0.120498,-0.049830,0.090538,-0.016459,0.999996,0.002757,0.000905,0.000602,0.372833,0.045884,0.772250,0.512367,103.417931,31.925928,147.747910
48591,-5.266026,9.340243,-1.239025,0.118042,1.085600,0.925737,0.281789,0.242945,0.090795,-0.052718,0.093396,-0.012195,0.999998,0.001409,0.001215,0.000454,0.371596,0.046196,0.773385,0.511525,103.652169,31.837583,147.886577
48592,-5.526164,9.173419,-1.508145,0.213994,0.700626,0.977489,0.051101,0.202119,0.039341,-0.055295,0.091727,-0.015002,0.999999,0.000256,0.001011,0.000197,0.370700,0.045986,0.773864,0.511470,103.744152,31.782827,148.006416
48593,-5.344913,8.925882,-1.581895,0.122725,0.610487,0.692269,-0.124693,0.168867,0.005575,-0.053465,0.089247,-0.015829,0.999999,-0.000623,0.000844,0.000028,0.370060,0.045404,0.773839,0.512023,103.726623,31.751581,148.109689
48594,-5.463565,8.098891,-1.871289,0.284144,-0.057984,0.130160,-0.187126,0.167246,-0.041247,-0.054635,0.080983,-0.018743,0.999999,-0.000936,0.000836,-0.000206,0.369558,0.044530,0.773661,0.512731,103.676750,31.746443,148.219450
48595,-5.443204,7.914265,-1.588338,0.498013,0.077781,-0.089889,-0.089858,0.132819,-0.084080,-0.054409,0.079158,-0.015883,1.000000,-0.000449,0.000664,-0.000420,0.369279,0.043758,0.773677,0.512974,103.674277,31.770083,148.313432
48596,-5.371273,8.083025,-1.612323,0.379254,0.180995,0.016292,0.083561,0.187621,-0.103924,-0.053686,0.080865,-0.016039,0.999999,0.000418,0.000938,-0.000520,0.368799,0.043089,0.774243,0.512522,103.791877,31.796983,148.446567
48597,-5.214530,8.764064,-1.182693,0.320903,0.914886,0.407826,0.076231,0.112766,-0.099891,-0.052108,0.087671,-0.011764,1.000000,0.000381,0.000564,-0.000499,0.368601,0.042613,0.774650,0.512089,103.879138,31.831944,148.530105
48598,-5.003002,8.481217,-1.106828,0.299554,0.942340,0.046745,-0.109732,0.173464,-0.111631,-0.049992,0.084834,-0.011071,0.999999,-0.000549,0.000867,-0.000558,0.368235,0.041594,0.774694,0.512368,103.881803,31.864785,148.655414
48599,-5.183512,8.311840,-2.010785,-0.073906,0.102150,0.186453,0.016699,0.203948,-0.134329,-0.051800,0.083155,-0.020048,0.999999,0.000083,0.001020,-0.000672,0.367785,0.040642,0.775123,0.512120,103.969610,31.906213,148.804393
48600,-4.918181,8.755404,-1.461418,-0.074480,0.854769,0.298947,-0.196330,0.214889,-0.123748,-0.049143,0.087570,-0.014647,0.999999,-0.000982,0.001074,-0.000619,0.367306,0.039311,0.775022,0.512719,103.938373,31.939923,148.958898
48601,-5.005507,7.870785,-2.035892,-0.089049,-0.040233,-0.265978,-0.202150,0.291936,-0.130257,-0.050034,0.078720,-0.020365,0.999998,-0.001011,0.001460,-0.000651,0.366547,0.037746,0.775047,0.513342,103.931170,31.966926,149.165000
48602,-5.242550,7.621680,-1.925012,0.225518,-0.172605,-0.368146,-0.162480,0.247831,-0.142198,-0.052395,0.076238,-0.019247,0.999999,-0.000812,0.001239,-0.000711,0.365980,0.036322,0.775093,0.513780,103.932532,32.006407,149.344161
48603,-5.264465,7.455857,-2.013301,0.234718,-0.323682,-0.474706,-0.142102,0.179477,-0.156545,-0.052604,0.074585,-0.020139,0.999999,-0.000711,0.000897,-0.000783,0.365711,0.035054,0.775068,0.514098,103.923213,32.063559,149.480945
48604,-5.028485,7.489593,-2.272422,-0.110944,-0.400621,-0.519101,-0.068986,0.158862,-0.142166,-0.050250,0.074924,-0.022710,0.999999,-0.000345,0.000794,-0.000711,0.365471,0.034030,0.775189,0.514156,103.947540,32.115221,149.601850
48605,-5.083105,7.464942,-2.154599,0.002863,-0.336648,-0.534096,-0.066719,0.181177,-0.159806,-0.050791,0.074683,-0.021525,0.999999,-0.000334,0.000906,-0.000799,0.365190,0.032883,0.775358,0.514175,103.982622,32.173876,149.740491
48606,-5.211042,7.152052,-2.146355,0.198748,-0.520886,-0.724078,-0.037618,0.204503,-0.172989,-0.052070,0.071562,-0.021424,0.999999,-0.000188,0.001023,-0.000865,0.364845,0.031679,0.775646,0.514060,104.043956,32.236263,149.896723
48607,-5.229680,6.943707,-2.229271,0.229878,-0.672786,-0.866809,0.138052,0.186190,-0.180429,-0.052255,0.069500,-0.022196,0.999999,0.000690,0.000931,-0.000902,0.364564,0.030812,0.776352,0.513247,104.200406,32.305354,150.042451
48608,-5.252719,7.083818,-1.996021,0.345650,-0.406393,-0.786565,0.333674,0.173336,-0.168737,-0.052485,0.070916,-0.019796,0.999998,0.001668,0.000867,-0.000844,0.364270,0.030380,0.777532,0.511692,104.463725,32.369146,150.178210
48609,-5.199262,7.556687,-1.997748,0.161626,-0.121203,-0.427281,0.456138,0.130858,-0.172749,-0.051940,0.075657,-0.019771,0.999997,0.002281,0.000654,-0.000864,0.364132,0.030264,0.778944,0.509645,104.783034,32.440903,150.287215
48610,-5.285048,8.071740,-2.083234,0.016870,0.069163,0.057435,0.453893,0.111401,-0.202662,-0.052780,0.080818,-0.020620,0.999997,0.002269,0.000557,-0.001013,0.364143,0.030078,0.780315,0.507546,105.097398,32.531284,150.389198
48611,-5.358574,8.067494,-2.315473,-0.063370,-0.101535,0.144509,0.280727,0.054324,-0.217264,-0.053504,0.080765,-0.023027,0.999998,0.001404,0.000272,-0.001086,0.364439,0.029663,0.781142,0.506085,105.294289,32.638225,150.456977
48612,-5.186151,7.679635,-2.302077,-0.062298,-0.179918,-0.266159,0.127851,0.035959,-0.227754,-0.051778,0.076870,-0.022962,0.999999,0.000639,0.000180,-0.001139,0.364855,0.028975,0.781548,0.505197,105.398511,32.753553,150.515088
48613,-5.225699,7.495512,-2.091657,0.142625,-0.100686,-0.440649,0.150036,0.048520,-0.255758,-0.052166,0.075038,-0.020848,0.999999,0.000750,0.000243,-0.001279,0.365289,0.028186,0.782035,0.504173,105.522894,32.882373,150.586814
48614,-5.361476,7.440887,-2.184788,0.194820,-0.226359,-0.389512,0.228603,0.053728,-0.274341,-0.053518,0.074507,-0.021748,0.999998,0.001143,0.000269,-0.001372,0.365737,0.027456,0.782731,0.502807,105.696537,33.020328,150.665877
48615,-5.321249,7.562768,-2.279321,0.060845,-0.189963,-0.290788,0.248087,0.028491,-0.270424,-0.053113,0.075728,-0.022692,0.999998,0.001240,0.000142,-0.001352,0.366270,0.026839,0.783426,0.501367,105.872273,33.160012,150.728240
48616,-5.121578,7.905326,-2.356404,-0.249758,0.037590,-0.106325,0.302152,0.033792,-0.267712,-0.051114,0.079157,-0.023436,0.999998,0.001511,0.000169,-0.001339,0.366767,0.026319,0.784264,0.499719,106.081144,33.297044,150.794277
48617,-5.392747,7.931448,-2.313834,-0.042721,0.006245,0.053490,0.206990,0.015767,-0.259835,-0.053826,0.079408,-0.023052,0.999999,0.001035,0.000079,-0.001299,0.367327,0.025700,0.784827,0.498455,106.228561,33.432589,150.847510
48618,-5.453092,7.555948,-2.519027,-0.009176,-0.333423,-0.165785,0.238662,-0.000821,-0.243889,-0.054439,0.075656,-0.025100,0.999999,0.001193,-0.000004,-0.001219,0.367906,0.025242,0.785434,0.497093,106.386786,33.561820,150.887364
48619,-5.093998,7.657826,-2.878475,-0.521385,-0.373096,-0.196788,0.483292,0.021731,-0.172382,-0.050877,0.076691,-0.028594,0.999997,0.002416,0.000109,-0.000862,0.368187,0.025459,0.786678,0.494901,106.686080,33.648059,150.928637
48620,-4.983513,8.209915,-2.629857,-0.623050,0.182812,0.123736,0.391779,0.041517,-0.138227,-0.049784,0.082185,-0.026127,0.999998,0.001959,0.000208,-0.000691,0.368315,0.025594,0.787724,0.493133,106.936742,33.711922,150.976741
48621,-5.494270,8.185126,-1.972944,0.156017,0.489514,0.227821,0.111676,0.030050,-0.146108,-0.054886,0.081902,-0.019675,1.000000,0.000558,0.000150,-0.000731,0.368543,0.025210,0.788057,0.492451,107.023793,33.782102,151.019080
48622,-5.606597,8.028493,-1.548567,0.542150,0.704264,0.061458,0.221488,-0.042445,-0.132991,-0.056009,0.080339,-0.015409,0.999999,0.001107,-0.000212,-0.000665,0.369009,0.025259,0.788524,0.491349,107.145980,33.857070,151.011163
48623,-5.436035,8.407671,-0.995072,0.628597,1.406533,0.129952,0.176053,-0.050383,-0.142145,-0.054298,0.084124,-0.009890,0.999999,0.000880,-0.000252,-0.000711,0.369535,0.025206,0.788865,0.490409,107.240192,33.938572,151.000041
48624,-5.701373,7.871942,-1.451650,0.708956,0.693127,-0.035298,0.079708,-0.047903,-0.168922,-0.056944,0.078773,-0.014499,1.000000,0.000399,-0.000240,-0.000845,0.370128,0.024865,0.788976,0.489799,107.283204,34.034147,150.996153
48625,-5.400477,8.046773,-2.583817,-0.261989,0.067206,0.213210,0.171473,-0.007034,-0.146818,-0.053945,0.080529,-0.025771,0.999999,0.000857,-0.000035,-0.000734,0.370495,0.024679,0.789385,0.488873,107.391466,34.110827,151.014842
48626,-5.370247,8.664604,-2.764804,-0.599236,0.280195,0.728728,0.050289,0.002512,-0.119188,-0.053651,0.086685,-0.027626,1.000000,0.000251,0.000013,-0.000596,0.370770,0.024357,0.789510,0.488478,107.430605,34.170449,151.034154
48627,-5.363212,8.327877,-3.098858,-0.706234,-0.137656,0.541190,-0.037247,0.013086,-0.099816,-0.053593,0.083300,-0.031001,1.000000,-0.000186,0.000065,-0.000499,0.370967,0.023921,0.789439,0.488464,107.421401,34.217958,151.056560
48628,-5.396269,7.991585,-3.345603,-0.726524,-0.504454,0.355689,0.116872,0.033575,-0.065706,-0.053942,0.079953,-0.033400,1.000000,0.000584,0.000168,-0.000329,0.370981,0.023858,0.789778,0.487908,107.504134,34.242955,151.085355
48629,-5.529580,8.130347,-3.039725,-0.481944,-0.235804,0.464996,0.295013,0.040401,-0.034300,-0.055288,0.081358,-0.030266,0.999999,0.001475,0.000202,-0.000171,0.370870,0.024231,0.790560,0.486707,107.687852,34.249897,151.112264
48630,-5.662899,8.112133,-2.648220,-0.125521,0.024051,0.428003,0.432717,0.009594,-0.000642,-0.056630,0.081179,-0.026304,0.999998,0.002164,0.000048,-0.000003,0.370780,0.025069,0.791613,0.485018,107.935049,34.243467,151.111679
48631,-5.520235,8.127200,-2.208785,0.055173,0.448448,0.247077,0.445787,-0.013878,0.036794,-0.055216,0.081311,-0.021910,0.999997,0.002229,-0.000069,0.000184,0.370690,0.026134,0.792645,0.483342,108.176474,34.221140,151.087616
48632,-5.495125,8.142981,-2.076982,0.135350,0.593922,0.209648,0.432713,0.027124,0.038032,-0.054970,0.081464,-0.020586,0.999998,0.002164,0.000136,0.000190,0.370433,0.027081,0.793718,0.481724,108.425330,34.190655,151.090190
48633,-5.474190,8.045509,-2.287775,0.044828,0.421928,0.174841,0.420299,0.051374,0.035793,-0.054762,0.080493,-0.022695,0.999998,0.002101,0.000257,0.000179,0.370087,0.027937,0.794802,0.480150,108.676239,34.157151,151.108974
48634,-5.444005,7.979644,-2.285774,0.065515,0.424533,0.104575,0.330983,0.007538,0.045434,-0.054459,0.079822,-0.022724,0.999999,0.001655,0.000038,0.000227,0.369902,0.028771,0.795587,0.478943,108.858550,34.126261,151.096745
48635,-5.360928,7.900911,-2.043547,0.193853,0.610617,-0.069506,0.213176,-0.004002,0.035189,-0.053623,0.079021,-0.020352,0.999999,0.001066,-0.000020,0.000176,0.369804,0.029375,0.796068,0.478181,108.970361,34.103271,151.079141
48636,-5.455294,7.627598,-1.966412,0.404552,0.493210,-0.252335,0.185278,0.010547,0.016472,-0.054560,0.076290,-0.019591,1.000000,0.000926,0.000053,0.000082,0.369696,0.029818,0.796511,0.477500,109.073726,34.087450,151.075228
48637,-5.500873,7.369755,-2.159958,0.405911,0.203487,-0.377004,0.199944,-0.005342,0.005677,-0.055010,0.073718,-0.021527,0.999999,0.001000,-0.000027,0.000028,0.369675,0.030282,0.796961,0.476736,109.181168,34.080741,151.063341
48638,-5.427518,7.611212,-2.220933,0.246653,0.327291,-0.213048,0.089233,-0.034754,-0.007585,-0.054268,0.076124,-0.022185,1.000000,0.000446,-0.000174,-0.000038,0.369819,0.030561,0.797093,0.476385,109.216001,34.086455,151.035140
48639,-5.165654,7.697421,-2.600897,-0.206345,0.196886,-0.188884,-0.151215,0.032510,-0.025081,-0.051651,0.076961,-0.026059,1.000000,-0.000756,0.000163,-0.000125,0.369774,0.030163,0.796780,0.476968,109.140019,34.089276,151.054969
48640,-4.975212,7.745228,-2.917950,-0.564307,0.045353,-0.172400,-0.466820,0.121685,-0.024312,-0.049761,0.077390,-0.029330,0.999997,-0.002334,0.000608,-0.000122,0.369418,0.028974,0.795877,0.478823,108.915709,34.074821,151.132823
48641,-5.133710,7.224492,-2.747338,-0.198909,-0.211180,-0.538434,-0.772838,0.234090,-0.017922,-0.051363,0.072143,-0.027692,0.999992,-0.003864,0.001170,-0.000090,0.368640,0.026973,0.794438,0.481918,108.556575,34.036785,151.283045
48642,-5.643155,6.609987,-2.564384,0.463859,-0.640164,-0.785607,-0.379342,0.092729,0.009060,-0.056446,0.066049,-0.025743,0.999998,-0.001897,0.000464,0.000045,0.368300,0.026147,0.793675,0.483478,108.367543,34.010011,151.334796
48643,-5.279693,7.132938,-2.376554,0.148947,-0.086928,-0.627252,0.083336,0.002788,0.026260,-0.052807,0.071332,-0.023735,1.000000,0.000417,0.000014,0.000131,0.368216,0.026458,0.793862,0.483218,108.408726,33.990515,151.323870
48644,-5.278249,7.818818,-2.136494,0.084299,0.459697,-0.151424,-0.014164,0.098483,0.006942,-0.052796,0.078185,-0.021344,1.000000,-0.000071,0.000492,0.000035,0.367810,0.026281,0.793991,0.483326,108.431196,33.963937,151.379934
48645,-5.719344,7.960973,-2.288047,0.269831,0.243605,0.246685,-0.117891,0.057445,-0.011302,-0.057196,0.079599,-0.022911,1.000000,-0.000589,0.000287,-0.000057,0.367626,0.025939,0.793797,0.483803,108.381678,33.954976,151.413023
48646,-5.529609,8.351437,-2.357292,-0.038178,0.466799,0.466444,-0.140874,0.030392,-0.042245,-0.055282,0.083509,-0.023623,1.000000,-0.000704,0.000152,-0.000211,0.367626,0.025500,0.793501,0.484312,108.312792,33.967516,151.435012
48647,-5.562889,8.698206,-2.448892,-0.193105,0.553731,0.782482,-0.350714,0.034772,-0.087371,-0.055595,0.086963,-0.024632,0.999998,-0.001754,0.000174,-0.000437,0.367745,0.024484,0.792709,0.485569,108.130784,34.004105,151.469701
48648,-5.535991,8.378702,-2.539937,-0.194312,0.296394,0.539862,-0.593988,-0.032859,-0.115085,-0.055308,0.083743,-0.025657,0.999995,-0.002970,-0.000164,-0.000575,0.368225,0.023076,0.791199,0.487731,107.787411,34.067513,151.465638
48649,-4.812211,8.578222,-3.729670,-1.545771,-0.269599,0.588801,-1.027116,0.104663,-0.136411,-0.048083,0.085622,-0.037712,0.999986,-0.005136,0.000523,-0.000682,0.368258,0.020449,0.788876,0.491571,107.249199,34.119193,151.556152
48650,-5.430552,7.885980,-2.889771,-0.407923,-0.308168,0.175723,-1.168398,0.154077,-0.142707,-0.054272,0.078728,-0.029316,0.999982,-0.005842,0.000770,-0.000714,0.368113,0.017418,0.786273,0.495948,106.648766,34.166418,151.679930
48651,-5.756292,7.366912,-2.250574,0.349834,-0.261827,-0.206424,-0.523538,0.011863,-0.108045,-0.057524,0.073641,-0.022695,0.999996,-0.002618,0.000059,-0.000540,0.368380,0.016059,0.784987,0.497829,106.360870,34.218939,151.702216
48652,-5.502313,7.708588,-2.164212,0.078947,0.055326,-0.098148,-0.189160,-0.063620,-0.073489,-0.054988,0.077086,-0.021733,0.999999,-0.000946,-0.000318,-0.000367,0.368826,0.015642,0.784389,0.498455,106.232378,34.264384,151.667284
48653,-5.433574,7.263263,-1.907955,0.314343,0.035434,-0.548842,-0.445366,-0.070993,-0.067833,-0.054304,0.072608,-0.019261,0.999997,-0.002227,-0.000355,-0.000339,0.369308,0.014791,0.783135,0.500092,105.953604,34.308058,151.626203
48654,-5.701119,6.215273,-1.585367,1.041729,-0.366632,-1.302335,-0.295276,-0.098959,-0.081382,-0.056978,0.062152,-0.015974,0.999999,-0.001476,-0.000495,-0.000407,0.369919,0.014235,0.782203,0.501114,105.751498,34.363217,151.568747
48655,-5.565516,6.255682,-1.784306,0.797148,-0.453257,-1.300850,0.119096,-0.168799,-0.089962,-0.055612,0.062592,-0.017853,0.999999,0.000595,-0.000844,-0.000450,0.370796,0.014585,0.782179,0.500493,105.761295,34.434110,151.466110
48656,-5.081389,7.198270,-2.012362,-0.029024,0.033133,-0.774809,-0.049697,-0.090470,-0.112403,-0.050764,0.072006,-0.020164,1.000000,-0.000248,-0.000452,-0.000562,0.371433,0.014340,0.781878,0.500497,105.706029,34.504978,151.419986
48657,-5.012959,7.518693,-1.921549,-0.159731,0.271598,-0.579412,-0.614939,-0.019311,-0.132733,-0.050078,0.075161,-0.019451,0.999995,-0.003075,-0.000097,-0.000664,0.371883,0.012786,0.780293,0.502674,105.356073,34.576215,151.424985
48658,-4.739421,7.525935,-2.760379,-0.889630,-0.311849,-0.548105,-0.822727,0.077123,-0.088008,-0.047372,0.075166,-0.027895,0.999991,-0.004114,0.000386,-0.000440,0.371852,0.010780,0.778352,0.505745,104.918875,34.608115,151.485982
48659,-5.272653,7.591312,-1.778808,0.021244,0.224425,-0.403014,-0.800367,0.102879,-0.054550,-0.052715,0.075856,-0.018065,0.999992,-0.004002,0.000514,-0.000273,0.371629,0.008878,0.776500,0.508783,104.500865,34.618300,151.558201
48660,-5.364855,7.360361,-2.199867,-0.098535,-0.296327,-0.447948,-0.505369,-0.044978,0.017231,-0.053650,0.073543,-0.022197,0.999997,-0.002527,-0.000225,0.000086,0.371780,0.008180,0.775112,0.510798,104.188030,34.609851,151.518229
48661,-5.180305,7.410613,-2.440275,-0.403206,-0.420011,-0.465567,-0.275265,-0.035417,0.062518,-0.051822,0.074056,-0.024514,0.999999,-0.001376,-0.000177,0.000313,0.371768,0.008061,0.774324,0.512002,104.006505,34.574916,151.477092
48662,-5.124634,7.628593,-2.828386,-0.758342,-0.631480,-0.248008,-0.456496,-0.004571,0.074376,-0.051274,0.076202,-0.028459,0.999997,-0.002282,-0.000023,0.000372,0.371610,0.007574,0.773127,0.513930,103.731993,34.528623,151.454853
48663,-5.427272,7.173620,-2.652319,-0.275861,-0.860498,-0.478113,-0.393896,0.048080,0.061596,-0.054301,0.071667,-0.026651,0.999998,-0.001969,0.000240,0.000308,0.371279,0.007016,0.772184,0.515591,103.514819,34.482654,151.470682
48664,-5.967805,7.215621,-1.796315,0.597684,-0.390727,-0.304968,0.109221,-0.039475,0.056325,-0.059695,0.072149,-0.017936,1.000000,0.000546,-0.000197,0.000282,0.371279,0.007598,0.772374,0.515299,103.552642,34.451005,151.428355
48665,-5.541585,8.192794,-2.040405,-0.208316,0.047915,0.284272,0.233381,-0.126640,0.044205,-0.055421,0.081939,-0.020344,0.999999,0.001167,-0.000633,0.000221,0.371643,0.008587,0.772722,0.514498,103.629738,34.438252,151.329052
48666,-5.192782,8.458212,-2.309802,-0.720223,0.087640,0.351712,-0.321332,-0.112632,0.018738,-0.051923,0.084540,-0.023263,0.999999,-0.001607,-0.000563,0.000094,0.372041,0.008413,0.771668,0.515793,103.396668,34.437442,151.243396
48667,-5.549532,7.356674,-1.846044,0.199061,-0.232393,-0.419493,-0.314459,-0.173571,0.003353,-0.055480,0.073537,-0.018624,0.999998,-0.001572,-0.000868,0.000017,0.372713,0.008348,0.770518,0.517028,103.145658,34.453187,151.118961
48668,-5.511341,7.125829,-1.643928,0.368735,-0.172103,-0.664507,0.356371,-0.197632,0.012674,-0.055102,0.071284,-0.016367,0.999998,0.001782,-0.000988,0.000063,0.373424,0.009632,0.771053,0.515694,103.268821,34.466507,150.976754
48669,-5.249235,7.964932,-1.996803,-0.331959,0.063096,-0.072687,0.367995,-0.216734,0.011822,-0.052475,0.079683,-0.019878,0.999998,0.001840,-0.001084,0.000059,0.374209,0.010982,0.771579,0.514309,103.391470,34.483338,150.821746
48670,-5.149592,8.147328,-1.814928,-0.366644,0.331636,-0.017446,-0.123731,-0.211553,0.022072,-0.051486,0.081456,-0.018254,0.999999,-0.000619,-0.001058,0.000110,0.374973,0.011441,0.770848,0.514838,103.233605,34.493525,150.668545
48671,-5.303776,7.510645,-1.707539,0.033764,0.040349,-0.461070,0.033610,-0.246775,0.059864,-0.053039,0.075093,-0.017128,0.999999,0.000168,-0.001234,0.000299,0.375766,0.012429,0.770452,0.514829,103.148758,34.487174,150.485506
48672,-5.468271,7.806733,-1.348318,0.262931,0.400288,-0.198344,0.563301,-0.254705,0.084121,-0.054699,0.078082,-0.013333,0.999995,0.002816,-0.001274,0.000421,0.376491,0.014529,0.771399,0.512823,103.362234,34.468110,150.293204
48673,-5.815555,8.697934,-1.239610,0.274614,0.789153,0.690317,0.607896,-0.298234,0.107017,-0.058184,0.086986,-0.012218,0.999994,0.003039,-0.001491,0.000535,0.377319,0.016910,0.772367,0.510679,103.582552,34.443096,150.067799
48674,-5.865593,9.003565,-1.215950,0.232332,0.944402,0.957736,0.291177,-0.367281,0.124860,-0.058690,0.090017,-0.012136,0.999997,0.001456,-0.001836,0.000624,0.378391,0.018941,0.772390,0.509780,103.593683,34.417452,149.792757
48675,-5.830686,8.785379,-1.100877,0.364413,0.938678,0.740881,0.279366,-0.405386,0.155144,-0.058353,0.087824,-0.011004,0.999997,0.001397,-0.002027,0.000776,0.379532,0.021161,0.772301,0.508978,103.580708,34.380429,149.487271
48676,-5.990926,9.126747,-1.226707,0.298016,0.942040,1.128848,0.501761,-0.333906,0.147441,-0.059956,0.091254,-0.012138,0.999995,0.002509,-0.001670,0.000737,0.380389,0.023594,0.772909,0.507306,103.723304,34.337998,149.231283
48677,-6.082134,9.778961,-0.881905,0.364074,1.489175,1.634932,0.256965,-0.303802,0.117769,-0.060866,0.097765,-0.008786,0.999998,0.001285,-0.001519,0.000589,0.381233,0.025367,0.772950,0.506523,103.739993,34.308597,149.000577
48678,-6.005789,9.416500,-1.118059,0.289182,1.147586,1.349272,-0.212096,-0.251540,0.075663,-0.060079,0.094130,-0.011356,0.999999,-0.001060,-0.001258,0.000378,0.382038,0.025953,0.771906,0.507480,103.511618,34.294927,148.812016
48679,-5.615669,9.008718,-1.725045,-0.243736,0.609782,0.922159,-0.600710,-0.160825,0.026198,-0.056154,0.090027,-0.017566,0.999995,-0.003004,-0.000804,0.000131,0.382667,0.025373,0.770050,0.509848,103.099791,34.296315,148.692770
48680,-5.447989,8.479926,-2.052904,-0.417806,0.116195,0.464255,-0.900248,-0.046117,-0.036822,-0.054459,0.084716,-0.020923,0.999990,-0.004501,-0.000231,-0.000184,0.383047,0.023687,0.767646,0.513258,102.565284,34.317212,148.660670
48681,-5.543382,7.946893,-2.493913,-0.474957,-0.584795,0.163969,-1.034787,0.046602,-0.081241,-0.055407,0.079361,-0.025337,0.999987,-0.005174,0.000233,-0.000406,0.383193,0.021332,0.765062,0.517096,101.992906,34.351708,148.697844
48682,-5.487163,7.698409,-2.746157,-0.620771,-0.938133,-0.032610,-1.011101,0.097734,-0.141511,-0.054831,0.076883,-0.027824,0.999987,-0.005055,0.000489,-0.000708,0.383285,0.018661,0.762623,0.520721,101.458191,34.414066,148.777814
48683,-5.405822,7.819932,-2.908638,-0.861808,-1.033480,0.037350,-0.904293,0.115111,-0.169257,-0.054009,0.078113,-0.029409,0.999989,-0.004521,0.000576,-0.000846,0.383366,0.016042,0.760480,0.523874,100.993385,34.490944,148.872862
48684,-5.436080,8.243618,-2.479909,-0.782618,-0.569834,0.322432,-0.790619,0.111632,-0.185341,-0.054298,0.082388,-0.025095,0.999992,-0.003953,0.000558,-0.000927,0.383483,0.013589,0.758614,0.526556,100.592960,34.577501,148.966998
48685,-5.623163,7.973957,-1.797174,-0.181274,-0.275105,0.103207,-0.752229,0.047124,-0.181536,-0.056164,0.079722,-0.018258,0.999992,-0.003761,0.000236,-0.000908,0.383828,0.011392,0.756714,0.529084,100.189268,34.669458,149.015853
48686,-5.459780,7.158587,-1.497120,0.158609,-0.366002,-0.694761,-0.640296,-0.084947,-0.160112,-0.054534,0.071581,-0.015224,0.999994,-0.003201,-0.000425,-0.000801,0.384603,0.009842,0.754844,0.531220,99.795838,34.762389,148.970778
48687,-4.837245,6.633616,-1.793972,-0.282756,-0.600624,-1.435261,-0.534078,-0.145720,-0.121667,-0.048319,0.066317,-0.018152,0.999996,-0.002670,-0.000729,-0.000608,0.385498,0.008801,0.753132,0.533016,99.436755,34.839519,148.878572
48688,-4.455071,6.629304,-2.029647,-0.712527,-0.654734,-1.628657,-0.344365,-0.084169,-0.054113,-0.044524,0.066270,-0.020429,0.999998,-0.001722,-0.000421,-0.000271,0.385969,0.008218,0.752035,0.534232,99.205513,34.871888,148.820619
48689,-4.604206,7.290929,-1.745354,-0.716368,-0.225527,-1.046927,-0.175010,-0.031051,0.021705,-0.046047,0.072889,-0.017524,1.000000,-0.000875,-0.000155,0.000109,0.386031,0.008104,0.751491,0.534954,99.087690,34.856850,148.790715
48690,-4.990796,7.640299,-1.362975,-0.364655,0.045756,-0.592882,-0.266592,-0.001767,0.082100,-0.049939,0.076364,-0.013732,0.999999,-0.001333,-0.000009,0.000410,0.385823,0.007965,0.750754,0.536139,98.925227,34.804377,148.774402
48691,-5.277561,7.401314,-1.182377,0.034402,-0.060812,-0.646164,-0.370677,-0.000008,0.122041,-0.052821,0.073959,-0.011961,0.999998,-0.001853,-0.000000,0.000610,0.385507,0.007766,0.749738,0.537789,98.701504,34.729661,148.755315
48692,-5.216272,7.410455,-1.074299,0.051947,0.028600,-0.687179,-0.198773,0.014551,0.182174,-0.052231,0.074046,-0.010813,0.999999,-0.000994,0.000073,0.000911,0.384964,0.008089,0.749208,0.538910,98.578666,34.619120,148.740247
48693,-5.208274,7.771714,-1.155850,-0.130510,0.105696,-0.387541,0.145998,0.055657,0.233196,-0.052177,0.077665,-0.011487,0.999999,0.000730,0.000278,0.001166,0.384118,0.009152,0.749682,0.538838,98.666374,34.476603,148.748204
48694,-5.368698,8.029232,-1.412670,-0.237976,-0.053560,-0.054231,0.423392,0.045562,0.252103,-0.053791,0.080254,-0.013945,0.999997,0.002117,0.000228,0.001261,0.383242,0.010846,0.750881,0.537760,98.907712,34.324062,148.746875
48695,-5.748837,8.274480,-1.007016,0.208191,0.224075,0.308408,0.366895,-0.037811,0.225807,-0.057580,0.082698,-0.009929,0.999998,0.001834,-0.000189,0.001129,0.382753,0.012558,0.751765,0.536836,99.085726,34.194062,148.690481
48696,-5.639754,8.307056,-0.644655,0.356543,0.573424,0.225919,0.108680,-0.132639,0.188051,-0.056471,0.083021,-0.006439,0.999999,0.000543,-0.000663,0.000940,0.382735,0.013888,0.751774,0.536803,99.081762,34.093878,148.573383
48697,-5.318444,8.131940,-0.927145,0.041695,0.396569,-0.060003,-0.120838,-0.085608,0.173625,-0.053251,0.081268,-0.009343,0.999999,-0.000604,-0.000428,0.000868,0.382596,0.014598,0.751257,0.537606,98.965432,33.997723,148.490075
48698,-5.207479,7.875723,-1.507717,-0.273649,-0.148509,-0.256480,-0.167074,-0.011938,0.175578,-0.052143,0.078699,-0.015146,0.999999,-0.000835,-0.000060,0.000878,0.382175,0.015034,0.750756,0.538592,98.851116,33.893215,148.456997
48699,-5.200597,7.642693,-1.592739,-0.230147,-0.333446,-0.440943,-0.141647,-0.017325,0.200268,-0.052081,0.076363,-0.015986,0.999999,-0.000708,-0.000087,0.001001,0.381708,0.015620,0.750310,0.539528,98.747836,33.775719,148.418083
48700,-5.325009,7.413809,-1.674601,-0.091062,-0.568210,-0.550215,-0.088603,-0.001058,0.196157,-0.053323,0.074078,-0.016779,0.999999,-0.000443,-0.000005,0.000981,0.381185,0.016249,0.750037,0.540258,98.681693,33.658983,148.391111
48701,-5.427450,7.536532,-1.746701,-0.089198,-0.625782,-0.383590,0.259659,0.010553,0.220087,-0.054358,0.075328,-0.017366,0.999999,0.001298,0.000053,0.001100,0.380526,0.017599,0.750723,0.539727,98.817947,33.527807,148.369308
48702,-5.605488,7.935941,-1.260898,0.205181,-0.134109,-0.018290,0.628028,-0.049314,0.224165,-0.056141,0.079336,-0.012374,0.999994,0.003140,-0.000247,0.001121,0.380043,0.019828,0.752283,0.537814,99.142203,33.399443,148.305944
48703,-5.587392,8.204831,-0.787951,0.412356,0.387348,0.129083,0.649226,-0.187186,0.220009,-0.055957,0.082012,-0.007666,0.999994,0.003246,-0.000936,0.001100,0.380086,0.022451,0.753630,0.535792,99.427410,33.286766,148.148903
48704,-5.266970,8.176292,-0.973177,0.121911,0.387996,-0.046711,0.509709,-0.205604,0.226367,-0.052752,0.081728,-0.009578,0.999996,0.002549,-0.001028,0.001132,0.380191,0.024885,0.754561,0.534297,99.625890,33.172567,147.978394
48705,-5.165470,8.431840,-1.126739,-0.102403,0.436567,0.129463,0.487179,-0.118027,0.207082,-0.051735,0.084292,-0.011093,0.999996,0.002436,-0.000590,0.001035,0.380018,0.026966,0.755593,0.532859,99.844707,33.061524,147.868831
48706,-5.258099,8.800173,-1.195124,-0.177940,0.515734,0.493681,0.392893,-0.058582,0.194823,-0.052663,0.087974,-0.011794,0.999998,0.001964,-0.000293,0.000974,0.379662,0.028663,0.756482,0.531762,100.031806,32.951625,147.800530
48707,-5.326573,8.850426,-1.137571,-0.086574,0.555879,0.564208,0.106237,-0.044402,0.179911,-0.053343,0.088462,-0.011341,0.999999,0.000531,-0.000222,0.000900,0.379334,0.029722,0.756636,0.531718,100.061092,32.849053,147.743224
48708,-5.430395,8.498720,-1.144220,0.121051,0.337920,0.331167,-0.143537,-0.032954,0.153915,-0.054367,0.084937,-0.011512,0.999999,-0.000718,-0.000165,0.000770,0.379066,0.030182,0.756153,0.532569,99.953580,32.759646,147.696830
48709,-5.556878,8.240246,-1.005374,0.390824,0.257582,0.165900,-0.157607,-0.015417,0.116824,-0.055616,0.082362,-0.010123,1.000000,-0.000788,-0.000077,0.000584,0.378834,0.030425,0.755669,0.533407,99.846579,32.689703,147.666783
48710,-5.658039,8.045917,-0.962788,0.556655,0.141754,0.053779,-0.215868,-0.027994,0.070796,-0.056608,0.080429,-0.009723,0.999999,-0.001079,-0.000140,0.000354,0.378779,0.030420,0.755013,0.534375,99.704811,32.646494,147.633770
48711,-5.613723,7.988460,-1.120360,0.444399,-0.005059,0.005003,-0.172082,-0.058067,0.028458,-0.056145,0.079867,-0.011289,1.000000,-0.000860,-0.000290,0.000142,0.378945,0.030416,0.754421,0.535092,99.579774,32.630446,147.585588
48712,-5.640039,7.969512,-0.774080,0.670836,0.232225,-0.044453,-0.132195,-0.076159,-0.011975,-0.056393,0.079693,-0.007815,1.000000,-0.000661,-0.000381,-0.000060,0.379280,0.030384,0.753907,0.535582,99.473325,32.638565,147.529912
48713,-5.674789,7.519465,-0.609712,0.945005,0.141369,-0.420975,-0.160388,-0.135260,-0.042595,-0.056728,0.075202,-0.006196,0.999999,-0.000802,-0.000676,-0.000213,0.379925,0.030340,0.753210,0.536107,99.331314,32.669736,147.437875
48714,-5.699432,6.834336,-0.651648,1.171675,-0.202739,-0.969476,0.043538,-0.253708,-0.057336,-0.056966,0.068361,-0.006574,0.999999,0.000218,-0.001269,-0.000287,0.381024,0.030946,0.752836,0.535819,99.263917,32.719960,147.267821
48715,-5.521352,6.448582,-0.335124,1.372247,-0.033282,-1.428318,0.486968,-0.342403,-0.075551,-0.055183,0.064515,-0.003289,0.999995,0.002435,-0.001712,-0.000378,0.382435,0.032565,0.753479,0.533809,99.419233,32.788945,147.040034
48716,-5.220174,6.521869,-1.089235,0.681001,-0.423557,-1.426503,0.962864,-0.382494,-0.078612,-0.052156,0.065291,-0.010678,0.999987,0.004814,-0.001912,-0.000393,0.383920,0.035191,0.755302,0.529987,99.832473,32.864200,146.785840
48717,-4.820365,7.778334,-1.753763,-0.432272,-0.148254,-0.506521,1.148728,-0.304144,-0.084964,-0.048144,0.077903,-0.017164,0.999982,0.005744,-0.001521,-0.000425,0.385082,0.037939,0.757746,0.525446,100.381438,32.937201,146.585627
48718,-4.994138,8.898175,-1.458133,-0.486043,0.564364,0.467874,0.913220,-0.295048,-0.080373,-0.049884,0.089067,-0.014248,0.999988,0.004566,-0.001475,-0.000402,0.386232,0.040222,0.759564,0.521795,100.798194,33.008258,146.391772
48719,-4.961081,9.019738,-0.812095,-0.121391,1.176520,0.445403,0.594273,-0.268044,-0.059863,-0.049573,0.090236,-0.007919,0.999995,0.002971,-0.001340,-0.000299,0.387282,0.041900,0.760587,0.519388,101.041032,33.065596,146.213481
48720,-4.401203,9.677374,-3.025699,-2.129115,0.080035,1.033393,0.037174,-0.145206,-0.035077,-0.043973,0.096787,-0.030271,1.000000,0.000186,-0.000726,-0.000175,0.387915,0.042276,0.760391,0.519172,101.007756,33.095544,146.114351
48721,-4.889413,10.134928,-2.377450,-1.550456,0.535070,1.570854,-0.451434,0.063486,-0.050448,-0.048876,0.101308,-0.023988,0.999997,-0.002257,0.000317,-0.000252,0.387898,0.041103,0.759333,0.520826,100.772131,33.111622,146.157348
48722,-5.791922,8.662376,-0.971360,0.441846,0.479126,0.632490,-0.420077,-0.093865,-0.039809,-0.057897,0.086615,-0.009923,0.999998,-0.002100,-0.000469,-0.000199,0.388439,0.040441,0.758044,0.522350,100.495542,33.138119,146.093107
48723,-5.577245,6.739705,-1.167336,0.812293,-0.456018,-1.036346,-0.024603,-0.166036,-0.032128,-0.055752,0.067405,-0.011728,1.000000,-0.000123,-0.000830,-0.000161,0.389155,0.040764,0.757645,0.522370,100.418718,33.168015,145.979239
48724,-5.694153,5.788974,-1.172033,1.220230,-0.929494,-1.753145,0.699348,-0.103251,-0.080557,-0.056912,0.057953,-0.011547,0.999994,0.003497,-0.000516,-0.000403,0.389609,0.042147,0.759263,0.519566,100.782720,33.218572,145.913792
48725,-6.056423,6.121485,-1.144919,1.400677,-0.871616,-1.283828,1.499581,-0.163412,-0.129691,-0.060515,0.061338,-0.011039,0.999971,0.007498,-0.000817,-0.000648,0.390237,0.045058,0.762828,0.513594,101.587267,33.304222,145.814979
48726,-5.665253,7.496468,-2.039970,0.145238,-0.616405,-0.218360,1.755411,-0.164686,-0.150896,-0.056579,0.075183,-0.019787,0.999961,0.008777,-0.000823,-0.000754,0.390840,0.048387,0.766998,0.506573,102.539924,33.402961,145.719837
48727,-5.223773,9.261708,-2.274644,-0.822751,0.388412,1.022982,1.461329,-0.139163,-0.153024,-0.052151,0.092820,-0.022105,0.999973,0.007307,-0.000696,-0.000765,0.391396,0.051066,0.770426,0.500645,103.334839,33.501016,145.643809
48728,-5.058492,10.333345,-1.770854,-0.893666,1.463793,1.700796,0.907761,-0.175298,-0.118768,-0.050508,0.103443,-0.017283,0.999989,0.004539,-0.000876,-0.000594,0.392132,0.052883,0.772359,0.496888,103.796964,33.585423,145.539364
48729,-4.880168,10.229721,-1.685932,-0.901185,1.615735,1.495837,0.440948,-0.138888,-0.077882,-0.048750,0.102353,-0.016668,0.999997,0.002205,-0.000694,-0.000389,0.392744,0.053850,0.773182,0.495017,104.001312,33.642699,145.452945
48730,-4.743097,9.854579,-2.142082,-1.176030,1.180677,1.206439,-0.001325,-0.018719,-0.042817,-0.047408,0.098556,-0.021426,1.000000,-0.000007,-0.000094,-0.000214,0.392920,0.053792,0.773135,0.494958,103.993484,33.663192,145.440763
48731,-4.965307,8.814726,-2.175334,-0.735383,0.519808,0.496276,-0.236220,0.034060,-0.018137,-0.049649,0.088126,-0.021849,0.999999,-0.001181,0.000170,-0.000091,0.392896,0.053232,0.772603,0.495867,103.868340,33.663427,145.459985
48732,-5.085168,8.133062,-2.408744,-0.605508,-0.065176,0.058319,-0.254279,0.123929,0.013301,-0.050872,0.081297,-0.024159,0.999999,-0.001271,0.000620,0.000067,0.392450,0.052535,0.772190,0.496936,103.762540,33.633585,145.534123
48733,-5.537270,7.504165,-2.399930,-0.097275,-0.602352,-0.202213,-0.230203,0.126567,0.034587,-0.055401,0.075004,-0.024051,0.999999,-0.001151,0.000633,0.000173,0.391936,0.051960,0.771838,0.497949,103.670288,33.591965,145.606561
48734,-5.501872,7.191836,-2.413466,-0.031792,-0.763619,-0.472785,-0.119961,0.085328,0.058221,-0.055050,0.071888,-0.024154,1.000000,-0.000600,0.000427,0.000291,0.391493,0.051794,0.771671,0.498573,103.623568,33.542879,145.647760
48735,-5.716542,6.841807,-2.239356,0.342983,-0.918705,-0.672543,-0.003285,0.013508,0.054887,-0.057186,0.068402,-0.022391,1.000000,-0.000016,0.000068,0.000274,0.391305,0.052024,0.771656,0.498719,103.617720,33.505310,145.641403
48736,-5.831213,6.689957,-2.370941,0.390098,-1.141345,-0.706367,0.248013,-0.043764,0.050980,-0.058324,0.066914,-0.023639,0.999999,0.001240,-0.000219,0.000255,0.391279,0.052876,0.772156,0.497875,103.734921,33.477281,145.597370
48737,-5.696633,7.459873,-2.384170,0.065923,-0.687204,-0.153033,0.455627,-0.086976,0.052409,-0.056976,0.074638,-0.023696,0.999997,0.002278,-0.000435,0.000262,0.391363,0.054244,0.773085,0.496217,103.955193,33.454889,145.524238
48738,-5.246856,8.660828,-2.076994,-0.385606,0.373938,0.510332,0.458624,-0.114429,0.076005,-0.052490,0.086636,-0.020601,0.999997,0.002293,-0.000572,0.000380,0.391489,0.055782,0.773957,0.494586,104.164793,33.422817,145.428655
48739,-4.807547,9.440244,-1.712853,-0.657255,1.257306,0.824592,0.313580,-0.060216,0.105242,-0.048120,0.094404,-0.016995,0.999999,0.001568,-0.000301,0.000526,0.391374,0.057010,0.774566,0.493583,104.308577,33.367731,145.364285
48740,-4.951301,9.239358,-1.704460,-0.474245,1.097831,0.739855,0.049396,0.013056,0.119287,-0.049569,0.092368,-0.017019,1.000000,0.000247,0.000065,0.000596,0.391012,0.057599,0.774659,0.493655,104.326277,33.293916,145.346035
48741,-5.123993,8.622000,-1.827140,-0.242780,0.606300,0.361106,-0.075778,0.065830,0.117119,-0.051296,0.086183,-0.018287,1.000000,-0.000379,0.000329,0.000586,0.390490,0.057800,0.774548,0.494219,104.291902,33.214455,145.363356
48742,-5.361089,8.394122,-1.916273,-0.064539,0.298520,0.325427,-0.189894,0.105119,0.116625,-0.053670,0.083892,-0.019214,0.999999,-0.000949,0.000526,0.000583,0.389848,0.057679,0.774229,0.495239,104.205928,33.129534,145.406995
48743,-5.459670,8.152624,-1.860172,0.114418,0.148758,0.172214,-0.257080,0.058831,0.123132,-0.054652,0.081469,-0.018690,0.999999,-0.001285,0.000294,0.000616,0.389390,0.057567,0.773651,0.496513,104.064690,33.047755,145.418926
48744,-5.386605,8.087002,-1.876359,0.074340,0.115128,0.082615,-0.202522,0.046892,0.139767,-0.053927,0.080813,-0.018833,0.999999,-0.001013,0.000234,0.000699,0.388916,0.057659,0.773177,0.497611,103.948319,32.957579,145.420234
48745,-5.357347,8.071491,-1.910965,0.038033,0.072041,0.061280,-0.229237,0.015014,0.151022,-0.053636,0.080652,-0.019198,0.999999,-0.001146,0.000075,0.000755,0.388548,0.057818,0.772573,0.498817,103.804974,32.866354,145.398983
48746,-5.260478,7.828820,-2.011731,-0.021207,-0.099896,-0.169055,-0.189205,-0.006460,0.150268,-0.052663,0.078230,-0.020193,0.999999,-0.000946,-0.000032,0.000751,0.388249,0.058112,0.772026,0.499862,103.677154,32.777633,145.363655
48747,-5.232162,7.902788,-2.064399,-0.093063,-0.108386,-0.113673,-0.094337,-0.000841,0.154843,-0.052383,0.078978,-0.020681,1.000000,-0.000472,-0.000004,0.000774,0.387892,0.058587,0.771724,0.500548,103.605414,32.686351,145.331785
48748,-5.141504,8.027817,-2.128531,-0.227927,-0.067281,-0.047696,-0.092759,0.009064,0.155695,-0.051478,0.080228,-0.021320,1.000000,-0.000464,0.000045,0.000778,0.387492,0.059047,0.771444,0.501236,103.537936,32.592728,145.306433
48749,-5.036026,8.082306,-2.091714,-0.284465,0.019585,-0.066962,-0.088197,0.020600,0.172791,-0.050432,0.080770,-0.020948,1.000000,-0.000441,0.000103,0.000864,0.387005,0.059549,0.771193,0.501939,103.476067,32.488514,145.286206
48750,-5.124448,8.106504,-2.127947,-0.243884,-0.054405,0.007753,-0.076462,0.036173,0.172889,-0.051318,0.081013,-0.021301,1.000000,-0.000382,0.000181,0.000864,0.386452,0.060037,0.770999,0.502605,103.426207,32.381776,145.276388
48751,-5.186176,7.989104,-1.962023,-0.046604,-0.036973,-0.088071,-0.087247,0.043072,0.173749,-0.051935,0.079837,-0.019644,1.000000,-0.000436,0.000215,0.000869,0.385875,0.060488,0.770791,0.503312,103.372942,32.274013,145.271111
48752,-5.269592,7.782751,-1.862110,0.148342,-0.120117,-0.232979,-0.063736,0.034375,0.160037,-0.052761,0.077779,-0.018637,1.000000,-0.000319,0.000172,0.000800,0.385356,0.060958,0.770629,0.503900,103.331257,32.174559,145.262247
48753,-5.235636,7.899153,-2.076110,-0.038613,-0.216359,-0.113697,-0.025860,0.038240,0.156508,-0.052422,0.078948,-0.020761,1.000000,-0.000129,0.000191,0.000783,0.384822,0.061473,0.770571,0.504335,103.313013,32.077040,145.256661
48754,-5.189404,8.067010,-1.974314,-0.041400,-0.049684,-0.019818,-0.004009,0.014137,0.152214,-0.051957,0.080630,-0.019741,1.000000,-0.000020,0.000071,0.000761,0.384382,0.062078,0.770521,0.504673,103.298991,31.984554,145.235840
48755,-5.010885,8.201857,-1.953136,-0.179630,0.106590,-0.007050,-0.012855,0.024791,0.149054,-0.050172,0.081980,-0.019530,1.000000,-0.000064,0.000124,0.000745,0.383914,0.062623,0.770470,0.505039,103.284190,31.892960,145.222646
48756,-5.151223,7.846519,-1.875406,0.081977,-0.088642,-0.241611,-0.083899,0.018316,0.136600,-0.051568,0.078422,-0.018782,1.000000,-0.000419,0.000092,0.000683,0.383521,0.063002,0.770229,0.505657,103.226983,31.808660,145.207195
48757,-5.010022,7.834977,-2.043734,-0.114653,-0.160539,-0.292965,-0.019723,0.044203,0.129060,-0.050155,0.078315,-0.020434,1.000000,-0.000099,0.000221,0.000645,0.383031,0.063408,0.770204,0.506016,103.216690,31.725661,145.209973
48758,-5.154945,7.985388,-1.791543,0.115958,0.013729,-0.141294,-0.106345,0.034382,0.117907,-0.051600,0.079814,-0.017949,1.000000,-0.000532,0.000172,0.000590,0.382629,0.063634,0.769944,0.506687,103.154127,31.649426,145.208013
48759,-5.150268,7.990934,-1.846621,0.081534,-0.034133,-0.128552,-0.052743,0.038447,0.110645,-0.051550,0.079876,-0.018477,1.000000,-0.000264,0.000192,0.000553,0.382217,0.063921,0.769829,0.507136,103.124479,31.577455,145.209973
48760,-5.154809,8.206013,-1.816513,0.047873,0.075810,0.046439,-0.114859,0.032420,0.102671,-0.051593,0.082023,-0.018204,1.000000,-0.000574,0.000162,0.000513,0.381865,0.064074,0.769546,0.507811,103.057379,31.510261,145.209291
48761,-5.069514,7.900019,-1.683604,0.164948,0.052625,-0.277763,-0.187562,0.027266,0.090773,-0.050733,0.078961,-0.016903,0.999999,-0.000938,0.000136,0.000454,0.381589,0.064054,0.769073,0.508737,102.948332,31.450830,145.207134
48762,-5.123583,7.554891,-1.797498,0.228231,-0.237367,-0.514837,-0.162248,0.039918,0.072178,-0.051267,0.075516,-0.018026,1.000000,-0.000811,0.000200,0.000361,0.381300,0.063982,0.768693,0.509536,102.859386,31.399581,145.216127
48763,-5.194330,7.822822,-1.857481,0.160529,-0.203107,-0.243946,-0.159083,0.051499,0.050466,-0.051968,0.078200,-0.018624,1.000000,-0.000795,0.000257,0.000252,0.381024,0.063801,0.768351,0.510282,102.778160,31.359582,145.236056
48764,-4.983269,8.052088,-1.769010,0.001259,0.059071,-0.179672,-0.173418,0.038640,0.037541,-0.049851,0.080496,-0.017750,1.000000,-0.000867,0.000193,0.000188,0.380831,0.063576,0.767948,0.511059,102.684836,31.327824,145.249524
48765,-5.019336,8.124004,-1.803881,-0.021190,0.034728,-0.094381,-0.212003,0.055806,0.030915,-0.050211,0.081213,-0.018111,0.999999,-0.001060,0.000279,0.000155,0.380604,0.063208,0.767484,0.511971,102.576296,31.298272,145.275278
48766,-4.943354,8.121922,-1.784570,-0.066994,0.068646,-0.139123,-0.228908,0.052222,0.024798,-0.049448,0.081193,-0.017926,0.999999,-0.001145,0.000261,0.000124,0.380409,0.062793,0.766968,0.512939,102.456911,31.272206,145.299692
48767,-4.885806,8.161986,-1.799789,-0.137639,0.084160,-0.132694,-0.322694,0.053697,0.023777,-0.048873,0.081585,-0.018116,0.999999,-0.001613,0.000268,0.000119,0.380242,0.062191,0.766215,0.514260,102.284818,31.247008,145.325232
48768,-4.982880,7.764558,-1.763513,0.061227,-0.142563,-0.421025,-0.319268,0.061315,0.016374,-0.049841,0.077613,-0.017744,0.999999,-0.001596,0.000307,0.000082,0.380060,0.061549,0.765484,0.515558,102.117481,31.224706,145.356921
48769,-5.054820,7.793590,-1.837289,0.046264,-0.238967,-0.346558,-0.289631,0.068803,0.011821,-0.050559,0.077906,-0.018468,0.999999,-0.001448,0.000344,0.000059,0.379854,0.060925,0.764845,0.516731,101.970391,31.204526,145.394184
48770,-5.083202,7.649083,-1.704372,0.186093,-0.239059,-0.476710,-0.298409,0.061447,0.007021,-0.050840,0.076464,-0.017142,0.999999,-0.001492,0.000307,0.000035,0.379687,0.060287,0.764168,0.517929,101.815890,31.187567,145.427361
48771,-5.095631,7.589319,-1.565019,0.293577,-0.185551,-0.544901,-0.254793,0.059817,0.000383,-0.050961,0.075873,-0.015732,0.999999,-0.001274,0.000299,0.000002,0.379533,0.059708,0.763602,0.518943,101.686554,31.175015,145.460400
48772,-4.970847,7.667282,-1.280307,0.358059,0.108650,-0.593377,-0.207447,0.057485,0.020780,-0.049720,0.076654,-0.012868,0.999999,-0.001037,0.000287,0.000104,0.379318,0.059305,0.763147,0.519815,101.581937,31.150999,145.489211
48773,-4.864303,8.373544,-1.075379,0.195635,0.619232,-0.090939,-0.189708,0.069527,0.049049,-0.048667,0.083713,-0.010816,0.999999,-0.000949,0.000348,0.000245,0.378980,0.059010,0.762752,0.520675,101.489811,31.110121,145.522141
48774,-4.811157,9.066945,-0.762256,0.144370,1.174261,0.411695,-0.245661,0.091655,0.087672,-0.048155,0.090639,-0.007712,0.999999,-0.001228,0.000458,0.000438,0.378471,0.058702,0.762240,0.521828,101.370369,31.044702,145.564479
48775,-4.909013,9.719421,-0.675342,0.062861,1.456919,0.999110,-0.404195,0.127369,0.099503,-0.049143,0.097156,-0.006919,0.999998,-0.002021,0.000637,0.000498,0.377842,0.058042,0.761377,0.523615,101.171520,30.969127,145.628915
48776,-4.867407,10.302294,-0.784981,-0.233866,1.607232,1.492483,-0.663149,0.134452,0.113142,-0.048738,0.102969,-0.008159,0.999994,-0.003316,0.000672,0.000566,0.377220,0.056929,0.759838,0.526412,100.825826,30.885005,145.696529
48777,-4.927381,10.595360,-1.021820,-0.464329,1.458994,1.816584,-0.861915,0.138683,0.123820,-0.049347,0.105878,-0.010640,0.999990,-0.004310,0.000693,0.000619,0.376607,0.055467,0.757770,0.529976,100.367307,30.795199,145.766321
48778,-5.028852,10.708955,-1.279706,-0.638375,1.170344,2.012299,-1.156557,0.116713,0.101302,-0.050350,0.106988,-0.013387,0.999983,-0.005783,0.000584,0.000507,0.376207,0.053423,0.754864,0.534598,99.733922,30.720457,145.825217
48779,-4.944084,9.884875,-1.781041,-0.809329,0.366774,1.346873,-1.393012,0.129095,0.058062,-0.049481,0.098707,-0.018466,0.999975,-0.006965,0.000645,0.000290,0.375925,0.050735,0.751331,0.540008,98.972467,30.670041,145.897970
48780,-4.979313,8.856370,-2.682133,-1.067421,-0.888940,0.603242,-1.516229,0.123890,0.010129,-0.049814,0.088355,-0.027461,0.999971,-0.007581,0.000619,0.000051,0.375800,0.047649,0.747426,0.545764,98.141173,30.647473,145.972729
48781,-4.886145,7.419939,-2.798196,-0.774041,-1.618282,-0.672624,-1.453443,0.044253,-0.010830,-0.048864,0.073996,-0.028509,0.999974,-0.007267,0.000221,-0.000054,0.375997,0.044815,0.743508,0.551194,97.320459,30.644500,145.997259
48782,-4.612143,5.670993,-3.188403,-0.634689,-2.552503,-2.284111,-1.068641,0.044945,-0.003696,-0.046128,0.056539,-0.032176,0.999986,-0.005343,0.000225,-0.000018,0.376068,0.042728,0.740618,0.555187,96.719904,30.637288,146.021705
48783,-4.460757,4.563667,-3.315565,-0.438822,-3.039700,-3.309918,-0.350517,0.068780,0.022392,-0.044624,0.045573,-0.033220,0.999998,-0.001753,0.000344,0.000112,0.375821,0.042019,0.739751,0.556563,96.538105,30.614191,146.059961
48784,-4.561737,4.658348,-2.750100,-0.054019,-2.606892,-3.234400,0.317207,0.054621,0.066406,-0.045640,0.046612,-0.027415,0.999999,0.001586,0.000273,0.000332,0.375360,0.042770,0.740703,0.555549,96.732301,30.566524,146.085510
48785,-4.439227,5.503116,-1.828984,0.136385,-1.475243,-2.661388,0.812837,0.014557,0.128692,-0.044429,0.055076,-0.018063,0.999992,0.004064,0.000073,0.000643,0.374767,0.044790,0.742936,0.552801,97.194360,30.486546,146.079197
48786,-4.576566,6.759133,-1.463792,0.060973,-0.725475,-1.551755,1.110752,0.005761,0.203095,-0.045835,0.067625,-0.014261,0.999984,0.005554,0.000029,0.001015,0.373922,0.047672,0.745942,0.549072,97.820467,30.364408,146.059772
48787,-4.738107,8.508527,-0.990175,-0.058245,0.320999,-0.029152,1.343650,0.014418,0.259715,-0.047492,0.085088,-0.009327,0.999977,0.006718,0.000072,0.001299,0.372822,0.051171,0.749560,0.544559,98.579383,30.210275,146.038986
48788,-4.725040,10.136787,-0.551739,-0.236311,1.408064,1.293376,1.320332,0.149756,0.269670,-0.047391,0.101337,-0.004813,0.999977,0.006602,0.000749,0.001348,0.371174,0.054295,0.753331,0.540161,99.367845,30.038240,146.103432
48789,-5.115966,11.288710,-0.152338,0.022480,2.074999,2.407143,0.795625,0.176270,0.270560,-0.051313,0.112822,-0.001029,0.999991,0.003978,0.000881,0.001353,0.369557,0.056373,0.755708,0.537731,99.862801,29.862981,146.182654
48790,-5.178573,11.153208,-0.480432,-0.026357,1.768916,2.365676,0.244946,0.206133,0.216202,-0.051911,0.111482,-0.004614,0.999998,0.001225,0.001031,0.001081,0.368122,0.057150,0.756668,0.537284,100.054227,29.714608,146.286237
48791,-5.139785,10.826168,-0.767835,-0.103538,1.426293,2.110727,-0.203478,0.257652,0.130543,-0.051478,0.108220,-0.007722,0.999998,-0.001017,0.001288,0.000653,0.366851,0.056636,0.756538,0.538389,100.009662,29.609728,146.432685
48792,-5.320182,9.931780,-0.927987,0.197364,0.810035,1.461636,-0.696197,0.247059,0.053773,-0.053240,0.099271,-0.009560,0.999993,-0.003481,0.001235,0.000269,0.365961,0.054960,0.755080,0.541209,99.683818,29.549138,146.581195
48793,-5.259964,8.434266,-1.349816,0.336449,-0.153032,0.211740,-0.836742,0.198716,0.000881,-0.052614,0.084285,-0.013799,0.999991,-0.004184,0.000994,0.000004,0.365432,0.052953,0.753154,0.544440,99.264681,29.524338,146.704399
48794,-5.136171,7.269704,-1.357629,0.585149,-0.612432,-0.848627,-0.684365,0.157447,-0.048349,-0.051355,0.072663,-0.013785,0.999994,-0.003422,0.000787,-0.000242,0.365143,0.051153,0.751567,0.546992,98.921910,29.531354,146.806050
48795,-5.024438,6.774930,-1.514481,0.551092,-0.902445,-1.308560,-0.313914,0.103379,-0.071078,-0.050228,0.067743,-0.015225,0.999999,-0.001570,0.000517,-0.000355,0.365026,0.050089,0.750897,0.548089,98.775503,29.556867,146.874817
48796,-4.980702,7.062526,-1.318945,0.535215,-0.621051,-1.109004,-0.084635,0.046671,-0.070841,-0.049785,0.070637,-0.013208,1.000000,-0.000423,0.000233,-0.000354,0.365060,0.049600,0.750750,0.548311,98.742287,29.587057,146.906713
48797,-4.860601,7.450555,-1.222040,0.376200,-0.330648,-0.847269,0.122999,-0.044905,-0.070334,-0.048577,0.074530,-0.012185,1.000000,0.000615,-0.000225,-0.000352,0.365388,0.049743,0.751005,0.547731,98.798530,29.625185,146.878831
48798,-4.664901,8.026703,-1.069345,0.140689,0.124467,-0.469377,0.221367,0.037070,-0.080069,-0.046619,0.080297,-0.010596,0.999999,0.001107,0.000185,-0.000400,0.365407,0.049806,0.751681,0.546784,98.938112,29.661298,146.905451
48799,-4.681881,8.083819,-1.150932,0.089667,0.091346,-0.401185,0.107803,0.078636,-0.071950,-0.046794,0.080861,-0.011447,1.000000,0.000539,0.000393,-0.000360,0.365278,0.049577,0.752119,0.546289,99.025612,29.689379,146.958349
48800,-4.578221,8.059173,-1.215397,-0.016612,0.089301,-0.464997,-0.014936,0.096175,-0.084367,-0.045754,0.080610,-0.012138,1.000000,-0.000075,0.000481,-0.000422,0.365144,0.049033,0.752257,0.546238,99.049073,29.722249,147.023887
48801,-4.620396,7.896938,-1.524159,-0.123606,-0.233535,-0.541068,-0.085968,0.132976,-0.107396,-0.046172,0.078988,-0.015245,1.000000,-0.000430,0.000665,-0.000537,0.364955,0.048169,0.752273,0.546419,99.045035,29.765438,147.115948
48802,-4.647040,7.692100,-1.383553,0.040868,-0.214815,-0.722595,-0.117082,0.132185,-0.109211,-0.046438,0.076938,-0.013850,0.999999,-0.000585,0.000661,-0.000546,0.364778,0.047245,0.752203,0.546714,99.023123,29.809293,147.207685
