PacketCounter,Acc_X,Acc_Y,Acc_Z,FreeAcc_E,FreeAcc_N,FreeAcc_U,Gyr_X,Gyr_Y,Gyr_Z,VelInc_X,VelInc_Y,VelInc_Z,OriInc_q0,OriInc_q1,OriInc_q2,OriInc_q3,Quat_q0,Quat_q1,Quat_q2,Quat_q3,Roll,Pitch,Yaw
56242,-7.831629,5.375384,-1.330430,0.207385,-0.023174,-0.223338,-0.073048,0.077257,0.201336,-0.078375,0.053670,-0.013294,0.999999,-0.000365,0.000386,0.001007,0.361763,-0.267108,0.706582,0.546373,103.709293,53.428284,178.283518
56243,-7.885382,5.471719,-1.357581,0.179360,-0.028001,-0.120990,-0.053212,0.070821,0.181940,-0.078908,0.054642,-0.013562,0.999999,-0.000266,0.000354,0.000910,0.360941,-0.266701,0.706809,0.546821,103.691959,53.312678,178.299723
56244,-7.750382,5.565082,-1.236876,0.071668,0.112934,-0.192370,-0.045071,0.063395,0.166081,-0.077554,0.055584,-0.012357,1.000000,-0.000225,0.000317,0.000830,0.360199,-0.266312,0.707021,0.547226,103.675553,53.206783,178.311800
56245,-7.683011,5.464810,-1.205879,0.132565,0.116256,-0.309223,-0.048842,0.069153,0.156747,-0.076877,0.054585,-0.012046,1.000000,-0.000244,0.000346,0.000784,0.359457,-0.265980,0.707222,0.547614,103.664019,53.105433,178.332167
56246,-7.797061,5.458615,-1.380888,0.184506,-0.058046,-0.197072,-0.053117,0.071011,0.153261,-0.078017,0.054523,-0.013796,1.000000,-0.000266,0.000355,0.000766,0.358712,-0.265672,0.707407,0.548013,103.650934,53.005656,178.354207
56247,-7.918292,5.468056,-1.366470,0.269575,-0.044880,-0.097157,-0.028994,0.062935,0.144367,-0.079227,0.054621,-0.013648,1.000000,-0.000145,0.000315,0.000722,0.358052,-0.265331,0.707635,0.548317,103.648334,52.912044,178.371573
56248,-7.971474,5.441879,-1.356487,0.339099,-0.043493,-0.071969,-0.011271,0.050071,0.132590,-0.079754,0.054365,-0.013548,1.000000,-0.000056,0.000250,0.000663,0.357493,-0.264963,0.707868,0.548558,103.647432,52.826623,178.378871
56249,-8.057458,5.507815,-1.367951,0.351998,-0.039304,0.036399,0.010892,0.033904,0.125049,-0.080611,0.055029,-0.013663,1.000000,0.000054,0.000170,0.000625,0.357040,-0.264539,0.708127,0.548724,103.649754,52.747692,178.373762
56250,-7.945051,5.616177,-1.319044,0.223690,0.037836,0.003304,0.039488,0.014088,0.101776,-0.079480,0.056124,-0.013174,1.000000,0.000197,0.000070,0.000509,0.356761,-0.264090,0.708394,0.548777,103.657060,52.684311,178.354839
56251,-7.818504,5.580968,-1.100316,0.230649,0.242425,-0.149617,0.039491,0.000538,0.077056,-0.078207,0.055782,-0.010992,1.000000,0.000197,0.000003,0.000385,0.356595,-0.263694,0.708607,0.548800,103.659930,52.636615,178.329800
56252,-7.735193,5.598459,-1.194580,0.154340,0.157089,-0.192164,0.020795,0.009413,0.071648,-0.077373,0.055958,-0.011936,1.000000,0.000104,0.000047,0.000358,0.356390,-0.263372,0.708775,0.548871,103.658494,52.590654,178.313335
56253,-7.790991,5.654471,-1.331006,0.123381,0.037871,-0.095306,-0.011075,0.014585,0.064518,-0.077929,0.056519,-0.013308,1.000000,-0.000055,0.000073,0.000323,0.356143,-0.263149,0.708857,0.549032,103.644898,52.548038,178.304014
56254,-7.727094,5.713120,-1.214645,0.071457,0.165167,-0.128128,0.000008,0.011090,0.052863,-0.077287,0.057111,-0.012142,1.000000,0.000000,0.000055,0.000264,0.355956,-0.262936,0.708946,0.549142,103.636138,52.512314,178.293311
56255,-7.636720,5.659821,-1.147650,0.077258,0.216734,-0.240999,-0.007382,0.013973,0.044258,-0.076381,0.056581,-0.011473,1.000000,-0.000037,0.000070,0.000221,0.355771,-0.262776,0.709011,0.549254,103.627817,52.481059,178.287965
56256,-7.713463,5.631124,-1.336532,0.110114,0.023971,-0.170038,-0.035312,0.022813,0.037686,-0.077147,0.056294,-0.013366,1.000000,-0.000177,0.000114,0.000188,0.355537,-0.262711,0.709003,0.549446,103.610008,52.452206,178.291368
56257,-7.717324,5.632969,-1.276578,0.128082,0.080384,-0.174523,-0.040728,0.021011,0.023996,-0.077181,0.056318,-0.012769,1.000000,-0.000204,0.000105,0.000120,0.355340,-0.262702,0.708962,0.549631,103.591260,52.431285,178.296964
56258,-7.673919,5.588911,-1.342645,0.123908,0.004010,-0.225598,-0.035016,0.016229,0.012642,-0.076744,0.055882,-0.013430,1.000000,-0.000175,0.000081,0.000063,0.355198,-0.262707,0.708910,0.549786,103.573255,52.417275,178.299909
56259,-7.701524,5.519716,-1.356226,0.192671,-0.028940,-0.242832,-0.029202,0.016566,0.007391,-0.077018,0.055192,-0.013564,1.000000,-0.000146,0.000083,0.000037,0.355077,-0.262724,0.708871,0.549907,103.560805,52.406202,178.305121
56260,-7.610037,5.554352,-1.286454,0.126998,0.048065,-0.304795,-0.009153,0.011308,0.003318,-0.076102,0.055542,-0.012863,1.000000,-0.000046,0.000057,0.000017,0.355013,-0.262703,0.708870,0.549960,103.555697,52.398056,178.305640
56261,-7.604904,5.600943,-1.315331,0.083452,0.031586,-0.277108,-0.014511,0.010019,0.003616,-0.076051,0.056007,-0.013154,1.000000,-0.000073,0.000050,0.000018,0.354945,-0.262689,0.708855,0.550031,103.547589,52.389965,178.305710
56262,-7.620696,5.609461,-1.367197,0.076575,-0.017136,-0.252137,-0.005138,0.013303,-0.002374,-0.076207,0.056095,-0.013668,1.000000,-0.000026,0.000067,-0.000012,0.354895,-0.262687,0.708860,0.550057,103.547219,52.384728,178.309305
56263,-7.657565,5.729847,-1.429785,-0.005155,-0.047027,-0.142553,-0.002610,0.019285,-0.000937,-0.076577,0.057299,-0.014291,1.000000,-0.000013,0.000096,-0.000005,0.354822,-0.262694,0.708888,0.550065,103.553420,52.377930,178.318832
56264,-7.675022,5.754707,-1.351771,0.004066,0.034510,-0.125134,-0.004378,0.008182,-0.005128,-0.076749,0.057549,-0.013516,1.000000,-0.000022,0.000041,-0.000026,0.354798,-0.262686,0.708883,0.550091,103.550272,52.374916,178.318365
56265,-7.672416,5.740610,-1.332671,0.017839,0.049761,-0.138299,0.015289,0.008738,-0.005133,-0.076723,0.057409,-0.013319,1.000000,0.000076,0.000044,-0.000026,0.354797,-0.262646,0.708936,0.550041,103.559835,52.371871,178.319190
56266,-7.668567,5.681374,-1.345178,0.058704,0.023605,-0.174719,0.017919,0.013329,-0.002962,-0.076686,0.056816,-0.013442,1.000000,0.000090,0.000067,-0.000015,0.354779,-0.262605,0.709004,0.549985,103.572804,52.366959,178.322942
56267,-7.679301,5.811794,-1.346018,-0.033660,0.057712,-0.088700,0.031397,0.006349,-0.004396,-0.076792,0.058122,-0.013449,1.000000,0.000157,0.000032,-0.000022,0.354806,-0.262528,0.709098,0.549883,103.589741,52.363825,178.321424
56268,-7.683604,5.869555,-1.337378,-0.072941,0.082282,-0.052260,0.027909,0.001763,-0.009918,-0.076833,0.058701,-0.013365,1.000000,0.000140,0.000009,-0.000050,0.354861,-0.262462,0.709164,0.549794,103.601294,52.364345,178.316158
56269,-7.676691,5.900831,-1.347702,-0.103464,0.081735,-0.037703,0.021487,0.003259,-0.014442,-0.076763,0.059015,-0.013469,1.000000,0.000107,0.000016,-0.000072,0.354913,-0.262430,0.709212,0.549714,103.612075,52.367221,178.314037
56270,-7.683718,5.898094,-1.289649,-0.085441,0.138036,-0.042126,0.017592,0.004232,-0.022900,-0.076831,0.058991,-0.012890,1.000000,0.000088,0.000021,-0.000115,0.354982,-0.262435,0.709237,0.549635,103.621769,52.374633,178.313889
56271,-7.624051,5.828318,-1.285739,-0.069069,0.125714,-0.131365,0.008466,0.002778,-0.023332,-0.076234,0.058293,-0.012854,1.000000,0.000042,0.000014,-0.000117,0.355043,-0.262456,0.709237,0.549586,103.626299,52.382526,178.313295
56272,-7.692426,5.844902,-1.412368,-0.068687,0.006149,-0.049168,-0.029621,0.013201,-0.028185,-0.076917,0.058458,-0.014127,1.000000,-0.000148,0.000066,-0.000141,0.355032,-0.262588,0.709141,0.549653,103.616345,52.391667,178.322495
56273,-7.748226,5.838474,-1.407184,-0.030426,0.007664,-0.009526,-0.012819,0.000835,-0.029302,-0.077474,0.058395,-0.014075,1.000000,-0.000064,0.000004,-0.000147,0.355089,-0.262663,0.709071,0.549671,103.608318,52.403146,178.321444
56274,-7.695135,5.767127,-1.342316,0.003162,0.052338,-0.103212,-0.004470,0.000652,-0.038483,-0.076940,0.057686,-0.013424,1.000000,-0.000022,0.000003,-0.000192,0.355184,-0.262753,0.709008,0.549648,103.605509,52.419711,178.321468
56275,-7.665946,5.670861,-1.320505,0.060382,0.049032,-0.186521,0.002698,-0.006217,-0.043703,-0.076647,0.056726,-0.013207,1.000000,0.000013,-0.000031,-0.000219,0.355326,-0.262831,0.708950,0.549594,103.603787,52.440160,178.317155
56276,-7.573203,5.671145,-1.361347,-0.008479,0.011850,-0.254008,0.022548,-0.002171,-0.043861,-0.075719,0.056730,-0.013608,1.000000,0.000113,-0.000011,-0.000219,0.355481,-0.262884,0.708949,0.549469,103.615357,52.460103,178.315790
56277,-7.566558,5.731709,-1.320484,-0.053069,0.068552,-0.229293,0.027180,-0.002010,-0.039779,-0.075654,0.057334,-0.013198,1.000000,0.000136,-0.000010,-0.000199,0.355629,-0.262917,0.708970,0.549331,103.630026,52.477800,178.314461
56278,-7.539299,5.753951,-1.338253,-0.093180,0.058786,-0.235227,0.014004,0.000781,-0.036147,-0.075383,0.057554,-0.013378,1.000000,0.000070,0.000004,-0.000181,0.355741,-0.262966,0.708962,0.549245,103.637495,52.493049,178.314098
56279,-7.669665,5.808991,-1.370984,-0.065102,0.039848,-0.094565,0.005346,0.005127,-0.029170,-0.076689,0.058101,-0.013706,1.000000,0.000027,0.000026,-0.000146,0.355806,-0.263020,0.708949,0.549194,103.642971,52.503874,178.316950
56280,-7.775125,5.843513,-1.391142,-0.033602,0.027593,0.012413,0.002935,-0.002251,-0.029868,-0.077742,0.058447,-0.013911,1.000000,0.000015,-0.000011,-0.000149,0.355897,-0.263058,0.708913,0.549163,103.640796,52.516032,178.312422
56281,-7.727430,5.876050,-1.285072,-0.067093,0.139060,-0.021431,0.007873,-0.013021,-0.035945,-0.077263,0.058775,-0.012853,1.000000,0.000039,-0.000065,-0.000180,0.356049,-0.263081,0.708866,0.549114,103.635735,52.533082,178.300170
56282,-7.718977,5.997055,-1.291242,-0.168897,0.163910,0.044249,-0.004406,-0.005635,-0.036850,-0.077178,0.059984,-0.012916,1.000000,-0.000022,-0.000028,-0.000184,0.356161,-0.263147,0.708795,0.549101,103.628116,52.549581,178.294086
56283,-7.729419,6.063742,-1.448941,-0.250296,0.026434,0.114496,-0.058733,-0.002404,-0.033658,-0.077284,0.060646,-0.014508,1.000000,-0.000294,-0.000012,-0.000168,0.356181,-0.263310,0.708587,0.549278,103.592188,52.563922,178.291029
56284,-7.682276,5.915723,-1.402296,-0.158435,0.029720,-0.017097,-0.082466,0.000980,-0.036584,-0.076812,0.059165,-0.014047,1.000000,-0.000412,0.000005,-0.000183,0.356167,-0.263533,0.708314,0.549534,103.544581,52.579369,178.290911
56285,-7.824183,5.637820,-1.387335,0.140863,-0.034078,-0.070688,-0.071087,0.006354,-0.035288,-0.078232,0.056387,-0.013891,1.000000,-0.000355,0.000032,-0.000176,0.356143,-0.263747,0.708085,0.549740,103.508209,52.593442,178.296207
56286,-7.923024,5.571822,-1.295322,0.268637,0.033150,-0.044161,-0.028171,-0.006836,-0.031895,-0.079221,0.055729,-0.012964,1.000000,-0.000141,-0.000034,-0.000159,0.356215,-0.263835,0.707953,0.549822,103.485173,52.607323,178.287858
56287,-7.844168,5.794543,-1.271118,0.052734,0.113500,0.021324,0.007463,-0.018535,-0.036380,-0.078430,0.057960,-0.012716,1.000000,0.000037,-0.000093,-0.000182,0.356387,-0.263845,0.707895,0.549781,103.475839,52.625332,178.270540
56288,-7.771744,5.939157,-1.269380,-0.104854,0.152311,0.048891,0.006283,-0.025481,-0.039420,-0.077704,0.059407,-0.012702,1.000000,0.000031,-0.000127,-0.000197,0.356591,-0.263847,0.707814,0.549752,103.460234,52.645899,178.246707
56289,-7.657336,5.904797,-1.216951,-0.140150,0.195204,-0.069760,0.003017,-0.015240,-0.040615,-0.076560,0.059064,-0.012174,1.000000,0.000015,-0.000076,-0.000203,0.356756,-0.263889,0.707743,0.549715,103.451468,52.665822,178.233317
56290,-7.677262,5.773752,-1.300980,-0.048763,0.079640,-0.119371,-0.003887,0.004806,-0.037320,-0.076762,0.057752,-0.013009,1.000000,-0.000019,0.000024,-0.000187,0.356834,-0.263985,0.707691,0.549686,103.451760,52.681172,178.236818
56291,-7.742130,5.806872,-1.357567,-0.049399,0.033238,-0.040288,0.025588,0.003449,-0.033390,-0.077412,0.058083,-0.013567,1.000000,0.000128,0.000017,-0.000167,0.356943,-0.264013,0.707726,0.549557,103.468316,52.694578,178.239011
56292,-7.735105,6.049566,-1.254140,-0.219098,0.197910,0.082503,0.059843,-0.005369,-0.023025,-0.077344,0.060508,-0.012525,1.000000,0.000299,-0.000027,-0.000115,0.357102,-0.263916,0.707849,0.549341,103.495188,52.703319,178.230021
56293,-7.688472,6.413793,-1.074918,-0.488940,0.468370,0.234519,0.045915,-0.004006,-0.022004,-0.076877,0.064149,-0.010736,1.000000,0.000230,-0.000020,-0.000110,0.357233,-0.263847,0.707941,0.549171,103.515952,52.711379,178.222864
56294,-7.651738,6.501934,-1.049233,-0.574272,0.516015,0.253547,-0.050705,0.003917,-0.017777,-0.076512,0.065023,-0.010507,1.000000,-0.000254,0.000020,-0.000089,0.357198,-0.263954,0.707785,0.549343,103.485335,52.715935,178.221237
56295,-7.725774,6.098709,-1.040466,-0.219660,0.415257,0.073855,-0.101453,0.021102,-0.017818,-0.077253,0.060989,-0.010427,1.000000,-0.000507,0.000106,-0.000089,0.357035,-0.264202,0.707523,0.549668,103.439296,52.718309,178.236243
56296,-7.851360,5.963175,-0.960219,-0.023911,0.450039,0.082879,-0.135441,0.027103,-0.026713,-0.078507,0.059636,-0.009632,1.000000,-0.000677,0.000136,-0.000134,0.356830,-0.264556,0.707162,0.550094,103.378621,52.724745,178.257871
56297,-7.857108,5.896779,-1.204624,-0.024433,0.188671,0.082820,-0.190057,0.017593,-0.043289,-0.078559,0.058973,-0.012095,1.000000,-0.000950,0.000088,-0.000216,0.356631,-0.265042,0.706616,0.550691,103.283667,52.741805,178.275199
56298,-7.771689,5.925312,-1.423658,-0.148687,-0.026428,0.062152,-0.238705,0.002412,-0.056513,-0.077700,0.059258,-0.014306,0.999999,-0.001194,0.000012,-0.000283,0.356459,-0.265617,0.705886,0.551461,103.150815,52.768141,178.280484
56299,-7.682830,6.364174,-1.388979,-0.538167,0.105183,0.245004,-0.223381,0.005838,-0.074714,-0.076805,0.063655,-0.013959,0.999999,-0.001117,0.000029,-0.000374,0.356343,-0.266240,0.705184,0.552134,103.033433,52.804307,178.293612
56300,-7.595775,6.456669,-1.349364,-0.661043,0.150786,0.224513,-0.352791,0.015667,-0.082814,-0.075932,0.064574,-0.013602,0.999998,-0.001764,0.000078,-0.000414,0.356043,-0.267147,0.704125,0.553239,102.849270,52.843629,178.316528
56301,-7.421607,6.070718,-1.471876,-0.501109,-0.081458,-0.125454,-0.410174,0.028172,-0.075001,-0.074195,0.060705,-0.014833,0.999998,-0.002051,0.000141,-0.000375,0.355599,-0.268164,0.702942,0.554537,102.641130,52.877180,178.350049
56302,-7.449229,5.701446,-1.647676,-0.239535,-0.362483,-0.298302,-0.393493,0.056921,-0.059080,-0.074480,0.057004,-0.016568,0.999998,-0.001967,0.000285,-0.000295,0.355030,-0.269172,0.701871,0.555768,102.459922,52.898159,178.405889
56303,-7.428441,5.412090,-1.841406,-0.068516,-0.636046,-0.461005,-0.372603,0.078691,-0.045773,-0.074279,0.054104,-0.018486,0.999998,-0.001863,0.000393,-0.000229,0.354375,-0.270158,0.700915,0.556913,102.305707,52.909273,178.480010
56304,-7.547378,4.904846,-1.874847,0.390258,-0.801511,-0.661690,-0.318425,0.100129,-0.026445,-0.075477,0.049029,-0.018789,0.999999,-0.001592,0.000501,-0.000132,0.353663,-0.271036,0.700168,0.557876,102.194200,52.906902,178.569266
56305,-7.826652,4.861707,-1.710853,0.626518,-0.661884,-0.485894,-0.146727,0.079336,-0.001751,-0.078273,0.048605,-0.017113,1.000000,-0.000734,0.000397,-0.000009,0.353187,-0.271468,0.699900,0.558305,102.162784,52.893442,178.635092
56306,-7.820141,5.180896,-1.666020,0.386832,-0.544871,-0.308720,0.013108,0.036162,0.009452,-0.078207,0.051806,-0.016643,1.000000,0.000066,0.000181,0.000047,0.353048,-0.271457,0.700013,0.558257,102.188164,52.878797,178.657800
56307,-7.719649,5.443707,-1.617800,0.134527,-0.432137,-0.239842,0.099325,0.013783,0.019221,-0.077203,0.054438,-0.016146,1.000000,0.000497,0.000069,0.000096,0.353076,-0.271198,0.700343,0.557950,102.245813,52.861515,178.658539
56308,-7.748574,5.731923,-1.504687,-0.046832,-0.249137,-0.061013,0.179781,-0.014294,0.021077,-0.077491,0.057325,-0.015001,1.000000,0.000899,-0.000071,0.000105,0.353307,-0.270710,0.700848,0.557407,102.327521,52.846502,178.632096
56309,-7.630648,5.939697,-1.441805,-0.264489,-0.129661,-0.040338,0.172615,-0.017682,0.014049,-0.076309,0.059404,-0.014374,1.000000,0.000863,-0.000088,0.000070,0.353559,-0.270253,0.701319,0.556876,102.404705,52.835974,178.604657
56310,-7.521031,5.978795,-1.406799,-0.352791,-0.077215,-0.109052,0.109395,0.014533,-0.004976,-0.075210,0.059798,-0.014030,1.000000,0.000547,0.000073,-0.000025,0.353665,-0.270061,0.701643,0.556494,102.471586,52.832011,178.610194
56311,-7.469757,5.890646,-1.421952,-0.318451,-0.105380,-0.199862,0.037014,0.051492,-0.026041,-0.074694,0.058919,-0.014189,1.000000,0.000185,0.000257,-0.000130,0.353603,-0.270175,0.701804,0.556275,102.528646,52.835369,178.654997
56312,-7.467323,5.769039,-1.391408,-0.220541,-0.099730,-0.277481,-0.049033,0.087110,-0.037693,-0.074668,0.057701,-0.013896,1.000000,-0.000245,0.000436,-0.000188,0.353332,-0.270580,0.701771,0.556292,102.563679,52.840652,178.734468
56313,-7.474980,5.493059,-1.256953,0.023039,-0.030688,-0.451732,-0.078025,0.101705,-0.036461,-0.074746,0.054939,-0.012553,1.000000,-0.000390,0.000509,-0.000182,0.352966,-0.271074,0.701687,0.556389,102.593610,52.843534,178.827929
56314,-7.577720,5.347346,-1.197831,0.209129,-0.005098,-0.463517,-0.067569,0.107343,-0.031426,-0.075775,0.053481,-0.011956,1.000000,-0.000338,0.000537,-0.000157,0.352581,-0.271546,0.701646,0.556455,102.631955,52.842718,178.924860
56315,-7.733992,5.333139,-1.401274,0.275988,-0.203057,-0.320418,-0.033602,0.104881,-0.022598,-0.077341,0.053338,-0.013981,1.000000,-0.000168,0.000524,-0.000113,0.352226,-0.271922,0.701709,0.556417,102.687384,52.837372,179.018380
56316,-7.783231,5.508281,-1.246268,0.201583,-0.004633,-0.198512,0.080698,0.069725,-0.003864,-0.077836,0.055089,-0.012413,1.000000,0.000403,0.000349,-0.000019,0.352098,-0.271931,0.702052,0.556061,102.778325,52.825797,179.074731
56317,-7.760925,5.740669,-1.093684,0.040048,0.208180,-0.099891,0.163140,0.026308,0.009482,-0.077613,0.057412,-0.010880,1.000000,0.000816,0.000132,0.000047,0.352196,-0.271629,0.702567,0.555495,102.883150,52.812358,179.088791
56318,-7.734290,5.749614,-1.041186,0.030291,0.271550,-0.123172,0.179165,0.001972,0.022034,-0.077349,0.057497,-0.010360,1.000000,0.000896,0.000010,0.000110,0.352368,-0.271185,0.703098,0.554931,102.976184,52.794893,179.076963
56319,-7.823627,5.685219,-1.024889,0.140918,0.281551,-0.092496,0.224260,-0.008470,0.027112,-0.078244,0.056853,-0.010188,0.999999,0.001121,-0.000042,0.000136,0.352622,-0.270616,0.703744,0.554228,103.087391,52.776076,179.055070
56320,-7.832139,5.906563,-1.180250,-0.051449,0.194792,0.065687,0.218761,-0.005691,0.025226,-0.078329,0.059069,-0.011740,0.999999,0.001094,-0.000028,0.000126,0.352864,-0.270069,0.704375,0.553539,103.196850,52.757863,179.035381
56321,-7.806876,6.096478,-1.062344,-0.186019,0.366321,0.140912,0.192336,-0.002704,0.024849,-0.078076,0.060965,-0.010566,1.000000,0.000962,-0.000014,0.000124,0.353060,-0.269581,0.704938,0.552935,103.294317,52.739601,179.019194
56322,-7.785413,6.271214,-0.863240,-0.290189,0.610765,0.198742,0.134143,-0.005833,0.019641,-0.077860,0.062710,-0.008593,1.000000,0.000671,-0.000029,0.000098,0.353204,-0.269202,0.705325,0.552534,103.356078,52.724546,179.000493
56323,-7.814438,6.214943,-0.904418,-0.234530,0.561713,0.194230,0.055143,0.005873,0.013371,-0.078149,0.062147,-0.009025,1.000000,0.000276,0.000029,0.000067,0.353216,-0.269019,0.705508,0.552382,103.383178,52.711567,178.994655
56324,-7.874051,6.101846,-0.976659,-0.124052,0.464177,0.185123,-0.020538,0.012022,0.000386,-0.078741,0.061017,-0.009768,1.000000,-0.000103,0.000060,0.000002,0.353141,-0.269030,0.705473,0.552468,103.372686,52.704878,178.996548
56325,-7.954016,5.845311,-1.053436,0.106971,0.324935,0.108338,-0.040807,0.020824,-0.011767,-0.079538,0.058456,-0.010538,1.000000,-0.000204,0.000104,-0.000059,0.353041,-0.269147,0.705384,0.552589,103.360128,52.703932,179.009964
56326,-8.033674,5.858821,-1.210128,0.112712,0.172942,0.201677,-0.067478,0.008857,-0.023584,-0.080330,0.058594,-0.012117,1.000000,-0.000337,0.000044,-0.000118,0.352981,-0.269317,0.705181,0.552804,103.324556,52.711022,179.014155
56327,-7.930174,5.746942,-1.118618,0.152621,0.231841,0.040701,-0.059100,-0.002327,-0.030290,-0.079293,0.057478,-0.011204,1.000000,-0.000295,-0.000012,-0.000151,0.352989,-0.269467,0.704976,0.552988,103.287775,52.723465,179.010298
56328,-7.888671,5.700510,-1.182146,0.147915,0.155753,-0.010735,-0.036369,-0.015506,-0.035924,-0.078876,0.057017,-0.011838,1.000000,-0.000182,-0.000078,-0.000180,0.353091,-0.269558,0.704799,0.553103,103.254281,52.740659,178.994713
56329,-7.846986,5.684061,-1.194850,0.129324,0.137014,-0.051750,-0.017527,-0.021224,-0.044607,-0.078456,0.056857,-0.011962,1.000000,-0.000088,-0.000106,-0.000223,0.353261,-0.269634,0.704656,0.553141,103.229909,52.763564,178.976522
56330,-7.722312,5.698283,-1.227580,0.032133,0.107421,-0.138035,-0.014060,-0.028187,-0.050596,-0.077207,0.057001,-0.012291,1.000000,-0.000070,-0.000141,-0.000253,0.353478,-0.269702,0.704499,0.553169,103.202395,52.790606,178.952390
56331,-7.596541,5.637135,-1.342228,-0.024435,-0.020558,-0.258354,-0.059409,-0.013629,-0.057857,-0.075948,0.056389,-0.013444,1.000000,-0.000297,-0.000068,-0.000289,0.353601,-0.269919,0.704235,0.553320,103.161830,52.819898,178.944009
56332,-7.585617,5.427506,-1.424453,0.109571,-0.154542,-0.379099,-0.080224,0.013643,-0.062035,-0.075840,0.054293,-0.014261,1.000000,-0.000401,0.000068,-0.000310,0.353613,-0.270260,0.703953,0.553505,103.129024,52.847837,178.960853
56333,-7.634993,5.346069,-1.409966,0.200774,-0.162679,-0.389588,-0.059688,0.024099,-0.060292,-0.076336,0.053479,-0.014106,1.000000,-0.000298,0.000120,-0.000301,0.353610,-0.270590,0.703751,0.553602,103.116460,52.873575,178.987805
56334,-7.656264,5.365892,-1.330371,0.210414,-0.081249,-0.371809,-0.014313,0.014645,-0.046894,-0.076551,0.053676,-0.013302,1.000000,-0.000072,0.000073,-0.000234,0.353666,-0.270764,0.703674,0.553579,103.119607,52.892955,179.002341
56335,-7.752024,5.749674,-1.166992,0.000819,0.170246,-0.092322,0.072744,-0.021033,-0.038559,-0.077508,0.057516,-0.011657,1.000000,0.000364,-0.000105,-0.000193,0.353941,-0.270659,0.703789,0.553309,103.145918,52.912440,178.982885
56336,-7.466390,5.825612,-1.184265,-0.236283,0.176362,-0.273280,0.040896,-0.025449,-0.030118,-0.074654,0.058270,-0.011840,1.000000,0.000204,-0.000127,-0.000151,0.354165,-0.270565,0.703816,0.553177,103.148218,52.927684,178.956713
56337,-7.665098,5.672576,-1.232774,-0.009632,0.091477,-0.197953,0.044919,-0.001908,-0.018912,-0.076645,0.056736,-0.012316,1.000000,0.000225,-0.000010,-0.000095,0.354281,-0.270493,0.703914,0.553014,103.169315,52.933718,178.950710
56338,-7.966075,6.220654,-1.108771,-0.227702,0.344285,0.346736,0.135695,-0.047093,-0.008118,-0.079656,0.062217,-0.011064,1.000000,0.000678,-0.000235,-0.000041,0.354649,-0.270094,0.704194,0.552615,103.206178,52.939536,178.899766
56339,-7.761966,7.096719,-0.977668,-1.003187,0.688933,0.679518,0.077710,-0.079707,-0.034838,-0.077603,0.070985,-0.009780,1.000000,0.000389,-0.000399,-0.000174,0.355127,-0.269804,0.704223,0.552413,103.191333,52.964634,178.825193
56340,-7.353579,7.400330,-1.201472,-1.535835,0.539357,0.561984,-0.275184,-0.043390,-0.084436,-0.073502,0.074018,-0.012133,0.999999,-0.001376,-0.000217,-0.000422,0.355138,-0.270413,0.703271,0.553321,103.008508,53.012481,178.794018
56341,-7.102790,6.152946,-1.512350,-0.794249,-0.087918,-0.328125,-0.620633,0.073462,-0.131075,-0.070993,0.061529,-0.015288,0.999995,-0.003103,0.000367,-0.000655,0.354397,-0.272124,0.701506,0.555194,102.723183,53.071532,178.881771
56342,-7.631484,5.047433,-1.800313,0.316910,-0.661221,-0.516475,-0.647398,0.153463,-0.138711,-0.076294,0.050469,-0.018108,0.999994,-0.003237,0.000767,-0.000694,0.353357,-0.274124,0.699788,0.557038,102.482063,53.124855,179.044406
56343,-7.887034,4.830077,-1.780757,0.638397,-0.712645,-0.443023,-0.511201,0.126782,-0.115358,-0.078854,0.048301,-0.017881,0.999996,-0.002556,0.000634,-0.000577,0.352528,-0.275729,0.698431,0.558473,102.296280,53.168994,179.178080
56344,-7.660234,4.916771,-1.647969,0.455457,-0.574227,-0.591384,-0.360733,0.107366,-0.097563,-0.076587,0.049175,-0.016527,0.999998,-0.001804,0.000537,-0.000488,0.351923,-0.276948,0.697478,0.559442,102.178318,53.205557,179.289155
56345,-7.857561,5.081193,-1.643025,0.442457,-0.541474,-0.337966,-0.203272,0.077497,-0.075963,-0.078563,0.050825,-0.016451,0.999999,-0.001016,0.000387,-0.000380,0.351579,-0.277733,0.696943,0.559935,102.125721,53.233906,179.368710
56346,-7.974925,5.091398,-1.523370,0.522349,-0.424296,-0.252900,0.029845,0.006257,-0.052766,-0.079736,0.050937,-0.015224,1.000000,0.000149,0.000031,-0.000264,0.351742,-0.277825,0.696965,0.559760,102.148605,53.257701,179.376183
56347,-7.807052,5.314068,-1.234795,0.296077,-0.086879,-0.293292,0.204657,-0.019601,-0.039154,-0.078059,0.053169,-0.012301,0.999999,0.001023,-0.000098,-0.000196,0.352199,-0.277493,0.697451,0.559031,102.251038,53.277152,179.357496
56348,-7.870639,5.751491,-1.096145,0.014831,0.155792,-0.004342,0.281930,-0.044422,-0.028925,-0.078696,0.057542,-0.010898,0.999999,0.001410,-0.000222,-0.000145,0.352822,-0.276916,0.698121,0.558087,102.376557,53.293817,179.312810
56349,-7.865229,6.096715,-1.067902,-0.255084,0.273090,0.188938,0.298753,-0.080915,-0.026133,-0.078640,0.060993,-0.010620,0.999999,0.001494,-0.000405,-0.000131,0.353586,-0.276200,0.698778,0.557136,102.484802,53.313589,179.234141
56350,-7.725504,6.180029,-1.431936,-0.474092,-0.048266,0.172276,0.317816,-0.071606,-0.023278,-0.077243,0.061832,-0.014249,0.999999,0.001589,-0.000358,-0.000116,0.354335,-0.275463,0.699504,0.556112,102.609517,53.330574,179.162866
56351,-7.779920,6.092097,-1.377389,-0.365396,0.000565,0.157491,0.311488,-0.014475,-0.032551,-0.077788,0.060955,-0.013685,0.999999,0.001557,-0.000072,-0.000163,0.354900,-0.274930,0.700302,0.555011,102.776078,53.345784,179.147835
56352,-7.804499,6.061360,-1.289109,-0.311396,0.097730,0.147511,0.291954,0.018273,-0.025748,-0.078038,0.060642,-0.012795,0.999999,0.001460,0.000091,-0.000129,0.355305,-0.274496,0.701108,0.553947,102.953964,53.352899,179.161317
56353,-7.877669,6.073469,-1.376185,-0.293499,0.034824,0.224802,0.288396,0.031934,-0.000289,-0.078779,0.060755,-0.013662,0.999999,0.001442,0.000160,-0.000001,0.355585,-0.274019,0.701966,0.552917,103.136624,53.344154,179.182844
56354,-7.889956,7.020263,-0.845917,-0.916673,0.793855,0.712547,0.248462,0.006981,-0.007332,-0.078897,0.070216,-0.008369,0.999999,0.001242,0.000035,-0.000037,0.355917,-0.273565,0.702655,0.552052,103.277936,53.342378,179.181788
56355,-7.827122,6.940241,-0.227208,-0.769245,1.382765,0.530360,0.027664,-0.061593,-0.019715,-0.078264,0.069410,-0.002287,1.000000,0.000138,-0.000308,-0.000099,0.356221,-0.273361,0.702597,0.552030,103.244494,53.356711,179.120161
56356,-7.961727,6.170816,-0.943935,-0.238295,0.491429,0.289826,-0.192486,-0.046994,-0.075131,-0.079592,0.061729,-0.009517,0.999999,-0.000962,-0.000235,-0.000376,0.356326,-0.273781,0.701879,0.552667,103.104484,53.399789,179.083416
56357,-8.003690,5.635893,-1.654197,0.053754,-0.343209,0.108904,-0.385812,0.031219,-0.121489,-0.080005,0.056375,-0.016638,0.999998,-0.001929,0.000156,-0.000607,0.356019,-0.274926,0.700704,0.553787,102.921447,53.458803,179.130566
56358,-7.676435,5.626757,-1.601587,-0.133076,-0.306766,-0.166895,-0.317324,0.061569,-0.131246,-0.076732,0.056292,-0.016082,0.999998,-0.001587,0.000308,-0.000656,0.355726,-0.276063,0.699754,0.554610,102.801096,53.519252,179.207292
56359,-7.669730,5.416698,-1.920513,-0.041457,-0.675941,-0.252608,-0.240940,0.060053,-0.094033,-0.076678,0.054180,-0.019247,0.999999,-0.001205,0.000300,-0.000470,0.355440,-0.276933,0.699065,0.555229,102.717968,53.559398,179.275392
56360,-7.663532,4.871851,-1.913704,0.379271,-0.797608,-0.574349,-0.034008,0.057392,-0.034636,-0.076632,0.048729,-0.019123,1.000000,-0.000170,0.000287,-0.000173,0.355284,-0.277217,0.699025,0.555237,102.740199,53.566480,179.327537
56361,-7.657680,4.779167,-1.837952,0.463074,-0.734617,-0.641840,0.267948,0.076756,0.004439,-0.076585,0.047815,-0.018286,0.999999,0.001340,0.000384,0.000022,0.355370,-0.276884,0.699914,0.554228,102.944411,53.549432,179.390361
56362,-7.785924,5.207803,-1.745010,0.225329,-0.522396,-0.301476,0.445772,0.064161,0.046273,-0.077877,0.052099,-0.017309,0.999997,0.002229,0.000321,0.000231,0.355629,-0.276050,0.701326,0.552690,103.232550,53.510316,179.431310
56363,-7.820158,5.872983,-1.358755,-0.191628,0.038936,0.059227,0.527393,0.004494,0.078116,-0.078225,0.058735,-0.013431,0.999996,0.002637,0.000022,0.000391,0.356120,-0.274796,0.702900,0.550997,103.517467,53.461431,179.409651
56364,-7.702039,6.452753,-0.851094,-0.602998,0.699464,0.228771,0.477391,-0.056617,0.085862,-0.077046,0.064515,-0.008379,0.999997,0.002387,-0.000283,0.000429,0.356733,-0.273430,0.704231,0.549579,103.725261,53.416340,179.328052
56365,-7.940830,5.816026,-0.649824,0.083637,0.755562,0.022317,0.352689,-0.051963,0.044239,-0.079419,0.058154,-0.006416,0.999998,0.001763,-0.000260,0.000221,0.357272,-0.272448,0.705169,0.548512,103.873571,53.394116,179.260899
56366,-8.011458,5.415102,-1.223299,0.322430,0.110590,-0.071689,0.206135,-0.045290,-0.005674,-0.080110,0.054166,-0.012195,0.999999,0.001031,-0.000226,-0.000028,0.357724,-0.271919,0.705646,0.547867,103.951170,53.398608,179.210684
56367,-7.700095,5.378055,-1.538070,0.099381,-0.193268,-0.297786,0.159645,-0.012385,-0.021229,-0.076994,0.053801,-0.015343,1.000000,0.000798,-0.000062,-0.000106,0.358039,-0.271620,0.706034,0.547308,104.030623,53.407434,179.195530
56368,-7.495721,5.606260,-1.539404,-0.201097,-0.124827,-0.329560,0.199072,0.019821,-0.027003,-0.074951,0.056088,-0.015331,0.999999,0.000995,0.000099,-0.000135,0.358309,-0.271356,0.706578,0.546560,104.156905,53.414818,179.211021
56369,-7.470235,5.961364,-1.550843,-0.493387,-0.032419,-0.142998,0.154566,0.049245,0.003274,-0.074707,0.059624,-0.015444,1.000000,0.000773,0.000246,0.000016,0.358332,-0.271148,0.707095,0.545979,104.274953,53.401398,179.247562
56370,-7.565253,6.024341,-1.743320,-0.522066,-0.191501,-0.001690,0.121826,0.062478,0.034213,-0.075668,0.060241,-0.017373,1.000000,0.000609,0.000312,0.000171,0.358179,-0.270922,0.707587,0.545555,104.377272,53.368651,179.288266
56371,-7.602749,6.056630,-1.670759,-0.502414,-0.101101,0.036847,0.164245,0.071018,0.060242,-0.076052,0.060557,-0.016631,1.000000,0.000821,0.000355,0.000301,0.357982,-0.270554,0.708246,0.545011,104.506022,53.320425,179.331264
56372,-7.710051,6.063535,-1.547777,-0.409159,0.031769,0.108932,0.147961,0.071038,0.058828,-0.077124,0.060624,-0.015406,1.000000,0.000740,0.000355,0.000294,0.357767,-0.270217,0.708856,0.544526,104.624669,53.272643,179.373670
56373,-7.869258,5.987868,-1.500774,-0.237802,0.067908,0.185859,0.106913,0.071774,0.043387,-0.078711,0.059870,-0.014947,1.000000,0.000535,0.000359,0.000217,0.357535,-0.270013,0.709337,0.544154,104.724031,53.233545,179.421038
56374,-7.932966,5.753523,-1.423587,0.004100,0.090587,0.089501,0.109208,0.060549,0.032982,-0.079343,0.057530,-0.014180,1.000000,0.000546,0.000303,0.000165,0.357374,-0.269808,0.709787,0.543774,104.817317,53.201562,179.459654
56375,-7.940695,5.542999,-1.277993,0.207430,0.184864,-0.048696,0.117381,0.043768,0.026013,-0.079417,0.055427,-0.012730,1.000000,0.000587,0.000219,0.000130,0.357303,-0.269570,0.710222,0.543371,104.905105,53.176109,179.485115
56376,-7.897790,5.287734,-1.256471,0.387326,0.146932,-0.234466,0.156319,0.015280,0.023462,-0.078985,0.052878,-0.012517,1.000000,0.000782,0.000076,0.000117,0.357391,-0.269192,0.710706,0.542867,104.993644,53.155966,179.484050
56377,-7.802044,5.169474,-1.356991,0.402118,0.028001,-0.364180,0.190041,0.001032,0.010742,-0.078023,0.051703,-0.013520,1.000000,0.000950,0.000005,0.000054,0.357611,-0.268762,0.711240,0.542235,105.094403,53.145270,179.473709
56378,-7.700218,5.114028,-1.417352,0.372079,-0.033568,-0.468387,0.234079,0.011197,-0.001929,-0.077002,0.051158,-0.014109,0.999999,0.001170,0.000056,-0.000010,0.357887,-0.268324,0.711892,0.541414,105.229478,53.139853,179.475135
56379,-7.775207,5.202526,-1.420145,0.349705,0.001832,-0.356758,0.307863,0.011889,0.006715,-0.077755,0.052044,-0.014117,0.999999,0.001539,0.000059,0.000034,0.358236,-0.267726,0.712757,0.540340,105.406495,53.129769,179.475728
56380,-7.733419,5.295172,-1.321574,0.276964,0.138938,-0.352501,0.329913,-0.001843,0.003728,-0.077335,0.052972,-0.013129,0.999999,0.001650,-0.000009,0.000019,0.358670,-0.267060,0.713650,0.539202,105.585729,53.123227,179.463683
56381,-7.623706,5.394314,-1.346317,0.131292,0.160431,-0.379285,0.311628,0.013913,0.004707,-0.076239,0.053962,-0.013374,0.999999,0.001558,0.000070,0.000024,0.359020,-0.266467,0.714523,0.538105,105.766722,53.113935,179.466550
56382,-7.680508,5.495704,-1.230452,0.116050,0.317027,-0.294653,0.307870,0.011492,0.003420,-0.076807,0.054975,-0.012215,0.999999,0.001539,0.000057,0.000017,0.359377,-0.265875,0.715375,0.537026,105.943072,53.105502,179.466722
56383,-7.677261,5.798676,-1.198724,-0.109025,0.450072,-0.128296,0.301321,-0.002862,-0.006588,-0.076771,0.058007,-0.011901,0.999999,0.001507,-0.000014,-0.000033,0.359802,-0.265295,0.716172,0.535965,106.108156,53.105074,179.457082
56384,-7.702970,5.913874,-1.076345,-0.152240,0.613908,-0.062400,0.190351,0.001228,-0.007199,-0.077028,0.059152,-0.010707,1.000000,0.000952,0.000006,-0.000036,0.360066,-0.264925,0.716674,0.535299,106.211795,53.104161,179.450583
56385,-7.753732,5.884652,-1.211332,-0.130484,0.484623,-0.016519,0.119059,-0.004908,-0.018795,-0.077531,0.058861,-0.012080,1.000000,0.000595,-0.000025,-0.000094,0.360289,-0.264710,0.716961,0.534871,106.273555,53.110798,179.442324
56386,-7.850606,5.843740,-1.228162,-0.045573,0.461994,0.039935,0.074340,0.015041,-0.022921,-0.078500,0.058451,-0.012254,1.000000,0.000372,0.000075,-0.000115,0.360392,-0.264641,0.717157,0.534574,106.324211,53.116308,179.452671
56387,-7.919988,5.736549,-1.259736,0.069029,0.405253,0.038817,0.060802,0.006217,-0.039773,-0.079189,0.057385,-0.012577,1.000000,0.000304,0.000031,-0.000199,0.360554,-0.264637,0.717280,0.534302,106.365267,53.132694,179.460259
56388,-7.936107,5.600768,-1.343508,0.159399,0.289544,-0.012373,0.075923,-0.016902,-0.053606,-0.079345,0.056034,-0.013421,1.000000,0.000380,-0.000085,-0.000268,0.360855,-0.264590,0.717381,0.533985,106.400027,53.160256,179.449616
56389,-7.910563,5.654505,-1.311945,0.105569,0.337364,-0.007246,0.087317,-0.069123,-0.046347,-0.079088,0.056569,-0.013122,1.000000,0.000437,-0.000346,-0.000232,0.361340,-0.264360,0.717430,0.533706,106.402422,53.192439,179.389923
56390,-7.782040,5.871215,-1.275133,-0.134191,0.432659,0.008314,-0.034788,-0.077737,-0.051466,-0.077800,0.058730,-0.012792,1.000000,-0.000174,-0.000389,-0.000257,0.361707,-0.264342,0.717128,0.533871,106.328532,53.228629,179.322809
56391,-7.673466,6.039148,-1.719009,-0.440220,0.041179,0.092505,-0.287704,-0.105978,-0.065825,-0.076706,0.060392,-0.017318,0.999999,-0.001439,-0.000530,-0.000329,0.361880,-0.264761,0.716083,0.534949,106.092795,53.277304,179.234146
56392,-7.538244,5.710538,-1.777607,-0.290991,-0.130540,-0.195333,-0.260657,-0.061002,-0.069202,-0.075357,0.057108,-0.017873,0.999999,-0.001303,-0.000305,-0.000346,0.361935,-0.265260,0.715182,0.535868,105.905018,53.320320,179.186550
56393,-7.522945,5.905279,-1.641528,-0.424506,0.041108,-0.118373,-0.135446,-0.028916,-0.063865,-0.075208,0.059066,-0.016466,1.000000,-0.000677,-0.000145,-0.000319,0.362027,-0.265601,0.714684,0.536301,105.812546,53.355522,179.167829
56394,-7.730789,5.917857,-1.534843,-0.291001,0.136046,0.038134,-0.134892,-0.009866,-0.058639,-0.077290,0.059191,-0.015392,1.000000,-0.000674,-0.000049,-0.000293,0.362037,-0.265971,0.714226,0.536721,105.732149,53.384613,179.164341
56395,-7.940284,5.492205,-1.676327,0.122418,-0.131591,-0.015229,-0.170463,-0.032783,-0.067552,-0.079382,0.054935,-0.016823,1.000000,-0.000852,-0.000164,-0.000338,0.362106,-0.266379,0.713621,0.537277,105.617321,53.422411,179.142782
56396,-7.937709,5.077815,-1.752165,0.414829,-0.332705,-0.243011,-0.199638,-0.039143,-0.090954,-0.079351,0.050797,-0.017588,0.999999,-0.000998,-0.000196,-0.000455,0.362220,-0.266902,0.712892,0.537907,105.484654,53.473837,179.120337
56397,-7.848349,4.923379,-1.876984,0.442813,-0.508694,-0.383773,-0.200217,-0.084938,-0.099035,-0.078451,0.049254,-0.018852,0.999999,-0.001001,-0.000425,-0.000495,0.362519,-0.267334,0.712069,0.538581,105.320006,53.536901,179.058039
56398,-7.501904,4.800019,-1.904959,0.316487,-0.578573,-0.729037,-0.085201,-0.077289,-0.084568,-0.074991,0.048024,-0.019099,1.000000,-0.000426,-0.000386,-0.000423,0.362905,-0.267525,0.711587,0.538865,105.222740,53.590532,178.998058
56399,-7.443671,5.501176,-2.005766,-0.289922,-0.491040,-0.359165,-0.112210,-0.068569,-0.065027,-0.074412,0.055025,-0.020114,1.000000,-0.000561,-0.000343,-0.000325,0.363171,-0.267721,0.711075,0.539264,105.113337,53.632184,178.941834
56400,-7.467980,5.446348,-1.614010,-0.149370,-0.142863,-0.432084,-0.217877,-0.042946,-0.041305,-0.074665,0.054461,-0.016215,0.999999,-0.001089,-0.000215,-0.000207,0.363140,-0.268090,0.710353,0.540051,104.956636,53.656654,178.902586
56401,-7.747735,5.600485,-1.373988,-0.052831,0.118427,-0.155366,0.008014,-0.034790,-0.048647,-0.077461,0.056024,-0.013751,1.000000,0.000040,-0.000174,-0.000243,0.363402,-0.268100,0.710249,0.540007,104.937937,53.684118,178.873490
56402,-7.691408,6.279869,-1.693378,-0.688386,-0.013533,0.236589,-0.203511,-0.086831,-0.025544,-0.076899,0.062791,-0.017031,0.999999,-0.001018,-0.000434,-0.000128,0.363503,-0.268269,0.709507,0.540830,104.753164,53.706152,178.789104
56403,-7.643421,5.905543,-1.749001,-0.442420,-0.190977,-0.008399,-0.367304,-0.043635,-0.009976,-0.076427,0.059027,-0.017615,0.999998,-0.001837,-0.000218,-0.000050,0.363188,-0.268799,0.708422,0.542199,104.504884,53.713361,178.741984
56404,-7.570772,6.261247,-1.790897,-0.771278,-0.173364,0.142311,-0.664298,-0.078192,0.006274,-0.075703,0.062550,-0.018146,0.999994,-0.003321,-0.000391,0.000031,0.362550,-0.269713,0.706484,0.544696,104.056138,53.716003,178.657700
56405,-7.444868,5.657860,-1.646190,-0.344879,-0.234265,-0.327255,-0.625976,-0.024139,0.024291,-0.074454,0.056518,-0.016648,0.999995,-0.003130,-0.000121,0.000121,0.361719,-0.270640,0.704767,0.547007,103.667886,53.701100,178.620799
56406,-7.485583,6.477995,-1.464128,-0.916283,0.101167,0.151848,-0.808307,-0.042247,0.055392,-0.074871,0.064699,-0.014919,0.999992,-0.004042,-0.000211,0.000277,0.360616,-0.271732,0.702549,0.550039,103.155054,53.670848,178.559349
56407,-7.772591,5.040576,-1.591106,0.352495,-0.437007,-0.429898,-0.982982,0.016330,0.062563,-0.077743,0.050302,-0.016152,0.999988,-0.004915,0.000082,0.000313,0.359042,-0.273272,0.699954,0.553602,102.586750,53.629027,178.552834
56408,-8.031666,4.619311,-1.485658,0.864166,-0.484257,-0.481478,-0.804852,0.024992,0.048630,-0.080330,0.046113,-0.015032,0.999992,-0.004024,0.000125,0.000243,0.357713,-0.274558,0.697833,0.556497,102.129160,53.593747,178.557405
56409,-7.988890,4.360453,-1.353501,1.073983,-0.448961,-0.685103,-0.638992,0.006707,0.051952,-0.079901,0.043540,-0.013672,0.999995,-0.003195,0.000034,0.000260,0.356662,-0.275482,0.696137,0.558833,101.753276,53.558958,178.545080
56410,-8.037071,4.404652,-0.906289,1.158652,-0.025425,-0.676293,-0.272322,0.017988,0.052785,-0.080383,0.044013,-0.009116,0.999999,-0.001362,0.000090,0.000264,0.356071,-0.275777,0.695482,0.559880,101.595277,53.522085,178.542807
56411,-8.071690,5.229331,-0.813392,0.556931,0.237064,-0.179759,-0.066280,-0.023132,0.058143,-0.080731,0.052267,-0.008161,1.000000,-0.000331,-0.000116,0.000291,0.355893,-0.275574,0.695338,0.560272,101.524272,53.487199,178.501534
56412,-8.005623,5.663079,-0.446521,0.252956,0.686611,-0.023692,0.068624,-0.055724,0.067324,-0.080074,0.056605,-0.004468,1.000000,0.000343,-0.000279,0.000337,0.355988,-0.275005,0.695524,0.560260,101.503670,53.450712,178.427172
56413,-7.863617,6.887138,-0.190371,-0.732797,1.209008,0.546207,0.172214,-0.099922,0.065449,-0.078658,0.068847,-0.001884,0.999999,0.000861,-0.000500,0.000327,0.356384,-0.274137,0.695921,0.559940,101.510185,53.420478,178.312247
56414,-7.668714,7.314570,-0.062623,-1.151861,1.427355,0.625315,-0.037468,-0.093132,0.058128,-0.076708,0.073123,-0.000676,1.000000,-0.000187,-0.000466,0.000291,0.356489,-0.273684,0.695730,0.560332,101.402023,53.393344,178.204507
56415,-7.675391,7.363311,-0.255430,-1.219840,1.232574,0.684357,-0.222080,-0.085785,0.030421,-0.076764,0.073619,-0.002669,0.999999,-0.001110,-0.000429,0.000152,0.356393,-0.273679,0.694999,0.561302,101.198917,53.380956,178.109810
56416,-7.705135,6.657559,-1.013279,-0.794838,0.305714,0.385037,-0.544269,-0.033440,0.000489,-0.077050,0.066547,-0.010327,0.999996,-0.002721,-0.000167,0.000002,0.355757,-0.274495,0.693411,0.563268,100.854300,53.379090,178.069223
56417,-7.709593,5.893827,-1.207626,-0.233227,-0.086382,-0.036624,-0.563022,-0.032241,-0.014874,-0.077090,0.058910,-0.012255,0.999996,-0.002815,-0.000161,-0.000074,0.355131,-0.275402,0.691747,0.565262,100.503087,53.385909,178.033372
56418,-7.550515,5.616982,-1.259357,-0.121144,-0.225291,-0.321574,-0.484030,-0.023476,0.008873,-0.075506,0.056136,-0.012738,0.999997,-0.002420,-0.000117,0.000044,0.354515,-0.276106,0.690348,0.567014,100.199254,53.378042,178.000742
56419,-7.736514,4.901544,-1.351575,0.537095,-0.489683,-0.583535,-0.303265,-0.009393,0.047180,-0.077376,0.048977,-0.013594,0.999999,-0.001516,-0.000047,0.000236,0.353989,-0.276400,0.689538,0.568183,100.005744,53.347346,177.975940
56420,-7.733984,4.694896,-1.689429,0.645234,-0.875046,-0.673284,-0.061657,-0.040127,0.084779,-0.077356,0.046911,-0.016924,1.000000,-0.000308,-0.000201,0.000424,0.353796,-0.276045,0.689410,0.568631,99.921586,53.298153,177.915236
56421,-7.774251,4.810376,-1.815072,0.565169,-0.978724,-0.560884,0.196977,-0.067579,0.119923,-0.077765,0.048075,-0.018130,0.999999,0.000985,-0.000338,0.000600,0.353954,-0.275037,0.690019,0.568283,99.961239,53.232118,177.823703
56422,-7.633869,5.146829,-1.564142,0.271702,-0.654063,-0.500829,0.406509,-0.076530,0.136429,-0.076368,0.051448,-0.015566,0.999998,0.002033,-0.000383,0.000682,0.354383,-0.273571,0.691225,0.567256,100.111122,53.157446,177.720191
56423,-7.648352,5.632126,-1.281264,-0.035892,-0.257984,-0.231881,0.568057,-0.053783,0.143038,-0.076520,0.056303,-0.012673,0.999996,0.002840,-0.000269,0.000715,0.354933,-0.271862,0.692937,0.565643,100.370552,53.077259,177.637437
56424,-7.608556,5.841025,-1.163415,-0.187005,-0.070133,-0.152395,0.577104,-0.026739,0.135639,-0.076124,0.058392,-0.011476,0.999996,0.002886,-0.000134,0.000678,0.355420,-0.270235,0.694703,0.563947,100.655330,52.998514,177.580217
56425,-7.572173,6.200229,-1.031171,-0.447981,0.168566,0.016592,0.568952,-0.012739,0.132177,-0.075762,0.061981,-0.010140,0.999996,0.002845,-0.000064,0.000661,0.355854,-0.268674,0.696463,0.562247,100.946770,52.920523,177.536751
56426,-7.541581,6.299979,-0.784927,-0.480259,0.460886,0.022867,0.466446,0.009031,0.125035,-0.075456,0.062971,-0.007699,0.999997,0.002332,0.000045,0.000625,0.356092,-0.267377,0.697957,0.560861,101.195477,52.844141,177.513731
56427,-7.636755,6.400995,-0.727728,-0.474412,0.561782,0.151329,0.348570,0.036302,0.106362,-0.076403,0.063982,-0.007152,0.999998,0.001743,0.000182,0.000532,0.356127,-0.266432,0.699142,0.559810,101.400078,52.775379,177.519675
56428,-7.710602,6.163796,-0.697908,-0.227592,0.551975,0.065386,0.203901,0.050660,0.090520,-0.077136,0.061610,-0.006897,0.999999,0.001020,0.000253,0.000453,0.355963,-0.265836,0.699924,0.559221,101.533499,52.713480,177.540756
56429,-7.836196,5.936660,-0.587162,0.056656,0.616883,0.016396,0.188434,0.052913,0.070154,-0.078384,0.059345,-0.005795,0.999999,0.000942,0.000265,0.000351,0.355827,-0.265348,0.700640,0.558642,101.663561,52.663108,177.568351
56430,-7.746146,6.185858,-0.859814,-0.236165,0.421984,0.125776,0.078547,0.029778,0.053164,-0.077479,0.061841,-0.008562,1.000000,0.000393,0.000149,0.000266,0.355674,-0.265049,0.700984,0.558450,101.715367,52.624741,177.577033
56431,-7.533086,6.197632,-1.549159,-0.507448,-0.242255,0.048434,-0.150636,0.005475,0.055885,-0.075349,0.061944,-0.015536,1.000000,-0.000753,0.000027,0.000279,0.355295,-0.265082,0.700649,0.559096,101.618351,52.587852,177.563367
56432,-7.388541,6.540201,-0.842562,-0.710179,0.521080,0.051328,-0.046698,0.015476,0.051236,-0.073903,0.065381,-0.008435,1.000000,-0.000233,0.000077,0.000256,0.355031,-0.264971,0.700615,0.559359,101.588296,52.552158,177.559273
56433,-7.563758,6.069393,-0.784570,-0.225366,0.454115,-0.096387,-0.300424,0.078817,0.036456,-0.075652,0.060668,-0.007907,0.999999,-0.001502,0.000394,0.000182,0.354249,-0.265542,0.699964,0.560397,101.462235,52.517761,177.617127
56434,-7.823499,5.223876,-1.158921,0.511656,-0.127353,-0.349015,-0.415841,0.078497,0.005188,-0.078241,0.052213,-0.011667,0.999998,-0.002079,0.000392,0.000026,0.353402,-0.266422,0.698944,0.561787,101.273413,52.500696,177.679760
56435,-7.806834,5.085504,-1.281604,0.586832,-0.292772,-0.430714,-0.328909,0.067824,0.006961,-0.078074,0.050831,-0.012873,0.999999,-0.001645,0.000339,0.000035,0.352702,-0.267115,0.698150,0.562883,101.127441,52.484300,177.733120
56436,-7.798713,5.260230,-1.393640,0.429551,-0.372749,-0.320127,-0.198232,0.063353,0.021115,-0.077997,0.052580,-0.013964,0.999999,-0.000991,0.000317,0.000106,0.352151,-0.267511,0.697732,0.563557,101.050133,52.460235,177.779089
56437,-7.794468,5.522290,-1.444742,0.219507,-0.370143,-0.161184,-0.096576,0.028442,0.024870,-0.077954,0.055206,-0.014463,1.000000,-0.000483,0.000142,0.000124,0.351848,-0.267620,0.697546,0.563925,101.005912,52.438181,177.792918
56438,-7.830683,5.673717,-1.298580,0.155934,-0.197385,-0.059037,0.049435,-0.022398,0.025980,-0.078313,0.056730,-0.012981,1.000000,0.000247,-0.000112,0.000130,0.351914,-0.267322,0.697682,0.563858,101.007143,52.420768,177.758926
56439,-7.775700,5.783726,-1.168343,0.065535,-0.043734,-0.051959,0.147768,-0.069253,0.040321,-0.077765,0.057830,-0.011668,1.000000,0.000739,-0.000346,0.000202,0.352234,-0.266671,0.698032,0.563532,101.029339,52.400725,177.679904
56440,-7.822520,5.446719,-0.956097,0.397662,0.090496,-0.241567,0.270040,-0.106300,0.048883,-0.078233,0.054461,-0.009529,0.999999,0.001350,-0.000531,0.000244,0.352822,-0.265668,0.698671,0.562846,101.092566,52.379739,177.564556
56441,-7.748904,6.076557,-0.916186,-0.119443,0.282925,0.072409,0.413860,-0.127236,0.040067,-0.077495,0.060769,-0.009085,0.999998,0.002069,-0.000636,0.000200,0.353698,-0.264385,0.699666,0.561664,101.224998,52.366386,177.432180
56442,-7.412326,6.327823,-1.247851,-0.579183,0.032926,-0.004298,0.100081,-0.099476,0.052449,-0.074134,0.063265,-0.012484,1.000000,0.000500,-0.000497,0.000262,0.354026,-0.263689,0.699839,0.561568,101.195226,52.342974,177.322505
56443,-7.600767,6.149917,-0.955373,-0.266001,0.270478,0.003726,0.137176,-0.082712,0.034276,-0.076014,0.061493,-0.009543,1.000000,0.000686,-0.000414,0.000171,0.354396,-0.263040,0.700125,0.561283,101.202514,52.327978,177.232236
56444,-7.542283,6.320276,-0.568909,-0.352845,0.684683,0.013923,-0.022299,-0.056890,0.007468,-0.075424,0.063199,-0.005718,1.000000,-0.000111,-0.000284,0.000037,0.354540,-0.262836,0.699971,0.561479,101.140089,52.324922,177.169872
56445,-7.588230,5.885818,-0.986185,-0.076076,0.167775,-0.160605,-0.180767,-0.011265,-0.005256,-0.075880,0.058851,-0.009919,1.000000,-0.000904,-0.000056,-0.000026,0.354351,-0.263089,0.699439,0.562143,101.022939,52.324172,177.152527
56446,-7.640494,5.900382,-1.201599,-0.098050,-0.050770,-0.085237,-0.153659,0.011091,0.006193,-0.076407,0.058992,-0.012057,1.000000,-0.000768,0.000055,0.000031,0.354088,-0.263312,0.699037,0.562704,100.935432,52.314126,177.153045
56447,-7.697708,5.891287,-0.831144,0.019028,0.299224,-0.088343,-0.084550,0.022543,0.011095,-0.076981,0.058905,-0.008328,1.000000,-0.000423,0.000113,0.000055,0.353861,-0.263432,0.698856,0.563016,100.895741,52.300479,177.163916
56448,-7.741103,5.874583,-0.712907,0.083464,0.404949,-0.077561,-0.062890,0.006172,0.008996,-0.077414,0.058740,-0.007145,1.000000,-0.000314,0.000031,0.000045,0.353726,-0.263470,0.698702,0.563273,100.855868,52.289374,177.159271
56449,-7.747462,5.905962,-0.898773,0.028138,0.226118,-0.032123,-0.065899,-0.008697,0.014062,-0.077478,0.059051,-0.009011,1.000000,-0.000329,-0.000043,0.000070,0.353625,-0.263459,0.698522,0.563565,100.803735,52.277430,177.140910
56450,-7.664935,6.055246,-0.648443,-0.085858,0.501392,-0.036239,-0.015983,-0.024810,0.011792,-0.076652,0.060547,-0.006499,1.000000,-0.000080,-0.000124,0.000059,0.353653,-0.263319,0.698448,0.563704,100.767961,52.268316,177.107497
56451,-7.565505,6.038165,-0.943258,-0.190620,0.205506,-0.091193,-0.134737,-0.043883,0.014552,-0.075657,0.060370,-0.009490,1.000000,-0.000674,-0.000219,0.000073,0.353583,-0.263329,0.698012,0.564284,100.650765,52.259818,177.056733
56452,-7.591415,5.992366,-1.328099,-0.213638,-0.193274,-0.054672,-0.157187,-0.032089,0.028143,-0.075920,0.059903,-0.013340,1.000000,-0.000786,-0.000160,0.000141,0.353404,-0.263360,0.697550,0.564953,100.526743,52.242131,177.013868
56453,-7.750411,5.872566,-1.141869,0.014977,-0.053381,-0.022044,-0.060498,-0.018113,0.037120,-0.077514,0.058708,-0.011443,1.000000,-0.000302,-0.000091,0.000186,0.353277,-0.263232,0.697398,0.565279,100.467871,52.218115,176.983052
56454,-7.776749,5.889222,-0.788366,0.091199,0.287945,-0.030507,-0.009399,-0.044758,0.041774,-0.077778,0.058876,-0.007904,1.000000,-0.000047,-0.000224,0.000209,0.353297,-0.262918,0.697348,0.565474,100.417368,52.193828,176.926168
56455,-7.743758,5.971318,-1.125749,-0.053649,-0.029343,0.030381,-0.060156,-0.065410,0.054815,-0.077450,0.059689,-0.011301,1.000000,-0.000301,-0.000327,0.000274,0.353286,-0.262594,0.697136,0.565893,100.322114,52.164675,176.849027
56456,-7.893549,5.978369,-1.094848,0.043356,-0.010054,0.149527,0.038551,-0.062475,0.053077,-0.078948,0.059765,-0.010962,1.000000,0.000193,-0.000312,0.000265,0.353399,-0.262107,0.697204,0.565964,100.284829,52.135881,176.774205
56457,-7.845383,6.100400,-0.921594,-0.042057,0.184649,0.166210,0.075761,-0.066136,0.026135,-0.078459,0.060997,-0.009219,1.000000,0.000379,-0.000331,0.000131,0.353650,-0.261640,0.697338,0.565858,100.270863,52.122895,176.701336
56458,-7.683293,6.023664,-0.789505,-0.054837,0.300733,-0.022520,0.063647,-0.049365,0.009790,-0.076834,0.060235,-0.007895,1.000000,0.000318,-0.000247,0.000049,0.353872,-0.261296,0.697444,0.565748,100.263374,52.117060,176.645819
56459,-7.734913,6.519547,-0.967701,-0.436550,0.234655,0.337395,0.015147,-0.029242,0.009759,-0.077351,0.065192,-0.009683,1.000000,0.000076,-0.000146,0.000049,0.353961,-0.261098,0.697450,0.565776,100.243600,52.109525,176.609577
56460,-7.674485,6.561518,-1.125490,-0.535147,0.086676,0.332462,-0.118774,-0.005969,0.020947,-0.076751,0.065600,-0.011296,1.000000,-0.000594,-0.000030,0.000105,0.353762,-0.261160,0.697131,0.566265,100.161496,52.092978,176.592077
56461,-7.800329,6.260376,-0.345293,-0.072617,0.767651,0.165394,-0.015286,-0.055979,-0.000316,-0.078002,0.062604,-0.003480,1.000000,-0.000076,-0.000280,-0.000002,0.353933,-0.260975,0.696990,0.566417,100.106263,52.093775,176.532985
56462,-7.485128,6.336669,-1.211121,-0.495734,-0.060488,0.056350,-0.253402,-0.044079,0.006297,-0.074851,0.063349,-0.012208,0.999999,-0.001267,-0.000220,0.000031,0.353733,-0.261220,0.696201,0.567398,99.921335,52.089374,176.483007
56463,-7.702670,5.805596,-1.127386,0.060710,-0.119668,-0.102432,-0.161033,-0.017127,0.009326,-0.077028,0.058043,-0.011327,1.000000,-0.000805,-0.000086,0.000047,0.353551,-0.261369,0.695728,0.568023,99.809546,52.080743,176.458070
56464,-7.808487,5.496503,-0.507797,0.482957,0.406263,-0.271012,0.031404,-0.042479,-0.014068,-0.078080,0.054971,-0.005086,1.000000,0.000157,-0.000212,-0.000070,0.353774,-0.261184,0.695724,0.567974,99.791735,52.087480,176.412841
56465,-7.548779,5.947180,-1.466748,-0.208862,-0.423653,-0.102834,-0.067085,0.003105,-0.000425,-0.075488,0.059467,-0.014686,1.000000,-0.000335,0.000016,-0.000002,0.353672,-0.261258,0.695541,0.568228,99.749676,52.082363,176.408062
56466,-7.808393,5.296721,-0.991326,0.542193,-0.109676,-0.341522,0.179361,-0.004794,0.004494,-0.078085,0.052974,-0.009868,1.000000,0.000897,-0.000024,0.000022,0.353904,-0.260854,0.696049,0.567647,99.841815,52.074946,176.394570
56467,-7.679195,4.847164,-0.377191,0.929103,0.408898,-0.780698,0.451593,-0.037266,-0.017841,-0.076787,0.048487,-0.003677,0.999997,0.002258,-0.000186,-0.000089,0.354668,-0.259956,0.697242,0.566116,100.069888,52.083666,176.355500
56468,-7.884936,4.897525,-1.059992,0.881041,-0.228159,-0.514667,0.657847,-0.020989,-0.013512,-0.078845,0.049015,-0.010447,0.999995,0.003289,-0.000105,-0.000068,0.355627,-0.258718,0.699045,0.563854,100.426286,52.088138,176.329894
56469,-7.859712,6.392634,-1.532155,-0.372001,-0.307457,0.422316,0.688556,-0.085037,-0.003215,-0.078590,0.063980,-0.015135,0.999994,0.003443,-0.000425,-0.000016,0.356817,-0.257209,0.700828,0.561573,100.753715,52.093916,176.244678
56470,-7.357514,7.501856,-1.006768,-1.412356,0.522947,0.635092,0.538399,-0.046981,-0.018726,-0.073566,0.075052,-0.009883,0.999996,0.002692,-0.000235,-0.000094,0.357721,-0.256125,0.702228,0.559742,101.023710,52.104378,176.196325
56471,-6.848537,9.136089,-1.806579,-3.139428,0.165958,1.311640,-0.374326,0.026614,-0.023130,-0.068477,0.091335,-0.018228,0.999998,-0.001872,0.000133,-0.000116,0.357207,-0.256895,0.701199,0.561006,100.825642,52.109541,176.216923
56472,-7.193193,6.768207,-1.012927,-0.960278,0.321208,0.064116,-0.603686,0.043928,-0.009068,-0.071931,0.067654,-0.010318,0.999995,-0.003018,0.000220,-0.000045,0.356297,-0.258070,0.699568,0.563078,100.505521,52.104708,176.250109
56473,-7.109951,5.148937,-0.945526,0.235587,-0.019232,-0.986531,-0.633518,0.103111,-0.009778,-0.071102,0.051463,-0.009582,0.999995,-0.003168,0.000516,-0.000049,0.355139,-0.259467,0.697954,0.565167,100.212493,52.094589,176.338567
56474,-7.759512,3.810457,-1.712908,1.505055,-1.110872,-1.200810,-0.358133,0.137896,0.032703,-0.077613,0.038061,-0.017144,0.999998,-0.001791,0.000689,0.000164,0.354095,-0.260320,0.697228,0.566325,100.095833,52.056779,176.451141
56475,-8.154148,3.919303,-1.488601,1.716843,-0.881631,-0.849308,0.078591,0.090199,0.054637,-0.081559,0.039177,-0.014834,1.000000,0.000393,0.000451,0.000273,0.353723,-0.260191,0.697683,0.566056,100.193034,52.011837,176.517128
56476,-8.215200,4.410488,-0.775035,1.528047,-0.062180,-0.582100,0.592411,0.004008,0.038512,-0.082161,0.044112,-0.007618,0.999996,0.002962,0.000020,0.000193,0.354364,-0.258963,0.699414,0.564079,100.523490,51.984588,176.505986
56477,-7.807359,4.644090,-0.281237,1.207096,0.523832,-0.819922,1.121163,-0.029827,-0.001637,-0.078073,0.046456,-0.002564,0.999984,0.005606,-0.000149,-0.000008,0.355914,-0.256840,0.702512,0.560211,101.138600,51.983755,176.471185
56478,-7.764985,6.050940,-0.978901,-0.028436,0.248015,0.076920,1.177924,0.031041,-0.021788,-0.077645,0.060574,-0.009420,0.999983,0.005890,0.000155,-0.000109,0.357368,-0.254845,0.705826,0.556015,101.831880,51.987231,176.494797
56479,-7.780298,7.144214,-1.157456,-0.880170,0.424462,0.768295,0.990808,0.047430,-0.030766,-0.077795,0.071510,-0.011202,0.999988,0.004954,0.000237,-0.000154,0.358540,-0.253257,0.708619,0.552421,102.432139,51.993898,176.535942
56480,-7.326727,8.064455,-0.786779,-1.763969,1.107525,0.910971,0.693305,0.077660,-0.069576,-0.073242,0.080697,-0.007560,0.999994,0.003467,0.000388,-0.000348,0.359328,-0.252415,0.710581,0.549768,102.888999,52.017857,176.611772
56481,-6.855925,7.812303,-0.797547,-1.865381,1.092928,0.385236,0.242919,0.158364,-0.108728,-0.068523,0.078170,-0.007826,0.999999,0.001215,0.000792,-0.000544,0.359367,-0.252745,0.711396,0.548535,103.153192,52.053329,176.770147
56482,-7.095062,6.828146,-1.276858,-1.093447,0.378332,0.049111,-0.113850,0.255247,-0.125835,-0.070924,0.068319,-0.012717,0.999999,-0.000569,0.001276,-0.000629,0.358656,-0.254040,0.711380,0.548424,103.283880,52.085089,177.019415
56483,-7.858281,6.174665,-1.775479,-0.251231,-0.295648,0.330334,-0.322841,0.268449,-0.107296,-0.078574,0.061760,-0.017749,0.999998,-0.001614,0.001342,-0.000536,0.357580,-0.255682,0.710840,0.549063,103.302994,52.104796,177.277883
56484,-8.053057,5.428320,-1.502807,0.491503,-0.236924,-0.000496,-0.300064,0.196389,-0.108782,-0.080516,0.054304,-0.015030,0.999998,-0.001500,0.000982,-0.000544,0.356792,-0.257086,0.710225,0.549715,103.282522,52.134494,177.470425
56485,-7.994834,5.052255,-1.610057,0.711966,-0.438660,-0.255720,-0.252353,0.131605,-0.104503,-0.079933,0.050544,-0.016112,0.999999,-0.001262,0.000658,-0.000523,0.356284,-0.258214,0.709633,0.550281,103.243744,52.170716,177.604232
56486,-8.154813,4.700263,-1.670693,1.059049,-0.594758,-0.330634,-0.135198,0.056655,-0.076197,-0.081535,0.047022,-0.016716,1.000000,-0.000676,0.000283,-0.000381,0.356113,-0.258823,0.709263,0.550583,103.212377,52.200596,177.662947
56487,-8.019380,4.932049,-1.560248,0.819579,-0.425020,-0.314394,0.010257,-0.010938,-0.064296,-0.080177,0.049347,-0.015604,1.000000,0.000051,-0.000055,-0.000321,0.356338,-0.258948,0.709190,0.550472,103.214911,52.233130,177.658528
56488,-7.700806,5.582642,-1.374228,0.166688,-0.067291,-0.204124,0.083377,-0.039293,-0.043585,-0.076993,0.055849,-0.013734,1.000000,0.000417,-0.000196,-0.000218,0.356701,-0.258788,0.709292,0.550180,103.234338,52.257566,177.623059
56489,-7.555381,6.299735,-1.358687,-0.467051,0.141003,0.105904,0.100542,-0.044011,-0.030956,-0.075541,0.063016,-0.013572,1.000000,0.000503,-0.000220,-0.000155,0.357068,-0.258543,0.709452,0.549850,103.259125,52.275849,177.581374
56490,-7.248261,6.838574,-1.336674,-1.062093,0.310884,0.180580,-0.037929,-0.013568,-0.034896,-0.072470,0.068396,-0.013385,1.000000,-0.000190,-0.000068,-0.000174,0.357159,-0.258638,0.709278,0.549971,103.225991,52.291912,177.567357
56491,-7.233750,6.388617,-1.425957,-0.751551,0.101153,-0.086442,-0.193860,0.047332,-0.037013,-0.072329,0.063886,-0.014304,0.999999,-0.000969,0.000237,-0.000185,0.356838,-0.259191,0.708783,0.550557,103.148984,52.301609,177.610226
56492,-7.627830,5.616730,-1.553627,0.047081,-0.241962,-0.216623,-0.267803,0.081778,-0.026973,-0.076277,0.056157,-0.015580,0.999999,-0.001339,0.000409,-0.000135,0.356271,-0.259932,0.708156,0.551381,103.051959,52.301037,177.681695
56493,-8.063195,5.485433,-1.366347,0.454203,-0.113208,0.023616,-0.161101,0.049175,-0.013991,-0.080631,0.054849,-0.013688,1.000000,-0.000806,0.000246,-0.000070,0.355922,-0.260350,0.707783,0.551888,102.991173,52.297720,177.721342
56494,-8.010581,5.963158,-1.164494,0.101772,0.199415,0.238909,-0.076710,-0.005230,-0.013898,-0.080101,0.059633,-0.011670,1.000000,-0.000384,-0.000026,-0.000069,0.355875,-0.260465,0.707543,0.552172,102.938275,52.301195,177.710553
56495,-7.660174,6.430961,-1.097891,-0.456461,0.383901,0.231472,-0.114215,-0.028624,-0.031070,-0.076590,0.064315,-0.011027,1.000000,-0.000571,-0.000143,-0.000155,0.355909,-0.260644,0.707138,0.552584,102.850962,52.317418,177.682724
56496,-7.372727,6.101654,-1.202764,-0.407240,0.194136,-0.177835,-0.214231,-0.013563,-0.036050,-0.073715,0.061017,-0.012098,0.999999,-0.001071,-0.000068,-0.000180,0.355773,-0.261058,0.706475,0.553325,102.716987,52.334200,177.668852
56497,-7.695591,5.188980,-1.470787,0.426398,-0.314743,-0.430259,-0.237505,0.038878,-0.026832,-0.076952,0.051883,-0.014755,0.999999,-0.001188,0.000194,-0.000134,0.355395,-0.261628,0.705853,0.554090,102.607126,52.339507,177.701785
56498,-8.246761,5.933554,-1.140446,0.263234,0.168312,0.405880,-0.084398,-0.022606,-0.020358,-0.082460,0.059339,-0.011439,1.000000,-0.000422,-0.000113,-0.000102,0.355417,-0.261730,0.705551,0.554413,102.538205,52.348641,177.676309
56499,-7.368455,7.012673,-1.082044,-1.087622,0.503852,0.346334,-0.142373,-0.056281,-0.032307,-0.073670,0.070131,-0.010891,1.000000,-0.000712,-0.000281,-0.000162,0.355514,-0.261886,0.705016,0.554957,102.414703,52.368855,177.623171
56500,-7.030564,6.839536,-1.322576,-1.216453,0.217657,0.007197,-0.346667,0.005787,-0.038824,-0.070293,0.068386,-0.013342,0.999998,-0.001733,0.000029,-0.000194,0.355142,-0.262597,0.704011,0.556134,102.218750,52.384643,177.627204
56501,-7.425036,5.419870,-1.514310,0.067355,-0.344987,-0.502708,-0.426876,0.073879,-0.041620,-0.074245,0.054182,-0.015231,0.999998,-0.002134,0.000369,-0.000208,0.354432,-0.263652,0.702902,0.557490,102.028131,52.394211,177.695136
56502,-8.121937,5.244541,-1.491976,0.630478,-0.398533,-0.058677,-0.319878,0.050446,-0.028590,-0.081216,0.052433,-0.014983,0.999999,-0.001599,0.000252,-0.000143,0.353907,-0.264401,0.702061,0.558527,101.878789,52.398944,177.738162
56503,-7.700533,5.832959,-1.307765,-0.041370,-0.083855,-0.064707,-0.212375,-0.003854,-0.020489,-0.076999,0.058324,-0.013141,0.999999,-0.001062,-0.000019,-0.000102,0.353692,-0.264784,0.701436,0.559266,101.751195,52.406003,177.730513
56504,-7.380127,5.233527,-1.408696,0.202333,-0.326213,-0.664292,-0.201895,0.022852,-0.012482,-0.073800,0.052326,-0.014131,0.999999,-0.001009,0.000114,-0.000062,0.353374,-0.265191,0.700895,0.559952,101.646781,52.405200,177.745129
56505,-8.170283,5.366725,-1.312668,0.600686,-0.227823,0.029346,-0.073971,0.003378,-0.013843,-0.081699,0.053668,-0.013145,1.000000,-0.000370,0.000017,-0.000069,0.353298,-0.265325,0.700678,0.560208,101.602731,52.407680,177.742836
56506,-7.579849,6.229075,-1.112409,-0.382928,0.176235,0.052161,-0.023445,-0.039326,-0.022929,-0.075789,0.062298,-0.011146,1.000000,-0.000117,-0.000197,-0.000115,0.353463,-0.265278,0.700513,0.560332,101.556894,52.419687,177.702123
56507,-7.096595,6.325374,-1.109948,-0.752533,0.207568,-0.273578,-0.099378,0.014362,-0.018776,-0.070961,0.063255,-0.011126,1.000000,-0.000497,0.000072,-0.000094,0.353329,-0.265505,0.700238,0.560654,101.507028,52.423675,177.710859
56508,-7.490966,5.873246,-1.460023,-0.233804,-0.253788,-0.188646,-0.204454,0.062970,-0.010111,-0.074911,0.058721,-0.014637,0.999999,-0.001022,0.000315,-0.000051,0.352860,-0.266019,0.699763,0.561298,101.430206,52.416847,177.761935
56509,-7.762385,6.266688,-1.252532,-0.330055,0.023941,0.236459,-0.153829,0.041142,-0.023235,-0.077619,0.062666,-0.012558,1.000000,-0.000769,0.000206,-0.000116,0.352572,-0.266433,0.699375,0.561766,101.369329,52.420319,177.796146
56510,-7.191290,6.503867,-1.186818,-0.849231,0.144627,-0.082253,-0.255034,0.043997,-0.033717,-0.071905,0.065036,-0.011935,0.999999,-0.001275,0.000220,-0.000169,0.352167,-0.267066,0.698692,0.562569,101.253182,52.428989,177.834148
56511,-7.350945,5.739515,-1.674356,-0.257596,-0.520286,-0.355160,-0.386074,0.104926,-0.026939,-0.073511,0.057373,-0.016816,0.999998,-0.001930,0.000525,-0.000135,0.351355,-0.268080,0.697756,0.563755,101.106368,52.427537,177.927818
56512,-7.719014,4.903648,-1.644087,0.617873,-0.694819,-0.567828,-0.302355,0.113058,-0.033766,-0.077191,0.049025,-0.016471,0.999999,-0.001512,0.000565,-0.000169,0.350644,-0.268989,0.697056,0.564629,101.013386,52.428763,178.029461
56513,-7.799279,4.746467,-1.288634,0.855182,-0.387272,-0.640067,-0.114360,0.083391,-0.015981,-0.077994,0.047464,-0.012881,1.000000,-0.000572,0.000417,-0.000080,0.350240,-0.269426,0.696861,0.564913,101.004951,52.423675,178.101304
56514,-7.711973,5.162074,-1.456282,0.453083,-0.457611,-0.441049,0.008287,0.045993,0.018059,-0.077128,0.051614,-0.014543,1.000000,0.000041,0.000230,0.000090,0.350034,-0.269421,0.696990,0.564884,101.033761,52.403148,178.131819
56515,-7.507483,5.259459,-1.573100,0.236018,-0.542244,-0.531032,0.077848,0.035677,0.038428,-0.075088,0.052586,-0.015697,1.000000,0.000389,0.000178,0.000192,0.349901,-0.269197,0.697327,0.564657,101.092780,52.372670,178.149829
56516,-7.824646,5.962129,-1.235609,-0.044689,-0.056909,0.101623,0.226955,0.015094,0.039792,-0.078259,0.059620,-0.012283,0.999999,0.001135,0.000075,0.000199,0.350035,-0.268645,0.698049,0.563944,101.221108,52.343249,178.147827
56517,-7.601429,6.496049,-0.829643,-0.511650,0.472697,0.196480,0.184751,-0.006031,0.029269,-0.076024,0.064957,-0.008239,1.000000,0.000924,-0.000030,0.000146,0.350217,-0.268148,0.698601,0.563384,101.312179,52.322547,178.128962
56518,-7.395729,6.801546,-0.736419,-0.850889,0.642392,0.205470,0.059266,0.011235,0.016889,-0.073963,0.068011,-0.007340,1.000000,0.000296,0.000056,0.000084,0.350204,-0.267959,0.698812,0.563221,101.344955,52.306503,178.127547
56519,-7.363030,6.470318,-0.982588,-0.659962,0.328377,0.010821,-0.158565,0.066689,0.001377,-0.073634,0.064695,-0.009853,1.000000,-0.000793,0.000333,0.000007,0.349749,-0.268365,0.698486,0.563713,101.296230,52.293303,178.180602
56520,-7.573304,5.879043,-1.166026,-0.108942,0.007522,-0.155267,-0.296012,0.128111,-0.011873,-0.075737,0.058778,-0.011699,0.999999,-0.001480,0.000641,-0.000059,0.348932,-0.269227,0.697861,0.564583,101.214580,52.280326,178.291829
56521,-7.963293,5.817337,-0.998426,0.208823,0.143425,0.096304,-0.242460,0.116511,-0.022129,-0.079632,0.058170,-0.010008,0.999999,-0.001212,0.000583,-0.000111,0.348256,-0.270001,0.697352,0.565259,101.157374,52.274877,178.394947
56522,-7.745890,5.903392,-1.050675,-0.000391,0.107095,-0.017725,-0.271779,0.092183,-0.037663,-0.077453,0.059034,-0.010551,0.999999,-0.001359,0.000461,-0.000188,0.347668,-0.270808,0.696693,0.566046,101.066852,52.280563,178.477799
56523,-7.640410,5.419975,-1.263319,0.268694,-0.210244,-0.366442,-0.263615,0.091677,-0.041080,-0.076399,0.054199,-0.012670,0.999999,-0.001318,0.000458,-0.000205,0.347103,-0.271614,0.696053,0.566794,100.982191,52.288670,178.561523
56524,-7.852539,5.337298,-1.259602,0.461745,-0.232413,-0.248771,-0.141152,0.069145,-0.039133,-0.078519,0.053379,-0.012607,1.000000,-0.000706,0.000346,-0.000196,0.346775,-0.272134,0.695721,0.567153,100.950248,52.297861,178.623525
56525,-7.706683,5.393141,-1.267178,0.326711,-0.226986,-0.329734,-0.048455,0.043658,-0.035623,-0.077060,0.053942,-0.012668,1.000000,-0.000242,0.000218,-0.000178,0.346653,-0.272411,0.695614,0.567226,100.953173,52.308190,178.662120
56526,-7.539395,5.351366,-1.292574,0.251500,-0.255717,-0.484146,0.039375,0.035752,-0.018936,-0.075391,0.053523,-0.012902,1.000000,0.000197,0.000179,-0.000095,0.346630,-0.272452,0.695763,0.567037,100.997475,52.309573,178.689761
56527,-7.627147,5.298042,-1.203962,0.362605,-0.174171,-0.456923,0.145404,0.038106,0.005750,-0.076275,0.052987,-0.011987,1.000000,0.000727,0.000191,0.000029,0.346674,-0.272233,0.696252,0.566515,101.101578,52.297207,178.715850
56528,-7.819452,5.703023,-1.101531,0.188062,0.020521,-0.073803,0.229504,0.027772,0.014094,-0.078200,0.057037,-0.010939,0.999999,0.001148,0.000139,0.000070,0.346844,-0.271807,0.696971,0.565732,101.244278,52.280872,178.730173
56529,-7.628801,6.078182,-1.108550,-0.215815,0.110433,0.001231,0.214762,0.031818,0.017244,-0.076295,0.060787,-0.011008,0.999999,0.001074,0.000159,0.000086,0.346971,-0.271410,0.697659,0.564995,101.381786,52.262681,178.748266
56530,-7.662260,6.436409,-0.825422,-0.417647,0.480226,0.207983,0.272094,0.035154,0.005531,-0.076626,0.064373,-0.008153,0.999999,0.001360,0.000176,0.000028,0.347195,-0.270960,0.698497,0.564038,101.555253,52.250353,178.770845
56531,-7.593264,6.459851,-0.742824,-0.460351,0.584200,0.156560,0.187012,0.049673,-0.008353,-0.075932,0.064609,-0.007349,1.000000,0.000935,0.000248,-0.000042,0.347294,-0.270750,0.699101,0.563328,101.693477,52.244407,178.809959
56532,-7.569377,6.316618,-0.801458,-0.373737,0.508172,0.058459,0.085556,0.058140,-0.015280,-0.075691,0.063175,-0.007966,1.000000,0.000428,0.000291,-0.000076,0.347244,-0.270761,0.699424,0.562953,101.779880,52.240926,178.857407
56533,-7.586385,6.280201,-0.985318,-0.367563,0.328760,0.072747,0.030337,0.073871,-0.014033,-0.075863,0.062809,-0.009816,1.000000,0.000152,0.000369,-0.000070,0.347061,-0.270911,0.699622,0.562748,101.846680,52.235248,178.919729
56534,-7.687240,6.120512,-1.155159,-0.211999,0.132980,0.078019,-0.011280,0.089981,-0.007401,-0.076875,0.061207,-0.011520,1.000000,-0.000056,0.000450,-0.000037,0.346746,-0.271151,0.699738,0.562682,101.899502,52.223530,178.994795
56535,-7.825665,6.186697,-1.155856,-0.176089,0.151869,0.227142,0.028236,0.083412,-0.002663,-0.078261,0.061870,-0.011517,1.000000,0.000141,0.000417,-0.000013,0.346495,-0.271292,0.699961,0.562491,101.970207,52.210266,179.063599
56536,-7.718967,6.223296,-0.721788,-0.190474,0.588108,0.109545,-0.013148,0.017529,-0.014883,-0.077186,0.062238,-0.007215,1.000000,-0.000066,0.000088,-0.000074,0.346453,-0.271359,0.699935,0.562517,101.970565,52.211380,179.073853
56537,-7.587827,5.915432,-1.175322,-0.115521,0.077900,-0.120968,-0.110701,0.055520,-0.018976,-0.075876,0.059155,-0.011765,1.000000,-0.000554,0.000278,-0.000095,0.346157,-0.271718,0.699697,0.562822,101.943979,52.210555,179.120284
56538,-8.020407,5.386862,-1.532989,0.492835,-0.392816,-0.050615,-0.086408,0.053662,-0.020151,-0.080203,0.053870,-0.015332,1.000000,-0.000432,0.000268,-0.000101,0.345903,-0.272032,0.699520,0.563046,101.929181,52.210300,179.164543
56539,-7.935631,5.432938,-1.482390,0.414052,-0.329437,-0.096280,0.120787,0.011565,-0.020081,-0.079352,0.054346,-0.014786,1.000000,0.000604,0.000058,-0.000100,0.346078,-0.271871,0.699856,0.562599,102.003623,52.215311,179.170982
56540,-7.723770,5.545670,-1.833237,0.135033,-0.632818,-0.150745,0.290938,0.020258,0.013188,-0.077243,0.055478,-0.018244,0.999999,0.001455,0.000101,0.000066,0.346359,-0.271321,0.700727,0.561606,102.175702,52.200307,179.178186
56541,-7.681887,5.706963,-1.805666,-0.006180,-0.542762,-0.089185,0.573521,0.053218,0.060463,-0.076841,0.057098,-0.017873,0.999996,0.002868,0.000266,0.000302,0.346775,-0.270210,0.702512,0.559652,102.526894,52.155106,179.206595
56542,-7.719451,6.546750,-1.515285,-0.564504,-0.020713,0.406243,0.902198,0.038597,0.113421,-0.077235,0.065491,-0.014843,0.999990,0.004511,0.000193,0.000567,0.347532,-0.268294,0.705251,0.556652,103.045914,52.081634,179.209439
56543,-7.642758,7.573094,-1.078609,-1.295362,0.712857,0.899003,0.979201,0.004589,0.145629,-0.076483,0.075727,-0.010414,0.999988,0.004896,0.000023,0.000728,0.348415,-0.266034,0.708173,0.553464,103.579303,51.995078,179.174179
56544,-7.508183,8.068129,-0.067064,-1.532339,1.868675,0.940539,0.539965,-0.077055,0.120739,-0.075130,0.080637,-0.000482,0.999996,0.002700,-0.000385,0.000604,0.349066,-0.264393,0.709694,0.551891,103.806012,51.933197,179.069135
56545,-7.667687,6.347483,0.573441,0.017963,2.067944,-0.058915,0.087475,-0.158665,0.040666,-0.076694,0.063457,0.005701,1.000000,0.000437,-0.000793,0.000203,0.349628,-0.263603,0.709714,0.551887,103.729991,51.927489,178.908720
56546,-7.857636,5.724068,-1.025405,0.277506,0.341918,-0.047195,-0.449157,-0.078716,-0.087378,-0.078547,0.057252,-0.010414,0.999997,-0.002246,-0.000394,-0.000437,0.349551,-0.264422,0.708221,0.553461,103.424252,51.981545,178.847590
56547,-7.892362,4.978891,-2.336143,0.591932,-1.144865,-0.279844,-0.716375,0.038954,-0.162284,-0.078888,0.049769,-0.023524,0.999993,-0.003582,0.000195,-0.000811,0.348908,-0.266300,0.706089,0.555684,103.062619,52.062181,178.909336
56548,-7.478686,4.794040,-2.644851,0.412260,-1.512108,-0.677462,-0.615632,0.102011,-0.175375,-0.074758,0.047924,-0.026558,0.999995,-0.003078,0.000510,-0.000877,0.348209,-0.268216,0.704321,0.557443,102.804840,52.141804,179.029765
56549,-7.139307,4.689135,-2.389378,0.329734,-1.300603,-1.045332,-0.369555,0.124568,-0.121169,-0.071380,0.046890,-0.023936,0.999998,-0.001848,0.000623,-0.000606,0.347607,-0.269579,0.703347,0.558390,102.696186,52.188962,179.160101
56550,-7.171640,4.418597,-2.338776,0.567922,-1.312281,-1.188208,0.020055,0.177132,-0.006718,-0.071736,0.044191,-0.023320,1.000000,0.000100,0.000886,-0.000034,0.347024,-0.270004,0.703703,0.558099,102.829087,52.165090,179.314046
56551,-7.587138,4.600144,-2.031065,0.749183,-0.946557,-0.790836,0.610733,0.197377,0.113907,-0.075917,0.046020,-0.020095,0.999995,0.003054,0.000987,0.000570,0.346830,-0.269038,0.705902,0.555904,103.295356,52.071180,179.461264
56552,-7.892557,5.761525,-1.890328,0.091706,-0.481059,0.128173,1.033557,0.139989,0.220101,-0.079002,0.057625,-0.018550,0.999986,0.005168,0.000700,0.001100,0.347104,-0.266795,0.709306,0.552471,103.942278,51.924549,179.530752
56553,-7.735982,6.834182,-1.695400,-0.756677,0.048990,0.620444,1.227418,0.029515,0.288374,-0.077461,0.068332,-0.016523,0.999980,0.006137,0.000148,0.001442,0.347829,-0.263664,0.713121,0.548593,104.608185,51.755587,179.483059
56554,-7.416018,7.606317,-1.249137,-1.410283,0.767263,0.762534,1.269470,-0.017472,0.324359,-0.074282,0.076020,-0.012015,0.999979,0.006347,-0.000087,0.001622,0.348663,-0.260188,0.716986,0.544671,105.255551,51.573602,179.381301
56555,-7.390640,8.023927,-0.723382,-1.582618,1.469460,0.904756,1.114938,-0.063935,0.306509,-0.074027,0.080165,-0.006810,0.999983,0.005575,-0.000320,0.001533,0.349499,-0.256912,0.720300,0.541308,105.784541,51.409635,179.240765
56556,-7.621126,7.817984,-0.352103,-1.159540,1.826668,0.894547,0.772723,-0.093083,0.248111,-0.076307,0.078098,-0.003255,0.999992,0.003864,-0.000465,0.001241,0.350147,-0.254355,0.722543,0.539103,106.107114,51.282517,179.087016
56557,-7.884403,7.011306,-0.261112,-0.344065,1.706071,0.596986,0.319300,-0.080921,0.158630,-0.078899,0.070055,-0.002531,0.999998,0.001596,-0.000405,0.000793,0.350414,-0.252949,0.723464,0.538354,106.196680,51.203615,178.967079
56558,-7.924849,5.926069,-0.561506,0.428862,1.099673,0.028227,-0.133617,-0.054279,0.042943,-0.079260,0.059240,-0.005676,1.000000,-0.000668,-0.000271,0.000215,0.350322,-0.252823,0.723064,0.539011,106.067161,51.183614,178.899346
56559,-7.786444,4.814315,-1.080134,1.045040,0.263150,-0.657819,-0.467970,-0.012282,-0.062781,-0.077849,0.048142,-0.010919,0.999997,-0.002340,-0.000061,-0.000314,0.349940,-0.253781,0.721702,0.540632,105.796520,51.215617,178.895930
56560,-7.678890,4.251752,-1.567603,1.276236,-0.387457,-0.996726,-0.620059,0.022400,-0.142897,-0.076760,0.042524,-0.015799,0.999995,-0.003100,0.000112,-0.000714,0.349452,-0.255380,0.719880,0.542620,105.476577,51.285883,178.941621
56561,-7.577010,4.214636,-1.839929,1.169001,-0.682272,-1.053266,-0.681317,0.046641,-0.179401,-0.075737,0.042151,-0.018525,0.999994,-0.003407,0.000233,-0.000897,0.348896,-0.257287,0.717882,0.544721,105.145985,51.373392,179.017991
56562,-7.497015,4.668041,-1.821392,0.772597,-0.564921,-0.846238,-0.669136,0.049732,-0.187414,-0.074931,0.046689,-0.018351,0.999994,-0.003346,0.000249,-0.000937,0.348360,-0.259202,0.715901,0.546758,104.824618,51.464750,179.097581
56563,-7.392801,5.256695,-1.682544,0.283413,-0.300071,-0.596026,-0.582907,0.017721,-0.150658,-0.073890,0.052573,-0.016972,0.999995,-0.002915,0.000089,-0.000753,0.347948,-0.260749,0.714142,0.548582,104.524157,51.541050,179.140220
56564,-7.416471,5.868794,-1.628855,-0.162378,-0.114254,-0.217872,-0.391738,-0.016654,-0.103586,-0.074133,0.058694,-0.016410,0.999998,-0.001959,-0.000083,-0.000518,0.347776,-0.261695,0.712902,0.549853,104.299076,51.595779,179.139918
56565,-7.423817,6.182017,-1.664211,-0.409396,-0.086517,-0.018562,-0.181536,-0.043766,-0.057981,-0.074217,0.061827,-0.016714,1.000000,-0.000908,-0.000219,-0.000290,0.347849,-0.262042,0.712253,0.550482,104.168389,51.629473,179.105699
56566,-7.398370,6.083819,-1.724465,-0.367125,-0.178153,-0.088697,0.002652,-0.033129,-0.018086,-0.073975,0.060845,-0.017256,1.000000,0.000013,-0.000166,-0.000090,0.348015,-0.261951,0.712182,0.550513,104.142934,51.638900,179.071168
56567,-7.405034,5.611661,-1.718591,-0.005132,-0.290211,-0.368400,0.202006,-0.020815,0.010211,-0.074051,0.056130,-0.017137,0.999999,0.001010,-0.000104,0.000051,0.348322,-0.261451,0.712717,0.549863,104.235953,51.631475,179.041999
56568,-7.517742,5.249709,-1.664122,0.351295,-0.318243,-0.505675,0.366117,-0.001479,0.021610,-0.075183,0.052519,-0.016546,0.999998,0.001831,-0.000007,0.000108,0.348741,-0.260672,0.713749,0.548628,104.433490,51.614486,179.026645
56569,-7.726815,5.026694,-1.716440,0.640070,-0.407901,-0.467027,0.487339,-0.008799,0.022140,-0.077273,0.050300,-0.017045,0.999997,0.002437,-0.000044,0.000111,0.349342,-0.259664,0.715100,0.546962,104.696195,51.598833,179.005377
56570,-7.702779,5.135963,-1.696211,0.548083,-0.334536,-0.422496,0.544015,-0.042946,0.018853,-0.077029,0.051398,-0.016839,0.999996,0.002720,-0.000215,0.000094,0.350145,-0.258471,0.716533,0.545135,104.966895,51.589865,178.953603
56571,-7.580241,5.766031,-1.697026,-0.002680,-0.142228,-0.139694,0.316076,-0.042330,-0.011631,-0.075795,0.057691,-0.016895,0.999999,0.001580,-0.000212,-0.000058,0.350733,-0.257789,0.717307,0.544061,105.114247,51.597995,178.910350
56572,-7.526312,6.045892,-1.558951,-0.218145,0.078881,-0.036456,0.054981,0.031608,-0.055626,-0.075249,0.060484,-0.015561,1.000000,0.000275,0.000158,-0.000278,0.350836,-0.257918,0.717441,0.543756,105.170952,51.618838,178.942693
56573,-7.700994,6.316945,-1.365607,-0.274573,0.343749,0.231238,0.000446,0.072481,-0.078116,-0.076990,0.063200,-0.013628,1.000000,0.000002,0.000362,-0.000391,0.350786,-0.258340,0.717471,0.543549,105.230246,51.646555,179.017803
56574,-7.610601,6.798487,-1.121441,-0.644473,0.712913,0.408600,-0.096001,0.012736,-0.077466,-0.076080,0.068009,-0.011242,1.000000,-0.000480,0.000064,-0.000387,0.350823,-0.258762,0.717133,0.543770,105.191645,51.682544,179.038902
56575,-7.418051,6.666121,-0.957157,-0.635058,0.829516,0.151718,-0.161452,0.008089,-0.073798,-0.074156,0.066681,-0.009622,1.000000,-0.000807,0.000040,-0.000369,0.350782,-0.259277,0.716614,0.544234,105.112381,51.717556,179.055585
56576,-7.537853,6.245205,-0.822030,-0.221890,0.833104,-0.027278,-0.187754,-0.003405,-0.084430,-0.075352,0.062476,-0.008280,0.999999,-0.000939,-0.000017,-0.000422,0.350776,-0.259841,0.715988,0.544794,105.010857,51.759731,179.063666
56577,-7.554194,6.044237,-1.400905,-0.195968,0.205401,-0.041272,-0.300703,-0.046385,-0.084044,-0.075513,0.060453,-0.014117,0.999999,-0.001504,-0.000232,-0.000420,0.350776,-0.260488,0.714979,0.545808,104.815275,51.808491,179.033833
56578,-7.341458,5.412321,-1.848879,0.044770,-0.414874,-0.515677,-0.383351,-0.010860,-0.089703,-0.073389,0.054121,-0.018597,0.999998,-0.001917,-0.000054,-0.000449,0.350555,-0.261392,0.713796,0.547065,104.597033,51.854668,179.036018
56579,-7.535635,5.468862,-1.977272,0.088565,-0.542040,-0.309942,-0.223130,0.013004,-0.074369,-0.075337,0.054695,-0.019829,0.999999,-0.001116,0.000065,-0.000372,0.350416,-0.262029,0.713113,0.547739,104.485613,51.889397,179.056707
56580,-7.523239,6.109591,-2.010568,-0.415803,-0.421289,0.067505,-0.291621,-0.018510,-0.048150,-0.075216,0.061085,-0.020202,0.999999,-0.001458,-0.000093,-0.000241,0.350227,-0.262602,0.712220,0.548747,104.307048,51.913633,179.042128
56581,-7.653477,5.897871,-1.942714,-0.162763,-0.431080,0.032229,-0.273444,-0.012251,-0.018450,-0.076528,0.058959,-0.019512,0.999999,-0.001367,-0.000061,-0.000092,0.349958,-0.263058,0.711426,0.549730,104.138633,51.920931,179.027021
56582,-7.522244,6.005924,-1.693268,-0.274671,-0.180767,-0.044664,-0.275396,-0.052223,-0.010338,-0.075215,0.060040,-0.017035,0.999999,-0.001377,-0.000261,-0.000052,0.349806,-0.263376,0.710564,0.550789,103.938399,51.928995,178.973417
56583,-7.451517,5.595061,-1.818935,-0.031707,-0.422943,-0.328046,-0.217456,0.017927,0.007200,-0.074519,0.055928,-0.018243,0.999999,-0.001087,0.000090,0.000036,0.349432,-0.263725,0.710008,0.551576,103.818931,51.917823,178.979740
56584,-7.639415,5.664233,-1.712438,0.056401,-0.314908,-0.154826,-0.087560,-0.024639,0.033797,-0.076402,0.056622,-0.017159,1.000000,-0.000438,-0.000123,0.000169,0.349305,-0.263632,0.709768,0.552008,103.738109,51.897227,178.941092
56585,-7.785425,5.594345,-1.116496,0.325683,0.237210,-0.169360,0.115527,-0.093882,0.061298,-0.077866,0.055926,-0.011169,1.000000,0.000578,-0.000469,0.000306,0.349617,-0.262899,0.710006,0.551855,103.720758,51.871159,178.834718
56586,-7.880076,6.015705,-1.056403,0.081690,0.397140,0.149034,0.203855,-0.189007,0.081722,-0.078815,0.060136,-0.010577,0.999999,0.001019,-0.000945,0.000409,0.350325,-0.261673,0.710345,0.551552,103.682202,51.846257,178.637546
56587,-7.419130,5.978352,-1.402368,-0.241690,0.049201,-0.185125,-0.035750,-0.171230,0.092875,-0.074207,0.059747,-0.014098,1.000000,-0.000179,-0.000856,0.000464,0.350626,-0.260879,0.710070,0.552091,103.518207,51.812876,178.454813
56588,-7.543655,6.359287,-1.386331,-0.444559,0.144076,0.139738,-0.000350,-0.154650,0.087920,-0.075454,0.063560,-0.013922,1.000000,-0.000002,-0.000773,0.000440,0.350927,-0.260082,0.709913,0.552477,103.386501,51.779342,178.287680
56589,-7.564963,7.078770,-0.884439,-0.865294,0.793835,0.518863,-0.165158,-0.117840,0.073232,-0.075670,0.070753,-0.008947,0.999999,-0.000826,-0.000589,0.000366,0.350924,-0.259731,0.709347,0.553370,103.189996,51.749269,178.157791
56590,-7.552143,6.940820,-0.773759,-0.743144,0.831646,0.412990,-0.529418,-0.110727,0.062010,-0.075539,0.069364,-0.007963,0.999996,-0.002647,-0.000554,0.000310,0.350451,-0.260075,0.707766,0.555530,102.790816,51.723674,178.036197
56591,-7.406728,6.122831,-1.079722,-0.276621,0.291200,-0.150751,-0.650202,-0.017931,0.028363,-0.074075,0.061182,-0.011003,0.999995,-0.003251,-0.000090,0.000142,0.349584,-0.261008,0.705964,0.557926,102.394931,51.705237,178.006265
56592,-7.495711,5.654808,-1.366729,0.076256,-0.136520,-0.325539,-0.495557,0.048332,-0.003259,-0.074960,0.056515,-0.013789,0.999997,-0.002478,0.000242,-0.000016,0.348769,-0.261961,0.704660,0.559635,102.138715,51.695857,178.041859
56593,-7.509665,5.080311,-1.904231,0.418314,-0.818063,-0.593876,-0.585591,0.154365,-0.015261,-0.075108,0.050753,-0.019133,0.999995,-0.002928,0.000772,-0.000076,0.347494,-0.263412,0.703270,0.561492,101.908900,51.681118,178.176384
56594,-8.163896,3.597410,-1.905113,1.957816,-1.186801,-0.982146,-0.208196,0.056180,0.024949,-0.081649,0.035944,-0.019066,0.999999,-0.001041,0.000281,0.000125,0.346946,-0.263783,0.702817,0.562224,101.818704,51.654910,178.213618
56595,-8.054450,4.229944,-0.959234,1.595084,-0.117471,-0.805545,0.563604,-0.167826,0.091022,-0.080556,0.042290,-0.009541,0.999996,0.002818,-0.000839,0.000455,0.348016,-0.261958,0.704230,0.560645,102.003096,51.618851,178.036755
56596,-7.482032,5.947881,-0.413404,0.053286,0.846314,-0.283269,0.859336,-0.253551,0.121104,-0.074851,0.059451,-0.003973,0.999990,0.004297,-0.001268,0.000606,0.349687,-0.259265,0.706350,0.558185,102.291143,51.576468,177.776109
56597,-7.278688,7.268908,-0.243915,-1.021071,1.363189,0.334966,0.611753,-0.208372,0.128119,-0.072831,0.072650,-0.002293,0.999995,0.003059,-0.001042,0.000641,0.350852,-0.257105,0.707858,0.556540,102.468864,51.525529,177.555291
56598,-7.497411,7.402790,-0.179477,-0.955727,1.472238,0.577873,0.363636,-0.141641,0.111258,-0.075014,0.073989,-0.001713,0.999998,0.001818,-0.000708,0.000556,0.351505,-0.255620,0.708764,0.555658,102.553478,51.475633,177.397184
56599,-7.340437,7.593760,-0.609796,-1.279948,1.106940,0.630275,-0.137827,-0.055699,0.053113,-0.073423,0.075914,-0.006171,1.000000,-0.000689,-0.000278,0.000266,0.351375,-0.255465,0.708353,0.556336,102.421042,51.447996,177.328640
56600,-7.289073,6.522343,-1.123285,-0.613839,0.320913,0.008385,-0.484767,0.057938,-0.012922,-0.072890,0.065201,-0.011370,0.999997,-0.002424,0.000290,-0.000065,0.350580,-0.256464,0.707088,0.557985,102.178905,51.442873,177.374499
56601,-7.378544,6.397917,-1.471808,-0.539387,-0.078067,0.048620,-0.587311,0.141330,-0.055988,-0.073778,0.063956,-0.014854,0.999995,-0.002937,0.000707,-0.000280,0.349477,-0.258030,0.705624,0.559805,101.944139,51.452460,177.504403
56602,-7.339982,6.236617,-1.950959,-0.539811,-0.617128,-0.019600,-0.861819,0.156737,-0.057944,-0.073397,0.062303,-0.019721,0.999990,-0.004309,0.000784,-0.000290,0.347966,-0.260117,0.703405,0.562566,101.562378,51.461326,177.647740
56603,-7.445856,5.169668,-2.217530,0.285916,-1.165988,-0.558375,-0.817543,0.144805,-0.040859,-0.074464,0.051621,-0.022332,0.999991,-0.004088,0.000724,-0.000204,0.346500,-0.262034,0.701301,0.565202,101.195905,51.462986,177.777881
56604,-7.658829,4.447067,-1.881384,1.036103,-1.027452,-0.877112,-0.341929,0.096854,-0.021861,-0.076593,0.044447,-0.018853,0.999998,-0.001710,0.000484,-0.000109,0.345767,-0.262915,0.700474,0.566266,101.064349,51.458885,177.860437
56605,-7.719809,4.096310,-2.068818,1.308928,-1.291670,-1.022152,0.060636,0.031243,0.025577,-0.077207,0.040959,-0.020664,1.000000,0.000303,0.000156,0.000128,0.345660,-0.262755,0.700735,0.566082,101.111662,51.436115,177.876322
56606,-7.775250,3.890507,-1.917574,1.531292,-1.180685,-1.121960,0.570491,-0.063439,0.099709,-0.077766,0.038921,-0.019089,0.999996,0.002852,-0.000317,0.000499,0.346342,-0.261180,0.702370,0.564365,101.373310,51.381853,177.792920
56607,-7.587931,4.949259,-1.478921,0.702602,-0.479926,-0.672943,1.137122,-0.177424,0.168995,-0.075908,0.049512,-0.014575,0.999983,0.005686,-0.000887,0.000845,0.347962,-0.258058,0.705483,0.560912,101.870006,51.302589,177.594460
56608,-7.642130,6.363496,-0.624553,-0.139854,0.739227,0.123098,1.433446,-0.238583,0.196167,-0.076477,0.063603,-0.005881,0.999973,0.007167,-0.001193,0.000981,0.350088,-0.254137,0.709325,0.556517,102.488723,51.216234,177.334552
56609,-7.672460,7.873075,-0.144195,-1.119403,1.650802,0.999068,1.207596,-0.262322,0.181042,-0.076794,0.078668,-0.001068,0.999981,0.006038,-0.001312,0.000905,0.352038,-0.250591,0.712444,0.552899,102.963964,51.143358,177.056277
56610,-7.459491,8.544882,-0.225286,-1.743223,1.802418,1.251766,0.516246,-0.196678,0.150978,-0.074657,0.085398,-0.002106,0.999996,0.002581,-0.000983,0.000755,0.352962,-0.248541,0.713712,0.551598,103.092719,51.079224,176.841693
56611,-7.333665,8.281913,-0.193265,-1.603412,1.772712,0.989934,-0.043851,-0.100923,0.093602,-0.073374,0.082784,-0.001988,1.000000,-0.000219,-0.000505,0.000468,0.353005,-0.247951,0.713531,0.552070,102.976862,51.035239,176.724846
56612,-7.264583,7.851228,-0.428663,-1.379717,1.400504,0.710356,-0.679499,0.019393,0.020413,-0.072654,0.078490,-0.004546,0.999994,-0.003397,0.000097,0.000102,0.352030,-0.249072,0.711709,0.554534,102.590549,51.016200,176.729251
56613,-7.329688,6.504540,-1.179565,-0.510173,0.263350,0.040980,-1.180752,0.164353,-0.032760,-0.073296,0.064986,-0.012119,0.999982,-0.005904,0.000822,-0.000164,0.350056,-0.251663,0.708673,0.558489,102.026666,51.009623,176.873973
56614,-7.653494,5.429480,-1.381316,0.451342,-0.267376,-0.342319,-1.122235,0.223251,-0.055568,-0.076535,0.054238,-0.014032,0.999984,-0.005611,0.001116,-0.000278,0.347996,-0.254384,0.705849,0.562107,101.539679,51.009289,177.074804
56615,-7.762512,4.993103,-1.642650,0.795567,-0.670383,-0.495847,-1.009053,0.200617,-0.049574,-0.077629,0.049867,-0.016600,0.999987,-0.005045,0.001003,-0.000248,0.346135,-0.256820,0.703292,0.565345,101.101786,51.009649,177.255060
56616,-7.806100,3.950163,-1.825338,1.576883,-1.114277,-1.086712,-0.642612,0.167750,-0.039889,-0.078068,0.039458,-0.018315,0.999994,-0.003213,0.000839,-0.000199,0.344825,-0.258486,0.701713,0.567345,100.849085,51.008336,177.403580
56617,-7.679942,3.956206,-1.926776,1.476794,-1.213585,-1.170244,-0.039997,0.076367,-0.030291,-0.076801,0.039570,-0.019246,1.000000,-0.000200,0.000382,-0.000151,0.344586,-0.258823,0.701694,0.567359,100.877476,51.012168,177.469401
56618,-7.509942,4.505023,-1.316354,1.070947,-0.478355,-1.034792,0.518629,-0.007363,-0.027949,-0.075093,0.045095,-0.013049,0.999997,0.002593,-0.000037,-0.000140,0.345355,-0.257947,0.703115,0.565529,101.166582,51.023230,177.459214
56619,-7.627776,5.503583,-0.942154,0.464481,0.143705,-0.372164,0.872112,-0.049931,-0.021973,-0.076269,0.055085,-0.009200,0.999990,0.004361,-0.000250,-0.000110,0.346709,-0.256319,0.705462,0.562509,101.628794,51.036305,177.410828
56620,-7.384834,6.458663,-1.055281,-0.426733,0.307022,0.040598,0.730746,-0.125314,0.011873,-0.073846,0.064620,-0.010363,0.999993,0.003654,-0.000627,0.000059,0.348048,-0.254601,0.707310,0.560137,101.952096,51.039313,177.288508
56621,-6.949062,7.059348,-0.603763,-1.051631,0.934839,0.011186,0.518859,-0.149467,0.053440,-0.069505,0.070590,-0.005906,0.999996,0.002594,-0.000747,0.000267,0.349081,-0.253034,0.708571,0.558609,102.131996,51.022370,177.137337
56622,-6.789182,7.421699,-0.566912,-1.407826,1.075243,0.104866,0.033735,-0.079525,0.070262,-0.067916,0.074194,-0.005684,1.000000,0.000169,-0.000398,0.000351,0.349205,-0.252446,0.708617,0.558739,102.079533,50.987428,177.044804
56623,-7.099651,6.962889,-0.649855,-0.882817,0.852538,0.076848,-0.456373,0.014092,0.054450,-0.071016,0.069594,-0.006652,0.999997,-0.002282,0.000070,0.000272,0.348421,-0.253034,0.707435,0.560457,101.813906,50.950362,177.039278
56624,-7.438957,6.238039,-1.020124,-0.202240,0.269368,-0.056752,-0.719350,0.083054,0.032190,-0.074404,0.062331,-0.010395,0.999993,-0.003597,0.000415,0.000161,0.347119,-0.254345,0.705600,0.562980,101.447517,50.917201,177.098642
56625,-7.562868,5.885488,-1.793250,-0.011781,-0.611404,-0.082447,-0.832731,0.109470,0.040676,-0.075651,0.058764,-0.018136,0.999991,-0.004164,0.000547,0.000203,0.345551,-0.255898,0.703493,0.565869,101.034665,50.877182,177.181268
56626,-7.722523,5.345541,-1.901104,0.484441,-0.877481,-0.282647,-0.499527,0.128762,0.078497,-0.077258,0.053377,-0.019095,0.999997,-0.002498,0.000644,0.000392,0.344230,-0.256788,0.702401,0.567625,100.820310,50.813538,177.274066
56627,-7.901148,5.495897,-1.466183,0.579837,-0.436372,-0.104130,-0.060652,0.063495,0.090849,-0.079041,0.054919,-0.014653,1.000000,-0.000303,0.000317,0.000454,0.343666,-0.256699,0.702457,0.567937,100.811612,50.750614,177.307503
56628,-7.924353,5.473141,-1.063137,0.697901,-0.047594,-0.148756,0.143489,-0.013618,0.071085,-0.079262,0.054711,-0.010598,1.000000,0.000717,-0.000068,0.000355,0.343691,-0.256109,0.702932,0.567602,100.868504,50.707071,177.275201
56629,-8.072144,5.884908,-0.935536,0.512334,0.169272,0.206082,0.256279,-0.120666,0.038049,-0.080727,0.058846,-0.009329,0.999999,0.001281,-0.000603,0.000190,0.344330,-0.255137,0.703502,0.566945,100.921604,50.693769,177.153879
56630,-7.691565,6.867408,-1.336135,-0.541846,0.015266,0.570612,0.192949,-0.195188,0.020303,-0.076910,0.068679,-0.013370,0.999999,0.000965,-0.000976,0.000102,0.345199,-0.254122,0.703739,0.566579,100.888751,50.698180,176.968777
56631,-7.473671,6.854885,-1.009981,-0.606979,0.337288,0.355060,0.212738,-0.157342,-0.002716,-0.074728,0.068561,-0.010086,0.999999,0.001064,-0.000787,-0.000014,0.346026,-0.253263,0.704068,0.566050,100.897068,50.711782,176.821831
56632,-7.203149,7.390453,-1.470879,-1.273591,0.016312,0.533583,-0.078629,-0.116211,-0.011173,-0.072019,0.073903,-0.014780,1.000000,-0.000393,-0.000581,-0.000056,0.346362,-0.253052,0.703630,0.566483,100.766919,50.725376,176.712186
56633,-7.205867,6.039966,-1.337633,-0.235654,-0.180005,-0.320216,-0.190714,-0.042902,0.011322,-0.072059,0.060383,-0.013449,1.000000,-0.000954,-0.000215,0.000057,0.346234,-0.253166,0.703031,0.567253,100.620904,50.718583,176.664528
56634,-7.381648,6.080179,-0.794529,-0.044466,0.340704,-0.222561,-0.022471,-0.031764,0.031133,-0.073825,0.060789,-0.007964,1.000000,-0.000112,-0.000159,0.000156,0.346222,-0.252946,0.702952,0.567457,100.575221,50.698769,176.622580
56635,-7.468344,5.796311,-0.863294,0.212859,0.199142,-0.324079,-0.127960,0.006843,0.045670,-0.074697,0.057941,-0.008667,1.000000,-0.000640,0.000034,0.000228,0.345902,-0.252971,0.702660,0.568002,100.495058,50.667334,176.613537
56636,-7.546822,5.983371,-1.168948,0.066367,-0.066541,-0.111509,-0.058589,-0.021346,0.046913,-0.075481,0.059813,-0.011715,1.000000,-0.000293,-0.000107,0.000235,0.345763,-0.252789,0.702516,0.568345,100.434352,50.637745,176.578676
56637,-7.475732,6.283903,-1.384296,-0.241899,-0.210129,0.045690,-0.007314,-0.010074,0.037147,-0.074768,0.062825,-0.013849,1.000000,-0.000037,-0.000050,0.000186,0.345679,-0.252588,0.702527,0.568473,100.412863,50.612855,176.556107
56638,-7.478932,6.295699,-0.953316,-0.159469,0.211392,0.006118,0.061645,-0.014033,0.023941,-0.074796,0.062951,-0.009519,1.000000,0.000308,-0.000070,0.000120,0.345732,-0.252300,0.702707,0.568346,100.428737,50.595531,176.531508
56639,-7.421817,6.257704,-0.988931,-0.171862,0.169210,-0.057584,-0.008122,-0.034127,0.018201,-0.074222,0.062570,-0.009905,1.000000,-0.000041,-0.000171,0.000091,0.345785,-0.252098,0.702650,0.568474,100.392705,50.583804,176.490703
56640,-7.371934,5.932502,-1.015704,0.036341,0.066588,-0.296076,-0.057275,-0.015026,0.022095,-0.073725,0.059314,-0.010180,1.000000,-0.000286,-0.000075,0.000110,0.345698,-0.252019,0.702491,0.568759,100.340734,50.567634,176.465745
56641,-7.447749,5.906876,-1.053159,0.098806,0.017465,-0.249256,-0.016608,-0.001258,0.025985,-0.074485,0.059058,-0.010537,1.000000,-0.000083,-0.000006,0.000130,0.345602,-0.251898,0.702476,0.568888,100.321445,50.548106,176.452898
56642,-7.453452,6.208446,-1.257857,-0.160257,-0.117496,-0.033042,-0.058062,0.002719,0.028871,-0.074544,0.062070,-0.012596,1.000000,-0.000290,0.000014,0.000144,0.345431,-0.251846,0.702351,0.569169,100.279669,50.526058,176.442401
56643,-7.475189,6.158925,-1.349767,-0.123935,-0.224178,-0.036847,-0.077486,0.007057,0.034944,-0.074763,0.061571,-0.013519,1.000000,-0.000387,0.000035,0.000175,0.345204,-0.251823,0.702189,0.569518,100.230127,50.500621,176.435543
56644,-7.583142,6.073151,-0.973064,0.086968,0.115723,-0.049845,0.015042,-0.007957,0.026944,-0.075839,0.060722,-0.009729,1.000000,0.000075,-0.000040,0.000135,0.345168,-0.251622,0.702252,0.569551,100.223522,50.480945,176.416136
56645,-7.516405,5.873063,-0.915592,0.208235,0.128276,-0.233142,0.006018,-0.009591,0.019440,-0.075169,0.058724,-0.009158,1.000000,0.000030,-0.000048,0.000097,0.345149,-0.251462,0.702279,0.569600,100.212385,50.465939,176.397035
56646,-7.565767,5.858616,-1.193481,0.197597,-0.148342,-0.172793,0.012368,0.001271,0.013930,-0.075662,0.058582,-0.011931,1.000000,0.000062,0.000006,0.000070,0.345115,-0.251339,0.702332,0.569608,100.212054,50.452802,176.387945
56647,-7.573833,6.202630,-1.368629,-0.086932,-0.242039,0.068738,0.015754,-0.005640,0.007883,-0.075740,0.062024,-0.013684,1.000000,0.000079,-0.000028,0.000039,0.345127,-0.251213,0.702379,0.569599,100.210630,50.443909,176.374199
56648,-7.448849,6.411448,-1.203611,-0.288241,-0.029989,0.084621,0.003179,-0.003972,-0.000471,-0.074488,0.064115,-0.012037,1.000000,0.000016,-0.000020,-0.000002,0.345140,-0.251140,0.702380,0.569622,100.203178,50.439171,176.362588
56649,-7.385235,6.357469,-0.976879,-0.242974,0.179307,-0.023805,-0.033388,-0.004335,-0.005335,-0.073850,0.063575,-0.009781,1.000000,-0.000167,-0.000022,-0.000027,0.345123,-0.251149,0.702273,0.569760,100.176118,50.437597,176.352109
56650,-7.347455,6.115415,-0.881313,-0.067603,0.215834,-0.215347,-0.064262,0.003557,-0.010643,-0.073471,0.061155,-0.008831,1.000000,-0.000321,0.000018,-0.000053,0.345054,-0.251251,0.702082,0.569993,100.136413,50.437959,176.348915
56651,-7.478722,5.905585,-1.134866,0.122073,-0.086949,-0.217237,-0.064463,0.019026,-0.008105,-0.074786,0.059055,-0.011361,1.000000,-0.000322,0.000095,-0.000041,0.344924,-0.251390,0.701923,0.570206,100.107836,50.435587,176.359566
56652,-7.586006,6.106791,-1.155032,0.036304,-0.068252,-0.006133,-0.030020,0.013966,-0.010466,-0.075858,0.061070,-0.011554,1.000000,-0.000150,0.000070,-0.000052,0.344861,-0.251462,0.701847,0.570306,100.094794,50.434766,176.365513
56653,-7.488465,6.200194,-1.038264,-0.072919,0.069635,-0.035810,0.012475,-0.005682,-0.019543,-0.074878,0.062010,-0.010381,1.000000,0.000062,-0.000028,-0.000098,0.344947,-0.251438,0.701850,0.570260,100.094821,50.441330,176.356086
56654,-7.423631,6.281369,-0.926045,-0.153747,0.199396,-0.047440,0.009971,-0.011645,-0.021096,-0.074229,0.062822,-0.009262,1.000000,0.000050,-0.000058,-0.000105,0.345055,-0.251404,0.701832,0.570232,100.088779,50.449048,176.341063
56655,-7.358099,6.137091,-0.764644,-0.057643,0.326421,-0.206423,0.005625,-0.014697,-0.030781,-0.073571,0.061382,-0.007650,1.000000,0.000028,-0.000073,-0.000154,0.345196,-0.251405,0.701786,0.570203,100.080081,50.462855,176.325413
56656,-7.391955,5.640500,-0.573342,0.369591,0.400853,-0.512812,0.054295,-0.020669,-0.046783,-0.073906,0.056424,-0.005726,1.000000,0.000271,-0.000103,-0.000234,0.345464,-0.251360,0.701846,0.569987,100.096123,50.485958,176.306384
56657,-7.554635,5.865543,-0.843215,0.246909,0.184872,-0.216179,0.121323,-0.045399,-0.062795,-0.075526,0.058684,-0.008414,1.000000,0.000607,-0.000227,-0.000314,0.345950,-0.251186,0.702036,0.569535,100.136603,50.520919,176.268569
56658,-7.361257,6.740095,-1.958524,-0.756001,-0.699107,0.306231,-0.132221,-0.017455,-0.044606,-0.073596,0.067404,-0.019636,1.000000,-0.000661,-0.000087,-0.000223,0.345965,-0.251463,0.701572,0.569975,100.047454,50.542285,176.251854
56659,-7.526470,6.500625,-0.767967,-0.240152,0.394179,0.151378,0.016036,-0.032096,-0.056029,-0.075245,0.065028,-0.007687,1.000000,0.000080,-0.000160,-0.000280,0.346252,-0.251486,0.701493,0.569887,100.035799,50.572068,176.224674
56660,-7.457890,6.532456,-0.291493,-0.218942,0.864319,0.065727,-0.048182,-0.058880,-0.073737,-0.074554,0.065351,-0.002953,1.000000,-0.000241,-0.000294,-0.000369,0.346602,-0.251602,0.701162,0.570030,99.970475,50.614215,176.175897
56661,-7.379784,6.033289,-1.504239,-0.141666,-0.433790,-0.173379,-0.204195,0.020190,-0.037638,-0.073788,0.060331,-0.015097,0.999999,-0.001021,0.000101,-0.000188,0.346377,-0.252091,0.700569,0.570680,99.866253,50.628421,176.192231
56662,-7.794861,5.692279,-0.933263,0.487425,0.026342,-0.127926,0.078751,0.009910,-0.026470,-0.077942,0.056937,-0.009306,1.000000,0.000394,0.000050,-0.000132,0.346511,-0.252017,0.700779,0.570375,99.914985,50.636954,176.197054
56663,-7.812259,5.178530,-0.249714,1.017304,0.587645,-0.510502,0.372610,-0.045931,-0.047049,-0.078110,0.051808,-0.002419,0.999998,0.001863,-0.000230,-0.000235,0.347270,-0.251350,0.701703,0.569069,100.096929,50.663036,176.156070
56664,-7.750554,5.016468,-0.330941,1.081276,0.495245,-0.651297,0.665173,-0.106210,-0.075424,-0.077485,0.050205,-0.003184,0.999994,0.003326,-0.000531,-0.000377,0.348685,-0.250099,0.703311,0.566765,100.407538,50.711084,176.065524
56665,-7.875174,5.623681,-0.782570,0.609495,0.226948,-0.125923,0.924485,-0.123893,-0.082506,-0.078724,0.056305,-0.007614,0.999989,0.004622,-0.000619,-0.000413,0.350501,-0.248369,0.705606,0.563544,100.856809,50.765657,175.961467
56666,-7.413251,8.105390,-2.074751,-1.816018,-0.370142,1.211070,0.420370,-0.112989,-0.069003,-0.074093,0.081123,-0.020619,0.999998,0.002102,-0.000565,-0.000345,0.351610,-0.247498,0.706504,0.562109,101.022148,50.811384,175.864378
56667,-7.259396,7.611728,-0.690359,-1.249514,0.880237,0.616967,0.324385,-0.075831,-0.079244,-0.072561,0.076157,-0.006808,0.999999,0.001622,-0.000379,-0.000396,0.352497,-0.246940,0.707185,0.560942,101.160582,50.859352,175.803020
56668,-6.855953,7.047013,0.256008,-0.879577,1.690017,-0.163844,0.203560,-0.052194,-0.120510,-0.068518,0.070509,0.002614,0.999999,0.001018,-0.000261,-0.000603,0.353265,-0.246802,0.707514,0.560104,101.250842,50.927539,175.769402
56669,-6.956655,5.465237,-1.057454,0.062007,0.030936,-0.903296,0.075884,0.101029,-0.104174,-0.069543,0.054693,-0.010519,1.000000,0.000379,0.000505,-0.000521,0.353288,-0.247265,0.707778,0.559552,101.372864,50.969785,175.870353
56670,-7.719700,5.339554,-1.824723,0.460041,-0.754556,-0.291494,0.311927,0.191961,-0.078983,-0.077193,0.053454,-0.018090,0.999998,0.001560,0.000960,-0.000395,0.353210,-0.247471,0.708891,0.558099,101.688986,50.986833,176.047408
56671,-7.848859,6.039611,-1.480198,0.096233,-0.210155,0.198250,0.502935,0.173971,-0.068442,-0.078481,0.060460,-0.014582,0.999996,0.002515,0.000870,-0.000342,0.353401,-0.247256,0.710516,0.556004,102.101623,50.999782,176.207404
56672,-7.529868,6.804329,-1.222794,-0.614130,0.292130,0.386842,0.437252,0.122686,-0.057838,-0.075286,0.068092,-0.012033,0.999997,0.002186,0.000613,-0.000289,0.353660,-0.246970,0.711875,0.554224,102.438886,51.011923,176.319148
56673,-7.312697,6.903634,-1.418649,-0.869310,0.170042,0.304803,0.227524,0.104273,-0.058357,-0.073114,0.069074,-0.014070,0.999999,0.001138,0.000521,-0.000292,0.353727,-0.247009,0.712619,0.553207,102.644290,51.026766,176.415493
56674,-7.434394,5.715086,-1.172358,0.146539,0.106376,-0.364193,0.140630,0.103454,-0.056145,-0.074334,0.057180,-0.011645,1.000000,0.000703,0.000517,-0.000281,0.353683,-0.247187,0.713122,0.552507,102.798381,51.039842,176.510026
56675,-7.531283,5.260149,-1.767986,0.407272,-0.572847,-0.484178,0.239639,0.131667,-0.046050,-0.075312,0.052640,-0.017567,0.999999,0.001198,0.000658,-0.000230,0.353633,-0.247236,0.713960,0.551433,103.027876,51.043911,176.628394
56676,-7.860748,6.194723,-1.895910,-0.108525,-0.430552,0.363914,0.276472,0.142018,-0.023254,-0.078614,0.061982,-0.018818,0.999999,0.001382,0.000710,-0.000116,0.353526,-0.247163,0.714944,0.550259,103.281015,51.033132,176.750487
56677,-7.536686,6.466131,-1.460311,-0.408790,0.098068,0.215684,0.198002,0.105329,-0.014032,-0.075370,0.064681,-0.014499,0.999999,0.000990,0.000527,-0.000070,0.353429,-0.247097,0.715659,0.549421,103.463251,51.022247,176.838779
56678,-7.280414,6.092117,-1.486567,-0.295325,-0.005848,-0.208473,0.041634,0.111008,-0.011319,-0.072809,0.060928,-0.014813,1.000000,0.000208,0.000555,-0.000057,0.353109,-0.247311,0.715954,0.549146,103.558180,51.008485,176.930717
56679,-7.873812,5.517118,-1.528753,0.497396,-0.213993,-0.092637,0.059427,0.103951,-0.002746,-0.078745,0.055177,-0.015230,1.000000,0.000297,0.000520,-0.000014,0.352814,-0.247446,0.716299,0.548825,103.658069,50.991272,177.015247
56680,-8.139178,5.704942,-1.471053,0.542059,-0.105881,0.219836,0.088659,0.061214,0.010489,-0.081399,0.057052,-0.014660,1.000000,0.000443,0.000306,0.000052,0.352671,-0.247361,0.716664,0.548478,103.742348,50.971938,177.058299
56681,-7.902498,5.626178,-1.180434,0.522420,0.167241,-0.055850,0.122806,0.011149,0.001608,-0.079026,0.056268,-0.011765,1.000000,0.000614,0.000056,0.000008,0.352775,-0.247114,0.717024,0.548052,103.813980,50.964808,177.059743
56682,-7.916499,5.931530,-1.281272,0.282646,0.162168,0.156739,0.147337,0.000295,-0.005404,-0.079163,0.059327,-0.012769,1.000000,0.000737,0.000001,-0.000027,0.352966,-0.246817,0.717419,0.547546,103.892108,50.962695,177.052441
56683,-7.895543,6.156877,-1.115560,0.141532,0.391329,0.252999,0.121988,-0.031779,-0.020655,-0.078947,0.061584,-0.011131,1.000000,0.000610,-0.000159,-0.000103,0.353283,-0.246534,0.717673,0.547136,103.937585,50.973859,177.020819
56684,-7.632139,6.878445,-1.008525,-0.535966,0.706813,0.472876,0.039102,-0.044356,-0.049036,-0.076302,0.068805,-0.010089,1.000000,0.000196,-0.000222,-0.000245,0.353620,-0.246462,0.717640,0.546993,103.930870,51.002238,176.983638
56685,-7.244762,6.950644,-0.945238,-0.824477,0.794855,0.206291,-0.150718,-0.027559,-0.075180,-0.072420,0.069527,-0.009515,1.000000,-0.000754,-0.000138,-0.000376,0.353736,-0.246868,0.717088,0.547460,103.832206,51.043139,176.967616
56686,-7.303895,6.876752,-1.346069,-0.836505,0.371571,0.267524,-0.319486,0.008492,-0.086757,-0.073010,0.068778,-0.013567,0.999999,-0.001597,0.000042,-0.000434,0.353543,-0.247710,0.716119,0.548472,103.662340,51.085257,176.985196
56687,-7.318182,6.152260,-1.554682,-0.347282,-0.051802,-0.132822,-0.456784,0.034541,-0.093129,-0.073156,0.061521,-0.015675,0.999997,-0.002284,0.000173,-0.000466,0.353105,-0.248890,0.714811,0.549924,103.433845,51.127761,177.027694
56688,-7.410275,5.541089,-1.625603,0.141250,-0.311368,-0.424318,-0.412162,0.037027,-0.096284,-0.074079,0.055413,-0.016357,0.999998,-0.002061,0.000185,-0.000481,0.352719,-0.250004,0.713622,0.551209,103.232093,51.171366,177.072108
56689,-7.507098,5.061727,-1.763641,0.522030,-0.593528,-0.622300,-0.357312,0.027290,-0.075482,-0.075054,0.050614,-0.017717,0.999998,-0.001787,0.000136,-0.000377,0.352378,-0.250924,0.712591,0.552341,103.052426,51.205157,177.104077
56690,-7.665903,5.077334,-1.748531,0.608655,-0.593642,-0.491751,-0.196729,-0.015460,-0.058334,-0.076643,0.050778,-0.017541,0.999999,-0.000984,-0.000077,-0.000292,0.352341,-0.251377,0.711946,0.552990,102.930945,51.234383,177.093490
56691,-7.438966,5.322338,-1.516742,0.330543,-0.308041,-0.551918,-0.082833,-0.048519,-0.051419,-0.074372,0.053236,-0.015208,1.000000,-0.000414,-0.000243,-0.000257,0.352548,-0.251517,0.711568,0.553281,102.851827,51.264512,177.052706
56692,-7.297070,5.585767,-1.559585,0.030805,-0.281609,-0.496032,-0.015184,-0.038569,-0.039278,-0.072957,0.055871,-0.015614,1.000000,-0.000076,-0.000193,-0.000196,0.352770,-0.251519,0.711409,0.553344,102.815528,51.286245,177.017631
56693,-7.350726,5.532482,-1.584488,0.095660,-0.323313,-0.483248,0.003183,-0.010657,-0.028756,-0.073498,0.055336,-0.015848,1.000000,0.000016,-0.000053,-0.000144,0.352887,-0.251532,0.711364,0.553320,102.808395,51.298866,177.005965
56694,-7.368117,5.468597,-1.417641,0.189838,-0.178783,-0.531717,0.043391,0.001990,-0.027552,-0.073674,0.054699,-0.014164,1.000000,0.000217,0.000010,-0.000138,0.353005,-0.251502,0.711451,0.553146,102.831727,51.308861,177.004740
56695,-7.596015,5.518976,-1.268244,0.326970,-0.024013,-0.343818,0.105237,0.022385,-0.019769,-0.075956,0.055204,-0.012645,1.000000,0.000526,0.000112,-0.000099,0.353109,-0.251394,0.711759,0.552734,102.904690,51.312254,177.020780
56696,-7.867911,6.139133,-1.208119,0.045542,0.194515,0.237816,0.115083,-0.011947,-0.022809,-0.078671,0.061407,-0.012051,1.000000,0.000575,-0.000060,-0.000114,0.353352,-0.251184,0.712023,0.552333,102.958302,51.321442,177.006226
56697,-7.511526,6.980120,-0.906882,-0.740789,0.722536,0.429221,0.055535,-0.026578,-0.052147,-0.075096,0.069823,-0.009059,1.000000,0.000278,-0.000133,-0.000261,0.353657,-0.251143,0.712066,0.552102,102.973840,51.349191,176.985187
56698,-7.446442,6.910086,-0.957196,-0.746193,0.655826,0.342513,-0.096318,-0.001634,-0.074065,-0.074439,0.069124,-0.009606,1.000000,-0.000482,-0.000008,-0.000370,0.353740,-0.251515,0.711702,0.552348,102.922109,51.385586,176.990296
56699,-7.545295,6.440019,-1.124982,-0.378502,0.357558,0.157256,-0.253544,0.028382,-0.090362,-0.075425,0.064420,-0.011321,0.999999,-0.001268,0.000142,-0.000452,0.353566,-0.252309,0.710939,0.553079,102.805028,51.427646,177.026173
56700,-7.672445,6.263896,-1.237392,-0.201361,0.184557,0.165255,-0.299398,0.027355,-0.096618,-0.076696,0.062657,-0.012457,0.999999,-0.001497,0.000137,-0.000483,0.353353,-0.253200,0.710037,0.553967,102.660963,51.473125,177.061643
56701,-7.613693,6.057580,-1.246692,-0.094395,0.108199,-0.004722,-0.298877,0.008265,-0.098704,-0.076108,0.060595,-0.012554,0.999999,-0.001494,0.000041,-0.000494,0.353214,-0.254046,0.709099,0.554868,102.504907,51.522470,177.080863
56702,-7.492182,6.423007,-1.175027,-0.438847,0.257683,0.112507,-0.275714,-0.006037,-0.096381,-0.074891,0.064250,-0.011841,0.999999,-0.001379,-0.000030,-0.000482,0.353147,-0.254801,0.708199,0.555714,102.350267,51.571929,177.085890
56703,-7.318547,6.242809,-1.419404,-0.473000,-0.037653,-0.100668,-0.359633,0.013129,-0.088604,-0.073159,0.062435,-0.014302,0.999998,-0.001798,0.000066,-0.000443,0.352883,-0.255731,0.707110,0.556839,102.160983,51.615095,177.107103
56704,-7.472063,5.848182,-1.498996,-0.104017,-0.237680,-0.209948,-0.366177,0.035201,-0.077690,-0.074701,0.058483,-0.015084,0.999998,-0.001831,0.000176,-0.000388,0.352501,-0.256689,0.706054,0.557980,101.980885,51.648938,177.145056
56705,-7.554420,5.574155,-1.481204,0.152702,-0.306466,-0.314415,-0.286518,0.029832,-0.063488,-0.075529,0.055744,-0.014881,0.999999,-0.001433,0.000149,-0.000317,0.352200,-0.257446,0.705227,0.558867,101.841290,51.676126,177.176191
56706,-7.479816,5.543349,-1.531522,0.116351,-0.372702,-0.385626,-0.211804,0.023623,-0.031728,-0.074791,0.055429,-0.015365,0.999999,-0.001059,0.000118,-0.000159,0.351926,-0.257941,0.704634,0.559558,101.734157,51.685953,177.195029
56707,-7.623599,5.911932,-1.547186,-0.077724,-0.311809,-0.047406,-0.116857,0.020692,-0.011844,-0.076234,0.059115,-0.015499,1.000000,-0.000584,0.000103,-0.000059,0.351731,-0.258191,0.704330,0.559948,101.677581,51.685299,177.208068
56708,-7.581648,6.157643,-1.466837,-0.273035,-0.179808,0.058618,-0.091409,0.004929,-0.005851,-0.075815,0.061572,-0.014695,1.000000,-0.000457,0.000025,-0.000029,0.351607,-0.258328,0.704076,0.560282,101.622701,51.682666,177.204968
56709,-7.424692,6.327490,-1.454368,-0.495904,-0.129980,0.036959,-0.151831,0.018574,-0.002442,-0.074247,0.063265,-0.014585,1.000000,-0.000759,0.000093,-0.000012,0.351348,-0.258600,0.703682,0.560814,101.543212,51.676995,177.214347
56710,-7.624036,6.326424,-1.480499,-0.375615,-0.171047,0.195864,-0.170407,0.031003,0.005911,-0.076245,0.063249,-0.014847,1.000000,-0.000852,0.000155,0.000030,0.350996,-0.258908,0.703267,0.561413,101.459904,51.664825,177.232779
56711,-7.663393,6.753864,-1.316263,-0.640562,0.076985,0.466348,-0.192428,0.020575,0.004296,-0.076637,0.067524,-0.013220,1.000000,-0.000962,0.000103,0.000021,0.350658,-0.259233,0.702770,0.562096,101.357626,51.655161,177.242761
56712,-7.321821,6.588978,-1.258044,-0.714879,0.089917,0.091211,-0.296760,0.035356,-0.007274,-0.073218,0.065874,-0.012665,0.999999,-0.001484,0.000177,-0.000036,0.350162,-0.259820,0.701988,0.563111,101.206642,51.649856,177.267600
56713,-7.484953,6.482125,-1.236012,-0.528432,0.063782,0.151591,-0.326469,0.050964,-0.010313,-0.074849,0.064805,-0.012447,0.999999,-0.001632,0.000255,-0.000052,0.349583,-0.260517,0.701145,0.564197,101.051255,51.645074,177.307793
56714,-7.272716,5.980132,-1.427068,-0.315505,-0.251857,-0.298074,-0.489325,0.083241,-0.013807,-0.072729,0.059771,-0.014387,0.999997,-0.002447,0.000416,-0.000069,0.348683,-0.261597,0.699889,0.565812,100.824589,51.638225,177.377214
56715,-7.484500,5.266526,-1.596104,0.328532,-0.601919,-0.548168,-0.429862,0.110973,-0.008764,-0.074852,0.052634,-0.016033,0.999998,-0.002149,0.000555,-0.000044,0.347751,-0.262636,0.698856,0.567179,100.652446,51.626335,177.471600
56716,-7.655142,5.216648,-1.418116,0.508964,-0.457077,-0.466154,-0.301522,0.090001,-0.006593,-0.076556,0.052148,-0.014225,0.999999,-0.001508,0.000450,-0.000033,0.347051,-0.263381,0.698147,0.568135,100.537487,51.615085,177.546039
56717,-7.536474,5.130703,-1.462704,0.494972,-0.523860,-0.607111,-0.200149,0.076072,-0.007088,-0.075368,0.051295,-0.014650,0.999999,-0.001001,0.000380,-0.000035,0.346537,-0.263914,0.697703,0.568746,100.471926,51.606136,177.608515
56718,-7.526453,4.940016,-1.512799,0.627716,-0.616245,-0.726102,-0.082989,0.067352,0.007141,-0.075271,0.049391,-0.015123,1.000000,-0.000415,0.000337,0.000036,0.346164,-0.264166,0.697594,0.568990,100.464431,51.589551,177.660058
56719,-7.657806,5.039829,-1.517243,0.635306,-0.599367,-0.561686,0.068299,0.053370,0.010941,-0.076585,0.050399,-0.015135,1.000000,0.000341,0.000267,0.000055,0.346032,-0.264107,0.697897,0.568725,100.534130,51.572818,177.698884
56720,-7.608673,5.417271,-1.224292,0.373360,-0.222160,-0.402647,0.193951,0.028703,0.012217,-0.076092,0.054180,-0.012179,1.000000,0.000970,0.000144,0.000061,0.346146,-0.263753,0.698515,0.568062,100.657158,51.557482,177.714536
56721,-7.433854,5.589206,-1.103980,0.159067,-0.050342,-0.448270,0.211790,0.039694,0.018197,-0.074346,0.055897,-0.010966,0.999999,0.001059,0.000198,0.000091,0.346229,-0.263381,0.699211,0.567326,100.798280,51.538028,177.739601
56722,-7.649314,5.804122,-0.993621,0.153931,0.113989,-0.161242,0.249343,0.038981,0.020441,-0.076501,0.058046,-0.009849,0.999999,0.001247,0.000195,0.000102,0.346357,-0.262929,0.700015,0.566467,100.959353,51.516771,177.762841
56723,-7.609812,6.164431,-0.723291,-0.090072,0.474839,-0.004579,0.249779,0.038617,0.006472,-0.076101,0.061651,-0.007141,0.999999,0.001249,0.000193,0.000032,0.346526,-0.262528,0.700800,0.565578,101.122937,51.503944,177.788808
56724,-7.531391,6.345691,-0.738664,-0.276164,0.516855,0.045905,0.145402,0.051427,0.001017,-0.075316,0.063462,-0.007321,1.000000,0.000727,0.000257,0.000005,0.346527,-0.262361,0.701301,0.565033,101.235593,51.492396,177.826776
56725,-7.625461,6.489057,-0.754147,-0.327499,0.542316,0.208434,0.073694,0.062575,-0.014683,-0.076252,0.064899,-0.007494,1.000000,0.000368,0.000313,-0.000073,0.346441,-0.262407,0.701601,0.564692,101.318104,51.488704,177.878074
56726,-7.702304,6.532254,-0.628816,-0.288528,0.680131,0.279162,0.039591,0.055537,-0.031291,-0.077015,0.065336,-0.006254,1.000000,0.000198,0.000278,-0.000156,0.346382,-0.262545,0.701771,0.564453,101.377968,51.494667,177.925304
56727,-7.599256,6.465092,-0.662487,-0.309819,0.638102,0.161371,-0.063322,0.059676,-0.043225,-0.075981,0.064665,-0.006623,1.000000,-0.000317,0.000298,-0.000216,0.346206,-0.262921,0.701641,0.564548,101.383991,51.507277,177.979171
56728,-7.683178,6.157353,-0.810306,-0.054603,0.422634,0.057430,-0.111784,0.069346,-0.049489,-0.076819,0.061588,-0.008111,1.000000,-0.000559,0.000347,-0.000247,0.345950,-0.263425,0.701382,0.564791,101.369312,51.521985,178.042294
56729,-7.798613,6.095286,-1.017851,0.022186,0.202078,0.135456,-0.129950,0.068852,-0.052098,-0.077974,0.060967,-0.010191,1.000000,-0.000650,0.000344,-0.000260,0.345680,-0.263973,0.701068,0.565091,101.344944,51.538558,178.106082
56730,-7.838402,6.107885,-1.059799,0.025756,0.160891,0.179480,-0.094307,0.046617,-0.060911,-0.078368,0.061098,-0.010609,1.000000,-0.000472,0.000233,-0.000305,0.345557,-0.264423,0.700802,0.565286,101.325562,51.562132,178.150733
56731,-7.730772,6.147267,-0.919344,-0.050022,0.306883,0.102061,-0.063465,0.020902,-0.066801,-0.077288,0.061496,-0.009205,1.000000,-0.000317,0.000105,-0.000334,0.345584,-0.264771,0.700573,0.565390,101.307479,51.592385,178.173880
56732,-7.670163,6.093807,-1.082225,-0.082251,0.135099,0.041859,-0.083862,0.026345,-0.064994,-0.076683,0.060958,-0.010838,1.000000,-0.000419,0.000132,-0.000325,0.345558,-0.265159,0.700297,0.565566,101.280435,51.620502,178.200864
56733,-7.698670,5.760440,-1.042390,0.191642,0.097977,-0.143539,-0.068992,0.023660,-0.068732,-0.076968,0.057627,-0.010435,1.000000,-0.000345,0.000118,-0.000344,0.345573,-0.265531,0.700054,0.565683,101.261424,51.651542,178.226847
56734,-7.693231,5.685046,-1.277058,0.197634,-0.147128,-0.165111,-0.003526,0.026434,-0.067489,-0.076915,0.056876,-0.012761,1.000000,-0.000018,0.000132,-0.000337,0.345661,-0.265790,0.700001,0.565573,101.280948,51.681212,178.254490
56735,-7.783239,5.782622,-1.469470,0.139333,-0.308944,-0.011565,0.110233,0.042021,-0.057520,-0.077819,0.057857,-0.014646,1.000000,0.000551,0.000210,-0.000288,0.345818,-0.265865,0.700311,0.565057,101.376167,51.703871,178.295161
56736,-7.661664,6.204894,-1.215679,-0.215201,0.044609,0.118645,0.182050,0.000222,-0.050176,-0.076601,0.062079,-0.012100,1.000000,0.000910,0.000001,-0.000251,0.346195,-0.265667,0.700762,0.564361,101.481107,51.726623,178.295903
56737,-7.508942,5.911397,-1.002370,-0.049081,0.202933,-0.205921,0.233989,-0.006195,-0.037469,-0.075078,0.059140,-0.009957,0.999999,0.001170,-0.000031,-0.000187,0.346628,-0.265321,0.701364,0.563510,101.610160,51.743460,178.289332
56738,-7.751839,5.855200,-1.385615,0.071324,-0.172011,-0.001489,0.284149,0.013587,-0.015229,-0.077515,0.058578,-0.013768,0.999999,0.001421,0.000068,-0.000076,0.346994,-0.264861,0.702168,0.562498,101.777969,51.745117,178.295918
56739,-7.752887,5.879312,-1.598185,0.014213,-0.350877,0.041468,0.424419,0.034383,0.007197,-0.077534,0.058824,-0.015844,0.999998,0.002122,0.000172,0.000036,0.347410,-0.264141,0.703432,0.560999,102.038415,51.732140,178.317728
56740,-7.638528,6.070970,-1.537076,-0.186604,-0.211161,0.060855,0.619267,0.042856,0.044998,-0.076402,0.060740,-0.015166,0.999995,0.003096,0.000214,0.000225,0.347943,-0.262968,0.705300,0.558870,102.409675,51.696411,178.338985
56741,-7.606605,7.220967,-1.256374,-1.016829,0.378384,0.694642,0.663642,0.004393,0.057350,-0.076087,0.072229,-0.012322,0.999994,0.003318,0.000022,0.000287,0.348633,-0.261567,0.707236,0.556646,102.777806,51.658976,178.323365
56742,-7.357379,7.516539,-0.463713,-1.224576,1.257876,0.568186,0.389205,-0.069328,0.069233,-0.073598,0.075149,-0.004516,0.999998,0.001946,-0.000347,0.000346,0.349187,-0.260392,0.708288,0.555510,102.933599,51.623853,178.238024
56743,-7.375218,6.298929,-0.299164,-0.250409,1.128772,-0.178217,0.152165,-0.061432,0.028670,-0.073760,0.062981,-0.002966,1.000000,0.000761,-0.000307,0.000143,0.349519,-0.259800,0.708643,0.555126,102.966654,51.610946,178.168785
56744,-7.727772,5.734776,-1.472701,0.152924,-0.153233,-0.079851,-0.043116,0.027755,-0.047722,-0.077266,0.057363,-0.014729,1.000000,-0.000216,0.000139,-0.000239,0.349492,-0.260060,0.708512,0.555189,102.962199,51.628598,178.194661
56745,-7.786986,5.447811,-2.225197,0.248161,-0.952603,-0.101958,-0.101078,0.114804,-0.088737,-0.077858,0.054501,-0.022235,1.000000,-0.000505,0.000574,-0.000444,0.349195,-0.260815,0.708318,0.555268,102.993527,51.658585,178.308279
56746,-7.571601,5.505925,-2.603758,-0.010289,-1.293012,-0.181908,0.024266,0.135489,-0.087657,-0.075709,0.055096,-0.025980,1.000000,0.000121,0.000677,-0.000438,0.348985,-0.261400,0.708509,0.554882,103.110411,51.684685,178.439687
56747,-7.357284,5.696595,-2.450122,-0.257874,-1.079938,-0.254909,0.095813,0.119331,-0.041969,-0.073575,0.056993,-0.024430,1.000000,0.000479,0.000597,-0.000210,0.348800,-0.261658,0.708931,0.554339,103.250283,51.687742,178.547800
56748,-7.294281,5.413121,-1.862986,0.040690,-0.564711,-0.557497,0.199922,0.108180,0.029151,-0.072961,0.054139,-0.018536,0.999999,0.001000,0.000541,0.000146,0.348590,-0.261449,0.709711,0.553571,103.428858,51.651969,178.630115
56749,-7.418500,5.348124,-1.231944,0.304883,0.050233,-0.589960,0.424657,0.078881,0.088409,-0.074213,0.053474,-0.012177,0.999998,0.002123,0.000394,0.000442,0.348615,-0.260558,0.711140,0.552139,103.706394,51.587393,178.673589
56750,-7.579029,5.674740,-0.906917,0.238905,0.474951,-0.316157,0.594940,0.026977,0.121042,-0.075826,0.056728,-0.008890,0.999995,0.002975,0.000135,0.000605,0.348952,-0.259106,0.712984,0.550228,104.038010,51.511147,178.662223
56751,-7.807388,6.148280,-0.514449,0.124176,1.006778,0.086412,0.626325,-0.021485,0.117592,-0.078109,0.061453,-0.004960,0.999995,0.003132,-0.000107,0.000588,0.349511,-0.257479,0.714820,0.548250,104.354847,51.444172,178.608327
56752,-7.916171,6.289898,-0.532105,0.096856,1.056092,0.256420,0.589573,-0.086920,0.076781,-0.079184,0.062884,-0.005170,0.999995,0.002948,-0.000435,0.000384,0.350365,-0.255875,0.716383,0.546414,104.611544,51.408911,178.504411
56753,-7.891771,6.304691,-0.753476,0.029071,0.869047,0.278933,0.446801,-0.149528,0.017566,-0.078918,0.063057,-0.007453,0.999997,0.002234,-0.000748,0.000088,0.351419,-0.254565,0.717364,0.545060,104.754174,51.416257,178.359188
56754,-7.807211,6.001051,-1.049939,0.134242,0.507905,0.076273,0.132092,-0.156259,-0.055065,-0.078047,0.060039,-0.010521,0.999999,0.000660,-0.000781,-0.000275,0.352293,-0.254046,0.717379,0.544718,104.724038,51.464435,178.224198
56755,-7.749915,5.557176,-1.444222,0.329720,-0.000838,-0.173163,-0.121056,-0.107816,-0.127950,-0.077456,0.055613,-0.014518,0.999999,-0.000605,-0.000539,-0.000640,0.352871,-0.254370,0.716698,0.545089,104.596534,51.546357,178.149721
56756,-7.700702,5.150986,-1.629980,0.545360,-0.306443,-0.426585,-0.291451,-0.084769,-0.176858,-0.076955,0.051554,-0.016408,0.999998,-0.001457,-0.000424,-0.000884,0.353280,-0.255228,0.715529,0.545959,104.394932,51.651514,178.105885
56757,-7.596430,4.913162,-1.625894,0.642768,-0.382615,-0.651419,-0.326365,-0.033361,-0.202922,-0.075912,0.049182,-0.016352,0.999998,-0.001632,-0.000167,-0.001015,0.353533,-0.256384,0.714320,0.546835,104.214526,51.764231,178.114092
56758,-7.432182,5.343337,-1.872600,0.144894,-0.515423,-0.484852,-0.341928,0.018570,-0.206862,-0.074268,0.053478,-0.018811,0.999998,-0.001710,0.000093,-0.001034,0.353588,-0.257719,0.713152,0.547695,104.061326,51.871450,178.168664
56759,-7.313443,5.798981,-1.863793,-0.285755,-0.396498,-0.307454,-0.396564,0.108575,-0.203378,-0.073086,0.058027,-0.018713,0.999997,-0.001983,0.000543,-0.001017,0.353242,-0.259387,0.711996,0.548634,103.940765,51.964771,178.303976
56760,-7.534298,6.011548,-1.798106,-0.308284,-0.289736,-0.016844,-0.230214,0.111840,-0.146696,-0.075309,0.060150,-0.018008,0.999999,-0.001151,0.000559,-0.000733,0.352943,-0.260565,0.711372,0.549079,103.907169,52.025799,178.428945
56761,-7.649897,6.318951,-1.159142,-0.341149,0.402628,0.163042,-0.049883,0.008324,-0.089335,-0.076471,0.063221,-0.011604,1.000000,-0.000249,0.000042,-0.000447,0.353089,-0.260939,0.711136,0.549113,103.893914,52.069636,178.448197
56762,-7.545511,6.372782,-0.774804,-0.370821,0.784184,0.056200,-0.098934,-0.044514,-0.066984,-0.075432,0.063749,-0.007796,1.000000,-0.000495,-0.000223,-0.000335,0.353297,-0.261171,0.710698,0.549435,103.809925,52.107899,178.413945
56763,-7.568086,5.876786,-0.646915,0.040321,0.769343,-0.239938,-0.107979,-0.048652,-0.059119,-0.075662,0.058787,-0.006519,1.000000,-0.000540,-0.000243,-0.000296,0.353488,-0.261384,0.710240,0.549803,103.717228,52.142716,178.374705
56764,-7.642981,6.174389,-1.275344,-0.282357,0.220362,0.088646,-0.311742,-0.096444,-0.063426,-0.076404,0.061748,-0.012887,0.999999,-0.001559,-0.000482,-0.000317,0.353592,-0.261834,0.709132,0.550952,103.473399,52.185715,178.291907
