// General information: 
//  MT Manager version: 2022.0.0 
//  XDA version: 2022.0.0 build 7085 rev 119802 built on 2022-11-08
// Device information: 
//  DeviceId: 00B4737C
//  ProductCode: MTW2-3A7G6
//  Firmware Version: 4.14.0
//  Hardware Version: 2.0.0
// Device settings: 
//  Filter Profile: human(46.1)
//  Option Flags: Orientation Smoother Disabled, Position/Velocity Smoother Disabled, Continuous Zero Rotation Update Disabled, AHS Disabled, ICC Disabled
// Coordinate system: ENU
PacketCounter,Acc_X,Acc_Y,Acc_Z,FreeAcc_E,FreeAcc_N,FreeAcc_U,Gyr_X,Gyr_Y,Gyr_Z,VelInc_X,VelInc_Y,VelInc_Z,OriInc_q0,OriInc_q1,OriInc_q2,OriInc_q3,Quat_q0,Quat_q1,Quat_q2,Quat_q3,Roll,Pitch,Yaw
51927,0.346778,2.046176,9.613094,-0.069238,0.033645,0.021576,0.009968,0.007274,-0.020221,0.003473,0.020457,0.096132,1.000000,0.000050,0.000036,-0.000101,-0.092503,-0.023702,-0.103884,-0.989995,12.131473,-1.587946,169.155011
51928,0.286828,2.098333,9.676995,-0.016121,-0.014259,0.093323,0.014930,0.013158,-0.018122,0.002877,0.020976,0.096771,1.000000,0.000075,0.000066,-0.000091,-0.092523,-0.023656,-0.103926,-0.989989,12.135808,-1.581923,169.153266
51929,0.187516,2.112133,9.716598,0.080692,-0.037986,0.132190,0.002132,0.012438,-0.001663,0.001881,0.021120,0.097166,1.000000,0.000011,0.000062,-0.000008,-0.092465,-0.023613,-0.103902,-0.989998,12.132485,-1.578070,169.160479
51930,0.330039,2.041592,9.644060,-0.052255,0.041821,0.050397,0.006211,0.013111,-0.011151,0.003308,0.020413,0.096441,1.000000,0.000031,0.000066,-0.000056,-0.092451,-0.023566,-0.103900,-0.990001,12.131716,-1.572912,169.162635
51931,0.297676,1.990932,9.601252,-0.015867,0.075883,-0.002975,0.004537,0.026449,-0.013257,0.002991,0.019907,0.096013,1.000000,0.000023,0.000132,-0.000066,-0.092442,-0.023449,-0.103896,-0.990005,12.129886,-1.559852,169.165202
51932,0.081636,2.052041,9.776610,0.194536,0.011967,0.175388,0.004044,0.028212,-0.012019,0.000831,0.020518,0.097766,1.000000,0.000020,0.000141,-0.000060,-0.092425,-0.023326,-0.103891,-0.990010,12.127841,-1.546131,169.168689
51933,0.095350,2.013840,9.811953,0.189083,0.058229,0.202297,0.004081,0.000672,-0.009486,0.000955,0.020136,0.098120,1.000000,0.000020,0.000003,-0.000047,-0.092408,-0.023338,-0.103871,-0.990014,12.125749,-1.547941,169.170503
51934,0.315166,1.994454,9.610605,-0.036332,0.077314,0.007374,0.005385,0.003655,-0.012377,0.003155,0.019942,0.096107,1.000000,0.000027,0.000018,-0.000062,-0.092405,-0.023337,-0.103861,-0.990015,12.124558,-1.547932,169.170833
51935,0.312145,2.057228,9.662237,-0.042384,0.026670,0.070932,0.002667,0.024760,-0.022366,0.003136,0.020571,0.096622,1.000000,0.000013,0.000124,-0.000112,-0.092440,-0.023222,-0.103848,-0.990016,12.121771,-1.534671,169.168269
51936,0.314831,2.023612,9.656909,-0.041747,0.058094,0.058731,-0.003236,0.027341,-0.012486,0.003163,0.020237,0.096568,1.000000,-0.000016,0.000137,-0.000062,-0.092427,-0.023100,-0.103806,-0.990024,12.115566,-1.521381,169.171388
51937,0.123119,2.032939,9.849094,0.155064,0.052074,0.243450,0.015623,0.026645,-0.005698,0.001245,0.020322,0.098492,1.000000,0.000078,0.000133,-0.000028,-0.092378,-0.022991,-0.103855,-0.990026,12.119966,-1.509117,169.178244
51938,0.009425,2.093741,9.912264,0.259529,-0.014620,0.314960,0.005279,-0.006193,-0.003254,0.000092,0.020935,0.099123,1.000000,0.000026,-0.000031,-0.000016,-0.092336,-0.023043,-0.103839,-0.990031,12.118611,-1.515722,169.182502
51939,0.355336,1.955524,9.696116,-0.067957,0.138887,0.083832,0.000621,-0.019688,-0.014444,0.003545,0.019555,0.096962,1.000000,0.000003,-0.000098,-0.000072,-0.092356,-0.023152,-0.103794,-0.990031,12.114689,-1.528333,169.178904
51940,0.338612,2.048365,9.653045,-0.069709,0.037053,0.060788,0.002681,-0.003016,-0.026450,0.003387,0.020482,0.096531,1.000000,0.000013,-0.000015,-0.000132,-0.092427,-0.023176,-0.103769,-0.990026,12.112181,-1.530369,169.170545
51941,0.257487,2.105519,9.766756,0.006922,-0.010829,0.181755,-0.000462,0.006433,-0.024009,0.002581,0.021055,0.097667,1.000000,-0.000002,0.000032,-0.000120,-0.092482,-0.023150,-0.103732,-0.990026,12.107709,-1.527202,169.164606
51942,0.288532,2.160731,9.678119,-0.039818,-0.076382,0.107523,0.003223,0.009574,-0.012397,0.002891,0.021606,0.096781,1.000000,0.000016,0.000048,-0.000062,-0.092476,-0.023118,-0.103713,-0.990029,12.105261,-1.523874,169.165636
51943,0.321431,2.104463,9.735960,-0.059139,-0.004619,0.153129,0.006382,0.014245,-0.006172,0.003222,0.021041,0.097360,1.000000,0.000032,0.000071,-0.000031,-0.092437,-0.023066,-0.103711,-0.990034,12.104402,-1.518488,169.170796
51944,0.199485,2.115591,9.765967,0.059531,-0.032232,0.181564,0.004405,0.016596,-0.004124,0.002003,0.021154,0.097660,1.000000,0.000022,0.000083,-0.000021,-0.092387,-0.023005,-0.103701,-0.990041,12.102486,-1.512220,169.177306
51945,0.268814,2.006152,9.750371,0.009123,0.082559,0.145211,0.002076,0.007493,-0.011161,0.002693,0.020060,0.097504,1.000000,0.000010,0.000037,-0.000056,-0.092375,-0.022981,-0.103676,-0.990045,12.099247,-1.509988,169.178943
51946,0.332082,2.059061,9.712008,-0.065434,0.035790,0.120466,0.009465,0.009030,-0.018954,0.003327,0.020586,0.097121,1.000000,0.000047,0.000045,-0.000095,-0.092402,-0.022952,-0.103689,-0.990042,12.100474,-1.506178,169.176232
51947,0.282124,2.171871,9.736915,-0.035910,-0.076773,0.167140,0.006810,0.016713,-0.017747,0.002831,0.021715,0.097370,1.000000,0.000034,0.000084,-0.000089,-0.092422,-0.022882,-0.103692,-0.990042,12.100068,-1.498018,169.174802
51948,0.188135,2.151430,9.770996,0.061170,-0.068042,0.193712,0.001735,0.010157,-0.011579,0.001888,0.021513,0.097710,1.000000,0.000009,0.000051,-0.000058,-0.092413,-0.022848,-0.103666,-0.990046,12.096755,-1.494462,169.176360
51949,0.230022,2.073556,9.751291,0.032332,0.010447,0.159226,0.006895,0.003302,-0.006558,0.002303,0.020732,0.097514,1.000000,0.000034,0.000017,-0.000033,-0.092382,-0.022850,-0.103662,-0.990049,12.096251,-1.495145,169.179843
51950,0.224017,2.107673,9.756584,0.032663,-0.022737,0.171391,0.002596,0.001256,-0.008662,0.002242,0.021075,0.097566,1.000000,0.000013,0.000006,-0.000043,-0.092363,-0.022861,-0.103637,-0.990054,12.093416,-1.496926,169.181967
51951,0.231573,2.020657,9.758658,0.041227,0.062556,0.155386,0.010014,-0.001676,-0.012723,0.002316,0.020202,0.097588,1.000000,0.000050,-0.000008,-0.000064,-0.092364,-0.022886,-0.103646,-0.990052,12.094796,-1.499657,169.181482
51952,0.255271,2.098275,9.747391,0.004013,-0.009753,0.161251,0.009672,-0.003718,-0.016029,0.002553,0.020978,0.097475,1.000000,0.000048,-0.000019,-0.000080,-0.092383,-0.022922,-0.103654,-0.990048,12.096138,-1.503340,169.178879
51953,0.242224,2.083936,9.719268,0.018403,-0.003839,0.130415,0.012977,-0.007557,-0.017231,0.002420,0.020833,0.097194,1.000000,0.000065,-0.000038,-0.000086,-0.092411,-0.022975,-0.103676,-0.990042,12.099323,-1.508837,169.174950
51954,0.301109,2.171065,9.686105,-0.056219,-0.082974,0.117810,0.009669,-0.003719,-0.016027,0.003011,0.021706,0.096862,1.000000,0.000048,-0.000019,-0.000080,-0.092430,-0.023010,-0.103684,-0.990039,12.100664,-1.512521,169.172348
51955,0.240134,2.140250,9.711157,0.011285,-0.059453,0.134234,0.013472,0.000093,-0.012689,0.002403,0.021396,0.097113,1.000000,0.000067,0.000000,-0.000063,-0.092432,-0.023029,-0.103712,-0.990035,12.104051,-1.514274,169.171853
51956,0.265831,2.163961,9.707442,-0.017893,-0.077915,0.136254,0.008560,-0.000851,-0.005292,0.002658,0.021635,0.097075,1.000000,0.000043,-0.000004,-0.000026,-0.092396,-0.023055,-0.103715,-0.990038,12.104588,-1.517641,169.175612
51957,0.280057,2.117885,9.683557,-0.025158,-0.035712,0.103624,0.008034,0.010090,-0.004904,0.002806,0.021175,0.096836,1.000000,0.000040,0.000050,-0.000025,-0.092353,-0.023025,-0.103719,-0.990042,12.104684,-1.514750,169.180945
51958,0.164091,2.095799,9.707979,0.093666,-0.030838,0.119807,0.014956,0.013632,-0.004843,0.001648,0.020951,0.097081,1.000000,0.000075,0.000068,-0.000024,-0.092307,-0.022983,-0.103760,-0.990043,12.108834,-1.510057,169.186696
51959,0.274195,2.099974,9.696081,-0.016390,-0.015918,0.111956,0.012329,0.007429,-0.005682,0.002746,0.020994,0.096962,1.000000,0.000062,0.000037,-0.000028,-0.092268,-0.022968,-0.103784,-0.990044,12.111417,-1.508554,169.191269
51960,0.303974,2.081925,9.627782,-0.047211,-0.006024,0.042196,0.015602,0.012766,-0.007726,0.003047,0.020812,0.096279,1.000000,0.000078,0.000064,-0.000039,-0.092236,-0.022928,-0.103828,-0.990044,12.115983,-1.504000,169.195300
51961,0.249695,2.108734,9.745278,0.007965,-0.017671,0.161238,0.009327,0.017777,-0.004903,0.002506,0.021083,0.097454,1.000000,0.000047,0.000089,-0.000025,-0.092189,-0.022861,-0.103843,-0.990048,12.116790,-1.496758,169.201596
51962,0.227326,2.045120,9.684022,0.036394,0.027451,0.087434,0.012293,0.011894,-0.009407,0.002280,0.020445,0.096841,1.000000,0.000061,0.000059,-0.000047,-0.092166,-0.022823,-0.103870,-0.990048,12.119488,-1.492491,169.204581
51963,0.305045,2.051490,9.621898,-0.045859,0.023678,0.030072,0.006359,0.014239,-0.006164,0.003058,0.020512,0.096219,1.000000,0.000032,0.000071,-0.000031,-0.092130,-0.022772,-0.103868,-0.990053,12.118669,-1.487089,169.209409
51964,0.155812,1.965698,9.675814,0.118324,0.089352,0.060895,0.010125,0.017810,-0.009438,0.001568,0.019652,0.096759,1.000000,0.000051,0.000089,-0.000047,-0.092105,-0.022704,-0.103888,-0.990055,12.120108,-1.479504,169.213089
51965,0.228154,2.013993,9.678276,0.037742,0.057176,0.075313,0.005337,0.012815,-0.013196,0.002289,0.020137,0.096783,1.000000,0.000027,0.000064,-0.000066,-0.092103,-0.022655,-0.103881,-0.990057,12.118796,-1.474096,169.213925
51966,0.262535,1.895844,9.684701,0.024477,0.178779,0.057673,0.011762,0.013414,-0.014782,0.002633,0.018953,0.096848,1.000000,0.000059,0.000067,-0.000074,-0.092106,-0.022608,-0.103907,-0.990055,12.121264,-1.468331,169.214082
51967,0.144238,2.072807,9.791400,0.115111,0.008397,0.196085,0.007652,0.012507,-0.011929,0.001450,0.020724,0.097915,1.000000,0.000038,0.000063,-0.000060,-0.092097,-0.022562,-0.103912,-0.990056,12.121248,-1.463269,169.215672
51968,0.133007,2.012286,9.830313,0.139162,0.072190,0.221129,0.003739,-0.001384,-0.012768,0.001331,0.020121,0.098304,1.000000,0.000019,-0.000007,-0.000064,-0.092099,-0.022585,-0.103891,-0.990058,12.119135,-1.466035,169.215176
51969,0.263189,2.055483,9.702076,-0.004076,0.029203,0.108184,0.013966,-0.001678,-0.013898,0.002633,0.020548,0.097022,1.000000,0.000070,-0.000008,-0.000069,-0.092106,-0.022611,-0.103920,-0.990053,12.122800,-1.468633,169.214001
51970,0.196173,2.057900,9.732499,0.063379,0.020499,0.136711,0.002092,0.007722,-0.004539,0.001966,0.020578,0.097325,1.000000,0.000010,0.000039,-0.000023,-0.092063,-0.022593,-0.103895,-0.990061,12.119598,-1.467289,169.219213
51971,0.178943,2.022225,9.717607,0.085579,0.048051,0.114229,0.002778,0.002392,-0.003694,0.001791,0.020221,0.097176,1.000000,0.000014,0.000012,-0.000018,-0.092019,-0.022599,-0.103869,-0.990067,12.116689,-1.468806,169.224257
51972,0.266444,2.014803,9.637319,-0.004483,0.055028,0.036439,0.004527,0.012778,-0.008655,0.002671,0.020146,0.096373,1.000000,0.000023,0.000064,-0.000043,-0.091993,-0.022554,-0.103859,-0.990072,12.114925,-1.464134,169.227770
51973,0.220862,2.027398,9.736625,0.042947,0.054125,0.134987,-0.000152,0.022564,-0.012029,0.002221,0.020274,0.097366,1.000000,-0.000001,0.000113,-0.000060,-0.091981,-0.022455,-0.103829,-0.990078,12.110418,-1.453407,169.230371
51974,0.148834,2.008524,9.780251,0.118261,0.066998,0.171858,-0.002612,0.012550,-0.017406,0.001496,0.020086,0.097802,1.000000,-0.000013,0.000063,-0.000087,-0.092000,-0.022403,-0.103784,-0.990082,12.104690,-1.447810,169.228952
51975,0.198436,2.045026,9.714235,0.057719,0.026937,0.116251,-0.005268,0.010809,-0.021974,0.001992,0.020453,0.097142,1.000000,-0.000026,0.000054,-0.000110,-0.092045,-0.022355,-0.103725,-0.990085,12.097435,-1.442461,169.224495
51976,0.279868,2.078737,9.698743,-0.030609,0.005427,0.110221,-0.009263,0.015263,-0.024502,0.002809,0.020792,0.096986,1.000000,-0.000046,0.000076,-0.000123,-0.092098,-0.022284,-0.103649,-0.990090,12.087988,-1.434492,169.219423
51977,0.248796,2.035101,9.715375,0.007255,0.043755,0.116566,-0.004285,0.011987,-0.021547,0.002496,0.020353,0.097153,1.000000,-0.000021,0.000060,-0.000108,-0.092135,-0.022230,-0.103595,-0.990093,12.081220,-1.428554,169.215911
51978,0.300579,2.017232,9.657186,-0.045401,0.057583,0.057238,-0.012878,0.012587,-0.022880,0.003014,0.020178,0.096570,1.000000,-0.000064,0.000063,-0.000114,-0.092182,-0.022171,-0.103499,-0.990100,12.069686,-1.422281,169.211425
51979,0.200776,2.028503,9.696743,0.051621,0.034246,0.095800,-0.012881,0.012586,-0.022877,0.002016,0.020291,0.096966,1.000000,-0.000064,0.000063,-0.000114,-0.092229,-0.022110,-0.103403,-0.990107,12.058044,-1.415806,169.206857
51980,0.252084,1.944152,9.718547,0.016400,0.127382,0.100785,-0.016361,0.005854,-0.032400,0.002527,0.019449,0.097184,1.000000,-0.000082,0.000029,-0.000162,-0.092327,-0.022077,-0.103288,-0.990111,12.044665,-1.412169,169.196226
51981,0.293840,2.009260,9.789642,-0.032758,0.084200,0.184933,-0.025965,0.000312,-0.043642,0.002943,0.020105,0.097894,1.000000,-0.000130,0.000002,-0.000218,-0.092486,-0.022060,-0.103124,-0.990114,12.025856,-1.410073,169.178470
51982,0.203942,2.005546,9.811175,0.056469,0.071680,0.203032,-0.034134,-0.001354,-0.059405,0.002045,0.020072,0.098108,1.000000,-0.000171,-0.000007,-0.000297,-0.092723,-0.022041,-0.102921,-0.990113,12.002686,-1.407262,169.151839
51983,0.196676,1.960833,9.837943,0.072548,0.113906,0.219781,-0.048672,-0.017518,-0.075621,0.001966,0.019632,0.098375,1.000000,-0.000243,-0.000088,-0.000378,-0.093051,-0.022085,-0.102640,-0.990111,11.971345,-1.411411,169.114166
51984,0.282037,1.928340,9.771695,-0.009743,0.142384,0.150429,-0.052751,-0.022991,-0.097079,0.002819,0.019308,0.097712,1.000000,-0.000264,-0.000115,-0.000485,-0.093488,-0.022145,-0.102339,-0.990099,11.938095,-1.416284,169.063840
51985,0.248013,1.988507,9.773825,0.012460,0.072936,0.164179,-0.048278,-0.019637,-0.111422,0.002482,0.019907,0.097734,1.000000,-0.000241,-0.000098,-0.000557,-0.093994,-0.022181,-0.102062,-0.990079,11.907479,-1.417427,169.005881
51986,0.247647,1.983764,9.774798,0.012904,0.072063,0.164185,-0.054455,-0.018481,-0.113077,0.002479,0.019863,0.097743,1.000000,-0.000272,-0.000092,-0.000565,-0.094507,-0.022210,-0.101756,-0.990061,11.873465,-1.417939,168.947121
51987,0.205029,2.139769,9.834166,0.029150,-0.079822,0.253307,-0.044708,-0.021459,-0.109217,0.002051,0.021419,0.098337,1.000000,-0.000224,-0.000107,-0.000546,-0.095004,-0.022258,-0.101496,-0.990039,11.844883,-1.420362,168.890037
51988,0.102750,2.043640,9.848687,0.147901,-0.009876,0.245229,-0.053618,-0.032134,-0.112951,0.001023,0.020462,0.098482,1.000000,-0.000268,-0.000161,-0.000565,-0.095524,-0.022355,-0.101188,-0.990018,11.811394,-1.428609,168.829743
51989,0.334752,2.024845,9.749203,-0.082425,0.027081,0.149817,-0.064208,-0.033551,-0.129862,0.003344,0.020278,0.097486,1.000000,-0.000321,-0.000168,-0.000649,-0.096128,-0.022443,-0.100828,-0.989995,11.771936,-1.435541,168.760043
51990,0.286345,1.919105,9.764571,-0.015078,0.115535,0.142122,-0.065088,-0.023618,-0.155708,0.002867,0.019221,0.097640,1.000000,-0.000325,-0.000118,-0.000779,-0.096856,-0.022470,-0.100472,-0.989959,11.732462,-1.434102,168.676763
51991,0.206909,1.987642,9.866936,0.054257,0.046006,0.254333,-0.092668,-0.021755,-0.193238,0.002078,0.019920,0.098660,0.999999,-0.000463,-0.000109,-0.000966,-0.097773,-0.022455,-0.099983,-0.989919,11.677576,-1.427116,168.572611
51992,0.118515,1.682774,9.839309,0.194368,0.306319,0.163593,-0.099364,-0.036913,-0.234624,0.001187,0.016875,0.098385,0.999999,-0.000497,-0.000185,-0.001173,-0.098902,-0.022492,-0.099459,-0.989859,11.619590,-1.424158,168.443492
51993,0.146885,1.791912,9.804541,0.141800,0.190700,0.152505,-0.090616,-0.049024,-0.274556,0.001469,0.017962,0.098038,0.999999,-0.000453,-0.000245,-0.001373,-0.100236,-0.022571,-0.098977,-0.989771,11.567093,-1.423315,168.290332
51994,0.238626,1.880654,9.752085,0.030046,0.104345,0.121353,-0.102086,-0.059167,-0.294011,0.002385,0.018853,0.097512,0.999999,-0.000510,-0.000296,-0.001470,-0.101670,-0.022688,-0.098435,-0.989676,11.508437,-1.426295,168.125308
51995,0.299038,1.829624,9.748911,-0.021015,0.154259,0.109710,-0.121236,-0.056920,-0.324876,0.002992,0.018350,0.097479,0.999998,-0.000606,-0.000285,-0.001624,-0.103255,-0.022766,-0.097801,-0.989573,11.439041,-1.424525,167.943620
51996,0.218799,1.802994,9.753709,0.060325,0.152670,0.107320,-0.115123,-0.049725,-0.347701,0.002195,0.018082,0.097527,0.999998,-0.000576,-0.000249,-0.001739,-0.104951,-0.022802,-0.097205,-0.989453,11.373625,-1.416495,167.749509
51997,0.212599,1.921188,9.728836,0.037432,0.022376,0.106209,-0.114349,-0.056600,-0.362340,0.002133,0.019264,0.097278,0.999998,-0.000572,-0.000283,-0.001812,-0.106719,-0.022863,-0.096609,-0.989321,11.308636,-1.410673,167.546861
51998,0.324420,1.937231,9.706492,-0.080518,0.015258,0.090209,-0.138195,-0.048570,-0.372890,0.003257,0.019433,0.097052,0.999998,-0.000691,-0.000243,-0.001864,-0.108541,-0.022869,-0.095902,-0.989191,11.230293,-1.399638,167.338704
51999,0.067336,1.833093,9.833471,0.195732,0.069923,0.188247,-0.121536,-0.044558,-0.381633,0.000687,0.018389,0.098324,0.999998,-0.000608,-0.000223,-0.001908,-0.110400,-0.022858,-0.095278,-0.989046,11.161367,-1.385432,167.126322
52000,0.074127,1.978328,9.765459,0.149458,-0.092653,0.149869,-0.132288,-0.070122,-0.390944,0.000746,0.019846,0.097642,0.999998,-0.000661,-0.000351,-0.001955,-0.112320,-0.022965,-0.094590,-0.988893,11.086640,-1.385046,166.905604
52001,0.337248,1.971630,9.644555,-0.118438,-0.062884,0.036196,-0.173041,-0.049127,-0.428472,0.003391,0.019792,0.096429,0.999997,-0.000865,-0.000246,-0.002142,-0.114416,-0.022925,-0.093713,-0.988737,10.988759,-1.368904,166.666551
52002,0.261159,1.514514,9.713188,0.054061,0.352376,0.014868,-0.204487,-0.030184,-0.491298,0.002634,0.015238,0.097117,0.999996,-0.001022,-0.000151,-0.002456,-0.116821,-0.022746,-0.092701,-0.988556,10.873769,-1.335889,166.393705
52003,0.077540,1.471565,9.831045,0.241620,0.353865,0.118945,-0.178022,-0.032057,-0.540530,0.000800,0.014801,0.098297,0.999996,-0.000890,-0.000160,-0.002703,-0.119462,-0.022567,-0.091821,-0.988326,10.774181,-1.298972,166.093370
52004,-0.009542,1.722411,9.932702,0.266401,0.093984,0.264292,-0.188072,-0.058365,-0.571077,-0.000075,0.017318,0.099311,0.999995,-0.000940,-0.000292,-0.002855,-0.122270,-0.022500,-0.090881,-0.988071,10.669361,-1.274316,165.772484
52005,0.334641,1.545450,9.680847,-0.049281,0.285632,-0.007833,-0.198771,-0.064600,-0.574281,0.003360,0.015541,0.096794,0.999995,-0.000994,-0.000323,-0.002871,-0.125089,-0.022453,-0.089880,-0.987811,10.557999,-1.253320,165.449960
52006,0.256751,1.804988,9.752477,-0.040113,0.014959,0.108646,-0.177993,-0.043293,-0.545950,0.002596,0.018130,0.097509,0.999996,-0.000890,-0.000216,-0.002730,-0.127763,-0.022329,-0.088995,-0.987551,10.458347,-1.223994,165.144725
52007,0.161127,2.020962,9.749810,-0.011117,-0.230918,0.142993,-0.176548,-0.040916,-0.499422,0.001642,0.020292,0.097481,0.999996,-0.000883,-0.000205,-0.002497,-0.130196,-0.022211,-0.088109,-0.987316,10.358393,-1.198507,164.866995
52008,0.376138,1.892023,9.593852,-0.206409,-0.093955,-0.029448,-0.189493,-0.023111,-0.451711,0.003793,0.019003,0.095921,0.999997,-0.000947,-0.000116,-0.002259,-0.132395,-0.022021,-0.087167,-0.987111,10.250719,-1.168548,164.616868
52009,0.282093,1.894555,9.666046,-0.123184,-0.124176,0.039761,-0.177283,0.013819,-0.418145,0.002867,0.019025,0.096643,0.999997,-0.000886,0.000069,-0.002091,-0.134401,-0.021670,-0.086304,-0.986924,10.149005,-1.121573,164.390477
52010,0.079119,1.931165,9.785309,0.056953,-0.208898,0.159324,-0.187285,0.023224,-0.402084,0.000841,0.019402,0.097835,0.999998,-0.000936,0.000116,-0.002010,-0.136334,-0.021274,-0.085398,-0.986746,10.041594,-1.071375,164.172904
52011,0.159786,1.798712,9.750605,-0.002460,-0.083533,0.103368,-0.207397,0.031967,-0.401979,0.001650,0.018085,0.097487,0.999997,-0.001037,0.000160,-0.002010,-0.138258,-0.020818,-0.084396,-0.986574,9.922092,-1.016534,163.956864
52012,0.231141,1.692243,9.662880,-0.063561,0.005815,-0.000234,-0.214588,0.042164,-0.422249,0.002368,0.017021,0.096610,0.999997,-0.001073,0.000211,-0.002111,-0.140283,-0.020301,-0.083369,-0.986386,9.798783,-0.954557,163.729568
52013,0.492654,1.907945,9.672026,-0.394176,-0.144031,0.049099,-0.320784,0.099277,-0.500243,0.005022,0.019222,0.096687,0.999995,-0.001604,0.000496,-0.002501,-0.142678,-0.019394,-0.081865,-0.986187,9.614700,-0.853218,163.463756
52014,0.183955,0.974827,9.748616,0.138934,0.636218,-0.035396,-0.372099,0.135080,-0.596582,0.001935,0.009924,0.097467,0.999994,-0.001860,0.000675,-0.002983,-0.145538,-0.018235,-0.080144,-0.985933,9.401602,-0.723634,163.146368
52015,0.156668,1.230492,9.764793,0.065537,0.362312,0.023682,-0.322596,0.121028,-0.635334,0.001665,0.012457,0.097627,0.999993,-0.001613,0.000605,-0.003177,-0.148589,-0.017165,-0.078657,-0.985616,9.216260,-0.599337,162.805330
52016,0.424690,1.577097,9.614732,-0.329091,0.068608,-0.066020,-0.333434,0.141292,-0.644986,0.004366,0.015917,0.096118,0.999993,-0.001667,0.000706,-0.003225,-0.151677,-0.015984,-0.077133,-0.985286,9.024149,-0.463995,162.460268
52017,0.359389,1.644537,9.541875,-0.324102,-0.047613,-0.129011,-0.342550,0.179757,-0.616953,0.003731,0.016597,0.095387,0.999993,-0.001713,0.000899,-0.003085,-0.154612,-0.014615,-0.075589,-0.984971,8.825636,-0.310389,162.134041
52018,0.575441,1.777140,9.406074,-0.615129,-0.147688,-0.243820,-0.375863,0.237351,-0.602384,0.005920,0.017930,0.094020,0.999993,-0.001879,0.001187,-0.003012,-0.157454,-0.012945,-0.073925,-0.984670,8.607210,-0.126779,161.820515
52019,0.749292,1.890714,9.295382,-0.868751,-0.240832,-0.340237,-0.503185,0.337093,-0.654219,0.007712,0.019116,0.092893,0.999990,-0.002516,0.001685,-0.003271,-0.160519,-0.010662,-0.071713,-0.984366,8.314493,0.116467,161.485209
52020,1.213580,1.516087,8.881204,-1.270833,0.170463,-0.812547,-0.669799,0.486481,-0.746300,0.012409,0.015412,0.088731,0.999984,-0.003349,0.002432,-0.003731,-0.163989,-0.007478,-0.068805,-0.984031,7.924593,0.449758,161.108315
52021,1.321452,1.553426,8.606255,-1.471035,0.101997,-1.091909,-0.741536,0.665587,-0.793635,0.013563,0.015800,0.085960,0.999980,-0.003708,0.003328,-0.003968,-0.167627,-0.003337,-0.065689,-0.983654,7.490720,0.885754,160.715904
52022,1.145371,1.864395,8.593510,-1.501949,-0.280325,-1.077655,-0.828703,0.867283,-0.775716,0.011899,0.018954,0.085806,0.999974,-0.004143,0.004336,-0.003879,-0.171105,0.001863,-0.062312,-0.983279,7.004127,1.431836,160.344716
52023,1.348246,1.971077,8.434009,-1.846268,-0.365937,-1.251651,-0.973735,1.080653,-0.743913,0.014012,0.020069,0.084168,0.999967,-0.004869,0.005403,-0.003720,-0.174348,0.008226,-0.058400,-0.982916,6.431229,2.093776,160.000811
52024,0.419487,1.369275,8.937373,-0.903091,-0.105176,-0.807202,-1.094760,1.311574,-0.721078,0.004831,0.014165,0.089267,0.999957,-0.005474,0.006558,-0.003605,-0.177394,0.015822,-0.054092,-0.982525,5.785634,2.882154,159.676828
52025,-0.150043,1.286766,9.448414,-0.512125,-0.226567,-0.292491,-1.306484,1.424295,-0.775604,-0.000776,0.013488,0.094405,0.999946,-0.006532,0.007121,-0.003878,-0.180642,0.024172,-0.048833,-0.982038,5.011968,3.733676,159.317796
52026,-0.353440,0.147105,9.299801,-0.087520,0.681125,-0.530533,-1.262941,1.505707,-0.784945,-0.002827,0.002070,0.093009,0.999944,-0.006315,0.007528,-0.003925,-0.183903,0.032883,-0.043856,-0.981415,4.256928,4.627290,158.945471
52027,-0.711569,0.606514,9.704877,-0.127505,0.097584,-0.064389,-1.397905,1.567165,-0.808804,-0.006329,0.006770,0.097055,0.999937,-0.006989,0.007836,-0.004044,-0.187222,0.042020,-0.038263,-0.980672,3.416408,5.551654,158.548891
52028,-1.941503,-0.722192,10.053868,1.287761,0.842625,0.336182,-1.171705,1.509567,-0.747550,-0.018681,-0.006561,0.100721,0.999947,-0.005858,0.007548,-0.003738,-0.190279,0.050647,-0.033735,-0.979842,2.701492,6.435786,158.172584
52029,-2.254527,0.557171,10.413968,0.876440,-0.495068,0.809340,-1.163381,1.350018,-0.721184,-0.021820,0.006257,0.104254,0.999954,-0.005817,0.006750,-0.003606,-0.193216,0.058474,-0.029098,-0.978980,1.985726,7.223197,157.796007
52030,-1.778887,-0.698423,9.765791,0.815430,0.724785,0.078236,-1.063803,1.231317,-0.658712,-0.017209,-0.006407,0.097800,0.999961,-0.005319,0.006157,-0.003294,-0.195878,0.065611,-0.024850,-0.978115,1.325420,7.937069,157.443406
52031,-1.874288,0.102555,9.844923,0.432693,-0.098470,0.199657,-0.909609,1.180304,-0.606955,-0.018157,0.001529,0.098551,0.999968,-0.004548,0.005901,-0.003035,-0.198329,0.072336,-0.021321,-0.977230,0.752096,8.617383,157.111878
52032,-1.468406,0.045159,9.536100,-0.019661,0.039609,-0.164291,-0.988837,1.166426,-0.574082,-0.014125,0.000964,0.095441,0.999967,-0.004944,0.005832,-0.002870,-0.200580,0.079064,-0.017402,-0.976327,0.131423,9.286138,156.791615
52033,-1.822341,-0.411609,9.521263,0.343635,0.278686,-0.120041,-0.792438,1.172598,-0.463629,-0.017674,-0.003697,0.095333,0.999972,-0.003962,0.005863,-0.002318,-0.202357,0.085610,-0.014490,-0.975455,-0.371050,9.955443,156.528271
52034,-2.347820,0.413299,9.775054,0.313540,-0.700903,0.219439,-0.758891,1.112265,-0.367074,-0.022926,0.004547,0.097862,0.999976,-0.003794,0.005561,-0.001835,-0.203671,0.091817,-0.011722,-0.974654,-0.848131,10.588513,156.315204
52035,-2.063711,0.030645,9.629007,0.103296,-0.275891,0.030553,-0.729573,1.099407,-0.261433,-0.020107,0.000684,0.096400,0.999977,-0.003648,0.005497,-0.001307,-0.204475,0.097921,-0.009131,-0.973919,-1.300254,11.213660,156.158230
52036,-3.266779,-0.215978,10.148057,1.053742,-0.524834,0.785152,-0.709190,1.033847,-0.207120,-0.032145,-0.001766,0.101654,0.999980,-0.003546,0.005169,-0.001036,-0.205018,0.103678,-0.006600,-0.973229,-1.736690,11.800838,156.028765
52037,-2.357516,-0.747420,9.682073,0.426348,0.272595,0.167391,-0.599727,0.910855,-0.162517,-0.023140,-0.007165,0.096949,0.999985,-0.002999,0.004554,-0.000813,-0.205398,0.108719,-0.004496,-0.972611,-2.106750,12.317595,155.923326
52038,-1.413480,-0.104963,9.062417,-0.645828,0.013195,-0.662919,-0.488394,0.947049,-0.114741,-0.013706,-0.000820,0.090692,0.999986,-0.002442,0.004735,-0.000574,-0.205600,0.113818,-0.002999,-0.971990,-2.408619,12.855481,155.841786
52039,-1.615548,0.143852,9.085383,-0.674679,-0.300499,-0.613320,-0.522494,1.076740,-0.083363,-0.015665,0.001683,0.090935,0.999982,-0.002612,0.005384,-0.000417,-0.205621,0.119578,-0.001485,-0.971298,-2.728279,13.468016,155.772061
52040,-3.357797,-0.596049,10.062960,0.819259,-0.273842,0.777195,-0.554032,1.106246,-0.064811,-0.033022,-0.005671,0.100829,0.999981,-0.002770,0.005531,-0.000324,-0.205525,0.125509,0.000139,-0.970570,-3.065102,14.097522,155.708621
52041,-3.937964,-1.087297,10.405378,1.321839,-0.045598,1.287367,-0.477779,0.919141,-0.059942,-0.038904,-0.010612,0.104259,0.999987,-0.002389,0.004596,-0.000300,-0.205446,0.130450,0.001583,-0.969934,-3.357668,14.619861,155.650498
52042,-2.609738,-0.885810,9.668682,0.156183,0.256624,0.236586,-0.382611,0.788859,-0.049583,-0.025718,-0.008667,0.096805,0.999990,-0.001913,0.003944,-0.000248,-0.205374,0.134658,0.002692,-0.969372,-3.593942,15.067727,155.600594
52043,-1.360668,-0.124265,8.828745,-1.110887,0.011799,-0.948219,-0.408317,0.857415,-0.053028,-0.013228,-0.001059,0.088347,0.999989,-0.002042,0.004287,-0.000265,-0.205298,0.139222,0.003859,-0.968739,-3.847288,15.554537,155.543873
52044,-0.503410,-0.604257,7.915858,-1.510926,0.747270,-2.038540,-0.424287,1.056056,-0.017713,-0.004617,-0.005874,0.079196,0.999984,-0.002121,0.005280,-0.000089,-0.205037,0.144761,0.004873,-0.967977,-4.107312,16.155955,155.497552
52045,-0.116271,0.095206,7.664801,-2.151074,0.255307,-2.458880,-0.414417,1.352829,0.074882,-0.000645,0.001111,0.076651,0.999975,-0.002072,0.006764,0.000374,-0.204335,0.151723,0.005469,-0.967056,-4.351210,16.930683,155.490389
52046,-1.580525,0.167221,8.239874,-1.195176,-0.345621,-1.513771,-0.461082,1.627419,0.193742,-0.015136,0.001847,0.082520,0.999964,-0.002305,0.008137,0.000969,-0.203017,0.160054,0.005918,-0.965988,-4.605435,17.867515,155.537973
52047,-6.316794,-0.041554,10.872055,1.995923,-1.853126,2.462635,-0.581936,1.668816,0.227691,-0.062258,-0.000169,0.109243,0.999960,-0.002910,0.008344,0.001138,-0.201424,0.168696,0.006883,-0.964843,-4.923973,18.829774,155.599201
52048,-7.588300,-2.423254,11.636092,3.573574,-0.104291,3.828036,-0.628795,1.073063,0.171874,-0.075236,-0.023931,0.116841,0.999980,-0.003144,0.005365,0.000859,-0.200029,0.174499,0.008719,-0.964086,-5.270810,19.449562,155.653209
52049,-3.508677,-1.371182,9.681233,0.203773,0.411857,0.565436,-0.365820,0.765973,0.134405,-0.034706,-0.013558,0.096971,0.999991,-0.001829,0.003830,0.000672,-0.199024,0.178554,0.009628,-0.963543,-5.469379,19.892488,155.699005
52050,-1.272468,-0.889545,8.114503,-1.434765,0.754499,-1.711623,-0.365723,0.916084,0.097311,-0.012348,-0.008753,0.081218,0.999988,-0.001829,0.004580,0.000487,-0.198202,0.183325,0.010419,-0.962808,-5.678758,20.419013,155.711875
52051,-2.174154,-0.447379,8.371541,-1.015290,0.022230,-1.211666,-0.340578,1.168431,0.128468,-0.021249,-0.004345,0.083848,0.999981,-0.001703,0.005842,0.000642,-0.197259,0.189282,0.010811,-0.961844,-5.873218,21.091277,155.726197
52052,-3.578639,-0.360967,9.080249,-0.229168,-0.541811,-0.063819,-0.412075,1.259155,0.168278,-0.035211,-0.003452,0.091033,0.999978,-0.002060,0.006296,0.000841,-0.196054,0.195740,0.011419,-0.960790,-6.102504,21.817610,155.756510
52053,-4.631916,-0.801889,9.475134,0.547092,-0.496986,0.738523,-0.426892,1.203561,0.206340,-0.045740,-0.007864,0.095045,0.999979,-0.002134,0.006018,0.001032,-0.194640,0.201940,0.012115,-0.959786,-6.330939,22.514779,155.810935
52054,-3.679328,-0.724533,8.916549,-0.186803,-0.222009,-0.144079,-0.403361,1.109104,0.240337,-0.036289,-0.007109,0.089382,0.999982,-0.002017,0.005545,0.001202,-0.193073,0.207657,0.012754,-0.958874,-6.535481,23.160504,155.890389
52055,-2.016145,-0.526086,7.941424,-1.369331,0.179864,-1.719513,-0.393743,1.230309,0.315406,-0.019664,-0.005136,0.079546,0.999978,-0.001969,0.006151,0.001577,-0.191156,0.213943,0.013153,-0.957870,-6.719436,23.880465,156.005674
52056,-1.694950,0.043639,7.490619,-1.764405,-0.237167,-2.341838,-0.437912,1.503937,0.411881,-0.016387,0.000566,0.075030,0.999967,-0.002190,0.007520,0.002059,-0.188738,0.221575,0.013397,-0.956610,-6.911490,24.762952,156.158938
52057,-2.830075,-0.207646,7.848677,-1.017671,-0.375623,-1.537698,-0.532796,1.800762,0.529791,-0.027587,-0.001941,0.078743,0.999952,-0.002664,0.009004,0.002649,-0.185655,0.230707,0.013684,-0.955049,-7.134771,25.822977,156.361002
52058,-9.170056,-0.933397,10.951256,2.883374,-1.758541,4.096996,-0.625381,1.749972,0.522311,-0.090713,-0.009228,0.110338,0.999953,-0.003127,0.008750,0.002612,-0.182480,0.239660,0.014466,-0.953444,-7.409467,26.854391,156.559110
52059,-10.336368,-3.182805,11.755410,4.029460,0.017972,5.644385,-0.580839,0.945613,0.403690,-0.102742,-0.031693,0.118133,0.999983,-0.002904,0.004728,0.002018,-0.179854,0.244714,0.015912,-0.952636,-7.661573,27.420856,156.745463
52060,-5.607692,-2.760684,9.625494,0.920403,1.171414,1.567030,-0.369559,0.487381,0.253778,-0.055807,-0.027500,0.096442,0.999995,-0.001848,0.002437,0.001269,-0.178160,0.247378,0.016946,-0.952248,-7.818020,27.716145,156.874164
52061,-2.277483,-2.119635,7.488451,-1.044350,1.610750,-1.934156,-0.274199,0.593195,0.120323,-0.022540,-0.021107,0.074981,0.999994,-0.001371,0.002966,0.000602,-0.177226,0.250447,0.017598,-0.951608,-7.964043,28.061419,156.907186
52062,-2.124525,-0.934775,7.196816,-1.478956,0.545453,-2.416993,-0.190728,0.948456,0.129419,-0.020898,-0.009293,0.072077,0.999988,-0.000954,0.004742,0.000647,-0.176381,0.255129,0.017525,-0.950522,-8.074768,28.608913,156.913134
52063,-3.368722,-0.127928,7.808865,-1.122841,-0.586173,-1.402111,-0.280096,1.184836,0.263807,-0.033222,-0.001214,0.078288,0.999981,-0.001400,0.005924,0.001319,-0.174800,0.261017,0.017497,-0.949215,-8.205854,29.301452,156.982922
52064,-4.218096,0.002037,8.014409,-0.692306,-0.961189,-0.833891,-0.367796,1.288923,0.435600,-0.041663,0.000077,0.080414,0.999975,-0.001839,0.006445,0.002178,-0.172289,0.267478,0.017569,-0.947873,-8.336280,30.067245,157.153704
52065,-4.252926,0.029516,7.819823,-0.689587,-0.982761,-0.992524,-0.477334,1.370787,0.586909,-0.041993,0.000358,0.078486,0.999969,-0.002387,0.006854,0.002935,-0.168913,0.274420,0.017887,-0.946489,-8.481460,30.892510,157.415235
52066,-4.561109,-0.237704,7.587078,-0.365709,-0.817015,-1.002400,-0.560246,1.507202,0.684413,-0.045030,-0.002319,0.076218,0.999962,-0.002801,0.007536,0.003422,-0.164962,0.282068,0.018346,-0.944928,-8.644194,31.803946,157.727658
52067,-4.938104,-0.811496,7.515942,0.001539,-0.366996,-0.790707,-0.627292,1.615917,0.745723,-0.048741,-0.008061,0.075580,0.999955,-0.003136,0.008079,0.003729,-0.160623,0.290266,0.018944,-0.943179,-8.825055,32.783112,158.069919
52068,-5.850568,-1.174115,7.681731,0.567950,-0.255527,-0.105671,-0.557809,1.729762,0.796953,-0.057791,-0.011757,0.077352,0.999951,-0.002789,0.008649,0.003985,-0.156139,0.298923,0.019047,-0.941224,-8.948081,33.831991,158.435666
52069,-9.987910,-1.515489,9.760206,2.486054,-1.013558,3.975150,-0.592356,1.552525,0.684652,-0.099065,-0.015204,0.098418,0.999960,-0.002962,0.007763,0.003423,-0.152101,0.306736,0.019617,-0.939358,-9.117560,34.771302,158.744799
52070,-10.399960,-3.118823,10.257540,2.769492,0.472975,4.857268,-0.510568,0.904274,0.497173,-0.103457,-0.031183,0.103124,0.999983,-0.002553,0.004521,0.002486,-0.148996,0.311405,0.020583,-0.938298,-9.269814,35.327465,158.996501
52071,-7.691326,-2.820773,9.245850,1.117763,0.948768,2.453081,-0.340688,0.446504,0.287847,-0.076666,-0.028160,0.092678,0.999995,-0.001703,0.002233,0.001439,-0.147088,0.313774,0.021418,-0.937791,-9.377499,35.606006,159.154759
52072,-4.966237,-2.233386,7.711220,-0.246895,1.101129,-0.440342,-0.188019,0.371318,0.127332,-0.049505,-0.022293,0.077225,0.999998,-0.000940,0.001857,0.000637,-0.146163,0.315657,0.021844,-0.937294,-9.457281,35.827051,159.209941
52073,-3.377514,-1.143613,6.785059,-1.223161,0.475022,-2.260831,-0.108717,0.594955,0.128901,-0.033566,-0.011421,0.067957,0.999995,-0.000544,0.002975,0.000645,-0.145379,0.318529,0.021733,-0.936447,-9.506295,36.174841,159.239932
52074,-3.741387,-0.043507,6.849605,-1.327684,-0.662909,-2.150158,-0.121307,0.903315,0.259134,-0.037103,-0.000442,0.068664,0.999989,-0.000607,0.004517,0.001296,-0.143996,0.322861,0.021248,-0.935187,-9.529494,36.709066,159.325070
52075,-4.722418,0.209540,7.152750,-0.918845,-1.141724,-1.365296,-0.231048,1.100588,0.459289,-0.046834,0.002070,0.071784,0.999982,-0.001155,0.005503,0.002296,-0.141517,0.328208,0.020811,-0.933713,-9.543471,37.373893,159.528818
52076,-5.589927,0.157922,7.348820,-0.476937,-1.289016,-0.681021,-0.334174,1.199056,0.632993,-0.055462,0.001526,0.073819,0.999976,-0.001671,0.005995,0.003165,-0.138061,0.334090,0.020499,-0.932149,-9.544613,38.110770,159.846723
52077,-5.933986,-0.261959,7.221143,-0.148106,-0.946311,-0.511769,-0.432735,1.255531,0.733533,-0.058875,-0.002679,0.072588,0.999971,-0.002164,0.006278,0.003668,-0.133971,0.340297,0.020439,-0.930501,-9.556031,38.889244,160.233540
52078,-6.399088,-0.717245,7.158629,0.221751,-0.589121,-0.204824,-0.455511,1.300094,0.796352,-0.063495,-0.007262,0.072017,0.999968,-0.002278,0.006500,0.003982,-0.129547,0.346711,0.020347,-0.928760,-9.547984,39.698777,160.665091
52079,-6.757863,-0.722836,7.186561,0.340682,-0.621206,0.053127,-0.415776,1.311890,0.851346,-0.067074,-0.007365,0.072322,0.999967,-0.002079,0.006559,0.004257,-0.124928,0.353139,0.019965,-0.926978,-9.483459,40.520089,161.141607
52080,-7.199694,-0.464732,7.295096,0.404275,-0.916262,0.398355,-0.438940,1.293816,0.872772,-0.071502,-0.004799,0.073425,0.999967,-0.002195,0.006469,0.004364,-0.120160,0.359474,0.019664,-0.925177,-9.410397,41.332649,161.643553
52081,-7.670921,-1.083495,7.348640,0.703836,-0.364671,0.835756,-0.451739,1.239555,0.869411,-0.076204,-0.011000,0.073984,0.999969,-0.002259,0.006198,0.004347,-0.115370,0.365545,0.019458,-0.923411,-9.331483,42.113857,162.157372
52082,-8.049066,-1.275404,7.597887,0.710942,-0.191919,1.304781,-0.408976,1.122607,0.801580,-0.080011,-0.012919,0.076455,0.999974,-0.002045,0.005613,0.004008,-0.110955,0.371021,0.019246,-0.921771,-9.243235,42.821963,162.641452
52083,-7.879133,-1.792704,7.550899,0.603463,0.402182,1.222865,-0.361747,0.979836,0.711803,-0.078356,-0.018069,0.075926,0.999980,-0.001809,0.004899,0.003559,-0.107021,0.375789,0.019061,-0.920307,-9.154478,43.440716,163.080609
52084,-7.391123,-1.321223,7.325116,0.234030,0.085009,0.673912,-0.219902,0.858911,0.651368,-0.073552,-0.013371,0.073582,0.999985,-0.001100,0.004295,0.003257,-0.103617,0.379905,0.018401,-0.919020,-8.999328,43.984733,163.493624
52085,-6.618637,-0.249756,7.039787,-0.371400,-0.772845,-0.185046,-0.262148,0.847443,0.661148,-0.065879,-0.002623,0.070681,0.999985,-0.001311,0.004237,0.003306,-0.100083,0.383980,0.017921,-0.917726,-8.855125,44.522532,163.921560
52086,-6.367143,-0.546636,6.569434,-0.240136,-0.411702,-0.660153,-0.310299,0.928325,0.759837,-0.063344,-0.005605,0.065997,0.999981,-0.001551,0.004642,0.003799,-0.096008,0.388444,0.017432,-0.916291,-8.682625,45.113718,164.424573
52087,-6.597830,-0.620146,6.452748,-0.075282,-0.338810,-0.569719,-0.277577,1.027583,0.880165,-0.065618,-0.006401,0.064874,0.999976,-0.001388,0.005138,0.004401,-0.091450,0.393343,0.016511,-0.914684,-8.420556,45.770219,165.021463
52088,-7.073115,-0.718871,6.609831,0.049701,-0.259114,-0.108836,-0.260280,1.087500,0.965116,-0.070335,-0.007442,0.066491,0.999973,-0.001301,0.005437,0.004826,-0.086537,0.398492,0.015315,-0.912952,-8.090025,46.465331,165.692860
52089,-7.498342,-0.823607,6.709838,0.172276,-0.150470,0.280460,-0.195293,1.077356,1.024931,-0.074577,-0.008553,0.067509,0.999972,-0.000976,0.005387,0.005125,-0.081475,0.403551,0.013707,-0.911219,-7.668408,47.156497,166.430337
52090,-7.487377,0.050650,6.857331,-0.162214,-0.921878,0.297153,-0.157790,1.016911,1.121395,-0.074525,0.000142,0.068953,0.999971,-0.000789,0.005085,0.005607,-0.076041,0.408302,0.011758,-0.909598,-7.141684,47.816066,167.273334
52091,-7.257985,0.612578,6.727247,-0.375365,-1.365009,0.000782,-0.304875,1.002918,1.242203,-0.072278,0.005779,0.067626,0.999967,-0.001524,0.005015,0.006211,-0.069751,0.413027,0.010234,-0.907986,-6.599962,48.470801,168.240766
52092,-7.023920,0.363460,6.420307,-0.350855,-1.015142,-0.350496,-0.367370,1.034414,1.422704,-0.069930,0.003255,0.064559,0.999960,-0.001837,0.005172,0.007113,-0.062509,0.417895,0.008611,-0.906302,-5.954209,49.147885,169.384236
52093,-6.814649,1.016008,6.142055,-0.425937,-1.558450,-0.725052,-0.445462,1.128785,1.621395,-0.067879,0.009746,0.061782,0.999949,-0.002227,0.005644,0.008107,-0.054202,0.423185,0.006895,-0.904394,-5.195022,49.880743,170.723388
52094,-7.040676,0.484264,5.975310,-0.196734,-0.963028,-0.618010,-0.597432,1.286773,1.802761,-0.070061,0.004389,0.060191,0.999934,-0.002987,0.006434,0.009014,-0.044752,0.429186,0.005440,-0.902090,-4.367043,50.700206,172.250122
52095,-7.614552,-0.179240,5.749819,0.274761,-0.240326,-0.276552,-0.459849,1.379716,1.990094,-0.075724,-0.002414,0.058027,0.999924,-0.002299,0.006898,0.009950,-0.034748,0.435521,0.002939,-0.899503,-3.278795,51.563712,173.991393
52096,-8.132513,0.066904,5.776622,0.429219,-0.375923,0.146360,-0.369524,1.443302,2.034934,-0.080907,-0.000048,0.058351,0.999920,-0.001848,0.007216,0.010174,-0.024736,0.442057,-0.000075,-0.896646,-2.043356,52.442333,175.833108
52097,-8.795507,-0.323207,5.993081,0.536554,0.150647,0.820637,-0.222663,1.414094,2.027922,-0.087490,-0.004054,0.060555,0.999923,-0.001113,0.007070,0.010139,-0.015074,0.448375,-0.003731,-0.893711,-0.656326,53.278111,177.738106
52098,-8.945119,0.149073,6.022344,0.447329,-0.147990,0.961345,-0.086787,1.299672,2.043313,-0.089067,0.000606,0.060803,0.999927,-0.000434,0.006498,0.010216,-0.005650,0.454102,-0.008017,-0.890896,0.892705,54.018420,179.728360
52099,-9.138116,0.809154,6.244846,0.246479,-0.609221,1.265283,0.055952,1.128884,2.217404,-0.091109,0.007063,0.062965,0.999923,0.000280,0.005644,0.011087,0.004221,0.458990,-0.013330,-0.888331,2.728332,54.622769,-178.046411
52100,-9.020223,1.937849,6.268744,0.059955,-1.523931,1.236576,0.063042,0.917951,2.402626,-0.090137,0.018276,0.063107,0.999917,0.000315,0.004590,0.012013,0.014883,0.462853,-0.019100,-0.886104,4.769632,55.055175,-175.588627
52101,-8.703981,1.666255,5.902565,0.102219,-1.083715,0.779221,-0.439176,0.947276,2.102387,-0.086929,0.015879,0.059402,0.999931,-0.002196,0.004736,0.010512,0.025378,0.466768,-0.021948,-0.883743,6.329793,55.476370,-173.379154
52102,-9.698933,-1.583234,5.931332,0.462602,2.374922,1.407804,-0.384005,0.819511,1.765837,-0.096601,-0.016572,0.059741,0.999951,-0.001920,0.004097,0.008829,0.034240,0.470106,-0.024265,-0.881612,7.668868,55.816264,-171.485533
52103,-9.322826,-0.840158,6.188133,-0.031147,1.746330,1.271590,-0.070390,0.599220,1.552731,-0.092973,-0.009102,0.062163,0.999965,-0.000352,0.002996,0.007764,0.041396,0.472513,-0.027502,-0.879921,9.009996,56.024012,-169.812769
52104,-8.531851,1.048316,5.876793,-0.180732,-0.086228,0.598206,-0.042017,0.459880,1.432276,-0.085255,0.009885,0.058962,0.999972,-0.000210,0.002299,0.007161,0.047933,0.474298,-0.030603,-0.878525,10.260923,56.143212,-168.271237
52105,-7.638578,0.949344,5.156617,-0.114660,0.008304,-0.548465,-0.207124,0.497758,1.306007,-0.076317,0.009048,0.051747,0.999975,-0.001036,0.002489,0.006530,0.054310,0.476205,-0.032671,-0.877047,11.327139,56.279983,-166.840661
52106,-7.649180,-0.312396,4.805509,0.050494,1.345449,-0.874751,-0.127126,0.642700,1.244574,-0.076316,-0.003569,0.048303,0.999975,-0.000636,0.003213,0.006223,0.060248,0.478754,-0.034901,-0.875184,12.424069,56.490114,-165.430899
52107,-7.942439,0.684085,4.867634,0.157335,0.497442,-0.486889,0.167747,0.731345,1.349641,-0.079289,0.006264,0.048972,0.999970,0.000839,0.003657,0.006748,0.065953,0.481737,-0.038646,-0.872976,13.813295,56.719181,-163.877190
52108,-8.337711,2.349138,5.178355,0.161540,-0.966633,0.231662,0.159888,0.759863,1.465330,-0.083348,0.022839,0.052119,0.999966,0.000799,0.003799,0.007327,0.072182,0.484786,-0.042621,-0.870607,15.321199,56.925594,-162.179979
52109,-8.513856,2.410295,5.266605,0.116827,-0.868853,0.447047,0.009706,0.711195,1.505162,-0.085129,0.023460,0.052970,0.999965,0.000049,0.003556,0.007526,0.078933,0.487528,-0.046056,-0.868312,16.782886,57.074859,-160.438924
52110,-8.456673,1.416029,5.102236,0.070957,0.222160,0.162145,-0.045125,0.685432,1.504655,-0.084495,0.013536,0.051309,0.999966,-0.000226,0.003427,0.007523,0.085804,0.490101,-0.049256,-0.866032,18.218013,57.186021,-158.694429
52111,-8.353501,1.450023,5.047939,0.000982,0.290781,0.050326,0.075922,0.670446,1.486368,-0.083470,0.013860,0.050765,0.999967,0.000380,0.003352,0.007432,0.092291,0.492634,-0.052941,-0.863708,19.712683,57.268305,-156.963735
52112,-8.534242,1.947313,5.206316,-0.059380,-0.032651,0.371849,0.137785,0.646536,1.422736,-0.085309,0.018830,0.052352,0.999969,0.000689,0.003233,0.007114,0.098337,0.495076,-0.056742,-0.861400,21.188331,57.326105,-155.298890
52113,-8.687392,2.394343,5.157298,0.045218,-0.308057,0.565310,0.141434,0.591604,1.390794,-0.086884,0.023303,0.051847,0.999971,0.000707,0.002958,0.006954,0.104216,0.497263,-0.060505,-0.859190,22.625542,57.338713,-153.683073
52114,-8.298524,2.182168,4.888631,0.005511,-0.070393,0.062511,0.156792,0.580766,1.423625,-0.082995,0.021192,0.049144,0.999970,0.000784,0.002904,0.007118,0.110187,0.499371,-0.064415,-0.856935,24.093897,57.315984,-152.040389
52115,-8.226189,2.609069,4.854376,-0.005731,-0.375605,0.081735,0.233864,0.607493,1.445313,-0.082299,0.025439,0.048824,0.999969,0.001169,0.003037,0.007226,0.116062,0.501599,-0.068694,-0.854523,25.631569,57.278717,-150.367500
52116,-8.734565,2.806414,5.116043,-0.030157,-0.298758,0.687339,0.208112,0.558804,1.415045,-0.087398,0.027392,0.051433,0.999971,0.001041,0.002794,0.007075,0.121847,0.503582,-0.072808,-0.852207,27.105392,57.200379,-148.751663
52117,-8.983985,2.580589,5.288768,-0.150327,0.119037,0.925291,0.177285,0.417097,1.334594,-0.089899,0.025159,0.053098,0.999975,0.000886,0.002085,0.006673,0.127309,0.504946,-0.076673,-0.850261,28.431188,57.050353,-147.289212
52118,-9.171371,2.621124,5.364949,-0.166438,0.267623,1.126512,0.222124,0.241359,1.337026,-0.091821,0.025538,0.053789,0.999976,0.001111,0.001207,0.006685,0.132594,0.505564,-0.080841,-0.848698,29.693840,56.793728,-145.929155
52119,-8.383944,2.759700,5.120858,-0.313428,0.028808,0.386776,0.216030,0.101095,1.416356,-0.084006,0.026947,0.051280,0.999974,0.001080,0.000505,0.007082,0.138169,0.505526,-0.085275,-0.847396,30.929390,56.428661,-144.592780
52120,-7.547540,2.478478,4.530317,-0.230711,0.136842,-0.671608,0.082953,0.223257,1.119789,-0.075562,0.024343,0.045398,0.999984,0.000415,0.001116,0.005599,0.142869,0.506018,-0.088304,-0.846012,31.902023,56.197807,-143.475869
52121,-8.598443,1.934234,4.758049,-0.071396,1.086939,0.143532,0.125710,0.260136,0.942846,-0.086012,0.018907,0.047704,0.999988,0.000629,0.001301,0.004714,0.146725,0.506761,-0.091041,-0.844616,32.776327,56.029072,-142.504546
52122,-8.690461,2.786752,4.916193,-0.066610,0.408099,0.545269,0.221695,0.181697,0.969722,-0.086993,0.027391,0.049271,0.999987,0.001108,0.000908,0.004849,0.150411,0.507216,-0.094303,-0.843336,33.677852,55.805951,-141.564274
52123,-8.506970,3.526602,4.990301,-0.115585,-0.249976,0.657836,0.160398,0.099377,1.022956,-0.085224,0.034790,0.049973,0.999986,0.000802,0.000497,0.005115,0.154435,0.507241,-0.097504,-0.842229,34.530470,55.518626,-140.638067
52124,-8.195245,2.925185,4.863871,-0.247043,0.296043,0.148566,0.102981,0.032082,1.026534,-0.082093,0.028806,0.048667,0.999987,0.000515,0.000160,0.005133,0.158581,0.506922,-0.100519,-0.841296,35.305491,55.191130,-139.762550
52125,-7.789578,2.660479,4.568151,-0.215168,0.476161,-0.413212,0.127105,0.084405,0.888569,-0.077994,0.026229,0.045731,0.999990,0.000636,0.000422,0.004443,0.162110,0.506899,-0.103244,-0.840306,36.013860,54.927641,-138.982276
52126,-8.168086,3.301980,4.798708,-0.160861,0.104285,0.217819,0.174576,0.094607,0.793857,-0.081788,0.032653,0.048054,0.999992,0.000873,0.000473,0.003969,0.165122,0.506996,-0.105916,-0.839328,36.681516,54.695700,-138.282506
52127,-8.486219,3.922769,5.075862,-0.173702,-0.260898,0.820728,0.172633,0.005964,0.848632,-0.085026,0.038823,0.050795,0.999991,0.000863,0.000030,0.004243,0.168319,0.506683,-0.108792,-0.838514,37.331401,54.399665,-137.601106
52128,-8.844296,4.430382,5.195265,-0.035441,-0.484380,1.349914,0.196020,-0.158887,1.023248,-0.088709,0.043800,0.051925,0.999986,0.000980,-0.000794,0.005116,0.172095,0.505590,-0.112343,-0.837939,38.011777,53.963181,-136.895294
52129,-8.894679,4.795116,5.807429,-0.466913,-0.651955,1.814409,0.206489,-0.417562,1.376428,-0.089395,0.047277,0.057937,0.999974,0.001032,-0.002088,0.006882,0.177172,0.503203,-0.117051,-0.837673,38.769827,53.279659,-136.095641
52130,-6.500925,3.102707,4.390494,-0.513349,0.000013,-1.392424,0.068154,-0.374070,1.243117,-0.065282,0.030607,0.043793,0.999979,0.000341,-0.001870,0.006216,0.182055,0.500930,-0.120797,-0.837457,39.364542,52.658124,-135.394255
52131,-7.166133,3.485913,4.703563,-0.411795,0.032462,-0.568370,0.118633,-0.172871,0.883814,-0.071855,0.034514,0.046994,0.999990,0.000593,-0.000864,0.004419,0.185424,0.499746,-0.123670,-0.837005,39.859824,52.252590,-134.850168
52132,-8.152731,3.698015,4.909995,-0.116880,0.358829,0.390611,0.215758,-0.203318,0.843085,-0.081732,0.036583,0.049057,0.999990,0.001079,-0.001017,0.004215,0.188356,0.498539,-0.126871,-0.836591,40.362247,51.845961,-134.364375
52133,-8.812429,5.444456,5.386736,0.098279,-0.793599,1.835358,0.246568,-0.373243,1.070381,-0.088514,0.053905,0.053769,0.999983,0.001233,-0.001866,0.005352,0.192050,0.496493,-0.130926,-0.836343,40.915927,51.277808,-133.832640
52134,-9.300635,6.268063,5.917018,0.054587,-1.128784,2.817463,0.204935,-0.707362,1.501703,-0.093682,0.061918,0.058903,0.999965,0.001025,-0.003537,0.007508,0.197421,0.492701,-0.136190,-0.836495,41.501244,50.399652,-133.223708
52135,-9.372079,6.150838,6.250760,-0.126146,-0.750933,2.999561,0.166987,-1.135788,1.994473,-0.094681,0.060515,0.062023,0.999934,0.000835,-0.005679,0.009972,0.204635,0.486693,-0.142920,-0.837154,42.092439,49.146288,-132.569411
52136,-8.767768,5.824534,6.323347,-0.374784,-0.480299,2.451226,0.098844,-1.473542,2.256056,-0.088790,0.057217,0.062610,0.999909,0.000494,-0.007367,0.011280,0.212836,0.478939,-0.150322,-0.838285,42.585125,47.645121,-131.980606
52137,-8.152682,5.347961,6.346720,-0.598540,-0.098198,1.805015,-0.002928,-1.691874,2.286111,-0.082664,0.052540,0.062770,0.999899,-0.000015,-0.008459,0.011430,0.221201,0.470045,-0.157576,-0.839820,42.908065,46.037503,-131.530086
52138,-7.701091,4.710926,6.263225,-0.692227,0.464952,1.142873,-0.045054,-1.816907,2.200517,-0.078088,0.046268,0.061916,0.999898,-0.000225,-0.009084,0.011002,0.229162,0.460551,-0.164554,-0.841605,43.095807,44.409749,-131.223261
52139,-7.526594,4.663218,6.286359,-0.616978,0.657007,1.008284,-0.039702,-1.916132,2.105604,-0.076349,0.045845,0.062126,0.999899,-0.000199,-0.009580,0.010528,0.236583,0.450629,-0.171419,-0.843551,43.196197,42.776993,-131.038797
52140,-7.158140,5.049661,6.155664,-0.396479,0.357343,0.880199,-0.074428,-1.972398,2.016279,-0.072688,0.049790,0.060825,0.999900,-0.000372,-0.009862,0.010081,0.243609,0.440414,-0.177966,-0.845588,43.214401,41.155817,-130.941425
52141,-7.115477,5.210581,6.223442,-0.231304,0.432243,0.969868,-0.176998,-2.016965,1.937565,-0.072278,0.051464,0.061464,0.999902,-0.000885,-0.010084,0.009688,0.250440,0.429868,-0.183927,-0.847741,43.128519,39.546743,-130.911113
52142,-6.822965,4.968936,6.251257,-0.258133,0.669353,0.665854,-0.302341,-2.037977,1.838063,-0.069315,0.049149,0.061735,0.999905,-0.001512,-0.010190,0.009190,0.257050,0.419083,-0.189130,-0.850014,42.932597,37.968009,-130.940523
52143,-7.096138,5.176055,6.777727,-0.269661,0.920396,1.239787,-0.344914,-2.047763,1.692590,-0.072085,0.051270,0.066954,0.999910,-0.001725,-0.010239,0.008463,0.263074,0.408261,-0.193828,-0.852376,42.668988,36.441551,-131.042831
52144,-7.783773,6.154682,7.355797,0.166441,0.833171,2.509787,-0.538065,-2.210083,1.590572,-0.079130,0.061117,0.072523,0.999904,-0.002690,-0.011050,0.007953,0.268851,0.396516,-0.197669,-0.855232,42.228604,34.885609,-131.262026
52145,-7.658642,4.922121,7.324786,0.032624,1.898989,1.716311,-0.723022,-2.395777,1.508730,-0.077825,0.048899,0.072143,0.999893,-0.003615,-0.011978,0.007543,0.274406,0.383728,-0.200767,-0.858572,41.627577,33.280158,-131.587847
52146,-6.760012,3.684822,6.713000,-0.115474,2.371149,0.121943,-0.622061,-2.535676,1.402365,-0.068700,0.036576,0.066150,0.999890,-0.003110,-0.012678,0.007012,0.279110,0.370501,-0.204242,-0.862039,41.042898,31.652192,-132.005036
52147,-4.900656,3.699303,6.113721,-0.488996,1.242983,-1.251746,-0.344586,-2.508059,1.269259,-0.050001,0.036782,0.060451,0.999900,-0.001723,-0.012540,0.006346,0.282696,0.357838,-0.208585,-0.865175,40.611188,30.082947,-132.453415
52148,-3.714368,4.522491,5.938304,-0.585767,-0.029299,-1.496128,-0.204825,-2.303682,1.128801,-0.038079,0.045072,0.058902,0.999917,-0.001024,-0.011518,0.005644,0.285585,0.346337,-0.212953,-0.867838,40.287064,28.652571,-132.866285
52149,-3.850560,5.125447,6.260211,-0.361838,-0.211057,-0.862357,-0.159331,-2.020322,1.031648,-0.039399,0.051102,0.062166,0.999935,-0.000797,-0.010101,0.005158,0.288233,0.336183,-0.216915,-0.869972,40.036978,27.380342,-133.195304
52150,-4.231113,5.394381,6.438585,-0.001008,-0.013851,-0.407705,-0.257885,-1.838370,0.954788,-0.043157,0.053822,0.063922,0.999946,-0.001289,-0.009192,0.004774,0.290874,0.326720,-0.220030,-0.871913,39.757904,26.215060,-133.477079
52151,-3.773481,5.018067,6.468671,-0.287524,0.071808,-0.803050,-0.329256,-1.679634,0.861763,-0.038492,0.050122,0.064283,0.999954,-0.001646,-0.008398,0.004309,0.293373,0.317915,-0.222429,-0.873721,39.455038,25.152510,-133.730817
52152,-4.351898,5.225346,6.939087,-0.023816,0.484929,-0.109287,-0.306980,-1.585734,0.759125,-0.044265,0.052192,0.068962,0.999960,-0.001535,-0.007929,0.003796,0.295466,0.309640,-0.224605,-0.875429,39.167163,24.167733,-133.988974
52153,-4.505162,5.253480,7.021526,0.178516,0.668368,0.021759,-0.335277,-1.591754,0.660434,-0.045781,0.052502,0.069765,0.999961,-0.001676,-0.007959,0.003302,0.297141,0.301382,-0.226495,-0.877255,38.849911,23.214592,-134.289846
52154,-4.045934,5.270402,7.004275,0.050305,0.428989,-0.168113,-0.319130,-1.593921,0.554813,-0.041162,0.052702,0.069632,0.999963,-0.001596,-0.007970,0.002774,0.298303,0.293236,-0.228283,-0.879155,38.529308,22.296843,-134.634927
52155,-3.833620,5.429714,6.882225,0.198189,0.218516,-0.249509,-0.348778,-1.579778,0.487797,-0.039010,0.054322,0.068421,0.999964,-0.001744,-0.007899,0.002439,0.299209,0.285163,-0.229805,-0.881105,38.189648,21.407431,-134.999102
52156,-2.892116,5.210468,6.368564,-0.045808,-0.305919,-1.096338,-0.417820,-1.494583,0.396869,-0.029499,0.052179,0.063358,0.999968,-0.002089,-0.007473,0.001984,0.299890,0.277447,-0.230750,-0.883088,37.814161,20.586495,-135.366979
52157,-2.476534,5.047250,6.302776,-0.230303,-0.434987,-1.381222,-0.437866,-1.302286,0.305010,-0.025252,0.050572,0.062754,0.999975,-0.002189,-0.006511,0.001525,0.300397,0.270640,-0.231177,-0.884914,37.443819,19.882708,-135.700049
52158,-3.021930,5.252507,6.719998,0.068479,-0.086319,-0.764695,-0.413057,-1.133023,0.254237,-0.030666,0.052625,0.066918,0.999981,-0.002065,-0.005665,0.001271,0.300829,0.264665,-0.231380,-0.886520,37.105945,19.271820,-135.989347
52159,-3.457133,5.499699,6.869398,0.479280,0.090083,-0.370851,-0.423376,-1.070021,0.253015,-0.035007,0.055098,0.068391,0.999983,-0.002117,-0.005350,0.001265,0.301331,0.258946,-0.231433,-0.888023,36.773862,18.688582,-136.251459
52160,-3.326481,5.355512,6.932525,0.395582,0.150312,-0.451763,-0.425870,-1.018615,0.258431,-0.033686,0.053659,0.069040,0.999984,-0.002129,-0.005093,0.001292,0.301909,0.253437,-0.231397,-0.889425,36.450884,18.125767,-136.488031
52161,-3.631664,5.532917,7.156894,0.650743,0.310337,-0.091445,-0.387879,-1.026465,0.274579,-0.036759,0.055417,0.071274,0.999984,-0.001939,-0.005132,0.001373,0.302492,0.247923,-0.231555,-0.890739,36.154686,17.552628,-136.715599
52162,-3.281126,5.544542,7.214723,0.482522,0.117557,-0.152854,-0.401132,-1.025444,0.250605,-0.033250,0.055548,0.071866,0.999984,-0.002006,-0.005127,0.001253,0.302976,0.242413,-0.231614,-0.892074,35.850821,16.986927,-136.950589
52163,-3.719440,5.464334,7.417528,0.744477,0.543567,0.079842,-0.398257,-1.057361,0.247140,-0.037653,0.054744,0.073868,0.999983,-0.001991,-0.005287,0.001236,0.303394,0.236761,-0.231723,-0.893421,35.548313,16.406367,-137.194549
52164,-3.112685,5.271191,7.156371,0.488271,0.243256,-0.411126,-0.409505,-1.089521,0.230724,-0.031577,0.052822,0.071284,0.999982,-0.002048,-0.005448,0.001154,0.303704,0.230960,-0.231803,-0.894812,35.237518,15.814978,-137.453635
52165,-2.515564,4.798455,6.914212,0.092043,0.149232,-1.030429,-0.397444,-1.035339,0.187546,-0.025558,0.048098,0.068915,0.999984,-0.001987,-0.005177,0.000938,0.303860,0.225461,-0.231797,-0.896162,34.936578,15.261944,-137.711190
52166,-3.143777,5.087156,7.458075,0.461912,0.532234,-0.279167,-0.251125,-0.971028,0.187052,-0.031847,0.050935,0.074363,0.999987,-0.001256,-0.004855,0.000935,0.303914,0.220467,-0.232341,-0.897245,34.728169,14.738168,-137.943997
52167,-3.471146,5.890435,7.532545,1.106920,0.230577,0.297009,-0.262757,-1.050886,0.187138,-0.035161,0.058970,0.075064,0.999985,-0.001314,-0.005254,0.000936,0.303879,0.215091,-0.232949,-0.898403,34.509229,14.175949,-138.201000
52168,-3.105088,5.473928,7.577004,0.734845,0.332659,0.003872,-0.347964,-1.077755,0.159217,-0.031502,0.054846,0.075506,0.999984,-0.001740,-0.005389,0.000796,0.303771,0.209490,-0.233176,-0.899703,34.239213,13.608924,-138.477454
52169,-3.838826,5.480825,8.061426,1.130980,0.974524,0.557103,-0.299337,-1.184561,0.160034,-0.038908,0.054898,0.080303,0.999981,-0.001497,-0.005923,0.000800,0.303479,0.203475,-0.233777,-0.901025,33.992645,12.989892,-138.785447
52170,-2.837976,5.335866,7.757810,0.603363,0.381917,-0.004628,-0.315701,-1.297467,0.146823,-0.028921,0.053460,0.077307,0.999977,-0.001578,-0.006487,0.000734,0.303000,0.196932,-0.234453,-0.902464,33.731300,12.319913,-139.133221
52171,-3.361477,5.378190,8.254771,0.882545,0.881716,0.522104,-0.231629,-1.337218,0.159368,-0.034208,0.053850,0.082258,0.999977,-0.001158,-0.006686,0.000797,0.302433,0.190315,-0.235569,-0.903782,33.521602,11.625785,-139.484037
52172,-3.569761,5.821908,8.311691,1.346129,0.771095,0.832189,-0.246474,-1.520632,0.185352,-0.036382,0.058288,0.082770,0.999970,-0.001232,-0.007603,0.000927,0.301766,0.182804,-0.236908,-0.905204,33.299467,10.834262,-139.877587
52173,-2.108527,5.099346,7.596639,0.394231,0.179798,-0.433523,-0.373249,-1.598264,0.149654,-0.021729,0.051119,0.075699,0.999966,-0.001866,-0.007991,0.000748,0.300942,0.174784,-0.237742,-0.906842,33.003417,10.015210,-140.308568
52174,-1.585492,4.476223,7.547029,-0.140059,0.321509,-0.902937,-0.317654,-1.533578,0.102633,-0.016456,0.044874,0.075274,0.999969,-0.001588,-0.007668,0.000513,0.299914,0.167182,-0.238675,-0.908370,32.745486,9.239606,-140.737024
52175,-1.257509,4.708266,7.439346,-0.120087,-0.034583,-0.920209,-0.230145,-1.471836,0.097264,-0.013145,0.047162,0.074244,0.999972,-0.001151,-0.007359,0.000486,0.298843,0.159991,-0.239893,-0.909696,32.546564,8.494049,-141.144722
52176,-1.442283,5.420117,7.683311,0.357014,-0.291178,-0.311227,-0.222105,-1.378376,0.094708,-0.014977,0.054279,0.076671,0.999976,-0.001111,-0.006892,0.000474,0.297851,0.153230,-0.240994,-0.910894,32.361686,7.792840,-141.521355
52177,-1.473830,5.347955,7.797370,0.409732,-0.138807,-0.253217,-0.318126,-1.344729,0.085101,-0.015285,0.053597,0.077787,0.999976,-0.001591,-0.006724,0.000425,0.296915,0.146485,-0.241588,-0.912151,32.127515,7.109796,-141.889091
52178,-0.959472,4.811293,7.694048,-0.092871,-0.075987,-0.688429,-0.362144,-1.297001,0.040171,-0.010103,0.048250,0.076789,0.999977,-0.001811,-0.006485,0.000201,0.295850,0.139938,-0.241866,-0.913450,31.871836,6.461751,-142.260749
52179,-0.697612,4.566263,7.707002,-0.319114,-0.025906,-0.833156,-0.322333,-1.217211,-0.016527,-0.007441,0.045787,0.076952,0.999980,-0.001612,-0.006086,-0.000083,0.294581,0.133878,-0.242158,-0.914690,31.643000,5.868406,-142.632766
52180,-0.659283,4.843762,7.883897,-0.194469,-0.152237,-0.539563,-0.284159,-1.138231,-0.067920,-0.007025,0.048552,0.078731,0.999983,-0.001421,-0.005691,-0.000340,0.293138,0.128292,-0.242465,-0.915872,31.439746,5.327357,-143.003589
52181,-0.687562,4.996120,8.028143,-0.067437,-0.163762,-0.333603,-0.271353,-1.070585,-0.084218,-0.007284,0.050073,0.080175,0.999985,-0.001357,-0.005353,-0.000421,0.291683,0.123051,-0.242713,-0.916990,31.248536,4.823272,-143.359987
52182,-0.543303,5.216186,8.061940,-0.006644,-0.371003,-0.202257,-0.305339,-1.030718,-0.102644,-0.005821,0.052288,0.080510,0.999985,-0.001527,-0.005154,-0.000513,0.290204,0.117960,-0.242729,-0.918123,31.041226,4.342694,-143.711581
52183,-0.592791,4.972851,8.230530,-0.060348,-0.087276,-0.178869,-0.336283,-0.968339,-0.123625,-0.006295,0.049871,0.082192,0.999987,-0.001681,-0.004842,-0.000618,0.288715,0.113135,-0.242492,-0.919262,30.819814,3.897907,-144.053073
52184,-0.626016,4.955877,8.379338,-0.011790,0.014843,-0.057432,-0.331519,-0.950704,-0.140552,-0.006623,0.049702,0.083680,0.999987,-0.001658,-0.004754,-0.000703,0.287159,0.108413,-0.242236,-0.920385,30.603587,3.465200,-144.395867
52185,-0.469144,5.015271,8.399892,-0.036933,-0.100577,-0.018852,-0.376779,-0.920884,-0.167095,-0.005036,0.050315,0.083882,0.999987,-0.001884,-0.004604,-0.000835,0.285534,0.103795,-0.241708,-0.921561,30.363870,3.053837,-144.741226
52186,-0.099726,4.449507,8.170119,-0.454902,0.013029,-0.520144,-0.368553,-0.874177,-0.169126,-0.001316,0.044647,0.081614,0.999988,-0.001843,-0.004371,-0.000846,0.283946,0.099401,-0.241145,-0.922683,30.131922,2.664500,-145.072266
52187,0.341687,4.742357,8.153412,-0.604474,-0.446000,-0.404170,-0.249977,-0.775312,-0.110477,0.003127,0.047524,0.081487,0.999992,-0.001250,-0.003877,-0.000552,0.282682,0.095562,-0.241013,-0.923511,29.972686,2.306489,-145.344366
52188,0.312738,5.120890,8.065129,-0.314500,-0.725499,-0.286822,-0.245483,-0.670479,-0.063504,0.002873,0.051307,0.080598,0.999994,-0.001227,-0.003352,-0.000318,0.281755,0.092152,-0.240771,-0.924203,29.819611,1.986146,-145.562115
52189,0.399386,4.735864,8.262063,-0.576847,-0.409343,-0.307474,-0.245359,-0.560622,-0.046890,0.003773,0.047459,0.082573,0.999995,-0.001227,-0.002803,-0.000234,0.281033,0.089232,-0.240381,-0.924811,29.669105,1.715365,-145.739463
52190,-0.454056,5.018636,8.851239,0.135805,0.105308,0.371005,-0.183417,-0.522379,-0.034826,-0.004763,0.050268,0.088454,0.999996,-0.000917,-0.002612,-0.000174,0.280384,0.086558,-0.240227,-0.925302,29.555318,1.459601,-145.899317
52191,-0.524384,5.154442,8.974517,0.276583,0.101074,0.545797,-0.261005,-0.594592,-0.060478,-0.005495,0.051663,0.089662,0.999995,-0.001305,-0.002973,-0.000302,0.279560,0.083472,-0.239802,-0.925945,29.397152,1.174866,-146.091709
52192,-0.299449,4.702282,8.880888,-0.039204,0.270957,0.236992,-0.300495,-0.624059,-0.105727,-0.003247,0.047158,0.088728,0.999994,-0.001502,-0.003120,-0.000529,0.278505,0.080247,-0.239213,-0.926700,29.216710,0.887337,-146.314113
52193,0.059428,4.608286,8.745823,-0.285098,0.089731,0.068590,-0.288510,-0.648590,-0.142791,0.000344,0.046209,0.087393,0.999993,-0.001443,-0.003243,-0.000714,0.277239,0.076970,-0.238696,-0.927490,29.044001,0.597393,-146.561010
52194,0.315922,4.584851,8.517526,-0.392227,-0.121938,-0.143148,-0.270733,-0.614073,-0.168849,0.002937,0.045961,0.085122,0.999994,-0.001354,-0.003070,-0.000844,0.275885,0.073906,-0.238201,-0.928270,28.882593,0.331055,-146.810529
52195,0.330477,4.863277,8.585822,-0.240393,-0.302341,0.052790,-0.219261,-0.566700,-0.143025,0.003096,0.048725,0.085814,0.999995,-0.001096,-0.002833,-0.000715,0.274684,0.071103,-0.237886,-0.928926,28.751947,0.080922,-147.033318
52196,0.315098,5.146578,8.539111,-0.032952,-0.518301,0.148893,-0.258452,-0.529429,-0.120535,0.002956,0.051574,0.085333,0.999995,-0.001292,-0.002647,-0.000603,0.273643,0.068390,-0.237343,-0.929575,28.599730,-0.157398,-147.233932
52197,0.547710,4.494131,8.455752,-0.472386,-0.196190,-0.234841,-0.251670,-0.478157,-0.097023,0.005297,0.045045,0.084514,0.999996,-0.001258,-0.002391,-0.000485,0.272768,0.065898,-0.236768,-0.930159,28.452143,-0.376693,-147.408065
52198,0.269447,4.727163,8.685161,-0.142923,-0.124719,0.077438,-0.203903,-0.432138,-0.081460,0.002526,0.047359,0.086809,0.999997,-0.001020,-0.002161,-0.000407,0.272003,0.063665,-0.236356,-0.930643,28.332323,-0.577611,-147.561300
52199,0.036328,4.616138,8.890001,-0.008764,0.165918,0.203022,-0.223867,-0.445867,-0.122366,0.000193,0.046261,0.088849,0.999997,-0.001119,-0.002229,-0.000612,0.271035,0.061389,-0.235856,-0.931206,28.201942,-0.774540,-147.738477
52200,-0.444623,4.496993,9.285248,0.290520,0.668863,0.488017,-0.259974,-0.504116,-0.204924,-0.004634,0.045095,0.092782,0.999995,-0.001300,-0.002521,-0.001025,0.269623,0.058890,-0.235238,-0.931933,28.052303,-0.979186,-147.972630
52201,-1.115789,4.562859,9.770940,0.832185,1.165819,0.933657,-0.328291,-0.661467,-0.354228,-0.011400,0.045809,0.097597,0.999992,-0.001641,-0.003307,-0.001771,0.267347,0.055741,-0.234468,-0.932976,27.866738,-1.223867,-148.324054
52202,-0.913069,4.245008,9.803806,0.575794,1.297673,0.815216,-0.443556,-0.867268,-0.533397,-0.009442,0.042692,0.097903,0.999985,-0.002218,-0.004336,-0.002667,0.264019,0.051685,-0.233379,-0.934428,27.620241,-1.526618,-148.820372
52203,-0.422027,3.776270,9.418849,0.106178,1.225861,0.268899,-0.485425,-1.016764,-0.694893,-0.004567,0.038007,0.094074,0.999978,-0.002427,-0.005084,-0.003474,0.259764,0.047064,-0.232242,-0.936147,27.356090,-1.864605,-149.437081
52204,0.159012,4.010531,8.995989,-0.113108,0.572761,0.020731,-0.445641,-1.074264,-0.770142,0.001262,0.040300,0.089878,0.999976,-0.002228,-0.005371,-0.003851,0.255068,0.042309,-0.231337,-0.937888,27.120290,-2.215087,-150.105875
52205,0.828971,3.990478,8.503694,-0.533217,0.052187,-0.397990,-0.392312,-1.044002,-0.759218,0.007998,0.040041,0.085001,0.999977,-0.001962,-0.005220,-0.003796,0.250436,0.037752,-0.230634,-0.939502,26.918410,-2.555239,-150.760007
52206,1.218295,4.093860,8.129080,-0.698159,-0.366168,-0.663689,-0.323720,-0.928129,-0.711743,0.011952,0.041027,0.081280,0.999982,-0.001619,-0.004641,-0.003559,0.246136,0.033766,-0.230109,-0.940918,26.756907,-2.850779,-151.358922
52207,1.214637,4.746396,8.241611,-0.378226,-0.816445,-0.267112,-0.274586,-0.791296,-0.634146,0.011971,0.047539,0.082398,0.999986,-0.001373,-0.003956,-0.003171,0.242343,0.030395,-0.229651,-0.942129,26.622391,-3.097547,-151.882161
52208,0.700350,4.732091,8.567202,0.054431,-0.430097,-0.010033,-0.339641,-0.713929,-0.606798,0.006842,0.047445,0.085616,0.999988,-0.001698,-0.003570,-0.003034,0.238772,0.027277,-0.228792,-0.943344,26.450855,-3.313291,-152.370988
52209,0.335664,4.387953,8.925844,0.213870,0.145443,0.135699,-0.382890,-0.718385,-0.673577,0.003184,0.044039,0.089186,0.999986,-0.001914,-0.003592,-0.003368,0.234880,0.024163,-0.227719,-0.944665,26.258353,-3.515674,-152.894703
52210,-0.472566,3.814602,9.645784,0.630267,1.244811,0.476553,-0.441716,-0.810054,-0.859841,-0.004951,0.038380,0.096353,0.999980,-0.002209,-0.004050,-0.004299,0.230003,0.020756,-0.226446,-0.946251,26.041528,-3.720249,-153.536994
52211,-1.024419,3.216510,10.028325,0.890898,2.098923,0.519920,-0.441243,-1.049375,-1.122340,-0.010588,0.032445,0.100157,0.999968,-0.002206,-0.005247,-0.005612,0.223601,0.016516,-0.225411,-0.948114,25.840625,-3.984419,-154.374364
52212,-0.628174,3.051214,9.946264,0.571564,2.006058,0.399114,-0.421235,-1.273536,-1.397043,-0.006700,0.030767,0.099356,0.999953,-0.002106,-0.006368,-0.006985,0.215625,0.011542,-0.224681,-0.950206,25.669744,-4.298843,-155.409260
52213,-0.414298,3.465637,9.885493,0.652728,1.543269,0.536065,-0.427595,-1.436671,-1.646354,-0.004566,0.034904,0.098749,0.999938,-0.002138,-0.007183,-0.008232,0.206258,0.006068,-0.224057,-0.952481,25.514109,-4.638458,-156.613386
52214,-0.072641,3.373138,9.507180,0.443836,1.310829,0.179995,-0.453099,-1.566208,-1.799757,-0.001166,0.033956,0.094987,0.999926,-0.002265,-0.007831,-0.008999,0.195989,0.000119,-0.223412,-0.954817,25.360870,-5.010931,-157.928876
52215,0.700055,4.105664,9.058607,0.131471,0.220954,0.154175,-0.453766,-1.588437,-1.860598,0.006664,0.041199,0.090547,0.999923,-0.002269,-0.007942,-0.009303,0.185375,-0.005866,-0.222749,-0.957071,25.218828,-5.382999,-159.281209
52216,1.274354,4.026034,8.646813,-0.333622,-0.091800,-0.196022,-0.507396,-1.528040,-1.828762,0.012452,0.040365,0.086462,0.999926,-0.002537,-0.007640,-0.009144,0.174952,-0.011649,-0.221741,-0.959212,25.051790,-5.735523,-160.602024
52217,1.995527,4.143234,8.119462,-0.890231,-0.647589,-0.546504,-0.463415,-1.380037,-1.736631,0.019755,0.041448,0.081235,0.999936,-0.002317,-0.006900,-0.008683,0.165112,-0.016782,-0.220777,-0.961100,24.908501,-6.036638,-161.838470
52218,2.303696,4.747167,7.745566,-0.943854,-1.405412,-0.594751,-0.450208,-1.166315,-1.617037,0.022969,0.047460,0.077483,0.999948,-0.002251,-0.005831,-0.008085,0.156066,-0.021010,-0.219666,-0.962782,24.766443,-6.258855,-162.960533
52219,1.885839,5.242695,8.106711,-0.395969,-1.556092,-0.107906,-0.503027,-0.941884,-1.520585,0.018876,0.052487,0.081024,0.999957,-0.002515,-0.004709,-0.007603,0.147709,-0.024300,-0.218093,-0.964379,24.585747,-6.390132,-163.977751
52220,1.072944,5.070891,8.559486,0.328025,-1.016745,0.136608,-0.537576,-0.838575,-1.409852,0.010729,0.050863,0.085503,0.999963,-0.002688,-0.004193,-0.007049,0.139983,-0.027239,-0.216248,-0.965867,24.378318,-6.497556,-164.912010
52221,0.694432,5.542654,8.759171,0.834436,-1.283941,0.462591,-0.568275,-0.836870,-1.312600,0.006943,0.055630,0.087463,0.999966,-0.002841,-0.004184,-0.006563,0.132715,-0.030292,-0.214224,-0.967252,24.149130,-6.630254,-165.794498
52222,0.969890,4.829279,8.811802,0.396451,-0.753456,0.246406,-0.664669,-0.840119,-1.256422,0.009633,0.048525,0.087998,0.999966,-0.003323,-0.004201,-0.006282,0.125691,-0.033485,-0.211714,-0.968637,23.863678,-6.781954,-166.647823
52223,1.360741,4.060469,8.580023,-0.154615,-0.305376,-0.229447,-0.611242,-0.807728,-1.225451,0.013511,0.040784,0.085730,0.999968,-0.003056,-0.004039,-0.006127,0.118852,-0.036516,-0.209423,-0.969888,23.607995,-6.927519,-167.476774
52224,1.242262,4.169630,8.698897,0.015428,-0.359938,-0.093123,-0.547936,-0.747171,-1.198763,0.012348,0.041860,0.086921,0.999971,-0.002740,-0.003736,-0.005994,0.112211,-0.039244,-0.207386,-0.971010,23.387190,-7.051071,-168.277300
52225,0.970188,4.544260,9.000042,0.397896,-0.553624,0.293117,-0.618921,-0.710472,-1.194107,0.009655,0.045663,0.089894,0.999971,-0.003095,-0.003552,-0.005970,0.105610,-0.041833,-0.204970,-0.972154,23.125818,-7.159422,-169.066640
52226,1.038327,3.445216,8.950306,0.111042,0.349477,-0.173138,-0.663885,-0.700488,-1.181235,0.010274,0.034688,0.089424,0.999971,-0.003319,-0.003502,-0.005906,0.099066,-0.044411,-0.202317,-0.973284,22.839112,-7.269410,-169.846559
52227,1.277721,3.338120,8.821161,-0.121413,0.311476,-0.300770,-0.592526,-0.670940,-1.163049,0.012676,0.033569,0.088155,0.999973,-0.002963,-0.003355,-0.005815,0.092650,-0.046824,-0.199980,-0.974285,22.592484,-7.371113,-170.609839
52228,1.320532,3.505271,8.780431,-0.107748,0.102316,-0.267821,-0.571443,-0.624939,-1.155916,0.013134,0.035227,0.087745,0.999974,-0.002857,-0.003125,-0.005780,0.086316,-0.049009,-0.197714,-0.975221,22.357433,-7.453496,-171.358886
52229,1.644823,3.467124,8.566565,-0.428670,-0.027606,-0.435703,-0.549876,-0.562152,-1.146706,0.016407,0.034813,0.085616,0.999976,-0.002749,-0.002811,-0.005733,0.080090,-0.050884,-0.195512,-0.976100,22.133020,-7.507274,-172.089027
52230,1.226113,3.857012,8.809088,0.076870,-0.262372,-0.122224,-0.497698,-0.477856,-1.102579,0.012264,0.038722,0.088024,0.999979,-0.002488,-0.002389,-0.005513,0.074171,-0.052369,-0.193513,-0.976887,21.933620,-7.528726,-172.777131
52231,0.835196,4.164682,9.080276,0.536748,-0.426022,0.188504,-0.469488,-0.472081,-1.042667,0.008355,0.041816,0.090724,0.999981,-0.002347,-0.002360,-0.005213,0.068555,-0.053869,-0.191624,-0.977588,21.746178,-7.561913,-173.431797
52232,0.609291,4.631832,9.319070,0.855172,-0.779459,0.547386,-0.503732,-0.507846,-1.030159,0.006096,0.046521,0.093089,0.999980,-0.002519,-0.002539,-0.005151,0.062954,-0.055568,-0.189571,-0.978270,21.539884,-7.619287,-174.087338
52233,0.717019,3.287870,9.174994,0.556609,0.346180,-0.062053,-0.567397,-0.571067,-1.080611,0.007087,0.033100,0.091677,0.999977,-0.002837,-0.002855,-0.005403,0.057025,-0.057544,-0.187232,-0.978969,21.303185,-7.702028,-174.783246
52234,1.198344,3.495852,9.003014,0.113639,0.008983,-0.081388,-0.470927,-0.594159,-1.120389,0.011912,0.035104,0.089983,0.999977,-0.002355,-0.002971,-0.005602,0.050906,-0.059568,-0.185375,-0.979539,21.126420,-7.791652,-175.505275
52235,1.022921,3.951996,9.118009,0.368952,-0.389313,0.163029,-0.470425,-0.585658,-1.107175,0.010182,0.039678,0.091117,0.999978,-0.002352,-0.002928,-0.005536,0.044857,-0.061557,-0.183505,-0.980064,20.949710,-7.881325,-176.218265
52236,1.442105,4.009313,8.969281,-0.042288,-0.556920,0.101455,-0.491782,-0.570711,-1.050304,0.014376,0.040238,0.089635,0.999979,-0.002459,-0.002854,-0.005251,0.039092,-0.063529,-0.181503,-0.980557,20.757344,-7.977198,-176.897310
52237,1.201356,3.856744,9.001461,0.196450,-0.423541,0.042562,-0.487892,-0.530899,-0.962379,0.011961,0.038729,0.089952,0.999982,-0.002439,-0.002654,-0.004812,0.033793,-0.065381,-0.179476,-0.981005,20.560423,-8.071448,-177.520440
52238,1.728396,3.607379,8.787220,-0.359611,-0.320927,-0.169898,-0.470538,-0.489131,-0.911113,0.017234,0.036202,0.087829,0.999984,-0.002353,-0.002446,-0.004556,0.028789,-0.067071,-0.177506,-0.981409,20.369360,-8.155972,-178.107140
52239,1.714572,3.220058,8.812736,-0.363431,0.023463,-0.281678,-0.462946,-0.412598,-0.897565,0.017109,0.032328,0.088088,0.999985,-0.002315,-0.002063,-0.004488,0.023920,-0.068391,-0.175551,-0.981801,20.179982,-8.203650,-178.670940
52240,1.400837,3.344742,9.070363,-0.004728,-0.023550,-0.044346,-0.408675,-0.367823,-0.890110,0.013991,0.033570,0.090661,0.999986,-0.002043,-0.001839,-0.004451,0.019145,-0.069493,-0.173850,-0.982130,20.020275,-8.230734,-179.221685
52241,1.185507,3.581796,9.275650,0.253579,-0.202222,0.195664,-0.433664,-0.368350,-0.895627,0.011845,0.035966,0.092700,0.999986,-0.002168,-0.001842,-0.004478,0.014334,-0.070591,-0.172023,-0.982456,19.846865,-8.258293,-179.775487
52242,1.472170,3.276059,9.054910,-0.070921,-0.019543,-0.071754,-0.394793,-0.378945,-0.876461,0.014694,0.032875,0.090512,0.999987,-0.001974,-0.001895,-0.004382,0.009621,-0.071755,-0.170377,-0.982716,19.694919,-8.297151,179.679109
52243,1.590686,4.028710,9.130784,-0.143688,-0.726924,0.266147,-0.384190,-0.335100,-0.849930,0.015925,0.040395,0.091257,0.999988,-0.001921,-0.001675,-0.004250,0.005078,-0.072721,-0.168767,-0.982957,19.545917,-8.318546,179.156767
52244,1.163274,3.654580,9.317517,0.290917,-0.348025,0.253068,-0.446145,-0.331716,-0.848963,0.011634,0.036704,0.093113,0.999987,-0.002231,-0.001659,-0.004245,0.000522,-0.073673,-0.166848,-0.983226,19.361517,-8.340123,178.635639
52245,1.321272,3.037128,9.403113,0.134982,0.234491,0.153012,-0.415097,-0.359130,-0.858368,0.013175,0.030510,0.093992,0.999987,-0.002075,-0.001796,-0.004292,-0.004093,-0.074748,-0.165080,-0.983435,19.196619,-8.375991,178.104156
52246,1.402662,3.392464,9.411602,0.068202,-0.124021,0.288523,-0.381722,-0.371267,-0.866702,0.013999,0.034044,0.094077,0.999987,-0.001909,-0.001856,-0.004333,-0.008746,-0.075877,-0.163476,-0.983586,19.052251,-8.418612,177.565860
52247,1.508746,3.250750,9.357340,-0.039960,-0.030179,0.207339,-0.419376,-0.378612,-0.865539,0.015051,0.032638,0.093534,0.999987,-0.002097,-0.001893,-0.004328,-0.013414,-0.077037,-0.161681,-0.983740,18.886768,-8.466534,177.026871
52248,1.603144,3.302326,9.251386,-0.143377,-0.134249,0.138440,-0.386475,-0.372341,-0.841951,0.015999,0.033135,0.092480,0.999988,-0.001932,-0.001862,-0.004210,-0.017947,-0.078188,-0.160036,-0.983846,18.738564,-8.517207,176.502057
52249,1.925378,3.453279,9.135185,-0.478493,-0.318787,0.124777,-0.421951,-0.333323,-0.848794,0.019248,0.034644,0.091311,0.999987,-0.002110,-0.001667,-0.004244,-0.022496,-0.079134,-0.158218,-0.983971,18.569806,-8.546553,175.980804
52250,1.409209,2.812526,9.540969,0.109640,0.348202,0.226879,-0.484867,-0.297985,-0.920061,0.014080,0.028292,0.095362,0.999985,-0.002424,-0.001490,-0.004600,-0.027392,-0.079843,-0.156118,-0.984125,18.370033,-8.545743,175.426956
52251,1.117658,2.529746,9.710435,0.437597,0.609943,0.255962,-0.448574,-0.360599,-1.000682,0.011129,0.025459,0.097067,0.999983,-0.002243,-0.001803,-0.005003,-0.032719,-0.080798,-0.154216,-0.984184,18.199374,-8.565962,174.817357
52252,1.582196,3.185362,9.458903,-0.083405,-0.079071,0.292135,-0.470377,-0.401428,-1.061211,0.015802,0.031992,0.094546,0.999981,-0.002352,-0.002007,-0.005306,-0.038382,-0.081902,-0.152219,-0.984199,18.022644,-8.599776,174.167091
52253,1.822473,3.005669,9.147264,-0.364029,-0.003710,-0.020072,-0.477673,-0.368366,-1.083015,0.018219,0.030176,0.091434,0.999981,-0.002388,-0.001842,-0.005415,-0.044129,-0.082820,-0.150195,-0.984193,17.842809,-8.613397,173.510776
52254,1.328783,3.356931,9.585518,0.171834,-0.298634,0.424401,-0.521900,-0.337214,-1.090485,0.013310,0.033747,0.095790,0.999980,-0.002609,-0.001686,-0.005452,-0.049906,-0.083570,-0.147958,-0.984192,17.637582,-8.611218,172.855875
52255,1.159445,2.975991,9.567573,0.357748,-0.000493,0.267550,-0.506743,-0.361779,-1.075871,0.011582,0.029940,0.095621,0.999981,-0.002534,-0.001809,-0.005379,-0.055621,-0.084448,-0.145777,-0.984136,17.440459,-8.626940,172.204748
52256,1.091170,3.121395,9.595112,0.416543,-0.180155,0.326042,-0.518429,-0.405416,-1.078570,0.010886,0.031404,0.095892,0.999980,-0.002592,-0.002027,-0.005393,-0.061384,-0.085536,-0.143523,-0.984031,17.238411,-8.668626,171.544598
52257,1.777655,2.807750,9.135629,-0.307751,0.058199,-0.096460,-0.487475,-0.407393,-1.044235,0.017738,0.028207,0.091324,0.999981,-0.002437,-0.002037,-0.005221,-0.066964,-0.086661,-0.141400,-0.983876,17.051693,-8.719063,170.903195
52258,1.911584,3.254394,8.965664,-0.518380,-0.415566,-0.107693,-0.416040,-0.339322,-0.969292,0.019122,0.032638,0.089621,0.999985,-0.002080,-0.001697,-0.004846,-0.072093,-0.087528,-0.139614,-0.983692,16.898363,-8.746959,170.314948
52259,1.686165,3.515298,9.183840,-0.294629,-0.667141,0.137762,-0.430881,-0.278237,-0.899678,0.016892,0.035275,0.091786,0.999987,-0.002154,-0.001391,-0.004498,-0.076843,-0.088133,-0.137742,-0.983542,16.729181,-8.754212,169.775630
52260,1.496399,2.826204,9.232799,-0.021019,-0.060869,-0.041966,-0.443323,-0.254820,-0.859886,0.014968,0.028402,0.092284,0.999987,-0.002217,-0.001274,-0.004299,-0.081383,-0.088646,-0.135798,-0.983401,16.549043,-8.757077,169.262319
52261,1.529841,3.084448,9.256021,-0.091207,-0.322664,0.057250,-0.418897,-0.238270,-0.836265,0.015318,0.030974,0.092514,0.999988,-0.002094,-0.001191,-0.004181,-0.085784,-0.089098,-0.133966,-0.983237,16.380431,-8.755920,168.764865
52262,1.495789,2.835553,9.297431,-0.023355,-0.113345,0.021257,-0.492479,-0.221233,-0.863025,0.014978,0.028520,0.092921,0.999987,-0.002462,-0.001106,-0.004315,-0.090336,-0.089418,-0.131789,-0.983095,16.171504,-8.743024,168.255301
52263,1.663897,2.241011,9.262925,-0.109781,0.445340,-0.149250,-0.448556,-0.198371,-0.883502,0.016647,0.022544,0.092595,0.999987,-0.002243,-0.000992,-0.004417,-0.094951,-0.089627,-0.129844,-0.982900,15.988692,-8.715706,167.737981
52264,1.189316,2.670155,9.601848,0.338106,-0.009950,0.218523,-0.426769,-0.204404,-0.886128,0.011914,0.026854,0.095973,0.999987,-0.002134,-0.001022,-0.004431,-0.099571,-0.089875,-0.128001,-0.982662,15.818565,-8.693182,167.218198
52265,1.622765,2.589335,9.279512,-0.139535,0.057344,-0.044139,-0.419522,-0.219775,-0.837726,0.016235,0.026020,0.092758,0.999988,-0.002098,-0.001099,-0.004189,-0.103957,-0.090228,-0.126160,-0.982413,15.648683,-8.687870,166.722955
52266,1.709023,2.879802,9.057455,-0.328797,-0.272079,-0.165443,-0.355836,-0.174580,-0.740096,0.017118,0.028896,0.090538,0.999991,-0.001779,-0.000873,-0.003700,-0.107805,-0.090454,-0.124610,-0.982175,15.505995,-8.674281,166.289256
52267,1.655179,3.391523,9.261266,-0.346913,-0.745317,0.154116,-0.403321,-0.111133,-0.683302,0.016617,0.034045,0.092553,0.999992,-0.002017,-0.000556,-0.003417,-0.111354,-0.090375,-0.122833,-0.982011,15.329592,-8.635198,165.897054
52268,1.532444,2.022295,9.245709,0.019650,0.486448,-0.237507,-0.483143,-0.080474,-0.714430,0.015360,0.020391,0.092414,0.999991,-0.002416,-0.000402,-0.003572,-0.115070,-0.090083,-0.120694,-0.981874,15.109107,-8.576121,165.492032
52269,1.477193,2.324840,9.471124,0.039768,0.204919,0.048627,-0.441250,-0.062767,-0.768547,0.014832,0.023400,0.094664,0.999990,-0.002206,-0.000314,-0.003843,-0.119021,-0.089691,-0.118792,-0.981671,14.916218,-8.500373,165.059237
52270,1.434915,2.153729,9.408718,0.084167,0.313001,-0.059926,-0.462866,-0.057009,-0.809605,0.014410,0.021697,0.094041,0.999989,-0.002314,-0.000285,-0.004048,-0.123177,-0.089234,-0.116803,-0.981439,14.713691,-8.417182,164.604137
52271,1.567189,2.438825,9.228828,-0.162891,0.014579,-0.140647,-0.425658,-0.037796,-0.774577,0.015749,0.024524,0.092239,0.999990,-0.002128,-0.000189,-0.003873,-0.127131,-0.088721,-0.114991,-0.981195,14.528487,-8.329646,164.171292
52272,1.839941,2.760044,8.967004,-0.574266,-0.291314,-0.273524,-0.440665,0.013283,-0.680772,0.018500,0.027735,0.089608,0.999992,-0.002203,0.000066,-0.003404,-0.130600,-0.088004,-0.113094,-0.981024,14.325456,-8.228892,163.798223
52273,1.900403,2.821922,8.893155,-0.692309,-0.370749,-0.323426,-0.441199,0.114537,-0.581485,0.019137,0.028360,0.088858,0.999993,-0.002206,0.000573,-0.002907,-0.133522,-0.086842,-0.111215,-0.980949,14.111358,-8.086960,163.495001
52274,2.013405,2.695416,8.848172,-0.815569,-0.252277,-0.385056,-0.454803,0.214455,-0.486609,0.020295,0.027106,0.088398,0.999994,-0.002274,0.001072,-0.002433,-0.135928,-0.085235,-0.109293,-0.980976,13.879390,-7.904053,163.258595
52275,2.308479,2.581464,8.598722,-1.160637,-0.131716,-0.616688,-0.458857,0.331273,-0.397014,0.023279,0.025966,0.085889,0.999994,-0.002294,0.001656,-0.001985,-0.137831,-0.083098,-0.107392,-0.981104,13.635308,-7.669108,163.087926
52276,2.415618,2.599170,8.686829,-1.303512,-0.121955,-0.520888,-0.439962,0.491659,-0.297180,0.024408,0.026146,0.086751,0.999993,-0.002200,0.002458,-0.001486,-0.139149,-0.080242,-0.105651,-0.981344,13.391226,-7.359110,162.994124
52277,0.969672,1.997190,9.755767,0.358208,0.204120,0.183994,-0.336383,0.584816,-0.172388,0.009999,0.020127,0.097495,0.999994,-0.001682,0.002924,-0.000862,-0.139761,-0.077065,-0.104432,-0.981642,13.195787,-7.013848,162.981690
52278,0.434476,2.183897,10.062118,0.813260,-0.081520,0.460390,-0.205097,0.473024,-0.060218,0.004589,0.021941,0.100588,0.999997,-0.001025,0.002365,-0.000301,-0.139830,-0.074587,-0.103735,-0.981898,13.069815,-6.745720,163.016681
52279,1.676798,2.240931,9.341275,-0.557230,0.086640,-0.077460,-0.176419,0.454369,0.012050,0.016979,0.022493,0.093355,0.999997,-0.000882,0.002272,0.000060,-0.139541,-0.072256,-0.103138,-0.982176,12.956085,-6.497095,163.089272
52280,0.901143,2.723664,9.874942,0.094321,-0.500707,0.457902,-0.209520,0.540831,0.004781,0.009278,0.027340,0.098696,0.999996,-0.001048,0.002704,0.000024,-0.139255,-0.069475,-0.102440,-0.982490,12.823029,-6.199258,163.168327
52281,-0.424544,2.016653,10.710961,1.619667,-0.083523,0.973469,-0.399575,0.427335,-0.111858,-0.004005,0.020383,0.107078,0.999996,-0.001998,0.002137,-0.000559,-0.139665,-0.067057,-0.100770,-0.982773,12.590033,-5.949758,163.166428
52282,0.705941,0.975252,9.946821,0.645667,1.056146,0.129958,-0.385083,0.262044,-0.239284,0.007202,0.009935,0.099440,0.999997,-0.001925,0.001310,-0.001196,-0.140778,-0.065399,-0.099097,-0.982896,12.374844,-5.777103,163.071325
52283,2.040927,1.565220,9.316602,-0.918380,0.750707,-0.220649,-0.428155,0.282346,-0.382637,0.020571,0.015812,0.093103,0.999995,-0.002141,0.001412,-0.001913,-0.142599,-0.063536,-0.097273,-0.982938,12.142410,-5.575787,162.897395
52284,2.092100,1.620579,9.009223,-1.076192,0.638276,-0.506593,-0.464443,0.414958,-0.487356,0.021148,0.016364,0.090011,0.999992,-0.002322,0.002075,-0.002437,-0.144879,-0.060946,-0.095397,-0.982952,11.892650,-5.288617,162.679636
52285,2.476456,2.373282,8.388882,-1.800230,-0.082118,-0.930649,-0.600339,0.539191,-0.549545,0.025056,0.023916,0.083750,0.999988,-0.003002,0.002696,-0.002748,-0.147445,-0.057616,-0.092960,-0.983005,11.565655,-4.925474,162.440048
52286,3.802018,1.721110,8.129758,-2.994810,0.863280,-1.222254,-0.772125,0.854186,-0.588843,0.038418,0.017412,0.081067,0.999979,-0.003861,0.004271,-0.002944,-0.150101,-0.052591,-0.089919,-0.983167,11.137515,-4.382663,162.211715
52287,0.160017,1.646678,9.551698,0.564207,0.031056,-0.135312,-0.572218,1.029441,-0.500526,0.002133,0.016735,0.095459,0.999980,-0.002861,0.005147,-0.002503,-0.152186,-0.046893,-0.087966,-0.983312,10.816875,-3.752475,162.048990
52288,0.399144,1.872925,10.853174,0.302128,0.067064,1.203719,-0.742128,0.945673,-0.460247,0.004548,0.019122,0.108441,0.999979,-0.003711,0.004728,-0.002301,-0.154144,-0.041493,-0.085100,-0.983502,10.396628,-3.174708,161.896163
52289,-2.823955,1.045556,11.536389,3.566797,-0.085879,1.563862,-0.409635,0.700992,-0.354387,-0.027816,0.010741,0.115440,0.999990,-0.002048,0.003505,-0.001772,-0.155611,-0.037596,-0.083656,-0.983551,10.163853,-2.746619,161.774833
52290,0.044542,2.293865,10.684484,0.305610,-0.525164,1.098421,-0.565598,0.376564,-0.362864,0.000688,0.023240,0.106778,0.999993,-0.002828,0.001883,-0.001814,-0.157282,-0.035169,-0.081194,-0.983582,9.842867,-2.501300,161.614348
52291,0.776107,1.202554,9.253726,-0.250596,0.479270,-0.464579,-0.482439,0.391585,-0.383287,0.007966,0.012234,0.092492,0.999993,-0.002412,0.001958,-0.001916,-0.159031,-0.032723,-0.079153,-0.983551,9.569201,-2.246235,161.442530
52292,2.030690,2.604352,8.450402,-2.001876,-0.577194,-0.982368,-0.555720,0.536042,-0.424644,0.020589,0.026235,0.084376,0.999990,-0.002779,0.002680,-0.002123,-0.160936,-0.029493,-0.076874,-0.983524,9.253156,-1.906654,161.259587
52293,2.723201,2.888667,7.649880,-2.894549,-0.761250,-1.730486,-0.877175,0.868760,-0.528157,0.027640,0.029149,0.076252,0.999977,-0.004386,0.004344,-0.002641,-0.163264,-0.024327,-0.073294,-0.983555,8.752358,-1.370782,161.045516
52294,2.898292,2.064239,7.057542,-2.948338,-0.044905,-2.479616,-1.080744,1.258347,-0.570383,0.029485,0.020939,0.070278,0.999962,-0.005404,0.006292,-0.002852,-0.165671,-0.017063,-0.069032,-0.983614,8.132501,-0.612718,160.835110
52295,3.451647,2.550910,6.681950,-3.781542,-0.397887,-2.840693,-1.233033,1.707668,-0.566236,0.035157,0.025820,0.066363,0.999941,-0.006165,0.008538,-0.002831,-0.167900,-0.007464,-0.064386,-0.983671,7.422129,0.397420,160.653151
52296,2.618956,1.989074,6.907514,-2.965907,-0.150926,-2.762410,-1.335914,2.202390,-0.471122,0.026995,0.020287,0.068646,0.999914,-0.006679,0.011012,-0.002356,-0.169481,0.004626,-0.059636,-0.983716,6.650481,1.679943,160.546924
52297,0.914364,1.867280,7.863950,-1.511465,-0.523437,-1.837636,-1.322241,2.533125,-0.297536,0.010166,0.019177,0.078389,0.999897,-0.006611,0.012665,-0.001488,-0.170078,0.018275,-0.055228,-0.983712,5.888590,3.137989,160.543135
52298,-3.316117,-0.622451,11.998035,2.951028,0.855045,2.265659,-1.084281,2.679038,-0.047952,-0.031551,-0.005565,0.120442,0.999896,-0.005421,0.013395,-0.000240,-0.169394,0.032370,-0.052125,-0.983636,5.271843,4.665630,160.672527
52299,-15.228482,-0.291472,17.808852,13.444215,-2.706577,9.188932,-0.528027,1.627652,0.061335,-0.150828,-0.002489,0.179327,0.999963,-0.002640,0.008138,0.000307,-0.168513,0.040788,-0.050877,-0.983540,4.976424,5.588281,160.798554
52300,-6.635643,-0.741487,14.353640,5.563405,0.111297,5.007699,-0.633411,0.004970,-0.117101,-0.066357,-0.006921,0.143560,0.999995,-0.003167,0.000025,-0.000586,-0.168893,0.041361,-0.047706,-0.983610,4.603422,5.594095,160.738866
52301,1.616829,-0.841100,8.827682,-1.809984,2.257612,-1.275907,-0.358195,-0.132888,-0.355147,0.016095,-0.008281,0.088302,0.999997,-0.001791,-0.000664,-0.001776,-0.170532,0.041084,-0.045722,-0.983433,4.374256,5.531938,160.536299
52302,3.512884,1.305746,7.417989,-4.246182,0.708841,-2.703600,-0.571867,0.469976,-0.663779,0.035347,0.013152,0.074059,0.999988,-0.002859,0.002350,-0.003319,-0.173505,0.044020,-0.043136,-0.982903,4.007290,5.825737,160.182184
52303,0.166791,-0.291564,8.222312,-0.686309,1.142883,-1.692255,-0.576910,0.919607,-0.771766,0.002035,-0.002686,0.082222,0.999978,-0.002885,0.004598,-0.003859,-0.176904,0.049193,-0.040891,-0.982147,3.629764,6.378532,159.781045
52304,-0.499214,2.320463,8.680425,-1.119538,-1.497385,-1.010022,-0.552731,0.992359,-0.680470,-0.004482,0.023460,0.086763,0.999978,-0.002764,0.004962,-0.003402,-0.179839,0.054680,-0.038850,-0.981407,3.268123,6.967082,159.430984
52305,1.600833,2.639117,7.378527,-3.177080,-1.202910,-2.571965,-0.855710,1.268811,-0.543539,0.016548,0.026662,0.073568,0.999967,-0.004279,0.006344,-0.002718,-0.181955,0.061766,-0.035605,-0.980719,2.739334,7.707031,159.163182
52306,1.456229,2.045894,7.103486,-2.925384,-0.745432,-2.909764,-0.978977,1.723868,-0.342248,0.015209,0.020780,0.070804,0.999949,-0.004895,0.008619,-0.001711,-0.182949,0.071155,-0.032230,-0.980014,2.153027,8.699873,159.015231
52307,-0.479746,1.845629,8.272638,-1.380401,-1.162766,-1.517373,-1.110544,2.074630,-0.176870,-0.003923,0.018919,0.082666,0.999930,-0.005553,0.010373,-0.000884,-0.183008,0.082346,-0.028587,-0.979239,1.503421,9.888758,158.958493
52308,-4.039902,0.692729,10.642426,1.722243,-1.175337,1.399271,-1.207183,2.152005,-0.099390,-0.039247,0.007591,0.106806,0.999924,-0.006036,0.010760,-0.000497,-0.182610,0.093982,-0.024568,-0.978375,0.802871,11.120492,158.933321
52309,-9.124730,-2.597159,13.335206,6.824272,0.277245,5.059373,-1.041190,1.591113,-0.079012,-0.090192,-0.025239,0.134205,0.999955,-0.005206,0.007955,-0.000395,-0.182237,0.102709,-0.020858,-0.977653,0.196144,12.030298,158.902816
52310,-7.016753,-2.104270,12.767038,4.637779,0.471688,4.148947,-0.528150,0.662575,-0.138845,-0.069758,-0.020657,0.127957,0.999991,-0.002641,0.003313,-0.000694,-0.182507,0.106431,-0.018775,-0.977247,-0.126305,12.407955,158.829239
52311,-2.094759,-1.006335,10.173240,0.200617,0.955412,0.576838,-0.345274,0.353243,-0.282933,-0.020782,-0.009858,0.101786,0.999996,-0.001726,0.001766,-0.001415,-0.183606,0.108489,-0.017228,-0.976843,-0.362885,12.608018,158.669891
52312,-0.024731,0.576079,8.490469,-1.960567,0.070624,-1.531901,-0.412263,0.546713,-0.440507,-0.000002,0.005936,0.084893,0.999992,-0.002061,0.002734,-0.002203,-0.185418,0.111563,-0.015444,-0.976184,-0.659480,12.917050,158.415869
52313,-0.316456,0.419470,8.527923,-1.721109,0.094383,-1.444314,-0.634172,0.900474,-0.510662,-0.002769,0.004473,0.085278,0.999982,-0.003171,0.004502,-0.002553,-0.187417,0.116575,-0.012867,-0.975254,-1.095672,13.426799,158.114925
52314,-2.474313,-0.043592,9.373993,0.105721,-0.223377,-0.120749,-0.568224,1.011655,-0.435550,-0.024269,-0.000116,0.093864,0.999981,-0.002841,0.005058,-0.002178,-0.189074,0.122055,-0.010758,-0.974288,-1.487760,13.998816,157.852342
52315,-3.152630,0.493113,9.933523,0.270752,-0.956812,0.573225,-0.560227,0.926415,-0.327863,-0.031057,0.005261,0.099465,0.999984,-0.002801,0.004632,-0.001639,-0.190209,0.127104,-0.008673,-0.973442,-1.862749,14.522291,157.650292
52316,-2.901290,0.361247,9.737831,0.032931,-0.783008,0.324282,-0.622343,0.845653,-0.237694,-0.028596,0.003950,0.097488,0.999986,-0.003112,0.004228,-0.001188,-0.190863,0.131810,-0.006266,-0.972707,-2.262080,14.999853,157.499250
52317,-2.279248,-0.403079,9.350268,-0.238257,0.104051,-0.183743,-0.572882,0.821427,-0.140475,-0.022411,-0.003747,0.093606,0.999987,-0.002864,0.004107,-0.000702,-0.191073,0.136346,-0.004141,-0.972051,-2.619796,15.465180,157.402908
52318,-2.156523,0.006799,9.268049,-0.573078,-0.254947,-0.317784,-0.517024,0.866559,-0.074502,-0.021163,0.000316,0.092772,0.999987,-0.002585,0.004333,-0.000373,-0.190994,0.141041,-0.002375,-0.971403,-2.936952,15.957376,157.341408
52319,-3.057961,-0.179953,9.742281,0.062542,-0.409255,0.391381,-0.649879,0.935519,-0.115603,-0.030124,-0.001465,0.097570,0.999984,-0.003249,0.004678,-0.000578,-0.191015,0.146196,-0.000001,-0.970639,-3.339043,16.487559,157.249812
52320,-4.114310,-1.637861,10.170195,1.303460,0.545230,1.189384,-0.610494,0.840307,-0.172733,-0.040729,-0.016032,0.101923,0.999986,-0.003052,0.004202,-0.000864,-0.191336,0.150845,0.002316,-0.969861,-3.729439,16.960449,157.123533
52321,-3.692221,-1.077048,10.129467,0.635461,0.151477,1.002633,-0.475798,0.685719,-0.232943,-0.036587,-0.010487,0.101446,0.999991,-0.002379,0.003429,-0.001165,-0.192045,0.154614,0.004171,-0.969121,-4.053224,17.342128,156.964164
52322,-3.158116,-1.236868,9.713703,0.269008,0.452464,0.462621,-0.420502,0.610038,-0.273528,-0.031301,-0.012121,0.097258,0.999992,-0.002103,0.003050,-0.001368,-0.192988,0.157957,0.005864,-0.968386,-4.353437,17.677762,156.781315
52323,-2.233011,-0.166127,9.264224,-0.875646,-0.237519,-0.325006,-0.467216,0.640086,-0.341037,-0.022036,-0.001407,0.092717,0.999991,-0.002336,0.003200,-0.001705,-0.194218,0.161488,0.007806,-0.967543,-4.694973,18.026814,156.554205
52324,-2.401115,-1.145631,9.007676,-0.360208,0.570424,-0.444639,-0.437332,0.753983,-0.329465,-0.023690,-0.011220,0.090191,0.999989,-0.002187,0.003770,-0.001647,-0.195417,0.165537,0.009484,-0.966602,-5.021342,18.439897,156.325606
52325,-3.513195,-0.416249,9.667018,0.033417,-0.513667,0.468429,-0.398930,0.765256,-0.293025,-0.034768,-0.003918,0.096812,0.999990,-0.001995,0.003826,-0.001465,-0.196469,0.169602,0.010935,-0.965668,-5.321343,18.860333,156.115407
52326,-3.703803,-0.301995,9.676529,0.064627,-0.711448,0.528183,-0.451746,0.677992,-0.252747,-0.036713,-0.002755,0.096897,0.999991,-0.002259,0.003390,-0.001264,-0.197272,0.173295,0.012693,-0.964827,-5.644409,19.231883,155.931651
52327,-3.223355,-0.889140,9.220504,-0.055415,-0.028541,-0.004842,-0.481780,0.657982,-0.204737,-0.031939,-0.008636,0.092331,0.999991,-0.002409,0.003290,-0.001024,-0.197813,0.176923,0.014572,-0.964031,-5.976515,19.594072,155.775498
52328,-3.091312,-0.919204,9.185258,-0.222873,0.027568,-0.080310,-0.442805,0.662035,-0.172021,-0.030617,-0.008962,0.091974,0.999992,-0.002214,0.003310,-0.000860,-0.198228,0.180530,0.016232,-0.963250,-6.281564,19.959487,155.636381
52329,-3.193797,-0.893148,9.244337,-0.245731,-0.053108,0.005256,-0.476331,0.711374,-0.172534,-0.031616,-0.008684,0.092577,0.999990,-0.002382,0.003557,-0.000863,-0.198616,0.184406,0.018003,-0.962404,-6.608699,20.352481,155.491113
52330,-4.127820,-1.612365,9.478159,0.652387,0.234247,0.627283,-0.448985,0.693744,-0.188307,-0.040964,-0.015872,0.094960,0.999991,-0.002245,0.003469,-0.000942,-0.199099,0.188163,0.019675,-0.961544,-6.925072,20.733358,155.334794
52331,-3.951555,-1.515345,9.536685,0.365337,0.196370,0.612614,-0.379285,0.594091,-0.195597,-0.039247,-0.014934,0.095512,0.999993,-0.001896,0.002970,-0.000978,-0.199670,0.191370,0.021117,-0.960762,-7.202094,21.056557,155.179097
52332,-3.318573,-1.233676,9.046936,-0.161154,0.150817,-0.100177,-0.354529,0.568118,-0.190871,-0.032940,-0.012145,0.090585,0.999994,-0.001773,0.002841,-0.000954,-0.200237,0.194424,0.022462,-0.960000,-7.464758,21.364392,155.026342
52333,-2.836310,-0.858411,8.707737,-0.645475,-0.031242,-0.637275,-0.388673,0.621772,-0.183710,-0.028100,-0.008389,0.087181,0.999993,-0.001943,0.003109,-0.000919,-0.200739,0.197769,0.023909,-0.959176,-7.748415,21.702823,154.871682
52334,-2.970260,-1.290374,8.610613,-0.404698,0.296531,-0.626941,-0.398406,0.738742,-0.153309,-0.029394,-0.012709,0.086241,0.999991,-0.001992,0.003694,-0.000767,-0.201097,0.201684,0.025256,-0.958251,-8.036249,22.109042,154.723472
52335,-4.260686,-1.276961,9.121157,0.387224,-0.220059,0.325388,-0.391718,0.751622,-0.127004,-0.042272,-0.012564,0.091396,0.999991,-0.001959,0.003758,-0.000635,-0.201334,0.205655,0.026530,-0.957323,-8.316446,22.524239,154.587664
52336,-4.071928,-1.336192,9.015560,0.213757,-0.102518,0.166774,-0.333540,0.679398,-0.089433,-0.040419,-0.013193,0.090315,0.999993,-0.001668,0.003397,-0.000447,-0.201437,0.209222,0.027561,-0.956499,-8.553743,22.900873,154.479083
52337,-3.557068,-1.123078,8.698635,-0.238304,-0.110912,-0.351676,-0.381633,0.684262,-0.057366,-0.035276,-0.011054,0.087129,0.999992,-0.001908,0.003421,-0.000287,-0.201335,0.212864,0.028781,-0.955680,-8.812420,23.282847,154.387731
52338,-3.334253,-1.099501,8.499809,-0.422753,-0.054447,-0.626244,-0.333774,0.744356,0.000393,-0.033026,-0.010853,0.085140,0.999992,-0.001669,0.003722,0.000002,-0.201013,0.216748,0.029651,-0.954848,-9.033266,23.703365,154.324169
52339,-3.401013,-0.930348,8.461006,-0.492227,-0.236810,-0.662708,-0.374396,0.817872,0.061246,-0.033661,-0.009155,0.084765,0.999990,-0.001872,0.004089,0.000306,-0.200363,0.221030,0.030574,-0.953974,-9.266247,24.171002,154.288931
52340,-4.374867,-1.196299,8.839258,0.153739,-0.364153,0.114350,-0.398485,0.881949,0.098164,-0.043352,-0.011808,0.088608,0.999988,-0.001992,0.004410,0.000491,-0.199517,0.225641,0.031507,-0.953041,-9.507590,24.677950,154.267749
52341,-5.555198,-1.919057,9.373814,1.053756,-0.146028,1.199984,-0.370856,0.766969,0.104431,-0.055182,-0.019045,0.093986,0.999991,-0.001854,0.003835,0.000522,-0.198649,0.229674,0.032413,-0.952228,-9.727343,25.120685,154.260319
52342,-5.048393,-1.804441,9.254353,0.570321,-0.052142,0.867055,-0.298239,0.604823,0.099609,-0.050195,-0.017931,0.092722,0.999994,-0.001491,0.003024,0.000498,-0.197858,0.232857,0.033142,-0.951594,-9.900214,25.471158,154.265647
52343,-3.723894,-1.388754,8.548415,-0.400731,0.066482,-0.394295,-0.282322,0.578451,0.089265,-0.036985,-0.013783,0.085611,0.999995,-0.001412,0.002892,0.000446,-0.197128,0.235898,0.033831,-0.950972,-10.065850,25.806032,154.266304
52344,-3.196299,-1.438391,8.114080,-0.673905,0.308981,-1.005100,-0.292049,0.705917,0.106505,-0.031669,-0.014282,0.081274,0.999993,-0.001460,0.003530,0.000533,-0.196324,0.239551,0.034422,-0.950204,-10.239195,26.214240,154.262326
52345,-3.537217,-0.957970,8.162651,-0.664323,-0.256944,-0.893571,-0.289703,0.816337,0.159271,-0.035031,-0.009489,0.081784,0.999990,-0.001449,0.004082,0.000796,-0.195288,0.243734,0.034828,-0.949338,-10.402540,26.690335,154.277593
52346,-3.622571,-0.799304,8.017833,-0.664140,-0.429386,-1.013741,-0.361418,0.934786,0.228438,-0.035841,-0.007889,0.080361,0.999987,-0.001807,0.004674,0.001142,-0.193852,0.248553,0.035375,-0.948362,-10.594167,27.240181,154.321081
52347,-3.688417,-0.959729,7.901922,-0.589835,-0.297106,-1.064607,-0.402103,1.033595,0.305804,-0.036461,-0.009494,0.079228,0.999983,-0.002011,0.005168,0.001529,-0.192011,0.253888,0.035920,-0.947303,-10.792147,27.854207,154.400040
52348,-3.236447,-0.878129,7.487931,-0.872184,-0.195600,-1.657018,-0.438848,1.196408,0.403715,-0.031898,-0.008681,0.075090,0.999978,-0.002194,0.005982,0.002019,-0.189680,0.260036,0.036359,-0.946087,-10.991381,28.570480,154.519509
52349,-4.000997,-0.937179,7.547212,-0.387731,-0.404849,-1.237657,-0.469195,1.378895,0.499568,-0.039465,-0.009293,0.075767,0.999970,-0.002346,0.006894,0.002498,-0.186880,0.267080,0.036639,-0.944670,-11.188560,29.400424,154.675754
52350,-5.212496,-1.220132,7.933917,0.327520,-0.547845,-0.262997,-0.492919,1.478554,0.579070,-0.051501,-0.012155,0.079751,0.999965,-0.002465,0.007393,0.002895,-0.183680,0.274614,0.036833,-0.943129,-11.379272,30.295593,154.868604
52351,-9.658350,-2.390045,10.081021,2.877353,-0.976757,4.021563,-0.540389,1.303181,0.510409,-0.095863,-0.023872,0.101501,0.999972,-0.002702,0.006516,0.002552,-0.180693,0.281335,0.037500,-0.941698,-11.606507,31.085219,155.037910
52352,-10.092658,-4.074804,10.812788,3.206665,0.491145,5.182552,-0.455350,0.595627,0.294859,-0.100544,-0.040650,0.108520,0.999992,-0.002277,0.002978,0.001474,-0.178702,0.284596,0.038711,-0.941048,-11.808610,31.453201,155.159403
52353,-6.475296,-4.154679,9.191901,1.251895,1.817239,1.969170,-0.231802,0.179847,0.060232,-0.064658,-0.041460,0.092025,0.999999,-0.001159,0.000899,0.000301,-0.178051,0.285657,0.039573,-0.940815,-11.933087,31.561134,155.183218
52354,-3.782486,-2.661403,7.741342,-0.521096,1.342647,-0.910756,-0.036821,0.183269,-0.057373,-0.037762,-0.026589,0.077453,1.000000,-0.000184,0.000916,-0.000287,-0.178232,0.286533,0.039685,-0.940509,-11.986915,31.656613,155.128910
52355,-3.326328,-0.790861,7.453479,-1.322874,-0.244232,-1.723526,-0.045900,0.406214,-0.028316,-0.033113,-0.007887,0.074604,0.999998,-0.000229,0.002031,-0.000142,-0.178307,0.288474,0.039598,-0.939905,-12.052564,31.880856,155.062239
52356,-4.296687,-0.379173,7.861930,-0.973024,-0.956665,-0.949673,-0.166890,0.562888,0.100325,-0.042743,-0.003748,0.078743,0.999996,-0.000834,0.002814,0.000502,-0.177633,0.291279,0.039755,-0.939161,-12.154802,32.207835,155.057814
52357,-4.622274,-0.611108,8.012788,-0.791195,-0.844074,-0.614596,-0.287787,0.619643,0.229630,-0.045967,-0.006049,0.080279,0.999994,-0.001439,0.003098,0.001148,-0.176185,0.294483,0.040239,-0.938413,-12.285053,32.582597,155.130236
52358,-3.947967,-0.909220,7.497460,-0.984699,-0.331979,-1.354269,-0.313173,0.709398,0.328965,-0.039198,-0.009039,0.075128,0.999991,-0.001566,0.003547,0.001645,-0.174249,0.298144,0.040617,-0.937602,-12.401143,33.019565,155.255048
52359,-3.326505,-0.767007,6.912448,-1.234789,-0.249938,-2.206887,-0.345665,0.948241,0.423428,-0.032921,-0.007620,0.069294,0.999985,-0.001728,0.004741,0.002117,-0.171866,0.302966,0.040796,-0.936488,-12.519540,33.602320,155.407531
52360,-3.968072,-0.901322,6.790920,-0.724873,-0.326981,-1.936055,-0.355201,1.236594,0.553453,-0.039235,-0.009001,0.068169,0.999975,-0.001776,0.006183,0.002767,-0.168912,0.309160,0.040576,-0.935009,-12.617452,34.362509,155.604104
52361,-7.786635,-0.909726,8.404611,1.069933,-1.530935,1.527776,-0.379544,1.341397,0.612169,-0.077272,-0.009174,0.084583,0.999971,-0.001898,0.006707,0.003061,-0.165657,0.315860,0.040285,-0.933364,-12.712907,35.189128,155.825085
52362,-11.706081,-2.846474,10.505203,3.134354,-0.906436,5.834885,-0.453799,0.792568,0.469439,-0.116576,-0.028500,0.105579,0.999987,-0.002269,0.003963,0.002347,-0.162834,0.320017,0.041022,-0.932412,-12.856559,35.691174,156.033113
52363,-9.118381,-4.218237,9.783024,1.951916,1.240455,4.018334,-0.326345,0.111639,0.200333,-0.091087,-0.042114,0.097950,0.999998,-0.001632,0.000558,0.001002,-0.161326,0.320839,0.042145,-0.932341,-12.971706,35.779302,156.162966
52364,-5.337614,-3.895525,7.988134,0.142905,2.124008,0.333429,-0.053373,-0.090524,-0.025794,-0.053417,-0.038927,0.079868,1.000000,-0.000267,-0.000453,-0.000129,-0.161269,0.320447,0.042525,-0.932469,-13.003005,35.725144,156.169041
52365,-3.625178,-1.988790,7.061899,-1.083298,0.862141,-1.747281,0.114031,0.111538,-0.093482,-0.036222,-0.019911,0.070628,1.000000,0.000570,0.000558,-0.000467,-0.161837,0.320851,0.042068,-0.932252,-12.984204,35.775538,156.096530
52366,-4.497462,-0.631755,7.330888,-0.988765,-0.689431,-1.273651,0.060042,0.332164,0.002872,-0.044853,-0.006340,0.073382,0.999999,0.000300,0.001661,0.000014,-0.161917,0.322343,0.041532,-0.931747,-12.978272,35.961063,156.055224
52367,-5.499773,-0.087899,7.938677,-0.801466,-1.505253,-0.306397,-0.123185,0.393757,0.128098,-0.054841,-0.000865,0.079495,0.999998,-0.000616,0.001969,0.000640,-0.161129,0.324298,0.041595,-0.931202,-13.032248,36.197466,156.090458
52368,-5.749026,-1.358372,7.880966,-0.273835,-0.381647,0.025266,-0.242538,0.374300,0.214685,-0.057328,-0.013550,0.078933,0.999997,-0.001213,0.001871,0.001073,-0.159741,0.326272,0.042091,-0.930730,-13.117433,36.433907,156.188472
52369,-5.190466,-1.713288,7.623607,-0.470391,0.135986,-0.444882,-0.200358,0.398867,0.246452,-0.051731,-0.017120,0.076357,0.999997,-0.001002,0.001994,0.001232,-0.158277,0.328334,0.042316,-0.930244,-13.167056,36.688635,156.304688
52370,-4.740700,-1.408474,7.353075,-0.756472,-0.001481,-0.983571,-0.151378,0.505083,0.284395,-0.047201,-0.014096,0.073661,0.999996,-0.000757,0.002525,0.001422,-0.156738,0.330854,0.042170,-0.929619,-13.182836,37.007278,156.430119
52371,-4.462071,-0.580763,7.104620,-1.072608,-0.684164,-1.499798,-0.164784,0.672159,0.370273,-0.044371,-0.005831,0.071200,0.999992,-0.000824,0.003361,0.001851,-0.154811,0.334177,0.041809,-0.928769,-13.185176,37.430651,156.589021
52372,-4.726455,-0.361084,6.937753,-0.893180,-0.954767,-1.512546,-0.215932,0.872032,0.521942,-0.046952,-0.003659,0.069587,0.999987,-0.001080,0.004360,0.002610,-0.152133,0.338490,0.041280,-0.927672,-13.170179,37.985037,156.822795
52373,-5.277332,0.070039,6.898949,-0.654674,-1.501626,-1.282361,-0.281633,1.041870,0.689191,-0.052415,0.000617,0.069262,0.999980,-0.001408,0.005209,0.003446,-0.148597,0.343665,0.040638,-0.926370,-13.132694,38.656125,157.149852
52374,-5.687402,0.318642,6.895219,-0.506649,-1.821241,-1.070971,-0.415325,1.173050,0.844381,-0.056482,0.003091,0.069278,0.999972,-0.002077,0.005865,0.004222,-0.144133,0.349561,0.040253,-0.924885,-13.110366,39.420240,157.569892
52375,-5.944439,0.114558,6.771871,-0.293248,-1.658603,-0.960027,-0.546644,1.294929,1.014789,-0.059010,0.001031,0.068099,0.999962,-0.002733,0.006475,0.005074,-0.138665,0.356126,0.040082,-0.923222,-13.088402,40.274602,158.098917
52376,-6.626473,-0.466334,6.804737,0.183286,-1.239704,-0.386133,-0.634020,1.386357,1.142193,-0.065764,-0.004823,0.068520,0.999955,-0.003170,0.006932,0.005711,-0.132462,0.363170,0.040026,-0.921390,-13.055049,41.196080,158.713235
52377,-7.623971,-1.826593,7.055925,0.864089,-0.127150,0.698359,-0.602464,1.396107,1.179822,-0.075636,-0.018500,0.071144,0.999954,-0.003012,0.006980,0.005899,-0.126130,0.370212,0.039739,-0.919487,-12.970940,42.127644,159.364609
52378,-8.440348,-2.415782,7.534667,1.064847,0.322726,1.702779,-0.477853,1.261753,1.104300,-0.083791,-0.024441,0.075935,0.999962,-0.002389,0.006309,0.005521,-0.120340,0.376510,0.039107,-0.917730,-12.823921,42.973264,159.993187
52379,-8.551767,-2.666370,7.707625,0.925072,0.626598,1.951638,-0.331715,1.048413,0.950032,-0.084984,-0.026940,0.077567,0.999974,-0.001659,0.005242,0.004750,-0.115482,0.381689,0.038215,-0.916252,-12.634109,43.679152,160.552257
52380,-8.181334,-2.441130,7.618375,0.578570,0.572195,1.600883,-0.214389,0.839267,0.817935,-0.081392,-0.024663,0.076552,0.999982,-0.001072,0.004196,0.004090,-0.111410,0.385797,0.037162,-0.915078,-12.413132,44.249842,161.053655
52381,-7.658699,-1.633037,7.422566,0.136939,-0.028523,0.976041,-0.130357,0.663750,0.763445,-0.076277,-0.016573,0.074490,0.999987,-0.000652,0.003319,0.003817,-0.107711,0.389036,0.035921,-0.914199,-12.143374,44.714462,161.550669
52382,-7.213711,-0.963987,7.123685,-0.123928,-0.525264,0.356974,-0.160135,0.561243,0.813663,-0.071897,-0.009876,0.071447,0.999987,-0.000801,0.002806,0.004068,-0.103705,0.391819,0.034779,-0.913517,-11.843632,45.125461,162.111138
52383,-6.884211,-0.926959,6.781881,-0.157137,-0.440993,-0.115992,-0.247764,0.543108,0.861380,-0.068617,-0.009481,0.068017,0.999986,-0.001239,0.002716,0.004307,-0.099302,0.394565,0.033946,-0.912856,-11.556180,45.530173,162.720293
52384,-6.991085,-1.538567,6.454383,0.191696,0.182151,-0.177799,-0.267584,0.570139,0.859615,-0.069660,-0.015599,0.064763,0.999986,-0.001338,0.002851,0.004298,-0.094872,0.397430,0.033198,-0.912111,-11.276853,45.947363,163.330356
52385,-6.886258,-1.534881,6.436199,0.074108,0.254103,-0.266462,-0.210280,0.618812,0.862554,-0.068596,-0.015577,0.064591,0.999985,-0.001051,0.003094,0.004313,-0.090545,0.400481,0.032153,-0.911254,-10.958750,46.390390,163.943566
52386,-7.121913,-0.899213,6.446453,0.073605,-0.354788,-0.171366,-0.141632,0.634793,0.888293,-0.070973,-0.009262,0.064697,0.999985,-0.000708,0.003174,0.004441,-0.086240,0.403563,0.030741,-0.910360,-10.578938,46.842203,164.583693
52387,-7.072648,-0.363800,6.420081,-0.068511,-0.809691,-0.288442,-0.205137,0.654844,0.950436,-0.070498,-0.003907,0.064436,0.999983,-0.001026,0.003274,0.004752,-0.081522,0.406762,0.029478,-0.909412,-10.188305,47.309136,165.282822
52388,-7.075044,-0.396543,6.431001,-0.130135,-0.714574,-0.271038,-0.262789,0.677297,1.028298,-0.070511,-0.004244,0.064555,0.999980,-0.001314,0.003386,0.005141,-0.076336,0.410081,0.028313,-0.908408,-9.773936,47.792753,166.054220
52389,-7.186112,-0.528530,6.283939,0.003463,-0.539403,-0.267231,-0.319581,0.731874,1.065596,-0.071601,-0.005567,0.063110,0.999978,-0.001598,0.003659,0.005328,-0.070865,0.413660,0.027302,-0.907259,-9.359376,48.307338,166.862824
52390,-7.331480,-0.848521,6.252292,0.083691,-0.176057,-0.141968,-0.285961,0.777491,1.131277,-0.073022,-0.008809,0.062820,0.999975,-0.001430,0.003887,0.005656,-0.065172,0.417421,0.025992,-0.906001,-8.873450,48.849077,167.735023
52391,-7.350745,-0.071772,6.132444,0.039102,-0.871965,-0.279447,-0.255036,0.805420,1.199771,-0.073254,-0.001079,0.061621,0.999973,-0.001275,0.004027,0.005999,-0.059230,0.421287,0.024381,-0.904663,-8.307978,49.407532,168.680947
52392,-7.545223,-0.153869,6.044133,0.164396,-0.733612,-0.173221,-0.316730,0.847013,1.293228,-0.075184,-0.001929,0.060763,0.999969,-0.001584,0.004235,0.006466,-0.052740,0.425344,0.022845,-0.903205,-7.699217,49.990335,169.722682
52393,-7.503965,-0.052529,5.907336,0.159231,-0.739880,-0.292454,-0.297079,0.872488,1.421668,-0.074775,-0.000969,0.059401,0.999964,-0.001485,0.004362,0.007108,-0.045708,0.429499,0.020932,-0.901667,-6.967164,50.589432,170.900259
52394,-7.695793,-0.139075,5.780087,0.304301,-0.571711,-0.208887,-0.277873,0.904047,1.546598,-0.076682,-0.001904,0.058150,0.999959,-0.001389,0.004520,0.007733,-0.038157,0.433769,0.018663,-0.900022,-6.110672,51.203833,172.214601
52395,-7.841035,-0.098684,5.671546,0.393159,-0.509950,-0.156520,-0.253069,0.937487,1.659559,-0.078132,-0.001564,0.057084,0.999954,-0.001265,0.004687,0.008298,-0.030148,0.438160,0.016020,-0.898249,-5.124539,51.830571,173.664155
52396,-7.992694,-0.255294,5.562820,0.489031,-0.239141,-0.086699,-0.214128,0.966794,1.720673,-0.079631,-0.003179,0.056017,0.999951,-0.001071,0.004834,0.008603,-0.021952,0.442636,0.013072,-0.896337,-4.034196,52.460081,175.205824
52397,-8.151683,-0.217813,5.568215,0.484953,-0.152604,0.048429,-0.190018,0.999741,1.748760,-0.081214,-0.002836,0.056091,0.999949,-0.000950,0.004999,0.008744,-0.013680,0.447217,0.009939,-0.894266,-2.864539,53.090960,176.815920
52398,-8.394972,-0.488122,5.599075,0.509310,0.244438,0.274031,-0.154759,0.993982,1.700364,-0.083625,-0.005550,0.056411,0.999951,-0.000774,0.004970,0.008502,-0.005705,0.451720,0.006765,-0.892116,-1.667150,53.696875,178.423238
52399,-8.122928,-0.245014,5.545742,0.287710,0.139804,0.020554,-0.112779,1.001015,1.685265,-0.080926,-0.003101,0.055865,0.999952,-0.000564,0.005005,0.008426,0.002111,0.456211,0.003429,-0.889863,-0.409852,54.286322,-179.938217
52400,-8.406705,-0.385720,5.564937,0.332571,0.415190,0.262255,-0.059282,1.014361,1.690859,-0.083747,-0.004550,0.056076,0.999951,-0.000296,0.005072,0.008454,0.009827,0.460714,-0.000150,-0.887494,0.927976,54.861130,-178.249572
52401,-8.438191,0.062496,5.663102,0.172896,0.106427,0.347724,0.007612,0.990217,1.681856,-0.084101,-0.000085,0.057048,0.999952,0.000038,0.004951,0.008409,0.017351,0.465072,-0.004015,-0.885094,2.346084,55.398852,-176.522083
52402,-8.801757,0.225568,5.799065,0.170017,0.098377,0.728175,0.030369,0.927638,1.670651,-0.087762,0.001513,0.058398,0.999954,0.000152,0.004638,0.008353,0.024766,0.469108,-0.007951,-0.882758,3.809614,55.875829,-174.765111
52403,-8.603471,0.657136,5.727526,0.040957,-0.197311,0.541692,0.021669,0.839991,1.672998,-0.085844,0.005847,0.057637,0.999956,0.000108,0.004200,0.008365,0.032210,0.472717,-0.011872,-0.880546,5.308048,56.277101,-172.969935
52404,-8.498558,0.376939,5.561777,0.022145,0.210383,0.348723,-0.053487,0.825926,1.542156,-0.084781,0.003130,0.055967,0.999962,-0.000267,0.004130,0.007711,0.039248,0.476217,-0.015146,-0.878321,6.684488,56.652690,-171.276791
52405,-8.527117,-0.042448,5.445327,0.025363,0.755672,0.276492,0.026499,0.791803,1.472648,-0.085048,-0.001059,0.054790,0.999965,0.000132,0.003959,0.007363,0.045788,0.479556,-0.018620,-0.876118,8.077180,56.991486,-169.626667
52406,-8.484342,0.657848,5.495965,-0.080491,0.175296,0.315665,0.083058,0.764651,1.410598,-0.084676,0.005958,0.055286,0.999968,0.000415,0.003823,0.007053,0.051912,0.482759,-0.022190,-0.873932,9.471718,57.298089,-168.018198
52407,-8.597832,0.920020,5.456691,-0.047848,0.047536,0.411716,0.094531,0.731216,1.368927,-0.085838,0.008586,0.054885,0.999970,0.000473,0.003656,0.006845,0.057823,0.485796,-0.025724,-0.871778,10.858923,57.568920,-166.432130
52408,-8.696751,0.907945,5.481906,-0.093161,0.190149,0.505389,0.084331,0.669984,1.355020,-0.086842,0.008468,0.055114,0.999971,0.000422,0.003350,0.006775,0.063683,0.488533,-0.029188,-0.869729,12.237517,57.786161,-164.852919
52409,-8.562698,1.217661,5.415439,-0.148398,-0.019917,0.390533,0.075676,0.619311,1.285867,-0.085535,0.011606,0.054424,0.999974,0.000378,0.003097,0.006429,0.069256,0.491032,-0.032468,-0.867777,13.559216,57.964071,-163.339143
52410,-8.567206,1.057223,5.301625,-0.126345,0.248613,0.313662,0.049387,0.590617,1.247855,-0.085579,0.010025,0.053272,0.999976,0.000247,0.002953,0.006239,0.074717,0.493378,-0.035542,-0.865871,14.837945,58.113003,-161.860274
52411,-8.398784,1.195058,5.146807,-0.126280,0.192481,0.107149,0.090967,0.576937,1.248158,-0.083911,0.011403,0.051715,0.999976,0.000455,0.002885,0.006241,0.080074,0.495657,-0.038806,-0.863948,16.151040,58.236615,-160.371853
52412,-8.600858,1.401381,5.192515,-0.104736,0.128656,0.329903,0.086373,0.561140,1.186707,-0.085943,0.013481,0.052172,0.999978,0.000432,0.002806,0.005933,0.085167,0.497854,-0.041896,-0.862051,17.410711,58.344069,-158.944323
52413,-8.840771,1.419123,5.290064,-0.126939,0.257634,0.583192,0.092836,0.494306,1.138514,-0.088355,0.013664,0.053125,0.999981,0.000464,0.002472,0.005693,0.090022,0.499756,-0.044928,-0.860303,18.621578,58.407412,-157.580412
52414,-8.596167,1.578449,5.198176,-0.199546,0.151409,0.353087,0.078675,0.449040,1.073745,-0.085928,0.015303,0.052181,0.999983,0.000393,0.002245,0.005369,0.094617,0.501452,-0.047749,-0.858670,19.755723,58.443856,-156.297113
52415,-8.666651,1.349218,5.168076,-0.213510,0.483215,0.353939,0.101124,0.419404,1.035703,-0.086626,0.013017,0.051869,0.999984,0.000506,0.002097,0.005178,0.098986,0.503025,-0.050590,-0.857093,20.863664,58.458705,-155.060630
52416,-8.686536,1.888498,5.213477,-0.224462,0.054410,0.490148,0.137462,0.379934,1.040045,-0.086863,0.018397,0.052313,0.999984,0.000687,0.001900,0.005200,0.103265,0.504428,-0.053608,-0.855579,21.981140,58.439121,-153.836734
52417,-8.632645,1.973945,5.153566,-0.226798,0.051801,0.430523,0.092192,0.341326,0.992939,-0.086335,0.019287,0.051692,0.999986,0.000461,0.001707,0.004965,0.107446,0.505642,-0.056339,-0.854171,23.018002,58.397263,-152.677210
52418,-8.847784,1.792420,5.166070,-0.195826,0.367078,0.580124,0.093666,0.284257,0.938408,-0.088487,0.017485,0.051795,0.999988,0.000468,0.001421,0.004692,0.111369,0.506613,-0.058961,-0.852915,23.982858,58.327419,-151.601961
52419,-8.835053,1.993385,5.230583,-0.261309,0.256947,0.639859,0.127807,0.196223,0.948814,-0.088392,0.019481,0.052405,0.999988,0.000639,0.000981,0.004744,0.115224,0.507213,-0.061809,-0.851844,24.938344,58.199577,-150.560154
52420,-8.330272,2.192640,5.028302,-0.311233,0.022410,0.156613,0.107518,0.174652,0.913933,-0.083358,0.021519,0.050367,0.999989,0.000538,0.000873,0.004570,0.118970,0.507707,-0.064486,-0.850835,25.835004,58.060480,-149.571848
52421,-8.405916,1.995909,4.927742,-0.236510,0.311350,0.125741,0.091504,0.190715,0.824417,-0.084093,0.019590,0.049367,0.999991,0.000458,0.000954,0.004122,0.122381,0.508280,-0.066864,-0.849826,26.649328,57.944322,-148.668985
52422,-8.592862,2.138936,4.967094,-0.188223,0.299456,0.334172,0.120231,0.171637,0.805464,-0.085971,0.021013,0.049757,0.999991,0.000601,0.000858,0.004027,0.125627,0.508785,-0.069320,-0.848852,27.448977,57.816871,-147.801129
52423,-8.624465,2.756584,4.918208,-0.061624,-0.205910,0.488875,0.123023,0.131133,0.823948,-0.086325,0.027180,0.049255,0.999991,0.000615,0.000656,0.004120,0.128931,0.509105,-0.071865,-0.847953,28.242359,57.657303,-146.941726
52424,-8.473901,2.576127,4.998156,-0.239674,0.010655,0.354251,0.204516,0.050422,0.996604,-0.084853,0.025287,0.050029,0.999987,0.001023,0.000252,0.004983,0.132725,0.509062,-0.075239,-0.847101,29.172841,57.403027,-145.972678
52425,-8.579176,3.626647,5.126090,-0.156793,-0.857400,0.783112,0.138921,0.010943,1.076613,-0.085982,0.035768,0.051291,0.999985,0.000695,0.000055,0.005383,0.137009,0.508763,-0.078569,-0.846295,30.096436,57.097744,-144.964624
52426,-8.720737,3.323668,5.124888,-0.136856,-0.416112,0.825433,0.101117,-0.078866,1.116233,-0.087411,0.032723,0.051231,0.999984,0.000506,-0.000394,0.005581,0.141514,0.508027,-0.081893,-0.845681,30.968579,56.728399,-143.987755
52427,-8.881299,3.473289,5.407851,-0.276943,-0.382203,1.140013,0.136133,-0.261094,1.326145,-0.089111,0.034106,0.053986,0.999977,0.000681,-0.001305,0.006631,0.146741,0.506439,-0.086031,-0.845331,31.912059,56.198454,-142.944895
52428,-7.782557,3.230915,4.904991,-0.336715,-0.389463,-0.076180,0.132176,-0.285235,1.323954,-0.078107,0.031760,0.048960,0.999977,0.000661,-0.001426,0.006620,0.151948,0.504723,-0.090153,-0.845008,32.809132,55.648699,-141.948153
52429,-8.133771,2.924837,5.119020,-0.396678,0.141656,0.224175,0.122356,-0.287044,1.262062,-0.081593,0.028703,0.051091,0.999979,0.000612,-0.001435,0.006310,0.156914,0.502997,-0.094082,-0.844702,33.629459,55.108740,-141.031920
52430,-7.074635,2.292647,4.496805,-0.412156,0.449752,-1.143473,0.075742,-0.162329,0.972896,-0.070893,0.022565,0.044919,0.999988,0.000379,-0.000812,0.004864,0.160826,0.501880,-0.096978,-0.844302,34.260075,54.714502,-140.309074
52431,-7.769169,2.571748,4.690675,-0.222248,0.515964,-0.396722,0.115890,-0.007136,0.648670,-0.077776,0.025438,0.046919,0.999995,0.000579,-0.000036,0.003243,0.163344,0.501598,-0.099111,-0.843739,34.758198,54.494219,-139.774783
52432,-8.287857,2.989714,4.773249,0.006220,0.382336,0.200522,0.119698,-0.033000,0.594890,-0.082975,0.029622,0.047737,0.999995,0.000598,-0.000165,0.002974,0.165608,0.501232,-0.101138,-0.843274,35.204124,54.277417,-139.305373
52433,-8.175493,3.458164,4.770005,0.043728,-0.033024,0.264377,0.091610,-0.064940,0.627637,-0.081878,0.034303,0.047689,0.999995,0.000458,-0.000325,0.003138,0.168066,0.500686,-0.103161,-0.842867,35.636022,54.032260,-138.832566
52434,-8.308724,3.435445,4.813251,0.066258,0.105680,0.384792,0.092856,-0.114615,0.701688,-0.083235,0.034040,0.048101,0.999994,0.000464,-0.000573,0.003508,0.170801,0.499888,-0.105409,-0.842513,36.085425,53.737542,-138.336840
52435,-8.793831,4.230537,5.067773,0.216136,-0.348314,1.175596,0.175037,-0.255747,0.867053,-0.088185,0.041879,0.050602,0.999989,0.000875,-0.001279,0.004335,0.173954,0.498469,-0.108540,-0.842311,36.612799,53.318574,-137.800954
52436,-9.775612,5.452187,5.917575,0.171258,-0.927130,2.813271,0.254852,-0.599044,1.336632,-0.098294,0.053791,0.058951,0.999972,0.001274,-0.002995,0.006683,0.178689,0.495400,-0.113467,-0.842481,37.298091,52.577810,-137.119925
52437,-9.378409,5.720602,6.508693,-0.382892,-1.113543,2.901478,0.198270,-1.034344,1.922288,-0.094663,0.056235,0.064655,0.999940,0.000991,-0.005172,0.009611,0.185772,0.490070,-0.119991,-0.843162,38.066603,51.428847,-136.284101
52438,-5.990384,2.545107,5.032211,-1.143456,0.451157,-1.678044,-0.199570,-1.048814,1.782761,-0.060391,0.024964,0.049981,0.999946,-0.000998,-0.005244,0.008914,0.193208,0.484337,-0.124490,-0.844151,38.481829,50.318187,-135.595978
52439,-3.051688,-0.094760,3.158740,-1.356422,1.528453,-5.923814,-0.170944,-0.353962,0.559661,-0.030570,-0.001006,0.031534,0.999994,-0.000855,-0.001770,0.002798,0.195837,0.482295,-0.125475,-0.844568,38.535360,49.953003,-135.393667
52440,-5.798762,1.267323,3.837053,-0.401960,1.568192,-2.932727,0.143572,0.277339,-0.359039,-0.057911,0.012750,0.038460,0.999997,0.000718,0.001387,-0.001795,0.194218,0.483801,-0.124947,-0.844159,38.544817,50.199273,-135.483035
52441,-8.742672,4.069369,4.902989,0.568300,0.384056,0.983732,0.223017,0.338642,-0.394205,-0.087263,0.040811,0.049223,0.999996,0.001115,0.001693,-0.001971,0.192299,0.485659,-0.124614,-0.843581,38.607455,50.485018,-135.562509
52442,-8.948289,5.732974,5.293071,0.634610,-1.024667,1.998442,-0.029415,0.133957,-0.038532,-0.089436,0.057355,0.052982,1.000000,-0.000147,0.000670,-0.000193,0.192362,0.486189,-0.124270,-0.843311,38.629049,50.552566,-135.507167
52443,-8.292608,3.857113,5.198107,0.040072,0.357897,0.700888,-0.261356,-0.031723,0.139893,-0.082961,0.038581,0.051917,0.999999,-0.001307,-0.000159,0.000699,0.193641,0.485685,-0.123548,-0.843415,38.543667,50.481613,-135.418715
52444,-7.589222,2.391499,4.828379,-0.249511,1.350623,-0.607126,-0.042461,-0.067374,0.056996,-0.075915,0.023904,0.048253,1.000000,-0.000212,-0.000337,0.000285,0.194013,0.485295,-0.123576,-0.843550,38.522387,50.424880,-135.409227
52445,-7.801611,3.982373,4.997123,0.034664,0.035142,0.271618,0.111903,-0.058823,0.059838,-0.078043,0.039772,0.049971,1.000000,0.000560,-0.000294,0.000299,0.194031,0.485086,-0.124259,-0.843566,38.595435,50.370466,-135.392492
52446,-8.038112,4.789944,5.084488,0.238928,-0.559739,0.819170,0.035138,-0.108545,0.225968,-0.080463,0.047800,0.050810,0.999999,0.000176,-0.000543,0.001130,0.194901,0.484492,-0.125063,-0.843588,38.691789,50.234840,-135.287884
52447,-8.037881,4.243721,5.063162,0.159307,-0.039995,0.590446,-0.024955,-0.191472,0.389152,-0.080510,0.042287,0.050549,0.999998,-0.000125,-0.000957,0.001946,0.196556,0.483384,-0.126096,-0.843686,38.805313,50.003009,-135.116181
52448,-8.235959,4.141877,5.022797,0.286798,0.186745,0.680035,0.073417,-0.305815,0.481206,-0.082536,0.041202,0.050117,0.999996,0.000367,-0.001529,0.002406,0.198285,0.481830,-0.127872,-0.843903,38.972426,49.687309,-134.946990
52449,-9.177350,5.680449,5.735817,0.466209,-0.646233,2.383810,0.257336,-0.593335,0.810889,-0.092172,0.056358,0.057158,0.999987,0.001287,-0.002967,0.004054,0.200778,0.479025,-0.131506,-0.844352,39.291767,49.123667,-134.715440
52450,-9.237636,6.689434,6.430222,0.195562,-1.335056,3.210573,0.155263,-1.023103,1.384826,-0.093164,0.066201,0.063879,0.999963,0.000776,-0.005115,0.006924,0.205642,0.473902,-0.136503,-0.845278,39.653951,48.160494,-134.345761
52451,-7.278468,5.321120,5.627825,-0.207268,-0.914830,0.774063,-0.039731,-1.225222,1.568156,-0.073542,0.052648,0.055819,0.999950,-0.000199,-0.006126,0.007841,0.211590,0.467556,-0.141313,-0.846553,39.897017,47.039291,-133.980596
52452,-6.690663,4.576986,5.636652,-0.542071,-0.397118,0.037757,-0.001186,-1.226209,1.427439,-0.067575,0.045289,0.055953,0.999956,-0.000006,-0.006131,0.007137,0.216829,0.461304,-0.145938,-0.847872,40.081262,45.969107,-133.719806
