PacketCounter,Acc_X,Acc_Y,Acc_Z,FreeAcc_E,FreeAcc_N,FreeAcc_U,Gyr_X,Gyr_Y,Gyr_Z,VelInc_X,VelInc_Y,VelInc_Z,OriInc_q0,OriInc_q1,OriInc_q2,OriInc_q3,Quat_q0,Quat_q1,Quat_q2,Quat_q3,Roll,Pitch,Yaw
46148,2.208781,4.488415,5.396078,-0.076906,-0.778817,-2.496349,0.482318,-1.270914,0.557858,0.021619,0.044814,0.054207,0.999973,0.002412,-0.006355,0.002789,-0.062460,-0.188058,-0.264888,-0.943699,33.563376,-18.774823,166.718277
46149,2.078079,4.665800,5.616384,0.225978,-0.843433,-2.271554,0.340447,-1.071686,0.535933,0.020354,0.046617,0.056353,0.999981,0.001702,-0.005358,0.002680,-0.060983,-0.193957,-0.265609,-0.942398,33.782620,-19.461558,166.633291
46150,2.174189,4.361362,5.581078,0.214782,-0.576716,-2.429074,0.279577,-0.895305,0.544786,0.021373,0.043594,0.055968,0.999985,0.001398,-0.004477,0.002724,-0.059285,-0.199008,-0.266068,-0.941323,33.945658,-20.066762,166.610530
46151,2.690133,4.241381,5.441391,-0.238291,-0.429605,-2.423970,0.230545,-0.689876,0.558931,0.026595,0.042426,0.054555,0.999989,0.001153,-0.003449,0.002795,-0.057296,-0.203096,-0.266346,-0.940494,34.055937,-20.579035,166.662814
46152,3.351793,4.251062,5.485454,-0.763180,-0.278561,-2.148747,0.180569,-0.433590,0.516370,0.033289,0.042547,0.054965,0.999994,0.000903,-0.002168,0.002582,-0.055214,-0.205900,-0.266492,-0.939967,34.112542,-20.955913,166.781535
46153,3.308819,4.121790,5.798167,-0.553504,-0.034652,-1.986543,0.142111,-0.167750,0.443188,0.032948,0.041250,0.058039,0.999997,0.000711,-0.000839,0.002216,-0.053163,-0.207348,-0.266614,-0.939733,34.128334,-21.183429,166.953928
46154,2.971031,4.273762,6.327393,0.000582,0.012894,-1.619533,0.143362,0.004321,0.391153,0.029628,0.042750,0.063304,0.999998,0.000717,0.000022,0.001956,-0.051123,-0.207914,-0.266830,-0.939660,34.131086,-21.312531,167.159994
46155,3.510609,4.702413,6.607702,-0.351808,-0.110678,-0.983035,0.124893,0.107588,0.354762,0.035058,0.047045,0.066088,0.999998,0.000624,0.000538,0.001774,-0.049138,-0.207944,-0.267031,-0.939702,34.117927,-21.381042,167.382682
46156,4.180748,4.880959,6.574099,-0.967585,-0.152156,-0.671473,0.064090,0.253924,0.336355,0.041809,0.048859,0.065704,0.999998,0.000320,0.001270,0.001682,-0.047104,-0.207244,-0.266992,-0.939972,34.053553,-21.373972,167.647167
46157,4.537106,4.971564,6.665099,-1.262905,-0.131274,-0.425830,-0.004992,0.434031,0.314072,0.045437,0.049789,0.066551,0.999996,-0.000025,0.002170,0.001570,-0.045008,-0.205652,-0.266701,-0.940506,33.932734,-21.273898,167.961496
46158,4.210991,4.920404,7.064817,-0.829149,0.021413,-0.264578,-0.013288,0.593328,0.316274,0.042241,0.049275,0.070520,0.999994,-0.000066,0.002967,0.001581,-0.042696,-0.203309,-0.266394,-0.941210,33.786762,-21.098104,168.331488
46159,2.771924,4.719188,7.749461,0.726693,0.240690,-0.356347,0.108481,0.605123,0.421613,0.027854,0.047208,0.077436,0.999993,0.000542,0.003026,0.002108,-0.039750,-0.201076,-0.266560,-0.941772,33.692274,-20.949440,168.757924
46160,1.794734,5.463169,8.254998,1.830734,-0.326325,0.074384,0.192060,0.452396,0.536893,0.017987,0.054601,0.082562,0.999993,0.000960,0.002262,0.002684,-0.036377,-0.199728,-0.266961,-0.942081,33.642835,-20.909766,169.191350
46161,2.497082,5.599301,8.169214,1.158028,-0.363964,0.328818,0.054955,0.272336,0.537654,0.024931,0.056038,0.081674,0.999995,0.000275,0.001362,0.002688,-0.033381,-0.199203,-0.266688,-0.942381,33.537720,-20.955684,169.563464
46162,2.834296,4.583680,7.851860,0.683966,0.389221,-0.321864,-0.088690,0.191984,0.428232,0.028320,0.045932,0.078471,0.999997,-0.000443,0.000960,0.002141,-0.031147,-0.198882,-0.265824,-0.942769,33.378555,-21.004457,169.853192
46163,2.875579,3.970240,7.738505,0.571776,0.843830,-0.708995,-0.156407,0.144992,0.236813,0.028765,0.039797,0.077333,0.999999,-0.000782,0.000725,0.001184,-0.029948,-0.198520,-0.264831,-0.943163,33.222431,-21.014962,170.028504
46164,3.157141,3.661923,7.693978,0.274191,1.112913,-0.798214,-0.166846,0.100485,0.030288,0.031604,0.036688,0.076893,1.000000,-0.000834,0.000502,0.000151,-0.029790,-0.198089,-0.263978,-0.943498,33.102464,-20.981428,170.083436
46165,3.361219,3.804855,7.599570,0.045257,0.964551,-0.724467,-0.154089,0.091831,-0.154434,0.033676,0.038081,0.075951,0.999999,-0.000770,0.000459,-0.000772,-0.030504,-0.197460,-0.263375,-0.943776,33.026127,-20.894483,170.039768
46166,3.619564,4.290695,7.484489,-0.233908,0.525226,-0.474687,-0.193699,0.112453,-0.310794,0.036304,0.042923,0.074783,0.999998,-0.000968,0.000562,-0.001554,-0.031965,-0.196517,-0.262732,-0.944103,32.951765,-20.748647,169.923213
46167,3.890145,4.577285,7.478240,-0.504063,0.311823,-0.238900,-0.304582,0.173866,-0.444455,0.039068,0.045800,0.074679,0.999996,-0.001523,0.000869,-0.002222,-0.034088,-0.195095,-0.261715,-0.944606,32.832002,-20.532118,169.757524
46168,3.935607,4.506251,7.606217,-0.542228,0.430444,-0.160209,-0.367688,0.243868,-0.527914,0.039568,0.045098,0.075931,0.999994,-0.001838,0.001219,-0.002640,-0.036572,-0.193216,-0.260480,-0.945241,32.680951,-20.256168,169.572510
46169,3.799283,4.464484,7.786270,-0.398800,0.518000,-0.088256,-0.336899,0.288420,-0.545693,0.038227,0.044672,0.077732,0.999994,-0.001684,0.001442,-0.002728,-0.039055,-0.191110,-0.259424,-0.945860,32.546343,-19.953846,169.391919
46170,3.791008,4.795751,7.860280,-0.408009,0.258820,0.133229,-0.263533,0.303568,-0.541145,0.038159,0.047958,0.078482,0.999994,-0.001318,0.001518,-0.002706,-0.041423,-0.188948,-0.258699,-0.946392,32.449016,-19.645849,169.219008
46171,4.129066,5.108221,7.822731,-0.785862,0.028415,0.371592,-0.238416,0.344845,-0.529760,0.041561,0.051066,0.078095,0.999994,-0.001192,0.001724,-0.002649,-0.043663,-0.186611,-0.258099,-0.946918,32.360291,-19.321745,169.064505
46172,4.224614,5.146888,7.695199,-0.984454,-0.050433,0.315582,-0.250759,0.427899,-0.513759,0.042543,0.051456,0.076797,0.999994,-0.001254,0.002139,-0.002569,-0.045727,-0.183895,-0.257430,-0.947534,32.250729,-18.962569,168.945499
46173,4.181051,5.179313,7.523292,-1.078847,-0.172690,0.172910,-0.296494,0.551881,-0.505880,0.042149,0.051798,0.075040,0.999992,-0.001482,0.002759,-0.002529,-0.047640,-0.180591,-0.256573,-0.948308,32.101708,-18.545930,168.869255
46174,4.137295,5.148897,7.357547,-1.181974,-0.243820,0.000806,-0.380588,0.693968,-0.523100,0.041762,0.051520,0.073333,0.999989,-0.001903,0.003470,-0.002615,-0.049523,-0.176566,-0.255350,-0.949299,31.891402,-18.055388,168.829021
46175,3.937016,4.862985,7.159357,-1.161858,-0.144552,-0.376939,-0.478850,0.867263,-0.558543,0.039816,0.048690,0.071305,0.999984,-0.002394,0.004336,-0.002793,-0.051442,-0.171645,-0.253739,-0.950530,31.615251,-17.469762,168.822898
46176,3.711940,4.584524,7.071591,-1.089865,-0.010518,-0.668586,-0.559419,1.057108,-0.603727,0.037631,0.045929,0.070390,0.999978,-0.002797,0.005285,-0.003019,-0.053400,-0.165739,-0.251813,-0.951982,31.281828,-16.778165,168.850273
46177,2.976737,4.393213,7.374573,-0.416981,0.132575,-0.737852,-0.560092,1.221448,-0.645143,0.030358,0.044041,0.073438,0.999972,-0.002800,0.006107,-0.003226,-0.055348,-0.158988,-0.249960,-0.953509,30.942558,-15.993259,168.902384
46178,1.713638,4.018356,8.009121,0.864163,0.496149,-0.744313,-0.383327,1.241393,-0.594386,0.017752,0.040285,0.079905,0.999974,-0.001917,0.006207,-0.002972,-0.056883,-0.152249,-0.248890,-0.954797,30.696536,-15.213586,168.982529
46179,0.995826,4.228887,8.675775,1.630042,0.484553,-0.260132,-0.089899,1.101596,-0.407035,0.010522,0.042307,0.086682,0.999983,-0.000449,0.005508,-0.002035,-0.057475,-0.146485,-0.249039,-0.955624,30.607868,-14.556932,169.112950
46180,0.936478,5.154306,8.987126,1.650997,-0.170926,0.456521,0.114980,0.883745,-0.172920,0.009806,0.051483,0.089858,0.999990,0.000575,0.004419,-0.000865,-0.057065,-0.142108,-0.249916,-0.956081,30.623428,-14.076156,169.296575
46181,1.721725,5.753552,8.630122,0.699454,-0.696183,0.654998,0.078426,0.738624,-0.007262,0.017538,0.057501,0.086259,0.999993,0.000392,0.003693,-0.000036,-0.056073,-0.138620,-0.250465,-0.956508,30.611060,-13.715056,169.519960
46182,2.140418,5.364907,8.062839,0.087525,-0.544221,0.090285,-0.056265,0.734085,0.068036,0.021682,0.053679,0.080534,0.999993,-0.000281,0.003670,0.000340,-0.054816,-0.135206,-0.250302,-0.957112,30.513053,-13.377966,169.779956
46183,2.124574,4.545442,7.654428,-0.043448,-0.033511,-0.660541,-0.136725,0.799386,0.077259,0.021534,0.045515,0.076427,0.999992,-0.000684,0.003997,0.000386,-0.053489,-0.131469,-0.249773,-0.957846,30.366560,-13.010715,170.062533
46184,1.875016,4.035208,7.495480,0.106407,0.284407,-1.101303,-0.099202,0.881582,0.054499,0.019069,0.040394,0.074851,0.999990,-0.000496,0.004408,0.000272,-0.052141,-0.127316,-0.249446,-0.958566,30.239639,-12.595588,170.357006
46185,2.236580,4.240289,7.661383,-0.275810,0.237972,-0.782409,-0.031088,0.957975,-0.011651,0.022735,0.042413,0.076499,0.999989,-0.000155,0.004790,-0.000058,-0.050972,-0.122730,-0.249512,-0.959210,30.157858,-12.123026,170.638782
46186,2.491936,4.532704,7.883491,-0.558083,0.127809,-0.401199,-0.004732,1.045915,-0.092862,0.025352,0.045317,0.078702,0.999986,-0.000024,0.005230,-0.000464,-0.050063,-0.117624,-0.249760,-0.959832,30.095706,-11.583210,170.904538
46187,2.607762,4.671859,8.175902,-0.698723,0.165232,-0.068170,0.013927,1.139375,-0.162798,0.026581,0.046691,0.081612,0.999983,0.000070,0.005697,-0.000814,-0.049363,-0.111984,-0.250166,-0.960437,30.049897,-10.976704,171.160833
46188,2.665983,5.026408,8.558599,-0.789449,0.052170,0.434003,0.027144,1.244487,-0.222507,0.027248,0.050222,0.085424,0.999980,0.000136,0.006222,-0.001113,-0.048808,-0.105764,-0.250674,-0.961038,30.013293,-10.300858,171.417011
46189,1.327974,5.560243,9.461728,0.570352,-0.169473,1.225819,0.044674,1.266071,-0.225753,0.013941,0.055566,0.094543,0.999979,0.000223,0.006330,-0.001129,-0.048231,-0.099436,-0.251274,-0.961586,29.990352,-9.613141,171.676573
46190,-0.491952,5.949937,10.808882,2.500792,-0.109593,2.278990,0.053839,0.984801,-0.088793,-0.004361,0.059472,0.108127,0.999988,0.000269,0.004924,-0.000444,-0.047341,-0.094632,-0.251764,-0.961987,29.976274,-9.104249,171.923025
46191,-0.749962,6.270097,11.179922,2.741970,-0.230119,2.729070,0.024097,0.467882,0.133758,-0.007280,0.062683,0.111824,0.999997,0.000120,0.002339,0.000669,-0.046047,-0.092585,-0.251889,-0.962216,29.953882,-8.915450,172.130831
46192,1.078341,6.178122,10.319669,0.765087,-0.318373,2.234753,-0.148037,0.070777,0.218644,0.010752,0.061869,0.103147,0.999999,-0.000740,0.000354,0.001093,-0.044923,-0.092513,-0.251045,-0.962497,29.843127,-8.947633,172.266647
46193,2.236887,4.636517,8.809145,-0.604561,0.431772,0.363263,-0.283392,-0.029189,0.161568,0.022318,0.046508,0.088029,0.999999,-0.001417,-0.000146,0.000808,-0.044262,-0.092823,-0.249562,-0.962883,29.664925,-9.013241,172.344640
46194,2.034241,3.194830,7.730705,-0.567519,1.126017,-1.296888,-0.214386,0.094627,0.010724,0.020377,0.032032,0.077263,0.999999,-0.001072,0.000473,0.000054,-0.044140,-0.092360,-0.248499,-0.963208,29.531309,-8.973990,172.382614
46195,2.116089,3.360718,7.670859,-0.682870,0.955179,-1.254907,-0.022942,0.246759,-0.176678,0.021285,0.033597,0.076679,0.999999,-0.000115,0.001234,-0.000883,-0.044644,-0.090977,-0.248487,-0.963319,29.516608,-8.806208,172.369028
46196,2.778090,4.834407,8.393263,-1.285557,0.102714,0.180946,0.039233,0.395593,-0.325913,0.028026,0.048282,0.083887,0.999997,0.000196,0.001978,-0.001630,-0.045652,-0.088703,-0.248864,-0.963387,29.541036,-8.521914,172.323124
46197,2.790018,5.909380,9.378419,-1.210266,-0.359392,1.548010,-0.040663,0.446079,-0.382171,0.028222,0.059059,0.093709,0.999996,-0.000203,0.002230,-0.001911,-0.046905,-0.086099,-0.248901,-0.963553,29.522833,-8.196732,172.262934
46198,3.135916,6.310718,9.946191,-1.527812,-0.396297,2.274255,-0.158206,0.442374,-0.348568,0.031689,0.063131,0.099342,0.999996,-0.000791,0.002212,-0.001743,-0.048050,-0.083526,-0.248344,-0.963867,29.433451,-7.882928,172.218686
46199,2.850628,6.088777,10.314231,-1.229926,-0.079590,2.437346,-0.189464,0.365726,-0.230453,0.028765,0.060952,0.103032,0.999997,-0.000947,0.001829,-0.001152,-0.048734,-0.081461,-0.247578,-0.964206,29.322229,-7.640669,172.211359
46200,2.703779,5.634980,10.219980,-1.121983,0.239161,2.111878,-0.102910,0.260258,-0.082999,0.027194,0.056391,0.102135,0.999999,-0.000515,0.001301,-0.000415,-0.048802,-0.080109,-0.247132,-0.964431,29.253521,-7.492639,172.248416
46201,2.510322,5.387698,9.920488,-0.995076,0.283704,1.705750,0.011939,0.152079,0.013767,0.025175,0.053873,0.099189,1.000000,0.000060,0.000760,0.000069,-0.048492,-0.079426,-0.247185,-0.964489,29.249574,-7.425573,172.303356
46202,2.232831,4.886976,9.356558,-0.804208,0.423546,0.938456,0.100590,0.091170,0.043013,0.022360,0.048828,0.093580,1.000000,0.000503,0.000456,0.000215,-0.048079,-0.079096,-0.247628,-0.964424,29.295533,-7.397489,172.356059
46203,1.492823,4.588183,8.920752,-0.140572,0.394240,0.320651,0.171063,0.047599,0.003968,0.014949,0.045806,0.089243,1.000000,0.000855,0.000238,0.000020,-0.047882,-0.078942,-0.248426,-0.964241,29.387250,-7.379940,172.376582
46204,0.739175,4.280989,8.454001,0.533996,0.360017,-0.329619,0.197465,0.001911,-0.063846,0.007406,0.042724,0.084582,0.999999,0.000987,0.000010,-0.000319,-0.048057,-0.078934,-0.249356,-0.963992,29.498857,-7.366518,172.350244
46205,0.404096,4.099947,7.934019,0.780711,0.245533,-0.910346,0.194343,-0.020470,-0.155207,0.004065,0.040919,0.079380,0.999999,0.000972,-0.000102,-0.000776,-0.048703,-0.078916,-0.250313,-0.963714,29.616635,-7.337983,172.271444
46206,0.067619,3.954737,7.460240,1.030897,0.118395,-1.432776,0.173359,0.007848,-0.256063,0.000730,0.039482,0.074637,0.999999,0.000867,0.000039,-0.001280,-0.049806,-0.078631,-0.251203,-0.963449,29.726397,-7.266899,172.150422
46207,0.697114,4.398665,7.375544,0.358958,-0.206415,-1.206796,0.142695,0.071650,-0.369242,0.007079,0.043921,0.073784,0.999998,0.000713,0.000358,-0.001846,-0.051388,-0.077888,-0.252017,-0.963213,29.824491,-7.131354,171.990890
46208,1.738747,5.292497,7.770587,-0.676562,-0.634837,-0.296654,0.037359,0.208465,-0.437438,0.017584,0.052872,0.077697,0.999997,0.000187,0.001042,-0.002187,-0.053164,-0.076373,-0.252373,-0.963145,29.859766,-6.908406,171.836985
46209,1.468434,5.420839,8.434201,-0.345272,-0.457464,0.304074,-0.026001,0.297581,-0.394772,0.014917,0.054190,0.084313,0.999997,-0.000130,0.001488,-0.001974,-0.054649,-0.074465,-0.252441,-0.963194,29.853855,-6.653087,171.729912
46210,0.997580,5.987118,9.218716,0.171722,-0.633969,1.205204,0.015310,0.271920,-0.236559,0.010172,0.059852,0.092178,0.999998,0.000077,0.001360,-0.001183,-0.055387,-0.072893,-0.252630,-0.963222,29.861779,-6.455927,171.694864
46211,0.483017,6.357879,9.653028,0.701102,-0.815174,1.706028,0.036290,0.096651,-0.035186,0.004888,0.063560,0.096539,1.000000,0.000181,0.000483,-0.000176,-0.055370,-0.072423,-0.252808,-0.963212,29.877219,-6.403024,171.710016
46212,0.996916,5.967213,9.532213,0.207710,-0.458770,1.466094,0.039119,-0.110120,0.127126,0.009879,0.059660,0.095339,1.000000,0.000196,-0.000551,0.000636,-0.054830,-0.073156,-0.252874,-0.963170,29.890714,-6.499383,171.747126
46213,1.578204,5.213685,8.955193,-0.383605,0.001088,0.662115,0.074771,-0.221447,0.202186,0.015630,0.052119,0.089589,0.999999,0.000374,-0.001107,0.001011,-0.054058,-0.074528,-0.253063,-0.963059,29.925037,-6.672287,171.789516
46214,1.563011,4.592079,8.491358,-0.374854,0.318253,-0.045832,0.118672,-0.243497,0.182156,0.015485,0.045885,0.084960,0.999999,0.000593,-0.001217,0.000911,-0.053392,-0.075994,-0.253456,-0.962878,29.985252,-6.850651,171.815607
46215,1.540982,4.333306,8.268177,-0.347042,0.440599,-0.368097,0.163022,-0.216041,0.099311,0.015299,0.043273,0.082734,0.999999,0.000815,-0.001080,0.000497,-0.053075,-0.077234,-0.254109,-0.962625,30.075940,-6.991464,171.807810
46216,1.490892,4.473138,8.281026,-0.282775,0.330741,-0.293353,0.160018,-0.177165,0.009769,0.014833,0.044666,0.082859,0.999999,0.000800,-0.000886,0.000049,-0.053139,-0.078173,-0.254782,-0.962367,30.167942,-7.087515,171.766530
46217,1.410599,4.586134,8.319746,-0.190101,0.252005,-0.213681,0.110028,-0.132902,-0.079597,0.014069,0.045810,0.083232,1.000000,0.000550,-0.000665,-0.000398,-0.053598,-0.078771,-0.255271,-0.962164,30.236409,-7.135569,171.693174
46218,1.371356,4.583098,8.407045,-0.128966,0.300192,-0.145369,0.074493,-0.091069,-0.132298,0.013706,0.045791,0.084094,1.000000,0.000372,-0.000455,-0.000661,-0.054269,-0.079092,-0.255611,-0.962010,30.285183,-7.147930,171.605847
46219,1.400300,4.936298,8.654266,-0.134314,0.126434,0.246645,0.051725,-0.053144,-0.156250,0.014019,0.049330,0.086559,1.000000,0.000259,-0.000266,-0.000781,-0.055017,-0.079193,-0.255871,-0.961890,30.322156,-7.134241,171.517424
46220,0.255244,5.517020,9.401793,1.086217,-0.176420,1.035602,0.026447,-0.074985,-0.137814,0.002555,0.055156,0.094026,1.000000,0.000132,-0.000375,-0.000689,-0.055713,-0.079416,-0.255986,-0.961801,30.343139,-7.136965,171.432023
46221,-0.962651,5.923537,10.281743,2.431571,-0.287380,1.837806,-0.047105,-0.378678,-0.043983,-0.009808,0.059262,0.102785,0.999998,-0.000236,-0.001893,-0.000220,-0.056377,-0.081198,-0.255634,-0.961707,30.328524,-7.316693,171.304595
46222,0.882928,5.886525,9.962130,0.617723,-0.154728,1.774754,-0.179258,-0.716744,0.012353,0.008469,0.058955,0.099599,0.999993,-0.000896,-0.003584,0.000062,-0.057254,-0.084639,-0.254517,-0.961654,30.246829,-7.680154,171.107088
46223,2.880891,5.246042,9.089738,-1.393574,0.257565,0.977817,-0.261442,-0.780234,-0.022300,0.028460,0.052576,0.090940,0.999992,-0.001307,-0.003901,-0.000112,-0.058414,-0.088317,-0.253008,-0.961652,30.125303,-8.065335,170.874001
46224,3.143835,4.415680,8.733782,-1.601437,0.824931,0.307364,-0.206159,-0.701957,-0.081131,0.031150,0.044234,0.087402,0.999993,-0.001031,-0.003510,-0.000406,-0.059730,-0.091559,-0.251799,-0.961585,30.036659,-8.395383,170.634928
46225,3.088272,4.431866,8.771084,-1.486620,0.809037,0.348316,-0.072756,-0.595183,-0.122343,0.030649,0.044332,0.087786,0.999995,-0.000364,-0.002976,-0.000612,-0.061051,-0.094274,-0.251289,-0.961373,30.025267,-8.660708,170.405988
46226,2.218610,5.198693,9.249204,-0.544788,0.223832,1.010868,-0.026130,-0.535969,-0.154677,0.021978,0.051982,0.092544,0.999996,-0.000131,-0.002680,-0.000773,-0.062428,-0.096680,-0.251024,-0.961115,30.040249,-8.887758,170.178074
46227,2.010266,5.818800,9.733754,-0.235938,-0.131940,1.701317,-0.183724,-0.599299,-0.180635,0.019864,0.058259,0.097344,0.999995,-0.000919,-0.002996,-0.000903,-0.064086,-0.099305,-0.250003,-0.961005,29.971997,-9.138521,169.918473
46228,1.950336,5.496891,9.875606,-0.074608,0.169980,1.655198,-0.400500,-0.682740,-0.243362,0.019233,0.055143,0.098712,0.999991,-0.002002,-0.003414,-0.001217,-0.066255,-0.102185,-0.247930,-0.961093,29.788461,-9.413830,169.603756
46229,2.161453,4.529961,9.714617,-0.188444,0.924578,1.081135,-0.500945,-0.814232,-0.324775,0.021293,0.045508,0.097119,0.999987,-0.002505,-0.004071,-0.001624,-0.069031,-0.105557,-0.245378,-0.961188,29.563164,-9.732175,169.210613
46230,2.593690,3.561334,9.302163,-0.562875,1.617817,0.336497,-0.357350,-0.886242,-0.377155,0.025592,0.035731,0.093072,0.999987,-0.001787,-0.004431,-0.001886,-0.072066,-0.109261,-0.243502,-0.961028,29.429141,-10.073347,168.771206
46231,2.461200,3.675681,9.489282,-0.326675,1.561675,0.534708,-0.057132,-0.926622,-0.410478,0.024247,0.036734,0.094995,0.999987,-0.000286,-0.004633,-0.002052,-0.075147,-0.113221,-0.243076,-0.960442,29.476080,-10.425129,168.302885
46232,0.753350,4.783217,10.221396,1.490686,0.587586,1.383539,0.166907,-1.062784,-0.359853,0.007076,0.047734,0.102292,0.999984,0.000835,-0.005314,-0.001799,-0.078019,-0.117980,-0.243627,-0.959500,29.655864,-10.858762,167.820066
46233,0.666562,6.170274,10.558067,1.646402,-0.493969,2.313041,-0.008435,-1.419808,-0.320317,0.006015,0.061697,0.105622,0.999974,-0.000042,-0.007099,-0.001602,-0.081239,-0.124424,-0.243176,-0.958532,29.757467,-11.479537,167.251738
46234,2.576200,5.690833,9.479285,-0.305797,-0.178964,1.534216,-0.385563,-1.624430,-0.447534,0.025119,0.057035,0.094889,0.999963,-0.001928,-0.008122,-0.002238,-0.085543,-0.131534,-0.240887,-0.957786,29.673605,-12.166335,166.558335
46235,3.714704,3.757073,8.188718,-1.454905,1.159396,-0.246720,-0.547187,-1.561931,-0.642833,0.036628,0.037677,0.082072,0.999961,-0.002736,-0.007810,-0.003214,-0.090811,-0.138029,-0.237971,-0.957116,29.523860,-12.767696,165.782761
46236,3.558771,2.802960,7.529705,-1.308483,1.653138,-1.282023,-0.357320,-1.365245,-0.789628,0.035183,0.028025,0.075488,0.999967,-0.001787,-0.006826,-0.003948,-0.096406,-0.143487,-0.236126,-0.956223,29.492706,-13.231326,164.988772
46237,3.030778,3.503240,7.638936,-0.779145,0.963093,-0.965281,-0.073542,-1.186023,-0.858907,0.030004,0.034931,0.076555,0.999973,-0.000368,-0.005930,-0.004294,-0.101914,-0.148132,-0.235772,-0.955030,29.627686,-13.584772,164.209206
46238,2.635503,4.921827,7.893051,-0.439709,-0.248076,-0.157879,0.034922,-1.078553,-0.841023,0.026135,0.049094,0.079080,0.999977,0.000175,-0.005393,-0.004205,-0.107122,-0.152337,-0.235952,-0.953753,29.818455,-13.888455,163.468534
46239,2.866061,5.819323,7.929299,-0.713267,-0.929031,0.364768,-0.089269,-0.982579,-0.791990,0.028501,0.058116,0.079407,0.999980,-0.000446,-0.004913,-0.003960,-0.112075,-0.156065,-0.235557,-0.952678,29.930712,-14.155755,162.779050
46240,2.861108,5.650765,7.818556,-0.689760,-0.827149,0.191656,-0.264333,-0.839593,-0.704695,0.028482,0.056511,0.078231,0.999984,-0.001322,-0.004198,-0.003523,-0.116574,-0.159116,-0.234319,-0.951939,29.922911,-14.377262,162.175842
46241,2.678530,5.190124,7.787046,-0.438934,-0.509581,-0.101993,-0.370250,-0.737709,-0.581151,0.026649,0.051968,0.077873,0.999987,-0.001851,-0.003689,-0.002906,-0.120450,-0.161755,-0.232544,-0.951447,29.834773,-14.583038,161.665303
46242,2.722390,4.796362,7.593155,-0.466732,-0.256665,-0.443125,-0.377824,-0.627519,-0.470783,0.027099,0.048043,0.075926,0.999991,-0.001889,-0.003138,-0.002354,-0.123673,-0.163996,-0.230693,-0.951100,29.720115,-14.767221,161.244155
46243,2.431961,4.659686,7.644000,-0.141236,-0.231534,-0.539919,-0.334088,-0.533962,-0.400253,0.024209,0.046676,0.076427,0.999993,-0.001670,-0.002670,-0.002001,-0.126417,-0.165892,-0.229059,-0.950805,29.616680,-14.924679,160.886496
46244,2.209569,4.606914,7.692822,0.105828,-0.259052,-0.581924,-0.277069,-0.475427,-0.332108,0.021989,0.046139,0.076917,0.999995,-0.001385,-0.002377,-0.001661,-0.128719,-0.167629,-0.227661,-0.950527,29.532071,-15.073765,160.581433
46245,2.445363,4.908215,7.643526,-0.162923,-0.482447,-0.419364,-0.258024,-0.417145,-0.281633,0.024363,0.049146,0.076423,0.999996,-0.001290,-0.002086,-0.001408,-0.130701,-0.169150,-0.226359,-0.950299,29.449067,-15.207493,160.319209
46246,2.796187,5.138965,7.608327,-0.525490,-0.602353,-0.248418,-0.329994,-0.325168,-0.268156,0.027907,0.051478,0.076044,0.999996,-0.001650,-0.001626,-0.001341,-0.132571,-0.170207,-0.224751,-0.950232,29.315248,-15.300517,160.091155
46247,2.827364,5.090786,7.782093,-0.480805,-0.510900,-0.118422,-0.443955,-0.218061,-0.293869,0.028264,0.051039,0.077739,0.999996,-0.002220,-0.001090,-0.001469,-0.134542,-0.170644,-0.222703,-0.950359,29.112799,-15.332486,159.880763
46248,2.891508,4.673920,7.784348,-0.475644,-0.160495,-0.296894,-0.515166,-0.146357,-0.341062,0.028938,0.046890,0.077744,0.999995,-0.002576,-0.000732,-0.001705,-0.136714,-0.170644,-0.220394,-0.950587,28.869520,-15.317188,159.666836
46249,2.976054,4.223263,7.782994,-0.487998,0.227069,-0.486485,-0.486783,-0.078739,-0.381575,0.029811,0.042365,0.077739,0.999995,-0.002434,-0.000394,-0.001908,-0.138982,-0.170290,-0.218308,-0.950803,28.643893,-15.256619,159.450887
46250,2.847394,4.237584,7.802142,-0.387955,0.155979,-0.498005,-0.369689,-0.038021,-0.406642,0.028545,0.042462,0.077948,0.999996,-0.001848,-0.000190,-0.002033,-0.141220,-0.169801,-0.216816,-0.950902,28.484506,-15.170436,159.233481
46251,3.011599,4.441249,7.702358,-0.635808,-0.010981,-0.446988,-0.249792,-0.000636,-0.421876,0.030209,0.044445,0.076968,0.999997,-0.001249,-0.000003,-0.002109,-0.143391,-0.169195,-0.215943,-0.950884,28.393814,-15.060676,159.018406
46252,3.210291,4.746464,7.521168,-0.968506,-0.271173,-0.411025,-0.137392,0.071179,-0.405292,0.032226,0.047451,0.075168,0.999998,-0.000687,0.000356,-0.002026,-0.145306,-0.168353,-0.215630,-0.950814,28.358613,-14.920564,158.832391
46253,3.467168,5.211063,7.209140,-1.442909,-0.686182,-0.400186,-0.079686,0.204880,-0.373972,0.034843,0.052074,0.072035,0.999998,-0.000398,0.001024,-0.001870,-0.146882,-0.166942,-0.215672,-0.950811,28.343097,-14.720529,158.700264
46254,3.553432,5.483133,6.916151,-1.729250,-0.984583,-0.508664,-0.115905,0.399202,-0.346544,0.035767,0.054810,0.069059,0.999996,-0.000580,0.001996,-0.001733,-0.148145,-0.164619,-0.215650,-0.951025,28.288102,-14.431235,158.637087
46255,3.768623,5.658752,6.716119,-2.094967,-1.124067,-0.556479,-0.221419,0.649141,-0.330361,0.037997,0.056599,0.066976,0.999993,-0.001107,0.003246,-0.001652,-0.149150,-0.161035,-0.215306,-0.951559,28.153982,-14.019021,158.651736
46256,3.922069,5.617196,6.492930,-2.389582,-1.112741,-0.749324,-0.346570,0.937861,-0.342921,0.039621,0.056216,0.064647,0.999986,-0.001733,0.004689,-0.001715,-0.149999,-0.155979,-0.214579,-0.952432,27.930523,-13.458772,158.738466
46257,4.273026,4.992578,6.428989,-2.700074,-0.475351,-1.037788,-0.412374,1.251359,-0.351190,0.043219,0.049982,0.063917,0.999977,-0.002062,0.006257,-0.001756,-0.150598,-0.149355,-0.213780,-0.953578,27.653031,-12.735656,158.904210
46258,4.127392,4.259787,6.072741,-2.649908,-0.022015,-1.748238,-0.284355,1.568075,-0.328322,0.041818,0.042615,0.060340,0.999967,-0.001422,0.007840,-0.001642,-0.150646,-0.141347,-0.213795,-0.954787,27.430729,-11.858648,159.163720
46259,4.285991,4.338760,5.855865,-3.017840,-0.101704,-1.915463,-0.022014,1.931641,-0.251954,0.043477,0.043340,0.058136,0.999953,-0.000110,0.009658,-0.001260,-0.149743,-0.131858,-0.215271,-0.955954,27.337061,-10.814452,159.557441
46260,3.087888,4.632626,6.560920,-1.903860,-0.467053,-1.434330,0.384549,2.287229,-0.070128,0.031643,0.046189,0.065339,0.999933,0.001923,0.011436,-0.000351,-0.147303,-0.121171,-0.218806,-0.956945,27.450187,-9.639325,160.138735
46261,0.908841,5.538454,7.653893,0.092519,-1.471976,-0.436940,0.863582,2.385002,0.330178,0.009911,0.055070,0.076662,0.999918,0.004318,0.011925,0.001651,-0.142529,-0.110772,-0.224437,-0.957624,27.812445,-8.521351,160.955473
46262,0.284046,7.334726,8.424995,0.380630,-2.776624,1.004073,1.084704,2.290007,0.806630,0.003513,0.072902,0.084608,0.999912,0.005423,0.011450,0.004033,-0.135433,-0.101519,-0.230751,-0.958178,28.284382,-7.587683,161.995220
46263,0.987281,8.772938,8.343855,-0.675343,-3.700528,1.737545,0.946931,2.238274,1.209300,0.010280,0.087395,0.083739,0.999908,0.004735,0.011191,0.006046,-0.126514,-0.092849,-0.236129,-0.958966,28.668649,-6.795776,163.230520
46264,1.609744,8.587470,8.076484,-1.337620,-3.404964,1.509070,0.611487,2.326821,1.573146,0.016363,0.085756,0.080838,0.999897,0.003057,0.011634,0.007865,-0.115878,-0.083971,-0.239738,-0.960233,28.853562,-6.067677,164.675738
46265,1.535565,7.161409,7.886391,-1.094931,-2.257700,0.653571,0.426280,2.446501,1.925361,0.015631,0.071596,0.078826,0.999877,0.002131,0.012232,0.009626,-0.103457,-0.074797,-0.242326,-0.961759,28.928976,-5.378409,166.332131
46266,2.463417,6.668589,7.104325,-2.116202,-1.976867,-0.188588,0.410944,2.703816,2.238477,0.024845,0.066817,0.070846,0.999844,0.002055,0.013518,0.011192,-0.089198,-0.064755,-0.244790,-0.963290,28.996481,-4.651012,168.216050
46267,2.488738,6.286245,6.546238,-2.231590,-1.932986,-0.876965,0.539079,3.074092,2.562482,0.025085,0.063007,0.065248,0.999796,0.002695,0.015369,0.012812,-0.072850,-0.053342,-0.247841,-0.964584,29.142742,-3.829907,170.365970
46268,1.644918,6.435732,6.487244,-1.471624,-2.252993,-0.926354,0.643671,3.413493,2.804482,0.016653,0.064381,0.064797,0.999751,0.003218,0.017066,0.014021,-0.054855,-0.040626,-0.251347,-0.965487,29.369239,-2.916053,172.732019
46269,0.865993,6.664165,6.292515,-0.780493,-2.636623,-1.026581,0.608272,3.740913,2.903219,0.008871,0.066578,0.062963,0.999715,0.003041,0.018703,0.014515,-0.035949,-0.026403,-0.254613,-0.966014,29.609240,-1.874142,175.242192
46270,0.192555,6.224272,6.324852,-0.137454,-2.266930,-1.232246,0.485003,4.056488,2.930221,0.002299,0.062121,0.063355,0.999684,0.002425,0.020280,0.014650,-0.016507,-0.010673,-0.257189,-0.966161,29.825564,-0.695174,177.857224
46271,-0.489155,5.896198,6.584132,0.469538,-1.832047,-1.165317,0.386803,4.317133,2.924516,-0.004328,0.058768,0.066053,0.999658,0.001934,0.021583,0.014621,0.003249,0.006359,-0.259138,-0.965814,30.041516,0.607351,-179.451495
46272,-0.813492,5.237847,6.317992,0.671981,-1.333257,-1.702031,0.322854,4.566522,2.908905,-0.007448,0.052165,0.063440,0.999632,0.001614,0.022830,0.014543,0.023252,0.024589,-0.260596,-0.964855,30.287054,2.024728,-176.690984
46273,-1.512123,5.824425,6.517340,1.233855,-1.622541,-1.179701,0.360205,4.726978,2.932417,-0.014424,0.057911,0.065624,0.999612,0.001801,0.023632,0.014660,0.043556,0.043569,-0.262014,-0.963096,30.626294,3.502814,-173.861723
46274,-3.428366,5.926489,6.734374,2.960084,-1.264695,-0.764940,0.277380,4.685183,2.916733,-0.033551,0.058678,0.068217,0.999618,0.001387,0.023423,0.014582,0.063713,0.062296,-0.262845,-0.960715,30.990267,4.945245,-171.039764
46275,-4.783454,5.799786,7.054072,4.048336,-0.594268,-0.350725,0.218799,4.444309,2.868023,-0.047075,0.057241,0.071655,0.999650,0.001094,0.022219,0.014338,0.083293,0.079886,-0.263255,-0.957798,31.379977,6.267786,-168.297522
46276,-5.186903,5.407125,7.672450,4.057496,0.322984,0.108594,-0.012119,4.180732,2.698975,-0.050974,0.053384,0.077793,0.999690,-0.000061,0.020902,0.013493,0.101754,0.096272,-0.262436,-0.954728,31.680930,7.493804,-165.703867
46277,-5.461596,3.748637,8.147715,3.711968,2.172959,-0.233679,-0.189426,3.843134,2.361789,-0.053476,0.036928,0.082477,0.999745,-0.000947,0.019214,0.011808,0.118190,0.111361,-0.260624,-0.951685,31.897037,8.647433,-163.365774
46278,-5.704659,1.652819,8.790184,3.112332,4.405412,-0.678241,-0.197107,3.437352,1.925719,-0.055681,0.016075,0.088851,0.999805,-0.000985,0.017186,0.009628,0.131975,0.125020,-0.258662,-0.948708,32.101887,9.726282,-161.356294
46279,-5.578067,-0.954589,9.052379,2.102682,6.714235,-1.783984,-0.088718,2.988709,1.293907,-0.054357,-0.009860,0.091348,0.999867,-0.000444,0.014943,0.006469,0.142072,0.137412,-0.257023,-0.945977,32.326783,10.774582,-159.786422
46280,-5.732646,-2.079430,9.387880,1.606016,7.877694,-2.023242,0.369487,2.496720,0.417724,-0.056105,-0.021087,0.094546,0.999918,0.001847,0.012483,0.002089,0.147047,0.148890,-0.257244,-0.943416,32.729888,11.845734,-158.791706
46281,-5.757453,-0.743145,10.149712,1.370785,7.141823,-0.656919,0.751304,1.973490,-0.487916,-0.056588,-0.007675,0.102030,0.999941,0.003756,0.009867,-0.002440,0.146773,0.159334,-0.258941,-0.941286,33.241487,12.940976,-158.396729
46282,-5.857015,1.969158,10.925976,1.477870,5.279324,1.478902,0.604687,1.490331,-1.338697,-0.057621,0.019748,0.109751,0.999945,0.003023,0.007452,-0.006693,0.141968,0.168475,-0.259588,-0.940253,33.543516,14.070238,-158.567609
46283,-4.704381,3.321298,10.221077,0.763510,3.350870,1.404105,-0.181441,1.190309,-2.345482,-0.046040,0.033850,0.102456,0.999913,-0.000907,0.005951,-0.011727,0.132685,0.176935,-0.255874,-0.941072,33.240909,15.373838,-159.334820
46284,-5.280745,1.104095,10.031958,0.872357,5.115200,0.326946,-0.785607,0.891456,-3.399343,-0.052158,0.012326,0.100506,0.999838,-0.003928,0.004457,-0.016996,0.118561,0.184889,-0.248510,-0.943399,32.394066,16.853262,-160.745971
46285,-6.554492,-0.617766,10.059347,1.738789,6.721173,0.001855,-0.807630,0.541494,-4.169693,-0.065376,-0.004407,0.100791,0.999771,-0.004038,0.002707,-0.020847,0.100344,0.192068,-0.240452,-0.946163,31.336885,18.372827,-162.697856
46286,-7.750592,-0.315965,10.862254,2.535879,6.788810,1.395531,-0.699716,0.146295,-4.894449,-0.077467,-0.000883,0.108685,0.999694,-0.003498,0.000731,-0.024470,0.078066,0.198199,-0.232261,-0.949040,30.110600,19.872830,-165.199427
46287,-10.700747,-1.654874,12.155921,4.724289,8.750002,3.075174,-0.227377,-0.644201,-5.342946,-0.107787,-0.013538,0.121229,0.999637,-0.001137,-0.003221,-0.026712,0.052224,0.201153,-0.226039,-0.951691,28.916242,21.054862,-168.231661
46288,-11.394463,0.618090,12.662856,5.385753,6.516675,4.987885,0.454207,-1.688682,-5.568353,-0.114783,0.009083,0.125680,0.999574,0.002271,-0.008442,-0.027838,0.023400,0.199414,-0.222903,-0.953940,27.892124,21.717257,-171.735217
46289,-11.687467,4.659181,13.538967,5.333376,2.659426,7.681579,0.510405,-2.824935,-5.972051,-0.117319,0.049748,0.133859,0.999451,0.002552,-0.014122,-0.029855,-0.008689,0.192517,-0.219574,-0.956373,26.670950,21.842254,-175.803553
46290,-11.163991,5.996085,12.888022,5.135068,0.411745,7.510632,0.228966,-3.980869,-6.133211,-0.112271,0.063252,0.126721,0.999331,0.001145,-0.019900,-0.030659,-0.042537,0.180056,-0.214396,-0.959064,25.151501,21.322062,179.730262
46291,-10.037905,7.345165,12.480257,4.182361,-1.780009,7.209243,-0.342256,-4.790942,-6.329349,-0.100932,0.076851,0.122259,0.999211,-0.001711,-0.023948,-0.031638,-0.077614,0.163774,-0.205851,-0.961655,23.267773,20.300335,174.993385
46292,-9.772443,4.119134,11.877941,5.025854,-0.013691,5.293715,-1.045563,-5.408705,-6.857940,-0.099381,0.045192,0.115877,0.999033,-0.005226,-0.027035,-0.034279,-0.115154,0.145062,-0.192861,-0.963588,20.949941,18.903596,169.896344
46293,-8.776062,-0.705177,11.051395,6.044459,3.144845,2.561194,-0.977628,-5.959823,-7.342173,-0.091167,-0.003214,0.107852,0.998870,-0.004886,-0.029788,-0.036697,-0.155362,0.123810,-0.179157,-0.963554,18.723221,17.113416,164.523048
46294,-3.356452,0.306069,8.424586,1.640470,1.882841,-1.091011,-0.100383,-6.117121,-7.377421,-0.035974,0.004400,0.083168,0.998852,-0.000502,-0.030574,-0.036873,-0.196067,0.100883,-0.169092,-0.960619,17.186274,15.077572,159.219506
46295,3.841130,5.883698,4.538968,-6.475319,-1.929916,-4.882573,0.990285,-5.284415,-6.330829,0.039021,0.057379,0.046702,0.999138,0.004950,-0.026414,-0.031645,-0.231206,0.079781,-0.165303,-0.955434,16.653782,13.231691,154.738111
46296,6.067479,15.014788,3.581605,-12.797559,-8.484823,-3.546209,1.637953,-3.893900,-4.194614,0.063073,0.148535,0.038250,0.999557,0.008189,-0.019467,-0.020970,-0.254950,0.062709,-0.166816,-0.950390,16.932493,11.785874,151.727321
46297,3.496137,18.945958,6.061778,-12.848669,-11.564980,0.631071,0.770550,-2.675309,-1.773298,0.035816,0.188908,0.061822,0.999864,0.003853,-0.013376,-0.008866,-0.265759,0.050466,-0.166457,-0.948218,17.090366,10.613368,150.285859
46298,-6.276183,16.858724,10.122985,-3.387633,-13.202606,5.688642,0.174863,-2.235651,0.074165,-0.063952,0.168475,0.100667,0.999937,0.000874,-0.011178,0.000371,-0.267238,0.039547,-0.164273,-0.948701,17.126667,9.371629,149.950443
46299,-11.535706,8.080303,12.866359,6.002607,-8.126925,6.367247,-1.158862,-3.276657,0.802466,-0.117764,0.081070,0.126278,0.999841,-0.005794,-0.016382,0.004012,-0.265796,0.024871,-0.154498,-0.951244,16.444784,7.437564,149.853416
46300,-1.760954,-1.960681,10.709084,3.053435,3.863845,0.054509,-0.671985,-4.061008,0.687734,-0.019713,-0.019313,0.106770,0.999782,-0.003360,-0.020304,0.003438,-0.265464,0.005896,-0.145916,-0.952997,16.025915,5.089321,149.585742
46301,3.623899,-3.476771,8.851572,-0.603751,7.101121,-2.548415,0.370540,-3.787034,-0.032063,0.034550,-0.034938,0.089116,0.999819,0.001853,-0.018934,-0.000160,-0.268288,-0.012634,-0.142593,-0.952643,16.191160,3.005951,148.970605
46302,2.010840,0.044071,8.893886,-0.690203,3.325193,-1.350746,0.930992,-3.414930,-0.784270,0.018586,-0.000049,0.089265,0.999836,0.004655,-0.017074,-0.003921,-0.274299,-0.029604,-0.142422,-0.950579,16.683018,1.252072,147.991587
46303,1.844523,4.560684,8.984431,-2.553827,-0.431234,0.097253,1.095241,-3.214386,-0.903858,0.017200,0.045033,0.090375,0.999846,0.005476,-0.016071,-0.004519,-0.280625,-0.045751,-0.143294,-0.947957,17.298964,-0.361870,146.964125
46304,2.293931,7.713856,8.591716,-4.358879,-2.829284,0.750075,0.908851,-3.037842,-0.412714,0.021786,0.076700,0.086603,0.999872,0.004544,-0.015189,-0.002063,-0.284458,-0.061141,-0.143363,-0.945935,17.829555,-1.954719,146.219519
46305,2.818936,8.281754,7.872235,-4.972596,-3.207400,0.360071,0.697411,-2.803922,0.304366,0.026954,0.082583,0.079394,0.999894,0.003487,-0.014019,0.001522,-0.284733,-0.075622,-0.142526,-0.944931,18.241141,-3.540335,145.893500
46306,3.800537,7.241063,7.432941,-5.090524,-2.013136,-0.213081,0.688238,-2.463895,0.972812,0.036732,0.072334,0.075036,0.999906,0.003441,-0.012319,0.004864,-0.281553,-0.088951,-0.141839,-0.944827,18.624277,-5.061012,145.982135
46307,2.953583,5.029145,7.754459,-2.946395,-0.734041,-0.597379,0.956959,-2.062828,1.463082,0.028365,0.050129,0.078081,0.999909,0.004785,-0.010314,0.007315,-0.275601,-0.101089,-0.142752,-0.945223,19.126929,-6.454681,146.400925
46308,1.250361,4.782849,7.971186,-1.105493,-1.479990,-0.617015,1.495794,-1.888194,1.670806,0.011351,0.047328,0.080178,0.999893,0.007479,-0.009441,0.008354,-0.268215,-0.113281,-0.146310,-0.945421,19.911487,-7.799795,146.951689
46309,1.523871,4.712901,8.945839,-0.733414,-1.070579,0.329810,1.869210,-1.761974,1.613502,0.014071,0.046406,0.090022,0.999885,0.009346,-0.008810,0.008067,-0.260737,-0.125301,-0.151811,-0.945129,20.901708,-9.072582,147.477546
46310,-0.288396,4.775435,9.337332,1.179440,-1.957398,0.426564,2.155613,-1.810360,1.410555,-0.004064,0.046719,0.093847,0.999876,0.010778,-0.009051,0.007052,-0.254012,-0.137749,-0.158686,-0.944099,22.068234,-10.339521,147.860651
46311,1.161884,6.245358,8.795197,-0.529467,-2.472010,0.737646,2.094703,-1.944967,1.129169,0.010409,0.061588,0.088705,0.999882,0.010473,-0.009724,0.005646,-0.248703,-0.150487,-0.165264,-0.942437,23.231141,-11.621575,148.037373
46312,2.604381,5.687717,7.831970,-1.544059,-1.451564,-0.016011,1.922456,-1.823280,1.004318,0.025042,0.056247,0.079094,0.999900,0.009612,-0.009116,0.005021,-0.243956,-0.162312,-0.171235,-0.940648,24.304838,-12.815332,148.150820
46313,2.973574,5.500825,7.315773,-1.710063,-1.198801,-0.418293,1.916430,-1.650808,1.076858,0.028833,0.054459,0.073922,0.999906,0.009582,-0.008254,0.005384,-0.238678,-0.173339,-0.177301,-0.938909,25.359270,-13.937524,148.323628
46314,2.879817,5.773128,7.179249,-1.541822,-1.469933,-0.398838,1.979650,-1.421381,1.270612,0.027920,0.057195,0.072561,0.999906,0.009898,-0.007107,0.006353,-0.232187,-0.183514,-0.183733,-0.937365,26.411418,-14.994094,148.637994
46315,3.201282,6.772527,6.841429,-2.065456,-2.190176,-0.124984,1.945763,-1.241997,1.467050,0.031090,0.067284,0.069265,0.999906,0.009729,-0.006210,0.007335,-0.224598,-0.192945,-0.190002,-0.936070,27.402591,-16.013942,149.087067
46316,4.027830,7.282004,6.715001,-2.732203,-2.228068,0.282261,1.667034,-0.968274,1.570663,0.039380,0.072568,0.067948,0.999923,0.008335,-0.004841,0.007853,-0.216495,-0.200859,-0.195141,-0.935257,28.194131,-16.930704,149.652238
46317,3.803002,6.194590,6.774207,-1.951103,-1.425660,-0.175091,1.438669,-0.691613,1.654555,0.037283,0.061766,0.068317,0.999934,0.007193,-0.003458,0.008273,-0.207928,-0.207272,-0.199399,-0.934903,28.812212,-17.736367,150.332170
46318,3.214396,5.104765,6.899161,-0.894857,-0.761242,-0.723856,1.497739,-0.537016,1.771292,0.031507,0.050810,0.069458,0.999929,0.007489,-0.002685,0.008856,-0.198571,-0.213127,-0.203947,-0.934640,29.424691,-18.505611,151.112042
46319,2.796055,4.450748,7.422348,0.056671,-0.225769,-0.720847,1.822484,-0.515098,1.881651,0.027352,0.044087,0.074697,0.999911,0.009112,-0.002575,0.009408,-0.188298,-0.219265,-0.209883,-0.934032,30.193456,-19.302787,151.950987
46320,2.070294,4.079492,7.312112,0.890166,-0.207327,-1.236209,2.359945,-0.709251,2.102324,0.020018,0.040141,0.073669,0.999869,0.011799,-0.003546,0.010511,-0.176568,-0.227014,-0.217859,-0.932644,31.243159,-20.274188,152.835257
46321,4.919117,5.798346,5.816409,-2.411306,-0.868705,-0.589083,2.628929,-0.616533,2.231152,0.048365,0.057754,0.059074,0.999847,0.013144,-0.003083,0.011155,-0.163780,-0.234629,-0.226961,-0.930921,32.402814,-21.253729,153.802772
46322,5.668455,6.508430,5.080313,-3.325273,-1.401924,-0.470669,2.479269,-0.188326,2.243650,0.055906,0.065077,0.051663,0.999860,0.012396,-0.000942,0.011218,-0.150576,-0.240089,-0.235637,-0.929602,33.413578,-22.049741,154.904993
46323,5.380541,5.173089,4.680239,-2.882929,-0.543381,-1.505639,2.404345,0.217836,2.351905,0.053248,0.051792,0.047367,0.999858,0.012021,0.001089,0.011759,-0.136437,-0.243649,-0.244073,-0.928681,34.296349,-22.702301,156.195302
46324,5.573147,4.940422,4.571181,-2.931452,-0.333475,-1.587283,2.600719,0.643692,2.551929,0.055248,0.049513,0.046177,0.999829,0.013003,0.003218,0.012759,-0.120568,-0.245552,-0.253392,-0.927879,35.183650,-23.239951,157.732306
46325,5.669306,5.692818,4.773567,-2.853184,-0.871288,-0.956350,2.702253,1.141751,2.784263,0.056173,0.057064,0.048184,0.999796,0.013510,0.005708,0.013920,-0.102820,-0.245389,-0.263100,-0.927357,35.998878,-23.642076,159.566000
46326,4.938367,6.216829,5.005725,-2.004627,-1.460065,-0.760518,2.659664,1.614713,3.046372,0.048842,0.062245,0.050489,0.999763,0.013297,0.008073,0.015231,-0.083242,-0.243269,-0.272417,-0.927189,36.656873,-23.938742,161.705183
46327,4.583167,6.415044,5.052938,-1.549388,-1.722506,-0.739566,2.389563,2.054090,3.220156,0.045318,0.064277,0.050830,0.999746,0.011947,0.010270,0.016099,-0.062547,-0.239096,-0.280318,-0.927547,37.047803,-24.109300,164.099025
46328,4.874770,5.622758,4.288840,-2.094112,-1.414706,-1.603828,2.022609,2.541113,3.234370,0.048379,0.056579,0.042843,0.999737,0.010112,0.012704,0.016170,-0.041511,-0.232469,-0.286510,-0.928519,37.148729,-24.074083,166.683428
46329,4.750113,4.952488,3.919009,-2.158413,-1.166898,-2.300831,1.641489,3.149627,3.011460,0.047365,0.049919,0.038852,0.999729,0.008207,0.015747,0.015056,-0.021057,-0.222471,-0.291161,-0.930209,36.992708,-23.679964,169.383302
46330,4.200832,3.803763,3.741604,-1.881192,-0.506988,-3.307473,1.244834,3.744637,2.589541,0.042207,0.038353,0.036865,0.999722,0.006224,0.018721,0.012947,-0.002131,-0.208955,-0.294343,-0.932575,36.637824,-22.859807,172.079037
46331,4.299185,2.891437,3.454005,-2.298045,-0.013415,-4.025698,0.913610,4.354537,2.024157,0.043438,0.029197,0.033730,0.999701,0.004568,0.021771,0.010120,0.014714,-0.191612,-0.296404,-0.935528,36.170437,-21.545469,174.691162
46332,3.582538,2.864593,3.668980,-1.721240,-0.047318,-4.197256,0.607000,4.966785,1.379560,0.036525,0.028787,0.035876,0.999663,0.003035,0.024831,0.006897,0.029146,-0.170381,-0.297418,-0.938969,35.644397,-19.712586,177.161778
46333,2.812083,2.615711,4.194990,-1.086939,0.323952,-4.239924,0.227333,5.512883,0.727490,0.029168,0.026215,0.041185,0.999613,0.001137,0.027561,0.003637,0.040986,-0.145520,-0.296908,-0.942863,35.042208,-17.382476,179.452253
46334,1.578248,3.181096,4.885672,0.086355,0.164359,-3.776330,-0.223408,5.996240,0.054910,0.017228,0.031870,0.048319,0.999550,-0.001117,0.029977,0.000275,0.050010,-0.117384,-0.294417,-0.947121,34.342141,-14.584183,-178.483567
46335,-0.169352,4.020091,5.265405,1.667103,-0.329039,-3.408307,-0.752941,6.341700,-0.540593,0.000082,0.040400,0.052518,0.999487,-0.003764,0.031703,-0.002703,0.056365,-0.086726,-0.289396,-0.951605,33.497201,-11.401393,-176.661987
46336,-2.110275,2.843379,5.418629,3.059202,0.794594,-4.164991,-1.060868,6.447329,-0.853037,-0.019223,0.028808,0.054674,0.999457,-0.005303,0.032231,-0.004264,0.061192,-0.055139,-0.282714,-0.955661,32.609907,-8.047094,-175.030069
46337,-3.466899,2.087464,5.961559,3.964189,1.819226,-4.078999,-0.958247,6.409550,-0.939620,-0.032638,0.021320,0.060582,0.999464,-0.004790,0.032042,-0.004697,0.065515,-0.023488,-0.276250,-0.958562,31.888948,-4.659122,-173.511926
46338,-5.603946,3.037941,6.991255,5.810933,1.819852,-2.573554,-0.786023,6.168467,-0.904845,-0.053712,0.030905,0.071472,0.999506,-0.003929,0.030837,-0.004523,0.069624,0.007014,-0.270405,-0.960200,31.360058,-1.385792,-172.094521
46339,-7.141610,3.289237,7.510188,6.889128,2.115771,-1.672734,-0.719297,5.577926,-0.782513,-0.069157,0.033440,0.076932,0.999597,-0.003596,0.027886,-0.003912,0.073458,0.034559,-0.264845,-0.960868,30.946282,1.576023,-170.820175
46340,-6.914774,3.884364,8.147279,6.222166,1.915121,-0.492076,-0.590547,4.871567,-0.624783,-0.067016,0.039299,0.083007,0.999694,-0.002952,0.024355,-0.003124,0.077040,0.058508,-0.260004,-0.960750,30.660412,4.149675,-169.692742
46341,-6.206465,4.485549,9.515878,4.939049,1.921487,1.191150,-0.757374,4.340066,-0.554261,-0.059858,0.045387,0.096303,0.999754,-0.003787,0.021699,-0.002771,0.080277,0.079735,-0.254442,-0.960446,30.314846,6.448499,-168.695687
46342,-5.183313,3.851812,8.878194,3.569443,1.872387,0.398214,-1.103337,3.997773,-0.792610,-0.049893,0.039211,0.089577,0.999777,-0.005516,0.019987,-0.003963,0.082034,0.099434,-0.247142,-0.960367,29.779213,8.652284,-167.930772
46343,-5.055273,1.377400,9.181565,2.738455,3.999272,-0.418673,-1.112069,3.488013,-0.961783,-0.048874,0.014525,0.092598,0.999821,-0.005560,0.017439,-0.004809,0.082320,0.116862,-0.239826,-0.960234,29.225015,10.657890,-167.413931
46344,-4.611095,-0.106995,8.777437,1.951254,4.911637,-1.423602,-0.600732,3.099824,-1.092100,-0.044747,-0.000558,0.088477,0.999860,-0.003004,0.015498,-0.005460,0.081190,0.132749,-0.234968,-0.959466,28.942429,12.508381,-167.086068
46345,-4.963600,-0.020819,9.078645,1.924430,4.973526,-0.946294,-0.032561,2.782250,-1.196989,-0.048367,0.000099,0.091465,0.999885,-0.000163,0.013911,-0.005985,0.078787,0.147440,-0.232840,-0.958039,28.962092,14.230184,-166.904547
46346,-4.432631,1.925782,8.918014,1.359175,3.034824,-0.230220,0.321859,2.547247,-1.378863,-0.043052,0.019413,0.089765,0.999894,0.001609,0.012736,-0.006894,0.074959,0.161321,-0.232308,-0.956237,29.147909,15.884258,-166.880882
46347,-4.408069,3.037735,9.280346,1.006161,2.162590,0.631801,0.347858,2.358956,-1.636596,-0.042732,0.030569,0.093366,0.999895,0.001739,0.011794,-0.008183,0.069644,0.174581,-0.231723,-0.954450,29.297521,17.516512,-167.041127
46348,-3.549674,3.404718,8.124733,0.372334,1.121905,-0.389311,0.260485,2.352764,-1.846049,-0.034222,0.034261,0.081699,0.999887,0.001302,0.011763,-0.009230,0.063383,0.187983,-0.230479,-0.952641,29.356346,19.204634,-167.312234
46349,-3.641990,3.556749,7.699628,0.358003,0.771590,-0.621996,0.190332,2.442753,-1.929430,-0.035131,0.035837,0.077465,0.999878,0.000952,0.012213,-0.009647,0.056881,0.201846,-0.228752,-0.950629,29.362189,20.961359,-167.602144
46350,-4.515838,4.314024,7.961549,0.776184,0.327093,0.270608,0.309584,2.483511,-1.653195,-0.043807,0.043382,0.080232,0.999888,0.001548,0.012417,-0.008266,0.051603,0.215572,-0.227794,-0.948143,29.485854,22.660937,-167.733007
46351,-5.231901,6.746447,8.760968,0.768228,-1.409605,2.313983,0.290309,2.362090,-1.165597,-0.050885,0.067636,0.088314,0.999912,0.001452,0.011810,-0.005828,0.048510,0.228122,-0.227268,-0.945493,29.688576,24.162451,-167.632259
46352,-5.076469,6.835381,9.058650,0.195798,-1.444141,2.533220,-0.131664,2.172505,-0.931039,-0.049458,0.068646,0.091083,0.999930,-0.000658,0.010862,-0.004655,0.046782,0.239369,-0.225013,-0.943336,29.681004,25.502932,-167.458782
46353,-5.584010,3.304579,9.150955,0.410980,1.780099,1.255216,-0.302158,1.976522,-1.015734,-0.054763,0.033464,0.092004,0.999937,-0.001511,0.009882,-0.005079,0.044634,0.249717,-0.221881,-0.941498,29.532916,26.769922,-167.393636
46354,-6.217212,1.671151,8.942208,0.888636,3.219038,0.687496,0.016756,1.694110,-1.212622,-0.061309,0.017077,0.089945,0.999946,0.000084,0.008470,-0.006063,0.040840,0.258995,-0.220030,-0.939596,29.474277,27.951838,-167.531282
46355,-5.936311,2.689905,9.192093,0.280316,2.287498,1.217046,0.226430,1.458354,-1.552076,-0.058480,0.027251,0.092380,0.999943,0.001132,0.007292,-0.007760,0.034918,0.267554,-0.218760,-0.937731,29.405309,29.111488,-167.939621
46356,-6.677867,3.712733,10.338914,0.066853,1.883544,2.904049,0.295028,1.137473,-1.663438,-0.065878,0.037525,0.103821,0.999948,0.001475,0.005687,-0.008317,0.028025,0.274714,-0.217680,-0.936142,29.280661,30.141756,-168.523054
46357,-6.419347,6.012113,10.183953,-0.436259,-0.396682,3.630279,0.026427,0.925228,-1.977756,-0.063123,0.060735,0.102141,0.999940,0.000132,0.004626,-0.009889,0.019798,0.281154,-0.214932,-0.935075,28.860913,31.150617,-169.369004
46358,-8.102291,0.661643,10.818839,0.922679,4.777409,2.814647,-0.614495,0.545503,-2.754140,-0.080623,0.008061,0.108385,0.999897,-0.003072,0.002727,-0.013770,0.008428,0.286543,-0.208083,-0.935159,27.740681,32.169135,-170.822213
46359,-9.696879,0.736895,12.477346,1.283688,5.278623,5.044499,-0.135016,-0.197172,-3.196780,-0.096957,0.009003,0.124672,0.999872,-0.000675,-0.000986,-0.015983,-0.006470,0.288876,-0.202841,-0.935609,26.590427,32.900041,-172.810158
46360,-10.276140,3.508192,14.107638,0.538915,3.075276,7.713617,-0.108377,-1.121195,-3.471680,-0.102920,0.036944,0.140480,0.999833,-0.000542,-0.005606,-0.017357,-0.023632,0.287079,-0.197217,-0.937087,25.178497,33.185943,-175.274633
46361,-9.888082,4.314324,14.260282,0.109667,1.952493,7.960900,-0.262135,-2.071262,-3.617441,-0.099546,0.045126,0.141516,0.999782,-0.001311,-0.010356,-0.018086,-0.042179,0.280883,-0.190496,-0.939700,23.479811,32.953761,-178.105312
46362,-9.147754,4.054533,14.324208,-0.270608,1.766082,7.568038,-0.165211,-2.839724,-3.518695,-0.092765,0.042288,0.141897,0.999744,-0.000826,-0.014197,-0.017592,-0.061114,0.270829,-0.184093,-0.942882,21.791621,32.223333,178.948077
46363,-10.051954,5.818812,14.152073,0.531352,-0.380347,8.482824,0.048817,-3.662437,-3.305301,-0.102109,0.059833,0.139675,0.999696,0.000244,-0.018310,-0.016525,-0.080051,0.256484,-0.178658,-0.946514,20.269455,30.939650,175.995801
46364,-10.281204,5.472168,14.215146,1.228658,-0.553836,8.513636,-0.153864,-4.537356,-3.341100,-0.105066,0.056573,0.139742,0.999603,-0.000769,-0.022684,-0.016703,-0.099626,0.237931,-0.171718,-0.950777,18.633369,29.120884,172.916347
46365,-11.360935,3.017001,13.736298,3.642960,0.815350,7.874763,0.166367,-5.458240,-3.323650,-0.116780,0.031981,0.134231,0.999489,0.000832,-0.027287,-0.016615,-0.120195,0.214613,-0.165732,-0.955001,17.256751,26.727724,169.782260
46366,-11.461552,4.462054,13.248631,4.213329,-1.369633,7.711094,0.471070,-6.426903,-3.399241,-0.118018,0.046301,0.128838,0.999337,0.002355,-0.032127,-0.016992,-0.142113,0.186299,-0.160318,-0.958851,16.143769,23.755379,166.555985
46367,-9.742024,2.810214,11.732588,4.462022,-0.739774,5.016620,0.504687,-7.205087,-3.645901,-0.101032,0.029632,0.113802,0.999182,0.002523,-0.036016,-0.018225,-0.165655,0.154155,-0.154070,-0.961799,15.165435,20.339148,163.190988
46368,-7.644560,1.804596,9.746260,4.146412,-0.579755,1.980884,1.061198,-7.681753,-3.575153,-0.079782,0.018946,0.094539,0.999089,0.005304,-0.038397,-0.017870,-0.189365,0.118942,-0.149867,-0.963086,14.728051,16.610313,159.914097
46369,-5.619402,5.196525,7.978402,1.828863,-3.941492,0.352287,1.591618,-7.956880,-3.183087,-0.058489,0.052259,0.077902,0.999050,0.007956,-0.039772,-0.015910,-0.211356,0.081383,-0.147936,-0.962715,14.873335,12.663925,156.894947
46370,-0.507214,8.398342,6.344036,-3.622551,-5.455654,-1.557900,1.514401,-7.808712,-2.588196,-0.006476,0.083579,0.063840,0.999126,0.007570,-0.039032,-0.012937,-0.229955,0.044037,-0.145739,-0.961219,15.245996,8.724609,154.261527
46371,3.592738,8.564158,4.654903,-7.067651,-4.280375,-3.517342,1.488941,-7.012703,-1.770637,0.035006,0.084973,0.048422,0.999318,0.007443,-0.035056,-0.008851,-0.243687,0.009871,-0.144311,-0.959007,15.847010,5.121408,152.198638
46372,5.507518,8.732186,4.184260,-8.624584,-3.521170,-3.706300,1.600971,-5.961325,-0.911887,0.054178,0.086726,0.044162,0.999513,0.008004,-0.029802,-0.004559,-0.252262,-0.020022,-0.144559,-0.956591,16.668914,1.984371,150.744525
46373,4.558113,9.270914,4.875683,-7.716259,-4.152018,-2.484414,1.442636,-4.863117,-0.208967,0.044464,0.092302,0.050514,0.999678,0.007212,-0.024313,-0.001045,-0.256496,-0.044959,-0.145263,-0.954509,17.481180,-0.647981,149.817935
46374,3.170495,7.876173,5.242885,-5.522488,-3.592296,-2.318495,1.107002,-4.039912,0.271429,0.030525,0.078510,0.053488,0.999780,0.005535,-0.020198,0.001357,-0.257775,-0.065869,-0.145225,-0.952955,18.128205,-2.904431,149.263956
46375,3.801353,6.048501,5.208556,-4.959895,-1.801962,-2.719764,0.991494,-3.328721,0.540029,0.036973,0.060325,0.053006,0.999846,0.004957,-0.016643,0.002700,-0.257200,-0.083406,-0.145420,-0.951706,18.713147,-4.815766,148.960063
46376,3.669174,4.741465,6.190883,-3.781622,-0.595933,-2.091910,1.103847,-2.616815,0.706138,0.035708,0.047197,0.062641,0.999893,0.005519,-0.013084,0.003531,-0.255202,-0.097811,-0.146952,-0.950637,19.351664,-6.370648,148.858732
46377,2.162569,5.015044,7.350840,-2.090775,-1.354337,-1.000672,1.309423,-2.187031,0.867372,0.020601,0.049758,0.074064,0.999909,0.006547,-0.010935,0.004337,-0.251972,-0.110522,-0.149907,-0.949644,20.092013,-7.722120,148.909867
46378,1.882972,5.199936,8.206463,-1.439909,-1.468130,-0.133001,1.406545,-1.993408,1.131936,0.017716,0.051522,0.082608,0.999910,0.007033,-0.009967,0.005660,-0.247241,-0.122630,-0.153390,-0.948844,20.862948,-9.024957,149.125508
46379,3.208524,5.552060,7.589894,-2.648463,-1.251756,-0.318503,1.364749,-1.820265,1.414277,0.030999,0.055221,0.076562,0.999910,0.006824,-0.009101,0.007071,-0.241018,-0.134044,-0.156692,-0.948362,21.575977,-10.294819,149.514594
46380,3.825093,5.545633,7.293943,-3.031078,-1.046388,-0.415872,1.209943,-1.445173,1.618271,0.037273,0.055317,0.073546,0.999923,0.006050,-0.007226,0.008091,-0.233598,-0.143647,-0.159546,-0.948337,22.159047,-11.414876,150.081902
46381,3.200682,5.217250,7.371806,-2.138483,-1.103189,-0.538307,1.087910,-1.114366,1.782545,0.031130,0.052050,0.074176,0.999930,0.005439,-0.005572,0.008913,-0.225188,-0.151632,-0.162069,-0.948700,22.629735,-12.398790,150.804064
46382,3.280473,4.812725,7.365535,-1.878882,-0.766516,-0.644546,1.028356,-0.831659,1.837468,0.032056,0.048044,0.074037,0.999936,0.005142,-0.004158,0.009187,-0.216304,-0.158252,-0.164563,-0.949257,23.035869,-13.253083,151.614507
46383,2.522349,3.759565,7.627195,-0.606799,-0.177945,-0.965692,1.123701,-0.607066,1.797163,0.024655,0.037389,0.076558,0.999939,0.005618,-0.003035,0.008986,-0.207322,-0.163837,-0.167764,-0.949753,23.478806,-13.983792,152.452255
46384,1.677579,2.971477,7.618496,0.517489,0.136578,-1.482181,1.519212,-0.572337,1.786799,0.016294,0.029282,0.076456,0.999927,0.007596,-0.002862,0.008934,-0.198010,-0.169657,-0.172865,-0.949803,24.139276,-14.703902,153.287209
46385,2.808221,3.587687,6.907996,-0.796255,-0.044407,-1.576171,1.817329,-0.505982,1.762114,0.027593,0.035491,0.069474,0.999917,0.009086,-0.002530,0.008810,-0.188473,-0.175389,-0.179441,-0.949483,24.960933,-15.391764,154.119026
46386,3.341705,4.194733,6.165929,-1.600440,-0.505810,-1.815025,1.907923,-0.269862,1.674599,0.032984,0.041634,0.062102,0.999919,0.009539,-0.001349,0.008373,-0.179029,-0.179998,-0.186716,-0.949045,25.825052,-15.949875,154.955123
46387,3.551831,3.532322,5.298512,-1.846506,-0.057425,-2.759088,2.035550,0.030499,1.662429,0.035234,0.035075,0.053338,0.999914,0.010177,0.000152,0.008312,-0.169217,-0.183233,-0.194846,-0.948592,26.736535,-16.360786,155.857809
46388,3.582860,3.497079,4.856729,-1.961973,-0.105753,-3.119933,2.379947,0.398287,1.766158,0.035619,0.034705,0.048910,0.999888,0.011899,0.001991,0.008830,-0.158207,-0.185103,-0.204786,-0.948035,27.798387,-16.628912,156.909416
46389,3.355962,4.294171,4.675440,-1.930576,-0.885570,-2.953413,2.640347,0.755584,1.962678,0.033318,0.042648,0.047193,0.999858,0.013201,0.003778,0.009813,-0.145617,-0.185617,-0.216009,-0.947461,28.947307,-16.787413,158.162552
46390,3.364902,5.699270,4.896535,-2.021008,-1.956814,-2.075425,2.548520,1.210820,2.133768,0.033341,0.056721,0.049487,0.999844,0.012742,0.006054,0.010668,-0.131767,-0.184062,-0.226905,-0.947245,29.979026,-16.792501,159.634999
46391,3.170802,7.058308,5.551199,-1.703167,-2.889381,-0.899822,1.924770,1.616264,2.126645,0.031410,0.070381,0.055935,0.999865,0.009623,0.008081,0.010633,-0.118025,-0.180089,-0.235054,-0.947833,30.620875,-16.612893,161.226284
46392,4.044622,6.614756,4.470895,-2.814403,-2.672177,-1.747870,0.919476,2.236222,1.784298,0.040354,0.066303,0.044562,0.999887,0.004597,0.011181,0.008921,-0.106054,-0.172164,-0.239056,-0.949718,30.694631,-16.040017,162.827364
46393,5.139018,5.135880,3.182873,-4.171755,-1.704350,-3.285304,0.172010,3.122064,1.448254,0.051506,0.051705,0.031070,0.999852,0.000860,0.015610,0.007241,-0.095235,-0.159164,-0.240204,-0.952838,30.338512,-14.925474,164.516733
46394,4.575241,3.238585,2.688041,-3.724880,-0.534122,-4.864611,0.061425,3.982552,1.358416,0.046054,0.032690,0.025975,0.999779,0.000307,0.019911,0.006792,-0.083865,-0.141875,-0.241221,-0.956374,29.911916,-13.350742,166.395639
46395,4.127978,3.937551,2.466796,-3.554474,-1.458057,-4.927406,0.263087,4.743478,1.479030,0.041558,0.039651,0.023736,0.999691,0.001315,0.023715,0.007394,-0.070812,-0.121074,-0.243303,-0.959755,29.600140,-11.416783,168.534844
46396,4.359292,5.963157,2.266128,-4.084789,-3.405119,-4.207946,0.337498,5.574369,1.674944,0.043703,0.059960,0.021545,0.999575,0.001687,0.027868,0.008374,-0.055713,-0.096497,-0.245745,-0.962909,29.354040,-9.117094,170.984589
46397,3.337783,7.102296,1.453630,-3.374787,-5.089261,-4.674344,0.102702,6.534624,1.831753,0.033178,0.071320,0.013487,0.999424,0.000513,0.032667,0.009157,-0.038736,-0.067295,-0.246996,-0.965900,29.035620,-6.365145,173.757091
46398,0.996867,7.708768,1.473117,-1.069021,-5.978672,-4.743118,-0.327468,7.467056,2.031966,0.009722,0.077211,0.014239,0.999250,-0.001637,0.037326,0.010157,-0.019738,-0.033707,-0.245966,-0.968491,28.587597,-3.186097,176.852935
46399,-2.514346,6.247541,1.949966,2.517655,-4.637172,-5.196237,-0.591328,8.089488,2.386060,-0.025076,0.062235,0.020331,0.999107,-0.002956,0.040435,0.011927,0.001729,0.002579,-0.243246,-0.969960,28.157131,0.238409,-179.735945
46400,-5.817342,5.942988,2.938850,5.758462,-3.671842,-4.232581,-0.792895,8.239211,2.506136,-0.057643,0.058827,0.031537,0.999065,-0.003963,0.041183,0.012527,0.023957,0.039397,-0.239119,-0.969895,27.821252,3.724857,-176.247263
46401,-8.514347,4.226188,4.986805,7.969406,-0.684002,-2.657178,-1.076439,7.952162,2.293256,-0.083557,0.041577,0.052987,0.999129,-0.005381,0.039749,0.011463,0.044826,0.075014,-0.233164,-0.968503,27.513190,7.146006,-172.948444
46402,-9.660188,1.972325,5.293020,8.489262,1.959971,-2.793879,-1.135322,7.471507,1.784019,-0.094711,0.019186,0.056383,0.999246,-0.005675,0.037348,0.008918,0.062618,0.108731,-0.226477,-0.965901,27.307175,10.467892,-170.032125
46403,-10.715721,-0.690482,7.688720,8.144377,5.800038,-1.188337,-1.298564,6.823448,0.870481,-0.104421,-0.006848,0.080526,0.999388,-0.006491,0.034110,0.004352,0.075271,0.140187,-0.218382,-0.962804,27.038001,13.713695,-167.747469
46404,-12.080175,-7.555138,7.908107,8.092126,12.491763,-3.182753,-0.440042,5.905860,0.266821,-0.118293,-0.075531,0.082765,0.999561,-0.002200,0.029525,0.001334,0.083336,0.168043,-0.214124,-0.958628,27.240402,16.648065,-166.002513
46405,-12.588095,-3.997276,9.729280,7.550556,10.311867,0.468756,1.123598,4.725778,-0.027924,-0.123545,-0.040512,0.100004,0.999705,0.005617,0.023627,-0.000140,0.087352,0.191108,-0.217434,-0.953189,28.283900,19.046631,-164.687078
46406,-10.651641,4.064653,11.284739,5.235302,3.453579,4.950693,1.642398,3.453801,-0.077709,-0.104527,0.039749,0.114993,0.999817,0.008211,0.017268,-0.000389,0.089210,0.208292,-0.223621,-0.947971,29.555508,20.794161,-163.705810
46407,-7.873096,9.200933,11.882697,2.404908,-1.396771,6.923265,0.999915,2.455220,0.152529,-0.077330,0.091351,0.120240,0.999912,0.004999,0.012276,0.000763,0.091688,0.220154,-0.227388,-0.944151,30.431666,21.963670,-162.864034
46408,-6.031782,7.463867,11.258329,0.634893,-0.525476,4.957507,0.081342,1.840288,0.414944,-0.059433,0.074469,0.113163,0.999955,0.000407,0.009201,0.002075,0.095705,0.228359,-0.227358,-0.941807,30.781151,22.744417,-162.057344
46409,-5.417104,3.150231,10.339978,0.019889,2.753125,1.960251,-0.118719,1.456009,0.614563,-0.053513,0.031399,0.103772,0.999969,-0.000594,0.007280,0.003073,0.100446,0.234419,-0.226782,-0.939962,31.021792,23.274159,-161.258346
46410,-5.694149,1.500132,10.188334,0.057190,4.258087,1.157250,0.320255,1.141989,0.701995,-0.056410,0.014639,0.102230,0.999976,0.001601,0.005710,0.003510,0.104722,0.239108,-0.228514,-0.937892,31.499553,23.619071,-160.508557
46411,-5.810160,2.174980,10.213457,0.087396,3.793036,1.518978,0.750560,0.813638,0.620037,-0.057752,0.021186,0.102450,0.999980,0.003753,0.004068,0.003100,0.107720,0.242570,-0.232330,-0.935724,32.168705,23.822421,-159.905087
46412,-5.336581,3.593759,10.374670,-0.361813,2.576795,2.114413,0.872054,0.523006,0.393468,-0.053164,0.035380,0.104041,0.999985,0.004360,0.002615,0.001967,0.109167,0.244988,-0.236581,-0.933859,32.821161,23.948476,-159.516416
46413,-4.654480,3.401246,9.935941,-0.806777,2.425544,1.386464,0.521494,0.399078,-0.219033,-0.046309,0.033804,0.099540,0.999994,0.002607,0.001995,-0.001095,0.108037,0.247360,-0.238516,-0.932873,33.126951,24.203182,-159.490306
46414,-6.269082,1.414256,10.231151,0.207268,4.771988,1.285191,0.299460,0.193696,-1.032708,-0.062518,0.014312,0.102393,0.999985,0.001497,0.000968,-0.005164,0.103137,0.249615,-0.238504,-0.932830,33.098091,24.613792,-159.963516
46415,-8.753759,1.662958,11.669316,1.603377,5.804356,3.577720,0.040436,-0.296821,-1.924251,-0.087545,0.017448,0.116567,0.999953,0.000202,-0.001484,-0.009621,0.093813,0.250501,-0.236419,-0.934106,32.648403,25.063988,-161.080440
46416,-13.259930,0.876998,14.297087,4.225997,8.551944,7.216170,-0.445521,-1.448694,-3.109395,-0.133469,0.011158,0.141983,0.999850,-0.002227,-0.007243,-0.015546,0.078180,0.247128,-0.231059,-0.937778,31.472299,25.301022,-163.231345
46417,-14.930199,-0.364653,15.523841,5.501258,9.973461,8.468749,-0.832968,-3.175736,-4.257841,-0.151765,0.000207,0.152846,0.999639,-0.004164,-0.015877,-0.021287,0.055610,0.236710,-0.223038,-0.943997,29.573700,24.967304,-166.568074
46418,-14.328855,-0.099757,15.090326,5.987746,8.599875,8.161896,-0.874755,-4.766941,-5.235226,-0.146779,0.003465,0.147423,0.999364,-0.004373,-0.023830,-0.026171,0.026647,0.219630,-0.213856,-0.951482,27.273899,23.988329,-170.890498
46419,-13.440175,2.988314,14.677765,6.171860,4.512628,8.798655,-0.660732,-6.138196,-5.789030,-0.137869,0.034317,0.142472,0.999105,-0.003303,-0.030682,-0.028937,-0.006685,0.196310,-0.204968,-0.958856,24.958411,22.284582,-175.807034
46420,-12.700507,6.409334,14.378761,6.189304,0.116068,9.439192,-0.640053,-7.336374,-5.844994,-0.130204,0.068318,0.138835,0.998895,-0.003199,-0.036668,-0.029214,-0.041519,0.166923,-0.195639,-0.965473,22.752277,19.789431,179.095288
46421,-12.033118,6.629002,12.942724,6.814778,-1.795748,7.691573,-0.725189,-8.450708,-5.807892,-0.123645,0.070306,0.123998,0.998679,-0.003624,-0.042235,-0.029027,-0.077086,0.131728,-0.185261,-0.970765,20.731574,16.517942,173.961377
46422,-7.313529,3.726676,10.923988,4.138629,-0.423841,3.198455,-0.516015,-9.216669,-6.051006,-0.076881,0.039832,0.105653,0.998478,-0.002579,-0.046060,-0.030240,-0.114457,0.092603,-0.174881,-0.973520,19.107846,12.728694,168.740025
46423,-2.497781,2.173765,7.987979,0.997128,0.268904,-1.229570,0.416243,-9.220268,-6.186158,-0.027938,0.022407,0.078683,0.998457,0.002080,-0.046078,-0.030915,-0.152569,0.052747,-0.168472,-0.972398,18.379535,8.858242,163.601900
46424,1.964254,5.563418,5.709823,-3.795073,-2.377494,-2.931810,1.384669,-8.559097,-5.742886,0.018744,0.054686,0.058294,0.998648,0.006920,-0.042776,-0.028701,-0.187781,0.014852,-0.166866,-0.967819,18.587296,5.245155,158.898127
46425,4.291100,11.186122,4.435084,-7.979158,-6.531715,-2.272835,1.851880,-7.447317,-4.734362,0.043819,0.110404,0.046999,0.998984,0.009256,-0.037224,-0.023664,-0.216786,-0.018999,-0.168280,-0.961418,19.392257,2.087715,154.942987
46426,5.464034,15.203809,4.653034,-10.688906,-8.892678,-0.363121,1.439322,-6.218949,-3.375585,0.055687,0.150756,0.049339,0.999348,0.007195,-0.031088,-0.016874,-0.237903,-0.047609,-0.168604,-0.955358,20.171191,-0.615660,151.923722
46427,5.401215,13.365640,4.372655,-9.814543,-7.119534,-0.873736,0.990259,-5.149770,-1.793602,0.054045,0.132948,0.045777,0.999616,0.004951,-0.025746,-0.008967,-0.250431,-0.071872,-0.167533,-0.950816,20.798288,-3.024558,149.933345
46428,5.166282,11.532672,4.425988,-8.592594,-5.573510,-1.188557,0.806214,-4.236391,-0.390550,0.050928,0.115044,0.045808,0.999766,0.004031,-0.021180,-0.001953,-0.255432,-0.092700,-0.166106,-0.947930,21.332224,-5.214704,148.855456
46429,4.825396,9.825048,5.477303,-7.016464,-4.079693,-0.651112,0.436477,-3.358840,0.418983,0.047117,0.098229,0.055785,0.999854,0.002182,-0.016793,0.002095,-0.255945,-0.109529,-0.163626,-0.946426,21.629988,-7.097798,148.377031
46430,3.894358,7.397763,6.980429,-4.461889,-2.292222,-0.145707,0.125879,-2.732810,0.705154,0.037724,0.074068,0.070372,0.999900,0.000629,-0.013664,0.003526,-0.254697,-0.123218,-0.160271,-0.945653,21.725143,-8.708209,148.177829
46431,4.136741,5.579833,8.008889,-3.324440,-0.554690,0.238431,-0.207658,-2.314121,0.676446,0.040248,0.056019,0.080501,0.999927,-0.001038,-0.011570,0.003382,-0.253412,-0.134446,-0.155871,-0.945204,21.623004,-10.087903,148.052277
46432,4.681664,3.346678,7.753492,-2.718619,1.385011,-0.651756,-0.352466,-1.941192,0.506516,0.045976,0.033721,0.077925,0.999948,-0.001762,-0.009706,0.002533,-0.252704,-0.143596,-0.151347,-0.944783,21.442128,-11.235482,147.917079
46433,4.267269,3.640758,8.240844,-2.194678,0.929799,-0.133177,-0.165928,-1.618371,0.338643,0.041942,0.036548,0.082720,0.999965,-0.000830,-0.008092,0.001693,-0.252390,-0.151300,-0.148227,-0.944159,21.374923,-12.173958,147.761690
46434,3.133683,4.354495,9.220569,-1.077927,-0.137800,0.799450,-0.012012,-1.483730,0.341840,0.030577,0.043603,0.092432,0.999971,-0.000060,-0.007419,0.001709,-0.251827,-0.158575,-0.145983,-0.943465,21.391484,-13.043790,147.636423
46435,3.085736,5.390960,9.014105,-1.412378,-1.143605,0.982362,0.169128,-1.533166,0.528749,0.030022,0.053913,0.090419,0.999967,0.000846,-0.007666,0.002644,-0.250260,-0.166419,-0.144383,-0.942777,21.492776,-13.976553,147.601991
46436,4.531973,5.734370,8.068117,-2.951268,-0.934883,0.624253,0.257529,-1.428599,0.729204,0.044532,0.057403,0.081075,0.999967,0.001288,-0.007143,0.003646,-0.247582,-0.174034,-0.143146,-0.942298,21.612598,-14.898268,147.698153
46437,4.044171,5.049710,7.661375,-2.279027,-0.755953,-0.076978,0.548246,-1.198204,0.944536,0.039743,0.050475,0.076992,0.999967,0.002741,-0.005991,0.004723,-0.243455,-0.181046,-0.143374,-0.942017,21.853448,-15.740784,147.961659
46438,3.017774,4.546854,7.657333,-1.083971,-0.893553,-0.515380,1.068691,-1.068321,1.143793,0.029508,0.045228,0.076974,0.999955,0.005343,-0.005342,0.005719,-0.237807,-0.188231,-0.146014,-0.941646,22.351644,-16.561723,148.359220
46439,3.666543,4.727367,6.948034,-1.815986,-0.852364,-0.866198,1.605837,-0.953255,1.264874,0.036035,0.046942,0.070031,0.999936,0.008029,-0.004766,0.006324,-0.230973,-0.195558,-0.151196,-0.941036,23.126969,-17.350078,148.843078
46440,4.097917,4.753632,6.403368,-2.246474,-0.745447,-1.164668,1.927537,-0.663713,1.286365,0.040461,0.047177,0.064624,0.999927,0.009637,-0.003318,0.006432,-0.223473,-0.201908,-0.158179,-0.940357,24.059715,-18.001046,149.397216
46441,2.673713,4.400433,6.637831,-0.688016,-1.031605,-1.504069,2.225430,-0.403064,1.323957,0.026314,0.043437,0.066917,0.999914,0.011127,-0.002015,0.006620,-0.215254,-0.207338,-0.166796,-0.939604,25.133439,-18.531443,150.028016
46442,1.447409,4.786887,6.806954,0.437557,-1.811644,-1.574563,2.434602,-0.347811,1.448706,0.014012,0.047138,0.068671,0.999898,0.012173,-0.001739,0.007243,-0.206145,-0.212826,-0.176290,-0.938686,26.298340,-19.078955,150.731389
46443,1.282548,5.400740,6.874864,0.600776,-2.286552,-1.298975,2.396057,-0.300066,1.534857,0.012311,0.053274,0.069409,0.999898,0.011980,-0.001500,0.007674,-0.196589,-0.218055,-0.185529,-0.937755,27.417387,-19.634519,151.486131
46444,0.457665,4.734202,6.548326,1.504179,-2.062291,-2.132626,2.393343,-0.310305,1.645254,0.004089,0.046589,0.066050,0.999893,0.011966,-0.001551,0.008226,-0.186486,-0.223412,-0.194583,-0.936722,28.512202,-20.241403,152.287591
46445,1.860556,4.868507,5.390595,-0.091727,-1.796205,-2.533613,2.397098,-0.273880,1.747467,0.018109,0.048194,0.054511,0.999889,0.011985,-0.001369,0.008737,-0.175824,-0.228627,-0.203534,-0.935622,29.580470,-20.869784,153.146389
46446,3.379442,5.261296,4.625318,-1.674705,-1.665395,-2.402210,2.296902,0.041590,1.793356,0.033334,0.052377,0.046849,0.999894,0.011484,0.000208,0.008966,-0.164703,-0.232300,-0.212197,-0.934817,30.543754,-21.371682,154.116777
46447,3.513595,5.158101,4.504505,-1.690334,-1.528757,-2.461080,2.220852,0.421012,1.918614,0.034738,0.051412,0.045543,0.999890,0.011104,0.002105,0.009593,-0.152646,-0.234195,-0.220625,-0.934439,31.389320,-21.735723,155.268898
46448,3.483993,5.353830,4.521834,-1.569009,-1.676756,-2.331107,2.227602,0.748664,2.168967,0.034431,0.053406,0.045684,0.999872,0.011138,0.003743,0.010844,-0.139014,-0.234810,-0.228990,-0.934400,32.146134,-22.033403,156.654801
46449,4.154981,6.417744,4.481811,-2.193050,-2.350164,-1.554144,2.120124,1.085096,2.433828,0.041013,0.064200,0.045275,0.999855,0.010600,0.005425,0.012169,-0.123848,-0.233992,-0.236712,-0.934814,32.740578,-22.262204,158.290558
46450,5.278668,6.837130,3.965292,-3.341268,-2.569230,-1.294025,1.783611,1.582062,2.601886,0.052209,0.068698,0.039850,0.999844,0.008918,0.007910,0.013009,-0.107665,-0.230800,-0.242903,-0.936022,33.043383,-22.319023,160.179108
46451,5.756970,5.785272,3.342063,-3.888418,-1.874365,-2.121989,1.507218,2.258665,2.675330,0.057167,0.058368,0.033212,0.999818,0.007536,0.011293,0.013376,-0.090599,-0.224276,-0.247996,-0.938078,33.089119,-22.076234,162.334160
46452,4.988870,5.071019,3.549311,-3.052631,-1.509014,-2.629031,1.487522,2.922002,2.711979,0.049713,0.051123,0.035145,0.999774,0.007437,0.014609,0.013559,-0.072525,-0.214618,-0.253158,-0.940527,33.051151,-21.529960,164.723902
46453,4.395990,4.936722,3.816636,-2.421682,-1.520669,-2.735628,1.410043,3.501550,2.610562,0.043976,0.049674,0.037746,0.999737,0.007050,0.017506,0.013052,-0.054240,-0.201941,-0.258146,-0.943207,32.947961,-20.667288,167.244645
46454,4.309909,4.686382,3.929623,-2.364900,-1.363079,-2.846557,1.162186,4.107521,2.307698,0.043355,0.047137,0.038681,0.999706,0.005810,0.020536,0.011537,-0.036823,-0.185873,-0.262296,-0.946201,32.739166,-19.416259,169.788994
46455,3.720047,4.257773,4.340120,-1.806029,-0.982220,-2.988133,0.848854,4.708725,1.889327,0.037808,0.042751,0.042697,0.999669,0.004244,0.023541,0.009446,-0.020864,-0.166202,-0.265294,-0.949506,32.425518,-17.731011,172.288820
46456,2.652545,3.939270,4.482969,-0.948686,-0.839782,-3.406293,0.565652,5.230702,1.478980,0.027396,0.039467,0.044232,0.999627,0.002828,0.026150,0.007394,-0.006382,-0.143402,-0.267162,-0.952901,32.051424,-15.657457,174.709333
46457,1.375776,3.749103,4.453402,0.042803,-0.843993,-3.891291,0.213145,5.690031,1.048036,0.014821,0.037520,0.044162,0.999581,0.001066,0.028446,0.005239,0.006413,-0.117675,-0.267456,-0.956336,31.594769,-13.208991,177.016042
46458,0.406768,5.051732,4.000719,0.759102,-2.269475,-3.816010,-0.376887,6.143227,0.455986,0.005176,0.050603,0.039764,0.999524,-0.001884,0.030711,0.002280,0.016630,-0.088944,-0.265031,-0.959985,30.947605,-10.345566,179.113724
46459,-1.537284,4.493165,4.817472,2.500036,-1.423550,-3.691032,-1.018878,6.503746,0.058040,-0.013814,0.045174,0.048411,0.999458,-0.005093,0.032513,0.000290,0.025114,-0.057879,-0.259396,-0.963708,30.063515,-7.156797,-178.938717
46460,-3.076216,2.201831,5.217146,3.577318,0.790899,-4.512282,-1.108775,6.562070,-0.052463,-0.029026,0.022318,0.053020,0.999446,-0.005543,0.032804,-0.000262,0.033085,-0.026376,-0.253077,-0.966520,29.247641,-3.883758,-177.092626
46461,-4.246810,2.145689,5.635673,4.411427,1.147743,-4.015682,-0.816408,6.501818,0.018912,-0.040611,0.021686,0.057609,0.999463,-0.004081,0.032503,0.000095,0.041330,0.004861,-0.247887,-0.967895,28.704253,-0.634873,-175.272264
46462,-5.480459,2.806325,6.703356,5.265584,1.265620,-2.498709,-0.453386,6.271286,0.230678,-0.052701,0.028156,0.068644,0.999505,-0.002267,0.031351,0.001153,0.050261,0.034757,-0.244259,-0.967783,28.470613,2.448514,-173.432856
46463,-5.695405,3.387012,6.762844,5.099601,0.916470,-1.889350,-0.159968,5.760787,0.423801,-0.055047,0.033807,0.069205,0.999583,-0.000800,0.028800,0.002119,0.059408,0.062024,-0.241981,-0.966472,28.495592,5.229068,-171.636393
46464,-4.167993,6.202279,6.180742,3.537030,-1.958266,-0.998839,-0.274814,5.642060,0.401308,-0.040041,0.062027,0.062867,0.999599,-0.001374,0.028207,0.002006,0.068289,0.088633,-0.238986,-0.964555,28.537191,7.952000,-169.875284
46465,-4.664280,4.946118,6.040187,3.576452,-0.812445,-1.491687,-0.866333,5.626952,0.172740,-0.044966,0.049687,0.061468,0.999594,-0.004331,0.028131,0.000864,0.076257,0.115196,-0.232843,-0.962652,28.304738,10.735479,-168.226994
46466,-5.897663,0.789899,6.711073,3.803281,3.368434,-2.422609,-1.092892,5.492904,-0.212367,-0.057096,0.008333,0.068651,0.999607,-0.005464,0.027461,-0.001062,0.082286,0.141362,-0.225262,-0.960470,27.972946,13.560733,-166.814009
46467,-7.683736,-3.930968,6.978745,4.524784,8.050355,-3.657304,-0.507953,5.173846,-0.589792,-0.075112,-0.038906,0.071845,0.999658,-0.002539,0.025866,-0.002949,0.085670,0.166580,-0.220180,-0.957305,27.971124,16.332417,-165.678601
46468,-9.998817,-3.222600,8.296199,5.806884,8.523924,-1.281249,0.584083,4.517547,-0.839262,-0.098217,-0.032058,0.085100,0.999732,0.002920,0.022586,-0.004196,0.086175,0.189283,-0.220265,-0.953011,28.557869,18.833240,-164.832341
46469,-10.311335,1.861168,10.032431,5.317991,4.831810,2.788318,1.261168,3.567351,-0.846606,-0.101223,0.018402,0.102258,0.999812,0.006305,0.017836,-0.004233,0.084920,0.207688,-0.223877,-0.948437,29.483475,20.850795,-164.223812
46470,-8.366550,7.010796,11.042327,3.007971,0.254523,5.417314,1.027648,2.693707,-0.742633,-0.081905,0.069842,0.111894,0.999889,0.005138,0.013468,-0.003713,0.083395,0.221668,-0.226788,-0.944709,30.227897,22.395440,-163.789461
46471,-6.423913,7.023915,10.633639,1.095244,-0.391690,4.411078,0.250877,2.110972,-0.587871,-0.062905,0.070291,0.107093,0.999939,0.001254,0.010555,-0.002939,0.082789,0.232364,-0.226412,-0.942280,30.506263,23.604080,-163.435590
46472,-4.839195,4.987788,9.830554,-0.275536,0.646466,2.205542,-0.167246,1.841595,-0.373482,-0.047391,0.050049,0.098703,0.999956,-0.000836,0.009208,-0.001867,0.083364,0.241347,-0.224397,-0.940451,30.565487,24.616155,-163.045233
46473,-4.338897,2.590520,9.206737,-0.718463,2.353549,0.397230,-0.136561,1.821668,-0.217205,-0.042520,0.026015,0.092440,0.999958,-0.000683,0.009108,-0.001086,0.084608,0.250057,-0.222710,-0.938463,30.684730,25.572491,-162.570973
46474,-4.400872,1.528279,8.824181,-0.706919,3.149582,-0.370920,0.244950,1.846358,-0.141721,-0.043181,0.015205,0.088662,0.999956,0.001225,0.009232,-0.000709,0.085748,0.258935,-0.222869,-0.935911,31.053791,26.516699,-162.039571
46475,-4.788946,1.064920,8.294126,-0.308488,3.477911,-0.831237,0.603995,1.913634,-0.451680,-0.047069,0.010505,0.083426,0.999947,0.003020,0.009568,-0.002258,0.085041,0.268606,-0.224266,-0.932911,31.576770,27.582631,-161.642545
46476,-5.861278,1.736514,8.265474,0.434147,3.188802,-0.049109,0.885807,1.862343,-0.902992,-0.057761,0.017259,0.083272,0.999937,0.004429,0.009312,-0.004515,0.081780,0.278628,-0.226355,-0.929754,32.147734,28.756533,-161.497483
46477,-7.038711,5.160070,8.646929,1.060089,0.650159,2.409725,0.934526,1.626430,-0.996764,-0.069423,0.051542,0.087277,0.999944,0.004673,0.008132,-0.004984,0.077742,0.287651,-0.228621,-0.926793,32.692012,29.843970,-161.471994
46478,-6.291272,6.307953,8.625401,0.246403,-0.569339,2.571965,0.558295,1.340431,-0.772256,-0.062088,0.063078,0.086848,0.999966,0.002791,0.006702,-0.003861,0.074947,0.294918,-0.229543,-0.924509,33.035182,30.723831,-161.415350
46479,-5.491297,6.922021,9.057618,-0.842104,-1.188937,2.756470,0.084670,1.241256,-0.727988,-0.054097,0.069380,0.090943,0.999974,0.000423,0.006206,-0.003640,0.072941,0.301483,-0.228380,-0.922838,33.106136,31.541980,-161.364876
46480,-6.279476,4.080760,9.518318,-0.630158,1.655684,2.168218,-0.162954,1.126007,-0.795407,-0.062095,0.041133,0.095501,0.999976,-0.000815,0.005630,-0.003977,0.070859,0.307484,-0.225989,-0.921608,32.991195,32.325846,-161.395947
46481,-7.070313,4.094227,10.792930,-0.901107,2.251173,3.504873,-0.194215,0.833334,-0.907698,-0.070066,0.041366,0.108182,0.999981,-0.000971,0.004167,-0.004538,0.067976,0.312243,-0.223389,-0.920859,32.765413,33.003746,-161.601321
46482,-7.731176,3.771804,12.023663,-1.221877,3.061794,4.598999,-0.244789,0.359210,-1.131892,-0.076880,0.038301,0.120328,0.999982,-0.001224,0.001796,-0.005659,0.063604,0.315037,-0.220343,-0.920953,32.336218,33.520735,-162.118293
46483,-7.788652,2.747363,12.733386,-1.629118,4.106286,4.707364,-0.373974,-0.185663,-1.663520,-0.077771,0.028359,0.127209,0.999963,-0.001870,-0.000928,-0.008317,0.056388,0.315853,-0.216043,-0.922162,31.543955,33.929376,-163.152707
46484,-8.754699,1.049539,13.626670,-1.301694,5.970400,5.223417,-0.445750,-0.803497,-2.582561,-0.087946,0.011932,0.135888,0.999906,-0.002229,-0.004017,-0.012912,0.044368,0.314746,-0.210085,-0.924571,30.264896,34.288950,-164.967556
46485,-10.223855,0.513556,14.211743,-0.293142,6.636691,6.392595,-0.476641,-1.500342,-3.707227,-0.103178,0.007380,0.141330,0.999797,-0.002383,-0.007501,-0.018535,0.026458,0.311505,-0.202329,-0.928077,28.433192,34.575675,-167.717148
46486,-12.800091,0.231572,15.118179,1.587609,7.103979,8.610316,-0.537593,-2.499884,-4.874907,-0.129763,0.005868,0.149554,0.999621,-0.002688,-0.012498,-0.024371,0.002194,0.304611,-0.192458,-0.932828,25.956651,34.572880,-171.525618
46487,-14.091404,0.899420,15.830827,2.692672,6.103460,10.321527,-0.220766,-3.818116,-5.376727,-0.143588,0.013004,0.155571,0.999456,-0.001104,-0.019087,-0.026879,-0.026155,0.291783,-0.183167,-0.938418,23.304598,33.863107,-176.008524
46488,-14.783559,4.743538,15.889427,3.340320,1.673056,12.083668,0.253686,-5.248518,-5.187776,-0.150644,0.051121,0.155028,0.999319,0.001268,-0.026237,-0.025933,-0.055594,0.271647,-0.175929,-0.944546,20.917323,32.189853,179.360835
46489,-14.153458,8.997389,15.631536,2.857353,-3.352080,12.683433,0.083437,-6.659314,-4.973657,-0.144339,0.093477,0.151578,0.999136,0.000417,-0.033287,-0.024861,-0.084935,0.244297,-0.167552,-0.951331,18.589051,29.556148,174.740482
46490,-12.158496,5.947751,13.731490,3.545089,-2.051753,9.024076,-0.260567,-7.708715,-4.848138,-0.125260,0.062660,0.132453,0.998963,-0.001302,-0.038530,-0.024232,-0.113980,0.211530,-0.156893,-0.957940,16.331348,26.169680,170.249529
46491,-9.654458,3.270723,11.386660,3.832977,-0.918576,4.948955,0.287817,-8.358986,-4.613344,-0.100403,0.034834,0.109772,0.998860,0.001439,-0.041779,-0.023058,-0.142736,0.174698,-0.148433,-0.962847,14.771441,22.258669,166.056810
46492,-6.717152,3.542289,9.040283,2.539031,-1.962397,1.546737,1.023119,-8.618633,-4.308797,-0.070210,0.036461,0.087605,0.998827,0.005114,-0.043076,-0.021536,-0.170531,0.135461,-0.143213,-0.965432,14.021861,18.083408,162.207750
46493,-3.661649,5.219354,6.385920,0.201990,-3.805372,-1.633805,1.747337,-8.453553,-3.879683,-0.038269,0.052374,0.062722,0.998881,0.008733,-0.042252,-0.019391,-0.196236,0.095786,-0.141627,-0.965535,14.065699,13.919192,158.748850
46494,0.256597,8.693621,4.898815,-4.338518,-6.001072,-3.119220,2.072016,-7.821969,-3.257410,0.002034,0.086386,0.049972,0.999049,0.010357,-0.039097,-0.016282,-0.218239,0.058198,-0.142199,-0.963724,14.628051,10.034469,155.771943
46495,2.983160,10.053894,3.934016,-7.228211,-6.186990,-3.903840,2.067761,-6.850253,-2.345624,0.029610,0.099770,0.041391,0.999291,0.010336,-0.034243,-0.011725,-0.234798,0.024549,-0.143874,-0.961024,15.471904,6.589019,153.436923
46496,4.800133,10.868691,3.934785,-9.082837,-5.848665,-3.494075,2.010692,-5.718634,-1.191102,0.047474,0.107991,0.041799,0.999523,0.010052,-0.028589,-0.005955,-0.244710,-0.004466,-0.146552,-0.958447,16.479726,3.621420,151.879128
46497,3.104233,11.578225,5.646060,-7.554605,-6.636019,-1.184412,1.461024,-4.672359,-0.226647,0.029830,0.115328,0.058011,0.999700,0.007304,-0.023359,-0.001133,-0.249059,-0.028493,-0.147762,-0.956726,17.276453,1.093432,150.982927
46498,0.459239,8.536935,6.708816,-3.383114,-5.124501,-0.847011,0.798124,-4.106017,0.447827,0.003019,0.085108,0.067501,0.999779,0.003990,-0.020529,0.002239,-0.249726,-0.049487,-0.146324,-0.955917,17.730105,-1.233613,150.525845
46499,1.760279,5.751151,6.577010,-2.955235,-2.297874,-1.725033,0.413660,-3.752818,0.710092,0.016159,0.057434,0.066201,0.999816,0.002068,-0.018763,0.003550,-0.248876,-0.068467,-0.143375,-0.955414,17.974270,-3.409030,150.259658
46500,3.660203,3.007731,6.402827,-3.140374,0.792927,-2.536455,0.264554,-3.188200,0.662025,0.035475,0.030111,0.064640,0.999867,0.001323,-0.015940,0.003310,-0.247823,-0.084529,-0.140382,-0.954846,18.137555,-5.269768,150.059045
46501,3.668022,2.469390,6.733336,-2.624414,1.245740,-2.299579,0.393156,-2.604901,0.498735,0.035737,0.024651,0.067851,0.999910,0.001966,-0.013024,0.002494,-0.247029,-0.097812,-0.138768,-0.954019,18.379264,-6.780708,149.867652
46502,2.381151,2.845359,7.722527,-1.243764,0.445606,-1.347782,0.554944,-2.194430,0.424514,0.022902,0.028288,0.077559,0.999934,0.002775,-0.010972,0.002123,-0.246187,-0.109295,-0.138443,-0.953037,18.715177,-8.057046,149.702286
46503,1.625181,3.893718,8.064687,-0.768154,-0.783200,-0.777507,0.788080,-2.061153,0.517123,0.015318,0.038659,0.080961,0.999936,0.003940,-0.010306,0.002586,-0.244652,-0.120455,-0.139328,-0.951958,19.177911,-9.274342,149.603808
46504,2.913598,4.769265,7.708538,-2.144801,-0.983025,-0.588469,0.905953,-1.910153,0.744955,0.028220,0.047448,0.077573,0.999937,0.004530,-0.009551,0.003725,-0.241825,-0.131210,-0.140800,-0.951042,19.686085,-10.455603,149.648094
46505,2.889068,4.383709,7.424959,-1.847382,-0.754483,-0.940931,1.146315,-1.660162,1.117206,0.028028,0.043568,0.074735,0.999934,0.005731,-0.008301,0.005586,-0.236862,-0.141285,-0.143459,-0.950450,20.284305,-11.572529,149.935620
46506,2.213052,4.324178,7.679849,-0.953014,-0.992172,-0.830513,1.541516,-1.473912,1.525267,0.021235,0.042812,0.077288,0.999914,0.007707,-0.007369,0.007626,-0.229512,-0.151243,-0.147903,-0.950039,21.051732,-12.678620,150.472161
46507,2.021048,4.622194,7.954068,-0.576036,-1.264331,-0.497054,1.851066,-1.349117,1.808411,0.019257,0.045659,0.080097,0.999894,0.009255,-0.006745,0.009042,-0.220446,-0.161115,-0.153721,-0.949640,21.947319,-13.781945,151.177267
46508,2.172241,4.525655,7.463496,-0.608765,-1.187724,-0.917873,2.041379,-1.253784,1.954908,0.020813,0.044697,0.075225,0.999880,0.010206,-0.006269,0.009774,-0.210407,-0.170849,-0.160393,-0.949112,22.918288,-14.881080,151.967779
46509,3.203496,4.356169,6.560712,-1.560332,-0.752018,-1.489370,2.109004,-1.050021,1.929486,0.031271,0.043170,0.066229,0.999884,0.010545,-0.005250,0.009647,-0.200218,-0.179597,-0.167585,-0.948458,23.908246,-15.877017,152.777694
46510,3.703138,3.831361,5.920747,-1.898648,-0.209422,-2.079845,2.105400,-0.695014,1.823369,0.036477,0.038021,0.059736,0.999897,0.010527,-0.003475,0.009117,-0.190194,-0.186560,-0.175174,-0.947806,24.880541,-16.679162,153.602179
46511,3.059240,3.224838,5.567638,-1.178153,-0.012281,-2.786483,2.192241,-0.316947,1.754851,0.030223,0.031901,0.056075,0.999900,0.010961,-0.001585,0.008774,-0.180044,-0.191686,-0.183562,-0.947178,25.877741,-17.278934,154.476191
46512,2.131309,3.534333,5.601868,-0.329912,-0.590789,-2.887703,2.300875,-0.075466,1.752265,0.020985,0.034881,0.056430,0.999895,0.011504,-0.000377,0.008761,-0.169543,-0.195757,-0.192646,-0.946479,26.913864,-17.772432,155.403532
46513,1.590252,3.345136,5.596720,0.297345,-0.555562,-3.131132,2.500088,0.082882,1.861416,0.015618,0.032895,0.056374,0.999878,0.012500,0.000414,0.009307,-0.158140,-0.199276,-0.202657,-0.945627,28.026438,-18.227215,156.426934
46514,2.552115,4.004772,5.260378,-0.712879,-0.778539,-2.805065,2.730819,0.243525,2.083923,0.025172,0.039588,0.053116,0.999852,0.013653,0.001218,0.010419,-0.145248,-0.202422,-0.213608,-0.944616,29.214667,-18.685292,157.606555
46515,2.194830,4.905486,5.692451,-0.235887,-1.439954,-2.121601,2.903942,0.503498,2.396875,0.021509,0.048482,0.057577,0.999820,0.014519,0.002517,0.011984,-0.130379,-0.204701,-0.225179,-0.943607,30.416055,-19.122976,159.022825
46516,1.073714,5.653289,5.929572,0.925226,-2.247586,-1.915897,3.000256,0.580807,2.859502,0.010110,0.055783,0.060106,0.999781,0.015000,0.002904,0.014296,-0.113088,-0.207149,-0.236691,-0.942485,31.575695,-19.690332,160.697485
46517,2.561231,6.560158,5.125670,-0.638758,-2.779263,-1.582822,2.805758,0.745067,3.210712,0.024756,0.065277,0.052081,0.999766,0.014028,0.003725,0.016052,-0.094099,-0.209003,-0.246908,-0.941541,32.528029,-20.310150,162.602830
46518,3.903460,6.816720,4.593838,-1.876055,-2.822734,-1.367739,2.358007,1.250288,3.322139,0.038191,0.068260,0.046502,0.999773,0.011789,0.006251,0.016609,-0.074385,-0.208340,-0.255026,-0.941288,33.130541,-20.749097,164.729152
46519,4.057860,5.302686,4.351194,-1.916878,-1.625539,-2.249639,2.030966,1.842973,3.375406,0.040083,0.053263,0.043681,0.999764,0.010154,0.009214,0.016876,-0.053972,-0.204706,-0.261649,-0.941659,33.452757,-20.933471,167.084043
46520,3.712010,3.968466,4.785833,-1.367071,-0.390117,-2.712635,2.047729,2.337062,3.403724,0.037002,0.039825,0.047833,0.999735,0.010238,0.011684,0.017017,-0.032734,-0.198720,-0.268327,-0.942040,33.717816,-20.906063,169.619815
46521,3.873268,4.344334,4.560964,-1.570281,-0.829135,-2.634632,2.144301,2.793718,3.315002,0.038647,0.043596,0.045536,0.999708,0.010720,0.013967,0.016573,-0.011188,-0.190333,-0.275468,-0.942213,34.004465,-20.640606,172.265450
46522,4.550491,5.058114,4.453918,-2.172268,-1.460617,-2.113582,1.989147,3.364363,3.165118,0.045448,0.050859,0.044279,0.999684,0.009945,0.016820,0.015824,0.010298,-0.178965,-0.281889,-0.942552,34.181880,-20.070365,175.023211
46523,4.354537,5.190861,4.171604,-2.081820,-1.823180,-2.352760,1.787095,4.012417,3.000757,0.043595,0.052192,0.041307,0.999646,0.008934,0.020060,0.015002,0.031734,-0.164165,-0.287278,-0.943141,34.233709,-19.141040,177.909393
46524,3.731405,5.231273,4.106662,-1.548021,-2.003123,-2.619329,1.529105,4.607644,2.812298,0.037515,0.052528,0.040605,0.999607,0.007645,0.023035,0.014060,0.052902,-0.146247,-0.291300,-0.943905,34.162777,-17.872996,-179.117122
46525,3.178267,4.573772,3.837398,-1.285263,-1.694432,-3.392269,1.254682,5.194938,2.555427,0.032184,0.045909,0.037829,0.999561,0.006272,0.025971,0.012775,0.073467,-0.125094,-0.293812,-0.944790,33.992972,-16.233164,-176.099466
46526,2.007087,4.888707,3.654040,-0.232003,-2.054580,-3.729639,0.975444,5.777228,2.232227,0.020574,0.048938,0.036190,0.999509,0.004876,0.028881,0.011159,0.093119,-0.100747,-0.294726,-0.945683,33.756714,-14.207737,-173.083710
46527,0.876789,4.658637,3.835666,0.697533,-1.676220,-3.991544,0.592627,6.247674,1.854119,0.009531,0.046559,0.038205,0.999465,0.002963,0.031233,0.009269,0.111386,-0.073650,-0.293493,-0.946589,33.429176,-11.818635,-170.138152
46528,-0.526273,3.600629,3.711261,1.603001,-0.679047,-4.915656,0.224992,6.603995,1.407521,-0.004286,0.035932,0.037305,0.999429,0.001125,0.033014,0.007036,0.127806,-0.044379,-0.290168,-0.947364,33.046433,-9.105745,-167.340044
46529,-1.796505,3.811241,3.277118,2.687892,-0.799830,-5.271372,-0.015751,6.899872,0.822122,-0.016977,0.038044,0.033365,0.999397,-0.000079,0.034492,0.004110,0.141678,-0.012916,-0.285297,-0.947822,32.694999,-6.045900,-164.771965
46530,-3.570360,3.738030,3.956810,4.096102,0.130375,-4.755935,-0.403056,7.073416,0.194943,-0.034313,0.037428,0.040723,0.999372,-0.002015,0.035360,0.000975,0.152627,0.019964,-0.278166,-0.948119,32.286561,-2.697087,-162.490883
46531,-5.701417,2.744106,4.900650,5.406835,2.100032,-4.300312,-0.564143,6.920878,-0.375964,-0.055223,0.027688,0.050861,0.999396,-0.002820,0.034597,-0.001879,0.160486,0.052808,-0.269979,-0.947928,31.927094,0.771280,-160.561027
46532,-8.004441,2.325082,6.562258,6.721577,4.050321,-2.676969,-0.658544,6.383569,-0.724692,-0.077812,0.023757,0.068053,0.999479,-0.003292,0.031912,-0.003623,0.165813,0.083410,-0.261388,-0.947220,31.613077,4.090463,-158.983248
46533,-8.034375,2.748129,8.846577,5.772359,4.735752,-0.087666,-0.696825,5.743834,-0.981375,-0.077624,0.028180,0.090624,0.999570,-0.003484,0.028715,-0.004906,0.168946,0.111241,-0.252783,-0.946141,31.332845,7.185679,-157.733907
46534,-8.979144,0.852637,10.222173,5.163133,7.105555,0.611147,-0.723200,4.978712,-1.277901,-0.087152,0.009464,0.104380,0.999663,-0.003616,0.024891,-0.006389,0.169595,0.135698,-0.244343,-0.945050,31.043683,9.997430,-156.869237
46535,-8.620246,-0.748687,10.777831,3.724189,8.360659,0.542673,-0.140083,4.051585,-1.547336,-0.084050,-0.006755,0.109501,0.999765,-0.000700,0.020256,-0.007736,0.167346,0.156544,-0.239120,-0.943563,31.047521,12.438263,-156.418180
46536,-8.039171,0.171213,11.419003,2.751306,7.490350,1.648513,0.424544,3.135452,-1.868513,-0.078569,0.002208,0.115436,0.999831,0.002123,0.015676,-0.009342,0.161977,0.173850,-0.236971,-0.942011,31.290222,14.523022,-156.399648
46537,-6.436454,1.241807,10.671975,1.515830,5.570817,1.301253,0.768188,2.449230,-2.274140,-0.062907,0.012727,0.107545,0.999853,0.003841,0.012246,-0.011370,0.153534,0.188640,-0.236577,-0.940677,31.623206,16.394767,-156.788039
46538,-5.738460,3.296816,9.760482,1.395499,3.119502,1.473513,0.832535,2.006109,-2.693119,-0.055954,0.033320,0.098309,0.999850,0.004162,0.010030,-0.013465,0.142490,0.201828,-0.236345,-0.939736,31.875605,18.178416,-157.524518
46539,-5.313940,4.048877,9.097274,1.160494,1.946960,1.243807,0.618352,1.728164,-2.923171,-0.051753,0.040970,0.091550,0.999851,0.003092,0.008640,-0.014615,0.130211,0.213778,-0.235019,-0.939207,31.917743,19.898749,-158.470203
46540,-4.278661,4.515232,8.213886,0.454918,0.709022,0.455926,0.402053,1.716134,-3.094012,-0.041376,0.045634,0.082589,0.999842,0.002010,0.008580,-0.015469,0.117306,0.225659,-0.232410,-0.938777,31.768887,21.663933,-159.521828
46541,-3.882516,4.101138,7.887803,-0.053907,0.664428,-0.134968,0.190354,1.869496,-3.229055,-0.037417,0.041548,0.079272,0.999826,0.000952,0.009347,-0.016144,0.104146,0.238225,-0.228510,-0.938182,31.454059,23.540642,-160.615105
46542,-4.879481,4.114665,8.089960,0.426259,0.869363,0.445960,0.186744,2.012530,-3.233834,-0.047304,0.041844,0.081419,0.999818,0.000934,0.010062,-0.016168,0.091093,0.251374,-0.224410,-0.937098,31.107608,25.482818,-161.693214
46543,-5.707272,4.581468,8.490753,0.652128,0.679072,1.356869,0.344783,1.956997,-2.885748,-0.055570,0.046477,0.085536,0.999847,0.001724,0.009784,-0.014428,0.079381,0.263867,-0.221460,-0.935430,30.887234,27.290258,-162.625261
46544,-5.898867,6.875828,9.200096,0.184605,-1.178062,3.043546,0.502943,1.777468,-2.264835,-0.057385,0.069182,0.092689,0.999893,0.002515,0.008887,-0.011324,0.070141,0.274822,-0.220060,-0.933342,30.856095,28.824915,-163.291059
46545,-5.728677,7.615712,9.849062,-0.627553,-1.749534,3.765131,0.206839,1.595048,-1.851886,-0.055791,0.076576,0.099019,0.999925,0.001034,0.007975,-0.009259,0.063026,0.284323,-0.217893,-0.931510,30.722808,30.147907,-163.795162
46546,-6.751889,5.887187,10.667467,-0.493039,0.230583,4.106347,-0.036820,1.226105,-1.671972,-0.066368,0.059450,0.107073,0.999946,-0.000184,0.006130,-0.008360,0.056681,0.291791,-0.214916,-0.930299,30.420568,31.234535,-164.334522
46547,-6.832159,4.716621,11.348420,-0.992085,1.417776,4.141276,-0.162129,0.798401,-1.701538,-0.067463,0.047835,0.113716,0.999956,-0.000811,0.003992,-0.008508,0.049920,0.297243,-0.211432,-0.929758,29.948996,32.114960,-165.048685
46548,-7.322722,1.267979,11.715709,-0.814539,4.611138,3.247083,-0.353039,0.403154,-2.296588,-0.072837,0.013725,0.117281,0.999930,-0.001765,0.002016,-0.011483,0.040248,0.301399,-0.206231,-0.930058,29.085137,32.958757,-166.267651
46549,-10.462965,0.139662,12.806747,1.136120,6.394618,5.396304,-0.100668,-0.237514,-3.268841,-0.104739,0.003172,0.127942,0.999866,-0.000503,-0.001188,-0.016343,0.025011,0.303574,-0.200847,-0.931063,27.901276,33.727688,-168.309687
46550,-13.003636,-0.123241,14.376782,2.438938,7.198602,8.019958,-0.065233,-1.371590,-4.056081,-0.131007,0.001465,0.142871,0.999771,-0.000326,-0.006857,-0.020279,0.004902,0.301148,-0.194473,-0.933524,26.227954,34.080057,-171.229987
46551,-13.052272,2.726873,15.510131,1.826493,4.393434,10.078934,-0.058015,-2.713437,-4.436871,-0.131962,0.030230,0.153309,0.999662,-0.000290,-0.013566,-0.022182,-0.018295,0.292667,-0.187511,-0.937471,24.202377,33.751648,-174.793270
46552,-11.749891,4.003600,15.331765,1.100101,2.386124,9.736961,-0.200439,-3.917202,-4.514150,-0.119525,0.042871,0.150948,0.999553,-0.001002,-0.019583,-0.022567,-0.042767,0.278394,-0.179474,-0.942580,21.946638,32.695129,-178.685401
46553,-11.105773,4.745155,15.673745,0.826184,1.126965,9.922923,-0.232096,-4.886005,-4.337636,-0.113774,0.050079,0.153923,0.999466,-0.001160,-0.024426,-0.021684,-0.067182,0.259138,-0.171190,-0.948171,19.752685,30.958444,177.415017
46554,-12.595873,6.101256,16.163768,2.328432,-0.762455,11.424821,-0.098554,-5.987476,-3.926026,-0.129489,0.063610,0.157765,0.999359,-0.000493,-0.029931,-0.019626,-0.090687,0.233954,-0.163459,-0.954108,17.844746,28.429809,173.695652
46555,-12.966964,6.395767,15.698378,3.710786,-2.087059,11.096643,-0.142654,-7.192557,-3.668719,-0.133996,0.066499,0.152169,0.999185,-0.000713,-0.035953,-0.018339,-0.113759,0.202499,-0.155077,-0.960211,16.140124,25.097866,170.102435
46556,-11.604724,3.108291,13.600936,5.216347,-0.451484,7.557635,0.083509,-8.235028,-3.682849,-0.120915,0.033225,0.131110,0.998983,0.000417,-0.041161,-0.018408,-0.137727,0.165550,-0.146850,-0.965432,14.776998,21.106696,166.529921
46557,-7.413452,1.018639,9.954365,4.057582,0.427191,1.949188,0.756988,-8.867520,-3.849611,-0.078239,0.011298,0.096176,0.998825,0.003783,-0.044320,-0.019241,-0.163215,0.124851,-0.141018,-0.968446,14.043076,16.729577,162.942406
46558,-2.414216,1.937600,6.441538,0.508558,-0.508772,-2.703800,1.684446,-8.729012,-3.906975,-0.026548,0.019342,0.063454,0.998822,0.008419,-0.043628,-0.019527,-0.189076,0.083814,-0.139379,-0.968400,14.120537,12.417682,159.448350
46559,-0.521979,6.279706,5.603203,-2.462440,-4.054766,-2.841871,2.234979,-8.052116,-3.570494,-0.006373,0.062274,0.056489,0.998968,0.011171,-0.040247,-0.017846,-0.212651,0.045108,-0.140919,-0.965861,14.821763,8.457136,156.268842
46560,0.892583,10.594531,5.165258,-5.366706,-7.274421,-2.197389,2.123387,-7.333579,-2.734837,0.008439,0.105269,0.053088,0.999178,0.010614,-0.036658,-0.013670,-0.231264,0.009315,-0.142575,-0.962342,15.727238,4.811197,153.639421
46561,2.632953,11.946203,5.447811,-7.333721,-7.431432,-1.428166,1.456729,-6.523752,-1.766868,0.025567,0.118829,0.056188,0.999403,0.007282,-0.032612,-0.008833,-0.244288,-0.022518,-0.141839,-0.959009,16.448171,1.496129,151.634245
46562,2.541373,9.751116,5.546386,-5.982691,-5.535793,-1.697399,0.928321,-5.784690,-0.886169,0.024218,0.097141,0.056627,0.999561,0.004641,-0.028919,-0.004430,-0.252369,-0.050774,-0.139205,-0.956219,16.974898,-1.537989,150.201287
46563,3.155281,6.620925,4.985691,-4.868857,-2.770982,-2.938353,0.791299,-5.147768,-0.192812,0.030315,0.065980,0.050909,0.999660,0.003956,-0.025736,-0.000964,-0.256533,-0.076247,-0.136456,-0.953812,17.474568,-4.326458,149.227166
46564,4.019948,5.279481,4.903156,-4.732474,-1.271153,-3.175415,0.851576,-4.382929,0.147703,0.039070,0.052612,0.050120,0.999751,0.004258,-0.021913,0.000738,-0.258375,-0.098355,-0.134753,-0.951530,18.023850,-6.750205,148.545030
46565,4.837730,5.877608,4.950038,-5.445386,-1.369427,-2.676990,0.747341,-3.625038,0.157529,0.047421,0.058626,0.050585,0.999828,0.003736,-0.018124,0.000788,-0.259605,-0.116671,-0.133484,-0.949302,18.524636,-8.754820,147.980224
46566,6.294461,4.458552,5.591434,-5.605534,0.661673,-2.138198,0.518333,-2.763135,0.169092,0.062125,0.044492,0.056892,0.999901,0.002592,-0.013815,0.000845,-0.260265,-0.130601,-0.132196,-0.947486,18.886660,-10.292459,147.564140
46567,4.538849,3.928265,6.376083,-3.467504,0.283588,-1.776534,0.683987,-2.078522,0.368229,0.044650,0.039146,0.064361,0.999938,0.003420,-0.010392,0.001841,-0.259381,-0.141589,-0.132440,-0.946115,19.310407,-11.490986,147.376306
46568,2.964426,5.516021,7.550887,-2.309377,-1.692939,-0.430381,0.866739,-1.701973,0.676710,0.028813,0.054930,0.075995,0.999949,0.004334,-0.008510,0.003383,-0.256628,-0.151253,-0.133796,-0.945179,19.794122,-12.547561,147.421625
46569,2.456085,5.569532,7.936781,-1.583428,-1.977653,-0.136806,0.835761,-1.553671,1.049336,0.023651,0.055488,0.079786,0.999947,0.004179,-0.007768,0.005247,-0.252013,-0.160378,-0.134908,-0.944758,20.207516,-13.593932,147.694962
46570,3.349893,4.689175,7.609866,-1.865349,-0.885371,-0.493159,0.922854,-1.392209,1.416314,0.032636,0.046772,0.076544,0.999940,0.004614,-0.006961,0.007081,-0.245456,-0.169113,-0.136320,-0.944759,20.610678,-14.632625,148.197529
46571,3.458284,4.171159,7.474623,-1.612826,-0.465624,-0.734819,1.089343,-1.136855,1.613038,0.033821,0.041578,0.075167,0.999936,0.005447,-0.005684,0.008065,-0.237625,-0.176925,-0.138653,-0.944990,21.059050,-15.574441,148.858139
46572,2.554232,3.646498,7.419679,-0.514948,-0.503393,-1.189926,1.315506,-0.948902,1.622921,0.024895,0.036179,0.074555,0.999934,0.006577,-0.004744,0.008114,-0.229385,-0.184138,-0.142248,-0.945114,21.616863,-16.427632,149.558361
46573,3.463700,3.501369,6.769332,-1.330916,-0.056721,-1.548039,1.510732,-0.788493,1.526357,0.034103,0.034762,0.068092,0.999935,0.007553,-0.003942,0.007632,-0.221279,-0.190688,-0.147023,-0.945017,22.283164,-17.177986,150.235140
46574,3.605199,3.348183,6.331343,-1.451838,0.070578,-1.927274,1.609765,-0.476743,1.387064,0.035670,0.033219,0.063667,0.999941,0.008049,-0.002384,0.006935,-0.213478,-0.195786,-0.152722,-0.944866,23.003497,-17.744746,150.898660
46575,2.531750,3.766323,6.337289,-0.589350,-0.751839,-2.076899,1.651959,-0.243795,1.289087,0.024999,0.037300,0.063713,0.999944,0.008260,-0.001219,0.006445,-0.205897,-0.199693,-0.158950,-0.944703,23.742793,-18.170547,151.558895
46576,2.952032,4.216634,5.701826,-1.267319,-1.047327,-2.309259,1.608849,-0.030362,1.232673,0.029253,0.041887,0.057360,0.999949,0.008044,-0.000152,0.006163,-0.198432,-0.202520,-0.165230,-0.944621,24.449034,-18.483764,152.235288
46577,4.164547,4.112095,4.765367,-2.598125,-0.609387,-2.752973,1.560879,0.382215,1.185989,0.041494,0.040994,0.047895,0.999950,0.007804,0.001911,0.005930,-0.190877,-0.203253,-0.171727,-0.944862,25.100353,-18.574381,152.988471
46578,3.956700,3.686702,4.353342,-2.442334,-0.409513,-3.326856,1.713861,0.867377,1.248815,0.039527,0.036740,0.043677,0.999934,0.008569,0.004337,0.006244,-0.182428,-0.201913,-0.179323,-0.945407,25.790432,-18.442444,153.899424
46579,3.773556,3.531747,4.216589,-2.285341,-0.359829,-3.556473,1.944896,1.304300,1.431958,0.037759,0.035177,0.042262,0.999906,0.009724,0.006521,0.007160,-0.172463,-0.198808,-0.188198,-0.946210,26.547076,-18.138391,155.027617
46580,3.186973,4.276289,4.653515,-1.753936,-1.074116,-3.040075,2.232734,1.666364,1.734442,0.031889,0.042518,0.046745,0.999865,0.011163,0.008331,0.008672,-0.160396,-0.194523,-0.198402,-0.947138,27.395396,-17.748155,156.417894
46581,3.494751,5.360346,4.730387,-2.199422,-1.826074,-2.386330,2.359268,2.093958,2.117897,0.034878,0.053413,0.047569,0.999820,0.011796,0.010469,0.010589,-0.145920,-0.188588,-0.209113,-0.948374,28.226954,-17.258093,158.135578
46582,3.043211,6.472866,4.772914,-1.937441,-2.894988,-1.951114,2.464707,2.528930,2.583121,0.030205,0.064528,0.048142,0.999761,0.012323,0.012644,0.012915,-0.128618,-0.181123,-0.220114,-0.949843,29.026773,-16.705726,160.223617
46583,3.864253,7.754648,4.145126,-3.038100,-3.967879,-1.610638,2.323805,3.021531,3.017359,0.038101,0.077640,0.041775,0.999705,0.011618,0.015106,0.015085,-0.108775,-0.171562,-0.230251,-0.951693,29.660983,-16.048873,162.683772
46584,4.435880,6.702942,3.761665,-3.481609,-3.101631,-2.261932,2.080875,3.695592,3.276463,0.043951,0.067361,0.037502,0.999641,0.010403,0.018476,0.016380,-0.087057,-0.158900,-0.239230,-0.953908,30.100907,-15.158963,165.472521
46585,3.525964,6.664264,4.105613,-2.467498,-3.215677,-2.244899,1.830806,4.374419,3.283929,0.035059,0.066845,0.040899,0.999584,0.009153,0.021869,0.016417,-0.064626,-0.142725,-0.247115,-0.956236,30.395311,-13.946591,168.461209
46586,2.679310,6.978357,4.248158,-1.625499,-3.636089,-2.193010,1.433950,5.007925,3.104636,0.026770,0.069895,0.042312,0.999540,0.007169,0.025036,0.015521,-0.042493,-0.123105,-0.253226,-0.958601,30.515136,-12.386005,171.532837
46587,1.934054,6.774398,4.117525,-0.960610,-3.663203,-2.584624,0.929871,5.605874,2.874239,0.019516,0.067833,0.040945,0.999493,0.004649,0.028025,0.014369,-0.020980,-0.100045,-0.256937,-0.961007,30.427414,-10.457543,174.647437
46588,0.961504,6.194728,3.627648,-0.165487,-3.515202,-3.482236,0.501459,6.200310,2.725510,0.009892,0.061990,0.036128,0.999424,0.002507,0.030996,0.013625,0.000393,-0.073846,-0.258459,-0.963195,30.196395,-8.190195,177.833657
46589,-0.061170,4.891244,3.807622,0.732485,-2.332647,-4.116465,0.297397,6.637127,2.687150,-0.000003,0.048853,0.038156,0.999358,0.001487,0.033179,0.013433,0.022067,-0.045345,-0.258685,-0.964644,29.968654,-5.675846,-178.899389
46590,-2.300789,4.563341,4.386224,2.835334,-1.632160,-3.926455,0.344750,6.981207,2.697854,-0.022069,0.045255,0.044722,0.999298,0.001723,0.034898,0.013486,0.044221,-0.015194,-0.258766,-0.964808,29.911034,-2.992449,-175.550928
46591,-4.033572,5.512670,5.155352,4.444991,-1.738461,-2.710327,0.366061,7.112602,2.685791,-0.039201,0.054499,0.053061,0.999276,0.001830,0.035554,0.013426,0.066424,0.015693,-0.258537,-0.963587,30.022124,-0.235035,-172.176288
46592,-5.342123,6.894483,5.358234,5.651013,-2.376220,-1.616083,0.244984,7.074648,2.703094,-0.052405,0.068165,0.055532,0.999282,0.001225,0.035365,0.013512,0.088577,0.046257,-0.257382,-0.961129,30.226591,2.482952,-168.798395
46593,-7.844356,7.560347,5.805132,7.868668,-1.904118,-0.494814,-0.166069,6.674940,2.687017,-0.077456,0.074608,0.060586,0.999353,-0.000830,0.033367,0.013432,0.110111,0.074732,-0.254056,-0.957991,30.341346,5.004630,-165.528681
46594,-9.309787,7.154392,7.845862,8.453861,0.114243,1.496772,-0.637004,5.876201,2.656342,-0.091686,0.070575,0.080941,0.999475,-0.003184,0.029376,0.013279,0.130534,0.099031,-0.248625,-0.954641,30.295050,7.132770,-162.494503
46595,-9.579237,4.320411,9.736543,7.203188,3.679647,2.009868,-1.146327,5.061232,2.499579,-0.093827,0.042589,0.099511,0.999585,-0.005731,0.025303,0.012496,0.149324,0.119254,-0.240963,-0.951534,30.015150,8.915912,-159.767926
46596,-10.184032,-1.395610,10.455108,5.706768,9.134535,0.133689,-0.994001,4.077882,2.271436,-0.099517,-0.014569,0.106667,0.999715,-0.004970,0.020387,0.011356,0.165651,0.135075,-0.234472,-0.948334,29.831855,10.283040,-157.437509
46597,-9.608088,-4.043471,11.344560,3.679604,11.595269,-0.360049,0.090264,2.845763,1.806461,-0.094083,-0.041342,0.114775,0.999858,0.000451,0.014228,0.009032,0.177525,0.146470,-0.233710,-0.944675,30.205205,11.171926,-155.690142
46598,-7.941322,-2.362282,12.151117,1.942207,9.965531,0.826882,1.176285,1.723733,1.145932,-0.078223,-0.024790,0.122045,0.999929,0.005881,0.008618,0.005730,0.184136,0.154252,-0.238540,-0.940956,31.091833,11.679746,-154.595748
46599,-5.843175,0.934336,11.985912,0.803125,6.467909,1.857523,1.560978,0.912857,0.440947,-0.057903,0.008278,0.120192,0.999957,0.007805,0.004564,0.002205,0.186145,0.159415,-0.245356,-0.937943,32.086060,11.987628,-154.091043
46600,-3.371545,2.555548,10.734988,-0.585256,3.714500,1.095863,1.169559,0.527114,-0.398954,-0.033382,0.024994,0.107585,0.999977,0.005848,0.002636,-0.001995,0.184042,0.163412,-0.249995,-0.936444,32.744737,12.358832,-154.118581
46601,-2.227174,2.041311,9.358488,-1.272608,3.127966,-0.576658,0.746583,0.475810,-1.258141,-0.021921,0.020202,0.093713,0.999970,0.003733,0.002379,-0.006291,0.178187,0.167858,-0.252001,-0.936252,33.067165,12.973915,-154.582290
46602,-1.992482,1.186349,8.633368,-1.477830,3.425368,-1.688968,0.611867,0.600415,-1.843528,-0.019557,0.011781,0.086429,0.999948,0.003059,0.003002,-0.009217,0.169849,0.173478,-0.252733,-0.936580,33.246473,13.833386,-155.293876
46603,-2.247916,2.401836,7.885425,-0.764512,2.189248,-1.589373,0.299661,0.932502,-2.554482,-0.021803,0.024181,0.078993,0.999906,0.001498,0.004662,-0.012772,0.158847,0.181274,-0.251089,-0.937476,33.175477,15.076642,-156.251424
46604,-4.146676,0.750624,8.060064,0.394375,4.259700,-1.786484,0.083503,1.021167,-3.259764,-0.040925,0.008143,0.080814,0.999854,0.000417,0.005106,-0.016298,0.144808,0.190142,-0.247637,-0.938910,32.863888,16.578749,-157.543929
46605,-6.000202,0.957521,8.230480,1.910746,4.667324,-0.912150,0.099969,0.953583,-3.896978,-0.059408,0.010695,0.082594,0.999799,0.000500,0.004768,-0.019484,0.127629,0.199442,-0.243646,-0.940516,32.421829,18.237915,-159.200472
46606,-6.952283,1.475943,9.069802,2.370700,4.634429,0.466672,-0.077473,0.678608,-4.625378,-0.068848,0.016392,0.090926,0.999727,-0.000387,0.003393,-0.023125,0.106805,0.208116,-0.238122,-0.942644,31.664384,19.967890,-161.355717
46607,-8.113148,1.015297,9.660885,3.027008,5.270969,1.287957,-0.123098,0.255849,-5.248635,-0.080703,0.012334,0.096705,0.999655,-0.000615,0.001279,-0.026240,0.082525,0.215399,-0.231847,-0.945008,30.642698,21.644139,-164.022432
46608,-7.304836,0.447974,9.629674,2.269133,5.164832,0.885588,-0.008685,-0.140075,-5.671432,-0.072950,0.006554,0.096245,0.999598,-0.000043,-0.000700,-0.028353,0.055600,0.221180,-0.225608,-0.947148,29.453360,23.196918,-167.105048
46609,-6.138803,2.220732,8.809992,1.539800,2.629932,0.719629,-0.074271,-0.130342,-6.525434,-0.060677,0.024228,0.088051,0.999467,-0.000371,-0.000652,-0.032621,0.024668,0.227752,-0.217941,-0.948695,27.928504,24.921911,-170.730530
46610,-8.333761,1.685159,9.670059,3.023694,3.279977,2.264767,-0.435545,-0.195140,-7.222756,-0.082746,0.020058,0.096578,0.999345,-0.002177,-0.000975,-0.036106,-0.009264,0.234456,-0.207471,-0.949684,25.861520,26.689966,-174.882751
46611,-11.051827,3.211705,11.575311,4.257682,2.164818,5.794182,-0.260327,-0.735881,-7.061580,-0.109714,0.036151,0.115303,0.999369,-0.001301,-0.003679,-0.035300,-0.043180,0.238122,-0.197778,-0.949904,23.719591,27.999671,-179.211040
46612,-12.632071,6.637155,13.705772,3.892602,-0.964877,9.560277,-0.401050,-1.710788,-6.598495,-0.125199,0.070788,0.135844,0.999417,-0.002005,-0.008552,-0.032986,-0.075648,0.236440,-0.187466,-0.950384,21.401412,28.540509,176.401238
46613,-11.357032,5.915493,13.305596,2.981728,-1.245385,8.367460,-0.509514,-2.886606,-5.792730,-0.113690,0.062783,0.131259,0.999473,-0.002547,-0.014430,-0.028959,-0.105172,0.228197,-0.176991,-0.951598,19.120045,28.133819,172.219329
46614,-6.345829,6.843774,11.805656,-1.029846,-2.700710,4.955815,-0.459202,-3.583406,-4.860989,-0.063865,0.070256,0.116755,0.999542,-0.002296,-0.017914,-0.024301,-0.130841,0.215564,-0.167226,-0.953126,17.132151,27.044241,168.516341
46615,-0.166766,7.605885,9.186293,-5.666833,-3.532540,0.070284,-0.431289,-3.310829,-3.800544,-0.001738,0.076289,0.091670,0.999680,-0.002156,-0.016552,-0.019001,-0.151151,0.203155,-0.158836,-0.954281,15.579443,25.833097,165.592997
46616,0.454993,8.086917,8.147155,-6.019795,-4.243554,-0.995903,-0.247932,-2.479662,-2.512890,0.004557,0.080913,0.081428,0.999843,-0.001240,-0.012398,-0.012564,-0.164777,0.193447,-0.153138,-0.954974,14.597887,24.830847,163.650729
46617,-1.810588,10.034073,9.044861,-5.042454,-6.293656,1.175185,-0.209422,-1.934764,-1.334677,-0.018308,0.100557,0.090167,0.999930,-0.001047,-0.009674,-0.006673,-0.172357,0.185369,-0.149220,-0.955858,14.016897,23.941999,162.543139
46618,-4.212293,6.100091,10.074205,-1.657889,-3.148224,2.178227,-0.071871,-1.672865,-0.425087,-0.042834,0.061128,0.100364,0.999963,-0.000359,-0.008364,-0.002125,-0.175506,0.177710,-0.146982,-0.957086,13.768121,23.063980,162.039839
46619,-8.490458,5.094233,12.698484,1.933876,-2.679601,5.946794,-0.038303,-2.178055,-0.052161,-0.086267,0.050989,0.126041,0.999941,-0.000192,-0.010890,-0.000261,-0.177251,0.167328,-0.144809,-0.958965,13.610983,21.854991,161.695557
46620,-7.259142,2.899357,13.693647,1.787735,-0.192133,5.851499,0.070711,-2.998172,-0.100098,-0.074619,0.028982,0.135838,0.999887,0.000354,-0.014990,-0.000500,-0.179882,0.152908,-0.142341,-0.961249,13.471226,20.192514,161.210670
46621,-7.246916,0.327671,14.189176,3.132971,2.050150,5.676331,0.111660,-3.746009,-0.336015,-0.075104,0.003323,0.140503,0.999823,0.000558,-0.018729,-0.001680,-0.184157,0.134997,-0.139202,-0.963579,13.295873,18.145491,160.493038
46622,-7.987664,-0.120784,14.227782,4.572857,1.940982,5.728210,0.514412,-4.702365,-0.578288,-0.083195,-0.001333,0.140344,0.999716,0.002572,-0.023510,-0.002891,-0.190451,0.112203,-0.136866,-0.965612,13.299904,15.594207,159.514406
46623,-6.919911,0.718967,13.638222,4.100283,1.053822,4.898491,0.838741,-5.651049,-0.709618,-0.072991,0.006878,0.134385,0.999586,0.004193,-0.028251,-0.003548,-0.198075,0.084545,-0.135052,-0.967150,13.491407,12.535035,158.339917
46624,-4.290813,2.352268,12.057257,1.983670,-0.203837,3.043920,1.126247,-6.369987,-0.766682,-0.046632,0.023023,0.119257,0.999470,0.005630,-0.031844,-0.003833,-0.206394,0.053081,-0.133731,-0.967833,13.884190,9.087954,157.032412
46625,-0.395447,4.355956,9.967681,-1.607613,-1.244683,0.879275,1.315349,-6.570461,-0.757273,-0.007068,0.042926,0.099762,0.999432,0.006575,-0.032846,-0.003786,-0.214625,0.020392,-0.133008,-0.967383,14.462863,5.540431,155.685369
46626,2.852904,6.115259,8.653042,-4.757624,-1.877692,-0.105784,1.195183,-6.154734,-0.814432,0.026089,0.060521,0.087721,0.999500,0.005975,-0.030769,-0.004071,-0.222610,-0.010146,-0.131970,-0.965881,15.049310,2.244069,154.339348
46627,0.975072,5.128959,8.952516,-2.134418,-1.823100,0.162556,1.036388,-5.614583,-0.791541,0.007430,0.050791,0.090020,0.999585,0.005181,-0.028069,-0.003957,-0.229936,-0.037902,-0.130676,-0.963648,15.622809,-0.742216,153.057302
46628,0.113589,4.779769,7.955700,-0.904229,-2.239710,-0.851486,1.228564,-5.525512,-0.608141,-0.000923,0.047308,0.079842,0.999595,0.006142,-0.027624,-0.003040,-0.236091,-0.065549,-0.130242,-0.960730,16.367123,-3.695372,151.855641
46629,2.790771,5.327402,6.402043,-3.403887,-1.844336,-1.928825,1.285859,-5.212768,-0.493397,0.026352,0.052792,0.065061,0.999637,0.006429,-0.026061,-0.002467,-0.241295,-0.091776,-0.130341,-0.957270,17.200718,-6.477181,150.724202
46630,4.437045,5.097621,4.887162,-4.771952,-1.159673,-3.072440,1.341318,-4.573462,-0.386033,0.043330,0.050558,0.050210,0.999714,0.006706,-0.022865,-0.001930,-0.245381,-0.115035,-0.131321,-0.953577,18.098800,-8.913439,149.716275
46631,5.753678,5.055251,3.830733,-5.921348,-0.638638,-3.659963,1.488591,-3.674630,-0.205303,0.056867,0.050202,0.039731,0.999803,0.007442,-0.018372,-0.001026,-0.247817,-0.134240,-0.133961,-0.950064,19.083658,-10.875583,148.927738
46632,4.779611,6.303201,4.588998,-5.178592,-1.999847,-2.545604,1.569878,-2.753300,0.051429,0.047138,0.062678,0.047035,0.999874,0.007849,-0.013766,0.000257,-0.248276,-0.149321,-0.137896,-0.947126,20.080322,-12.379132,148.422381
46633,3.038495,7.277025,6.548097,-3.231594,-3.320019,-0.669711,1.384701,-2.205090,0.404083,0.029510,0.072373,0.066312,0.999913,0.006923,-0.011025,0.002020,-0.246778,-0.161765,-0.141358,-0.944961,20.920893,-13.647901,148.196710
46634,2.549714,6.422118,7.876139,-1.729556,-2.614040,0.184748,1.117223,-1.897776,0.793304,0.024492,0.063877,0.079354,0.999932,0.005586,-0.009489,0.003966,-0.243397,-0.172707,-0.143590,-0.943564,21.548328,-14.834091,148.233087
46635,1.450545,4.873775,8.577037,0.321955,-1.767646,-0.005010,1.057180,-1.819384,1.052144,0.013468,0.048356,0.086152,0.999931,0.005286,-0.009097,0.005261,-0.238761,-0.183337,-0.145400,-0.942465,22.101353,-16.030332,148.417443
46636,3.273639,4.267569,8.040856,-0.924405,-0.475815,-0.195049,0.994574,-1.859863,1.164074,0.031738,0.042461,0.080918,0.999927,0.004973,-0.009299,0.005820,-0.233647,-0.194169,-0.146737,-0.941369,22.603074,-17.277556,148.643643
46637,5.115310,3.080360,7.546071,-1.985005,1.308992,-0.488444,0.928577,-1.594375,1.075802,0.050383,0.030724,0.076007,0.999943,0.004643,-0.007972,0.005379,-0.228790,-0.203555,-0.148147,-0.940358,23.061011,-18.363179,148.873861
46638,2.893891,2.156561,7.843407,0.467746,1.038516,-1.254366,1.170476,-1.455312,0.975133,0.028262,0.021244,0.078766,0.999945,0.005852,-0.007276,0.004876,-0.224028,-0.212498,-0.150932,-0.939082,23.664411,-19.358650,149.071701
46639,4.299153,3.946869,7.512625,-1.288269,0.128100,-0.388193,1.210095,-1.430762,0.834304,0.042288,0.039189,0.075668,0.999947,0.006050,-0.007154,0.004171,-0.219846,-0.221208,-0.154070,-0.937549,24.314827,-20.306574,149.187462
46640,4.838415,3.943748,6.769627,-1.914061,0.246033,-0.809064,1.021234,-1.188481,0.655961,0.047851,0.039248,0.068182,0.999964,0.005106,-0.005942,0.003280,-0.216497,-0.228452,-0.156765,-0.936143,24.872676,-21.090868,149.255066
46641,4.539090,3.744140,6.183943,-1.767135,0.165558,-1.463332,1.041108,-0.909409,0.555217,0.045005,0.037243,0.062239,0.999972,0.005205,-0.004547,0.002776,-0.213370,-0.234283,-0.159968,-0.934877,25.437390,-21.702460,149.332211
46642,4.620167,4.057043,5.781308,-2.029397,-0.127535,-1.621629,1.178729,-0.619069,0.560638,0.045909,0.040357,0.058194,0.999974,0.005894,-0.003095,0.002803,-0.209806,-0.238933,-0.164101,-0.933790,26.053122,-22.170671,149.483082
46643,4.311863,4.231383,5.482179,-1.900631,-0.458965,-1.892629,1.273918,-0.303887,0.676442,0.042892,0.042109,0.055156,0.999973,0.006370,-0.001519,0.003382,-0.205324,-0.242256,-0.168870,-0.933079,26.666280,-22.503613,149.780639
46644,4.227674,4.957426,5.334733,-2.047693,-1.128036,-1.723030,1.319008,0.000060,0.837346,0.042070,0.049397,0.053673,0.999969,0.006595,0.000000,0.004187,-0.199763,-0.244370,-0.173950,-0.932802,27.238923,-22.730693,150.248723
46645,5.699542,5.440080,4.635044,-3.673806,-1.017877,-1.504269,1.132082,0.480083,0.896132,0.056863,0.054393,0.046522,0.999971,0.005660,0.002400,0.004481,-0.193731,-0.244054,-0.178561,-0.933285,27.637749,-22.728107,150.885805
46646,5.672347,3.963936,3.979626,-3.576519,0.076848,-2.676279,1.141852,1.057589,0.968479,0.056742,0.039687,0.039723,0.999958,0.005709,0.005288,0.004842,-0.186815,-0.241146,-0.183673,-0.934459,27.965684,-22.461109,151.727982
46647,5.675105,3.840137,3.664903,-3.730954,0.091204,-2.996784,1.472568,1.560760,1.197823,0.056806,0.038472,0.036489,0.999925,0.007363,0.007804,0.005989,-0.177951,-0.236332,-0.190505,-0.936049,28.383817,-22.001865,152.843197
46648,6.083769,5.076104,3.314893,-4.575698,-0.930106,-2.603998,1.551679,2.073720,1.402623,0.060823,0.050932,0.032913,0.999892,0.007758,0.010368,0.007013,-0.167506,-0.229393,-0.197882,-0.938170,28.762315,-21.353831,154.218323
46649,6.563867,6.541870,3.135070,-5.439653,-2.124660,-1.963881,1.088998,2.750809,1.440950,0.065592,0.065723,0.030806,0.999865,0.005445,0.013753,0.007204,-0.156708,-0.218820,-0.203568,-0.941340,28.815594,-20.375143,155.810337
46650,7.350104,6.536263,2.656834,-6.440175,-2.087368,-2.199098,0.293514,3.669240,1.239121,0.073566,0.065781,0.025315,0.999811,0.001467,0.018345,0.006195,-0.146739,-0.203087,-0.206383,-0.945849,28.398964,-18.881349,157.544495
46651,6.887388,6.269277,2.734827,-6.137639,-2.152719,-2.608334,-0.476483,4.785094,0.938133,0.069204,0.063079,0.025545,0.999700,-0.002382,0.023923,0.004690,-0.137758,-0.181041,-0.206581,-0.951615,27.555165,-16.717049,159.399153
46652,5.034184,4.534262,2.683462,-4.407495,-1.424561,-4.187969,-0.875795,5.798136,0.836854,0.050897,0.045667,0.025165,0.999561,-0.004378,0.028986,0.004184,-0.128468,-0.153738,-0.205520,-0.957926,26.518592,-13.988935,161.411364
46653,2.230061,3.115827,3.512458,-1.521514,-0.835162,-4.913614,-0.552432,6.497468,1.090440,0.023253,0.031379,0.034293,0.999454,-0.002762,0.032481,0.005451,-0.116876,-0.123330,-0.206055,-0.963676,25.711023,-10.925636,163.669201
46654,-1.023515,3.584505,4.997866,1.642081,-1.567468,-4.006294,-0.030062,6.790523,1.423125,-0.008786,0.035787,0.050288,0.999398,-0.000150,0.033946,0.007114,-0.102917,-0.092098,-0.208841,-0.968148,25.294217,-7.778467,166.116182
46655,-2.112142,5.384871,4.684386,2.105197,-3.425313,-3.549290,0.066700,6.923227,1.609144,-0.019915,0.053669,0.047565,0.999369,0.000333,0.034609,0.008044,-0.087754,-0.060274,-0.211815,-0.971494,25.054959,-4.584923,168.657752
46656,-1.191169,7.796292,3.889564,0.573714,-5.610852,-3.066082,-0.003833,7.235542,1.823495,-0.011205,0.077859,0.039308,0.999304,-0.000019,0.036169,0.009115,-0.071120,-0.027127,-0.214245,-0.973810,24.912391,-1.281215,171.362877
46657,-2.193962,7.216018,2.932691,1.472813,-5.545263,-4.106223,-0.318221,7.660975,2.246918,-0.021607,0.071964,0.030044,0.999202,-0.001591,0.038295,0.011232,-0.051911,0.007865,-0.214910,-0.975222,24.749401,2.157863,174.379573
46658,-4.527058,8.092573,2.811616,3.660042,-6.460133,-3.587603,-0.795486,8.081140,2.389580,-0.045058,0.080502,0.029619,0.999105,-0.003976,0.040394,0.011944,-0.031444,0.044787,-0.213016,-0.975515,24.512817,5.783912,177.565131
46659,-8.820119,5.924815,4.265640,7.851961,-3.759229,-2.378266,-1.357130,8.005961,2.451115,-0.087130,0.058479,0.045761,0.999101,-0.006784,0.040018,0.012252,-0.010579,0.081359,-0.207985,-0.974685,24.154037,9.381074,-179.232259
46660,-11.592343,2.370250,5.875976,10.153996,0.641906,-1.390030,-1.219759,7.281235,2.544638,-0.113978,0.022619,0.062793,0.999238,-0.006097,0.036397,0.012720,0.009955,0.114099,-0.203303,-0.972394,24.043987,12.582872,-176.136999
46661,-12.491261,1.112342,8.643597,9.835590,3.452234,1.288874,-0.697127,6.327273,2.612996,-0.122230,0.009825,0.090296,0.999408,-0.003485,0.031630,0.013062,0.029537,0.142069,-0.200945,-0.968796,24.349499,15.271953,-173.193786
46662,-12.268358,0.789395,10.545286,8.378996,4.919914,3.143478,-0.133810,5.149262,2.572775,-0.120004,0.006411,0.108561,0.999586,-0.000669,0.025743,0.012862,0.047316,0.164273,-0.201278,-0.964501,25.024695,17.327653,-170.509402
46663,-11.413383,2.064057,11.990389,6.497030,4.564920,4.857256,0.259553,3.822465,2.406248,-0.112050,0.019127,0.122084,0.999744,0.001298,0.019111,0.012030,0.062600,0.180273,-0.203530,-0.960291,25.882707,18.708075,-168.204968
46664,-10.414244,2.108449,12.874400,4.783515,4.983799,5.383153,0.338911,2.508541,2.148991,-0.102734,0.019756,0.130073,0.999862,0.001694,0.012542,0.010744,0.075219,0.190155,-0.206271,-0.956888,26.677570,19.443806,-166.358212
46665,-9.242737,2.960246,12.631707,3.590418,4.138619,5.144708,0.554032,1.315937,2.109606,-0.091896,0.028280,0.127002,0.999919,0.002770,0.006580,0.010548,0.086197,0.194436,-0.210398,-0.954200,27.495942,19.559802,-164.846844
46666,-7.237604,5.185319,12.257879,2.031242,1.781728,5.094328,0.657067,0.385609,2.460040,-0.072766,0.050556,0.122886,0.999917,0.003285,0.001928,0.012300,0.097754,0.193907,-0.215723,-0.952002,28.343184,19.088251,-163.412394
46667,-6.067812,6.342493,11.489755,1.498332,0.453082,4.560854,0.808863,-0.247823,3.127174,-0.061798,0.061999,0.115074,0.999869,0.004044,-0.001239,0.015635,0.111634,0.189692,-0.222680,-0.949720,29.309731,18.094817,-161.823177
46668,-4.950830,7.457264,10.864928,1.105348,-0.742023,4.200802,0.876304,-0.686675,3.864673,-0.051304,0.073116,0.108798,0.999798,0.004381,-0.003433,0.019322,0.128426,0.182534,-0.230825,-0.947052,30.348866,16.645545,-160.010733
46669,-4.949722,6.853330,11.034877,1.234056,0.242254,4.030421,0.933905,-1.026836,4.431000,-0.051558,0.066891,0.110402,0.999731,0.004669,-0.005134,0.022153,0.147393,0.173074,-0.239870,-0.943813,31.410810,14.832187,-158.055710
46670,-6.685851,6.346801,11.305189,2.920652,1.888088,4.352684,1.087556,-1.582806,4.894343,-0.069268,0.061178,0.112847,0.999654,0.005437,-0.007913,0.024469,0.167655,0.160433,-0.250301,-0.939948,32.494243,12.572138,-156.096127
46671,-6.376387,5.869808,11.442426,2.870201,2.758990,3.976763,1.019128,-2.333020,5.043225,-0.066538,0.056462,0.113950,0.999601,0.005095,-0.011664,0.025213,0.187607,0.143912,-0.260972,-0.935941,33.412486,9.873066,-154.360888
46672,-5.445552,3.662548,10.851045,2.053518,4.345649,1.921031,0.866227,-2.959048,4.678182,-0.056883,0.034846,0.107834,0.999608,0.004331,-0.014793,0.023388,0.204996,0.124679,-0.271040,-0.932185,34.095667,6.968511,-153.055914
46673,-5.410404,2.624893,10.723981,2.121589,5.462509,0.994632,0.684712,-3.485159,3.885871,-0.056454,0.024802,0.106356,0.999654,0.003423,-0.017424,0.019427,0.217940,0.103790,-0.280112,-0.929122,34.553660,4.058389,-152.335385
