PacketCounter,Acc_X,Acc_Y,Acc_Z,FreeAcc_E,FreeAcc_N,FreeAcc_U,Gyr_X,Gyr_Y,Gyr_Z,VelInc_X,VelInc_Y,VelInc_Z,OriInc_q0,OriInc_q1,OriInc_q2,OriInc_q3,Quat_q0,Quat_q1,Quat_q2,Quat_q3,Roll,Pitch,Yaw
46148,-6.733894,6.606818,1.030807,0.687378,0.265570,-0.351459,0.297025,0.018304,0.211361,-0.067408,0.065982,0.010412,0.999998,0.001485,0.000092,0.001057,-0.227766,0.265870,-0.621313,-0.701004,83.415662,40.978796,-179.161477
46149,-6.636440,7.335560,1.034177,0.156108,0.197727,0.130088,0.206342,0.034646,0.110909,-0.066403,0.073308,0.010429,0.999999,0.001032,0.000173,0.000555,-0.227531,0.265361,-0.622225,-0.700463,83.554208,40.912257,-179.130045
46150,-6.478392,7.914708,1.065281,-0.334655,0.168902,0.463813,0.080674,0.020021,0.022348,-0.064792,0.079136,0.010691,1.000000,0.000403,0.000100,0.000112,-0.227484,0.265217,-0.622564,-0.700232,83.608496,40.894938,-179.117316
46151,-6.337500,8.077495,1.150485,-0.554518,0.232300,0.500992,-0.072540,-0.006411,-0.045020,-0.063357,0.080793,0.011474,1.000000,-0.000363,-0.000032,-0.000225,-0.227554,0.265366,-0.622245,-0.700436,83.558212,40.914507,-179.130202
46152,-6.299868,7.771613,0.920356,-0.370053,0.026817,0.227017,-0.241292,-0.012440,-0.100446,-0.062960,0.077759,0.009106,0.999999,-0.001206,-0.000062,-0.000502,-0.227611,0.265856,-0.621256,-0.701110,83.405107,40.964994,-179.152461
46153,-6.427142,7.117124,0.849991,0.147024,0.017563,-0.186572,-0.313181,0.005121,-0.141305,-0.064221,0.071230,0.008390,0.999999,-0.001566,0.000026,-0.000707,-0.227661,0.266618,-0.619978,-0.701935,83.216948,41.040056,-179.165313
46154,-6.579351,6.618148,1.007837,0.558406,0.215556,-0.445450,-0.339277,0.008497,-0.163242,-0.065739,0.066252,0.009969,0.999998,-0.001696,0.000042,-0.000816,-0.227742,0.267487,-0.618582,-0.702810,83.013969,41.127593,-179.177970
46155,-6.532344,6.107754,1.042494,0.836960,0.292943,-0.852967,-0.333753,0.002738,-0.183830,-0.065267,0.061155,0.010324,0.999998,-0.001669,0.000014,-0.000919,-0.227920,0.268393,-0.617168,-0.703649,82.809693,41.226612,-179.197345
46156,-6.431992,5.860435,0.894379,0.921948,0.157653,-1.115548,-0.279160,-0.003174,-0.179190,-0.064268,0.058674,0.008861,0.999999,-0.001396,-0.000016,-0.000896,-0.228172,0.269200,-0.615944,-0.704331,82.633737,41.322297,-179.221205
46157,-6.322202,6.007492,0.721439,0.747272,-0.052020,-1.093770,-0.207040,-0.017236,-0.151851,-0.063177,0.060130,0.007147,0.999999,-0.001035,-0.000086,-0.000759,-0.228469,0.269792,-0.614993,-0.704839,82.493533,41.401616,-179.253401
46158,-6.237210,6.387909,0.829324,0.414075,-0.012124,-0.855884,-0.128751,-0.020929,-0.106947,-0.062339,0.063918,0.008246,1.000000,-0.000644,-0.000105,-0.000535,-0.228722,0.270142,-0.614375,-0.705162,82.399166,41.454845,-179.284123
46159,-6.179603,6.893544,1.010793,0.014575,0.084316,-0.500180,-0.125476,-0.040785,-0.084264,-0.061769,0.068968,0.010052,1.000000,-0.000627,-0.000204,-0.000421,-0.228963,0.270349,-0.613775,-0.705527,82.298088,41.493922,-179.327734
46160,-6.092096,7.051624,1.075969,-0.167923,0.110918,-0.434190,-0.185866,-0.042913,-0.098812,-0.060888,0.070556,0.010681,0.999999,-0.000929,-0.000215,-0.000494,-0.229178,0.270661,-0.612939,-0.706063,82.160263,41.540742,-179.374595
46161,-6.050408,7.137531,0.938452,-0.251741,-0.055293,-0.412368,-0.222529,-0.000093,-0.151037,-0.060450,0.071431,0.009305,0.999999,-0.001113,-0.000000,-0.000755,-0.229398,0.271328,-0.611952,-0.706593,82.019126,41.620770,-179.394682
46162,-6.280638,7.131432,0.683836,-0.064255,-0.321870,-0.290944,-0.247444,0.046425,-0.188866,-0.062737,0.071382,0.006765,0.999999,-0.001237,0.000232,-0.000944,-0.229573,0.272301,-0.610877,-0.707091,81.884332,41.725674,-179.383776
46163,-6.601426,7.225422,0.749150,0.088902,-0.282910,-0.001531,-0.167888,0.047633,-0.198506,-0.065941,0.072326,0.007447,0.999999,-0.000839,0.000238,-0.000993,-0.229888,0.273217,-0.610071,-0.707331,81.794844,41.836432,-179.373265
46164,-6.824528,7.366477,0.912522,0.125463,-0.150915,0.268647,-0.107582,0.026707,-0.213013,-0.068166,0.073742,0.009095,0.999999,-0.000538,0.000134,-0.001065,-0.230399,0.274033,-0.609433,-0.707399,81.728120,41.953436,-179.380474
46165,-6.714425,7.370017,0.983699,0.011889,-0.090285,0.205295,-0.080775,0.018862,-0.241203,-0.067054,0.073785,0.009814,0.999999,-0.000404,0.000094,-0.001206,-0.231071,0.274877,-0.608841,-0.707362,81.670493,42.086046,-179.396991
46166,-6.495446,7.272790,1.006950,-0.112642,-0.062050,-0.010563,-0.079105,0.016691,-0.263905,-0.064858,0.072818,0.010046,0.999999,-0.000396,0.000083,-0.001320,-0.231831,0.275778,-0.608221,-0.707296,81.610838,42.231053,-179.417941
46167,-6.297936,7.145402,1.069464,-0.206109,0.010865,-0.230315,-0.062287,0.029768,-0.272418,-0.062880,0.071543,0.010682,0.999999,-0.000311,0.000149,-0.001362,-0.232605,0.276733,-0.607662,-0.707150,81.566709,42.382242,-179.430056
46168,-6.358799,7.009281,1.196551,-0.109351,0.153307,-0.275362,-0.030596,0.034177,-0.267427,-0.063492,0.070180,0.011966,0.999999,-0.000153,0.000171,-0.001337,-0.233390,0.277649,-0.607227,-0.706905,81.543297,42.530694,-179.438368
46169,-6.505003,6.951279,1.144924,0.017350,0.109733,-0.224477,-0.010279,0.032710,-0.279355,-0.064951,0.069604,0.011456,0.999999,-0.000051,0.000164,-0.001397,-0.234251,0.278574,-0.606844,-0.706586,81.529743,42.686046,-179.449261
46170,-6.692488,6.889131,1.126780,0.172978,0.101975,-0.144245,0.023650,0.032632,-0.273226,-0.066829,0.068981,0.011287,0.999999,0.000118,0.000163,-0.001366,-0.235136,0.279439,-0.606588,-0.706170,81.536038,42.837652,-179.459552
46171,-6.760724,6.888562,1.184044,0.191867,0.160466,-0.091627,0.051620,0.027775,-0.265542,-0.067514,0.068972,0.011868,0.999999,0.000258,0.000139,-0.001328,-0.236048,0.280231,-0.606435,-0.705683,81.556370,42.984766,-179.472696
46172,-6.773767,6.924972,1.206482,0.150960,0.179348,-0.053601,0.057302,0.016489,-0.238080,-0.067654,0.069327,0.012090,0.999999,0.000287,0.000082,-0.001190,-0.236904,0.280891,-0.606326,-0.705227,81.576169,43.115099,-179.491392
46173,-6.702270,7.009586,1.128984,0.029949,0.090928,-0.049485,0.039748,0.008479,-0.197281,-0.066953,0.070160,0.011307,0.999999,0.000199,0.000042,-0.000986,-0.237617,0.281421,-0.606202,-0.704883,81.584802,43.221919,-179.511621
46174,-6.753056,7.104344,1.143596,-0.015487,0.092146,0.055166,0.039160,0.003058,-0.168512,-0.067470,0.071098,0.011451,1.000000,0.000196,0.000015,-0.000843,-0.238243,0.281844,-0.606110,-0.704581,81.592481,43.311701,-179.532761
46175,-6.759721,7.253783,1.265818,-0.140060,0.190408,0.180190,0.024842,-0.006125,-0.157621,-0.067540,0.072590,0.012665,1.000000,0.000124,-0.000031,-0.000788,-0.238839,0.282220,-0.605971,-0.704349,81.587817,43.394821,-179.559843
46176,-6.781640,7.397996,1.187604,-0.227949,0.088271,0.290362,-0.034071,-0.014011,-0.157967,-0.067759,0.074036,0.011859,1.000000,-0.000170,-0.000070,-0.000790,-0.239376,0.282638,-0.605615,-0.704305,81.545097,43.477187,-179.593192
46177,-6.837709,7.516430,1.122426,-0.276023,-0.001106,0.406637,-0.071864,-0.018274,-0.172972,-0.068313,0.075227,0.011191,1.000000,-0.000359,-0.000091,-0.000865,-0.239926,0.283133,-0.605098,-0.704363,81.477025,43.567941,-179.631800
46178,-6.934213,7.620978,1.282319,-0.311883,0.131686,0.564803,-0.091224,-0.013998,-0.192698,-0.069270,0.076282,0.012784,0.999999,-0.000456,-0.000070,-0.000963,-0.240504,0.283724,-0.604491,-0.704450,81.398419,43.669932,-179.669588
46179,-6.938430,7.437954,1.672441,-0.246947,0.533016,0.478905,-0.118182,-0.030508,-0.233035,-0.069300,0.074470,0.016670,0.999999,-0.000591,-0.000153,-0.001165,-0.241236,0.284412,-0.603710,-0.704592,81.291775,43.793557,-179.725453
46180,-6.734681,6.935487,1.499925,-0.056378,0.421390,-0.038956,-0.235586,-0.032745,-0.291934,-0.067248,0.069471,0.014906,0.999998,-0.001178,-0.000164,-0.001460,-0.242014,0.285410,-0.602428,-0.705018,81.111254,43.949979,-179.790773
46181,-6.728682,6.422791,1.049612,0.311708,0.034350,-0.456907,-0.284283,-0.009633,-0.342347,-0.067177,0.064358,0.010401,0.999998,-0.001421,-0.000048,-0.001712,-0.242831,0.286700,-0.600927,-0.705495,80.910251,44.137091,-179.845131
46182,-6.713987,6.213314,0.746756,0.448224,-0.251167,-0.648821,-0.213930,0.013368,-0.361178,-0.067027,0.062262,0.007405,0.999998,-0.001070,0.000067,-0.001806,-0.243743,0.288039,-0.599674,-0.705701,80.759829,44.336584,-179.884664
46183,-6.914275,6.371176,0.961835,0.425834,-0.077247,-0.371458,-0.080661,0.005856,-0.361800,-0.069027,0.063841,0.009595,0.999998,-0.000403,0.000029,-0.001809,-0.244873,0.289193,-0.598877,-0.705515,80.680875,44.535944,-179.930959
46184,-6.982683,6.551915,1.196421,0.288682,0.116936,-0.168013,-0.008839,-0.017831,-0.382813,-0.069702,0.065653,0.011955,0.999998,-0.000044,-0.000089,-0.001914,-0.246249,0.290234,-0.598273,-0.705120,80.627543,44.744675,-179.999269
46185,-6.915645,6.764953,1.225093,0.053147,0.104157,-0.061903,-0.006082,-0.010982,-0.409709,-0.069018,0.067791,0.012245,0.999998,-0.000030,-0.000055,-0.002049,-0.247704,0.291378,-0.597646,-0.704671,80.576497,44.969489,179.933768
46186,-6.914737,6.728376,1.174703,0.045053,0.053928,-0.093660,-0.047908,0.022504,-0.416903,-0.069006,0.067431,0.011739,0.999998,-0.000240,0.000113,-0.002085,-0.249021,0.292710,-0.596900,-0.704286,80.519288,45.201193,179.892124
46187,-6.908595,6.701291,0.897631,0.053372,-0.223531,-0.148900,-0.105379,0.024369,-0.395376,-0.068952,0.067154,0.008949,0.999998,-0.000527,0.000122,-0.001977,-0.250173,0.294057,-0.595982,-0.704094,80.431655,45.421155,179.854254
46188,-6.964677,6.581401,0.783582,0.155468,-0.326198,-0.205143,-0.098853,0.023640,-0.351139,-0.069530,0.065940,0.007811,0.999998,-0.000494,0.000118,-0.001756,-0.251179,0.295258,-0.595151,-0.703937,80.351220,45.615735,179.821279
46189,-7.075362,6.781351,0.924263,0.044462,-0.227699,0.028442,-0.023181,0.014529,-0.310952,-0.070647,0.067924,0.009240,0.999999,-0.000116,0.000073,-0.001555,-0.252183,0.296214,-0.594631,-0.703616,80.312397,45.787003,179.786042
46190,-7.102361,6.980522,1.292887,-0.149254,0.099194,0.227761,0.016789,-0.000421,-0.291516,-0.070922,0.069908,0.012935,0.999999,0.000084,-0.000002,-0.001458,-0.253220,0.297006,-0.594261,-0.703222,80.289543,45.945550,179.741171
46191,-6.983757,7.153434,1.575255,-0.416501,0.345412,0.293401,-0.026022,0.006640,-0.316270,-0.069724,0.071647,0.015746,0.999999,-0.000130,0.000033,-0.001581,-0.254260,0.297952,-0.593711,-0.702911,80.243448,46.119027,179.698284
46192,-7.033297,7.260243,1.273826,-0.456871,0.019798,0.365317,-0.168448,0.023096,-0.379342,-0.070194,0.072746,0.012685,0.999998,-0.000842,0.000115,-0.001897,-0.255259,0.299321,-0.592586,-0.702917,80.118609,46.329389,179.659429
46193,-7.133435,7.190406,0.756226,-0.315026,-0.496352,0.327034,-0.240513,0.053020,-0.400326,-0.071188,0.072056,0.007495,0.999997,-0.001203,0.000265,-0.002002,-0.256135,0.300950,-0.591210,-0.703061,79.967218,46.554757,179.641129
46194,-7.331783,7.210674,0.848569,-0.242585,-0.424964,0.494075,-0.138382,0.042442,-0.375269,-0.073181,0.072250,0.008451,0.999998,-0.000692,0.000212,-0.001876,-0.257106,0.302334,-0.590217,-0.702948,79.870152,46.764637,179.617055
46195,-7.417422,7.222516,1.113227,-0.262114,-0.175014,0.595132,-0.009459,0.012102,-0.373061,-0.074039,0.072364,0.011133,0.999998,-0.000047,0.000061,-0.001865,-0.258353,0.303440,-0.589637,-0.702500,79.828474,46.970438,179.567790
46196,-7.344347,6.854099,1.462141,-0.126625,0.228459,0.335594,0.010835,0.024277,-0.388666,-0.073308,0.068683,0.014634,0.999998,0.000054,0.000121,-0.001943,-0.259648,0.304605,-0.589120,-0.701952,79.803767,47.186003,179.525940
46197,-7.251110,6.710147,1.254357,-0.098225,0.045141,0.145539,-0.023305,0.024753,-0.385104,-0.072380,0.067242,0.012545,0.999998,-0.000117,0.000124,-0.001926,-0.260878,0.305806,-0.588486,-0.701505,79.759752,47.399831,179.484633
46198,-6.944665,6.444534,0.860464,-0.097789,-0.302015,-0.304799,-0.100251,0.036411,-0.314593,-0.069344,0.064559,0.008585,0.999999,-0.000501,0.000182,-0.001573,-0.261706,0.306939,-0.587705,-0.701357,79.686294,47.574831,179.463268
46199,-6.919961,6.573817,1.214109,-0.276048,0.019566,-0.195080,-0.016365,0.037258,-0.204542,-0.069130,0.065810,0.012149,0.999999,-0.000082,0.000186,-0.001023,-0.262275,0.307642,-0.587385,-0.701104,79.673535,47.688106,179.459098
46200,-6.920460,6.701035,1.272837,-0.389574,0.053926,-0.103822,-0.001541,-0.002387,-0.102398,-0.069170,0.067046,0.012727,1.000000,-0.000008,-0.000012,-0.000512,-0.262624,0.307886,-0.587223,-0.701002,79.656250,47.739496,179.437292
46201,-6.847592,6.673151,1.273261,-0.424087,0.058538,-0.176382,0.029425,-0.021661,-0.044850,-0.068462,0.066745,0.012735,1.000000,0.000147,-0.000108,-0.000224,-0.262877,0.307853,-0.587233,-0.700914,79.651186,47.756682,179.408082
46202,-6.818569,6.541146,1.176672,-0.337552,-0.012337,-0.296914,0.054095,0.002086,-0.027362,-0.068177,0.065418,0.011785,1.000000,0.000270,0.000010,-0.000137,-0.263035,0.307819,-0.587387,-0.700740,79.677022,47.766237,179.401480
46203,-7.048744,6.543072,1.040821,-0.168946,-0.142764,-0.141547,0.079643,0.042083,-0.013904,-0.070481,0.065431,0.010449,1.000000,0.000398,0.000210,-0.000070,-0.263069,0.307852,-0.587704,-0.700447,79.743809,47.772502,179.430460
46204,-7.326121,6.570592,1.020592,-0.001667,-0.159511,0.079778,0.123459,0.058844,-0.020690,-0.073251,0.065707,0.010268,1.000000,0.000617,0.000294,-0.000103,-0.263144,0.307906,-0.588186,-0.699991,79.845426,47.784066,179.472523
46205,-7.514205,6.567984,1.028331,0.121406,-0.139381,0.218512,0.167364,0.063704,-0.064957,-0.075117,0.065696,0.010362,1.000000,0.000837,0.000319,-0.000325,-0.263429,0.308050,-0.588758,-0.699338,79.970331,47.821229,179.512086
46206,-7.530377,6.500778,0.852228,0.192192,-0.286715,0.165980,0.188250,0.071830,-0.143373,-0.075254,0.065054,0.008611,0.999999,0.000941,0.000359,-0.000717,-0.263994,0.308424,-0.589294,-0.698509,80.103875,47.903193,179.547086
46207,-7.615556,6.703189,0.557920,0.116737,-0.593044,0.330058,0.259334,0.083819,-0.233866,-0.076075,0.067114,0.005698,0.999998,0.001297,0.000419,-0.001169,-0.264950,0.309013,-0.589953,-0.697329,80.276170,48.037558,179.579393
46208,-7.604409,6.650962,1.083340,0.059183,-0.043349,0.347552,0.308372,0.106790,-0.272138,-0.075948,0.066596,0.010977,0.999998,0.001542,0.000534,-0.001361,-0.266045,0.309728,-0.590752,-0.695917,80.487599,48.195466,179.626422
46209,-7.478785,6.787628,1.515767,-0.202371,0.384115,0.390894,0.263966,0.055363,-0.262527,-0.074694,0.067954,0.015268,0.999998,0.001320,0.000277,-0.001313,-0.267190,0.310295,-0.591340,-0.694725,80.642760,48.343218,179.632045
46210,-7.096512,6.750475,1.065930,-0.399502,-0.044136,0.031297,-0.006151,0.014487,-0.205617,-0.070895,0.067578,0.010662,0.999999,-0.000031,0.000072,-0.001028,-0.267838,0.310910,-0.591023,-0.694471,80.623324,48.454774,179.611128
46211,-6.848798,6.422338,1.265239,-0.360716,0.202414,-0.347901,-0.069642,0.033249,-0.154024,-0.068436,0.064281,0.012641,1.000000,-0.000348,0.000166,-0.000770,-0.268153,0.311524,-0.590590,-0.694442,80.584819,48.539105,179.613370
46212,-6.817546,6.256548,1.264337,-0.271633,0.222142,-0.480017,-0.137350,0.047790,-0.131235,-0.068131,0.062619,0.012617,1.000000,-0.000687,0.000239,-0.000656,-0.268239,0.312210,-0.589977,-0.694622,80.519195,48.611734,179.631163
46213,-6.848550,5.938725,0.682212,0.041318,-0.312428,-0.727691,-0.274110,0.060729,-0.124259,-0.068447,0.059439,0.006761,0.999999,-0.001371,0.000304,-0.000621,-0.268050,0.313105,-0.588915,-0.695193,80.384131,48.681847,179.660844
46214,-7.041468,5.610112,0.584526,0.415203,-0.367008,-0.807677,-0.211407,0.078549,-0.086200,-0.070388,0.056138,0.005814,0.999999,-0.001057,0.000393,-0.000431,-0.267773,0.313864,-0.588155,-0.695601,80.300545,48.732037,179.711168
46215,-7.312940,5.669893,0.748173,0.524091,-0.219151,-0.546414,-0.039200,0.075010,-0.049265,-0.073113,0.056718,0.007498,1.000000,-0.000196,0.000375,-0.000246,-0.267649,0.314273,-0.588045,-0.695557,80.317424,48.761233,179.763863
46216,-7.478394,5.767334,0.695913,0.562952,-0.283169,-0.364105,0.038305,0.063073,-0.043997,-0.074769,0.057688,0.006994,1.000000,0.000192,0.000315,-0.000220,-0.267663,0.314520,-0.588198,-0.695311,80.371655,48.786097,179.807146
46217,-7.618890,5.906990,0.729795,0.542714,-0.264146,-0.163424,0.126900,0.073153,-0.058557,-0.076169,0.059088,0.007363,1.000000,0.000635,0.000366,-0.000293,-0.267837,0.314727,-0.588649,-0.694768,80.481658,48.820320,179.857067
46218,-7.630093,6.166600,0.855635,0.335105,-0.168315,0.027878,0.213129,0.060056,-0.078825,-0.076274,0.061687,0.008645,0.999999,0.001066,0.000300,-0.000394,-0.268255,0.314831,-0.589350,-0.693965,80.630544,48.864480,179.892983
46219,-7.543976,6.561835,0.938119,-0.034190,-0.132215,0.228758,0.276930,0.048728,-0.099828,-0.075405,0.065643,0.009490,0.999999,0.001385,0.000244,-0.000499,-0.268881,0.314873,-0.590222,-0.692962,80.806641,48.919637,179.916461
46220,-7.528000,7.045076,1.061029,-0.429267,-0.067872,0.543023,0.242168,0.045289,-0.106557,-0.075240,0.070478,0.010713,0.999999,0.001211,0.000226,-0.000533,-0.269483,0.314968,-0.590958,-0.692057,80.960072,48.978008,179.936283
46221,-7.457615,7.250678,1.458957,-0.686156,0.309978,0.663475,0.188393,0.035774,-0.112676,-0.074533,0.072535,0.014671,0.999999,0.000942,0.000179,-0.000563,-0.270051,0.315121,-0.591485,-0.691316,81.076094,49.039184,179.947329
46222,-7.386227,7.534206,1.647009,-0.979625,0.462035,0.810875,0.075334,0.022042,-0.160271,-0.073800,0.075395,0.016507,1.000000,0.000377,0.000110,-0.000801,-0.270645,0.315518,-0.591526,-0.690866,81.113577,49.125851,179.940169
46223,-7.356780,7.394501,0.968140,-0.833184,-0.190910,0.627977,-0.183980,0.052264,-0.186846,-0.073496,0.074023,0.009633,0.999999,-0.000920,0.000261,-0.000934,-0.270832,0.316451,-0.590670,-0.691099,81.019491,49.230426,179.955493
46224,-7.468137,7.143303,0.888565,-0.578633,-0.242865,0.540842,-0.195402,0.049802,-0.125617,-0.074634,0.071489,0.008834,0.999999,-0.000977,0.000249,-0.000628,-0.270795,0.317207,-0.589868,-0.691452,80.923460,49.299969,179.976867
46225,-7.408062,6.924771,1.216504,-0.500944,0.103562,0.387805,-0.145113,-0.004494,-0.041115,-0.074067,0.069272,0.012113,1.000000,-0.000726,-0.000022,-0.000206,-0.270707,0.317459,-0.589299,-0.691855,80.829366,49.316944,179.962769
46226,-7.248930,6.487982,1.206202,-0.276070,0.150908,-0.014891,-0.157315,-0.027620,0.025049,-0.072499,0.064880,0.012001,1.000000,-0.000787,-0.000138,0.000125,-0.270438,0.317452,-0.588761,-0.692421,80.720079,49.294214,179.937865
46227,-7.322357,6.226274,1.130287,-0.019524,0.107858,-0.135449,-0.113617,-0.005166,0.026564,-0.073232,0.062259,0.011266,1.000000,-0.000568,-0.000026,0.000133,-0.270168,0.317460,-0.588407,-0.692824,80.650817,49.272811,179.932721
46228,-7.474022,6.273034,1.016585,0.060949,-0.016361,-0.002416,-0.043190,0.026911,0.011501,-0.074742,0.062728,0.010162,1.000000,-0.000216,0.000135,0.000058,-0.269966,0.317527,-0.588317,-0.692949,80.641340,49.262782,179.953227
46229,-7.586787,6.525481,1.234517,-0.079161,0.159797,0.268655,0.040226,0.036361,0.013726,-0.075870,0.065247,0.012372,1.000000,0.000201,0.000182,0.000069,-0.269862,0.317508,-0.588531,-0.692816,80.686102,49.252495,179.982240
46230,-7.525265,6.704246,1.327565,-0.260700,0.227401,0.347002,0.050548,0.007983,0.044427,-0.075267,0.067022,0.013296,1.000000,0.000253,0.000040,0.000222,-0.269750,0.317286,-0.588792,-0.692740,80.721424,49.222083,179.990993
46231,-7.356443,6.743959,1.185000,-0.376157,0.084189,0.229916,0.066499,-0.019830,0.074010,-0.073591,0.067408,0.011865,1.000000,0.000332,-0.000099,0.000370,-0.269644,0.316860,-0.589117,-0.692700,80.750796,49.172492,179.979822
46232,-7.060321,6.462362,1.127681,-0.342045,0.077073,-0.181541,0.075645,-0.014424,0.113445,-0.070641,0.064579,0.011296,1.000000,0.000378,-0.000072,0.000567,-0.269400,0.316323,-0.589544,-0.692677,80.793114,49.100982,179.978826
46233,-6.944909,6.139624,1.475359,-0.207205,0.480810,-0.440959,0.186902,0.007894,0.102331,-0.069480,0.061347,0.014814,0.999999,0.000935,0.000039,0.000512,-0.269304,0.315746,-0.590367,-0.692276,80.912447,49.037892,179.995401
46234,-7.032777,6.113066,0.798698,-0.040458,-0.172013,-0.461954,0.089889,0.048637,0.067009,-0.070346,0.061103,0.008032,1.000000,0.000449,0.000243,0.000335,-0.269056,0.315545,-0.590854,-0.692049,80.998925,48.998339,-179.957912
46235,-7.572461,6.204152,0.571954,0.279897,-0.396117,-0.018530,0.182353,0.086220,0.090306,-0.075750,0.062002,0.005809,0.999999,0.000912,0.000431,0.000452,-0.268763,0.315280,-0.591747,-0.691520,81.165034,48.948964,-179.875847
46236,-7.984526,6.729989,1.219801,0.094557,0.186101,0.698719,0.357318,0.028209,0.146422,-0.079893,0.067219,0.012329,0.999998,0.001787,0.000141,0.000732,-0.268722,0.314413,-0.593255,-0.690639,81.398982,48.862488,-179.836717
46237,-7.907615,6.912531,1.551564,-0.111584,0.512805,0.791336,0.368723,-0.031705,0.172093,-0.079138,0.069028,0.015630,0.999998,0.001844,-0.000159,0.000860,-0.268787,0.313247,-0.594759,-0.689849,81.602665,48.756397,-179.846420
46238,-7.625941,6.646898,1.377046,-0.060634,0.401075,0.388680,0.294687,-0.031574,0.154211,-0.076313,0.066390,0.013856,0.999999,0.001473,-0.000158,0.000771,-0.268797,0.312232,-0.595978,-0.689253,81.761979,48.660374,-179.858743
46239,-7.415768,6.472355,1.059425,-0.019084,0.131181,0.086290,0.284649,0.003666,0.126707,-0.074198,0.064661,0.010688,0.999999,0.001423,0.000018,0.000634,-0.268780,0.311433,-0.597165,-0.688593,81.935360,48.582935,-179.844638
46240,-7.327259,6.518105,0.956266,-0.087472,0.041561,0.040202,0.251137,0.014911,0.117963,-0.073310,0.065126,0.009650,0.999999,0.001256,0.000075,0.000590,-0.268707,0.310744,-0.598237,-0.688003,82.095738,48.511227,-179.822281
46241,-7.442505,6.624663,1.343179,-0.117941,0.427929,0.231420,0.258379,-0.012136,0.122862,-0.074467,0.066183,0.013513,0.999999,0.001292,-0.000061,0.000614,-0.268708,0.309936,-0.599303,-0.687438,82.243048,48.434683,-179.822858
46242,-7.426308,6.761928,1.213847,-0.203578,0.293709,0.297675,0.166127,-0.053049,0.102841,-0.074301,0.067571,0.012175,0.999999,0.000831,-0.000265,0.000514,-0.268758,0.309172,-0.599966,-0.687185,82.309493,48.366261,-179.860927
46243,-7.477399,6.756099,0.967578,-0.128939,0.055749,0.310199,0.076743,-0.046178,0.080898,-0.074804,0.067527,0.009684,1.000000,0.000384,-0.000231,0.000404,-0.268724,0.308616,-0.600296,-0.687159,82.327146,48.310930,-179.895736
46244,-7.545403,6.780879,1.038653,-0.100393,0.122903,0.383736,0.015862,-0.047032,0.060909,-0.075477,0.067785,0.010374,1.000000,0.000079,-0.000235,0.000305,-0.268667,0.308199,-0.600386,-0.687290,82.307782,48.266796,-179.933488
46245,-7.482053,6.696220,1.045053,-0.073434,0.135149,0.281319,-0.063171,-0.059236,0.046232,-0.074839,0.066948,0.010407,1.000000,-0.000316,-0.000296,0.000231,-0.268576,0.307891,-0.600164,-0.687658,82.234099,48.230116,-179.983316
46246,-7.376433,6.461139,0.754689,0.065401,-0.132327,0.021224,-0.152794,-0.062207,0.039143,-0.073779,0.064603,0.007475,1.000000,-0.000764,-0.000311,0.000196,-0.268379,0.307714,-0.599619,-0.688289,82.106764,48.197088,179.963681
46247,-7.262696,6.273552,0.639358,0.145918,-0.235041,-0.198301,-0.155249,-0.056971,0.046720,-0.072643,0.062723,0.006324,1.000000,-0.000776,-0.000285,0.000234,-0.268137,0.307535,-0.599084,-0.688929,81.982057,48.160179,179.916125
46248,-7.193906,6.077358,0.672010,0.247645,-0.188472,-0.376518,-0.137745,-0.052671,0.044730,-0.071954,0.060762,0.006659,1.000000,-0.000689,-0.000263,0.000224,-0.267915,0.307353,-0.598611,-0.689507,81.870141,48.124599,179.872189
46249,-7.123501,5.902424,0.572439,0.346182,-0.273336,-0.554394,-0.113460,-0.041093,0.053804,-0.071252,0.059008,0.005676,1.000000,-0.000567,-0.000205,0.000269,-0.267665,0.307152,-0.598251,-0.690007,81.780324,48.084855,179.839274
46250,-7.139155,5.751855,0.508744,0.480929,-0.322548,-0.648908,-0.048874,-0.036146,0.059836,-0.071410,0.057498,0.005060,1.000000,-0.000244,-0.000181,0.000299,-0.267478,0.306862,-0.598130,-0.690313,81.731347,48.041981,179.811441
46251,-7.140904,5.685569,0.540573,0.534891,-0.283522,-0.688877,0.047626,-0.021882,0.073005,-0.071430,0.056828,0.005411,1.000000,0.000238,-0.000109,0.000365,-0.267352,0.306454,-0.598381,-0.690326,81.747852,47.992920,179.797335
46252,-7.085085,5.678364,0.476460,0.517326,-0.342575,-0.741619,0.104016,-0.017596,0.079461,-0.070874,0.056753,0.004788,1.000000,0.000520,-0.000088,0.000397,-0.267276,0.305965,-0.598842,-0.690172,81.799983,47.940443,179.787646
46253,-7.060228,5.825602,0.368656,0.411799,-0.462689,-0.672846,0.152986,-0.001517,0.091357,-0.070629,0.058221,0.003731,1.000000,0.000765,-0.000008,0.000457,-0.267186,0.305432,-0.599511,-0.689862,81.891257,47.882673,179.792908
46254,-7.115515,6.135747,0.464663,0.220679,-0.398872,-0.416623,0.220655,0.002151,0.104426,-0.071187,0.061315,0.004715,0.999999,0.001103,0.000011,0.000522,-0.267142,0.304780,-0.600438,-0.689361,82.024649,47.817637,179.802666
46255,-7.167263,6.555792,0.495109,-0.045603,-0.410186,-0.095546,0.241912,0.012732,0.110631,-0.071709,0.065512,0.005035,0.999999,0.001210,0.000064,0.000553,-0.267079,0.304118,-0.601460,-0.688787,82.177191,47.750051,179.821847
46256,-7.251800,6.933674,0.474755,-0.252485,-0.463776,0.217814,0.218026,0.019183,0.121758,-0.072560,0.069287,0.004830,0.999999,0.001090,0.000096,0.000609,-0.266919,0.303475,-0.602425,-0.688288,82.320781,47.676459,179.847450
46257,-7.365446,7.193185,0.582610,-0.363599,-0.374681,0.485784,0.191881,0.016687,0.130693,-0.073701,0.071878,0.005901,0.999999,0.000959,0.000083,0.000653,-0.266698,0.302832,-0.603310,-0.687883,82.448384,47.597710,179.871695
46258,-7.391555,7.375495,0.627214,-0.469402,-0.340440,0.631935,0.131893,0.012975,0.137662,-0.073966,0.073700,0.006326,1.000000,0.000659,0.000065,0.000688,-0.266371,0.302234,-0.603993,-0.687673,82.539622,47.514546,179.893293
46259,-7.380937,7.386789,0.619284,-0.468355,-0.340868,0.631968,0.059620,0.010377,0.152000,-0.073865,0.073810,0.006219,1.000000,0.000298,0.000052,0.000760,-0.265894,0.301681,-0.604445,-0.687703,82.588912,47.423151,179.914146
46260,-7.273353,7.369157,0.723001,-0.520198,-0.231367,0.550937,0.018340,-0.001936,0.173449,-0.072797,0.073628,0.007236,1.000000,0.000092,-0.000010,0.000867,-0.265318,0.301074,-0.604771,-0.687905,82.608486,47.318526,179.926834
46261,-7.039602,7.076591,1.098010,-0.481345,0.179225,0.216067,-0.003537,-0.016498,0.178948,-0.070460,0.070703,0.010973,1.000000,-0.000018,-0.000082,0.000895,-0.264734,0.300430,-0.605010,-0.688201,82.607049,47.209801,179.927942
46262,-6.780662,6.833335,1.077401,-0.461196,0.186635,-0.138749,-0.095145,-0.013955,0.146030,-0.067857,0.068289,0.010737,1.000000,-0.000476,-0.000070,0.000730,-0.264117,0.300015,-0.604887,-0.688727,82.552018,47.119868,179.927605
46263,-6.760814,6.646773,0.510177,-0.273701,-0.362903,-0.328920,-0.262085,0.024218,0.085114,-0.067636,0.066446,0.005023,0.999999,-0.001310,0.000121,0.000426,-0.263345,0.300136,-0.604147,-0.689619,82.419993,47.067472,179.952684
46264,-6.937584,6.545768,0.377973,-0.058885,-0.495393,-0.280053,-0.262913,0.047963,0.062762,-0.069395,0.065441,0.003710,0.999999,-0.001315,0.000240,0.000314,-0.262575,0.300406,-0.603401,-0.690447,82.300166,47.029541,179.995148
46265,-7.183387,6.817666,0.703525,-0.112007,-0.221552,0.112781,-0.185380,0.017983,0.084126,-0.071862,0.068153,0.006979,0.999999,-0.000927,0.000090,0.000421,-0.261939,0.300407,-0.602915,-0.691113,82.208414,46.977284,-179.984786
46266,-7.189717,7.055607,0.964762,-0.295527,-0.008462,0.302497,-0.220974,-0.009741,0.103270,-0.071934,0.070530,0.009566,0.999999,-0.001105,-0.000049,0.000516,-0.261265,0.300299,-0.602298,-0.691952,82.080997,46.911951,-179.985523
46267,-7.267589,6.722028,1.191659,-0.010917,0.246923,0.155384,-0.194086,-0.036811,0.134350,-0.072723,0.067183,0.011838,0.999999,-0.000970,-0.000184,0.000672,-0.260606,0.299970,-0.601784,-0.692791,81.955503,46.826883,179.995181
46268,-7.288375,6.743653,1.070689,0.015769,0.109863,0.173868,-0.164201,-0.048741,0.155508,-0.072939,0.067389,0.010634,0.999999,-0.000821,-0.000244,0.000778,-0.259954,0.299495,-0.601388,-0.693584,81.841865,46.728769,179.968712
46269,-7.127022,6.928145,0.937276,-0.196785,-0.062170,0.168770,-0.191749,-0.030183,0.163173,-0.071328,0.069232,0.009296,0.999999,-0.000959,-0.000151,0.000816,-0.259178,0.299098,-0.600932,-0.694441,81.724649,46.627846,179.958903
46270,-6.962217,6.908636,0.942830,-0.278841,-0.069855,0.036575,-0.257310,-0.016713,0.166884,-0.069681,0.069040,0.009334,0.999999,-0.001287,-0.000084,0.000834,-0.258250,0.298820,-0.600270,-0.695478,81.578429,46.525870,179.960937
46271,-6.814200,7.003945,0.899631,-0.426946,-0.143749,-0.009886,-0.252754,-0.004001,0.167136,-0.068201,0.069994,0.008906,0.999999,-0.001264,-0.000020,0.000836,-0.257289,0.298580,-0.599639,-0.696481,81.442795,46.424871,179.973896
46272,-6.782279,6.839708,1.012084,-0.326701,-0.024364,-0.132921,-0.285925,0.043789,0.159815,-0.067875,0.068357,0.010038,0.999999,-0.001430,0.000219,0.000799,-0.256160,0.298569,-0.598942,-0.697501,81.316005,46.332103,-179.974575
46273,-6.959865,6.452698,1.055428,0.082681,0.064719,-0.263870,-0.202537,0.042399,0.144065,-0.069643,0.064487,0.010504,0.999999,-0.001013,0.000212,0.000720,-0.255214,0.298493,-0.598509,-0.698251,81.234914,46.248220,-179.925931
46274,-7.097606,6.424387,0.835067,0.235016,-0.156993,-0.207158,-0.172483,0.038968,0.106495,-0.071009,0.064213,0.008309,0.999999,-0.000862,0.000195,0.000532,-0.254454,0.298479,-0.598119,-0.698869,81.165489,46.185332,-179.884835
46275,-7.091153,6.534433,0.898685,0.153088,-0.118912,-0.130058,-0.173172,0.049419,0.052475,-0.070926,0.065333,0.008948,1.000000,-0.000866,0.000247,0.000262,-0.253851,0.298664,-0.597659,-0.699402,81.097010,46.154012,-179.841934
46276,-7.173773,6.603747,1.162899,0.133074,0.121792,0.005269,-0.230448,0.065131,-0.006818,-0.071732,0.066053,0.011576,0.999999,-0.001152,0.000326,-0.000034,-0.253321,0.299153,-0.596929,-0.700008,80.999383,46.157665,-179.793849
46277,-7.199300,7.007398,1.468234,-0.176888,0.342803,0.333268,-0.354408,0.074404,-0.076046,-0.071961,0.070127,0.014585,0.999998,-0.001772,0.000372,-0.000380,-0.252821,0.300037,-0.595673,-0.700880,80.829811,46.201438,-179.747147
46278,-7.154680,6.951658,1.276265,-0.156325,0.133167,0.242239,-0.559697,0.065591,-0.133186,-0.071496,0.069600,0.012591,0.999996,-0.002798,0.000328,-0.000666,-0.252237,0.301319,-0.593596,-0.702301,80.531643,46.276795,-179.715600
46279,-6.864999,6.778308,0.804437,-0.187434,-0.347711,-0.139812,-0.752648,0.038600,-0.150971,-0.068597,0.067865,0.007802,0.999993,-0.003763,0.000193,-0.000755,-0.251503,0.302798,-0.590775,-0.704304,80.104829,46.359760,-179.709186
46280,-6.816702,6.331947,0.762372,0.090594,-0.360040,-0.485086,-0.810632,0.098567,-0.151697,-0.068115,0.063401,0.007400,0.999991,-0.004053,0.000493,-0.000758,-0.250502,0.304559,-0.587814,-0.706376,79.679507,46.449167,-179.654776
46281,-6.959144,5.510703,0.466363,0.801095,-0.542070,-0.976438,-0.714235,0.069308,-0.184983,-0.069539,0.055188,0.004491,0.999993,-0.003571,0.000347,-0.000925,-0.249847,0.306189,-0.585098,-0.708156,79.287967,46.554556,-179.630114
46282,-6.821921,4.517476,0.138280,1.448475,-0.709399,-1.789976,-0.685107,0.046915,-0.188953,-0.068176,0.045244,0.001244,0.999994,-0.003426,0.000235,-0.000945,-0.249314,0.307711,-0.582442,-0.709872,78.898513,46.659839,-179.625499
46283,-6.597798,3.533671,0.083923,1.993888,-0.592998,-2.622586,-0.526102,0.066475,-0.152298,-0.065951,0.035389,0.000768,0.999996,-0.002631,0.000332,-0.000761,-0.248835,0.308995,-0.580426,-0.711132,78.615707,46.746809,-179.599658
46284,-6.587945,3.377863,0.846948,1.974426,0.182661,-2.629613,0.008250,0.181313,-0.102984,-0.065854,0.033812,0.008531,0.999999,0.000041,0.000907,-0.000515,-0.248673,0.309877,-0.580527,-0.710723,78.713357,46.818953,-179.471780
46285,-6.951483,4.765020,0.875867,1.219483,-0.046515,-1.427803,0.371319,0.219992,-0.088356,-0.069484,0.047664,0.008924,0.999998,0.001857,0.001100,-0.000442,-0.248908,0.310403,-0.581987,-0.709215,79.044667,46.887010,-179.309044
46286,-7.215225,5.448026,1.148111,0.860270,0.121801,-0.740556,0.487377,0.187870,-0.092043,-0.072116,0.054485,0.011682,0.999996,0.002437,0.000939,-0.000460,-0.249428,0.310678,-0.583809,-0.707412,79.423246,46.952823,-179.172678
46287,-7.005933,6.362828,2.130493,-0.095778,0.953475,-0.159237,0.703526,0.175609,-0.167431,-0.069987,0.063611,0.021590,0.999993,0.003518,0.000878,-0.000837,-0.250585,0.310859,-0.586257,-0.704895,79.910974,47.059410,-179.056723
46288,-6.983549,7.085503,1.870343,-0.614382,0.608457,0.273175,0.319488,0.240250,-0.267600,-0.069718,0.070918,0.018900,0.999997,0.001597,0.001201,-0.001338,-0.251305,0.312038,-0.587271,-0.703271,80.208301,47.228131,-178.900471
46289,-7.130397,6.200639,2.075154,0.058893,1.003311,-0.190501,0.116582,0.283947,-0.356181,-0.071164,0.062121,0.020889,0.999997,0.000583,0.001420,-0.001781,-0.251891,0.313886,-0.587486,-0.702059,80.408599,47.450861,-178.718651
46290,-6.842518,5.836377,1.970980,0.102999,0.983171,-0.658961,0.097773,0.266731,-0.405489,-0.068280,0.058493,0.019829,0.999997,0.000489,0.001334,-0.002027,-0.252669,0.315838,-0.587532,-0.700865,80.584139,47.699193,-178.556370
46291,-6.678513,5.676835,0.603746,0.269850,-0.318808,-1.036645,0.044634,0.254213,-0.373324,-0.066671,0.056892,0.006135,0.999997,0.000223,0.001271,-0.001867,-0.253287,0.317719,-0.587423,-0.699882,80.726552,47.928103,-178.398351
46292,-6.664755,6.108988,0.892200,-0.128213,-0.091046,-0.729196,0.321295,0.244761,-0.278476,-0.066551,0.061168,0.009102,0.999997,0.001606,0.001224,-0.001392,-0.254038,0.318934,-0.588418,-0.698219,81.032875,48.101848,-178.233545
46293,-7.290457,7.181250,1.903919,-0.668554,0.767193,0.546376,0.580415,0.167195,-0.241848,-0.072802,0.071845,0.019309,0.999995,0.002902,0.000836,-0.001209,-0.255301,0.319441,-0.590273,-0.695957,81.444132,48.247624,-178.127609
46294,-7.998954,7.085052,2.329734,-0.210613,1.268221,1.048063,0.658007,0.048435,-0.240574,-0.079899,0.070869,0.023550,0.999994,0.003290,0.000242,-0.001203,-0.257031,0.319427,-0.592242,-0.693651,81.825809,48.382051,-178.121000
46295,-8.551079,5.509479,2.902145,1.219182,2.151607,0.472339,0.795864,-0.019133,-0.225093,-0.085452,0.055075,0.029232,0.999991,0.003979,-0.000096,-0.001125,-0.259124,0.318952,-0.594617,-0.691053,82.245687,48.502507,-178.168897
46296,-8.378459,3.568175,2.966896,2.528619,2.561020,-0.936877,1.238472,-0.068610,-0.159413,-0.083766,0.035564,0.029861,0.999980,0.006192,-0.000343,-0.000797,-0.261835,0.317527,-0.598547,-0.687285,82.893999,48.582061,-178.250305
46297,-7.915296,3.851308,2.322972,2.105696,1.927148,-1.167897,1.807358,-0.082198,-0.113683,-0.079141,0.038346,0.023544,0.999959,0.009037,-0.000411,-0.000568,-0.265318,0.315156,-0.604448,-0.681854,83.863854,48.635762,-178.337361
46298,-7.830974,7.783559,1.691538,-0.796359,0.900775,1.292349,1.915426,-0.040763,-0.141736,-0.078258,0.077724,0.017644,0.999954,0.009577,-0.000204,-0.000709,-0.268918,0.312839,-0.610677,-0.675935,84.921844,48.708469,-178.389560
46299,-8.679703,12.391965,3.312904,-3.832215,2.187150,5.033223,1.478852,-0.036841,-0.208142,-0.086674,0.123760,0.034029,0.999972,0.007394,-0.000184,-0.001041,-0.272029,0.311303,-0.615285,-0.671204,85.729631,48.820185,-178.441561
46300,-8.287637,16.731776,3.650814,-7.399591,2.198119,7.576379,0.207527,-0.303298,-0.433167,-0.082569,0.167459,0.036556,0.999996,0.001038,-0.001516,-0.002166,-0.274726,0.311283,-0.614897,-0.670470,85.623985,49.048811,-178.739030
46301,-6.613201,16.924689,-0.400756,-8.356564,-2.046525,6.196988,-1.900416,-0.312620,-0.307069,-0.065864,0.169299,-0.005719,0.999952,-0.009502,-0.001563,-0.001535,-0.273734,0.313723,-0.607591,-0.676373,84.306465,49.202600,-179.040749
46302,-6.658933,11.869668,-1.673864,-4.381678,-3.062593,2.814508,-2.408417,-0.182404,0.097125,-0.066631,0.118451,-0.018227,0.999927,-0.012042,-0.000912,0.000486,-0.270149,0.316034,-0.599309,-0.684084,82.809621,49.129702,-179.194926
46303,-7.437240,7.831391,-0.117978,-0.953582,-1.193005,0.879462,-1.904934,-0.272351,0.342691,-0.074504,0.078170,-0.002026,0.999952,-0.009525,-0.001362,0.001713,-0.266756,0.316580,-0.592942,-0.690679,81.566816,48.907707,-179.394867
46304,-8.269474,3.303189,0.164737,2.975595,-0.325149,-1.424483,-1.512354,-0.300919,0.334837,-0.082752,0.032904,0.001274,0.999969,-0.007562,-0.001505,0.001674,-0.264076,0.316504,-0.587834,-0.696089,80.536223,48.685366,-179.612587
46305,-8.941860,-1.124801,0.060365,6.732737,0.279437,-3.827890,-0.551432,-0.330312,0.129905,-0.089412,-0.011305,0.000487,0.999995,-0.002757,-0.001652,0.000650,-0.263705,0.315646,-0.585686,-0.698426,80.018988,48.573739,-179.880309
46306,-7.860944,-1.369474,-0.058902,6.219772,0.173764,-4.816939,0.581596,-0.362054,-0.089822,-0.078614,-0.013657,-0.000771,0.999994,0.002908,-0.001810,-0.000449,-0.265981,0.313826,-0.587099,-0.697197,80.107073,48.582572,179.793128
46307,-6.265385,2.185956,-0.373589,2.570182,-0.747952,-3.729289,1.229515,-0.242703,-0.080134,-0.062641,0.021907,-0.003677,0.999980,0.006148,-0.001214,-0.000401,-0.268883,0.311523,-0.590928,-0.693873,80.643585,48.598644,179.569726
46308,-6.182640,5.662941,-0.321214,-0.073877,-1.200610,-1.509089,1.416721,-0.108874,0.110179,-0.061856,0.056616,-0.002845,0.999975,0.007084,-0.000544,0.000551,-0.271008,0.308856,-0.595857,-0.690012,81.393077,48.520538,179.487073
46309,-6.690571,8.516237,-0.673755,-1.815230,-1.871621,0.720355,1.297783,-0.068489,0.229848,-0.067001,0.085127,-0.006208,0.999978,0.006489,-0.000342,0.001149,-0.272405,0.306120,-0.600587,-0.686573,82.110307,48.378777,179.452344
46310,-6.489031,10.269681,-1.032155,-3.202173,-2.357315,1.712400,0.842930,0.021790,0.285071,-0.065038,0.102646,-0.009882,0.999990,0.004215,0.000109,0.001425,-0.272635,0.304136,-0.603944,-0.684414,82.627765,48.212605,179.498908
46311,-6.705308,10.937391,-0.339578,-3.585637,-1.676347,2.395326,0.488534,0.144032,0.321012,-0.067231,0.109274,-0.003080,0.999995,0.002443,0.000720,0.001605,-0.271830,0.302941,-0.606302,-0.683179,83.020873,48.034541,179.651298
46312,-7.318492,10.389423,-0.548919,-2.713180,-1.785486,2.485779,-0.034554,0.149813,0.359184,-0.073375,0.103762,-0.005452,0.999998,-0.000173,0.000749,0.001796,-0.270083,0.302359,-0.606934,-0.683568,83.119239,47.834699,179.810829
46313,-7.714281,8.547919,-0.464461,-1.052983,-1.484522,1.566241,-0.189424,0.088682,0.377980,-0.077306,0.085329,-0.004691,0.999998,-0.000947,0.000443,0.001890,-0.268221,0.301718,-0.606981,-0.684542,83.091207,47.619753,179.919869
46314,-7.665913,6.898603,-0.087588,0.133692,-0.921921,0.458470,-0.241446,0.043358,0.355000,-0.076782,0.068849,-0.000942,0.999998,-0.001207,0.000217,0.001775,-0.266496,0.301061,-0.606750,-0.685708,83.002969,47.414950,179.988168
46315,-7.476410,5.290681,0.169795,1.191784,-0.478396,-0.742540,-0.188615,0.035972,0.312005,-0.074846,0.052792,0.001662,0.999998,-0.000943,0.000180,0.001560,-0.265019,0.300436,-0.606626,-0.686665,82.937378,47.233971,-179.953860
46316,-7.194758,4.856586,0.136198,1.347037,-0.460243,-1.248626,-0.091401,0.044992,0.281369,-0.072016,0.048465,0.001356,0.999999,-0.000457,0.000225,0.001407,-0.263766,0.299807,-0.606797,-0.687270,82.930313,47.071242,-179.891702
46317,-7.022895,5.553958,-0.140976,0.774436,-0.817525,-0.929038,0.017581,0.077669,0.290751,-0.070310,0.055438,-0.001378,0.999999,0.000088,0.000388,0.001454,-0.262543,0.299116,-0.607401,-0.687507,83.006231,46.905347,-179.801486
46318,-7.042701,6.774436,0.026004,-0.083038,-0.790938,-0.073041,0.136719,0.069705,0.320673,-0.070535,0.067631,0.000331,0.999998,0.000684,0.000349,0.001603,-0.261420,0.298151,-0.608444,-0.687431,83.146767,46.721865,-179.715807
46319,-7.005945,7.800950,0.180505,-0.832109,-0.749012,0.614064,0.099707,0.044602,0.311351,-0.070180,0.077899,0.001860,0.999999,0.000499,0.000223,0.001557,-0.260348,0.297174,-0.609314,-0.687490,83.249848,46.541781,-179.652474
46320,-6.740218,7.835322,0.399066,-1.027947,-0.531122,0.465602,-0.088232,0.062110,0.291730,-0.067515,0.078257,0.003977,0.999999,-0.000441,0.000311,0.001459,-0.259011,0.296562,-0.609528,-0.688069,83.253536,46.374077,-179.577273
46321,-6.649966,7.230683,0.799304,-0.664312,-0.064767,0.020834,-0.222680,0.084286,0.270888,-0.066594,0.072226,0.007941,0.999998,-0.001113,0.000421,0.001354,-0.257478,0.296262,-0.609278,-0.688995,83.192096,46.219626,-179.485692
46322,-6.793556,6.277057,0.123553,0.208846,-0.627679,-0.586018,-0.432334,0.125725,0.278859,-0.068022,0.062678,0.001143,0.999996,-0.002162,0.000629,0.001394,-0.255479,0.296350,-0.608365,-0.690506,83.035187,46.063739,-179.359391
46323,-7.121174,5.528946,0.575832,0.954034,-0.089736,-0.829724,-0.296405,0.146980,0.333281,-0.071300,0.055179,0.005729,0.999997,-0.001482,0.000735,0.001666,-0.253427,0.296169,-0.608028,-0.691636,82.972777,45.878407,-179.209925
46324,-7.187505,5.144272,1.358918,1.223552,0.737281,-0.984908,-0.158252,0.100426,0.355702,-0.071960,0.051326,0.013585,0.999998,-0.000791,0.000502,0.001779,-0.251643,0.295583,-0.608137,-0.692441,82.962919,45.677272,-179.096782
46325,-6.959335,5.011857,1.194775,1.203500,0.592401,-1.258208,-0.114522,0.087725,0.339547,-0.069673,0.050007,0.011950,0.999998,-0.000573,0.000439,0.001698,-0.250017,0.294946,-0.608358,-0.693108,82.969430,45.484350,-178.995715
46326,-6.807351,5.227036,1.110743,0.980565,0.484532,-1.227855,0.009884,0.092453,0.305834,-0.068148,0.052166,0.011141,0.999999,0.000049,0.000462,0.001529,-0.248677,0.294272,-0.608962,-0.693346,83.046570,45.310964,-178.894946
46327,-6.705768,5.867373,1.351429,0.458525,0.647558,-0.835489,0.118246,0.081607,0.278671,-0.067134,0.058572,0.013576,0.999999,0.000591,0.000408,0.001393,-0.247622,0.293507,-0.609888,-0.693234,83.177309,45.152132,-178.806107
46328,-6.838030,6.624043,1.475613,0.031942,0.685507,-0.203159,0.117929,0.044215,0.237907,-0.068456,0.066150,0.014810,0.999999,0.000590,0.000221,0.001190,-0.246822,0.292737,-0.610705,-0.693126,83.282769,45.013862,-178.752216
46329,-7.082789,7.369176,1.292186,-0.275130,0.416436,0.477661,-0.018593,0.022730,0.202322,-0.070901,0.073621,0.012923,0.999999,-0.000093,0.000114,0.001012,-0.246010,0.292169,-0.610969,-0.693421,83.295400,44.894356,-178.719103
46330,-7.270584,7.758575,1.380659,-0.402040,0.451016,0.892358,-0.161473,0.000583,0.192511,-0.072780,0.077527,0.013744,0.999999,-0.000807,0.000003,0.000963,-0.245091,0.291730,-0.610695,-0.694173,83.212668,44.778963,-178.704843
46331,-7.264704,7.789688,1.429427,-0.411365,0.473579,0.916003,-0.392842,-0.038778,0.197746,-0.072727,0.077853,0.014127,0.999998,-0.001964,-0.000194,0.000989,-0.243936,0.291420,-0.609576,-0.695691,82.976089,44.657883,-178.720998
46332,-7.272048,7.320025,1.268114,-0.038886,0.340989,0.577480,-0.550303,-0.063930,0.226043,-0.072807,0.073152,0.012457,0.999996,-0.002752,-0.000320,0.001130,-0.242528,0.291127,-0.607915,-0.697757,82.637596,44.518884,-178.753651
46333,-7.055864,6.723787,1.020148,0.273398,0.133061,-0.017660,-0.613698,-0.095387,0.248085,-0.070647,0.067181,0.009962,0.999994,-0.003068,-0.000477,0.001240,-0.241044,0.290731,-0.606021,-0.700080,82.248090,44.364811,-178.807544
46334,-6.603714,6.029402,0.749767,0.486543,-0.081170,-0.852700,-0.624176,-0.094525,0.249884,-0.066116,0.060234,0.007278,0.999994,-0.003121,-0.000473,0.001249,-0.239533,0.290341,-0.604086,-0.702429,81.854210,44.209564,-178.859078
46335,-6.353209,5.450357,1.053138,0.691956,0.271620,-1.408754,-0.449829,-0.033598,0.231954,-0.063597,0.054453,0.010398,0.999997,-0.002249,-0.000168,0.001160,-0.238151,0.290009,-0.602806,-0.704134,81.593571,44.069284,-178.863034
46336,-6.321728,5.164395,1.329547,0.849565,0.571060,-1.605677,-0.229801,-0.029513,0.182623,-0.063266,0.051601,0.013227,0.999999,-0.001149,-0.000148,0.000913,-0.237250,0.289576,-0.602230,-0.705108,81.457480,43.957311,-178.869015
46337,-6.177520,5.229602,1.410458,0.704365,0.629104,-1.651317,-0.114158,-0.014042,0.124549,-0.061809,0.052266,0.014070,1.000000,-0.000571,-0.000070,0.000623,-0.236673,0.289235,-0.601996,-0.705641,81.391694,43.879582,-178.869317
46338,-6.312288,5.513164,1.580876,0.594477,0.749453,-1.337781,-0.037034,0.017581,0.045899,-0.063134,0.055120,0.015804,1.000000,-0.000185,0.000088,0.000229,-0.236391,0.289151,-0.601957,-0.705804,81.380697,43.849095,-178.854177
46339,-6.500421,5.888579,1.633460,0.467201,0.743222,-0.934153,-0.003316,0.049842,-0.058384,-0.064983,0.058905,0.016350,1.000000,-0.000017,0.000249,-0.000292,-0.236428,0.289455,-0.601924,-0.705695,81.398113,43.880515,-178.826014
46340,-6.730439,6.207535,1.461948,0.425744,0.526056,-0.565440,-0.055388,0.084575,-0.175605,-0.067244,0.062138,0.014631,0.999999,-0.000277,0.000423,-0.000878,-0.236698,0.290295,-0.601578,-0.705554,81.394892,43.981251,-178.784527
46341,-6.920832,6.290090,1.438836,0.487024,0.487656,-0.375615,-0.155296,0.065195,-0.292913,-0.069111,0.063013,0.014362,0.999999,-0.000776,0.000326,-0.001465,-0.237296,0.291538,-0.600686,-0.705600,81.314165,44.146881,-178.772335
46342,-6.655266,6.156983,1.541349,0.343079,0.591181,-0.641569,-0.325893,0.063154,-0.385408,-0.066429,0.061723,0.015334,0.999997,-0.001629,0.000316,-0.001927,-0.237976,0.293253,-0.599052,-0.706050,81.126286,44.364635,-178.773605
46343,-6.522141,6.259368,1.446467,0.152053,0.455445,-0.670503,-0.386958,0.094515,-0.426813,-0.065081,0.062761,0.014374,0.999996,-0.001935,0.000473,-0.002134,-0.238617,0.295273,-0.597174,-0.706582,80.916502,44.608738,-178.756224
46344,-6.686985,6.062931,1.337013,0.381414,0.358253,-0.702885,-0.433041,0.071287,-0.396404,-0.066745,0.060790,0.013262,0.999996,-0.002165,0.000356,-0.001982,-0.239150,0.297172,-0.595146,-0.707317,80.669165,44.833444,-178.754736
46345,-6.871935,5.829742,1.627437,0.599978,0.660409,-0.698870,-0.386451,0.005482,-0.364332,-0.068613,0.058454,0.016163,0.999996,-0.001932,0.000027,-0.001822,-0.239834,0.298686,-0.593247,-0.708043,80.413458,45.033961,-178.802898
46346,-6.831302,5.621340,1.780304,0.661850,0.817280,-0.850018,-0.431053,-0.037343,-0.377347,-0.068210,0.056380,0.017669,0.999996,-0.002155,-0.000187,-0.001887,-0.240621,0.300137,-0.591115,-0.708945,80.105395,45.237376,-178.888704
46347,-6.752812,5.352187,1.809703,0.754275,0.864556,-1.083150,-0.417306,0.025315,-0.428243,-0.067411,0.053704,0.017994,0.999996,-0.002087,0.000127,-0.002141,-0.241423,0.301943,-0.589025,-0.709645,79.834295,45.475618,-178.933256
46348,-6.462306,5.788793,1.253864,0.286903,0.205684,-1.053756,-0.410174,0.081524,-0.457506,-0.064485,0.058061,0.012446,0.999995,-0.002051,0.000408,-0.002288,-0.242171,0.304022,-0.586979,-0.710197,79.595285,45.735797,-178.938474
46349,-6.770619,6.049065,1.439292,0.252348,0.323787,-0.629258,-0.227351,0.165803,-0.415827,-0.067568,0.060648,0.014380,0.999997,-0.001137,0.000829,-0.002079,-0.242801,0.306055,-0.585742,-0.710130,79.513537,45.981434,-178.870415
46350,-7.423245,6.279516,1.967060,0.425464,0.803294,0.065560,0.111254,0.067391,-0.394039,-0.074102,0.062930,0.019731,0.999998,0.000556,0.000337,-0.001970,-0.244157,0.307261,-0.585620,-0.709244,79.570990,46.204372,-178.878773
46351,-7.657473,6.587122,2.390612,0.267839,1.169573,0.497614,0.255037,-0.011547,-0.433745,-0.076433,0.066007,0.023986,0.999997,0.001275,-0.000058,-0.002169,-0.246106,0.308128,-0.585846,-0.708007,79.660044,46.441760,-178.957200
46352,-7.546043,6.978499,2.204328,-0.104426,0.911608,0.659138,0.084396,-0.056686,-0.529829,-0.075281,0.069975,0.022051,0.999996,0.000422,-0.000283,-0.002649,-0.248262,0.309323,-0.585261,-0.707216,79.613688,46.728452,-179.087213
46353,-7.109524,7.854141,1.637583,-1.000634,0.168999,0.858974,-0.131498,-0.020971,-0.595900,-0.070862,0.078764,0.016317,0.999995,-0.000657,-0.000105,-0.002979,-0.250213,0.311105,-0.583849,-0.706914,79.455985,47.056150,-179.199484
46354,-7.252163,8.880321,1.277662,-1.646561,-0.417764,1.597841,-0.499901,0.010306,-0.561652,-0.072271,0.089038,0.012558,0.999993,-0.002500,0.000052,-0.002808,-0.251374,0.313353,-0.581222,-0.707674,79.107922,47.367336,-179.283109
46355,-7.774633,8.394880,1.491000,-1.033336,-0.171972,1.678349,-0.742854,-0.033785,-0.524308,-0.077528,0.084207,0.014584,0.999990,-0.003714,-0.000169,-0.002622,-0.252147,0.315637,-0.577727,-0.709244,78.594692,47.652353,-179.401390
46356,-7.688152,7.306551,1.470011,-0.355510,-0.040226,0.888981,-0.664791,-0.101270,-0.528268,-0.076695,0.073316,0.014418,0.999991,-0.003324,-0.000506,-0.002641,-0.253246,0.317588,-0.574408,-0.710675,78.080484,47.930906,-179.581002
46357,-7.266695,6.582058,0.412345,0.009495,-0.988183,-0.049426,-0.777786,-0.078350,-0.536165,-0.072492,0.066030,0.003839,0.999989,-0.003889,-0.000392,-0.002681,-0.254123,0.319781,-0.570691,-0.712371,77.510283,48.215604,-179.747907
46358,-6.723746,5.896213,0.644170,0.064948,-0.662382,-0.871445,-0.453431,0.021032,-0.515847,-0.067084,0.059150,0.006315,0.999994,-0.002267,0.000105,-0.002579,-0.255159,0.321851,-0.568280,-0.712996,77.187768,48.500436,-179.831471
46359,-7.546229,6.618836,1.504050,-0.107899,-0.011074,0.336437,-0.274190,0.100852,-0.472876,-0.075298,0.066387,0.014988,0.999996,-0.001371,0.000504,-0.002364,-0.256101,0.323853,-0.566672,-0.713032,77.022662,48.771336,-179.841661
46360,-8.361169,5.494924,1.309264,1.237545,0.033425,0.201533,-0.242245,-0.005698,-0.507315,-0.083472,0.055177,0.013024,0.999996,-0.001211,-0.000028,-0.002537,-0.257516,0.325529,-0.564983,-0.713099,76.801599,49.047507,-179.950457
46361,-7.331014,5.223585,0.809812,0.801025,-0.411522,-0.819679,-0.080450,-0.034920,-0.548263,-0.073168,0.052440,0.008064,0.999996,-0.000402,-0.000175,-0.002741,-0.259423,0.327006,-0.563761,-0.712700,76.646100,49.342580,179.905456
46362,-6.822014,5.324724,0.785205,0.355312,-0.462575,-1.142697,0.187623,0.075727,-0.468711,-0.068092,0.053400,0.007928,0.999997,0.000938,0.000379,-0.002344,-0.261170,0.328302,-0.563765,-0.711461,76.727478,49.607686,179.871446
46363,-7.013197,5.668022,0.418844,0.251562,-0.882278,-0.832431,0.458109,0.048474,-0.323796,-0.070039,0.056784,0.004335,0.999996,0.002291,0.000242,-0.001619,-0.262921,0.328738,-0.564928,-0.709690,76.968737,49.788615,179.844050
46364,-7.189320,5.814164,1.039086,0.125857,-0.280952,-0.513461,0.641202,0.022368,-0.204056,-0.071833,0.058181,0.010585,0.999994,0.003206,0.000112,-0.001020,-0.264619,0.328499,-0.566900,-0.707594,77.316825,49.899252,179.819159
46365,-7.185997,6.857021,0.833561,-0.639066,-0.673857,0.111501,0.502637,0.009229,-0.147796,-0.071809,0.068602,0.008511,0.999997,0.002513,0.000046,-0.000739,-0.265925,0.328235,-0.568450,-0.705981,77.585686,49.977042,179.794550
46366,-7.407269,6.873513,0.742617,-0.507166,-0.737064,0.280070,0.348990,0.059085,-0.075652,-0.074044,0.068750,0.007568,0.999998,0.001745,0.000295,-0.000378,-0.266581,0.328144,-0.569641,-0.704816,77.810697,50.020431,179.827608
46367,-7.373289,7.313098,1.032117,-0.911481,-0.518074,0.570607,0.384455,0.015911,-0.037737,-0.073718,0.073125,0.010468,0.999998,0.001922,0.000080,-0.000189,-0.267285,0.327745,-0.570958,-0.703668,78.032819,50.037460,179.830368
46368,-7.091769,7.807733,0.755674,-1.421438,-0.862684,0.630500,0.274037,0.053396,0.036936,-0.070930,0.078054,0.007683,0.999999,0.001370,0.000267,0.000185,-0.267436,0.327411,-0.572059,-0.702872,78.227323,50.016888,179.879643
46369,-7.448286,7.175898,1.285055,-0.790575,-0.186507,0.577785,0.464891,-0.005434,0.152898,-0.074538,0.071672,0.013015,0.999997,0.002324,-0.000027,0.000764,-0.267659,0.326282,-0.573939,-0.701778,78.507713,49.924400,179.898285
46370,-7.247470,6.586850,1.866879,-0.540640,0.546258,0.127464,0.937282,-0.158667,0.258847,-0.072575,0.065686,0.018919,0.999988,0.004686,-0.000793,0.001294,-0.268717,0.323674,-0.577436,-0.699710,78.969931,49.755068,179.800756
46371,-7.388469,6.846287,2.496058,-0.695899,1.184551,0.473384,1.141703,-0.030075,0.297602,-0.073990,0.068209,0.025339,0.999983,0.005708,-0.000150,0.001488,-0.269591,0.321120,-0.581866,-0.696875,79.637914,49.578276,179.819285
46372,-8.325691,7.423250,1.725537,-0.378200,0.411606,1.460552,1.269780,-0.050713,0.270701,-0.083362,0.074008,0.017705,0.999979,0.006349,-0.000254,0.001353,-0.270814,0.318387,-0.586649,-0.693637,80.359889,49.414422,179.812333
46373,-8.517026,9.139422,0.864815,-1.401795,-0.619244,2.615794,1.249787,-0.113001,0.228538,-0.085280,0.091241,0.009170,0.999980,0.006249,-0.000565,0.001143,-0.272322,0.315575,-0.591186,-0.690472,81.022429,49.268703,179.742287
46374,-8.284571,10.013057,1.044385,-2.201859,-0.471198,3.029240,1.013977,-0.062315,0.221536,-0.082960,0.099984,0.010925,0.999986,0.005070,-0.000312,0.001108,-0.273324,0.313269,-0.594948,-0.687891,81.581032,49.131834,179.713101
46375,-8.044002,10.483275,1.702584,-2.748518,0.200847,3.222210,0.747999,-0.087502,0.255863,-0.080582,0.104665,0.017382,0.999992,0.003740,-0.000438,0.001279,-0.273859,0.311132,-0.597801,-0.686172,81.972810,48.973544,179.664819
46376,-8.016523,10.665408,1.377999,-2.828470,-0.096850,3.298553,0.237906,-0.080665,0.335969,-0.080350,0.106503,0.013874,0.999998,0.001190,-0.000403,0.001680,-0.273304,0.309473,-0.599032,-0.686070,82.083515,48.770537,179.631184
46377,-7.969927,10.039391,1.087865,-2.314854,-0.301222,2.838123,-0.210646,-0.061050,0.393032,-0.079900,0.100248,0.010749,0.999997,-0.001053,-0.000305,0.001965,-0.271797,0.308321,-0.598836,-0.687357,81.955133,48.536422,179.621446
46378,-7.724334,8.975346,0.429121,-1.571913,-0.846612,1.901331,-0.588422,-0.039576,0.372333,-0.077411,0.089622,0.004012,0.999994,-0.002942,-0.000198,0.001862,-0.269713,0.307817,-0.597335,-0.689706,81.623358,48.316066,179.628980
46379,-7.675806,7.344525,0.119626,-0.320260,-0.979448,0.761433,-0.798625,-0.072842,0.337273,-0.076882,0.073320,0.000875,0.999991,-0.003993,-0.000364,0.001686,-0.267520,0.307579,-0.595001,-0.692677,81.148524,48.112421,179.606087
46380,-7.454481,6.166362,0.259623,0.424655,-0.722084,-0.171182,-0.763313,-0.144014,0.320268,-0.074645,0.061553,0.002307,0.999991,-0.003817,-0.000720,0.001601,-0.265650,0.307095,-0.592656,-0.695616,80.649374,47.912159,179.523302
46381,-7.216410,5.200251,0.251837,1.010804,-0.623726,-0.993865,-0.596045,-0.155025,0.344525,-0.072255,0.051885,0.002308,0.999994,-0.002980,-0.000775,0.001723,-0.263978,0.306271,-0.590908,-0.698098,80.244088,47.696345,179.437469
46382,-7.148502,4.571313,0.157556,1.469894,-0.644989,-1.479256,-0.384903,-0.132716,0.361490,-0.071568,0.045587,0.001440,0.999996,-0.001925,-0.000664,0.001807,-0.262503,0.305196,-0.589945,-0.699937,79.977109,47.473185,179.374923
46383,-7.140338,4.383143,-0.138545,1.669582,-0.922680,-1.653238,-0.225800,-0.074817,0.372834,-0.071484,0.043697,-0.001462,0.999998,-0.001129,-0.000374,0.001864,-0.261058,0.304077,-0.589630,-0.701230,79.839416,47.248975,179.363810
46384,-6.955840,4.506984,0.178309,1.449891,-0.635605,-1.674988,-0.035984,-0.043004,0.384811,-0.069645,0.044936,0.001760,0.999998,-0.000180,-0.000215,0.001924,-0.259766,0.302787,-0.590035,-0.701926,79.831284,47.021533,179.381212
46385,-6.662137,4.836662,0.420456,1.015796,-0.446877,-1.644302,0.107606,-0.024270,0.397858,-0.066718,0.048232,0.004222,0.999998,0.000538,-0.000121,0.001989,-0.258588,0.301335,-0.590989,-0.702184,79.918131,46.788357,179.415804
46386,-6.490034,5.040615,-0.015782,0.835898,-0.900106,-1.687445,0.129335,0.025595,0.416186,-0.065005,0.050271,-0.000117,0.999998,0.000647,0.000128,0.002081,-0.257231,0.299976,-0.592106,-0.702323,80.048235,46.550019,179.493161
46387,-6.602603,5.170925,0.158834,0.833934,-0.732992,-1.498531,0.254550,0.078964,0.436556,-0.066138,0.051563,0.001680,0.999997,0.001273,0.000395,0.002183,-0.255829,0.298580,-0.593760,-0.702033,80.282929,46.305059,179.615828
46388,-6.762554,5.225365,0.746629,0.872936,-0.136293,-1.279619,0.373901,0.099305,0.426782,-0.067733,0.052095,0.007597,0.999996,0.001870,0.000497,0.002134,-0.254579,0.297130,-0.595838,-0.701342,80.594698,46.067335,179.751374
46389,-6.884225,5.246806,1.079702,0.938413,0.219505,-1.143298,0.386295,0.096819,0.382647,-0.068937,0.052315,0.010932,0.999996,0.001931,0.000484,0.001913,-0.253507,0.295785,-0.597888,-0.700553,80.906188,45.853732,179.876845
46390,-6.797950,5.373454,0.778034,0.851757,-0.068628,-1.154677,0.354987,0.086951,0.313615,-0.068060,0.053614,0.007905,0.999997,0.001775,0.000435,0.001568,-0.252658,0.294650,-0.599708,-0.699783,81.185556,45.677975,179.983258
46391,-6.711627,5.970694,0.294202,0.446216,-0.611506,-0.856766,0.280704,0.093877,0.257538,-0.067192,0.059616,0.003057,0.999998,0.001404,0.000469,0.001288,-0.251874,0.293799,-0.601193,-0.699149,81.420535,45.534171,-179.912928
46392,-6.737823,6.753285,0.530346,-0.090908,-0.471109,-0.270356,0.209808,0.112487,0.247742,-0.067459,0.067444,0.005412,0.999999,0.001049,0.000562,0.001239,-0.250964,0.293131,-0.602435,-0.698687,81.623492,45.397290,-179.796469
46393,-7.065765,7.532953,1.566672,-0.497097,0.463066,0.611479,0.182748,0.112444,0.243039,-0.070740,0.075229,0.015775,0.999999,0.000914,0.000562,0.001215,-0.250029,0.292510,-0.603576,-0.698297,81.810071,45.262726,-179.681350
46394,-7.266848,7.523303,1.766995,-0.346225,0.680216,0.767806,0.038612,0.062242,0.224576,-0.072747,0.075148,0.017707,0.999999,0.000193,0.000311,0.001123,-0.249100,0.291950,-0.604120,-0.698393,81.882797,45.134441,-179.609654
46395,-7.261464,7.229389,1.342144,-0.076539,0.305488,0.516643,-0.110523,0.029685,0.200952,-0.072685,0.072228,0.013392,0.999999,-0.000553,0.000148,0.001005,-0.248133,0.291532,-0.604070,-0.698956,81.849712,45.016827,-179.566843
46396,-6.849653,6.493912,1.328294,0.168100,0.391029,-0.290512,-0.175776,0.010298,0.200394,-0.068561,0.064882,0.013229,0.999999,-0.000879,0.000051,0.001002,-0.247131,0.291129,-0.603764,-0.699742,81.767874,44.898049,-179.539749
46397,-6.390418,6.153751,1.457123,0.085555,0.557862,-0.839910,-0.164088,0.008829,0.222154,-0.063972,0.061478,0.014524,0.999999,-0.000820,0.000044,0.001111,-0.246073,0.290640,-0.603529,-0.700521,81.694063,44.766791,-179.510921
46398,-6.134412,6.102936,1.488369,-0.044026,0.589049,-1.052371,-0.102943,0.014298,0.236842,-0.061415,0.060964,0.014857,0.999999,-0.000515,0.000071,0.001184,-0.245037,0.290050,-0.603534,-0.701124,81.659289,44.627726,-179.476121
46399,-6.022897,6.448584,1.475073,-0.340811,0.519702,-0.888054,-0.088320,0.020114,0.236472,-0.060304,0.064421,0.014728,0.999999,-0.000442,0.000101,0.001182,-0.244004,0.289463,-0.603596,-0.701673,81.636310,44.489305,-179.436572
46400,-6.158948,7.382284,1.124374,-0.830975,0.023430,-0.168837,-0.268147,0.070084,0.190156,-0.061656,0.073779,0.011166,0.999999,-0.001341,0.000350,0.000951,-0.242723,0.289409,-0.603019,-0.702634,81.534039,44.381418,-179.362818
46401,-6.698926,8.098689,0.852977,-0.894301,-0.372110,0.687485,-0.488139,0.175948,0.095853,-0.067021,0.080975,0.008391,0.999997,-0.002441,0.000880,0.000479,-0.241134,0.290278,-0.601660,-0.703988,81.356850,44.336021,-179.215996
46402,-7.267522,8.821679,0.185758,-0.898871,-1.186618,1.521201,-0.820194,0.107657,-0.023773,-0.072664,0.088232,0.001535,0.999991,-0.004101,0.000538,-0.000119,-0.239687,0.291663,-0.598867,-0.706287,80.941274,44.352963,-179.137838
46403,-6.964481,8.722593,0.083599,-1.030543,-1.350066,1.219505,-1.057639,0.069371,-0.079504,-0.069610,0.087256,0.000399,0.999986,-0.005288,0.000347,-0.000398,-0.238199,0.293357,-0.595097,-0.709269,80.363600,44.398188,-179.097203
46404,-6.761434,8.221702,1.139595,-0.975022,-0.312259,0.843917,-1.154615,0.134837,-0.120730,-0.067557,0.082322,0.010966,0.999983,-0.005773,0.000674,-0.000604,-0.236513,0.295513,-0.590980,-0.712374,79.761906,44.473593,-179.011330
46405,-7.301594,6.599925,1.843605,0.405437,0.606620,0.174211,-1.294651,0.109864,-0.219460,-0.072933,0.066197,0.018048,0.999978,-0.006473,0.000549,-0.001097,-0.235036,0.298025,-0.586168,-0.715784,79.055636,44.602462,-178.960610
46406,-7.746768,3.133169,2.047988,3.034033,1.448255,-1.893078,-1.178805,0.022455,-0.440963,-0.077396,0.031622,0.020303,0.999980,-0.005894,0.000112,-0.002205,-0.234772,0.300725,-0.581312,-0.718695,78.340743,44.846607,-179.016339
46407,-7.109192,0.300069,1.373579,4.593049,1.356059,-4.373748,-0.852395,-0.002019,-0.697988,-0.071081,0.003307,0.013721,0.999985,-0.004262,-0.000010,-0.003490,-0.235984,0.303691,-0.577194,-0.720368,77.765686,45.231361,-179.138640
46408,-5.656156,-0.253163,0.970426,3.980725,1.060490,-5.809324,-0.301674,0.114985,-0.788121,-0.056565,-0.002294,0.009740,0.999991,-0.001508,0.000575,-0.003941,-0.238015,0.306682,-0.575046,-0.720150,77.557293,45.680393,-179.188135
46409,-5.549427,1.989203,2.006153,2.138370,1.566636,-4.177919,0.316385,0.215567,-0.648374,-0.055408,0.020040,0.020153,0.999993,0.001582,0.001078,-0.003242,-0.240198,0.308894,-0.575449,-0.718156,77.778399,46.063671,-179.132388
46410,-6.416948,4.464880,2.592465,0.873208,1.618193,-1.784485,0.582140,0.166308,-0.481821,-0.064040,0.044727,0.026108,0.999993,0.002911,0.000832,-0.002409,-0.242331,0.310125,-0.576996,-0.715663,78.146089,46.347373,-179.084707
46411,-7.033427,5.814856,2.138136,0.386282,0.920381,-0.492990,0.516035,0.095090,-0.428164,-0.070199,0.058243,0.021565,0.999994,0.002580,0.000475,-0.002141,-0.244373,0.311024,-0.578295,-0.713527,78.442502,46.592748,-179.083331
46412,-7.353412,6.924855,1.445539,-0.110335,0.042690,0.390332,0.393494,0.137529,-0.443687,-0.073370,0.069383,0.014642,0.999995,0.001967,0.000688,-0.002218,-0.246154,0.312264,-0.579180,-0.711653,78.693351,46.851403,-179.048082
46413,-7.257465,7.847572,0.758381,-0.769550,-0.801689,0.845419,0.074714,0.172305,-0.410518,-0.072407,0.078622,0.007676,0.999997,0.000374,0.000862,-0.002053,-0.247218,0.313924,-0.579019,-0.710684,78.787521,47.095501,-178.977431
46414,-7.291292,8.332204,1.248634,-1.211214,-0.409518,1.255862,0.084098,0.169270,-0.288919,-0.072782,0.083422,0.012583,0.999999,0.000420,0.000846,-0.001445,-0.247871,0.315207,-0.579078,-0.709840,78.900635,47.270555,-178.888548
46415,-7.704192,9.179898,1.072054,-1.540595,-0.752281,2.096761,-0.186762,0.086620,-0.228166,-0.076932,0.091897,0.010668,0.999999,-0.000934,0.000433,-0.001141,-0.248121,0.316356,-0.578167,-0.709984,78.815868,47.402475,-178.857941
46416,-7.898595,8.684431,1.754296,-1.194275,-0.000432,1.996556,-0.380587,0.152354,-0.284145,-0.078849,0.086990,0.017438,0.999997,-0.001903,0.000762,-0.001421,-0.248071,0.318139,-0.576559,-0.710513,78.653285,47.573067,-178.782314
46417,-8.190352,8.777141,1.883639,-1.131919,0.064454,2.286161,-0.777879,0.180901,-0.467908,-0.081681,0.088035,0.018568,0.999989,-0.003889,0.000905,-0.002340,-0.247957,0.321042,-0.573275,-0.711903,78.257142,47.850449,-178.715050
46418,-7.753331,7.398800,0.872234,-0.314351,-0.698930,0.912470,-1.154061,0.204694,-0.601051,-0.077302,0.074270,0.008374,0.999978,-0.005770,0.001023,-0.003005,-0.247636,0.324866,-0.568449,-0.714145,77.640307,48.205559,-178.654973
46419,-7.111876,5.726434,1.152320,0.358610,-0.114957,-0.617233,-0.816771,0.158708,-0.635054,-0.070927,0.057536,0.011345,0.999986,-0.004084,0.000794,-0.003175,-0.248107,0.328195,-0.564696,-0.715437,77.179918,48.574409,-178.644494
46420,-6.681786,4.357227,1.776222,0.895415,0.780010,-1.727131,-0.224074,0.102988,-0.626834,-0.066672,0.043801,0.017748,0.999994,-0.001120,0.000515,-0.003134,-0.249673,0.330559,-0.562996,-0.715143,77.022548,48.931468,-178.682685
46421,-6.600709,3.332661,1.152688,1.663033,0.415353,-2.528023,0.360887,0.008009,-0.600149,-0.065906,0.033504,0.011590,0.999994,0.001804,0.000040,-0.003001,-0.252376,0.331776,-0.563307,-0.713384,77.142678,49.261583,-178.797011
46422,-6.255210,3.287897,1.536390,1.364349,0.805657,-2.756642,1.070237,-0.153936,-0.536172,-0.062476,0.032964,0.015492,0.999982,0.005351,-0.000770,-0.002681,-0.256477,0.331330,-0.566036,-0.709960,77.573789,49.535846,-179.036483
46423,-6.240741,4.915433,1.968547,0.051714,0.899072,-1.678064,1.468033,-0.081814,-0.376538,-0.062323,0.049126,0.020021,0.999971,0.007340,-0.000409,-0.001883,-0.260455,0.330164,-0.570508,-0.705461,78.304700,49.731048,-179.180891
46424,-7.085668,6.568639,1.923145,-0.635466,0.595448,0.000207,1.548017,0.019486,-0.099413,-0.070822,0.065570,0.019746,0.999970,0.007740,0.000097,-0.000497,-0.263282,0.328440,-0.575818,-0.700888,79.187990,49.782965,-179.185331
46425,-7.656160,7.291001,2.668503,-0.907667,1.311656,0.973891,1.809359,0.012342,0.185783,-0.076627,0.072593,0.027347,0.999959,0.009047,0.000062,0.000929,-0.265542,0.325504,-0.582460,-0.695898,80.251663,49.673676,-179.149483
46426,-8.157084,7.792116,2.682349,-0.918496,1.399791,1.660942,2.011182,0.134873,0.284372,-0.081663,0.077530,0.027659,0.999948,0.010056,0.000674,0.001422,-0.267405,0.322408,-0.590075,-0.690188,81.520236,49.519022,-178.996470
46427,-9.298311,8.443075,2.216095,-0.562592,1.039570,2.885908,2.090041,0.224534,0.231087,-0.093055,0.084085,0.023145,0.999944,0.010450,0.001123,0.001155,-0.269286,0.319638,-0.597930,-0.683957,82.883572,49.399429,-178.777661
46428,-10.168910,10.444709,1.872629,-1.429362,0.644733,4.800407,2.013764,0.069296,0.113751,-0.101742,0.104193,0.019812,0.999949,0.010069,0.000346,0.000569,-0.271881,0.316756,-0.605066,-0.677969,84.087961,49.333299,-178.710647
46429,-9.483433,12.826822,1.756309,-3.635093,0.437877,5.812257,1.555013,-0.150735,0.080385,-0.094900,0.128089,0.018488,0.999969,0.007775,-0.000754,0.000402,-0.274507,0.313829,-0.610243,-0.673618,84.879674,49.273524,-178.840878
46430,-8.403074,14.943954,2.036298,-5.933438,0.616539,6.388962,0.686845,-0.244707,0.136728,-0.084158,0.149311,0.020773,0.999993,0.003434,-0.001224,0.000684,-0.275856,0.311591,-0.612435,-0.672114,85.115012,49.177462,-179.049419
46431,-7.777750,15.328979,2.011675,-6.595042,0.541139,6.178857,-0.498954,-0.273660,0.210162,-0.077966,0.153257,0.019628,0.999995,-0.002495,-0.001368,0.001051,-0.275197,0.310664,-0.610708,-0.674382,84.656648,49.037722,-179.276818
46432,-7.534461,14.137937,1.437076,-5.769351,-0.083179,5.201202,-1.592561,-0.330485,0.259650,-0.075551,0.141389,0.013120,0.999966,-0.007963,-0.001652,0.001298,-0.272835,0.310886,-0.605270,-0.680118,83.541427,48.864429,-179.545305
46433,-7.534578,11.301151,0.379120,-3.494164,-1.059769,3.275120,-2.250864,-0.322439,0.317096,-0.075529,0.112924,0.002398,0.999934,-0.011254,-0.001612,0.001585,-0.269199,0.311824,-0.597632,-0.687847,82.064269,48.654433,-179.793913
46434,-7.773217,7.693943,-0.619402,-0.480760,-1.775516,0.986204,-2.320405,-0.331406,0.345453,-0.077853,0.076725,-0.007214,0.999930,-0.011602,-0.001657,0.001727,-0.265351,0.312702,-0.589706,-0.695739,80.552545,48.424088,179.963285
46435,-7.905313,3.679854,-0.994905,2.678580,-1.632595,-1.616106,-1.944704,-0.363449,0.350646,-0.079099,0.036560,-0.010449,0.999950,-0.009723,-0.001817,0.001753,-0.262132,0.312913,-0.582981,-0.702499,79.243801,48.182984,179.703561
46436,-7.718920,0.437680,-0.971790,4.970845,-1.074974,-3.909079,-1.164516,-0.364885,0.327470,-0.077178,0.004193,-0.009883,0.999980,-0.005823,-0.001824,0.001637,-0.260203,0.312146,-0.578918,-0.706904,78.385494,47.952244,179.447064
46437,-6.911990,-0.564519,-0.817539,5.164855,-0.744790,-5.172416,-0.279248,-0.330205,0.347983,-0.069096,-0.005777,-0.008281,0.999996,-0.001396,-0.001651,0.001740,-0.259474,0.310277,-0.578046,-0.708706,78.062276,47.711498,179.227477
46438,-6.039794,0.619527,-0.327892,3.669723,-0.501673,-4.990671,0.503174,-0.245265,0.434514,-0.060407,0.006072,-0.003338,0.999994,0.002516,-0.001226,0.002173,-0.259407,0.307447,-0.580186,-0.708215,78.252840,47.432846,179.095435
46439,-5.874332,2.928916,-0.217453,1.895796,-0.826852,-3.579248,0.893349,-0.116081,0.527339,-0.058819,0.029144,-0.002078,0.999986,0.004467,-0.000580,0.002637,-0.259229,0.304289,-0.584007,-0.706501,78.756138,47.117014,179.084082
46440,-6.399436,5.224998,-0.621720,0.681462,-1.610656,-1.714483,1.005329,0.004990,0.600919,-0.064151,0.052088,-0.005953,0.999983,0.005027,0.000025,0.003005,-0.258602,0.301193,-0.588473,-0.704349,79.401772,46.773381,179.179730
46441,-6.847990,7.061930,-0.479822,-0.303517,-1.724399,-0.120961,1.038959,0.066721,0.646299,-0.068709,0.070421,-0.004409,0.999981,0.005195,0.000334,0.003231,-0.257674,0.298125,-0.593185,-0.702037,80.103383,46.409584,179.326330
46442,-6.892431,8.033358,0.133365,-0.981688,-1.195286,0.659414,0.909643,0.081550,0.631234,-0.069177,0.080108,0.001727,0.999985,0.004548,0.000408,0.003156,-0.256554,0.295311,-0.597419,-0.700044,80.732244,46.054694,179.475803
46443,-6.932834,8.138278,0.075283,-0.964331,-1.196615,0.767437,0.613258,0.090385,0.573592,-0.069561,0.081181,0.001033,0.999991,0.003066,0.000452,0.002868,-0.255164,0.293072,-0.600528,-0.698831,81.186564,45.732043,179.619387
46444,-7.028645,7.782659,0.097039,-0.594702,-1.071287,0.602656,0.398353,0.094668,0.502529,-0.070481,0.077647,0.001158,0.999995,0.001992,0.000473,0.002513,-0.253692,0.291333,-0.602778,-0.698157,81.510449,45.449554,179.753653
46445,-7.005489,7.360383,0.826139,-0.341620,-0.252716,0.373275,0.274120,0.088669,0.402996,-0.070199,0.073451,0.008393,0.999997,0.001371,0.000443,0.002015,-0.252401,0.290027,-0.604438,-0.697734,81.749388,45.222300,179.868907
46446,-6.915676,6.965057,0.867222,-0.096322,-0.136513,0.039352,0.008877,0.079502,0.300793,-0.069258,0.069546,0.008703,0.999999,0.000044,0.000398,0.001504,-0.251111,0.289332,-0.605009,-0.697994,81.821209,45.052261,179.963440
46447,-6.935046,6.511629,0.673792,0.281005,-0.260141,-0.283601,-0.134470,0.075512,0.247063,-0.069428,0.065035,0.006720,0.999999,-0.000672,0.000378,0.001235,-0.249810,0.288963,-0.604997,-0.698623,81.804161,44.912065,-179.951613
46448,-6.857248,6.302868,0.787361,0.382356,-0.122092,-0.474230,-0.170747,0.034017,0.213962,-0.068639,0.062962,0.007832,0.999999,-0.000854,0.000170,0.001070,-0.248699,0.288596,-0.604756,-0.699380,81.739695,44.787550,-179.903921
46449,-6.721277,6.199997,0.843074,0.370666,-0.062347,-0.637450,-0.239465,0.001649,0.176754,-0.067267,0.061951,0.008357,0.999999,-0.001197,0.000008,0.000884,-0.247714,0.288312,-0.604180,-0.700343,81.615029,44.681312,-179.885934
46450,-6.683951,6.258062,0.764028,0.328397,-0.165768,-0.631897,-0.319276,-0.012438,0.155279,-0.066889,0.062541,0.007536,0.999998,-0.001596,-0.000062,0.000776,-0.246733,0.288143,-0.603273,-0.701539,81.434857,44.586277,-179.881624
46451,-6.637551,6.287644,0.851971,0.281441,-0.105672,-0.635163,-0.391260,-0.021885,0.161729,-0.066427,0.062839,0.008389,0.999998,-0.001956,-0.000109,0.000809,-0.245652,0.288008,-0.602112,-0.702971,81.209422,44.486597,-179.883338
46452,-6.697451,6.206205,0.967288,0.385372,-0.004827,-0.638820,-0.420547,-0.025802,0.189140,-0.067034,0.062019,0.009534,0.999997,-0.002103,-0.000129,0.000946,-0.244445,0.287812,-0.600876,-0.704527,80.967443,44.371235,-179.884414
46453,-6.762005,6.169015,0.981496,0.475289,-0.012477,-0.619286,-0.449783,-0.041355,0.210582,-0.067687,0.061641,0.009662,0.999997,-0.002249,-0.000207,0.001053,-0.243164,0.287529,-0.599549,-0.706215,80.702964,44.242150,-179.894141
46454,-6.659321,6.085024,0.846487,0.496498,-0.162439,-0.767379,-0.489700,-0.056054,0.222357,-0.066663,0.060797,0.008297,0.999996,-0.002448,-0.000280,0.001112,-0.241828,0.287207,-0.598073,-0.708054,80.408834,44.105168,-179.913202
46455,-6.432233,5.948988,0.593735,0.479048,-0.419364,-1.054198,-0.488540,-0.033165,0.231992,-0.064392,0.059429,0.005781,0.999996,-0.002443,-0.000166,0.001160,-0.240387,0.286933,-0.596640,-0.709862,80.129869,43.964745,-179.911766
46456,-6.334522,5.771543,0.566528,0.555702,-0.439199,-1.253711,-0.360681,0.008975,0.234642,-0.063413,0.057651,0.005564,0.999998,-0.001803,0.000045,0.001173,-0.238995,0.286646,-0.595710,-0.711228,79.947461,43.827157,-179.876406
46457,-6.319799,5.634359,0.625845,0.651870,-0.369333,-1.355964,-0.187831,0.018625,0.216933,-0.063258,0.056281,0.006211,0.999999,-0.000939,0.000093,0.001085,-0.237883,0.286239,-0.595381,-0.712040,79.868168,43.700479,-179.835336
46458,-6.176732,5.567643,0.844127,0.583718,-0.144725,-1.475930,-0.037051,0.069612,0.180966,-0.061815,0.055622,0.008452,1.000000,-0.000185,0.000348,0.000905,-0.236963,0.285940,-0.595594,-0.712288,79.898806,43.599339,-179.759803
46459,-6.362927,5.992654,1.396784,0.373690,0.335226,-0.975398,0.163391,0.120566,0.128167,-0.063659,0.059874,0.014055,0.999999,0.000817,0.000603,0.000641,-0.236366,0.285742,-0.596508,-0.711801,80.066741,43.532881,-179.651968
46460,-6.481847,6.609185,1.420763,0.046495,0.269754,-0.451103,0.160647,0.135571,0.060584,-0.064829,0.066061,0.014305,0.999999,0.000803,0.000678,0.000303,-0.235960,0.285802,-0.597330,-0.711222,80.234121,43.505910,-179.542173
46461,-6.766669,6.923239,1.541682,0.026199,0.354123,-0.016274,0.096720,0.163683,-0.006218,-0.067652,0.069227,0.015506,1.000000,0.000484,0.000818,-0.000031,-0.235616,0.286236,-0.597864,-0.710712,80.374151,43.519115,-179.419231
46462,-6.829260,7.139690,1.857234,-0.121013,0.642877,0.219028,0.050314,0.162330,-0.083078,-0.068248,0.071421,0.018646,1.000000,0.000252,0.000812,-0.000415,-0.235484,0.286950,-0.598119,-0.710254,80.479622,43.575476,-179.307594
46463,-6.762457,6.965777,1.707410,-0.047465,0.532426,0.030196,-0.099370,0.169895,-0.170509,-0.067551,0.069724,0.017097,0.999999,-0.000497,0.000849,-0.000853,-0.235423,0.288128,-0.597727,-0.710127,80.496138,43.681807,-179.201026
46464,-6.549330,6.658717,1.557481,0.002617,0.432721,-0.353795,-0.259348,0.194138,-0.262608,-0.065391,0.066693,0.015552,0.999998,-0.001297,0.000971,-0.001313,-0.235386,0.289855,-0.596660,-0.710334,80.425685,43.842581,-179.087659
46465,-6.601397,6.713152,1.630602,-0.037356,0.483137,-0.269691,-0.355468,0.195990,-0.326121,-0.065888,0.067268,0.016251,0.999997,-0.001777,0.000980,-0.001631,-0.235428,0.291890,-0.595159,-0.710746,80.295827,44.039505,-178.981119
46466,-6.300010,7.049432,1.389422,-0.485376,0.156431,-0.270421,-0.567955,0.193772,-0.345332,-0.062865,0.070642,0.013755,0.999994,-0.002840,0.000969,-0.001727,-0.235234,0.294222,-0.592865,-0.711765,80.040753,44.247360,-178.879735
46467,-6.300715,7.456748,1.316344,-0.788148,-0.030968,0.006296,-0.718544,0.214633,-0.347186,-0.062864,0.074723,0.012963,0.999991,-0.003593,0.001073,-0.001736,-0.234759,0.296805,-0.590051,-0.713186,79.710502,44.458645,-178.763118
46468,-7.136365,7.220385,1.910829,-0.155603,0.563527,0.500935,-0.742912,0.183302,-0.369901,-0.071212,0.072406,0.018905,0.999991,-0.003715,0.000917,-0.001850,-0.234417,0.299368,-0.587068,-0.714688,79.345618,44.680052,-178.676133
46469,-7.950503,6.012958,2.604104,1.095456,1.446279,0.329067,-0.805027,0.069907,-0.530024,-0.079336,0.060444,0.025826,0.999988,-0.004025,0.000350,-0.002650,-0.234882,0.302062,-0.583479,-0.716339,78.863687,44.979616,-178.705299
46470,-7.853001,4.141059,2.196799,2.315495,1.383846,-1.073886,-0.925459,0.055999,-0.755246,-0.078367,0.041808,0.021797,0.999982,-0.004627,0.000280,-0.003776,-0.236007,0.305496,-0.579084,-0.718077,78.275793,45.403981,-178.786166
46471,-7.135556,3.076306,1.466758,2.600161,0.851001,-2.393415,-0.732281,0.096953,-0.899011,-0.071209,0.031137,0.014589,0.999983,-0.003661,0.000485,-0.004495,-0.237816,0.309255,-0.575192,-0.718999,77.799759,45.913239,-178.864830
46472,-6.478569,3.496494,1.570419,1.766663,0.822869,-2.541859,-0.375765,0.140813,-0.834437,-0.064628,0.035264,0.015684,0.999989,-0.001879,0.000704,-0.004172,-0.239811,0.312553,-0.572717,-0.718885,77.557342,46.391364,-178.902059
46473,-6.544651,4.709677,2.704441,0.703269,1.639213,-1.497301,0.013762,0.111434,-0.659871,-0.065276,0.047310,0.027084,0.999994,0.000069,0.000557,-0.003299,-0.241869,0.314775,-0.571871,-0.717899,77.542064,46.768259,-178.933646
46474,-6.631013,6.079639,3.131136,-0.332318,1.738027,-0.452934,0.012822,0.043928,-0.536379,-0.066140,0.060972,0.031330,0.999996,0.000064,0.000220,-0.002682,-0.243672,0.316399,-0.571130,-0.717166,77.501666,47.067578,-178.998647
46475,-6.739558,6.612928,2.195288,-0.522508,0.694269,-0.157820,-0.206970,0.066608,-0.528334,-0.067213,0.066330,0.021907,0.999996,-0.001035,0.000333,-0.002642,-0.245033,0.318348,-0.569635,-0.717029,77.348963,47.365312,-179.044637
46476,-7.015272,7.115081,1.285721,-0.585226,-0.322251,0.239421,-0.209762,0.091060,-0.545706,-0.069952,0.071355,0.012814,0.999996,-0.001049,0.000455,-0.002729,-0.246379,0.320434,-0.568129,-0.716833,77.206110,47.675598,-179.075008
46477,-7.870887,7.265908,1.506674,-0.212717,-0.147809,1.001514,-0.134351,0.130156,-0.529815,-0.078506,0.072877,0.015069,0.999996,-0.000672,0.000651,-0.002649,-0.247677,0.322519,-0.566961,-0.716375,77.131824,47.982072,-179.070942
46478,-8.670383,6.876824,2.770790,0.312567,1.170672,1.530813,-0.041497,0.068834,-0.581455,-0.086494,0.069026,0.027723,0.999996,-0.000207,0.000344,-0.002907,-0.249480,0.324414,-0.565963,-0.715682,77.064837,48.309415,-179.128593
46479,-7.989572,7.412062,2.187424,-0.489342,0.452774,1.282888,-0.132150,-0.035900,-0.678294,-0.079648,0.074405,0.021811,0.999994,-0.000661,-0.000179,-0.003391,-0.251778,0.326318,-0.564346,-0.715289,76.864170,48.677311,-179.294993
46480,-7.321451,8.090285,2.217832,-1.498861,0.289252,1.216566,-0.197680,0.001059,-0.634296,-0.072957,0.081156,0.022099,0.999994,-0.000988,0.000005,-0.003171,-0.253704,0.328308,-0.562608,-0.715067,76.653206,49.024997,-179.424383
46481,-7.557763,8.153770,2.138728,-1.437869,0.158901,1.416056,-0.429367,-0.066028,-0.552155,-0.075359,0.081792,0.021187,0.999994,-0.002147,-0.000330,-0.002761,-0.255142,0.330118,-0.560084,-0.715703,76.275667,49.317578,-179.597748
46482,-7.791265,7.493695,1.872509,-0.804422,0.004343,1.128881,-0.559197,-0.126255,-0.516919,-0.077730,0.075190,0.018466,0.999993,-0.002796,-0.000631,-0.002585,-0.256404,0.331774,-0.557070,-0.716837,75.786578,49.581283,-179.819404
46483,-7.612550,6.980827,1.314040,-0.482799,-0.479203,0.577029,-0.770097,-0.146862,-0.501436,-0.075960,0.070049,0.012815,0.999989,-0.003850,-0.000734,-0.002507,-0.257314,0.333578,-0.553288,-0.718601,75.160983,49.832018,179.939461
46484,-7.056295,6.666395,0.972438,-0.581252,-0.799119,-0.106975,-0.713289,-0.134966,-0.438224,-0.070423,0.066852,0.009439,0.999991,-0.003566,-0.000675,-0.002191,-0.258053,0.335170,-0.549822,-0.720254,74.582612,50.047925,179.718108
46485,-6.794338,6.834457,0.041549,-0.713761,-1.805251,-0.373101,-0.809455,-0.069935,-0.314507,-0.067836,0.068452,0.000115,0.999991,-0.004047,-0.000350,-0.001573,-0.258002,0.336775,-0.546289,-0.722209,74.011149,50.204247,179.578380
46486,-6.917873,5.900528,0.030713,0.045946,-1.613301,-0.864549,-0.529384,-0.007576,-0.194293,-0.069121,0.059073,0.000148,0.999996,-0.002647,-0.000038,-0.000971,-0.257815,0.337910,-0.544044,-0.723440,73.662678,50.303625,179.520001
46487,-7.528109,5.108393,0.458161,0.922298,-1.006356,-0.806322,-0.046777,0.039187,-0.145313,-0.075243,0.051140,0.004584,1.000000,-0.000234,0.000196,-0.000727,-0.258137,0.338458,-0.543685,-0.723339,73.630658,50.383433,179.513698
46488,-7.957749,3.962341,0.290499,2.067086,-0.849727,-1.203658,0.311901,0.042252,-0.165405,-0.079544,0.039685,0.002984,0.999998,0.001560,0.000211,-0.000827,-0.259130,0.338607,-0.544592,-0.722230,73.802452,50.474850,179.505080
46489,-7.645887,3.043803,1.013284,2.387347,0.119062,-1.873079,0.953033,0.062787,-0.180430,-0.076428,0.030458,0.010302,0.999988,0.004765,0.000314,-0.000902,-0.261204,0.338038,-0.547809,-0.719311,74.353201,50.577850,179.511555
46490,-7.152121,4.302011,1.731762,0.980020,0.536448,-1.362217,1.527230,0.115242,-0.177191,-0.071473,0.042949,0.017687,0.999970,0.007636,0.000576,-0.000886,-0.264082,0.336883,-0.553142,-0.714705,75.270444,50.686827,179.566496
46491,-7.193614,6.231428,1.652578,-0.434862,0.074611,-0.163127,1.631847,0.157583,-0.074568,-0.071900,0.062203,0.017090,0.999966,0.008159,0.000788,-0.000373,-0.266637,0.335437,-0.559044,-0.709829,76.296526,50.744246,179.684415
46492,-7.389825,7.774835,1.834831,-1.505373,0.019633,0.964881,1.688467,0.065448,0.091381,-0.073928,0.077556,0.019028,0.999964,0.008442,0.000327,0.000457,-0.268936,0.333101,-0.565262,-0.705121,77.319873,50.695615,179.757014
46493,-7.430334,8.711320,1.918724,-2.179936,0.036812,1.590091,1.515261,-0.051681,0.266977,-0.074424,0.086865,0.019827,0.999970,0.007576,-0.000258,0.001335,-0.270641,0.330068,-0.570968,-0.701288,78.188964,50.533787,179.758546
46494,-7.234068,8.794057,2.469489,-2.406664,0.692385,1.566788,1.437427,-0.096523,0.412637,-0.072534,0.087611,0.025290,0.999972,0.007187,-0.000483,0.002063,-0.271819,0.326547,-0.576547,-0.697907,79.000014,50.284965,179.742627
46495,-7.681922,9.314370,3.449051,-2.585715,1.690777,2.357710,1.324038,0.058632,0.515374,-0.077048,0.092714,0.035128,0.999975,0.006620,0.000293,0.002577,-0.271991,0.323408,-0.582078,-0.694704,79.859313,49.994744,179.874368
46496,-8.752518,9.904144,2.014156,-2.078802,0.307344,3.391019,1.117294,0.082260,0.513473,-0.087770,0.098702,0.020730,0.999981,0.005586,0.000411,0.002567,-0.271755,0.320623,-0.586895,-0.692029,80.610034,49.706750,-179.980641
46497,-9.105828,10.841134,0.865930,-2.345372,-0.864157,4.149667,0.887586,-0.013873,0.496243,-0.091327,0.108145,0.009133,0.999987,0.004438,-0.000069,0.002481,-0.271483,0.317858,-0.590739,-0.690139,81.158342,49.418611,-179.927807
46498,-8.711694,11.440590,0.990733,-3.001908,-0.749330,4.265259,0.550372,-0.015628,0.468214,-0.087385,0.114174,0.010215,0.999993,0.002752,-0.000078,0.002341,-0.270772,0.315621,-0.593361,-0.689194,81.506642,49.146060,-179.883966
46499,-8.353803,11.544846,1.569450,-3.316759,-0.149344,4.133965,0.203348,-0.101436,0.424617,-0.083791,0.115255,0.015769,0.999997,0.001017,-0.000507,0.002123,-0.269914,0.313682,-0.594598,-0.689350,81.594351,48.890475,-179.921708
46500,-7.984501,11.303641,1.595910,-3.322239,-0.106180,3.715889,-0.382641,-0.215924,0.398263,-0.080087,0.112907,0.015657,0.999996,-0.001913,-0.001080,0.001991,-0.268568,0.312218,-0.593614,-0.691385,81.270649,48.640410,179.939737
46501,-7.730481,10.157497,1.210041,-2.535062,-0.397644,2.749689,-0.942865,-0.240279,0.437130,-0.077541,0.101461,0.011529,0.999986,-0.004714,-0.001201,0.002186,-0.266278,0.311296,-0.590712,-0.695162,80.617731,48.364750,179.789590
46502,-7.546792,8.388130,0.844824,-1.246043,-0.584771,1.418191,-1.196957,-0.216291,0.471503,-0.075674,0.083751,0.007865,0.999979,-0.005985,-0.001081,0.002357,-0.263395,0.310688,-0.586989,-0.699672,79.843076,48.071435,179.670803
46503,-7.470060,5.869291,0.636295,0.632895,-0.452336,-0.323255,-1.234729,-0.186017,0.473155,-0.074845,0.058553,0.005932,0.999978,-0.006174,-0.000930,0.002366,-0.260343,0.310212,-0.583153,-0.704218,79.071189,47.778562,179.584308
46504,-7.399389,3.854468,0.333754,2.139799,-0.441582,-1.753827,-0.989770,-0.194178,0.435558,-0.074081,0.038399,0.003075,0.999985,-0.004949,-0.000971,0.002178,-0.257822,0.309491,-0.580086,-0.707986,78.434562,47.505973,179.490582
46505,-7.187093,2.426989,-0.200512,3.141818,-0.720182,-2.942829,-0.536282,-0.171158,0.423361,-0.071920,0.024112,-0.002131,0.999994,-0.002681,-0.000856,0.002117,-0.255970,0.308291,-0.578626,-0.710372,78.073736,47.241710,179.417867
46506,-6.945361,2.185970,-0.258629,3.191685,-0.737907,-3.304850,0.084762,-0.139774,0.447570,-0.069500,0.021705,-0.002626,0.999997,0.000424,-0.000699,0.002238,-0.254899,0.306339,-0.579441,-0.710937,78.091856,46.968103,179.376677
46507,-6.611169,2.834070,-0.116263,2.509429,-0.717732,-3.108916,0.526346,-0.072408,0.481808,-0.066179,0.028184,-0.001112,0.999994,0.002632,-0.000362,0.002409,-0.254184,0.303958,-0.581960,-0.710157,78.407146,46.682682,179.395588
46508,-6.486620,3.972134,0.287097,1.589381,-0.516478,-2.386825,0.726240,-0.011635,0.515960,-0.064969,0.039543,0.003011,0.999990,0.003631,-0.000058,0.002580,-0.253471,0.301439,-0.585307,-0.708733,78.874677,46.385406,179.466814
46509,-6.564292,5.297464,0.278946,0.739855,-0.731719,-1.437263,0.733481,0.028962,0.549807,-0.065788,0.052783,0.002993,0.999989,0.003667,0.000145,0.002749,-0.252524,0.298947,-0.588771,-0.707256,79.371107,46.072786,179.572494
46510,-6.653654,6.507478,0.259781,-0.007236,-0.918130,-0.547570,0.649390,0.070067,0.588676,-0.066727,0.064870,0.002832,0.999990,0.003247,0.000350,0.002943,-0.251190,0.296587,-0.592034,-0.705999,79.843589,45.742190,179.712669
46511,-6.815310,7.257894,0.559328,-0.406192,-0.701447,0.126166,0.531463,0.084548,0.611631,-0.068372,0.072355,0.005815,0.999992,0.002657,0.000423,0.003058,-0.249550,0.294352,-0.594925,-0.705085,80.255771,45.399024,179.863415
46512,-6.987862,7.457181,0.864476,-0.403127,-0.390913,0.427985,0.335492,0.065866,0.578346,-0.070091,0.074355,0.008793,0.999994,0.001677,0.000329,0.002892,-0.247793,0.292392,-0.597042,-0.704731,80.538077,45.072549,179.990669
46513,-7.011190,7.039929,0.935759,-0.050485,-0.223857,0.164293,0.160772,0.053633,0.486947,-0.070280,0.070221,0.009433,0.999997,0.000804,0.000268,0.002435,-0.246136,0.290873,-0.598392,-0.704796,80.703046,44.795918,-179.906201
46514,-6.902558,6.327150,1.153865,0.385254,0.123847,-0.386891,0.085469,0.050165,0.396440,-0.069148,0.063130,0.011583,0.999998,0.000427,0.000251,0.001982,-0.244698,0.289706,-0.599334,-0.704977,80.812999,44.570312,-179.819094
46515,-6.728723,5.927362,1.029345,0.585208,0.074594,-0.805979,-0.004967,0.041143,0.313386,-0.067378,0.059168,0.010306,0.999999,-0.000025,0.000206,0.001567,-0.243447,0.288864,-0.599827,-0.705336,80.858402,44.390416,-179.750406
46516,-6.608787,5.554151,1.272680,0.754032,0.379456,-1.127540,-0.022049,0.041242,0.256498,-0.066156,0.055458,0.012734,0.999999,-0.000110,0.000206,0.001282,-0.242372,0.288215,-0.600174,-0.705677,80.888184,44.243040,-179.689310
46517,-6.510332,5.710195,1.490145,0.569984,0.570632,-1.062787,-0.029032,0.011116,0.178849,-0.065154,0.057046,0.014897,1.000000,-0.000145,0.000056,0.000894,-0.241650,0.287699,-0.600348,-0.705986,80.890694,44.136613,-179.661798
46518,-6.529028,6.152484,1.020106,0.346910,0.031311,-0.790462,-0.161823,0.019087,0.097196,-0.065319,0.061501,0.010158,1.000000,-0.000809,0.000095,0.000486,-0.241002,0.287618,-0.599944,-0.706584,80.813918,44.077348,-179.638506
46519,-6.650628,6.699170,1.181173,0.047988,0.091724,-0.299845,-0.187813,0.028227,0.053808,-0.066523,0.066985,0.011758,1.000000,-0.000939,0.000141,0.000269,-0.240442,0.287729,-0.599397,-0.707193,80.723731,44.043202,-179.613388
46520,-6.678624,7.026686,1.701391,-0.213832,0.537690,0.012699,-0.218082,0.010812,0.028100,-0.066795,0.070276,0.016941,0.999999,-0.001090,0.000054,0.000141,-0.239982,0.287893,-0.598683,-0.707887,80.604136,44.022287,-179.605295
46521,-6.603383,6.911621,1.653685,-0.180919,0.487396,-0.125609,-0.410930,-0.003366,0.023430,-0.066042,0.069142,0.016394,0.999998,-0.002055,-0.000017,0.000117,-0.239301,0.288251,-0.597263,-0.709171,80.366227,44.002490,-179.608672
46522,-6.497350,6.328999,1.322876,0.184173,0.229431,-0.651076,-0.516450,-0.010134,0.020904,-0.064981,0.063317,0.013062,0.999997,-0.002582,-0.000051,0.000105,-0.238497,0.288718,-0.595452,-0.710773,80.063735,43.983646,-179.617769
46523,-6.434461,5.690695,0.994178,0.619796,-0.012555,-1.187705,-0.481641,-0.010275,0.035470,-0.064355,0.056919,0.009801,0.999997,-0.002408,-0.000051,0.000177,-0.237690,0.289096,-0.593783,-0.712284,79.782872,43.956330,-179.624665
46524,-6.487277,5.167293,1.176400,0.995908,0.240213,-1.498841,-0.268477,-0.021613,0.052641,-0.064888,0.051672,0.011688,0.999999,-0.001342,-0.000108,0.000263,-0.237163,0.289130,-0.592881,-0.713197,79.619530,43.918360,-179.637990
46525,-6.533500,5.160675,1.508881,0.995444,0.556972,-1.428489,-0.078818,-0.056897,0.045655,-0.065351,0.051598,0.015050,1.000000,-0.000394,-0.000284,0.000228,-0.237039,0.288833,-0.592604,-0.713588,79.545350,43.880485,-179.679670
46526,-6.495165,5.489163,1.379425,0.765853,0.363197,-1.239330,0.010494,-0.062076,0.020269,-0.064961,0.054884,0.013777,1.000000,0.000052,-0.000310,0.000101,-0.237151,0.288487,-0.592601,-0.713693,79.516823,43.856513,-179.729121
46527,-6.517246,6.006226,1.175998,0.458990,0.066448,-0.884243,0.060824,-0.035280,-0.005271,-0.065173,0.060060,0.011767,1.000000,0.000304,-0.000176,-0.000026,-0.237347,0.288252,-0.592774,-0.713580,79.529304,43.849621,-179.761183
46528,-6.671529,6.820981,1.215193,0.010415,-0.042132,-0.194481,0.079174,-0.003253,-0.028700,-0.066706,0.068215,0.012178,1.000000,0.000396,-0.000016,-0.000144,-0.237558,0.288180,-0.593016,-0.713338,79.567092,43.859366,-179.771728
46529,-6.842951,7.516164,1.178214,-0.337935,-0.203274,0.412349,-0.031581,0.056796,-0.054354,-0.068406,0.075182,0.011790,1.000000,-0.000158,0.000284,-0.000272,-0.237522,0.288529,-0.592897,-0.713307,79.571576,43.889716,-179.738887
46530,-7.096433,8.127723,1.332293,-0.600457,-0.167829,1.041137,-0.168577,0.098538,-0.108255,-0.070914,0.081327,0.013289,0.999999,-0.000843,0.000493,-0.000541,-0.237358,0.289350,-0.592261,-0.713558,79.514663,43.954870,-179.681304
46531,-7.172707,8.330727,1.187683,-0.679775,-0.361882,1.217553,-0.307579,0.116078,-0.164264,-0.071652,0.083384,0.011790,0.999998,-0.001538,0.000580,-0.000821,-0.237139,0.290563,-0.591068,-0.714127,79.382192,44.053352,-179.618129
46532,-7.164900,8.424427,1.076603,-0.754644,-0.518856,1.261018,-0.492363,0.075077,-0.224729,-0.071550,0.084351,0.010585,0.999996,-0.002462,0.000375,-0.001124,-0.236988,0.292026,-0.589074,-0.715226,79.114834,44.181774,-179.596561
46533,-6.905645,7.954332,1.407305,-0.690199,-0.154930,0.791043,-0.743579,0.054688,-0.273418,-0.068944,0.079689,0.013796,0.999992,-0.003718,0.000273,-0.001367,-0.236701,0.293853,-0.586082,-0.717029,78.686719,44.335270,-179.599374
46534,-6.954728,7.083705,2.100617,-0.192493,0.639391,0.312203,-0.781700,0.053319,-0.361174,-0.069414,0.071044,0.020747,0.999991,-0.003908,0.000267,-0.001806,-0.236674,0.295974,-0.582811,-0.718830,78.224690,44.537994,-179.619196
46535,-6.903384,6.521272,2.102309,0.109792,0.691289,-0.111514,-1.004065,0.037326,-0.527607,-0.068857,0.065499,0.020708,0.999984,-0.005020,0.000187,-0.002638,-0.236955,0.298777,-0.578462,-0.721087,77.604864,44.831737,-179.682300
46536,-6.675689,5.007438,1.234982,1.070861,0.102303,-1.445695,-1.213006,0.035031,-0.664202,-0.066588,0.050369,0.012057,0.999976,-0.006065,0.000175,-0.003321,-0.237415,0.302203,-0.573129,-0.723761,76.842429,45.201115,-179.777254
46537,-6.228569,3.822094,0.965711,1.566480,0.049056,-2.609957,-1.246655,0.072931,-0.696896,-0.062148,0.038497,0.009440,0.999974,-0.006233,0.000365,-0.003484,-0.237821,0.305885,-0.567642,-0.726401,76.071905,45.592772,-179.855843
46538,-6.142286,2.734908,0.875503,2.229035,0.182693,-3.411774,-0.914284,0.120810,-0.651207,-0.061328,0.027589,0.008666,0.999984,-0.004571,0.000604,-0.003256,-0.238424,0.309204,-0.563465,-0.728048,75.520215,45.965206,-179.894317
46539,-6.358810,2.855715,1.026987,2.226452,0.280250,-3.133729,-0.347862,0.184539,-0.578138,-0.063496,0.028759,0.010279,0.999994,-0.001739,0.000923,-0.002891,-0.239453,0.311865,-0.561528,-0.728072,75.338134,46.306007,-179.870251
46540,-6.643934,3.662540,1.466115,1.736117,0.498535,-2.299849,-0.021440,0.255628,-0.537554,-0.066322,0.036805,0.014742,0.999996,-0.000107,0.001278,-0.002688,-0.240641,0.314279,-0.560920,-0.727110,75.390377,46.634740,-179.780880
46541,-6.989253,4.818334,1.977054,1.020027,0.717613,-1.186040,0.458594,0.258598,-0.534378,-0.069738,0.048324,0.019971,0.999993,0.002293,0.001293,-0.002672,-0.242561,0.316113,-0.562062,-0.724792,75.722070,46.961995,-179.686223
46542,-6.895178,6.486843,1.969220,-0.272662,0.330293,-0.152637,0.567545,0.251809,-0.522979,-0.068757,0.064992,0.019963,0.999992,0.002838,0.001259,-0.002615,-0.244627,0.317754,-0.563598,-0.722182,76.116599,47.281484,-179.591220
46543,-7.366829,7.255529,2.642682,-0.675482,0.848635,0.804265,0.613673,0.264862,-0.472876,-0.073461,0.072647,0.026747,0.999992,0.003068,0.001324,-0.002364,-0.246545,0.319241,-0.565387,-0.719470,76.556304,47.574590,-179.471281
46544,-8.036646,7.699269,3.461056,-0.740184,1.592017,1.709576,0.520116,0.139045,-0.477967,-0.080158,0.077094,0.034867,0.999994,0.002601,0.000695,-0.002390,-0.248684,0.320399,-0.566669,-0.717208,76.867350,47.853205,-179.453289
46545,-7.942468,7.630146,2.771896,-0.684718,0.965595,1.482614,0.251455,0.026717,-0.541614,-0.079214,0.076481,0.027826,0.999996,0.001257,0.000134,-0.002708,-0.250937,0.321665,-0.566738,-0.715800,76.946822,48.152808,-179.539800
46546,-7.387194,8.362948,2.547175,-1.604741,0.573686,1.505130,-0.042326,0.015101,-0.562116,-0.073635,0.083842,0.025460,0.999996,-0.000212,0.000076,-0.002811,-0.252821,0.323313,-0.565705,-0.715212,76.846981,48.462242,-179.640668
46547,-7.667354,8.936905,2.085353,-1.815024,-0.045034,2.007140,-0.587100,0.023731,-0.523843,-0.076437,0.089630,0.020600,0.999992,-0.002935,0.000119,-0.002619,-0.253660,0.325571,-0.562788,-0.716191,76.443731,48.751320,-179.729127
46548,-7.577513,8.367599,1.749887,-1.452418,-0.312107,1.513817,-0.919769,-0.035963,-0.489370,-0.075573,0.083940,0.017100,0.999986,-0.004599,-0.000180,-0.002447,-0.253996,0.327931,-0.558650,-0.718232,75.813776,49.012347,-179.865445
46549,-7.230191,8.396299,1.027336,-1.609159,-1.111790,1.141882,-0.990066,-0.023522,-0.437527,-0.072119,0.084170,0.009849,0.999985,-0.004950,-0.000118,-0.002188,-0.253989,0.330271,-0.554343,-0.720496,75.155654,49.245347,-179.984945
46550,-7.796123,7.447209,1.517988,-0.676960,-0.479978,1.043438,-0.993489,0.060845,-0.376294,-0.077816,0.074693,0.014833,0.999986,-0.004967,0.000304,-0.001881,-0.253515,0.332740,-0.550218,-0.722685,74.557094,49.456271,179.976750
46551,-8.430399,5.624172,1.448034,1.046551,-0.133070,0.369959,-0.909171,0.011492,-0.429748,-0.084182,0.056488,0.014229,0.999987,-0.004546,0.000057,-0.002149,-0.253503,0.335061,-0.546231,-0.724639,73.962290,49.688512,179.880050
46552,-7.661705,4.036605,0.445549,1.885066,-0.705416,-1.378047,-0.468912,-0.003201,-0.468758,-0.076522,0.040556,0.004359,0.999995,-0.002345,-0.000016,-0.002344,-0.254406,0.336872,-0.543746,-0.725352,73.599895,49.939552,179.757715
46553,-7.028555,3.342786,0.120888,2.022561,-0.834180,-2.342567,0.338168,0.029217,-0.429139,-0.070213,0.033576,0.001276,0.999996,0.001691,0.000146,-0.002146,-0.256433,0.337664,-0.544290,-0.723860,73.727278,50.173848,179.671775
46554,-6.690529,3.341105,0.572916,1.683153,-0.381762,-2.513679,0.933656,0.044303,-0.325705,-0.066850,0.033493,0.005900,0.999988,0.004668,0.000222,-0.001629,-0.259047,0.337460,-0.547175,-0.720843,74.226713,50.353889,179.625946
46555,-6.855601,3.649968,1.897505,1.274454,0.852010,-1.965927,1.363021,0.026850,-0.205084,-0.068516,0.036439,0.019233,0.999976,0.006815,0.000134,-0.001025,-0.261989,0.336296,-0.551768,-0.716811,74.984852,50.465044,179.596882
46556,-6.740077,5.401324,2.096602,-0.149386,0.664249,-0.950709,1.336521,0.003804,-0.126825,-0.067366,0.053914,0.021328,0.999977,0.006683,0.000019,-0.000634,-0.264658,0.334852,-0.556343,-0.712961,75.727795,50.529624,179.567646
46557,-6.913011,7.480218,2.042281,-1.590892,0.192682,0.451111,1.118818,0.073138,-0.033032,-0.069110,0.074698,0.020866,0.999984,0.005594,0.000366,-0.000165,-0.266425,0.333672,-0.560368,-0.709697,76.409356,50.552116,179.620902
46558,-7.283956,8.702203,1.792996,-2.224553,-0.248219,1.456226,0.893958,-0.043822,0.119150,-0.072895,0.086897,0.018303,0.999990,0.004470,-0.000219,0.000596,-0.267598,0.331938,-0.563680,-0.707442,76.907748,50.473676,179.603360
46559,-6.989257,8.999929,1.553949,-2.567962,-0.454227,1.388266,1.163827,-0.088441,0.387844,-0.070074,0.089771,0.016031,0.999981,0.005819,-0.000442,0.001939,-0.268386,0.328920,-0.568317,-0.704838,77.571106,50.239692,179.599058
46560,-7.997173,9.275759,2.589117,-2.234820,0.618591,2.488482,1.328249,0.051069,0.598244,-0.080242,0.092343,0.026526,0.999973,0.006641,0.000255,0.002991,-0.268294,0.325558,-0.574040,-0.701789,78.448013,49.904322,179.750513
46561,-9.107608,9.289964,2.294794,-1.408118,0.465866,3.314232,1.396603,0.001319,0.558597,-0.091335,0.092482,0.023595,0.999972,0.006983,0.000007,0.002793,-0.268580,0.322026,-0.579841,-0.698533,79.318508,49.584187,179.843046
46562,-9.236145,10.128356,1.420436,-1.766447,-0.406997,3.848198,1.273641,0.025864,0.403062,-0.092563,0.101004,0.014860,0.999978,0.006368,0.000129,0.002015,-0.269127,0.319180,-0.584965,-0.695350,80.109982,49.353529,179.924618
46563,-9.156646,10.513305,1.690390,-2.097790,-0.080724,4.073376,1.036269,-0.000385,0.244948,-0.091695,0.104931,0.017448,0.999986,0.005181,-0.000002,0.001225,-0.269910,0.317012,-0.588953,-0.692666,80.726702,49.208851,179.955742
46564,-8.513771,11.214147,2.472674,-3.099712,0.664164,4.126674,0.612545,-0.191338,0.212330,-0.085280,0.111975,0.024988,0.999994,0.003063,-0.000957,0.001062,-0.270693,0.314845,-0.591153,-0.691473,80.971267,49.065285,179.815413
46565,-7.574892,11.030003,2.090251,-3.490709,0.330125,3.268399,-0.110965,-0.268789,0.302698,-0.075944,0.110197,0.020739,0.999998,-0.000555,-0.001344,0.001513,-0.270249,0.313121,-0.590884,-0.692659,80.760822,48.863421,179.621549
46566,-7.572397,10.307593,1.173050,-2.798182,-0.514475,2.712028,-0.575917,-0.226298,0.401728,-0.075944,0.102957,0.011348,0.999993,-0.002880,-0.001131,0.002009,-0.268609,0.311875,-0.589213,-0.695278,80.324616,48.609033,179.480585
46567,-7.913306,9.039133,0.898700,-1.542642,-0.661007,2.116959,-0.850942,-0.154960,0.436781,-0.079337,0.090255,0.008541,0.999988,-0.004255,-0.000775,0.002184,-0.266198,0.311134,-0.586724,-0.698634,79.783176,48.340359,179.409474
46568,-7.975573,7.287992,1.023591,-0.171298,-0.321868,1.033449,-0.975927,-0.138277,0.420524,-0.079916,0.072761,0.009825,0.999986,-0.004880,-0.000691,0.002103,-0.263598,0.310660,-0.583781,-0.702286,79.182679,48.082913,179.354404
46569,-7.791418,5.222448,0.577984,1.323120,-0.454638,-0.519869,-0.881917,-0.185474,0.391087,-0.078021,0.052097,0.005478,0.999988,-0.004410,-0.000927,0.001955,-0.261375,0.309972,-0.581046,-0.705681,78.606392,47.835875,179.259242
46570,-7.314589,3.593678,-0.033274,2.310824,-0.788360,-2.037263,-0.593760,-0.227540,0.372170,-0.073212,0.035799,-0.000522,0.999993,-0.002969,-0.001138,0.001861,-0.259786,0.308811,-0.579231,-0.708265,78.169769,47.594617,179.129272
46571,-6.936731,2.925818,-0.307046,2.611036,-0.946451,-2.808435,-0.202913,-0.184635,0.391668,-0.069422,0.029119,-0.003164,0.999997,-0.001015,-0.000923,0.001958,-0.258601,0.307230,-0.578883,-0.709669,77.988243,47.346307,179.040771
46572,-6.647931,3.238248,-0.070182,2.188225,-0.778405,-2.791873,0.137919,-0.130478,0.430407,-0.066548,0.032240,-0.000723,0.999997,0.000690,-0.000652,0.002152,-0.257648,0.305291,-0.579867,-0.710049,78.040480,47.083392,179.004642
46573,-6.546737,3.996503,0.167034,1.574751,-0.684802,-2.335335,0.351740,-0.084827,0.471167,-0.065562,0.039808,0.001713,0.999996,0.001759,-0.000424,0.002356,-0.256739,0.303113,-0.581730,-0.709787,78.247508,46.802390,179.012234
46574,-6.647984,5.075483,0.065705,0.922030,-0.973718,-1.556654,0.387525,-0.042032,0.520047,-0.066612,0.050580,0.000741,0.999995,0.001938,-0.000210,0.002600,-0.255587,0.300901,-0.583841,-0.709411,78.505063,46.499539,179.061449
46575,-6.774338,5.847620,0.156112,0.490765,-1.005687,-0.932475,0.400327,-0.013030,0.553419,-0.067905,0.058285,0.001673,0.999994,0.002002,-0.000065,0.002767,-0.254245,0.298671,-0.586079,-0.708990,78.789172,46.180535,179.137357
46576,-6.758793,6.171766,0.478037,0.257150,-0.719058,-0.679393,0.397357,0.004370,0.540367,-0.067754,0.061525,0.004904,0.999994,0.001987,0.000022,0.002702,-0.252894,0.296545,-0.588301,-0.708525,79.077893,45.871047,179.222565
46577,-6.892423,6.135542,0.376433,0.434325,-0.784842,-0.620993,0.324697,0.027166,0.488580,-0.069073,0.061181,0.003873,0.999996,0.001623,0.000136,0.002443,-0.251546,0.294740,-0.590213,-0.708167,79.330680,45.592620,179.315943
46578,-6.998228,5.857775,0.484607,0.732682,-0.603884,-0.723029,0.312409,0.034101,0.446591,-0.070112,0.058414,0.004949,0.999996,0.001562,0.000171,0.002233,-0.250309,0.293098,-0.592022,-0.707778,79.573716,45.338550,179.406157
46579,-6.869350,5.801730,1.103722,0.647100,0.043371,-0.776901,0.365225,0.031775,0.421836,-0.068814,0.057852,0.011154,0.999996,0.001826,0.000159,0.002109,-0.249240,0.291449,-0.593978,-0.707197,79.841925,45.097554,179.489046
46580,-6.675620,5.846539,1.204112,0.504335,0.162149,-0.873167,0.299219,0.038897,0.395433,-0.066869,0.058315,0.012141,0.999997,0.001496,0.000194,0.001977,-0.248147,0.289987,-0.595662,-0.706765,80.071689,44.872277,179.571932
46581,-6.509404,5.846295,1.217298,0.419023,0.197567,-0.991202,0.177189,0.069761,0.366287,-0.065197,0.058333,0.012247,0.999998,0.000886,0.000349,0.001831,-0.246885,0.288867,-0.596912,-0.706611,80.245153,44.665866,179.673938
46582,-6.560650,5.726800,1.259987,0.563241,0.278917,-1.035968,0.217136,0.078429,0.317488,-0.065692,0.057150,0.012688,0.999998,0.001086,0.000392,0.001587,-0.245828,0.287876,-0.598237,-0.706263,80.440183,44.488026,179.774939
46583,-6.644882,6.100737,1.344798,0.380053,0.322730,-0.705917,0.237406,0.076621,0.245494,-0.066518,0.060910,0.013546,0.999998,0.001187,0.000383,0.001227,-0.245057,0.287066,-0.599528,-0.705766,80.638405,44.350100,179.863966
46584,-6.708858,6.723144,1.313550,0.019266,0.212456,-0.226797,0.213960,0.054147,0.173954,-0.067143,0.067159,0.013226,0.999999,0.001070,0.000271,0.000870,-0.244574,0.286422,-0.600602,-0.705282,80.803447,44.250708,179.925134
46585,-6.701578,7.609939,1.267375,-0.575416,0.040941,0.390045,0.093336,0.026064,0.152307,-0.067072,0.076042,0.012718,1.000000,0.000467,0.000130,0.000762,-0.244077,0.285886,-0.601189,-0.705172,80.882106,44.160533,179.960887
46586,-6.692274,8.216800,1.355143,-0.991523,0.032754,0.824725,-0.100283,-0.017988,0.171830,-0.066995,0.082117,0.013504,1.000000,-0.000501,-0.000090,0.000859,-0.243368,0.285377,-0.601062,-0.705731,80.826848,44.055671,179.964434
46587,-6.632338,8.338718,1.396445,-1.100897,0.035722,0.876505,-0.329146,-0.044573,0.214131,-0.066416,0.083339,0.013812,0.999998,-0.001646,-0.000223,0.001071,-0.242260,0.284923,-0.600156,-0.707065,80.630179,43.924159,179.953014
46588,-6.492343,8.145787,1.407207,-1.045567,0.040126,0.646258,-0.547287,-0.050660,0.236541,-0.065023,0.081419,0.013833,0.999996,-0.002736,-0.000253,0.001183,-0.240780,0.284644,-0.598498,-0.709086,80.307624,43.779653,179.940437
46589,-6.494172,7.371089,1.561572,-0.508095,0.275750,0.117635,-0.633871,-0.020384,0.250759,-0.065036,0.073678,0.015376,0.999994,-0.003169,-0.000102,0.001254,-0.239033,0.284529,-0.596586,-0.711331,79.954379,43.629763,179.954860
46590,-6.545975,7.042890,1.496545,-0.215971,0.221904,-0.086659,-0.674755,-0.014267,0.238242,-0.065545,0.070401,0.014723,0.999994,-0.003374,-0.000071,0.001191,-0.237252,0.284520,-0.594508,-0.713666,79.580240,43.487902,179.973342
46591,-6.589866,6.721210,1.026991,0.113385,-0.227334,-0.347436,-0.668428,-0.006862,0.190185,-0.065963,0.067183,0.010043,0.999994,-0.003342,-0.000034,0.000951,-0.235625,0.284667,-0.592388,-0.715906,79.210006,43.373569,179.991867
46592,-6.587004,6.467861,1.339367,0.257401,0.086249,-0.488421,-0.592160,0.009372,0.111700,-0.065906,0.064681,0.013205,0.999995,-0.002961,0.000047,0.000558,-0.234338,0.285014,-0.590440,-0.717797,78.884323,43.305643,-179.987926
46593,-6.552678,6.438428,1.337359,0.258172,0.054601,-0.533154,-0.508986,0.008142,-0.001712,-0.065526,0.064419,0.013212,0.999997,-0.002545,0.000041,-0.000009,-0.233577,0.285589,-0.588625,-0.719306,78.594246,43.300933,-179.985593
46594,-6.456771,6.519205,0.990484,0.176802,-0.337025,-0.591732,-0.564716,0.019463,-0.124431,-0.064526,0.065260,0.009727,0.999996,-0.002824,0.000097,-0.000622,-0.233144,0.286632,-0.586441,-0.720814,78.264717,43.366872,-179.993901
46595,-6.517560,6.578552,1.350461,0.116068,-0.037049,-0.455089,-0.641433,0.053279,-0.222096,-0.065099,0.065901,0.013311,0.999994,-0.003207,0.000266,-0.001110,-0.232851,0.288167,-0.583877,-0.722377,77.898218,43.491167,-179.992509
46596,-6.966678,6.874759,1.586169,0.181491,0.082203,0.100577,-0.788124,0.083448,-0.337314,-0.069544,0.068927,0.015619,0.999991,-0.003941,0.000417,-0.001687,-0.232673,0.290316,-0.580640,-0.724180,77.449113,43.684008,-179.988555
46597,-7.617635,6.313480,1.744956,0.966765,0.298980,0.182746,-0.951066,0.062964,-0.451928,-0.076028,0.063389,0.017172,0.999986,-0.004755,0.000315,-0.002260,-0.232726,0.292905,-0.576613,-0.726335,76.880534,43.937984,179.977069
46598,-7.011906,4.804121,1.386996,1.559925,0.229021,-1.346058,-1.019633,-0.016512,-0.579666,-0.069980,0.048314,0.013618,0.999983,-0.005098,-0.000083,-0.002898,-0.233365,0.295646,-0.572037,-0.728634,76.209878,44.252564,179.853224
46599,-6.151234,3.104557,0.275091,2.236979,-0.497447,-3.308853,-1.025929,0.047950,-0.607591,-0.061417,0.031246,0.002606,0.999982,-0.005130,0.000240,-0.003038,-0.233903,0.298698,-0.567453,-0.730798,75.562637,44.590379,179.768468
46600,-5.710362,1.790182,-0.064120,2.846409,-0.524975,-4.574426,-0.695015,0.161460,-0.492647,-0.057060,0.018040,-0.000658,0.999991,-0.003475,0.000807,-0.002463,-0.234188,0.301444,-0.564366,-0.731968,75.179893,44.880583,179.790832
46601,-5.495433,1.556277,1.030847,2.638374,0.594466,-4.677518,0.005432,0.291554,-0.312542,-0.054915,0.015648,0.010389,0.999998,0.000027,0.001458,-0.001563,-0.234500,0.303335,-0.564262,-0.731168,75.296619,45.089915,179.951586
46602,-5.830603,3.033005,1.498037,1.762735,0.698141,-3.343965,0.698665,0.359625,-0.169244,-0.058253,0.030327,0.015191,0.999992,0.003493,0.001798,-0.000846,-0.235145,0.304254,-0.566982,-0.728470,75.870681,45.228864,-179.802987
46603,-6.477720,4.560168,1.426637,1.166881,0.309737,-1.854465,1.020702,0.380623,-0.116709,-0.064723,0.045565,0.014622,0.999985,0.005103,0.001903,-0.000584,-0.236025,0.304715,-0.570969,-0.724869,76.651211,45.339400,-179.527884
46604,-7.438040,6.069424,1.778254,0.722924,0.394134,-0.084103,1.513832,0.352108,-0.153348,-0.074302,0.060614,0.018372,0.999970,0.007569,0.001761,-0.000767,-0.237858,0.304582,-0.576625,-0.719831,77.695439,45.463657,-179.279116
46605,-7.861091,8.552602,1.661580,-0.713229,-0.137760,1.899492,1.391427,0.312091,-0.263871,-0.078471,0.085511,0.017333,0.999974,0.006957,0.001560,-0.001319,-0.240005,0.304755,-0.581592,-0.715033,78.636664,45.642409,-179.076893
46606,-8.219478,9.487229,2.498991,-1.290077,0.620822,2.905848,1.038237,0.316717,-0.351018,-0.081988,0.094884,0.025612,0.999984,0.005191,0.001584,-0.001755,-0.241902,0.305606,-0.585144,-0.711122,79.371968,45.868331,-178.880478
46607,-7.971896,10.542568,3.218173,-2.365263,1.209994,3.528759,0.580137,0.222148,-0.430499,-0.079456,0.105503,0.032576,0.999993,0.002901,0.001111,-0.002152,-0.243652,0.306903,-0.586820,-0.708581,79.785052,46.128129,-178.768158
46608,-7.558384,10.886674,2.156306,-2.797508,0.124380,3.319585,-0.167932,0.150467,-0.483064,-0.075304,0.109067,0.021528,0.999996,-0.000840,0.000752,-0.002415,-0.244649,0.309006,-0.585670,-0.708275,79.722846,46.409747,-178.720716
46609,-6.774812,10.185044,1.913421,-2.864339,-0.035375,2.232557,-0.735140,0.118835,-0.479496,-0.067492,0.102082,0.018799,0.999990,-0.003676,0.000594,-0.002397,-0.244845,0.311676,-0.582471,-0.709673,79.316646,46.686168,-178.699909
46610,-6.518603,9.207217,2.367004,-2.471577,0.530001,1.433534,-0.689359,0.074636,-0.470497,-0.064960,0.092306,0.023376,0.999991,-0.003447,0.000373,-0.002352,-0.245206,0.314101,-0.579383,-0.711006,78.908974,46.952858,-178.716954
46611,-7.056087,7.818459,2.413768,-1.175635,0.802657,0.897862,-0.837527,0.040803,-0.471596,-0.070371,0.078451,0.023824,0.999988,-0.004188,0.000204,-0.002358,-0.245430,0.316582,-0.575716,-0.712805,78.393630,47.215912,-178.765344
46612,-8.575437,4.584524,3.618601,1.905591,2.635396,0.039875,-0.825055,-0.051194,-0.553678,-0.085636,0.046231,0.035974,0.999988,-0.004125,-0.000256,-0.002768,-0.246226,0.318951,-0.571834,-0.714597,77.815578,47.514131,-178.908149
46613,-8.630377,2.987378,3.485244,3.045333,2.809056,-0.958923,-0.653115,-0.160939,-0.756574,-0.086218,0.030313,0.034685,0.999987,-0.003266,-0.000805,-0.003783,-0.248328,0.321287,-0.568094,-0.715805,77.236204,47.911038,-179.184965
46614,-7.359922,2.892619,1.508417,2.547776,0.851657,-2.223614,-0.593336,-0.010933,-0.852745,-0.073476,0.029284,0.014994,0.999987,-0.002967,-0.000055,-0.004264,-0.250438,0.324352,-0.564585,-0.716464,76.763665,48.379486,-179.362600
46615,-6.994572,3.565034,1.354392,1.786559,0.522669,-2.066550,0.110801,0.122774,-0.704512,-0.069811,0.035889,0.013607,0.999993,0.000554,0.000614,-0.003523,-0.252777,0.326591,-0.563993,-0.715090,76.796821,48.782445,-179.402332
46616,-7.132669,5.569894,2.223051,0.212480,0.916375,-0.541468,0.829456,0.026789,-0.435555,-0.071202,0.055761,0.022471,0.999989,0.004147,0.000134,-0.002178,-0.255594,0.326813,-0.566281,-0.712174,77.221746,49.022856,-179.468747
46617,-7.434350,6.390366,2.990669,-0.346282,1.525954,0.316565,0.933716,-0.124427,-0.209847,-0.074295,0.063841,0.030159,0.999988,0.004669,-0.000622,-0.001049,-0.258201,0.325718,-0.569100,-0.709482,77.642763,49.118646,-179.618855
46618,-7.589194,7.577291,3.242979,-1.165249,1.559007,1.220883,0.715028,-0.193535,-0.160482,-0.075863,0.075717,0.032627,0.999993,0.003575,-0.000968,-0.000802,-0.260468,0.324512,-0.571127,-0.707575,77.901327,49.178851,-179.818281
46619,-7.837271,9.260967,1.779048,-2.020069,-0.209375,2.279823,0.096293,-0.116038,-0.177203,-0.078301,0.092671,0.017790,0.999999,0.000481,-0.000580,-0.000886,-0.261567,0.324430,-0.571031,-0.707284,77.852563,49.257908,-179.954784
46620,-8.068789,9.526816,0.755834,-1.920435,-1.294961,2.478430,-0.420268,-0.146816,-0.229746,-0.080584,0.095376,0.007299,0.999997,-0.002101,-0.000734,-0.001149,-0.262101,0.325065,-0.568983,-0.708444,77.480214,49.362359,179.872075
46621,-6.986684,9.148390,-0.706212,-2.120338,-2.713444,1.193955,-0.864060,-0.171224,-0.234243,-0.069753,0.091534,-0.007517,0.999990,-0.004320,-0.000856,-0.001171,-0.261994,0.326204,-0.565314,-0.710894,76.834876,49.465072,179.675144
46622,-6.760881,7.328900,-0.062160,-1.029903,-1.750603,-0.050485,-0.667369,-0.060552,-0.119225,-0.067565,0.073327,-0.000887,0.999994,-0.003337,-0.000303,-0.000596,-0.261483,0.327147,-0.562670,-0.712744,76.391321,49.517271,179.595030
46623,-7.191538,6.290323,1.298540,-0.215116,-0.231428,-0.175640,-0.201932,-0.229675,-0.053552,-0.071913,0.062935,0.012839,0.999999,-0.001010,-0.001148,-0.000268,-0.261972,0.326691,-0.561567,-0.713643,76.114050,49.509304,179.383095
46624,-6.789027,4.908005,1.395785,0.534459,0.161972,-1.338273,0.065661,-0.330592,-0.022400,-0.067908,0.049083,0.013862,0.999999,0.000328,-0.001653,-0.000112,-0.263071,0.325438,-0.561336,-0.713993,75.929825,49.469756,179.091657
46625,-6.917046,4.475307,1.268473,0.965947,0.130267,-1.534227,0.455329,-0.220989,-0.001027,-0.069184,0.044725,0.012710,0.999997,0.002277,-0.001105,-0.000005,-0.264418,0.324000,-0.562672,-0.713097,76.043663,49.433129,178.898661
46626,-7.174068,5.029482,0.413749,0.867562,-0.818948,-1.122995,0.623848,-0.186920,0.039038,-0.071754,0.050268,0.004227,0.999995,0.003119,-0.000935,0.000195,-0.265797,0.322347,-0.564714,-0.711718,76.282893,49.379556,178.743343
46627,-7.327385,6.313757,0.264919,0.044051,-1.212354,-0.213091,1.047585,-0.142223,0.153674,-0.073324,0.063066,0.002928,0.999986,0.005238,-0.000711,0.000768,-0.267320,0.319959,-0.568497,-0.709209,76.811448,49.268584,178.649415
46628,-7.477863,7.616755,1.436474,-0.983919,-0.266950,0.909096,1.302924,-0.086840,0.223036,-0.074870,0.075989,0.014828,0.999978,0.006515,-0.000434,0.001115,-0.268839,0.317218,-0.573350,-0.705952,77.531435,49.126739,178.614718
46629,-7.592524,8.463304,1.317631,-1.496478,-0.455174,1.525857,1.179040,-0.069991,0.210840,-0.076019,0.084473,0.013648,0.999982,0.005895,-0.000350,0.001054,-0.270144,0.314724,-0.577746,-0.702980,78.187662,48.993734,178.589592
46630,-7.696066,8.868584,0.848894,-1.644530,-0.897855,1.810154,1.024235,-0.019841,0.240774,-0.077068,0.088548,0.008935,0.999986,0.005121,-0.000099,0.001204,-0.270948,0.312520,-0.581695,-0.700393,78.789971,48.850148,178.610465
46631,-7.981461,9.219641,0.714228,-1.672862,-1.006135,2.245674,0.914502,0.025666,0.304265,-0.079954,0.092041,0.007574,0.999988,0.004572,0.000128,0.001521,-0.271217,0.310430,-0.585406,-0.698122,79.364790,48.675362,178.678399
46632,-8.189379,9.104813,1.089076,-1.457264,-0.539302,2.382991,0.732040,0.028099,0.345181,-0.082049,0.090866,0.011235,0.999992,0.003660,0.000140,0.001726,-0.271049,0.308472,-0.588534,-0.696423,79.839184,48.477656,178.752061
46633,-7.974440,8.703923,1.049503,-1.257896,-0.456186,1.962744,0.390478,-0.012073,0.335272,-0.079891,0.086885,0.010660,0.999997,0.001952,-0.000060,0.001676,-0.270502,0.306860,-0.590397,-0.695771,80.089460,48.280804,178.788037
46634,-7.775227,8.448200,0.882107,-1.146237,-0.556881,1.631974,0.071419,-0.023603,0.292637,-0.077877,0.084365,0.008842,0.999999,0.000357,-0.000118,0.001463,-0.269648,0.305766,-0.591066,-0.696016,80.144208,48.107241,178.806950
46635,-7.613459,8.174145,1.161059,-1.050233,-0.235770,1.366347,-0.066176,-0.032882,0.246337,-0.076237,0.081651,0.011571,0.999999,-0.000331,-0.000164,0.001232,-0.268769,0.304960,-0.591172,-0.696619,80.109190,47.958438,178.811306
46636,-7.577084,7.979740,1.383961,-0.929215,0.001319,1.239022,-0.248305,-0.051649,0.202197,-0.075855,0.079738,0.013721,0.999999,-0.001242,-0.000258,0.001011,-0.267825,0.304464,-0.590549,-0.697727,79.953451,47.833149,178.793513
46637,-7.577948,7.379792,0.523451,-0.371311,-0.784889,0.742241,-0.520622,-0.072263,0.187762,-0.075851,0.073740,0.005015,0.999996,-0.002603,-0.000361,0.000939,-0.266572,0.304299,-0.588926,-0.699648,79.628114,47.713283,178.757162
46638,-7.415562,6.362989,0.495216,0.291831,-0.682431,-0.057053,-0.491825,-0.095653,0.238062,-0.074234,0.063553,0.004760,0.999996,-0.002459,-0.000478,0.001190,-0.265257,0.303867,-0.587442,-0.701581,79.311250,47.563072,178.710066
46639,-7.047479,5.601268,1.033111,0.563916,-0.049682,-0.769021,-0.360755,-0.137296,0.262556,-0.070555,0.055939,0.010182,0.999997,-0.001804,-0.000686,0.001313,-0.264173,0.303037,-0.586399,-0.703220,79.048115,47.393831,178.633540
46640,-6.776130,4.838167,0.201520,1.058214,-0.757544,-1.586472,-0.394765,-0.094909,0.283993,-0.067831,0.048289,0.001888,0.999997,-0.001974,-0.000475,0.001420,-0.262839,0.302340,-0.585318,-0.704918,78.794760,47.217580,178.596937
46641,-6.888556,4.535915,0.462715,1.350104,-0.463379,-1.676149,-0.139727,-0.050257,0.328894,-0.068961,0.045249,0.004578,0.999998,-0.000699,-0.000251,0.001644,-0.261598,0.301329,-0.585262,-0.705859,78.720927,47.020472,178.605581
46642,-6.959804,4.763569,0.955899,1.204075,-0.021306,-1.410671,0.040800,-0.029226,0.333174,-0.069679,0.047518,0.009559,0.999999,0.000204,-0.000146,0.001666,-0.260554,0.300146,-0.585873,-0.706242,78.763437,46.823854,178.632144
46643,-7.100483,4.808451,0.719174,1.325000,-0.258393,-1.313699,0.096396,0.006355,0.333527,-0.071085,0.047963,0.007217,0.999998,0.000482,0.000032,0.001668,-0.259485,0.299011,-0.586727,-0.706407,78.859022,46.630529,178.687649
46644,-7.159505,5.011452,0.753779,1.244315,-0.248747,-1.133341,0.218291,0.023087,0.324300,-0.071675,0.049990,0.007601,0.999998,0.001091,0.000115,0.001621,-0.258582,0.297806,-0.588016,-0.706176,79.032242,46.444585,178.754355
46645,-7.202616,5.419754,0.885647,0.994948,-0.171047,-0.811772,0.331418,0.028929,0.314021,-0.072110,0.054070,0.008957,0.999997,0.001657,0.000145,0.001570,-0.257864,0.296504,-0.589695,-0.705586,79.271871,46.264579,178.823297
46646,-7.106879,5.978981,0.868241,0.560266,-0.258953,-0.505233,0.313672,0.029490,0.307514,-0.071159,0.059667,0.008787,0.999998,0.001568,0.000147,0.001538,-0.257142,0.295244,-0.591298,-0.705036,79.499555,46.088416,178.890149
46647,-7.057292,6.174117,1.184872,0.381211,0.045100,-0.369090,0.309524,0.023876,0.318558,-0.070670,0.061610,0.011953,0.999998,0.001548,0.000119,0.001593,-0.256388,0.293935,-0.592895,-0.704516,79.722093,45.904968,178.953048
46648,-6.938922,6.248924,1.416803,0.251351,0.285409,-0.375512,0.272935,0.003628,0.320540,-0.069489,0.062359,0.014254,0.999998,0.001365,0.000018,0.001603,-0.255635,0.292596,-0.594335,-0.704134,79.910816,45.718497,178.998528
46649,-6.863260,6.328693,1.068233,0.210718,-0.053222,-0.418514,0.178773,-0.006693,0.312544,-0.068732,0.063170,0.010737,0.999998,0.000894,-0.000033,0.001563,-0.254799,0.291361,-0.595418,-0.704034,80.038405,45.535136,179.033816
46650,-6.688686,6.727439,0.572200,-0.108214,-0.596555,-0.328137,0.025852,-0.028489,0.340012,-0.067002,0.067160,0.005721,0.999999,0.000129,-0.000142,0.001700,-0.253710,0.290164,-0.595970,-0.704454,80.067905,45.334368,179.054809
46651,-6.642032,7.078620,0.789421,-0.373289,-0.435680,-0.090685,0.004970,-0.033416,0.423702,-0.066571,0.070645,0.007885,0.999998,0.000025,-0.000167,0.002119,-0.252308,0.288723,-0.596565,-0.705046,80.091132,45.085621,179.083555
46652,-6.660322,7.627353,1.579728,-0.781395,0.258261,0.402715,0.033698,-0.062385,0.493746,-0.066796,0.076106,0.015789,0.999997,0.000168,-0.000312,0.002469,-0.250787,0.286936,-0.597320,-0.705679,80.120699,44.794730,179.098459
46653,-6.637604,7.526793,1.815585,-0.700864,0.505184,0.349011,-0.091814,-0.075338,0.488333,-0.066566,0.075114,0.018096,0.999997,-0.000459,-0.000377,0.002442,-0.249141,0.285272,-0.597606,-0.706694,80.070943,44.505310,179.102448
46654,-6.563745,7.450556,1.495407,-0.619919,0.190462,0.207743,-0.203316,-0.069716,0.419764,-0.065799,0.074383,0.014855,0.999997,-0.001017,-0.000349,0.002099,-0.247561,0.283972,-0.597402,-0.707944,79.953729,44.255453,179.101800
46655,-6.328420,7.294805,1.233271,-0.614709,-0.060633,-0.096600,-0.351120,-0.032649,0.336289,-0.063409,0.072863,0.012194,0.999997,-0.001756,-0.000163,0.001681,-0.245952,0.283232,-0.596600,-0.709476,79.764951,44.056122,179.119711
46656,-6.014107,6.952814,1.454242,-0.599883,0.192923,-0.526744,-0.413925,0.038462,0.290076,-0.060239,0.069471,0.014410,0.999997,-0.002070,0.000192,0.001450,-0.244207,0.282960,-0.595591,-0.711033,79.574489,43.890484,179.187358
46657,-6.280812,6.696229,1.392712,-0.201352,0.150991,-0.530214,-0.423296,0.100079,0.256276,-0.062887,0.066911,0.013817,0.999997,-0.002116,0.000500,0.001281,-0.242381,0.283015,-0.594575,-0.712485,79.409171,43.750122,179.298934
46658,-6.551051,6.999081,1.096681,-0.157737,-0.218011,-0.167294,-0.479789,0.128454,0.216428,-0.065579,0.069946,0.010841,0.999996,-0.002399,0.000642,0.001082,-0.240533,0.283357,-0.593330,-0.714011,79.222423,43.635812,179.426932
46659,-6.810442,7.452539,0.672852,-0.210125,-0.738676,0.276185,-0.354934,0.124014,0.140673,-0.068153,0.074489,0.006639,0.999998,-0.001775,0.000620,0.000703,-0.239144,0.283754,-0.592416,-0.715078,79.097383,43.563452,179.540430
46660,-6.684578,7.954756,0.578455,-0.618167,-0.944850,0.532428,-0.388535,0.053252,0.064405,-0.066870,0.079537,0.005648,0.999998,-0.001943,0.000266,0.000322,-0.238189,0.284166,-0.591185,-0.716252,78.907064,43.526934,179.587697
46661,-6.569563,7.824346,1.302332,-0.700453,-0.247124,0.459786,-0.649826,0.036356,-0.034370,-0.065680,0.078297,0.012781,0.999995,-0.003249,0.000182,-0.000172,-0.237263,0.285115,-0.588857,-0.718097,78.548119,43.543755,179.606908
46662,-6.840263,7.047254,2.039181,-0.088420,0.567985,0.201324,-0.884645,0.055666,-0.223274,-0.068318,0.070638,0.020099,0.999990,-0.004423,0.000278,-0.001116,-0.236622,0.286967,-0.585426,-0.720372,78.043487,43.669343,179.610535
46663,-7.183263,5.911396,1.473871,0.971872,0.173498,-0.445675,-1.192821,0.068757,-0.432318,-0.071700,0.059356,0.014410,0.999980,-0.005964,0.000344,-0.002162,-0.236244,0.289830,-0.580586,-0.723261,77.343980,43.913101,179.587229
46664,-6.979400,4.386447,0.504900,1.958254,-0.514041,-1.805916,-1.364463,0.085717,-0.573334,-0.069666,0.044098,0.004779,0.999973,-0.006822,0.000429,-0.002867,-0.236069,0.293357,-0.574911,-0.726423,76.533945,44.237985,179.546999
46665,-6.563138,3.058140,0.529585,2.519516,-0.235028,-3.007984,-1.139234,0.133744,-0.598258,-0.065536,0.030807,0.005165,0.999979,-0.005696,0.000669,-0.002991,-0.236164,0.296848,-0.570049,-0.728802,75.871903,44.582606,179.533595
46666,-6.718580,2.122687,1.828394,3.015553,1.224446,-3.301535,-0.595193,0.183705,-0.547852,-0.067110,0.021465,0.018282,0.999991,-0.002976,0.000919,-0.002739,-0.236735,0.299728,-0.567284,-0.729595,75.552574,44.906506,179.564792
46667,-6.773304,2.039203,2.347278,2.984618,1.741465,-3.209285,-0.064440,0.153266,-0.523416,-0.067661,0.020577,0.023518,0.999996,-0.000322,0.000766,-0.002617,-0.238095,0.301795,-0.566451,-0.728948,75.523561,45.212344,179.575970
46668,-6.370727,2.748351,2.393242,2.170952,1.618785,-2.991133,0.338030,0.103695,-0.519384,-0.063623,0.027608,0.024012,0.999995,0.001690,0.000518,-0.002597,-0.240186,0.303189,-0.567024,-0.727235,75.697966,45.509092,179.549262
46669,-5.998648,3.908852,2.164655,1.112126,1.134499,-2.503475,0.571522,0.096221,-0.530559,-0.059872,0.039185,0.021787,0.999992,0.002858,0.000481,-0.002653,-0.242690,0.304304,-0.568415,-0.724848,76.001594,45.811159,179.516219
46670,-5.824498,5.370020,1.551667,0.035117,0.221196,-1.743042,0.573160,0.091515,-0.531794,-0.058095,0.053810,0.015697,0.999992,0.002866,0.000458,-0.002659,-0.245212,0.305399,-0.569794,-0.722452,76.304453,46.113304,179.481068
46671,-6.474381,6.311476,1.496409,-0.212169,-0.023308,-0.650497,0.476588,0.123055,-0.540107,-0.064564,0.063253,0.015154,0.999993,0.002383,0.000615,-0.002701,-0.247522,0.306746,-0.570843,-0.720262,76.570609,46.424547,179.471856
46672,-6.929794,7.489251,1.301399,-0.755539,-0.461067,0.435277,0.202012,0.081211,-0.607702,-0.069065,0.075089,0.013118,0.999995,0.001010,0.000406,-0.003039,-0.249771,0.308470,-0.570741,-0.718829,76.646066,46.767820,179.416774
