PacketCounter,Acc_X,Acc_Y,Acc_Z,FreeAcc_E,FreeAcc_N,FreeAcc_U,Gyr_X,Gyr_Y,Gyr_Z,VelInc_X,VelInc_Y,VelInc_Z,OriInc_q0,OriInc_q1,OriInc_q2,OriInc_q3,Quat_q0,Quat_q1,Quat_q2,Quat_q3,Roll,Pitch,Yaw
44349,-5.915373,7.485670,-2.009711,-0.035897,0.000797,-0.062583,-0.029663,0.021048,0.031448,-0.059168,0.074844,-0.020102,1.000000,-0.000148,0.000105,0.000157,-0.031905,-0.513660,0.583484,0.628237,105.235365,37.457237,-126.329180
44350,-5.999901,7.521650,-2.101532,0.050258,-0.018733,0.035540,-0.021900,0.019435,0.024913,-0.060010,0.075207,-0.021018,1.000000,-0.000109,0.000097,0.000125,-0.032112,-0.513596,0.583501,0.628263,105.224047,37.435804,-126.326578
44351,-5.964313,7.463639,-2.058229,0.039284,0.009320,-0.039580,-0.007663,0.016625,0.020112,-0.059652,0.074630,-0.020580,1.000000,-0.000038,0.000083,0.000101,-0.032261,-0.513538,0.583549,0.628258,105.219792,37.417409,-126.325109
44352,-5.939869,7.457441,-2.127770,0.080902,-0.051048,-0.044693,-0.009770,0.016383,0.014909,-0.059406,0.074569,-0.021276,1.000000,-0.000049,0.000082,0.000075,-0.032396,-0.513496,0.583580,0.628257,105.215287,37.401967,-126.322732
44353,-5.957237,7.285742,-2.090363,0.161025,0.042612,-0.173570,0.003112,0.017779,0.012203,-0.059579,0.072854,-0.020897,1.000000,0.000016,0.000089,0.000061,-0.032496,-0.513466,0.583641,0.628219,105.218607,37.387772,-126.318962
44354,-5.988028,7.237041,-2.080006,0.196218,0.087286,-0.194395,0.020270,0.008354,0.010799,-0.059885,0.072369,-0.020790,1.000000,0.000101,0.000042,0.000054,-0.032518,-0.513415,0.583757,0.628152,105.228391,37.375809,-126.321396
44355,-5.966812,7.300870,-2.065153,0.140346,0.066326,-0.161454,0.034004,0.000058,0.010909,-0.059672,0.073009,-0.020639,1.000000,0.000170,0.000000,0.000055,-0.032483,-0.513339,0.583915,0.628069,105.242080,37.365004,-126.329714
44356,-5.914627,7.416569,-2.002947,0.008080,0.042414,-0.117419,0.040309,-0.005785,0.009697,-0.059149,0.074167,-0.020016,1.000000,0.000202,-0.000029,0.000048,-0.032409,-0.513250,0.584093,0.627981,105.257502,37.355782,-126.341778
44357,-5.872570,7.478338,-1.938698,-0.091254,0.043524,-0.109031,0.044773,0.001212,0.002991,-0.058727,0.074787,-0.019370,1.000000,0.000224,0.000006,0.000015,-0.032325,-0.513202,0.584264,0.627865,105.278761,37.349187,-126.347797
44358,-5.883799,7.532969,-1.993968,-0.079732,-0.003234,-0.048762,0.010137,0.011707,-0.001624,-0.058839,0.075331,-0.019932,1.000000,0.000051,0.000059,-0.000008,-0.032343,-0.513196,0.584315,0.627821,105.285577,37.343587,-126.345554
44359,-5.915383,7.461855,-1.971840,-0.040021,0.055834,-0.088775,-0.001824,0.011892,-0.003955,-0.059154,0.074620,-0.019716,1.000000,-0.000009,0.000059,-0.000020,-0.032388,-0.513195,0.584321,0.627815,105.285438,37.339217,-126.342831
44360,-5.869375,7.340806,-1.994810,0.022417,0.048224,-0.204699,-0.022898,0.010382,-0.012937,-0.058690,0.073410,-0.019953,1.000000,-0.000114,0.000052,-0.000065,-0.032452,-0.513212,0.584239,0.627873,105.274071,37.340069,-126.339361
44361,-5.891101,7.320281,-2.032725,0.071309,0.040869,-0.199321,-0.023990,0.005098,-0.012380,-0.058907,0.073204,-0.020335,1.000000,-0.000120,0.000025,-0.000062,-0.032507,-0.513211,0.584155,0.627950,105.259336,37.341384,-126.339762
44362,-5.894587,7.391010,-1.945585,-0.025251,0.080691,-0.161193,-0.010167,0.006183,-0.017042,-0.058940,0.073914,-0.019458,1.000000,-0.000051,0.000031,-0.000085,-0.032514,-0.513229,0.584103,0.627982,105.253965,37.345139,-126.338434
44363,-5.806603,7.347351,-2.031577,0.016561,-0.023304,-0.230063,-0.010339,0.002479,-0.021524,-0.058058,0.073479,-0.020319,1.000000,-0.000052,0.000012,-0.000108,-0.032497,-0.513248,0.584039,0.628028,105.246999,37.351906,-126.338924
44364,-5.852605,7.376943,-2.023367,0.015860,0.001247,-0.181175,-0.003901,0.003179,-0.022878,-0.058518,0.073776,-0.020234,1.000000,-0.000020,0.000016,-0.000114,-0.032461,-0.513275,0.583993,0.628051,105.244621,37.359341,-126.338580
44365,-5.876434,7.380023,-2.013894,0.018248,0.020858,-0.166330,0.002395,-0.001718,-0.025628,-0.058755,0.073808,-0.020139,1.000000,0.000012,-0.000009,-0.000128,-0.032386,-0.513295,0.583958,0.628070,105.243653,37.369008,-126.341212
44366,-5.879112,7.421822,-2.036435,0.010270,-0.007659,-0.127942,0.013227,-0.004345,-0.027365,-0.058781,0.074228,-0.020361,1.000000,0.000066,-0.000022,-0.000137,-0.032270,-0.513314,0.583955,0.628063,105.248429,37.380057,-126.345250
44367,-5.850649,7.493846,-2.000224,-0.069542,-0.024725,-0.097582,0.008131,-0.008308,-0.029645,-0.058495,0.074948,-0.020002,1.000000,0.000041,-0.000042,-0.000148,-0.032149,-0.513326,0.583930,0.628084,105.248426,37.392939,-126.351707
44368,-5.777514,7.513445,-1.960542,-0.143372,-0.051579,-0.135289,0.011578,-0.011324,-0.028075,-0.057763,0.075144,-0.019604,1.000000,0.000058,-0.000057,-0.000140,-0.032014,-0.513325,0.583921,0.628099,105.249387,37.405432,-126.360467
44369,-5.791914,7.547900,-1.942653,-0.169379,-0.042539,-0.103904,0.002182,-0.003527,-0.033208,-0.057906,0.075489,-0.019427,1.000000,0.000011,-0.000018,-0.000166,-0.031911,-0.513361,0.583867,0.628126,105.248402,37.419559,-126.362923
44370,-5.815656,7.547583,-1.992440,-0.124977,-0.064285,-0.079346,-0.010156,-0.002291,-0.030782,-0.058145,0.075484,-0.019929,1.000000,-0.000051,-0.000011,-0.000154,-0.031850,-0.513393,0.583781,0.628182,105.241039,37.432186,-126.364886
44371,-5.796639,7.544613,-1.941328,-0.167487,-0.041916,-0.103869,-0.009586,-0.001538,-0.027977,-0.057956,0.075453,-0.019417,1.000000,-0.000048,-0.000008,-0.000140,-0.031799,-0.513418,0.583703,0.628236,105.233543,37.443116,-126.366956
44372,-5.777008,7.560557,-1.961055,-0.172450,-0.075330,-0.099492,-0.012468,0.002230,-0.026744,-0.057760,0.075612,-0.019615,1.000000,-0.000062,0.000011,-0.000134,-0.031770,-0.513452,0.583620,0.628287,105.226299,37.452830,-126.366541
44373,-5.866282,7.574029,-1.982517,-0.123660,-0.039118,-0.030421,-0.001448,0.002371,-0.022455,-0.058655,0.075747,-0.019825,1.000000,-0.000007,0.000012,-0.000112,-0.031727,-0.513475,0.583581,0.628307,105.224477,37.460112,-126.366941
44374,-5.923031,7.593266,-1.993617,-0.100316,-0.018372,0.021137,-0.019887,0.003726,-0.026527,-0.059221,0.075939,-0.019943,1.000000,-0.000099,0.000019,-0.000133,-0.031722,-0.513512,0.583475,0.628376,105.213590,37.469482,-126.365528
44375,-5.956989,7.564674,-1.991418,-0.069476,0.011826,0.019443,-0.011027,-0.006708,-0.021119,-0.059561,0.075652,-0.019920,1.000000,-0.000055,-0.000034,-0.000106,-0.031682,-0.513501,0.583411,0.628447,105.202273,37.477386,-126.372509
44376,-5.892601,7.509844,-1.936449,-0.106058,0.024385,-0.073155,-0.011688,-0.015893,-0.020696,-0.058917,0.075103,-0.019374,1.000000,-0.000058,-0.000079,-0.000103,-0.031616,-0.513460,0.583349,0.628541,105.187092,37.486478,-126.385874
44377,-5.894207,7.527521,-2.005587,-0.067476,-0.031147,-0.044263,-0.017557,-0.002679,-0.027491,-0.058931,0.075282,-0.020063,1.000000,-0.000088,-0.000013,-0.000137,-0.031585,-0.513479,0.583247,0.628621,105.174466,37.497297,-126.388851
44378,-5.895729,7.545332,-2.074613,-0.028951,-0.086652,-0.015376,-0.022429,-0.005789,-0.020654,-0.058949,0.075457,-0.020756,1.000000,-0.000112,-0.000029,-0.000103,-0.031577,-0.513468,0.583150,0.628721,105.157405,37.504846,-126.395190
44379,-5.887197,7.535828,-1.982819,-0.089530,-0.026688,-0.046899,-0.008405,-0.002866,-0.017743,-0.058865,0.075363,-0.019832,1.000000,-0.000042,-0.000014,-0.000089,-0.031552,-0.513460,0.583101,0.628774,105.148819,37.510297,-126.400146
44380,-5.886968,7.488493,-2.019701,-0.037704,-0.038984,-0.075636,-0.012285,0.004048,-0.019183,-0.058863,0.074889,-0.020200,1.000000,-0.000061,0.000020,-0.000096,-0.031551,-0.513477,0.583038,0.628818,105.141573,37.515558,-126.399909
44381,-5.954369,7.500738,-1.991174,-0.032329,0.019310,-0.031126,0.002720,0.004769,-0.015138,-0.059538,0.075012,-0.019909,1.000000,0.000014,0.000024,-0.000076,-0.031528,-0.513487,0.583031,0.628819,105.142301,37.518422,-126.400035
44382,-5.955761,7.521716,-2.002291,-0.035829,0.005231,-0.011914,-0.002299,-0.002993,-0.011243,-0.059553,0.075220,-0.020025,1.000000,-0.000011,-0.000015,-0.000056,-0.031505,-0.513460,0.583020,0.628851,105.136874,37.520345,-126.406206
44383,-5.902532,7.544309,-2.012075,-0.066176,-0.043699,-0.025009,-0.006816,-0.006215,-0.010716,-0.059021,0.075446,-0.020125,1.000000,-0.000034,-0.000031,-0.000054,-0.031489,-0.513421,0.582996,0.628906,105.126964,37.522406,-126.414828
44384,-5.914860,7.558522,-1.982145,-0.087737,-0.020188,-0.012808,-0.002746,-0.010377,-0.003244,-0.059146,0.075586,-0.019826,1.000000,-0.000014,-0.000052,-0.000016,-0.031471,-0.513348,0.583006,0.628957,105.117225,37.521007,-126.427656
44385,-5.861446,7.581445,-1.991309,-0.118094,-0.069111,-0.025888,-0.009931,-0.015537,-0.009193,-0.058609,0.075816,-0.019921,1.000000,-0.000050,-0.000078,-0.000046,-0.031440,-0.513274,0.582977,0.629046,105.101395,37.523611,-126.443069
44386,-5.761841,7.486642,-1.964486,-0.129333,-0.084684,-0.164686,-0.000747,-0.004446,-0.007302,-0.057615,0.074868,-0.019646,1.000000,-0.000004,-0.000022,-0.000037,-0.031422,-0.513232,0.582982,0.629077,105.095786,37.523568,-126.450996
44387,-5.817644,7.528551,-1.986987,-0.110291,-0.078365,-0.093950,-0.008860,0.009484,-0.003862,-0.058176,0.075286,-0.019870,1.000000,-0.000044,0.000047,-0.000019,-0.031478,-0.513222,0.582966,0.629097,105.090585,37.519481,-126.449961
44388,-5.838923,7.530150,-2.036826,-0.065870,-0.100149,-0.069461,-0.016242,0.009075,-0.000552,-0.058390,0.075300,-0.020372,1.000000,-0.000081,0.000045,-0.000003,-0.031561,-0.513200,0.582937,0.629137,105.081070,37.513685,-126.449727
44389,-5.904906,7.543565,-2.007897,-0.060431,-0.041843,-0.024964,-0.010727,0.009148,0.001596,-0.059051,0.075434,-0.020080,1.000000,-0.000054,0.000046,0.000008,-0.031638,-0.513173,0.582930,0.629163,105.074033,37.506623,-126.449952
44390,-5.936794,7.516358,-2.006244,-0.029625,-0.011645,-0.026719,-0.019799,0.004600,-0.000441,-0.059368,0.075162,-0.020069,1.000000,-0.000099,0.000023,-0.000002,-0.031716,-0.513136,0.582891,0.629225,105.060568,37.501433,-126.452857
44391,-5.915131,7.534129,-2.025469,-0.034551,-0.045083,-0.022326,-0.021318,0.004159,-0.001296,-0.059151,0.075340,-0.020261,1.000000,-0.000107,0.000021,-0.000006,-0.031797,-0.513100,0.582843,0.629294,105.045678,37.496712,-126.456015
44392,-5.926141,7.505294,-1.972821,-0.047247,0.007226,-0.048553,-0.019548,-0.002993,-0.005072,-0.059259,0.075053,-0.019736,1.000000,-0.000098,-0.000015,-0.000025,-0.031838,-0.513053,0.582795,0.629376,105.029664,37.495212,-126.463344
44393,-5.892141,7.442818,-1.987865,-0.016448,-0.006237,-0.114019,-0.017125,-0.000958,-0.009264,-0.058918,0.074429,-0.019885,1.000000,-0.000086,-0.000005,-0.000046,-0.031868,-0.513024,0.582741,0.629448,105.015914,37.495656,-126.468577
44394,-5.901555,7.385984,-2.044431,0.059286,-0.022461,-0.140211,-0.012939,0.013656,-0.011335,-0.059013,0.073862,-0.020445,1.000000,-0.000065,0.000068,-0.000057,-0.031922,-0.513048,0.582694,0.629468,105.011469,37.495149,-126.463121
44395,-5.924612,7.411585,-2.046319,0.057346,-0.017225,-0.106171,0.004403,0.008919,-0.009788,-0.059243,0.074119,-0.020459,1.000000,0.000022,0.000045,-0.000049,-0.031923,-0.513056,0.582705,0.629452,105.014310,37.494418,-126.461366
44396,-5.913220,7.374455,-2.065503,0.085145,-0.025728,-0.137609,0.014692,0.004620,-0.012792,-0.059128,0.073750,-0.020648,1.000000,0.000073,0.000023,-0.000064,-0.031875,-0.513061,0.582743,0.629415,105.022026,37.496057,-126.461940
44397,-5.808522,7.491016,-2.001146,-0.073929,-0.084074,-0.125257,0.017247,0.000012,-0.006173,-0.058083,0.074914,-0.020005,1.000000,0.000086,0.000000,-0.000031,-0.031829,-0.513031,0.582805,0.629384,105.028037,37.494650,-126.467075
44398,-5.855339,7.567254,-1.956388,-0.125240,-0.046763,-0.047550,0.005271,0.000173,-0.008520,-0.058550,0.075676,-0.019562,1.000000,0.000026,0.000001,-0.000043,-0.031805,-0.513008,0.582825,0.629386,105.027980,37.494586,-126.471550
44399,-5.745611,7.544914,-2.004105,-0.131823,-0.143168,-0.121643,0.002790,0.000985,-0.008962,-0.057453,0.075452,-0.020040,1.000000,0.000014,0.000005,-0.000045,-0.031790,-0.512988,0.582834,0.629395,105.026438,37.494572,-126.475484
44400,-5.746570,7.566240,-2.015352,-0.135323,-0.157227,-0.102401,-0.006445,0.011521,-0.008058,-0.057464,0.075664,-0.020153,1.000000,-0.000032,0.000058,-0.000040,-0.031831,-0.512997,0.582816,0.629401,105.024434,37.492567,-126.472131
44401,-5.770608,7.616734,-1.968416,-0.183654,-0.124877,-0.058719,-0.005870,0.012268,-0.005246,-0.057705,0.076168,-0.019683,1.000000,-0.000029,0.000061,-0.000026,-0.031883,-0.513000,0.582806,0.629406,105.022296,37.488812,-126.468893
44402,-5.803258,7.610704,-1.978994,-0.157248,-0.109080,-0.041279,-0.001892,0.012848,-0.005494,-0.058032,0.076108,-0.019787,1.000000,-0.000009,0.000064,-0.000027,-0.031924,-0.513007,0.582809,0.629395,105.023171,37.485191,-126.465094
44403,-5.813261,7.578623,-1.988095,-0.127890,-0.098269,-0.057891,-0.007242,0.016472,-0.003154,-0.058133,0.075786,-0.019879,1.000000,-0.000036,0.000082,-0.000016,-0.031999,-0.513017,0.582799,0.629392,105.021790,37.479645,-126.459317
44404,-5.843750,7.526637,-2.035965,-0.050666,-0.095196,-0.069320,-0.018051,0.017174,0.001665,-0.058440,0.075264,-0.020361,1.000000,-0.000090,0.000086,0.000008,-0.032116,-0.513014,0.582769,0.629417,105.014427,37.471421,-126.453841
44405,-5.865895,7.553221,-2.036899,-0.052565,-0.089934,-0.035265,-0.019679,0.010190,0.000948,-0.058660,0.075530,-0.020373,1.000000,-0.000098,0.000051,0.000005,-0.032218,-0.512990,0.582732,0.629466,105.002787,37.464533,-126.453211
44406,-5.896968,7.482276,-2.013559,-0.012919,-0.031007,-0.075543,-0.010816,0.012945,-0.004591,-0.058969,0.074823,-0.020136,1.000000,-0.000054,0.000065,-0.000023,-0.032285,-0.512993,0.582709,0.629481,104.998487,37.460399,-126.449513
44407,-5.896303,7.460541,-2.003032,-0.007527,-0.016329,-0.094772,0.002308,0.014276,0.003388,-0.058966,0.074605,-0.020025,1.000000,0.000012,0.000071,0.000017,-0.032349,-0.512978,0.582747,0.629455,105.000904,37.451551,-126.446488
44408,-5.917588,7.442985,-1.984061,-0.000660,0.017714,-0.099189,0.013654,0.016220,-0.001705,-0.059177,0.074432,-0.019831,1.000000,0.000068,0.000081,-0.000009,-0.032372,-0.512987,0.582808,0.629390,105.011683,37.445334,-126.441048
44409,-5.896032,7.441232,-1.935705,-0.043198,0.040161,-0.123590,0.011764,0.016829,0.002207,-0.058963,0.074413,-0.019348,1.000000,0.000059,0.000084,0.000011,-0.032416,-0.512985,0.582872,0.629330,105.020732,37.436761,-126.436027
44410,-5.937904,7.444211,-2.038044,0.044774,-0.003822,-0.074793,0.009301,0.016692,0.003307,-0.059382,0.074442,-0.020372,1.000000,0.000047,0.000083,0.000017,-0.032467,-0.512980,0.582932,0.629275,105.028643,37.427699,-126.431199
44411,-5.916060,7.442734,-1.989549,0.002235,0.018626,-0.099191,0.014279,0.014119,0.005739,-0.059164,0.074427,-0.019886,1.000000,0.000071,0.000071,0.000029,-0.032507,-0.512960,0.583013,0.629215,105.037580,37.417573,-126.428733
44412,-5.982541,7.499401,-1.984947,-0.001001,0.048233,-0.016285,0.009745,0.011844,0.004715,-0.059828,0.074994,-0.019842,1.000000,0.000049,0.000059,0.000024,-0.032548,-0.512936,0.583079,0.629171,105.043530,37.408452,-126.427550
44413,-5.983922,7.545767,-1.948564,-0.050785,0.061288,0.012612,0.011527,0.004690,0.000945,-0.059840,0.075459,-0.019480,1.000000,0.000058,0.000023,0.000005,-0.032553,-0.512900,0.583141,0.629143,105.047444,37.402383,-126.430758
44414,-5.994465,7.535215,-1.969276,-0.025883,0.057721,0.015187,0.005920,0.009365,-0.008938,-0.059942,0.075355,-0.019688,1.000000,0.000030,0.000047,-0.000045,-0.032553,-0.512907,0.583160,0.629119,105.051705,37.401184,-126.428747
44415,-5.950430,7.504040,-1.978043,-0.023597,0.033700,-0.033669,0.006329,0.006415,-0.010617,-0.059501,0.075044,-0.019776,1.000000,0.000032,0.000032,-0.000053,-0.032540,-0.512909,0.583176,0.629104,105.054683,37.401258,-126.428589
44416,-5.941014,7.513289,-1.958941,-0.046629,0.037919,-0.036236,0.000653,0.002645,-0.017266,-0.059404,0.075138,-0.019588,1.000000,0.000003,0.000013,-0.000086,-0.032507,-0.512918,0.583158,0.629114,105.054030,37.405667,-126.429698
44417,-5.930174,7.475964,-1.977040,-0.018837,0.029345,-0.067715,-0.002382,0.001761,-0.018979,-0.059295,0.074765,-0.019771,1.000000,-0.000012,0.000009,-0.000095,-0.032477,-0.512928,0.583126,0.629138,105.050998,37.411060,-126.431217
44418,-5.813255,7.512751,-1.907141,-0.142421,-0.008883,-0.124954,0.002635,-0.002710,-0.013454,-0.058127,0.075132,-0.019071,1.000000,0.000013,-0.000014,-0.000067,-0.032436,-0.512910,0.583125,0.629155,105.048780,37.414157,-126.436772
44419,-5.837106,7.560055,-1.919382,-0.148664,-0.017969,-0.071648,-0.012603,0.002257,-0.009808,-0.058368,0.075602,-0.019198,1.000000,-0.000063,0.000011,-0.000049,-0.032462,-0.512894,0.583084,0.629206,105.039055,37.414400,-126.439664
44420,-5.793445,7.551196,-1.937393,-0.150877,-0.056337,-0.101245,-0.016440,0.006323,-0.006619,-0.057933,0.075512,-0.019378,1.000000,-0.000082,0.000032,-0.000033,-0.032517,-0.512881,0.583039,0.629254,105.028954,37.412370,-126.440206
44421,-5.835819,7.491604,-1.944183,-0.091609,-0.015756,-0.119797,-0.020439,0.006692,-0.007922,-0.058356,0.074916,-0.019448,1.000000,-0.000102,0.000033,-0.000040,-0.032582,-0.512872,0.582977,0.629316,105.016397,37.410905,-126.440363
44422,-5.836287,7.491399,-1.943568,-0.090688,-0.015431,-0.119788,-0.010451,0.011895,-0.009377,-0.058361,0.074916,-0.019436,1.000000,-0.000052,0.000059,-0.000047,-0.032630,-0.512885,0.582944,0.629333,105.012399,37.409575,-126.436507
44423,-5.868402,7.482344,-2.013285,-0.022205,-0.041214,-0.092875,-0.011558,0.008503,-0.011914,-0.058680,0.074826,-0.020135,1.000000,-0.000058,0.000043,-0.000060,-0.032665,-0.512895,0.582899,0.629365,105.006148,37.410047,-126.434657
44424,-5.914339,7.493134,-1.934909,-0.060081,0.039339,-0.072812,0.004789,0.006932,-0.013020,-0.059139,0.074936,-0.019345,1.000000,0.000024,0.000035,-0.000065,-0.032648,-0.512906,0.582905,0.629352,105.009195,37.411469,-126.433578
44425,-5.848877,7.479334,-1.963887,-0.063838,-0.018412,-0.117212,0.008685,0.000018,-0.011574,-0.058484,0.074798,-0.019636,1.000000,0.000043,0.000000,-0.000058,-0.032608,-0.512891,0.582926,0.629346,105.010911,37.413011,-126.437705
44426,-5.861901,7.514683,-1.946797,-0.089685,-0.009190,-0.085702,0.016661,0.000233,-0.010514,-0.058615,0.075152,-0.019462,1.000000,0.000083,0.000001,-0.000053,-0.032548,-0.512876,0.582977,0.629315,105.017640,37.414042,-126.441761
44427,-5.841351,7.553147,-1.979309,-0.099061,-0.056963,-0.061994,0.011756,-0.000997,-0.006769,-0.058411,0.075535,-0.019789,1.000000,0.000059,-0.000005,-0.000034,-0.032512,-0.512844,0.583020,0.629302,105.020140,37.413073,-126.447493
44428,-5.798584,7.546847,-1.938964,-0.143269,-0.053800,-0.101115,0.007264,-0.005176,-0.004702,-0.057984,0.075471,-0.019388,1.000000,0.000036,-0.000026,-0.000024,-0.032480,-0.512793,0.583057,0.629311,105.018535,37.411690,-126.456404
44429,-5.766822,7.574184,-1.940161,-0.172229,-0.083292,-0.099185,0.005475,0.001977,-0.000933,-0.057668,0.075743,-0.019399,1.000000,0.000027,0.000010,-0.000005,-0.032486,-0.512753,0.583096,0.629308,105.018029,37.407046,-126.461157
44430,-5.810110,7.579803,-1.981556,-0.126171,-0.085800,-0.060043,-0.000903,0.009700,-0.002827,-0.058101,0.075799,-0.019813,1.000000,-0.000005,0.000048,-0.000014,-0.032524,-0.512742,0.583109,0.629302,105.017829,37.402417,-126.460054
44431,-5.896995,7.572452,-1.992855,-0.072460,-0.035270,-0.010567,-0.006772,0.009723,0.001330,-0.058971,0.075723,-0.019928,1.000000,-0.000034,0.000049,0.000007,-0.032592,-0.512717,0.583113,0.629315,105.013326,37.395362,-126.459834
44432,-5.894854,7.526133,-2.031025,-0.020820,-0.047777,-0.039544,0.002682,0.012283,0.000154,-0.058950,0.075262,-0.020306,1.000000,0.000013,0.000061,0.000001,-0.032638,-0.512707,0.583146,0.629291,105.015934,37.388700,-126.457489
44433,-5.907296,7.562062,-2.013507,-0.046571,-0.038558,-0.008021,-0.005100,0.008272,-0.011717,-0.059069,0.075624,-0.020135,1.000000,-0.000025,0.000041,-0.000059,-0.032656,-0.512716,0.583122,0.629305,105.013255,37.389079,-126.455842
44434,-5.918305,7.510610,-1.951829,-0.054856,0.028110,-0.053515,0.004412,0.007982,-0.008253,-0.059181,0.075109,-0.019514,1.000000,0.000022,0.000040,-0.000041,-0.032658,-0.512716,0.583139,0.629289,105.015989,37.387708,-126.454922
44435,-5.851131,7.472391,-2.029549,-0.012371,-0.056852,-0.107635,0.002855,0.009440,-0.012204,-0.058508,0.074728,-0.020292,1.000000,0.000014,0.000047,-0.000061,-0.032658,-0.512732,0.583139,0.629277,105.018416,37.388182,-126.452372
44436,-5.875308,7.500537,-1.972555,-0.056156,-0.009972,-0.083092,0.013332,0.007898,-0.009150,-0.058750,0.075009,-0.019718,1.000000,0.000067,0.000039,-0.000046,-0.032634,-0.512736,0.583181,0.629235,105.026327,37.387319,-126.451343
44437,-5.865012,7.488129,-1.943454,-0.074753,0.008609,-0.104866,0.019278,0.004076,-0.007122,-0.058648,0.074885,-0.019426,1.000000,0.000096,0.000020,-0.000036,-0.032592,-0.512722,0.583247,0.629187,105.035320,37.385775,-126.453479
44438,-5.776990,7.470108,-1.982850,-0.080299,-0.068489,-0.164025,0.019808,0.006724,-0.007402,-0.057768,0.074705,-0.019819,1.000000,0.000099,0.000034,-0.000037,-0.032554,-0.512719,0.583314,0.629130,105.046245,37.384120,-126.453595
44439,-5.855200,7.497002,-1.927268,-0.096805,0.013165,-0.107369,0.013565,0.007796,0.001526,-0.058553,0.074971,-0.019265,1.000000,0.000068,0.000039,0.000008,-0.032565,-0.512691,0.583383,0.629088,105.052554,37.377236,-126.454761
44440,-5.766941,7.501435,-1.977091,-0.106747,-0.078286,-0.147259,0.011006,0.001108,0.002775,-0.057671,0.075015,-0.019766,1.000000,0.000055,0.000006,0.000014,-0.032564,-0.512639,0.583450,0.629068,105.054906,37.370785,-126.460693
44441,-5.833099,7.514355,-1.949462,-0.100891,-0.019912,-0.102878,-0.003349,0.008610,-0.000187,-0.058332,0.075143,-0.019493,1.000000,-0.000017,0.000043,-0.000001,-0.032616,-0.512616,0.583461,0.629074,105.052059,37.364723,-126.460973
44442,-5.897782,7.502664,-1.970371,-0.048785,0.011261,-0.068271,-0.001302,0.011701,0.000390,-0.058979,0.075026,-0.019701,1.000000,-0.000007,0.000059,0.000002,-0.032670,-0.512602,0.583482,0.629064,105.052107,37.358016,-126.459083
44443,-5.929116,7.493838,-2.040851,0.019729,-0.014588,-0.041480,-0.004374,0.012713,-0.004419,-0.059291,0.074939,-0.020406,1.000000,-0.000022,0.000064,-0.000022,-0.032723,-0.512603,0.583478,0.629063,105.050885,37.353684,-126.455715
44444,-5.906834,7.467424,-2.039610,0.023394,-0.019280,-0.075532,-0.003034,0.010410,-0.009601,-0.059066,0.074677,-0.020394,1.000000,-0.000015,0.000052,-0.000048,-0.032747,-0.512614,0.583468,0.629062,105.050529,37.352696,-126.452855
44445,-5.919254,7.481311,-2.010958,0.002057,0.004315,-0.063251,0.000827,0.005397,-0.011241,-0.059189,0.074817,-0.020108,1.000000,0.000004,0.000027,-0.000056,-0.032743,-0.512614,0.583464,0.629066,105.049975,37.353227,-126.453302
44446,-5.840868,7.409674,-2.046693,0.029130,-0.048049,-0.158424,0.006319,0.006427,-0.010626,-0.058405,0.074100,-0.020463,1.000000,0.000032,0.000032,-0.000053,-0.032728,-0.512617,0.583481,0.629049,105.053413,37.353400,-126.453022
44447,-5.766580,7.430634,-2.007560,-0.045066,-0.074649,-0.195491,0.017034,-0.000808,-0.015285,-0.057660,0.074312,-0.020070,1.000000,0.000085,-0.000004,-0.000076,-0.032652,-0.512611,0.583520,0.629022,105.059986,37.357092,-126.457031
44448,-5.801938,7.469995,-1.981826,-0.069199,-0.046013,-0.149146,0.027091,0.000608,-0.010553,-0.058015,0.074706,-0.019808,1.000000,0.000135,0.000003,-0.000053,-0.032567,-0.512599,0.583603,0.628959,105.072859,37.358091,-126.460815
44449,-5.814301,7.524036,-2.036648,-0.057351,-0.092681,-0.088837,0.018794,0.009885,-0.010093,-0.058140,0.075245,-0.020357,1.000000,0.000094,0.000049,-0.000050,-0.032534,-0.512612,0.583658,0.628898,105.084368,37.357314,-126.458354
44450,-5.761784,7.549439,-1.988902,-0.129974,-0.099884,-0.111087,0.015803,0.007096,-0.008713,-0.057615,0.075498,-0.019881,1.000000,0.000079,0.000035,-0.000044,-0.032503,-0.512613,0.583710,0.628851,105.093305,37.356328,-126.457967
44451,-5.817726,7.550051,-1.931848,-0.143635,-0.023209,-0.088487,0.019402,0.008736,-0.004185,-0.058177,0.075504,-0.019309,1.000000,0.000097,0.000044,-0.000021,-0.032484,-0.512606,0.583783,0.628791,105.104003,37.352449,-126.457415
44452,-5.848685,7.519012,-1.992266,-0.070820,-0.034724,-0.081009,0.002626,0.014189,-0.002958,-0.058487,0.075191,-0.019918,1.000000,0.000013,0.000071,-0.000015,-0.032525,-0.512610,0.583806,0.628763,105.107728,37.347221,-126.453175
44453,-5.902671,7.495507,-1.982930,-0.038189,0.014693,-0.068228,-0.001330,0.012652,-0.001167,-0.059028,0.074955,-0.019826,1.000000,-0.000007,0.000063,-0.000006,-0.032580,-0.512602,0.583821,0.628753,105.107854,37.341083,-126.450467
44454,-5.946063,7.500851,-2.024424,0.007965,0.012138,-0.029206,-0.002073,0.009153,-0.010020,-0.059458,0.075011,-0.020242,1.000000,-0.000010,0.000046,-0.000050,-0.032597,-0.512611,0.583813,0.628753,105.107565,37.340513,-126.448404
44455,-5.936849,7.532170,-2.016427,-0.019361,0.002055,-0.012414,0.001882,0.010691,-0.011812,-0.059365,0.075325,-0.020160,1.000000,0.000009,0.000053,-0.000059,-0.032604,-0.512629,0.583810,0.628740,105.109916,37.340557,-126.445062
44456,-5.937220,7.509483,-2.006370,-0.014071,0.016713,-0.031688,0.014133,0.002955,-0.014061,-0.059367,0.075100,-0.020058,1.000000,0.000071,0.000015,-0.000070,-0.032548,-0.512632,0.583844,0.628709,105.116757,37.343148,-126.446553
44457,-5.863175,7.530341,-1.967465,-0.088302,-0.009844,-0.068670,0.014091,0.004855,-0.017159,-0.058626,0.075310,-0.019668,1.000000,0.000070,0.000024,-0.000086,-0.032491,-0.512649,0.583867,0.628677,105.124251,37.347022,-126.446266
44458,-5.841568,7.543599,-2.048938,-0.051504,-0.084827,-0.054711,0.014110,0.003906,-0.015612,-0.058410,0.075442,-0.020483,1.000000,0.000071,0.000020,-0.000078,-0.032433,-0.512660,0.583896,0.628644,105.131658,37.350329,-126.446802
44459,-5.810667,7.529744,-1.969052,-0.113695,-0.043982,-0.100674,0.014191,0.000109,-0.009417,-0.058103,0.075302,-0.019685,1.000000,0.000071,0.000001,-0.000047,-0.032385,-0.512640,0.583940,0.628622,105.136323,37.350627,-126.451274
44460,-5.757489,7.574274,-1.991429,-0.148801,-0.107090,-0.094124,0.015349,0.000659,-0.002239,-0.057574,0.075745,-0.019908,1.000000,0.000077,0.000003,-0.000011,-0.032357,-0.512602,0.584008,0.628592,105.141543,37.347024,-126.456585
44461,-5.789783,7.568089,-2.002991,-0.122173,-0.091376,-0.076864,0.014554,0.004664,0.004207,-0.057900,0.075681,-0.020023,1.000000,0.000073,0.000023,0.000021,-0.032364,-0.512556,0.584088,0.628555,105.146781,37.339100,-126.460453
44462,-5.868005,7.617209,-1.958560,-0.142844,-0.023961,-0.000943,0.021049,0.002550,0.007509,-0.058683,0.076172,-0.019577,1.000000,0.000105,0.000013,0.000038,-0.032357,-0.512496,0.584198,0.628501,105.154951,37.329823,-126.466285
44463,-5.823105,7.608753,-1.978647,-0.145212,-0.062378,-0.030472,0.008667,0.005632,0.006815,-0.058234,0.076086,-0.019782,1.000000,0.000043,0.000028,0.000034,-0.032391,-0.512444,0.584266,0.628478,105.156924,37.320307,-126.469974
44464,-5.873546,7.495595,-1.984917,-0.053304,0.002737,-0.085431,0.008228,0.009533,0.006938,-0.058739,0.074955,-0.019843,1.000000,0.000041,0.000048,0.000035,-0.032436,-0.512406,0.584333,0.628445,105.160759,37.310300,-126.470842
44465,-5.905883,7.511414,-2.007854,-0.031006,0.004113,-0.048913,0.018066,0.010105,0.002534,-0.059061,0.075115,-0.020069,1.000000,0.000090,0.000051,0.000013,-0.032445,-0.512383,0.584418,0.628384,105.170489,37.302478,-126.470617
44466,-5.896669,7.586730,-2.023032,-0.067089,-0.034580,0.006485,0.011523,0.003772,0.002490,-0.058968,0.075868,-0.020225,1.000000,0.000058,0.000019,0.000012,-0.032451,-0.512340,0.584486,0.628356,105.174291,37.295795,-126.474654
44467,-5.875122,7.563622,-1.962145,-0.105320,0.002320,-0.036985,0.000946,-0.000304,-0.001957,-0.058750,0.075637,-0.019621,1.000000,0.000005,-0.000002,-0.000010,-0.032459,-0.512294,0.584508,0.628372,105.170339,37.292015,-126.480819
44468,-5.828042,7.464907,-1.996082,-0.048516,-0.020419,-0.134233,-0.004014,0.001308,-0.002855,-0.058279,0.074650,-0.019962,1.000000,-0.000020,0.000007,-0.000014,-0.032480,-0.512257,0.584513,0.628397,105.164813,37.288657,-126.485562
44469,-5.794758,7.467598,-2.045577,-0.031311,-0.077147,-0.142026,0.001433,0.004242,-0.005341,-0.057946,0.074678,-0.020454,1.000000,0.000007,0.000021,-0.000027,-0.032491,-0.512235,0.584527,0.628401,105.163441,37.286065,-126.487929
44470,-5.839500,7.497896,-2.038128,-0.031336,-0.052418,-0.093200,-0.003844,0.004063,0.003181,-0.058397,0.074978,-0.020382,1.000000,-0.000019,0.000020,0.000016,-0.032538,-0.512189,0.584547,0.628417,105.158484,37.278955,-126.491893
44471,-5.806349,7.482280,-2.016844,-0.051672,-0.053184,-0.129694,-0.004324,0.009861,0.000205,-0.058065,0.074822,-0.020167,1.000000,-0.000022,0.000049,0.000001,-0.032597,-0.512168,0.584557,0.628423,105.155550,37.272451,-126.491397
44472,-5.859001,7.456008,-2.066757,0.022844,-0.045425,-0.107593,-0.006695,0.016269,0.001143,-0.058592,0.074559,-0.020665,1.000000,-0.000033,0.000081,0.000006,-0.032681,-0.512165,0.584561,0.628416,105.154331,37.264640,-126.486493
44473,-5.880463,7.460615,-2.058232,0.025544,-0.025756,-0.092830,0.004359,0.014547,0.008568,-0.058809,0.074604,-0.020576,1.000000,0.000022,0.000073,0.000043,-0.032758,-0.512136,0.584618,0.628383,105.157392,37.252807,-126.484316
44474,-5.890842,7.453801,-2.019723,0.008557,0.012228,-0.099798,0.019257,0.008762,0.012813,-0.058914,0.074536,-0.020187,1.000000,0.000096,0.000044,0.000064,-0.032790,-0.512080,0.584736,0.628318,105.166553,37.239667,-126.486826
44475,-5.848374,7.535551,-2.025110,-0.053114,-0.041835,-0.061559,0.021735,0.007957,0.013260,-0.058490,0.075354,-0.020241,1.000000,0.000109,0.000040,0.000066,-0.032818,-0.512019,0.584861,0.628250,105.176264,37.226227,-126.490113
44476,-5.902593,7.577803,-2.050371,-0.033466,-0.035393,0.008991,0.020786,0.008263,0.015215,-0.059033,0.075776,-0.020493,1.000000,0.000104,0.000041,0.000076,-0.032853,-0.511955,0.584989,0.628181,105.185816,37.211835,-126.493427
44477,-5.958487,7.644818,-2.027014,-0.059940,-0.001626,0.089434,0.020198,0.008461,0.010849,-0.059590,0.076447,-0.020260,1.000000,0.000101,0.000042,0.000054,-0.032878,-0.511902,0.585102,0.628117,105.195134,37.199652,-126.495915
44478,-5.848569,7.648298,-2.026437,-0.113826,-0.070810,0.025539,0.003701,0.007249,0.005910,-0.058489,0.076482,-0.020261,1.000000,0.000019,0.000036,0.000030,-0.032924,-0.511859,0.585153,0.628102,105.195531,37.190557,-126.498182
44479,-5.847359,7.604893,-2.004926,-0.104153,-0.041865,-0.013038,0.005028,0.005886,-0.000817,-0.058474,0.076050,-0.020046,1.000000,0.000025,0.000029,-0.000004,-0.032944,-0.511830,0.585190,0.628090,105.196403,37.185207,-126.500259
44480,-5.857178,7.572773,-2.013987,-0.074927,-0.031211,-0.029898,-0.003394,0.010507,-0.003309,-0.058572,0.075728,-0.020138,1.000000,-0.000017,0.000053,-0.000017,-0.032989,-0.511823,0.585194,0.628090,105.195152,37.180721,-126.498527
44481,-5.788260,7.491380,-2.068818,-0.024265,-0.087737,-0.122669,0.001563,0.008894,-0.002410,-0.057883,0.074915,-0.020685,1.000000,0.000008,0.000044,-0.000012,-0.033022,-0.511807,0.585216,0.628081,105.195483,37.175796,-126.498217
44482,-5.768844,7.514868,-1.970412,-0.113138,-0.037772,-0.136888,0.002568,0.005745,0.000283,-0.057689,0.075149,-0.019701,1.000000,0.000013,0.000029,0.000001,-0.033049,-0.511775,0.585249,0.628074,105.195241,37.170039,-126.500467
44483,-5.767091,7.489916,-2.019862,-0.065962,-0.064818,-0.146795,0.010512,0.006923,-0.000203,-0.057672,0.074900,-0.020193,1.000000,0.000053,0.000035,-0.000001,-0.033060,-0.511749,0.585304,0.628044,105.199621,37.164188,-126.501940
44484,-5.734795,7.517543,-2.021723,-0.095084,-0.094188,-0.144659,0.004206,0.010847,0.004072,-0.057351,0.075175,-0.020213,1.000000,0.000021,0.000054,0.000020,-0.033110,-0.511722,0.585351,0.628019,105.202026,37.155569,-126.501364
44485,-5.713636,7.538265,-1.983473,-0.142029,-0.085889,-0.149474,0.009202,0.007339,0.008072,-0.057140,0.075381,-0.019829,1.000000,0.000046,0.000037,0.000040,-0.033151,-0.511672,0.585424,0.627990,105.204888,37.145073,-126.504110
44486,-5.722174,7.484926,-1.981909,-0.108496,-0.060942,-0.185649,0.002857,0.013161,0.009246,-0.057227,0.074847,-0.019814,1.000000,0.000014,0.000066,0.000046,-0.033227,-0.511638,0.585479,0.627962,105.206899,37.133246,-126.502906
44487,-5.774069,7.458992,-2.032581,-0.033875,-0.053253,-0.163654,0.001451,0.018317,0.009770,-0.057746,0.074587,-0.020320,1.000000,0.000007,0.000092,0.000049,-0.033326,-0.511616,0.585530,0.627928,105.209722,37.120157,-126.498360
44488,-5.783753,7.470854,-2.064744,-0.013327,-0.071243,-0.141939,0.011766,0.013085,0.008353,-0.057842,0.074707,-0.020639,1.000000,0.000059,0.000065,0.000042,-0.033377,-0.511585,0.585611,0.627874,105.216905,37.108835,-126.497042
44489,-5.828612,7.482819,-1.987653,-0.050681,0.009494,-0.121795,0.002692,0.010402,0.003212,-0.058288,0.074828,-0.019872,1.000000,0.000013,0.000052,0.000016,-0.033429,-0.511558,0.585650,0.627857,105.217873,37.100559,-126.496750
44490,-5.871510,7.488350,-2.029345,-0.004402,0.006878,-0.082929,-0.002427,0.009254,-0.003722,-0.058715,0.074884,-0.020292,1.000000,-0.000012,0.000046,-0.000019,-0.033466,-0.511549,0.585657,0.627857,105.216694,37.096488,-126.495813
44491,-5.904245,7.482019,-2.040229,0.022316,0.022556,-0.065778,0.001910,0.009731,-0.010283,-0.059040,0.074823,-0.020399,1.000000,0.000010,0.000049,-0.000051,-0.033476,-0.511559,0.585659,0.627846,105.218469,37.095774,-126.493441
44492,-5.905783,7.524763,-2.063085,0.014596,-0.005735,-0.027167,-0.001133,0.009785,-0.013548,-0.059054,0.075252,-0.020628,1.000000,-0.000006,0.000049,-0.000068,-0.033481,-0.511580,0.585644,0.627842,105.219371,37.097056,-126.490284
44493,-5.820676,7.512882,-1.980860,-0.075145,0.000454,-0.104865,-0.007268,0.001443,-0.016807,-0.058201,0.075133,-0.019811,1.000000,-0.000036,0.000007,-0.000084,-0.033469,-0.511581,0.585603,0.627881,105.213166,37.101197,-126.492427
44494,-5.756368,7.480298,-1.937763,-0.117044,-0.001356,-0.177758,-0.001841,0.005325,-0.020844,-0.057556,0.074809,-0.019377,1.000000,-0.000009,0.000027,-0.000104,-0.033440,-0.511609,0.585568,0.627892,105.212627,37.107184,-126.490986
44495,-5.724880,7.547671,-2.020419,-0.112916,-0.101012,-0.127610,-0.014845,0.014233,-0.007533,-0.057247,0.075477,-0.020206,1.000000,-0.000074,0.000071,-0.000038,-0.033514,-0.511623,0.585524,0.627918,105.206371,37.104272,-126.486013
44496,-5.694249,7.578315,-1.961771,-0.183894,-0.088655,-0.134765,0.004583,0.009792,-0.000699,-0.056943,0.075784,-0.019613,1.000000,0.000023,0.000049,-0.000003,-0.033545,-0.511607,0.585560,0.627895,105.209091,37.098450,-126.485271
44497,-5.694265,7.600135,-1.973740,-0.187227,-0.102637,-0.115432,-0.009521,0.026591,0.002160,-0.056946,0.076000,-0.019733,1.000000,-0.000048,0.000133,0.000011,-0.033672,-0.511632,0.585555,0.627873,105.209946,37.088314,-126.473561
44498,-5.779920,7.655254,-2.079669,-0.104172,-0.136803,0.000867,-0.002672,0.038450,0.014261,-0.057809,0.076548,-0.020787,1.000000,-0.000013,0.000192,0.000071,-0.033852,-0.511661,0.585602,0.627796,105.218782,37.069911,-126.455780
44499,-5.840174,7.576104,-2.128526,0.003091,-0.104573,-0.013470,-0.008124,0.035519,0.016739,-0.058412,0.075755,-0.021278,1.000000,-0.000041,0.000178,0.000084,-0.034048,-0.511671,0.585638,0.627744,105.222498,37.050363,-126.440640
44500,-5.783991,7.538227,-2.048203,-0.056716,-0.068689,-0.093293,0.028135,0.033128,0.020670,-0.057851,0.075379,-0.020462,1.000000,0.000141,0.000166,0.000103,-0.034154,-0.511670,0.585798,0.627589,105.246016,37.029214,-126.427771
44501,-5.783216,7.625843,-2.096808,-0.072981,-0.125559,-0.016026,0.034105,0.027420,0.025818,-0.057845,0.076255,-0.020947,1.000000,0.000171,0.000137,0.000129,-0.034246,-0.511635,0.585991,0.627432,105.269501,37.005856,-126.419976
44502,-5.656263,7.786818,-2.007049,-0.284598,-0.189014,0.012757,0.036625,0.035070,0.022986,-0.056575,0.077865,-0.020046,1.000000,0.000183,0.000175,0.000115,-0.034343,-0.511635,0.586184,0.627247,105.298402,36.983124,-126.406232
44503,-5.362722,8.072185,-2.211211,-0.437363,-0.609287,0.099219,-0.201854,0.076048,0.003349,-0.053637,0.080699,-0.022173,0.999999,-0.001009,0.000380,0.000017,-0.035112,-0.511778,0.585570,0.627661,105.209469,36.964847,-126.360554
44504,-5.478487,8.368461,-3.127814,0.099443,-1.276811,0.588658,-0.396293,0.125386,-0.007410,-0.054801,0.083624,-0.031410,0.999998,-0.001981,0.000627,-0.000037,-0.036485,-0.512073,0.584310,0.628516,105.031365,36.945461,-126.278537
44505,-5.643512,8.587718,-2.252293,-0.522287,-0.638456,0.674949,-0.255953,0.103166,0.013681,-0.056453,0.085844,-0.022604,0.999999,-0.001280,0.000516,0.000068,-0.037504,-0.512259,0.583546,0.629014,104.921618,36.917588,-126.215904
44506,-5.249048,7.168929,-2.642879,0.359642,-0.720542,-0.577846,-0.345617,0.202151,0.012211,-0.052522,0.071640,-0.026500,0.999998,-0.001728,0.001011,0.000061,-0.039033,-0.512744,0.582476,0.629517,104.802260,36.876350,-126.084288
44507,-5.664400,6.562502,-4.413560,2.133795,-1.483310,-0.438359,-0.416103,0.298663,0.024898,-0.056718,0.065526,-0.044187,0.999997,-0.002081,0.001493,0.000124,-0.041067,-0.513478,0.581195,0.629973,104.680686,36.813937,-125.888261
44508,-5.884115,7.540121,-4.384033,1.701195,-1.620788,0.442796,-0.052695,0.167502,0.122707,-0.058924,0.075354,-0.043811,0.999999,-0.000263,0.000838,0.000614,-0.042092,-0.513588,0.581335,0.629686,104.702530,36.716808,-125.800733
44509,-5.134201,7.517597,-3.644584,0.851150,-1.567195,-0.170248,0.216193,0.115804,0.231388,-0.051450,0.075156,-0.036335,0.999999,0.001081,0.000579,0.001157,-0.042620,-0.513274,0.582610,0.628727,104.844705,36.566620,-125.769081
44510,-5.396631,5.295779,-3.319935,1.949706,-0.430549,-1.799950,0.529327,0.197628,0.320624,-0.054084,0.052959,-0.033006,0.999995,0.002647,0.000988,0.001603,-0.042861,-0.513023,0.585078,0.626622,105.189643,36.355097,-125.698390
44511,-6.276726,2.940056,-3.308668,3.625806,0.928322,-3.105968,0.901075,0.223566,0.428674,-0.062867,0.029414,-0.032884,0.999987,0.004505,0.001118,0.002143,-0.042565,-0.512605,0.588971,0.623328,105.744217,36.079208,-125.632735
44512,-7.795657,2.089063,-3.074767,4.624142,2.383588,-2.918758,1.615050,0.135280,0.491242,-0.078029,0.020946,-0.030526,0.999964,0.008075,0.000676,0.002456,-0.040369,-0.511856,0.595239,0.618114,106.662612,35.782651,-125.643997
44513,-8.863467,4.101249,-1.500770,2.894476,3.654424,-1.100616,2.423067,-0.179943,0.461978,-0.088716,0.040986,-0.014591,0.999924,0.012115,-0.000900,0.002310,-0.035072,-0.510325,0.603926,0.611238,107.919773,35.555902,-125.868285
44514,-7.573488,9.022555,-0.219002,-1.469859,2.498783,1.606800,2.519311,-0.486354,0.310917,-0.075871,0.090127,-0.001239,0.999916,0.012596,-0.002432,0.001555,-0.028137,-0.508249,0.612479,0.604782,109.130228,35.471083,-126.268794
44515,-6.429324,13.230036,0.824318,-5.292533,1.623136,3.840110,2.095009,-0.452915,0.108548,-0.064386,0.132170,0.009482,0.999942,0.010475,-0.002265,0.000543,-0.021767,-0.506763,0.619143,0.599483,110.137335,35.495420,-126.601038
44516,-5.117847,15.811069,1.118573,-7.770654,0.521626,4.910663,0.878978,-0.326654,-0.025475,-0.051177,0.158066,0.011797,0.999989,0.004395,-0.001633,-0.000127,-0.018465,-0.505902,0.621766,0.597602,110.515076,35.569841,-126.817023
44517,-4.014763,14.581648,0.682823,-7.303891,-0.222665,3.446727,-0.535423,-0.033122,-0.098813,-0.040077,0.145854,0.006431,0.999996,-0.002677,-0.000166,-0.000494,-0.019436,-0.506008,0.619940,0.599377,110.204948,35.625143,-126.821420
44518,-3.843952,11.057334,-0.747637,-4.284139,-0.651390,1.087733,-1.590745,0.313425,-0.123665,-0.038384,0.110533,-0.008295,0.999967,-0.007954,0.001567,-0.000618,-0.024074,-0.507109,0.614834,0.603523,109.427651,35.626598,-126.590536
44519,-5.541334,8.921117,-2.707815,-0.820970,-0.533816,0.988436,-1.893345,0.566636,-0.082792,-0.055454,0.088973,-0.027764,0.999951,-0.009467,0.002833,-0.000414,-0.030383,-0.508769,0.608836,0.607907,108.568851,35.561094,-126.200621
44520,-7.403152,8.068143,-2.553432,0.585927,0.945358,1.375845,-1.827133,0.405389,0.015284,-0.074090,0.080439,-0.026120,0.999956,-0.009136,0.002027,0.000076,-0.036325,-0.509605,0.603258,0.612424,107.673563,35.476049,-125.939097
44521,-7.209340,8.079828,-2.088417,0.282380,1.077769,1.158966,-1.462846,0.077483,0.071838,-0.072131,0.080617,-0.021446,0.999973,-0.007314,0.000387,0.000359,-0.040524,-0.509293,0.598955,0.616629,106.852109,35.418618,-125.908571
44522,-6.360232,8.859708,-2.161806,-0.404494,0.177751,1.296931,-1.391938,-0.114418,0.080514,-0.063625,0.088418,-0.022270,0.999976,-0.006960,-0.000572,0.000403,-0.043988,-0.508355,0.594902,0.621073,105.996697,35.388274,-126.007887
44523,-5.114522,8.942030,-1.902453,-1.107568,-0.569546,0.588497,-1.481927,-0.238809,0.107523,-0.051170,0.089248,-0.019747,0.999972,-0.007410,-0.001194,0.000538,-0.047396,-0.506901,0.590632,0.626066,105.037555,35.360569,-126.196147
44524,-4.179127,7.976510,-1.000137,-1.548375,-0.354992,-0.892753,-1.451826,-0.258360,0.125985,-0.041828,0.079663,-0.010634,0.999973,-0.007259,-0.001292,0.000630,-0.050721,-0.505313,0.586477,0.630976,104.087439,35.323131,-126.400012
44525,-4.187238,6.285185,-1.338598,-0.318058,-0.131573,-2.150512,-1.584052,-0.102952,0.101908,-0.041897,0.062722,-0.013905,0.999968,-0.007920,-0.000515,0.000510,-0.054762,-0.504219,0.581768,0.635854,103.124984,35.275032,-126.493170
44526,-5.259892,4.261582,-2.752393,2.323536,0.206418,-2.887274,-1.511135,0.152134,0.049873,-0.052631,0.042393,-0.027805,0.999971,-0.007556,0.000761,0.000249,-0.059187,-0.504080,0.577057,0.639848,102.311123,35.223021,-126.402534
44527,-6.272185,4.229714,-3.369487,3.322557,0.449463,-2.240192,-0.952297,0.175249,-0.063692,-0.062738,0.042156,-0.033841,0.999988,-0.004761,0.000876,-0.000318,-0.061909,-0.504485,0.573815,0.642183,101.835824,35.232403,-126.278894
44528,-5.824875,6.155227,-3.105371,1.979183,-0.322945,-1.012811,-0.361352,0.046169,-0.164345,-0.058205,0.061544,-0.031151,0.999998,-0.001807,0.000231,-0.000822,-0.062442,-0.504942,0.572250,0.643167,101.657032,35.314182,-126.229365
44529,-5.272329,7.915829,-1.159112,-0.573190,0.018471,-0.248567,0.141326,0.091734,-0.215428,-0.052643,0.079223,-0.011511,0.999999,0.000707,0.000459,-0.001077,-0.061675,-0.505846,0.572156,0.642615,101.788072,35.419115,-126.141347
44530,-5.642256,8.296094,-0.458844,-1.109902,0.597058,0.151366,0.005270,0.052012,-0.197574,-0.056342,0.083017,-0.004572,0.999999,0.000026,0.000260,-0.000988,-0.061193,-0.506531,0.571682,0.642543,101.824719,35.518803,-126.082786
44531,-6.151333,7.148826,-1.115812,0.178492,0.859082,-0.356489,-0.169212,-0.196369,-0.163169,-0.061444,0.071529,-0.011279,0.999999,-0.000846,-0.000982,-0.000816,-0.060556,-0.506263,0.570809,0.643590,101.658247,35.627977,-126.200706
44532,-6.160445,6.296251,-0.708076,0.318278,1.405681,-1.093860,0.245559,-0.471518,-0.161524,-0.061537,0.063021,-0.007149,0.999996,0.001228,-0.002358,-0.000808,-0.058086,-0.505230,0.571356,0.644144,101.618556,35.768086,-126.509237
44533,-6.088866,6.578868,0.891822,-1.009283,2.329274,-1.169369,0.507504,-0.628888,-0.236188,-0.060839,0.065838,0.008894,0.999991,0.002538,-0.003144,-0.001181,-0.054266,-0.503971,0.572595,0.644363,101.669520,35.968139,-126.916928
44534,-6.123117,6.188597,1.082634,-0.933648,2.591581,-1.483503,0.269248,-0.636063,-0.369453,-0.061151,0.061985,0.010715,0.999992,0.001346,-0.003180,-0.001847,-0.050593,-0.502999,0.572725,0.645305,101.590833,36.243907,-127.311646
44535,-5.357806,6.434297,-0.039905,-0.639945,1.200809,-1.550962,-0.131112,-0.581323,-0.487954,-0.053419,0.064473,-0.000597,0.999993,-0.000656,-0.002907,-0.002440,-0.047703,-0.502433,0.571240,0.647280,101.311281,36.578876,-127.654277
44536,-4.251067,7.041953,-0.959372,-0.835665,-0.414475,-1.584055,-0.698578,-0.454789,-0.528458,-0.042302,0.070497,-0.009936,0.999988,-0.003493,-0.002274,-0.002642,-0.046465,-0.502248,0.567778,0.650550,100.759554,36.920856,-127.906842
44537,-4.324747,7.919072,-1.336807,-0.940234,-1.030546,-0.798539,-1.298609,-0.287214,-0.499122,-0.043030,0.079209,-0.013944,0.999975,-0.006493,-0.001436,-0.002496,-0.047307,-0.502365,0.562375,0.655077,99.927329,37.226459,-128.051307
44538,-4.730994,8.069695,-2.284682,-0.062904,-1.602692,-0.318099,-1.808219,-0.241630,-0.497108,-0.047081,0.080603,-0.023633,0.999955,-0.009041,-0.001208,-0.002486,-0.049557,-0.502472,0.555261,0.660871,98.818654,37.524808,-128.170385
44539,-3.645385,7.417398,-3.825802,0.933090,-3.200346,-1.337501,-1.676751,-0.162580,-0.488716,-0.036242,0.073938,-0.038908,0.999962,-0.008384,-0.000813,-0.002444,-0.051723,-0.502806,0.548534,0.666049,97.813492,37.809851,-128.241396
44540,-2.344005,7.264771,-4.110432,0.675324,-4.219906,-2.269349,-1.668247,0.515419,-0.512278,-0.023361,0.072362,-0.041648,0.999959,-0.008341,0.002577,-0.002561,-0.055642,-0.505427,0.541560,0.669448,97.111924,38.057163,-127.827202
44541,-3.902955,6.994048,-3.057687,0.886589,-2.491247,-1.657594,-2.349640,1.283143,-0.485355,-0.039059,0.069672,-0.031146,0.999907,-0.011748,0.006416,-0.002427,-0.063447,-0.510284,0.532085,0.672659,96.360446,38.241371,-126.862854
44542,-6.743893,6.418890,-5.276953,4.252486,-1.912007,-0.180007,-1.440074,0.994304,-0.175508,-0.067646,0.063868,-0.052894,0.999961,-0.007200,0.004971,-0.000878,-0.069193,-0.513571,0.526484,0.673997,95.986896,38.274628,-126.133033
44543,-6.211876,6.371469,-5.098696,3.913183,-2.079450,-0.563772,0.537144,0.069291,0.263691,-0.062220,0.063769,-0.050794,0.999995,0.002686,0.000346,0.001318,-0.068908,-0.513244,0.528971,0.672326,96.308901,38.114394,-126.108794
44544,-4.820942,4.421546,-4.740268,3.829825,-1.861725,-2.947737,1.506268,-0.062266,0.458681,-0.048297,0.044460,-0.047083,0.999969,0.007531,-0.000311,0.002293,-0.066437,-0.512276,0.535243,0.668337,97.116666,37.852150,-126.198017
44545,-6.937365,4.435519,-4.156192,4.280016,-0.098655,-1.642936,2.720402,-0.076843,0.464184,-0.069461,0.044754,-0.040982,0.999905,0.013602,-0.000384,0.002321,-0.060831,-0.511582,0.545523,0.661050,98.609597,37.589118,-126.304626
44546,-8.838625,6.627608,-1.296581,1.894217,2.217364,0.921406,3.108707,-0.573664,0.524109,-0.088524,0.066238,-0.012190,0.999872,0.015543,-0.002868,0.002620,-0.053058,-0.509088,0.557269,0.653809,100.101083,37.341042,-126.780272
44547,-7.641294,7.998011,-0.791963,0.167374,1.419919,1.184471,3.229691,-0.886494,0.404621,-0.076542,0.079943,-0.006968,0.999858,0.016148,-0.004432,0.002023,-0.043701,-0.505798,0.569038,0.646881,101.534896,37.203424,-127.467605
44548,-5.017848,10.459674,-0.353444,-2.838016,-0.616181,1.424230,2.871202,-0.577150,0.242372,-0.050298,0.104574,-0.002178,0.999892,0.014355,-0.002886,0.001212,-0.035595,-0.503765,0.579027,0.640064,102.908772,37.132721,-127.915921
44549,-4.629065,11.790763,-0.520448,-3.809925,-1.212816,2.217630,2.326032,-0.033949,0.066498,-0.046329,0.117942,-0.003841,0.999932,0.011630,-0.000170,0.000332,-0.029866,-0.503794,0.586630,0.633376,104.216279,37.095199,-127.956890
44550,-5.781766,12.155304,-1.722584,-2.813771,-1.284357,3.400045,1.691953,0.346060,-0.060143,-0.057810,0.121710,-0.016097,0.999963,0.008460,0.001730,-0.000301,-0.026444,-0.505250,0.591788,0.627543,105.333202,37.073179,-127.711682
44551,-6.113267,10.911224,-2.602933,-1.501849,-1.215897,2.815319,0.934930,0.536946,-0.147080,-0.061121,0.109277,-0.025355,0.999985,0.004675,0.002685,-0.000735,-0.025227,-0.507435,0.594295,0.623447,106.105458,37.065937,-127.318230
44552,-5.979782,10.206901,-2.120463,-1.564873,-0.685099,2.083379,0.270638,0.679479,-0.166576,-0.059784,0.102147,-0.020863,0.999993,0.001353,0.003397,-0.000833,-0.026055,-0.510030,0.594651,0.620952,106.558734,37.043410,-126.822751
44553,-6.401828,9.556432,-0.721656,-1.953823,0.796706,1.517687,-0.184811,0.575032,-0.082398,-0.063999,0.095584,-0.007121,0.999995,-0.000924,0.002875,-0.000412,-0.027999,-0.511982,0.593815,0.620060,106.696577,36.989356,-126.416871
44554,-6.036405,7.868466,-0.776855,-1.126105,1.021710,0.018001,-0.393490,0.393866,-0.010110,-0.060375,0.078672,-0.007804,0.999996,-0.001967,0.001969,-0.000051,-0.030160,-0.513127,0.592537,0.620235,106.630883,36.925583,-126.150559
44555,-6.151730,5.526977,-1.774437,0.942865,1.089551,-1.478195,-0.311639,0.307007,0.022745,-0.061551,0.055235,-0.017736,0.999998,-0.001558,0.001535,0.000114,-0.031958,-0.513911,0.591606,0.620384,106.571477,36.857818,-125.950879
44556,-6.444881,3.792151,-2.534483,2.584677,1.271405,-2.461261,-0.148476,0.165346,0.015792,-0.064473,0.037898,-0.025320,0.999999,-0.000742,0.000827,0.000079,-0.032893,-0.514304,0.591185,0.620411,106.548371,36.817523,-125.846936
44557,-6.620472,4.261455,-2.950767,2.678515,0.960227,-1.900596,0.259372,-0.012791,-0.000007,-0.066203,0.042653,-0.029457,0.999999,0.001297,-0.000064,-0.000000,-0.032207,-0.514256,0.592016,0.619694,106.687198,36.814709,-125.862125
44558,-5.886624,6.365962,-2.306670,0.682042,0.319355,-0.872257,0.525024,-0.077492,-0.040313,-0.058845,0.063732,-0.022922,0.999996,0.002625,-0.000387,-0.000202,-0.030517,-0.514168,0.593575,0.618360,106.957049,36.845070,-125.913191
44559,-4.963109,7.111383,-3.471211,0.576878,-1.303504,-0.581136,0.319721,0.061567,-0.071241,-0.049616,0.071187,-0.034583,0.999999,0.001599,0.000308,-0.000356,-0.029675,-0.514567,0.594395,0.617280,107.169996,36.868940,-125.862526
44560,-4.927861,5.653231,-4.302098,1.930192,-1.469548,-1.514159,0.300837,0.241654,-0.076964,-0.049309,0.056616,-0.042876,0.999998,0.001504,0.001208,-0.000385,-0.029397,-0.515536,0.595114,0.615791,107.447155,36.865293,-125.687272
44561,-5.636586,4.439845,-4.750144,3.225087,-0.945299,-1.891067,0.723314,0.323963,-0.039217,-0.056434,0.044581,-0.047249,0.999992,0.003617,0.001620,-0.000196,-0.028392,-0.516702,0.597213,0.612821,107.994782,36.825441,-125.464263
44562,-5.727674,5.409196,-4.455262,2.440677,-0.909314,-1.144913,1.281723,0.338411,0.029384,-0.057360,0.054367,-0.044108,0.999978,0.006409,0.001692,0.000147,-0.026196,-0.517772,0.601180,0.608118,108.858482,36.743726,-125.247699
44563,-5.804399,6.639701,-3.417281,0.968750,-0.393962,-0.412731,1.727582,0.246021,0.150673,-0.058136,0.066645,-0.033526,0.999962,0.008638,0.001230,0.000753,-0.022936,-0.518224,0.606794,0.602262,109.921679,36.610942,-125.124219
44564,-5.534806,6.385868,-2.765892,0.472576,0.050618,-0.933718,1.859708,0.201124,0.286522,-0.055467,0.064032,-0.027008,0.999955,0.009298,0.001006,0.001433,-0.019603,-0.518101,0.613112,0.596055,111.020322,36.412580,-125.067980
44565,-6.228892,4.777337,-2.493098,1.521156,1.188973,-1.805874,1.996677,0.089312,0.388402,-0.062393,0.047898,-0.024425,0.999948,0.009983,0.000447,0.001942,-0.015875,-0.517295,0.620054,0.589650,112.134871,36.182470,-125.117188
44566,-7.455888,4.470929,-2.392326,2.152801,2.218094,-1.342302,2.109658,-0.029809,0.403376,-0.074646,0.044808,-0.023462,0.999942,0.010548,-0.000149,0.002017,-0.011528,-0.516044,0.627309,0.583138,113.262795,35.971793,-125.253837
44567,-8.245581,6.178540,-1.922379,1.086106,2.794030,0.230832,2.005758,-0.202657,0.311731,-0.082533,0.061846,-0.018687,0.999948,0.010029,-0.001013,0.001559,-0.006637,-0.514514,0.633965,0.577338,114.278574,35.851154,-125.480788
44568,-7.988590,10.001390,-1.682879,-1.725586,2.148047,2.800151,1.732961,-0.248094,0.129855,-0.079931,0.100103,-0.016061,0.999961,0.008665,-0.001240,0.000649,-0.001779,-0.513374,0.639310,0.572474,115.151303,35.839141,-125.685420
44569,-7.336355,14.876877,0.769608,-6.764452,2.727735,5.104944,1.188338,-0.398447,-0.084594,-0.073317,0.148751,0.008434,0.999980,0.005942,-0.001992,-0.000423,0.002776,-0.512454,0.642510,0.569706,115.693420,35.977172,-125.921320
44570,-4.426746,18.560614,1.752667,-11.188250,0.902887,5.717003,-0.402317,-0.343201,-0.287417,-0.044030,0.185704,0.017077,0.999995,-0.002012,-0.001716,-0.001437,0.003655,-0.512353,0.640644,0.571889,115.380809,36.206755,-126.060088
44571,-3.272884,17.215076,-0.930820,-9.174754,-1.795852,5.037328,-2.267351,0.062927,-0.353781,-0.032428,0.172088,-0.011249,0.999934,-0.011337,0.000315,-0.001769,-0.001357,-0.513622,0.633236,0.578967,114.163017,36.371686,-125.921289
44572,-3.976428,12.674787,-2.066442,-4.978615,-1.585764,2.573452,-3.340681,0.225076,-0.307981,-0.039594,0.126441,-0.022734,0.999859,-0.016703,0.001125,-0.001540,-0.009769,-0.515103,0.622709,0.588904,112.383367,36.478830,-125.694309
44573,-4.585592,8.218923,-3.253805,-0.885559,-1.298845,0.020211,-3.809600,0.324881,-0.215871,-0.045822,0.081600,-0.034022,0.999817,-0.019047,0.001624,-0.001079,-0.019972,-0.516398,0.610829,0.599852,110.356981,36.521566,-125.429617
44574,-5.704241,4.724889,-4.374826,2.699739,-0.602758,-1.667341,-3.518553,0.430372,-0.138233,-0.057105,0.046510,-0.044448,0.999843,-0.017592,0.002152,-0.000691,-0.029967,-0.517629,0.599806,0.609422,108.528410,36.509811,-125.114062
44575,-6.804185,4.145896,-4.498081,3.785379,0.161283,-1.484338,-2.610682,0.387536,-0.089113,-0.068111,0.040899,-0.045385,0.999913,-0.013053,0.001938,-0.000446,-0.037631,-0.518588,0.591534,0.616229,107.195568,36.485360,-124.838341
44576,-6.786544,5.792607,-4.774300,3.147519,-0.552599,-0.211015,-1.602272,0.151129,0.004963,-0.067903,0.057540,-0.048154,0.999968,-0.008011,0.000756,0.000025,-0.042262,-0.518672,0.586588,0.620571,106.334117,36.453059,-124.742549
44577,-5.974644,8.002547,-3.511532,0.758564,-0.938706,0.704483,-0.740107,-0.204937,0.128565,-0.059762,0.079856,-0.035472,0.999992,-0.003701,-0.001025,0.000643,-0.043998,-0.517447,0.584689,0.623259,105.807057,36.409777,-124.914540
44578,-4.504148,8.889848,-2.151692,-1.294744,-1.281386,0.218664,-0.280580,-0.389875,0.275110,-0.045121,0.088806,-0.021729,0.999996,-0.001403,-0.001949,0.001376,-0.044457,-0.515314,0.584636,0.625040,105.452643,36.313462,-125.240575
44579,-4.252628,8.033923,-1.534612,-1.339155,-0.748506,-0.722577,0.213569,-0.280037,0.433493,-0.042679,0.080263,-0.015320,0.999996,0.001068,-0.001400,0.002167,-0.044463,-0.513166,0.586505,0.625057,105.408797,36.111615,-125.520488
44580,-5.193146,7.257998,-1.597270,-0.416983,0.104218,-0.756549,0.440762,-0.067161,0.483257,-0.052101,0.072489,-0.015830,0.999995,0.002204,-0.000336,0.002416,-0.044661,-0.511585,0.589160,0.623841,105.576765,35.850356,-125.663831
44581,-6.246544,7.135678,-1.524589,0.103007,0.929517,-0.253042,0.388936,-0.009493,0.366521,-0.062595,0.071272,-0.015110,0.999996,0.001945,-0.000047,0.001833,-0.044801,-0.510508,0.591335,0.622653,105.750476,35.644485,-125.746443
44582,-6.482784,7.468048,-2.628322,0.799017,0.252285,0.385558,0.101029,-0.035877,0.173730,-0.064888,0.074637,-0.026257,0.999999,0.000505,-0.000179,0.000869,-0.044993,-0.509856,0.592127,0.622422,105.770930,35.549581,-125.810140
44583,-6.131318,8.198247,-2.291761,-0.007409,0.053503,0.677951,0.370953,-0.036689,0.003615,-0.061310,0.082024,-0.022777,0.999998,0.001855,-0.000183,0.000018,-0.043970,-0.509761,0.593322,0.621433,105.964088,35.548250,-125.841989
44584,-6.284887,9.358284,-0.142148,-2.072631,1.324450,1.189467,0.424650,-0.036478,-0.047790,-0.062826,0.093601,-0.001234,0.999998,0.002123,-0.000182,-0.000239,-0.042646,-0.509832,0.594552,0.620290,106.194530,35.575687,-125.863500
44585,-6.429441,8.339974,1.329551,-2.452903,2.738095,0.144553,-0.140874,-0.185513,-0.043994,-0.064288,0.083423,0.013177,0.999999,-0.000704,-0.000928,-0.000220,-0.042337,-0.509305,0.594066,0.621209,106.041092,35.624348,-125.986829
44586,-6.694605,6.124747,1.200765,-0.996039,3.440460,-1.389916,-0.336703,-0.328118,-0.111845,-0.066931,0.061305,0.011795,0.999997,-0.001684,-0.001641,-0.000559,-0.041887,-0.508496,0.592829,0.623082,105.727006,35.732758,-126.193975
44587,-6.634200,5.230404,0.399506,0.034691,3.067181,-1.931041,-0.191978,-0.513638,-0.242920,-0.066288,0.052388,0.003775,0.999996,-0.000960,-0.002568,-0.001215,-0.040116,-0.507521,0.591741,0.625025,105.434442,35.940832,-126.503920
44588,-5.304229,5.507357,-0.488279,-0.136171,1.453528,-2.291203,-0.220686,-0.658303,-0.271545,-0.052951,0.055140,-0.005118,0.999993,-0.001103,-0.003292,-0.001358,-0.037895,-0.506169,0.590516,0.627414,105.068857,36.185424,-126.909552
44589,-4.299902,6.321596,-2.065367,0.022838,-0.596833,-1.915823,-0.450543,-0.568090,-0.183471,-0.042882,0.063208,-0.020918,0.999993,-0.002253,-0.002840,-0.000917,-0.036802,-0.504788,0.588764,0.630232,104.594607,36.365343,-127.272842
44590,-4.259199,6.683374,-2.225535,-0.054395,-0.896463,-1.630124,-0.624636,-0.418383,-0.112832,-0.042507,0.066788,-0.022553,0.999993,-0.003123,-0.002092,-0.000564,-0.036807,-0.503633,0.586608,0.633159,104.073207,36.482513,-127.547626
44591,-4.570835,7.541502,-2.034019,-0.449051,-0.885681,-0.817285,-0.989894,-0.287581,-0.108309,-0.045638,0.075338,-0.020779,0.999987,-0.004949,-0.001438,-0.000542,-0.038133,-0.502799,0.583269,0.636817,103.393522,36.576755,-127.734758
44592,-4.234024,8.185274,-2.504836,-0.552359,-1.716246,-0.434655,-1.676504,-0.094160,-0.144956,-0.042269,0.081669,-0.025753,0.999964,-0.008382,-0.000471,-0.000725,-0.041626,-0.502535,0.577589,0.641964,102.403778,36.664823,-127.783078
44593,-2.958199,9.701914,-1.061283,-2.853582,-2.131069,-0.256706,-2.137566,0.388799,-0.158439,-0.029527,0.096922,-0.011592,0.999941,-0.010688,0.001944,-0.000792,-0.047630,-0.503713,0.570237,0.647174,101.350605,36.702422,-127.494043
44594,-2.804258,9.371662,-2.800523,-1.378970,-3.425925,-0.331466,-2.094938,0.863669,-0.049562,-0.028143,0.093424,-0.028863,0.999936,-0.010474,0.004318,-0.000248,-0.055223,-0.506069,0.563116,0.650957,100.512259,36.631372,-126.887298
44595,-6.150468,9.329146,-4.815481,1.859016,-2.666445,1.912607,-1.648610,0.949831,0.140211,-0.061800,0.092849,-0.048628,0.999955,-0.008243,0.004749,0.000701,-0.062546,-0.508235,0.557841,0.653145,99.949356,36.449994,-126.244366
44596,-5.617699,9.525215,-5.651976,2.269743,-3.638665,1.842336,-1.335621,0.359810,0.325940,-0.056434,0.094781,-0.057052,0.999975,-0.006678,0.001799,0.001630,-0.068024,-0.508021,0.554207,0.655852,99.307011,36.226201,-126.036341
44597,-4.104763,4.721430,-10.427179,7.470785,-5.911233,-2.255525,-0.273972,0.845389,0.282352,-0.041555,0.047013,-0.104161,0.999989,-0.001370,0.004227,0.001412,-0.072012,-0.509860,0.553758,0.654377,99.475033,35.981766,-125.483225
44598,-9.957129,2.243747,-7.621805,9.275203,0.774132,-1.115515,1.610768,0.406088,0.357843,-0.099766,0.022871,-0.075833,0.999964,0.008054,0.002030,0.001789,-0.070216,-0.510711,0.559800,0.648743,100.534210,35.734270,-125.249986
44599,-10.549004,3.646938,-0.581231,3.626881,5.294925,-0.662337,2.554577,-0.862479,0.366007,-0.105532,0.036350,-0.005803,0.999907,0.012772,-0.004312,0.001830,-0.062480,-0.507688,0.569299,0.643621,101.616990,35.617894,-125.902242
44600,-5.349412,4.672749,-0.444823,0.532978,1.637337,-2.907362,2.401437,-1.190333,0.293903,-0.053537,0.046700,-0.004206,0.999909,0.012007,-0.005951,0.001469,-0.053954,-0.503675,0.578119,0.639671,102.486482,35.590609,-126.771533
44601,-3.547773,5.834076,-1.601336,-0.193151,-0.645083,-2.831834,2.764544,-0.697471,0.211593,-0.035485,0.058518,-0.015329,0.999898,0.013822,-0.003487,0.001058,-0.045665,-0.501477,0.587648,0.633329,103.768473,35.558169,-127.289747
44602,-4.998000,8.168756,-1.976839,-0.601779,-0.568450,-0.069632,2.765185,-0.211729,0.131287,-0.050014,0.081918,-0.018690,0.999904,0.013825,-0.001059,0.000656,-0.038537,-0.500954,0.596750,0.625659,105.251640,35.510945,-127.463206
44603,-5.250542,9.452220,-3.001944,-0.662336,-1.355002,1.306910,2.241755,0.034026,0.093097,-0.052554,0.094826,-0.028949,0.999937,0.011209,0.000170,0.000465,-0.033330,-0.501132,0.603977,0.618844,106.534942,35.449368,-127.464288
44604,-4.167887,9.616954,-2.752512,-1.607611,-1.788094,0.753721,1.679994,0.324368,0.068899,-0.041756,0.096381,-0.026648,0.999963,0.008400,0.001622,0.000344,-0.030327,-0.502139,0.609296,0.612939,107.611565,35.352494,-127.266787
44605,-4.814790,10.751173,-1.297137,-3.003986,-0.497122,1.640676,1.122153,0.598744,0.039506,-0.048206,0.107572,-0.012224,0.999980,0.005611,0.002994,0.000198,-0.029471,-0.503962,0.612757,0.608015,108.476206,35.219866,-126.882142
44606,-6.079503,11.427082,-0.566768,-3.322985,0.774825,2.685977,0.438697,0.545778,0.074025,-0.060852,0.114260,-0.005251,0.999994,0.002193,0.002729,0.000370,-0.030277,-0.505406,0.614218,0.605297,108.922507,35.075007,-126.542893
44607,-6.334248,10.085149,-1.019246,-2.143829,0.994405,1.904262,-0.067139,0.423047,0.115246,-0.063422,0.100812,-0.010092,0.999998,-0.000336,0.002115,0.000576,-0.032112,-0.506269,0.614266,0.604432,109.025158,34.928904,-126.295751
44608,-6.278178,7.762799,-1.880918,-0.244817,0.927516,0.301370,-0.367584,0.323021,0.096807,-0.062850,0.077563,-0.018850,0.999997,-0.001838,0.001615,0.000484,-0.034341,-0.506837,0.613371,0.604742,108.919947,34.811875,-126.110777
44609,-6.355720,5.589868,-2.259592,1.318661,1.250533,-1.242691,-0.327910,0.238792,0.055220,-0.063600,0.055844,-0.022612,0.999998,-0.001640,0.001194,0.000276,-0.036089,-0.507280,0.612502,0.605149,108.810434,34.732843,-125.972097
44610,-6.484743,4.902263,-3.300356,2.472867,0.777863,-1.430786,-0.142941,0.103889,0.008857,-0.064867,0.048996,-0.033005,1.000000,-0.000715,0.000519,0.000044,-0.036810,-0.507492,0.612099,0.605337,108.762482,34.704448,-125.911870
44611,-6.097735,5.647622,-2.548950,1.355590,0.868137,-1.269630,0.298525,-0.050060,-0.053293,-0.060956,0.056530,-0.025420,0.999999,0.001493,-0.000250,-0.000266,-0.035756,-0.507506,0.612901,0.604576,108.917193,34.737856,-125.939357
44612,-5.546805,6.133532,-2.615187,0.833794,0.339559,-1.186221,0.288440,-0.028687,-0.091254,-0.055436,0.061398,-0.026071,0.999999,0.001442,-0.000143,-0.000456,-0.034674,-0.507700,0.613571,0.603796,109.079499,34.788242,-125.943923
44613,-5.779547,5.178164,-3.265236,1.906223,0.273175,-1.616959,0.322086,-0.009978,-0.108068,-0.057766,0.051865,-0.032572,0.999999,0.001610,-0.000050,-0.000540,-0.033516,-0.508005,0.614294,0.602869,109.270079,34.843940,-125.932216
44614,-6.097800,5.244250,-3.671554,2.258719,0.186137,-1.266982,0.477109,-0.019330,-0.128907,-0.060941,0.052569,-0.036596,0.999997,0.002386,-0.000097,-0.000645,-0.031869,-0.508371,0.615432,0.601488,109.549248,34.912917,-125.921445
44615,-6.028116,7.210880,-3.282200,0.777351,-0.049794,0.112073,0.544098,-0.061322,-0.165857,-0.060211,0.072248,-0.032644,0.999996,0.002720,-0.000307,-0.000829,-0.029814,-0.508730,0.616679,0.600010,109.855968,35.009687,-125.929234
44616,-5.332517,9.376851,-2.484822,-1.399801,-0.450530,1.158767,0.434226,-0.055926,-0.189676,-0.053229,0.093873,-0.024659,0.999997,0.002171,-0.000280,-0.000948,-0.027981,-0.509160,0.617531,0.598856,110.105610,35.118459,-125.927139
44617,-4.506042,10.195686,-2.856272,-2.070281,-1.458740,1.412317,-0.085382,0.051600,-0.181544,-0.044975,0.101986,-0.028595,0.999999,-0.000427,0.000258,-0.000908,-0.027830,-0.509812,0.616830,0.599031,110.097074,35.201458,-125.856027
44618,-4.248082,9.116166,-3.561157,-1.081673,-1.896384,0.630783,-0.553772,0.202755,-0.113992,-0.042465,0.091087,-0.035821,0.999995,-0.002769,0.001014,-0.000570,-0.029539,-0.510641,0.614875,0.600251,109.868482,35.218828,-125.701580
44619,-5.235008,6.492086,-3.137793,0.701030,-0.324590,-0.935675,-0.548519,0.223748,-0.009743,-0.052382,0.064837,-0.031497,0.999996,-0.002743,0.001119,-0.000049,-0.031614,-0.511208,0.613194,0.601382,109.636280,35.176082,-125.558174
44620,-6.742783,3.660250,-3.104627,3.085979,1.398650,-2.261413,-0.395399,0.204443,0.064940,-0.067471,0.036519,-0.031050,0.999997,-0.001977,0.001022,0.000325,-0.033461,-0.511510,0.612162,0.602076,109.474584,35.097462,-125.444876
44621,-8.281808,2.571462,-3.556005,4.762771,2.383990,-2.100455,-0.086573,0.011944,0.087098,-0.082831,0.025663,-0.035566,1.000000,-0.000433,0.000060,0.000435,-0.033997,-0.511214,0.612148,0.602312,109.413602,35.043510,-125.463778
44622,-7.446442,4.543905,-4.279303,3.685380,0.829503,-0.860655,0.447995,-0.189904,0.069882,-0.074440,0.045509,-0.042762,0.999997,0.002240,-0.000950,0.000349,-0.032494,-0.510453,0.613731,0.601428,109.584937,35.037730,-125.611810
44623,-6.316230,9.960468,-1.150689,-2.118763,0.986502,1.804834,1.179805,-0.494414,0.057136,-0.063163,0.099653,-0.011075,0.999980,0.005899,-0.002472,0.000286,-0.028151,-0.508921,0.617518,0.599064,110.061953,35.098611,-125.957450
44624,-4.595664,13.695937,0.444892,-6.244436,0.154686,3.221096,0.598035,-0.400965,0.002524,-0.045968,0.136945,0.004766,0.999994,0.002990,-0.002005,0.000013,-0.025412,-0.507743,0.619393,0.598250,110.248381,35.172117,-126.228281
44625,-3.860550,14.086116,0.161760,-6.649984,-0.625787,3.177092,-0.464337,-0.112709,-0.047677,-0.038573,0.140874,0.001269,0.999997,-0.002322,-0.000564,-0.000238,-0.026114,-0.507443,0.617920,0.599995,109.941848,35.215517,-126.297562
44626,-3.711057,11.122779,-1.793529,-3.634226,-1.501116,1.378487,-1.278835,0.171937,-0.095026,-0.037074,0.111128,-0.018614,0.999979,-0.006394,0.000860,-0.000475,-0.029618,-0.508024,0.613832,0.603526,109.283467,35.229391,-126.168059
44627,-4.602100,9.347177,-3.019673,-1.262682,-1.434192,0.865086,-1.469839,0.375644,-0.061562,-0.046050,0.093261,-0.030796,0.999971,-0.007349,0.001878,-0.000308,-0.034335,-0.509062,0.609192,0.607093,108.588501,35.188143,-125.911431
44628,-5.839727,8.835648,-3.402471,-0.019385,-0.809943,1.281933,-1.276964,0.357394,0.048690,-0.058480,0.088123,-0.034483,0.999978,-0.006385,0.001787,0.000243,-0.038835,-0.509719,0.605390,0.610067,107.983548,35.092939,-125.690701
44629,-6.539569,8.893264,-2.067682,-0.536309,0.545223,1.392056,-0.634434,0.161648,0.149638,-0.065479,0.088818,-0.020906,0.999994,-0.003172,0.000808,0.000748,-0.041416,-0.509581,0.603827,0.611560,107.659017,34.978046,-125.621479
44630,-6.105468,9.335472,0.291902,-2.540589,1.776222,0.906611,-0.124285,-0.099579,0.214060,-0.061156,0.093291,0.002831,0.999999,-0.000621,-0.000498,0.001070,-0.042101,-0.508554,0.604037,0.612160,107.520018,34.873845,-125.739264
44631,-5.029368,9.766691,0.810563,-3.608706,1.301078,0.513202,-0.379298,-0.209976,0.222830,-0.050411,0.097626,0.007868,0.999997,-0.001896,-0.001050,0.001114,-0.043132,-0.507104,0.603510,0.613808,107.191767,34.782881,-125.931960
44632,-4.827384,8.662828,-0.073621,-2.433987,0.814386,-0.233256,-0.925135,-0.087895,0.136426,-0.048332,0.086591,-0.001158,0.999989,-0.004626,-0.000439,0.000682,-0.045645,-0.506168,0.601054,0.616802,106.608643,34.718140,-126.024426
44633,-5.420365,7.199105,-1.766134,-0.111758,0.372954,-0.638044,-1.488156,-0.021728,-0.027919,-0.054192,0.071865,-0.018202,0.999972,-0.007441,-0.000109,-0.000140,-0.049279,-0.505778,0.596407,0.621337,105.746149,34.731825,-126.039888
44634,-5.644051,6.314644,-3.542725,1.787248,-0.525338,-0.823275,-1.666076,-0.042259,-0.210716,-0.056367,0.062908,-0.035964,0.999965,-0.008330,-0.000211,-0.001054,-0.052725,-0.505797,0.590713,0.626457,104.793638,34.849937,-126.035620
44635,-5.131278,6.899571,-3.872703,1.551846,-1.336713,-0.607488,-1.598718,0.030863,-0.281654,-0.051222,0.068755,-0.039269,0.999967,-0.007994,0.000154,-0.001408,-0.055996,-0.506234,0.584990,0.631172,103.913042,34.996584,-125.972074
44636,-5.191710,7.025095,-3.205044,1.126435,-0.939188,-0.624292,-1.273169,0.227167,-0.177190,-0.051892,0.070091,-0.032438,0.999979,-0.006366,0.001136,-0.000886,-0.059339,-0.507053,0.580473,0.634372,103.285261,35.059781,-125.794287
44637,-5.611140,6.696492,-1.883858,0.600052,0.309610,-0.900849,-0.523964,0.255511,-0.045895,-0.056120,0.066928,-0.018942,0.999996,-0.002620,0.001278,-0.000229,-0.061284,-0.507786,0.578641,0.635274,103.084718,35.046617,-125.618981
44638,-6.390220,6.695527,-1.094024,0.412474,1.363919,-0.602289,0.211180,0.073637,0.082423,-0.063934,0.066940,-0.010846,0.999999,0.001056,0.000368,0.000412,-0.061239,-0.507796,0.579524,0.634464,103.223283,34.986118,-125.587746
44639,-6.390970,7.256851,-1.069036,0.101129,1.220228,-0.161262,0.531792,-0.308467,0.158327,-0.063951,0.072546,-0.010596,0.999995,0.002659,-0.001542,0.000792,-0.059518,-0.506467,0.581729,0.633672,103.388789,34.933194,-125.829098
44640,-6.078872,6.979841,-0.990872,0.030503,1.174400,-0.578377,0.796196,-0.545123,0.195171,-0.060830,0.069778,-0.009797,0.999988,0.003981,-0.002726,0.000976,-0.056550,-0.504353,0.584927,0.632685,103.611095,34.892488,-126.237126
44641,-6.402973,6.626663,0.192065,-0.480267,2.341417,-0.911313,1.481002,-0.671222,0.131870,-0.064080,0.066209,0.002196,0.999967,0.007405,-0.003356,0.000659,-0.051288,-0.502194,0.590139,0.630005,104.182155,34.906296,-126.720520
44642,-6.063102,6.767944,0.944770,-1.273796,2.650870,-1.163482,1.700766,-0.739073,0.019713,-0.060673,0.067591,0.009799,0.999957,0.008504,-0.003695,0.000099,-0.044912,-0.500173,0.595735,0.626825,104.864372,34.996756,-127.230045
44643,-5.078154,7.180399,-0.020913,-1.364627,1.259380,-1.216309,1.204831,-0.633478,-0.078572,-0.050753,0.071824,0.000063,0.999977,0.006024,-0.003167,-0.000393,-0.039784,-0.498628,0.599466,0.624842,105.312330,35.129637,-127.650141
44644,-4.671570,8.108919,-1.046781,-1.419445,0.024034,-0.503636,0.351667,-0.376820,-0.159481,-0.046631,0.081145,-0.010413,0.999996,0.001758,-0.001884,-0.000797,-0.037295,-0.497947,0.600265,0.624772,105.380169,35.270167,-127.881386
44645,-5.377432,8.340874,-0.727433,-1.409270,0.612084,0.018647,-0.489927,-0.168954,-0.287216,-0.053648,0.083468,-0.007524,0.999996,-0.002450,-0.000845,-0.001436,-0.037130,-0.498134,0.598071,0.626734,105.059047,35.449320,-127.949288
44646,-6.349280,7.851966,-0.959120,-0.467310,1.125251,0.257109,-1.434562,-0.042198,-0.509819,-0.063290,0.078610,-0.010168,0.999971,-0.007173,-0.000211,-0.002549,-0.038993,-0.499196,0.592321,0.631220,104.269436,35.733243,-127.893122
44647,-6.765762,6.726518,-2.363069,1.363132,0.604432,-0.097742,-2.191616,-0.013647,-0.748675,-0.067404,0.067253,-0.024372,0.999933,-0.010958,-0.000068,-0.003743,-0.042078,-0.500856,0.583520,0.637869,103.076898,36.146717,-127.783513
44648,-6.095664,6.559662,-3.510508,2.004850,-0.718060,-0.433350,-2.598440,-0.060627,-0.870992,-0.060661,0.065398,-0.035974,0.999906,-0.012992,-0.000303,-0.004355,-0.045642,-0.502561,0.573035,0.645740,101.637988,36.636639,-127.698817
44649,-4.098138,7.553785,-4.708350,1.497100,-3.305218,-0.710383,-2.872689,-0.069025,-0.764339,-0.040678,0.075007,-0.048177,0.999889,-0.014363,-0.000345,-0.003822,-0.050211,-0.503765,0.561815,0.654266,100.019903,37.068813,-127.650558
44650,0.014319,8.278106,-5.863674,0.165994,-7.078821,-2.548627,-2.660650,0.752820,-0.500044,0.000125,0.081991,-0.059732,0.999901,-0.013303,0.003764,-0.002500,-0.057404,-0.506865,0.551632,0.659920,98.849992,37.275520,-127.063196
44651,-1.481963,5.651369,-2.192626,-0.385934,-2.704651,-4.202213,-1.269012,1.675670,-0.176950,-0.014955,0.056387,-0.022159,0.999944,-0.006345,0.008378,-0.000885,-0.064678,-0.512439,0.546510,0.659204,98.851767,37.222307,-125.857553
44652,-7.149661,8.379277,-3.132467,1.694819,-0.718031,1.490151,-0.122324,0.503395,0.162628,-0.071643,0.083715,-0.031196,0.999996,-0.000612,0.002517,0.000813,-0.066921,-0.513564,0.546385,0.658208,98.982962,37.080295,-125.523676
44653,-4.169099,5.231408,-6.950322,4.671535,-3.869026,-2.311797,0.051022,-0.102630,0.393526,-0.041758,0.052250,-0.069511,0.999998,0.000255,-0.000513,0.001968,-0.067828,-0.512115,0.547622,0.658215,98.937812,36.861020,-125.646011
44654,-6.383481,-1.216239,-8.461759,9.850659,-0.900382,-5.815087,2.356991,0.601385,0.541981,-0.064058,-0.011339,-0.084562,0.999922,0.011785,0.003007,0.002710,-0.065236,-0.513322,0.556547,0.650001,100.498492,36.491599,-125.293471
44655,-11.066958,2.452273,-1.792243,5.247473,5.187241,-1.022944,4.176166,-0.431690,0.433380,-0.110685,0.024653,-0.017647,0.999777,0.020879,-0.002158,0.002167,-0.054731,-0.511910,0.571275,0.639216,102.672102,36.292646,-125.662157
44656,-7.528761,8.475588,-0.375739,-0.621223,1.852125,1.360483,3.095590,-0.974826,0.170550,-0.075345,0.084740,-0.002813,0.999868,0.015477,-0.004874,0.000853,-0.044579,-0.509038,0.581822,0.632753,104.026030,36.321628,-126.370418
44657,-4.698105,10.492553,-2.926609,-1.433179,-2.268218,1.742759,2.150709,-0.531398,-0.043819,-0.046882,0.105243,-0.028260,0.999939,0.010753,-0.002657,-0.000219,-0.037435,-0.507883,0.588623,0.627835,105.041879,36.417427,-126.734672
44658,-6.442303,12.629866,-2.487763,-2.263123,-1.363308,4.337235,1.961907,-0.131410,-0.140591,-0.064318,0.126580,-0.023679,0.999951,0.009809,-0.000657,-0.000703,-0.031638,-0.508177,0.594446,0.622406,106.124347,36.510537,-126.804110
44659,-5.533993,10.776721,-3.224844,-1.342429,-1.817307,2.518365,1.544119,0.084213,-0.271923,-0.055206,0.108087,-0.031391,0.999969,0.007721,0.000421,-0.001360,-0.027135,-0.509426,0.598554,0.617642,107.072262,36.641216,-126.697357
44660,-4.882359,6.856875,-5.271365,1.815442,-2.514489,-0.377580,1.266968,0.578318,-0.401201,-0.048837,0.068998,-0.052136,0.999974,0.006335,0.002892,-0.002006,-0.024414,-0.512522,0.601376,0.612432,108.081190,36.755761,-126.223198
44661,-6.155108,7.353416,-2.589448,0.231754,0.147258,0.116350,1.484288,0.592579,-0.439165,-0.061464,0.073858,-0.025165,0.999966,0.007421,0.002963,-0.002196,-0.021064,-0.515770,0.604729,0.606499,109.228444,36.880776,-125.727316
44662,-5.929961,9.502444,-0.577748,-2.594740,0.927122,1.059340,1.067611,0.416400,-0.339009,-0.059150,0.095153,-0.005147,0.999982,0.005338,0.002082,-0.001695,-0.018555,-0.518111,0.607063,0.602239,110.053784,36.979176,-125.371154
44663,-4.880871,9.783292,-1.305204,-2.865548,-0.298483,0.814559,0.544440,0.318210,-0.203816,-0.048729,0.097918,-0.012708,0.999995,0.002722,0.001591,-0.001019,-0.017513,-0.519685,0.608168,0.599794,110.520609,37.020870,-125.113039
44664,-4.745927,8.632054,-2.644551,-1.400747,-1.014332,0.239119,0.121609,0.317322,-0.083852,-0.047465,0.086356,-0.026318,0.999998,0.000608,0.001587,-0.000419,-0.017924,-0.520852,0.608311,0.598623,110.726919,36.997543,-124.885463
44665,-6.234333,7.201760,-4.533766,1.360893,-0.989325,0.601555,0.026015,0.282388,-0.005745,-0.062405,0.072025,-0.045240,0.999999,0.000130,0.001412,-0.000029,-0.018715,-0.521665,0.608375,0.597826,110.851961,36.938518,-124.701461
44666,-6.561913,7.279330,-4.226909,1.250881,-0.552866,0.772380,0.272230,0.164673,0.046356,-0.065671,0.072835,-0.042116,0.999999,0.001361,0.000823,0.000232,-0.018658,-0.521991,0.609318,0.596580,111.062579,36.875747,-124.609878
44667,-5.189233,6.581623,-3.754374,0.738740,-0.917217,-0.704771,0.127344,0.227241,0.112999,-0.051972,0.065811,-0.037443,0.999999,0.000637,0.001136,0.000565,-0.019372,-0.522285,0.609998,0.595605,111.204492,36.763776,-124.494101
44668,-5.957259,4.280560,-3.933574,2.610519,0.079156,-1.909273,0.269656,0.261451,0.213080,-0.059669,0.042795,-0.039200,0.999998,0.001348,0.001307,0.001065,-0.020113,-0.522389,0.611357,0.594094,111.425497,36.591403,-124.382169
44669,-7.537492,2.466398,-3.313988,4.032076,2.048105,-2.503311,0.749575,0.100248,0.267225,-0.075424,0.024687,-0.033010,0.999992,0.003748,0.000501,0.001336,-0.019271,-0.521891,0.614293,0.591526,111.848325,36.423344,-124.392737
44670,-8.237950,2.562274,-2.933531,4.031825,2.777238,-2.127248,0.971566,-0.065255,0.217815,-0.082398,0.025675,-0.029238,0.999988,0.004858,-0.000326,0.001089,-0.017193,-0.521066,0.617759,0.588700,112.340531,36.317659,-124.500840
44671,-8.180007,4.449250,-3.083333,2.891188,2.206906,-0.703044,1.299782,-0.127733,0.097970,-0.081802,0.044652,-0.030596,0.999979,0.006499,-0.000639,0.000490,-0.013714,-0.520438,0.621865,0.585013,113.015481,36.289858,-124.618265
44672,-7.836545,9.285675,-2.013873,-1.061183,1.696954,2.339839,1.466122,-0.237295,-0.038091,-0.078324,0.093016,-0.019550,0.999972,0.007331,-0.001186,-0.000190,-0.009061,-0.519899,0.626078,0.581076,113.765692,36.359876,-124.769288
44673,-6.380969,13.941020,0.321151,-6.247059,1.487293,4.113272,1.225995,-0.396678,-0.153379,-0.063710,0.139436,0.003940,0.999979,0.006130,-0.001983,-0.000767,-0.004199,-0.519221,0.629272,0.578281,114.336937,36.528773,-124.989691
44674,-4.174330,16.027033,1.398563,-9.333206,0.417381,3.933721,0.134000,-0.261031,-0.246455,-0.041564,0.160312,0.014039,0.999998,0.000670,-0.001305,-0.001232,-0.002329,-0.519194,0.629049,0.578558,114.351168,36.715181,-125.093944
44675,-2.948946,13.941421,-0.513004,-7.360085,-1.417098,2.317497,-1.177589,0.067883,-0.269589,-0.029303,0.139420,-0.005941,0.999982,-0.005888,0.000339,-0.001348,-0.004834,-0.520163,0.624955,0.582098,113.745155,36.836206,-124.978130
44676,-3.513093,11.158361,-2.805254,-3.793985,-2.232101,1.382870,-1.823802,0.368601,-0.194267,-0.035076,0.111356,-0.029004,0.999956,-0.009119,0.001843,-0.000971,-0.010176,-0.521727,0.619130,0.586835,112.874007,36.850862,-124.687669
44677,-4.668244,9.328364,-2.987101,-1.857958,-1.282988,0.800212,-1.750539,0.430017,-0.004756,-0.046745,0.093019,-0.030585,0.999959,-0.008753,0.002150,-0.000024,-0.016077,-0.522840,0.613960,0.591128,112.037097,36.754690,-124.409056
44678,-5.558882,7.805574,-0.939524,-1.709808,1.071736,-0.397901,-1.254626,0.314213,0.195338,-0.055680,0.077941,-0.009797,0.999979,-0.006273,0.001571,0.000977,-0.020912,-0.523008,0.610749,0.594147,111.407521,36.579938,-124.258968
44679,-6.226938,7.107138,0.448421,-1.810180,2.632800,-0.908843,-1.142789,0.221140,0.246413,-0.062352,0.071019,0.004147,0.999982,-0.005714,0.001106,0.001232,-0.025326,-0.522731,0.607990,0.597042,110.797551,36.397839,-124.182105
44680,-6.473266,6.668788,0.276823,-1.257932,2.742798,-1.018005,-1.543081,0.112965,0.090691,-0.064762,0.066677,0.002290,0.999970,-0.007715,0.000565,0.000453,-0.029986,-0.522532,0.603614,0.601425,109.940503,36.322323,-124.135843
44681,-6.302201,6.584009,-1.744139,0.144291,1.167934,-0.608212,-2.077760,-0.037601,-0.174898,-0.062961,0.065709,-0.018136,0.999946,-0.010389,-0.000188,-0.000874,-0.034793,-0.522554,0.596906,0.607807,108.754410,36.419156,-124.126685
44682,-5.134280,7.830944,-2.790720,-0.276772,-0.804698,-0.078972,-2.328977,-0.152313,-0.365891,-0.051178,0.078071,-0.028856,0.999930,-0.011645,-0.000762,-0.001829,-0.039323,-0.522692,0.588884,0.615193,107.402562,36.641038,-124.155389
44683,-4.023282,8.265284,-3.912247,-0.088469,-2.574185,-0.160281,-2.479133,-0.013785,-0.282078,-0.040114,0.082216,-0.040146,0.999922,-0.012395,-0.000069,-0.001410,-0.044911,-0.522899,0.580502,0.622556,106.006119,36.793020,-124.113483
44684,-4.219078,7.301009,-4.076336,0.802040,-2.336824,-0.778522,-1.827146,0.221071,-0.053778,-0.042217,0.072645,-0.041381,0.999958,-0.009136,0.001105,-0.000269,-0.050177,-0.523262,0.574626,0.627283,105.052608,36.784084,-123.956983
44685,-6.012207,6.814292,-4.095551,1.977472,-1.023859,-0.096942,-0.877271,0.268585,0.131859,-0.060222,0.067923,-0.041173,0.999989,-0.004386,0.001343,0.000659,-0.053678,-0.523448,0.572172,0.629079,104.641717,36.666287,-123.801932
44686,-7.595528,7.122530,-3.193146,1.902881,0.538285,0.897490,0.348134,-0.095814,0.268297,-0.076036,0.071179,-0.031844,0.999997,0.001741,-0.000479,0.001341,-0.053353,-0.522422,0.574020,0.628275,104.768792,36.526754,-123.922762
44687,-6.876491,8.097681,-2.173045,0.311024,0.452522,1.016846,1.202266,-0.465159,0.379799,-0.068869,0.080975,-0.021404,0.999977,0.006011,-0.002326,0.001899,-0.050091,-0.520128,0.578926,0.625942,105.221245,36.380234,-124.319153
44688,-6.162050,8.950381,-0.934917,-1.398108,0.616059,0.986329,1.693915,-0.572362,0.466666,-0.061804,0.089436,-0.008768,0.999957,0.008469,-0.002862,0.002333,-0.045503,-0.517339,0.585586,0.622398,105.903112,36.205930,-124.806255
44689,-5.745574,9.716978,0.299001,-2.915168,1.057955,1.045577,1.434979,-0.529468,0.526825,-0.057720,0.096994,0.003534,0.999967,0.007175,-0.002647,0.002634,-0.041900,-0.514405,0.591541,0.619444,106.446823,35.995362,-125.277344
44690,-5.897318,9.514656,0.915072,-3.169646,1.749178,0.819218,0.918375,-0.355817,0.502141,-0.059228,0.094955,0.009482,0.999985,0.004592,-0.001779,0.002511,-0.040055,-0.511953,0.595768,0.617544,106.768182,35.773309,-125.626190
44691,-6.139852,9.350082,1.684021,-3.480139,2.564653,0.640477,0.526464,-0.217671,0.332827,-0.061572,0.093354,0.017019,0.999995,0.002632,-0.001088,0.001664,-0.039108,-0.510339,0.598310,0.616482,106.939455,35.621806,-125.847770
44692,-6.799313,8.630543,1.950166,-2.932277,3.419227,0.396656,0.047320,-0.060049,0.078221,-0.068033,0.086274,0.019502,1.000000,0.000237,-0.000300,0.000391,-0.039063,-0.509879,0.598692,0.616494,106.929669,35.584366,-125.910541
44693,-7.251309,8.636721,0.531241,-1.742547,2.695561,1.011068,-0.854897,0.055879,-0.198079,-0.072426,0.086461,0.004963,0.999990,-0.004274,0.000279,-0.000990,-0.040821,-0.510419,0.595559,0.618964,106.480059,35.678722,-125.839274
44694,-6.935919,8.337228,-1.515555,-0.274965,1.057971,1.083024,-1.719217,-0.014755,-0.362134,-0.069207,0.083363,-0.015877,0.999961,-0.008596,-0.000074,-0.001811,-0.044057,-0.511031,0.589319,0.624186,105.526430,35.875827,-125.784939
44695,-5.903285,8.297320,-3.092147,0.455948,-0.829647,0.787133,-2.129713,-0.208134,-0.424104,-0.058824,0.082762,-0.031865,0.999941,-0.010648,-0.001041,-0.002120,-0.047581,-0.511078,0.581622,0.631071,104.262553,36.136034,-125.856729
44696,-5.209870,7.860386,-4.046147,1.175860,-1.941796,0.194438,-2.302886,-0.359167,-0.408374,-0.051865,0.078236,-0.041457,0.999930,-0.011514,-0.001796,-0.002042,-0.051146,-0.510499,0.573383,0.638754,102.832639,36.406825,-126.042828
44697,-4.733265,6.681056,-4.697813,2.178374,-2.425941,-0.954016,-2.207454,-0.462836,-0.351820,-0.047106,0.066369,-0.047821,0.999935,-0.011037,-0.002314,-0.001759,-0.054349,-0.509378,0.565539,0.646333,101.402101,36.654055,-126.319063
44698,-3.429171,4.339503,-6.105702,3.884050,-3.470353,-3.429973,-1.938323,-0.350849,-0.266471,-0.034127,0.042846,-0.061534,0.999951,-0.009691,-0.001754,-0.001332,-0.057447,-0.508397,0.558689,0.652762,100.161662,36.836534,-126.535532
44699,-3.327892,1.997939,-6.343505,5.250090,-2.845781,-5.380526,-1.511793,0.091995,-0.217447,-0.033287,0.019535,-0.063569,0.999971,-0.007559,0.000460,-0.001087,-0.060860,-0.508802,0.553184,0.656813,99.345671,36.944657,-126.450086
44700,-4.522964,1.056649,-5.388852,5.612329,-1.060771,-5.571248,-0.812265,0.372259,-0.138311,-0.045323,0.010379,-0.053847,0.999990,-0.004061,0.001861,-0.000692,-0.063519,-0.510107,0.550072,0.658162,99.044589,36.983573,-126.176242
44701,-4.048607,1.353730,-1.355288,2.259450,1.205280,-6.138082,0.123563,0.621943,0.046666,-0.040531,0.013536,-0.013419,0.999995,0.000618,0.003110,0.000233,-0.065090,-0.512010,0.550423,0.656234,99.372435,36.894470,-125.747206
44702,-2.938869,2.239441,-0.525814,0.684514,0.715423,-6.214351,0.742202,0.609812,0.355627,-0.029444,0.022361,-0.005085,0.999987,0.003711,0.003049,0.001778,-0.066053,-0.513219,0.553589,0.652520,100.025652,36.629569,-125.365716
44703,-4.759804,3.299567,-5.124939,4.387727,-1.462051,-3.614545,1.912270,0.438067,0.499945,-0.047793,0.033364,-0.050827,0.999949,0.009561,0.002190,0.002500,-0.064008,-0.513818,0.560963,0.645921,101.260284,36.296224,-125.130595
44704,-6.123775,5.645742,-5.746277,4.206002,-1.757003,-0.778623,2.517308,0.046641,0.536964,-0.061404,0.057010,-0.056733,0.999917,0.012586,0.000233,0.002685,-0.059418,-0.513177,0.570437,0.638530,102.671355,35.984708,-125.182968
44705,-6.303041,7.385749,-6.926387,4.075978,-2.926042,1.007256,2.773995,0.064461,0.467993,-0.063227,0.074661,-0.068212,0.999901,0.013870,0.000322,0.002340,-0.053992,-0.512771,0.580445,0.630265,104.237611,35.710162,-125.221584
44706,-8.791459,8.185166,-4.282701,2.728861,0.396856,2.637917,3.415151,-0.238681,0.534438,-0.088084,0.082333,-0.041529,0.999850,0.017075,-0.001193,0.002672,-0.046235,-0.511264,0.592580,0.620742,106.038848,35.445558,-125.488252
44707,-8.783638,10.715357,0.184704,-1.938097,2.944582,3.587660,3.631606,-0.722408,0.432398,-0.088078,0.106910,0.003472,0.999826,0.018157,-0.003612,0.002162,-0.036163,-0.508441,0.605047,0.611636,107.783260,35.324098,-126.068553
44708,-5.700099,11.164177,-0.110059,-3.647827,0.825500,2.151745,2.816418,-0.681489,0.178342,-0.057100,0.111593,0.000277,0.999895,0.014082,-0.003407,0.000892,-0.027497,-0.506223,0.614198,0.604767,109.107406,35.346255,-126.568577
44709,-4.855867,11.401801,-1.041248,-3.760920,-0.269887,2.038177,2.082334,-0.201168,-0.061317,-0.048514,0.114133,-0.009273,0.999945,0.010411,-0.001006,-0.000307,-0.021438,-0.506011,0.620358,0.598873,110.227547,35.413561,-126.693708
44710,-5.897196,11.647881,-3.076005,-2.236134,-1.023802,3.373017,0.513939,0.230169,-0.307926,-0.058828,0.116648,-0.030393,0.999995,0.002570,0.001151,-0.001540,-0.019943,-0.507657,0.621115,0.596743,110.649802,35.528561,-126.472881
44711,-5.908670,11.895138,-4.489003,-1.531568,-2.102190,3.963841,-0.465834,0.441734,-0.499114,-0.058889,0.118994,-0.045037,0.999992,-0.002329,0.002209,-0.002496,-0.021024,-0.510423,0.618434,0.597131,110.620253,35.702367,-126.064243
44712,-5.810654,12.386001,-1.190938,-3.983062,0.018425,3.329966,-0.567048,0.423449,-0.572922,-0.057777,0.123992,-0.012138,0.999990,-0.002835,0.002117,-0.002865,-0.022083,-0.513344,0.615253,0.597874,110.538278,35.920143,-125.648472
44713,-4.430756,9.510518,-0.908975,-3.060788,-0.094556,0.263473,-1.490834,0.530298,-0.608809,-0.044043,0.095169,-0.009682,0.999964,-0.007454,0.002651,-0.003044,-0.025738,-0.516567,0.609179,0.601163,109.974573,36.137410,-125.153411
44714,-5.179154,5.361125,-3.566591,1.554801,-0.493030,-1.711763,-1.694791,0.565214,-0.544427,-0.051747,0.053448,-0.035973,0.999956,-0.008474,0.002826,-0.002722,-0.030213,-0.519634,0.602605,0.604926,109.299559,36.318026,-124.651904
44715,-6.207626,2.585345,-4.727815,4.474742,0.116549,-2.918204,-1.104020,0.361486,-0.429483,-0.062106,0.025726,-0.047308,0.999981,-0.005520,0.001807,-0.002147,-0.032890,-0.521792,0.598109,0.607385,108.865878,36.478002,-124.315465
44716,-6.284461,0.813800,-4.391969,5.325750,0.901995,-4.310970,-0.090590,0.030929,-0.262707,-0.062841,0.008201,-0.043914,0.999999,-0.000453,0.000155,-0.001314,-0.032435,-0.522607,0.597169,0.607634,108.858243,36.610294,-124.240520
44717,-5.245417,1.038900,-4.324602,4.659074,0.183229,-4.757477,1.028891,-0.197751,-0.090733,-0.052407,0.010635,-0.043244,0.999986,0.005144,-0.000989,-0.000454,-0.028897,-0.522386,0.600108,0.605101,109.376331,36.691783,-124.359316
44718,-4.415104,3.363007,-3.829375,2.520818,-0.671618,-3.594904,1.916817,-0.262258,0.077759,-0.044114,0.033978,-0.038027,0.999953,0.009584,-0.001311,0.000389,-0.023352,-0.521562,0.606146,0.600012,110.353688,36.696619,-124.561048
44719,-4.053173,5.449687,-3.620751,0.863431,-1.275543,-2.271920,2.158641,-0.143639,0.220785,-0.040566,0.054839,-0.035646,0.999941,0.010793,-0.000718,0.001104,-0.017964,-0.520634,0.613206,0.593798,111.495457,36.603308,-124.719797
44720,-4.960872,7.074500,-4.060791,0.434487,-1.301979,-0.364815,2.213382,0.040577,0.320266,-0.049731,0.071109,-0.039812,0.999937,0.011067,0.000203,0.001601,-0.013290,-0.519889,0.620594,0.586858,112.724051,36.420443,-124.785725
44721,-6.357222,9.119389,-3.511715,-0.703207,-0.315291,1.819649,2.357587,0.110335,0.346765,-0.063750,0.091489,-0.034005,0.999929,0.011788,0.000552,0.001734,-0.008534,-0.519207,0.628388,0.579207,114.055256,36.208837,-124.818363
44722,-6.378590,10.547660,-2.483607,-2.386701,0.310711,2.528740,1.983588,0.137618,0.311842,-0.063967,0.105616,-0.023745,0.999949,0.009918,0.000688,0.001559,-0.004732,-0.518634,0.634929,0.572592,115.185293,36.009693,-124.828751
44723,-6.285744,10.735137,-1.932205,-2.989545,0.763204,2.392447,1.302547,0.175608,0.257799,-0.063012,0.107393,-0.018567,0.999978,0.006513,0.000878,0.001289,-0.002663,-0.518288,0.639336,0.567997,115.947035,35.828884,-124.802158
44724,-7.269526,10.577747,-1.875268,-2.523021,1.588261,2.811202,0.684497,0.110900,0.168641,-0.072795,0.105779,-0.018350,0.999994,0.003422,0.000554,0.000843,-0.001734,-0.518019,0.641736,0.565534,116.345151,35.710430,-124.791409
44725,-7.134581,10.525108,-0.943252,-3.116843,2.221960,2.349470,0.047686,0.006328,0.035245,-0.071365,0.105241,-0.009405,1.000000,0.000238,0.000032,0.000176,-0.001744,-0.517873,0.641987,0.565382,116.363719,35.686717,-124.805547
44726,-6.533740,10.178545,-2.010557,-2.510629,1.079317,2.139972,-0.851628,0.005774,-0.104666,-0.065285,0.101733,-0.020537,0.999991,-0.004258,0.000029,-0.000523,-0.003683,-0.518163,0.639328,0.568114,115.892412,35.735381,-124.776431
44727,-5.991944,10.824334,-1.864623,-3.202050,0.610713,2.266980,-1.382928,-0.024456,-0.223100,-0.059796,0.108178,-0.019402,0.999975,-0.006915,-0.000122,-0.001115,-0.006569,-0.518716,0.634831,0.572608,115.125736,35.852621,-124.731322
44728,-4.559547,11.384344,-2.028177,-4.014239,-0.720521,1.929056,-2.000863,0.008027,-0.283301,-0.045435,0.113697,-0.021418,0.999949,-0.010004,0.000040,-0.001416,-0.010983,-0.519496,0.628360,0.578936,114.026828,35.994447,-124.649752
44729,-4.123530,10.661904,-4.102299,-2.293871,-2.522785,1.843879,-2.597232,0.252622,-0.236843,-0.041162,0.106124,-0.042351,0.999914,-0.012986,0.001263,-0.001184,-0.017854,-0.520732,0.620184,0.586422,112.669446,36.057179,-124.426028
44730,-4.743598,8.562204,-4.125746,-0.472989,-1.790628,0.646774,-2.586965,0.306104,-0.091325,-0.047461,0.085101,-0.042288,0.999915,-0.012934,0.001530,-0.000457,-0.025282,-0.521588,0.612307,0.593622,111.315509,36.035895,-124.207414
44731,-4.958153,6.229027,-3.690612,0.933257,-0.850653,-1.128906,-2.289675,0.254093,0.032863,-0.049639,0.061855,-0.037553,0.999934,-0.011448,0.001270,0.000164,-0.032146,-0.521864,0.605550,0.599945,110.092840,35.961944,-124.054161
44732,-5.416066,4.158602,-3.813569,2.563244,-0.114331,-2.424374,-1.591433,0.293993,0.105913,-0.054239,0.041253,-0.038385,0.999967,-0.007957,0.001470,0.000530,-0.037519,-0.522103,0.601011,0.603976,109.276855,35.843728,-123.890120
44733,-6.278194,4.873813,-4.184784,2.848008,0.015857,-1.293847,-0.662072,0.237071,0.131191,-0.062864,0.048558,-0.041934,0.999994,-0.003310,0.001185,0.000656,-0.040375,-0.522245,0.599332,0.605335,108.967626,35.723224,-123.768911
44734,-6.616387,7.248227,-4.085184,1.584887,-0.332909,0.693471,0.127255,0.058632,0.198070,-0.066248,0.072443,-0.040786,0.999999,0.000636,0.000293,0.000990,-0.040832,-0.521804,0.600249,0.604776,109.032708,35.600581,-123.781732
44735,-6.211549,9.627811,-2.894738,-0.792680,-0.410131,1.971230,0.740939,-0.212462,0.325108,-0.062241,0.096284,-0.028657,0.999991,0.003705,-0.001062,0.001626,-0.039263,-0.520281,0.603402,0.603052,109.326956,35.459724,-124.004783
44736,-5.345380,10.543426,-1.237144,-2.867584,-0.025818,1.721734,1.041733,-0.355940,0.465446,-0.053678,0.105372,-0.011918,0.999982,0.005209,-0.001780,0.002327,-0.036896,-0.517949,0.607839,0.600749,109.720046,35.272176,-124.356244
44737,-5.051585,10.055629,-0.159023,-3.456126,0.745192,0.871814,0.876344,-0.265913,0.562723,-0.050797,0.100420,-0.001217,0.999986,0.004382,-0.001330,0.002814,-0.035527,-0.515542,0.611995,0.598679,110.039567,35.015861,-124.672173
44738,-5.756117,8.938308,0.002786,-2.571156,1.689301,0.363821,0.383691,-0.032495,0.517654,-0.057792,0.089233,0.000190,0.999995,0.001918,-0.000162,0.002588,-0.036001,-0.513876,0.614506,0.597509,110.172093,34.739441,-124.824244
44739,-6.598707,8.110501,-0.917194,-1.054186,1.854362,0.464195,-0.251408,0.072400,0.328765,-0.066124,0.080985,-0.009250,0.999998,-0.001257,0.000362,0.001644,-0.037871,-0.512982,0.614611,0.598053,110.005565,34.543336,-124.862208
44740,-6.561774,8.665837,-2.313634,-0.427791,0.715239,1.269353,-0.709270,0.057055,0.078398,-0.065658,0.086550,-0.023425,0.999994,-0.003546,0.000285,0.000392,-0.040113,-0.512725,0.612702,0.600083,109.605872,34.485669,-124.849777
44741,-5.748699,10.412698,-2.313711,-1.755049,-0.313709,2.172533,-1.083767,0.131662,-0.061062,-0.057471,0.104017,-0.023663,0.999985,-0.005419,0.000658,-0.000305,-0.043131,-0.513028,0.609284,0.603088,109.037055,34.488744,-124.755983
44742,-5.101880,10.748614,-1.970573,-2.379698,-0.680647,1.990568,-1.520420,0.253013,-0.000240,-0.051044,0.107333,-0.020458,0.999970,-0.007602,0.001265,-0.000001,-0.047814,-0.513399,0.604652,0.607068,108.256293,34.438090,-124.595648
44743,-5.192703,8.894471,-2.008804,-1.145629,-0.235756,0.615227,-1.589215,0.159353,0.139014,-0.052005,0.088745,-0.020752,0.999968,-0.007946,0.000797,0.000695,-0.052816,-0.513012,0.600152,0.611430,107.383784,34.329117,-124.526381
44744,-5.759185,6.543352,-2.035034,0.541621,0.720854,-0.907006,-1.347833,-0.083025,0.243302,-0.057663,0.065224,-0.020814,0.999976,-0.006739,-0.000415,0.001216,-0.056782,-0.511610,0.596690,0.615623,106.549007,34.205079,-124.636796
44745,-5.991634,5.083520,-1.616501,1.227508,1.539664,-2.035979,-0.823821,-0.306324,0.284406,-0.059963,0.050683,-0.016466,0.999989,-0.004119,-0.001532,0.001422,-0.058872,-0.509525,0.594987,0.618796,105.927069,34.092332,-124.901872
44746,-5.182322,5.272872,-0.987972,0.355071,1.341158,-2.483923,-0.347982,-0.386123,0.255331,-0.051871,0.052645,-0.010071,0.999996,-0.001740,-0.001931,0.001277,-0.059414,-0.507417,0.594698,0.620751,105.553259,34.006845,-125.212770
44747,-4.921204,5.239428,0.682466,-0.894401,2.303855,-3.028302,0.246545,-0.330566,0.187278,-0.049272,0.052340,0.006808,0.999997,0.001233,-0.001653,0.000936,-0.058409,-0.505852,0.596060,0.620818,105.547585,33.948922,-125.473751
44748,-5.471726,5.872274,1.821346,-1.752334,3.283168,-2.471651,0.390040,-0.241193,0.003155,-0.054740,0.058686,0.018262,0.999997,0.001950,-0.001206,0.000016,-0.056728,-0.505157,0.597373,0.620277,105.677382,33.979668,-125.640795
44749,-6.090827,6.304662,0.775642,-0.954588,2.857559,-1.543975,-0.159994,-0.213889,-0.185805,-0.060858,0.063109,0.007641,0.999999,-0.000800,-0.001069,-0.000929,-0.055938,-0.504948,0.596491,0.621366,105.520552,34.109936,-125.755010
44750,-6.136597,6.166530,-1.038672,0.416491,1.644046,-1.216986,-0.695634,-0.246977,-0.285956,-0.061265,0.061716,-0.010677,0.999992,-0.003478,-0.001235,-0.001430,-0.056084,-0.504786,0.593698,0.624154,105.054852,34.300557,-125.873792
44751,-5.855712,5.989221,-2.662910,1.541432,0.330596,-1.165995,-1.013815,-0.329230,-0.371713,-0.058402,0.059865,-0.027029,0.999984,-0.005069,-0.001646,-0.001859,-0.056526,-0.504516,0.589702,0.628109,104.381171,34.549261,-126.035666
44752,-5.522346,5.967158,-4.363200,2.634217,-1.125763,-1.041517,-1.185609,-0.387354,-0.436388,-0.055008,0.059531,-0.044092,0.999978,-0.005928,-0.001937,-0.002182,-0.057018,-0.504190,0.585000,0.632706,103.590910,34.840675,-126.229970
44753,-5.023790,6.047801,-5.762469,3.399038,-2.517371,-1.030391,-1.232913,-0.327128,-0.493057,-0.049994,0.060244,-0.058078,0.999977,-0.006165,-0.001636,-0.002465,-0.057630,-0.504181,0.579959,0.637281,102.797182,35.153209,-126.380160
44754,-4.455864,6.401548,-5.823397,3.046360,-3.117810,-1.109544,-1.126673,-0.068537,-0.559392,-0.044360,0.063810,-0.058609,0.999980,-0.005633,-0.000343,-0.002797,-0.058504,-0.505201,0.574993,0.640884,102.169876,35.469657,-126.348002
44755,-2.983678,6.813139,-4.159718,0.990446,-3.144391,-1.954195,-1.079395,0.518845,-0.558987,-0.029755,0.067989,-0.041887,0.999978,-0.005397,0.002594,-0.002795,-0.060951,-0.508091,0.569982,0.642844,101.802752,35.715808,-125.914573
44756,-1.826344,6.246816,-1.377612,-1.243920,-1.879929,-3.553743,-1.195253,1.455851,-0.363382,-0.018251,0.062418,-0.014016,0.999954,-0.005976,0.007279,-0.001817,-0.066983,-0.513370,0.564773,0.642647,101.732221,35.744493,-124.862024
44757,-5.029772,6.366669,-4.767926,2.698913,-2.004868,-1.022788,-0.266852,0.926020,-0.003667,-0.050517,0.063604,-0.047531,0.999988,-0.001334,0.004630,-0.000018,-0.070292,-0.516208,0.563616,0.641035,101.948283,35.632164,-124.228081
44758,-5.537648,5.486403,-6.686857,4.767647,-2.560062,-1.083679,0.917790,-0.156988,0.444027,-0.055446,0.055047,-0.066660,0.999987,0.004589,-0.000785,0.002220,-0.068920,-0.514721,0.567778,0.638703,102.369455,35.397413,-124.407675
44759,-4.449868,3.412193,-4.453292,3.595351,-1.088778,-3.716500,2.033338,-0.174547,0.525465,-0.044550,0.034456,-0.044223,0.999944,0.010167,-0.000873,0.002627,-0.064887,-0.513292,0.575679,0.633178,103.414026,35.120833,-124.615235
44760,-6.564392,2.870823,-4.495431,4.796977,0.510614,-2.865115,2.861621,-0.080368,0.479317,-0.065696,0.029190,-0.044565,0.999895,0.014308,-0.000402,0.002396,-0.058838,-0.512483,0.585960,0.624940,104.971492,34.861060,-124.757827
44761,-8.371944,5.243616,-2.522753,2.885489,2.384309,-0.329199,3.394827,-0.516116,0.464990,-0.083778,0.052662,-0.024551,0.999850,0.016973,-0.002580,0.002325,-0.050090,-0.510379,0.597850,0.616100,106.664762,34.680296,-125.198663
44762,-6.932610,8.617091,-0.342666,-1.272954,2.095851,0.976916,3.263501,-0.828374,0.295662,-0.069442,0.086112,-0.002309,0.999857,0.016317,-0.004142,0.001478,-0.040205,-0.507639,0.608805,0.608312,108.182470,34.656240,-125.817123
44763,-4.382522,10.776682,-1.405970,-3.172943,-0.733222,1.443876,2.353550,-0.387391,0.085700,-0.043846,0.107904,-0.012875,0.999929,0.011767,-0.001937,0.000428,-0.033326,-0.506586,0.616241,0.602086,109.370617,34.676541,-126.098214
44764,-4.873695,11.527141,-3.106074,-2.441387,-1.641337,2.741872,1.794284,0.207603,-0.131074,-0.048693,0.115575,-0.029974,0.999959,0.008971,0.001038,-0.000655,-0.029038,-0.507843,0.621276,0.596045,110.489758,34.702278,-125.937534
44765,-6.643640,11.031194,-4.957193,-0.270553,-1.554937,3.895167,1.150774,0.500575,-0.316721,-0.066384,0.110699,-0.048770,0.999979,0.005754,0.002503,-0.001584,-0.026743,-0.510423,0.623841,0.591249,111.375459,34.764698,-125.539300
44766,-6.962717,9.954216,-4.448907,0.076811,-0.673849,3.106188,0.684156,0.546587,-0.443287,-0.069527,0.099847,-0.043958,0.999988,0.003421,0.002733,-0.002216,-0.025404,-0.513457,0.624677,0.587789,112.031053,34.880717,-125.077064
44767,-6.438006,9.557378,-1.353759,-1.984610,1.274982,1.547744,0.156179,0.449235,-0.502595,-0.064170,0.095746,-0.013319,0.999994,0.000781,0.002246,-0.002513,-0.024945,-0.516312,0.623811,0.586225,112.358869,35.045586,-124.660259
44768,-5.931123,8.721760,-1.697493,-1.527741,0.849453,0.726431,-0.461524,0.240697,-0.472152,-0.059126,0.087318,-0.017105,0.999994,-0.002308,0.001203,-0.002361,-0.025515,-0.518379,0.621231,0.587115,112.252312,35.239429,-124.385364
44769,-5.170057,7.631479,-2.193480,-0.894363,0.186158,-0.381592,-0.560254,0.060557,-0.423271,-0.051546,0.076362,-0.022133,0.999994,-0.002801,0.000303,-0.002116,-0.025929,-0.519745,0.618504,0.588766,112.014333,35.446456,-124.240761
44770,-5.367279,5.573713,-3.635588,1.390432,-0.251462,-1.380911,-0.427353,0.029867,-0.354430,-0.053579,0.055754,-0.036467,0.999996,-0.002137,0.000149,-0.001772,-0.026101,-0.520822,0.616344,0.590070,111.830719,35.624326,-124.134780
44771,-4.974286,3.811818,-3.970350,2.502224,-0.350148,-2.837487,-0.063686,-0.019414,-0.280835,-0.049685,0.038175,-0.039720,0.999999,-0.000318,-0.000097,-0.001404,-0.025396,-0.521570,0.615453,0.590371,111.825180,35.773275,-124.080649
44772,-4.790222,3.319711,-5.223663,3.515417,-1.238586,-2.930750,0.262241,0.057899,-0.166038,-0.047890,0.033305,-0.052179,0.999999,0.001311,0.000289,-0.000830,-0.024413,-0.522235,0.615812,0.589450,112.018973,35.845012,-124.005624
44773,-5.358997,5.288164,-5.285214,2.559414,-1.359876,-1.082471,0.955873,0.053282,-0.059097,-0.053588,0.053149,-0.052584,0.999988,0.004779,0.000266,-0.000295,-0.021922,-0.522633,0.618488,0.586384,112.591915,35.860304,-123.961722
44774,-4.857143,6.469466,-4.543003,1.052752,-1.415922,-0.703852,1.149794,0.054647,0.078168,-0.048609,0.064935,-0.045044,0.999983,0.005749,0.000273,0.000391,-0.019328,-0.522619,0.622073,0.582684,113.254583,35.802824,-123.954479
44775,-4.898084,5.600261,-4.008018,1.207381,-0.762910,-1.483348,1.299252,0.095967,0.224527,-0.049063,0.056206,-0.039692,0.999978,0.006496,0.000480,0.001123,-0.016900,-0.522264,0.626449,0.578374,113.993834,35.658619,-123.962758
44776,-6.132029,4.500032,-3.423663,2.036586,0.775426,-1.761355,1.568202,0.094548,0.306047,-0.061405,0.045173,-0.033854,0.999968,0.007841,0.000473,0.001530,-0.013997,-0.521645,0.631780,0.573188,114.871376,35.472677,-123.998205
44777,-7.741821,5.546575,-2.876550,1.697716,2.102971,-0.238275,1.665175,-0.052836,0.290144,-0.077491,0.055590,-0.028323,0.999964,0.008326,-0.000264,0.001451,-0.010331,-0.520625,0.637317,0.568040,115.751348,35.331277,-124.125805
44778,-8.375124,8.879834,-2.457587,-0.506626,2.278452,2.417802,1.400183,-0.195205,0.158254,-0.083798,0.088902,-0.024035,0.999975,0.007001,-0.000976,0.000791,-0.006525,-0.519575,0.641725,0.564081,116.449768,35.295334,-124.304805
44779,-7.883090,12.536987,-1.845733,-3.586824,1.820030,4.559051,1.061561,-0.196891,-0.005256,-0.078810,0.125468,-0.017869,0.999985,0.005308,-0.000984,-0.000026,-0.003132,-0.519014,0.644729,0.561195,116.983245,35.344899,-124.433650
44780,-6.332833,16.287779,0.255962,-8.089225,1.705312,5.585956,0.346698,-0.310648,-0.109341,-0.063243,0.162908,0.002744,0.999997,0.001733,-0.001553,-0.000547,-0.000935,-0.518448,0.645446,0.560901,117.084939,35.477973,-124.600349
44781,-4.088106,16.484587,-0.051008,-9.049456,-0.126783,4.558985,-1.114010,-0.166626,-0.200995,-0.040714,0.164880,-0.001462,0.999984,-0.005570,-0.000833,-0.001005,-0.002735,-0.518564,0.641816,0.564939,116.417965,35.619826,-124.648633
44782,-3.612689,14.019632,-1.839600,-6.440176,-1.502833,3.196662,-2.247723,0.131472,-0.267032,-0.035953,0.140026,-0.019947,0.999936,-0.011238,0.000657,-0.001335,-0.008241,-0.519678,0.634756,0.571797,115.222156,35.720988,-124.490181
44783,-4.394560,11.194352,-3.829020,-2.821609,-2.081360,2.311049,-2.859413,0.351523,-0.237284,-0.043882,0.111434,-0.039809,0.999896,-0.014297,0.001758,-0.001186,-0.016124,-0.521211,0.625909,0.579929,113.751116,35.756766,-124.202148
44784,-5.095763,9.410287,-4.275646,-0.853782,-1.711486,1.551178,-2.762095,0.411703,-0.052276,-0.051023,0.093515,-0.043946,0.999902,-0.013810,0.002058,-0.000261,-0.024470,-0.522245,0.617695,0.587464,112.328754,35.687987,-123.927151
44785,-5.543665,7.929728,-2.591668,-0.630819,0.013282,0.183763,-2.125773,0.237579,0.195056,-0.055545,0.078962,-0.026691,0.999942,-0.010629,0.001188,0.000975,-0.031345,-0.521996,0.611922,0.593371,111.166630,35.528876,-123.829536
44786,-5.420287,7.106579,-0.520468,-1.427986,1.506396,-1.103820,-1.597681,0.074859,0.330905,-0.054322,0.070931,-0.005751,0.999967,-0.007988,0.000374,0.001655,-0.036738,-0.520889,0.608039,0.598009,110.227928,35.332115,-123.869110
44787,-5.326730,6.562670,-0.168766,-1.288222,1.770931,-1.647246,-1.698101,0.054758,0.281447,-0.053360,0.065534,-0.002230,0.999963,-0.008490,0.000274,0.001407,-0.042188,-0.519812,0.603688,0.602974,109.232424,35.164680,-123.906383
44788,-5.294530,5.696426,-2.272105,0.722244,0.486552,-1.757613,-1.960703,0.075795,0.113619,-0.052986,0.056708,-0.023258,0.999952,-0.009803,0.000379,0.000568,-0.047867,-0.519209,0.598053,0.608658,108.119281,35.084671,-123.887937
44789,-5.005520,6.360888,-4.055844,1.554105,-1.159063,-0.969268,-1.685927,0.054607,-0.060208,-0.050047,0.063279,-0.041079,0.999964,-0.008430,0.000273,-0.000301,-0.052244,-0.519079,0.592757,0.613569,107.176719,35.102851,-123.845309
44790,-4.431694,7.863273,-4.512668,0.892261,-2.346135,-0.038565,-1.383898,0.112906,-0.033000,-0.044330,0.078325,-0.045644,0.999976,-0.006919,0.000565,-0.000165,-0.056083,-0.519100,0.588408,0.617386,106.427258,35.097651,-123.769119
44791,-4.694222,7.592132,-4.537019,1.262795,-2.127180,-0.110067,-0.717069,0.208404,0.189876,-0.047062,0.075713,-0.045593,0.999993,-0.003585,0.001042,0.000949,-0.059165,-0.518926,0.586651,0.618915,106.070769,34.954440,-123.672691
44792,-6.464490,7.081283,-2.852521,1.167162,0.381123,0.115218,0.568181,0.077600,0.359033,-0.064783,0.070777,-0.028299,0.999994,0.002841,0.000388,0.001795,-0.059044,-0.518229,0.589341,0.616952,106.382168,34.739848,-123.696825
44793,-7.370279,7.551762,-0.682026,-0.231046,2.369071,0.490169,1.322806,-0.381274,0.432886,-0.073854,0.075401,-0.006462,0.999974,0.006614,-0.001906,0.002164,-0.055848,-0.516101,0.594667,0.613915,106.941773,34.559541,-124.044034
44794,-6.127591,7.847181,0.173621,-1.577063,2.085803,-0.204482,1.255038,-0.708100,0.468088,-0.061466,0.078316,0.002011,0.999971,0.006275,-0.003540,0.002340,-0.051954,-0.512822,0.599934,0.611877,107.336369,34.418245,-124.616460
44795,-4.506079,7.731871,0.217753,-2.305334,1.113773,-1.234889,0.943450,-0.612361,0.448750,-0.045241,0.077206,0.002404,0.999982,0.004717,-0.003062,0.002244,-0.049092,-0.509784,0.604145,0.610507,107.590866,34.273046,-125.121727
44796,-4.954809,7.160700,0.152034,-1.731243,1.577047,-1.424337,0.711790,-0.310470,0.324349,-0.049667,0.071521,0.001698,0.999991,0.003559,-0.001552,0.001622,-0.047343,-0.507977,0.607241,0.609078,107.841204,34.145632,-125.401214
44797,-6.591202,6.987545,-0.008571,-0.743214,2.644499,-0.608121,0.347803,-0.176365,0.082383,-0.065941,0.069848,-0.000022,0.999998,0.001739,-0.000882,0.000412,-0.046197,-0.507217,0.608574,0.608469,107.960619,34.126591,-125.541469
44798,-7.068124,6.925841,-0.767860,0.037444,2.446683,-0.193566,-0.231877,-0.209124,-0.136038,-0.070626,0.069297,-0.007833,0.999999,-0.001159,-0.001046,-0.000680,-0.045749,-0.506890,0.607597,0.609750,107.762703,34.233022,-125.656642
44799,-6.220379,7.078455,-2.156906,0.507147,0.824076,-0.194317,-0.912137,-0.192136,-0.267012,-0.062088,0.070768,-0.021952,0.999988,-0.004561,-0.000961,-0.001335,-0.046683,-0.506847,0.604199,0.613082,107.194848,34.406920,-125.734685
44800,-5.636073,6.886886,-3.188544,1.085687,-0.303840,-0.427090,-1.283668,-0.112376,-0.323265,-0.056231,0.068753,-0.032359,0.999978,-0.006418,-0.000562,-0.001616,-0.048619,-0.507119,0.599484,0.617322,106.450007,34.598244,-125.750568
44801,-5.934270,6.932865,-3.679597,1.618047,-0.540456,-0.122071,-1.628031,-0.121639,-0.359343,-0.059196,0.069132,-0.037395,0.999965,-0.008140,-0.000608,-0.001797,-0.051292,-0.507353,0.593580,0.622596,105.505218,34.810173,-125.769546
44802,-6.186896,6.188709,-4.295886,2.663886,-0.673862,-0.459598,-1.847108,-0.263361,-0.399711,-0.061689,0.061610,-0.043610,0.999954,-0.009235,-0.001317,-0.001999,-0.053965,-0.507173,0.586882,0.628835,104.382526,35.065591,-125.881334
44803,-5.016313,5.801513,-5.027480,2.916702,-1.923910,-1.334101,-1.623764,-0.367606,-0.437329,-0.049944,0.057713,-0.050836,0.999963,-0.008119,-0.001838,-0.002187,-0.055648,-0.506790,0.580769,0.634645,103.345600,35.354006,-126.064320
44804,-2.494091,5.355874,-4.137426,1.384224,-2.905975,-3.358017,-1.356356,0.026607,-0.414470,-0.024836,0.053328,-0.041733,0.999975,-0.006782,0.000133,-0.002072,-0.057862,-0.507639,0.575419,0.638630,102.613309,35.577059,-125.986416
44805,-0.944651,3.359180,-2.157505,0.298843,-1.950414,-6.215781,-1.135863,1.089693,-0.273853,-0.009519,0.033482,-0.021714,0.999968,-0.005679,0.005448,-0.001369,-0.063025,-0.511509,0.570788,0.639208,102.418546,35.589467,-125.201163
44806,-3.991818,3.989150,-2.158167,1.426050,-0.119982,-3.942641,-0.483174,1.314460,-0.047793,-0.040050,0.039849,-0.021415,0.999975,-0.002416,0.006572,-0.000239,-0.067875,-0.515633,0.568720,0.637239,102.666985,35.447673,-124.296413
44807,-5.711523,5.153967,-8.037915,5.919714,-3.170174,-0.941426,0.888427,0.247798,0.280818,-0.057287,0.051815,-0.080078,0.999988,0.004442,0.001239,0.001404,-0.067204,-0.515867,0.572210,0.633987,103.244278,35.253606,-124.177013
44808,-4.971915,3.761687,-7.663522,5.925955,-2.923122,-2.468557,2.002770,0.051025,0.459497,-0.049826,0.038267,-0.076241,0.999947,0.010014,0.000255,0.002297,-0.063654,-0.515311,0.579723,0.627952,104.363830,34.986106,-124.224984
44809,-7.333549,3.352781,-6.223948,6.052790,-0.203530,-1.622541,3.126522,0.197594,0.448356,-0.073473,0.034330,-0.061634,0.999875,0.015632,0.000988,0.002242,-0.057591,-0.515511,0.590587,0.618174,106.180223,34.703287,-124.180410
44810,-8.836410,5.869628,-1.905117,2.197518,3.058957,0.285570,3.711524,-0.352292,0.388467,-0.088446,0.058867,-0.018116,0.999824,0.018557,-0.001761,0.001942,-0.048190,-0.514204,0.603083,0.607917,108.124417,34.545578,-124.500723
44811,-7.429906,8.693562,-1.895293,-0.211840,1.490327,1.680928,3.165629,-0.643868,0.144935,-0.074304,0.087170,-0.017814,0.999869,0.015827,-0.003219,0.000725,-0.038560,-0.512455,0.613181,0.599927,109.675354,34.581838,-124.963512
44812,-6.368582,11.126030,-0.603152,-3.160532,1.232421,2.564642,2.588560,-0.664377,-0.023453,-0.063655,0.111335,-0.004802,0.999911,0.012942,-0.003322,-0.000117,-0.029830,-0.510938,0.620984,0.593659,110.910903,34.722176,-125.398333
44813,-4.850205,12.064524,-0.308427,-4.797191,0.356938,2.271528,1.898814,-0.451493,-0.188855,-0.048383,0.120714,-0.002048,0.999952,0.009494,-0.002257,-0.000944,-0.023030,-0.510392,0.626201,0.588933,111.854576,34.912828,-125.650288
44814,-4.263805,10.255017,-3.378696,-2.170866,-1.747784,1.456391,1.118664,0.043679,-0.332437,-0.042475,0.102808,-0.033203,0.999983,0.005593,0.000218,-0.001662,-0.019346,-0.511631,0.628656,0.585364,112.557954,35.075609,-125.540809
44815,-4.724312,9.511234,-4.412471,-0.946411,-1.987788,1.474694,0.541252,0.394552,-0.432861,-0.047124,0.095333,-0.043774,0.999992,0.002706,0.001973,-0.002164,-0.017950,-0.514143,0.629116,0.582707,113.077991,35.212129,-125.175175
44816,-5.413638,9.946853,-1.744039,-2.622145,0.300464,1.337328,0.110367,0.473120,-0.443576,-0.053957,0.099598,-0.017258,0.999995,0.000552,0.002366,-0.002218,-0.017874,-0.516874,0.628276,0.581198,113.384059,35.334745,-124.754057
44817,-5.133121,9.546257,-0.614609,-3.233016,0.971978,0.505274,-0.617748,0.403202,-0.399234,-0.051153,0.095545,-0.006338,0.999991,-0.003089,0.002016,-0.001996,-0.019593,-0.519188,0.625434,0.582144,113.240543,35.448914,-124.389676
44818,-4.738371,8.512389,-2.346328,-1.657254,-0.351604,0.063932,-1.039801,0.391844,-0.322067,-0.047293,0.085077,-0.023813,0.999983,-0.005199,0.001959,-0.001610,-0.022592,-0.521175,0.621548,0.584418,112.839273,35.526834,-124.054035
44819,-5.448769,7.339246,-3.808114,0.373069,-0.684752,0.058834,-0.994134,0.264110,-0.256639,-0.054444,0.073272,-0.038374,0.999986,-0.004971,0.001321,-0.001283,-0.025271,-0.522573,0.617962,0.586858,112.405212,35.599757,-123.819725
44820,-6.335553,5.686933,-4.359347,2.188650,-0.117081,-0.502462,-0.706723,0.044744,-0.192435,-0.063311,0.056776,-0.043780,0.999993,-0.003534,0.000224,-0.000962,-0.026703,-0.523156,0.615401,0.588962,112.042932,35.688025,-123.745939
44821,-5.589430,4.054260,-4.608728,3.040514,-0.423635,-2.099396,-0.469317,-0.064613,-0.125005,-0.055854,0.040469,-0.046200,0.999997,-0.002347,-0.000323,-0.000625,-0.027382,-0.523234,0.613726,0.590607,111.763899,35.763585,-123.762190
44822,-5.456121,2.909090,-5.638394,4.353959,-0.959757,-2.731343,0.221536,-0.034656,-0.035596,-0.054546,0.029163,-0.056361,0.999999,0.001108,-0.000173,-0.000178,-0.026604,-0.523221,0.614317,0.590039,111.878733,35.785758,-123.782275
44823,-6.219253,4.153176,-5.729670,3.960142,-0.805071,-1.302352,1.080266,-0.041529,0.087552,-0.062199,0.041813,-0.057084,0.999985,0.005401,-0.000208,0.000438,-0.023924,-0.522915,0.617757,0.586826,112.463741,35.743760,-123.839547
44824,-5.925516,5.381338,-4.576240,2.254595,-0.454340,-0.883964,1.567280,-0.117579,0.211237,-0.059285,0.054107,-0.045374,0.999969,0.007836,-0.000588,0.001056,-0.020095,-0.522038,0.622928,0.582266,113.279005,35.654389,-123.980698
44825,-5.556773,6.152254,-4.095413,1.213930,-0.479052,-0.658663,1.696820,-0.086308,0.301163,-0.055643,0.061783,-0.040455,0.999963,0.008484,-0.000432,0.001506,-0.016287,-0.520950,0.628666,0.577169,114.165001,35.512046,-124.128458
44826,-6.434945,7.083060,-2.930565,0.208800,0.825968,0.159233,1.862563,-0.087388,0.300193,-0.064443,0.071003,-0.028673,0.999955,0.009313,-0.000437,0.001501,-0.012039,-0.519833,0.634828,0.571509,115.144343,35.372750,-124.279303
44827,-7.200924,9.310264,-2.274495,-1.364722,1.476439,2.005259,1.455609,-0.090209,0.201790,-0.072093,0.093192,-0.022099,0.999973,0.007278,-0.000451,0.001009,-0.008558,-0.518958,0.639526,0.567111,115.905743,35.286677,-124.404420
44828,-6.943769,12.011548,-2.222574,-3.357929,0.939062,3.798871,0.922541,-0.027201,0.053061,-0.069467,0.120198,-0.021681,0.999989,0.004613,-0.000136,0.000265,-0.006239,-0.518695,0.642299,0.564241,116.410528,35.262542,-124.445003
44829,-6.365937,15.161388,-0.768285,-6.613491,1.095895,5.222063,0.288907,-0.083483,-0.028858,-0.063634,0.151634,-0.007490,0.999999,0.001445,-0.000417,-0.000144,-0.005153,-0.518509,0.643068,0.563547,116.546487,35.294641,-124.495492
44830,-4.694459,16.692070,0.116908,-8.893814,0.300695,5.069675,-0.856321,-0.053078,-0.054624,-0.046899,0.166936,0.000442,0.999991,-0.004282,-0.000265,-0.000273,-0.007060,-0.518458,0.640533,0.566452,116.041929,35.332468,-124.518960
44831,-3.981818,14.815180,-1.036150,-7.172933,-0.829922,3.761971,-1.986569,0.162027,-0.085216,-0.039764,0.148056,-0.011800,0.999950,-0.009933,0.000810,-0.000426,-0.012503,-0.519041,0.634674,0.572389,114.973041,35.332205,-124.397671
44832,-4.962163,11.795419,-3.061834,-3.326391,-1.238114,2.857091,-2.796956,0.336909,-0.116734,-0.049606,0.117540,-0.032181,0.999901,-0.013984,0.001684,-0.000584,-0.020507,-0.520099,0.626308,0.580358,113.510344,35.310027,-124.155179
44833,-5.911392,9.312880,-4.716036,-0.042026,-1.404723,2.100887,-2.962550,0.352058,-0.038330,-0.059181,0.092429,-0.048429,0.999889,-0.014812,0.001760,-0.000192,-0.029219,-0.520825,0.617531,0.588679,111.945453,35.247511,-123.923933
44834,-6.022985,7.547496,-3.778529,0.687277,-0.367287,0.526955,-2.289696,0.223666,0.111461,-0.060315,0.075003,-0.038578,0.999934,-0.011448,0.001118,0.000557,-0.036211,-0.520720,0.611034,0.595127,110.697197,35.137238,-123.812885
44835,-5.573538,6.302188,-1.525266,-0.144165,1.133360,-1.339070,-1.524021,0.051335,0.232422,-0.055812,0.062838,-0.015718,0.999970,-0.007620,0.000257,0.001162,-0.041047,-0.519818,0.607104,0.599608,109.806123,34.997016,-123.842276
44836,-5.236601,5.588088,-0.335298,-0.604274,1.863920,-2.401797,-1.360904,0.020207,0.224894,-0.052429,0.055797,-0.003728,0.999976,-0.006804,0.000101,0.001124,-0.045333,-0.518854,0.603615,0.603642,109.000079,34.867267,-123.887591
44837,-4.942278,5.121945,-1.161876,0.160008,1.184785,-2.700690,-1.568247,0.037673,0.131361,-0.049459,0.051094,-0.012010,0.999969,-0.007841,0.000188,0.000657,-0.049931,-0.518146,0.599222,0.608247,108.094277,34.783852,-123.898460
44838,-5.039542,5.342129,-3.141116,1.519441,-0.186025,-1.973166,-1.331753,0.088083,0.020899,-0.050415,0.053205,-0.031744,0.999978,-0.006659,0.000440,0.000104,-0.053722,-0.517958,0.595217,0.612006,107.358159,34.752561,-123.850628
44839,-4.839280,7.549650,-4.093298,0.947480,-1.622634,-0.135921,-0.927584,0.130654,0.011720,-0.048424,0.075303,-0.041251,0.999989,-0.004638,0.000653,0.000059,-0.056570,-0.518014,0.592393,0.614436,106.870223,34.718831,-123.772441
44840,-4.958698,8.184624,-4.375859,0.921696,-1.930300,0.490176,-0.675066,0.211720,0.169023,-0.049703,0.081656,-0.043982,0.999993,-0.003375,0.001059,0.000845,-0.059480,-0.517920,0.590719,0.615850,106.540658,34.586595,-123.671183
44841,-6.047410,7.371610,-4.100142,1.701540,-0.746887,0.398571,0.060157,0.074034,0.334737,-0.060613,0.073627,-0.040957,0.999998,0.000301,0.000370,0.001674,-0.060595,-0.517123,0.591775,0.615398,106.560992,34.385298,-123.694496
44842,-6.833134,7.303735,-2.220543,0.763167,1.107067,0.344022,1.099104,-0.357761,0.448987,-0.068456,0.073005,-0.021927,0.999981,0.005495,-0.001789,0.002245,-0.058090,-0.514967,0.596441,0.612937,107.002461,34.193584,-124.028051
44843,-6.050224,8.313696,0.204304,-1.866089,1.989593,0.103103,1.500903,-0.719471,0.519059,-0.060726,0.082962,0.002448,0.999962,0.007504,-0.003597,0.002595,-0.053689,-0.511577,0.602591,0.610156,107.531574,34.026680,-124.616475
44844,-4.968661,9.207960,0.934158,-3.376821,1.601472,0.004565,1.019912,-0.629804,0.528780,-0.049960,0.091899,0.009653,0.999979,0.005100,-0.003149,0.002644,-0.050809,-0.508276,0.607237,0.608554,107.818902,33.843051,-125.147927
44845,-4.274464,9.215871,0.048132,-3.086915,0.576298,-0.151203,0.005321,-0.351945,0.464543,-0.042959,0.092059,0.000408,0.999996,0.000027,-0.001760,0.002323,-0.051162,-0.505739,0.608545,0.609330,107.634862,33.645698,-125.482833
44846,-4.310992,8.132375,-0.995245,-1.707393,0.159803,-0.714910,-0.713768,-0.062342,0.326884,-0.043240,0.081217,-0.010256,0.999992,-0.003569,-0.000312,0.001634,-0.053787,-0.504318,0.607234,0.611586,107.162396,33.473109,-125.597071
44847,-5.551086,7.170816,-0.803032,-0.649138,1.354287,-0.833590,-1.018698,0.172112,0.108036,-0.055557,0.071636,-0.008348,0.999987,-0.005093,0.000861,0.000540,-0.057230,-0.504181,0.604362,0.614226,106.624450,33.379851,-125.511949
44848,-7.560996,5.792535,-0.344121,0.787479,3.366379,-0.930805,-0.862378,0.265254,-0.159017,-0.075569,0.057970,-0.003591,0.999990,-0.004312,0.001326,-0.000795,-0.059731,-0.505174,0.601256,0.616216,106.239782,33.419614,-125.312494
44849,-8.178462,5.691076,-1.146271,1.704206,3.235478,-0.473696,-0.653397,0.095681,-0.337229,-0.081694,0.057011,-0.011610,0.999993,-0.003267,0.000478,-0.001686,-0.060651,-0.506230,0.598382,0.618055,105.930984,33.584760,-125.191461
44850,-6.960614,5.790374,-2.739625,2.189163,1.252158,-0.695477,-0.602475,-0.205902,-0.376238,-0.069469,0.057951,-0.027642,0.999993,-0.003012,-0.001030,-0.001881,-0.060412,-0.506483,0.595653,0.620502,105.545381,33.819551,-125.263646
44851,-6.201610,5.410198,-3.222850,2.379688,0.459990,-1.313149,-0.433815,-0.416862,-0.398354,-0.061841,0.054155,-0.032475,0.999993,-0.002169,-0.002084,-0.001992,-0.059054,-0.506188,0.593444,0.622986,105.177705,34.097704,-125.474721
44852,-5.925913,5.356023,-2.640615,1.884146,0.616831,-1.636792,-0.604773,-0.571825,-0.500162,-0.059049,0.053628,-0.026737,0.999988,-0.003024,-0.002859,-0.002501,-0.057344,-0.505657,0.590482,0.626382,104.662013,34.454204,-125.774489
44853,-4.855162,4.686563,-2.789258,1.851310,-0.082484,-2.749996,-1.034223,-0.614490,-0.580701,-0.048329,0.046861,-0.028284,0.999978,-0.005171,-0.003072,-0.002903,-0.056345,-0.505086,0.585961,0.631160,103.885622,34.858252,-126.095779
44854,-3.726951,3.608340,-3.454962,2.363326,-1.022900,-4.136853,-0.848955,-0.467957,-0.585243,-0.037083,0.036045,-0.034790,0.999984,-0.004245,-0.002340,-0.002926,-0.055286,-0.505027,0.581952,0.634999,103.267871,35.242262,-126.323843
44855,-2.357874,4.267538,-3.032687,1.077081,-1.888437,-4.498346,-0.568439,-0.139067,-0.504857,-0.023450,0.042648,-0.030464,0.999993,-0.002842,-0.000695,-0.002524,-0.054734,-0.505841,0.578930,0.637157,102.929086,35.536795,-126.344735
44856,-0.931758,4.220667,-0.904811,-1.082791,-1.381634,-5.760589,-0.579987,0.665200,-0.349257,-0.009274,0.042196,-0.009140,0.999989,-0.002900,0.003326,-0.001746,-0.057030,-0.508757,0.576036,0.637256,102.890888,35.641760,-125.838753
44857,-3.142564,4.373878,-0.734554,-0.236295,0.139579,-4.383995,-0.223318,1.168599,-0.179749,-0.031429,0.043759,-0.007211,0.999982,-0.001117,0.005843,-0.000899,-0.060411,-0.512873,0.574549,0.634984,103.242306,35.585375,-125.013935
44858,-5.368497,6.966435,-7.522214,4.320276,-3.728505,0.255484,0.795944,0.574565,0.037945,-0.053914,0.069952,-0.074789,0.999988,0.003980,0.002873,0.000190,-0.060157,-0.514774,0.577019,0.631220,103.919460,35.482061,-124.632873
44859,-4.917750,7.769653,-8.694778,4.455984,-5.005956,0.922020,1.116696,0.276114,0.237495,-0.049390,0.078122,-0.086444,0.999983,0.005583,0.001381,0.001187,-0.058848,-0.515235,0.581087,0.627222,104.640019,35.305934,-124.492119
44860,-6.511377,6.604781,-6.729078,4.273252,-2.169494,0.595527,2.033432,0.326597,0.260911,-0.065309,0.066642,-0.066509,0.999946,0.010167,0.001633,0.001305,-0.055389,-0.516023,0.588035,0.620376,105.900845,35.107705,-124.325415
44861,-9.342779,6.853899,-2.175042,2.086742,2.837455,1.438350,2.924579,-0.235615,0.288975,-0.093502,0.068713,-0.020857,0.999891,0.014622,-0.001178,0.001445,-0.048060,-0.515145,0.597881,0.612253,107.448461,34.982781,-124.547608
44862,-8.217994,7.288616,0.037973,-0.303545,3.576852,0.568712,2.610087,-0.802492,0.176493,-0.082247,0.072803,0.001000,0.999906,0.013050,-0.004012,0.000882,-0.039489,-0.512690,0.606488,0.606433,108.611877,35.024445,-125.125865
44863,-5.671280,7.121699,-1.440796,-0.496082,0.967530,-0.659837,2.103223,-0.761720,0.038782,-0.056673,0.071354,-0.013874,0.999937,0.010516,-0.003809,0.000194,-0.031919,-0.510595,0.613103,0.601979,109.517888,35.141345,-125.645270
44864,-5.172739,8.336406,-2.790343,-0.677931,-0.548750,0.349803,1.917503,-0.391803,-0.134122,-0.051618,0.083662,-0.027203,0.999952,0.009587,-0.001959,-0.000671,-0.025431,-0.510059,0.618590,0.597109,110.482103,35.286022,-125.877791
44865,-5.406429,10.108337,-4.628906,-0.599549,-2.050642,2.363834,1.450393,-0.005120,-0.308051,-0.053907,0.101499,-0.045555,0.999973,0.007252,-0.000026,-0.001540,-0.020812,-0.511115,0.622144,0.592676,111.351490,35.447450,-125.810552
44866,-5.746437,11.202891,-3.853107,-1.734740,-1.466292,3.156973,0.772329,0.303584,-0.462869,-0.057263,0.112309,-0.038011,0.999989,0.003862,0.001518,-0.002314,-0.018423,-0.513479,0.623236,0.589556,111.975156,35.625556,-125.498263
44867,-5.578619,11.075840,-2.625839,-2.589226,-0.670401,2.578294,-0.156323,0.457370,-0.593338,-0.055517,0.110903,-0.026218,0.999993,-0.000782,0.002287,-0.002967,-0.018517,-0.516607,0.621231,0.588937,112.147648,35.837685,-125.048593
