// General information: 
//  MT Manager version: 2022.0.0 
//  XDA version: 2022.0.0 build 7085 rev 119802 built on 2022-11-08
// Device information: 
//  DeviceId: 00B4737C
//  ProductCode: MTW2-3A7G6
//  Firmware Version: 4.14.0
//  Hardware Version: 2.0.0
// Device settings: 
//  Filter Profile: human(46.1)
//  Option Flags: Orientation Smoother Disabled, Position/Velocity Smoother Disabled, Continuous Zero Rotation Update Disabled, AHS Disabled, ICC Disabled
// Coordinate system: ENU
PacketCounter,Acc_X,Acc_Y,Acc_Z,FreeAcc_E,FreeAcc_N,FreeAcc_U,Gyr_X,Gyr_Y,Gyr_Z,VelInc_X,VelInc_Y,VelInc_Z,OriInc_q0,OriInc_q1,OriInc_q2,OriInc_q3,Quat_q0,Quat_q1,Quat_q2,Quat_q3,Roll,Pitch,Yaw
02704,-6.370047,3.659347,6.579406,-0.001724,0.011994,0.049196,0.018444,0.011047,-0.017059,-0.063694,0.036593,0.065801,1.000000,0.000092,0.000055,-0.000085,0.306208,0.401285,-0.073464,-0.860122,29.152447,40.189452,-129.939217
02705,-6.385492,3.676381,6.604715,-0.005844,0.004101,0.082387,0.015495,0.009140,-0.010531,-0.063850,0.036762,0.066053,1.000000,0.000077,0.000046,-0.000053,0.306187,0.401325,-0.073484,-0.860110,29.157602,40.193149,-129.938192
02706,-6.399680,3.639389,6.575307,0.004761,0.045685,0.058159,0.012154,0.004274,-0.007475,-0.063994,0.036392,0.065757,1.000000,0.000061,0.000021,-0.000037,0.306183,0.401338,-0.073505,-0.860103,29.161194,40.193557,-129.936806
02707,-6.385787,3.589923,6.591467,-0.037430,0.075687,0.041557,0.014250,0.001808,-0.005656,-0.063856,0.035896,0.065918,1.000000,0.000071,0.000009,-0.000028,0.306181,0.401342,-0.073541,-0.860098,29.165993,40.192217,-129.935396
02708,-6.382497,3.589224,6.548641,-0.008327,0.079848,0.010604,0.016357,0.003642,-0.010710,-0.063822,0.035890,0.065491,1.000000,0.000082,0.000018,-0.000054,0.306155,0.401361,-0.073574,-0.860096,29.170477,40.193212,-129.936360
02709,-6.386456,3.536376,6.534608,-0.021618,0.125924,-0.015874,0.020570,0.010603,-0.023545,-0.063857,0.035365,0.065353,1.000000,0.000103,0.000053,-0.000118,0.306067,0.401419,-0.073588,-0.860099,29.173410,40.201253,-129.943409
02710,-6.412529,3.569126,6.544211,-0.001870,0.113543,0.019555,0.025983,0.007700,-0.013761,-0.064120,0.035687,0.065449,1.000000,0.000130,0.000038,-0.000069,0.306010,0.401471,-0.073650,-0.860090,29.183077,40.205130,-129.944888
02711,-6.414035,3.569396,6.542588,-0.001319,0.113932,0.019551,0.019288,0.017717,-0.024002,-0.064130,0.035695,0.065435,1.000000,0.000096,0.000089,-0.000120,0.305924,0.401558,-0.073648,-0.860080,29.186788,40.216863,-129.949812
02712,-6.381771,3.641176,6.513566,0.036273,0.039508,0.006112,0.009645,0.019241,-0.022260,-0.063807,0.036416,0.065144,1.000000,0.000048,0.000096,-0.000111,0.305867,0.401637,-0.073605,-0.860067,29.186226,40.228888,-129.952634
02713,-6.390631,3.588466,6.541120,-0.005591,0.081804,0.010590,0.007127,0.023318,-0.024710,-0.063894,0.035890,0.065420,1.000000,0.000036,0.000117,-0.000124,0.305807,0.401730,-0.073539,-0.860051,29.183938,40.243617,-129.955654
02714,-6.354911,3.592245,6.556833,-0.034304,0.053785,-0.000598,0.003344,0.025637,-0.023582,-0.063536,0.035929,0.065577,1.000000,0.000017,0.000128,-0.000118,0.305760,0.401828,-0.073457,-0.860029,29.180715,40.259211,-129.957004
02715,-6.348096,3.662506,6.582150,-0.024875,-0.012100,0.038008,0.003361,0.026649,-0.027737,-0.063467,0.036633,0.065831,1.000000,0.000017,0.000133,-0.000139,0.305693,0.401931,-0.073365,-0.860012,29.175812,40.276479,-129.961094
02716,-6.326201,3.628537,6.569191,-0.043569,0.001056,0.002580,0.001231,0.033689,-0.026719,-0.063246,0.036293,0.065703,1.000000,0.000006,0.000168,-0.000134,0.305639,0.402061,-0.073254,-0.859980,29.171951,40.296977,-129.961557
02717,-6.336743,3.662555,6.608042,-0.052659,-0.027423,0.047907,0.001255,0.024821,-0.022687,-0.063355,0.036632,0.066089,1.000000,0.000006,0.000124,-0.000113,0.305600,0.402151,-0.073165,-0.859960,29.167504,40.311907,-129.962744
02718,-6.361426,3.713584,6.673548,-0.066409,-0.064148,0.126436,0.003331,0.027938,-0.022172,-0.063601,0.037142,0.066745,1.000000,0.000017,0.000140,-0.000111,0.305559,0.402258,-0.073082,-0.859931,29.165412,40.328258,-129.962334
02719,-6.329564,3.751720,6.688081,-0.076168,-0.117276,0.129629,0.002528,0.020000,-0.020812,-0.063285,0.037523,0.066888,1.000000,0.000013,0.000100,-0.000104,0.305525,0.402328,-0.073008,-0.859917,29.161328,40.340246,-129.963942
02720,-6.341892,3.733441,6.714651,-0.099157,-0.100069,0.148481,0.006278,0.015669,-0.013636,-0.063411,0.037337,0.067153,1.000000,0.000031,0.000078,-0.000068,0.305511,0.402383,-0.072974,-0.859899,29.161642,40.348075,-129.962423
02721,-6.322082,3.734958,6.701451,-0.098924,-0.112015,0.127420,0.005898,0.006118,-0.011646,-0.063217,0.037351,0.067018,1.000000,0.000029,0.000031,-0.000058,0.305502,0.402396,-0.072955,-0.859897,29.160112,40.350550,-129.963205
02722,-6.343699,3.732766,6.713319,-0.098018,-0.099290,0.148500,0.005074,0.000462,-0.008861,-0.063435,0.037329,0.067134,1.000000,0.000025,0.000002,-0.000044,0.305506,0.402382,-0.072948,-0.859903,29.158159,40.349438,-129.964123
02723,-6.343944,3.732673,6.713139,-0.097437,-0.098902,0.148509,0.007170,-0.002004,-0.007034,-0.063439,0.037327,0.067132,1.000000,0.000036,-0.000010,-0.000035,0.305511,0.402360,-0.072957,-0.859911,29.157422,40.346536,-129.964956
02724,-6.364902,3.730958,6.725363,-0.096531,-0.086174,0.169587,0.009690,-0.006078,-0.004580,-0.063650,0.037308,0.067254,1.000000,0.000048,-0.000030,-0.000023,0.305521,0.402324,-0.072989,-0.859921,29.158383,40.340956,-129.965459
02725,-6.354080,3.748845,6.697587,-0.072401,-0.102591,0.150750,0.011383,-0.009219,-0.004803,-0.063543,0.037486,0.066975,1.000000,0.000057,-0.000046,-0.000024,0.305525,0.402276,-0.073031,-0.859939,29.159285,40.333846,-129.967465
02726,-6.370839,3.746200,6.667862,-0.042967,-0.086068,0.140842,0.009248,-0.005478,-0.001055,-0.063710,0.037459,0.066679,1.000000,0.000046,-0.000027,-0.000005,0.305552,0.402241,-0.073067,-0.859943,29.161632,40.327582,-129.965435
02727,-6.363569,3.732175,6.725950,-0.094818,-0.085009,0.169613,0.000912,-0.013368,-0.000280,-0.063640,0.037322,0.067255,1.000000,0.000005,-0.000067,-0.000001,0.305593,0.402158,-0.073080,-0.859966,29.157487,40.317157,-129.966135
02728,-6.382294,3.709267,6.640851,-0.031895,-0.044097,0.116576,0.001762,-0.019880,0.003706,-0.063830,0.037091,0.066402,1.000000,0.000009,-0.000099,0.000019,0.305650,0.402047,-0.073116,-0.859994,29.154155,40.302359,-129.966252
02729,-6.383523,3.656708,6.629181,-0.045289,0.001926,0.090084,0.002166,-0.019202,0.005754,-0.063843,0.036565,0.066286,1.000000,0.000011,-0.000096,0.000029,0.305714,0.401939,-0.073155,-0.860019,29.151878,40.287346,-129.964981
02730,-6.350517,3.676686,6.590150,-0.021538,-0.026805,0.050171,0.005954,-0.021511,0.004624,-0.063513,0.036763,0.065896,1.000000,0.000030,-0.000108,0.000023,0.305765,0.401827,-0.073212,-0.860048,29.150952,40.271474,-129.965091
02731,-6.334585,3.660544,6.564766,-0.016362,-0.018168,0.016967,0.006800,-0.021433,0.003146,-0.063353,0.036602,0.065642,1.000000,0.000034,-0.000107,0.000016,0.305806,0.401717,-0.073271,-0.860080,29.149739,40.256073,-129.966596
02732,-6.346226,3.623670,6.537606,-0.005897,0.023412,-0.007317,0.006841,-0.026001,0.000300,-0.063471,0.036234,0.065369,1.000000,0.000034,-0.000130,0.000001,0.305836,0.401590,-0.073330,-0.860124,29.146429,40.239161,-129.971181
02733,-6.372297,3.636906,6.493396,0.047424,0.035487,-0.015037,0.015605,-0.023012,0.002876,-0.063731,0.036363,0.064929,1.000000,0.000078,-0.000115,0.000014,0.305858,0.401486,-0.073428,-0.860156,29.149767,40.223018,-129.973316
02734,-6.332712,3.676074,6.468252,0.066213,-0.013829,-0.042811,0.012663,-0.020624,0.002527,-0.063334,0.036756,0.064678,1.000000,0.000063,-0.000103,0.000013,0.305887,0.401390,-0.073509,-0.860184,29.152007,40.208176,-129.974476
02735,-6.344676,3.639440,6.440695,0.076684,0.027746,-0.067107,0.005090,-0.016002,0.004788,-0.063453,0.036391,0.064403,1.000000,0.000025,-0.000080,0.000024,0.305943,0.401299,-0.073553,-0.860202,29.151762,40.194971,-129.972580
02736,-6.378013,3.600657,6.425245,0.087468,0.081672,-0.070345,0.004641,-0.008817,0.002853,-0.063783,0.036004,0.064250,1.000000,0.000023,-0.000044,0.000014,0.305995,0.401241,-0.073582,-0.860208,29.152328,40.185946,-129.969213
02737,-6.360141,3.604439,6.455334,0.059163,0.065912,-0.060413,0.006296,-0.007387,0.005472,-0.063605,0.036041,0.064552,1.000000,0.000031,-0.000037,0.000027,0.306052,0.401190,-0.073621,-0.860208,29.155114,40.176907,-129.963954
02738,-6.397806,3.600177,6.437967,0.088894,0.094809,-0.049301,0.010058,-0.004121,0.003031,-0.063980,0.035998,0.064380,1.000000,0.000050,-0.000021,0.000015,0.306095,0.401160,-0.073667,-0.860203,29.159963,40.170182,-129.958756
02739,-6.404326,3.582153,6.423514,0.094386,0.115788,-0.061460,0.010473,0.000855,-0.001805,-0.064043,0.035819,0.064237,1.000000,0.000052,0.000004,-0.000009,0.306118,0.401153,-0.073696,-0.860196,29.163983,40.167294,-129.955074
02740,-6.387469,3.585952,6.452589,0.066068,0.100036,-0.051522,0.015060,0.006482,-0.004303,-0.063872,0.035856,0.064531,1.000000,0.000075,0.000032,-0.000022,0.306123,0.401179,-0.073732,-0.860179,29.171099,40.167921,-129.950806
02741,-6.409005,3.584785,6.463972,0.066969,0.112774,-0.030471,0.012103,0.007862,-0.000496,-0.064087,0.035844,0.064644,1.000000,0.000061,0.000039,-0.000002,0.306151,0.401204,-0.073760,-0.860155,29.178266,40.168139,-129.943667
02742,-6.417376,3.620682,6.503819,0.057979,0.084343,0.014888,0.007540,0.007539,-0.009038,-0.064170,0.036207,0.065042,1.000000,0.000038,0.000038,-0.000045,0.306151,0.401225,-0.073752,-0.860146,29.179323,40.170617,-129.942112
02743,-6.372504,3.590194,6.479565,0.038861,0.085055,-0.041591,0.009170,0.014547,-0.007730,-0.063719,0.035901,0.064802,1.000000,0.000046,0.000073,-0.000039,0.306155,0.401278,-0.073743,-0.860121,29.183338,40.176229,-129.937372
02744,-6.398454,3.589737,6.532770,0.011252,0.093987,0.010476,0.009595,0.012940,-0.007104,-0.063979,0.035897,0.065334,1.000000,0.000048,0.000065,-0.000036,0.306162,0.401324,-0.073740,-0.860097,29.187665,40.180868,-129.932574
02745,-6.420660,3.587890,6.543876,0.012152,0.106724,0.031529,0.007497,0.015403,-0.008930,-0.064200,0.035879,0.065445,1.000000,0.000037,0.000077,-0.000045,0.306164,0.401378,-0.073720,-0.860073,29.190431,40.187237,-129.928367
02746,-6.391535,3.628418,6.600801,-0.025994,0.049773,0.065802,0.006249,0.014650,-0.009501,-0.063909,0.036285,0.066014,1.000000,0.000031,0.000073,-0.000048,0.306167,0.401428,-0.073695,-0.860050,29.192232,40.193401,-129.924512
02747,-6.399472,3.609347,6.585534,-0.020515,0.070746,0.053642,0.004596,0.013219,-0.012121,-0.063988,0.036096,0.065860,1.000000,0.000023,0.000066,-0.000061,0.306161,0.401469,-0.073660,-0.860036,29.191460,40.199593,-129.923178
02748,-6.390144,3.593310,6.600223,-0.043887,0.075560,0.051446,0.005886,0.009403,-0.014393,-0.063896,0.035936,0.066006,1.000000,0.000029,0.000047,-0.000072,0.306142,0.401497,-0.073631,-0.860032,29.189747,40.204499,-129.924447
02749,-6.381028,3.610107,6.571366,-0.019762,0.059177,0.032583,0.004613,0.014228,-0.016278,-0.063803,0.036105,0.065719,1.000000,0.000023,0.000071,-0.000081,0.306120,0.401544,-0.073585,-0.860022,29.187436,40.212323,-129.925209
02750,-6.371844,3.593980,6.585973,-0.043136,0.063986,0.030390,0.010097,0.008782,-0.017630,-0.063712,0.035942,0.065864,1.000000,0.000050,0.000044,-0.000088,0.306079,0.401577,-0.073570,-0.860023,29.186619,40.217823,-129.928826
02751,-6.352126,3.595396,6.572693,-0.042923,0.052015,0.009335,0.007557,0.011846,-0.015932,-0.063514,0.035957,0.065732,1.000000,0.000038,0.000059,-0.000080,0.306051,0.401619,-0.073541,-0.860016,29.185591,40.224350,-129.930288
02752,-6.361253,3.630267,6.612456,-0.051853,0.023584,0.054719,0.006772,0.008206,-0.021451,-0.063606,0.036307,0.066128,1.000000,0.000034,0.000041,-0.000107,0.306000,0.401646,-0.073504,-0.860024,29.181115,40.230629,-129.936620
02753,-6.355809,3.648270,6.625932,-0.056194,0.003375,0.066887,0.005064,0.007047,-0.014340,-0.063553,0.036486,0.066262,1.000000,0.000025,0.000035,-0.000072,0.305982,0.401662,-0.073475,-0.860026,29.178203,40.234331,-129.938889
02754,-6.387055,3.606927,6.567256,-0.017028,0.061143,0.032576,0.006358,0.003231,-0.016611,-0.063866,0.036072,0.065675,1.000000,0.000032,0.000016,-0.000083,0.305950,0.401665,-0.073454,-0.860037,29.174361,40.236769,-129.943872
02755,-6.366879,3.608121,6.554549,-0.016813,0.049170,0.011523,0.005955,0.002554,-0.018661,-0.063665,0.036085,0.065547,1.000000,0.000030,0.000013,-0.000093,0.305912,0.401665,-0.073426,-0.860054,29.169043,40.239405,-129.950408
02756,-6.367856,3.607310,6.554046,-0.016275,0.049568,0.011521,0.008470,0.005073,-0.021677,-0.063673,0.036077,0.065544,1.000000,0.000042,0.000025,-0.000108,0.305855,0.401681,-0.073401,-0.860068,29.164700,40.244178,-129.958039
02757,-6.375901,3.620542,6.495561,0.036657,0.049395,-0.017333,0.008041,0.009975,-0.025044,-0.063751,0.036211,0.064960,1.000000,0.000040,0.000050,-0.000125,0.305784,0.401718,-0.073360,-0.860080,29.159678,40.252346,-129.966464
02758,-6.402525,3.651781,6.505421,0.056566,0.037176,0.018068,0.003381,0.014491,-0.021019,-0.064017,0.036523,0.065059,1.000000,0.000017,0.000072,-0.000105,0.305743,0.401767,-0.073300,-0.860076,29.154922,40.261646,-129.970221
02759,-6.353234,3.693164,6.550067,0.018192,-0.032175,0.031349,-0.000840,0.021699,-0.023259,-0.063521,0.036939,0.065507,1.000000,-0.000004,0.000108,-0.000116,0.305703,0.401841,-0.073206,-0.860064,29.148322,40.275159,-129.973058
02760,-6.369903,3.675632,6.618592,-0.033287,-0.018865,0.081262,-0.001733,0.026195,-0.018943,-0.063687,0.036763,0.066194,1.000000,-0.000009,0.000131,-0.000095,0.305687,0.401931,-0.073110,-0.860036,29.144280,40.289737,-129.971175
02761,-6.399623,3.653959,6.615160,-0.027482,0.014475,0.090139,0.002021,0.021878,-0.011756,-0.063987,0.036543,0.066159,1.000000,0.000010,0.000109,-0.000059,0.305693,0.402005,-0.073050,-0.860004,29.144203,40.300111,-129.966124
02762,-6.367168,3.692987,6.629880,-0.037047,-0.038670,0.093443,0.007938,0.014829,-0.012473,-0.063664,0.036931,0.066305,1.000000,0.000040,0.000074,-0.000062,0.305680,0.402059,-0.073026,-0.859986,29.145759,40.307195,-129.964154
02763,-6.372372,3.693921,6.670937,-0.064928,-0.042125,0.124494,0.005893,0.009424,-0.014407,-0.063718,0.036942,0.066713,1.000000,0.000029,0.000047,-0.000072,0.305659,0.402087,-0.072998,-0.859982,29.143888,40.312087,-129.965783
02764,-6.354869,3.642395,6.645241,-0.078893,-0.008534,0.076920,0.008018,0.004679,-0.013996,-0.063545,0.036426,0.066455,1.000000,0.000040,0.000023,-0.000070,0.305636,0.402098,-0.072987,-0.859986,29.142440,40.314517,-129.968527
02765,-6.355760,3.675055,6.601101,-0.030837,-0.029272,0.060227,0.009692,0.003828,-0.012795,-0.063554,0.036751,0.066014,1.000000,0.000048,0.000019,-0.000064,0.305613,0.402107,-0.072986,-0.859990,29.142071,40.316192,-129.971042
02766,-6.294789,3.702150,6.661981,-0.093091,-0.094267,0.071377,0.009266,0.005437,-0.013426,-0.062944,0.037023,0.066623,1.000000,0.000046,0.000027,-0.000067,0.305591,0.402123,-0.072980,-0.859992,29.141759,40.318843,-129.973135
02767,-6.316564,3.699970,6.673662,-0.092176,-0.081518,0.092432,0.003358,0.005896,-0.007235,-0.063162,0.037001,0.066739,1.000000,0.000017,0.000029,-0.000036,0.305603,0.402129,-0.072961,-0.859986,29.140649,40.320006,-129.971476
02768,-6.403804,3.671998,6.665984,-0.056925,-0.007202,0.133383,0.006704,0.004193,-0.004832,-0.064036,0.036719,0.066662,1.000000,0.000034,0.000021,-0.000024,0.305622,0.402133,-0.072964,-0.859977,29.142225,40.319636,-129.968383
02769,-6.352824,3.715079,6.711527,-0.095214,-0.076597,0.146723,0.008409,-0.002239,-0.002310,-0.063529,0.037149,0.067116,1.000000,0.000042,-0.000011,-0.000012,0.305646,0.402110,-0.072987,-0.859977,29.144111,40.315346,-129.966074
02770,-6.397166,3.691250,6.679996,-0.060667,-0.027011,0.145575,0.004298,-0.010769,-0.004753,-0.063974,0.036913,0.066797,1.000000,0.000021,-0.000054,-0.000024,0.305665,0.402045,-0.073002,-0.860000,29.140799,40.307467,-129.968405
02771,-6.371274,3.658945,6.669996,-0.079505,-0.014052,0.110182,0.003508,-0.018714,-0.003373,-0.063718,0.036589,0.066695,1.000000,0.000018,-0.000094,-0.000017,0.305689,0.401944,-0.073027,-0.860036,29.135509,40.295216,-129.972686
02772,-6.345283,3.659603,6.616631,-0.050875,-0.022169,0.058079,0.005603,-0.017877,-0.004282,-0.063458,0.036596,0.066162,1.000000,0.000028,-0.000089,-0.000021,0.305704,0.401851,-0.073060,-0.860071,29.131466,40.283648,-129.977305
02773,-6.350792,3.640919,6.603398,-0.045459,-0.001197,0.045895,0.005603,-0.017876,-0.004283,-0.063513,0.036409,0.066029,1.000000,0.000028,-0.000089,-0.000021,0.305718,0.401757,-0.073092,-0.860108,29.127248,40.272078,-129.982224
02774,-6.350015,3.673808,6.560743,0.002587,-0.021882,0.029184,0.002656,-0.015496,-0.004636,-0.063504,0.036739,0.065603,1.000000,0.000013,-0.000077,-0.000023,0.305739,0.401670,-0.073107,-0.860140,29.121932,40.261800,-129.986201
02775,-6.349426,3.673552,6.561457,0.003156,-0.021496,0.029184,0.000950,-0.009065,-0.007158,-0.063496,0.036737,0.065612,1.000000,0.000005,-0.000045,-0.000036,0.305755,0.401608,-0.073099,-0.860164,29.115880,40.255416,-129.989509
02776,-6.376693,3.652658,6.559942,0.008893,0.011871,0.038035,0.005940,-0.006036,-0.004875,-0.063768,0.036526,0.065599,1.000000,0.000030,-0.000030,-0.000024,0.305771,0.401566,-0.073114,-0.860176,29.114580,40.249939,-129.990184
02777,-6.397431,3.683793,6.528990,0.057311,0.003567,0.042356,0.008494,-0.012387,-0.003834,-0.063978,0.036836,0.065288,1.000000,0.000042,-0.000062,-0.000019,0.305785,0.401500,-0.073151,-0.860199,29.113491,40.240965,-129.992619
02778,-6.378240,3.633145,6.504436,0.043256,0.037119,-0.005235,0.012262,-0.012400,-0.003543,-0.063786,0.036329,0.065043,1.000000,0.000061,-0.000062,-0.000018,0.305792,0.401441,-0.073205,-0.860220,29.114877,40.231931,-129.994744
02779,-6.409017,3.647239,6.501576,0.068096,0.045540,0.017960,0.011869,-0.016371,-0.002854,-0.064095,0.036469,0.065013,1.000000,0.000059,-0.000082,-0.000014,0.305804,0.401362,-0.073263,-0.860247,29.115143,40.220710,-129.997677
02780,-6.372633,3.632920,6.463422,0.072771,0.041775,-0.036320,0.012716,-0.016291,-0.004335,-0.063731,0.036326,0.064631,1.000000,0.000064,-0.000081,-0.000022,0.305805,0.401287,-0.073323,-0.860277,29.115537,40.209949,-130.001742
02781,-6.340495,3.619821,6.467058,0.049053,0.034123,-0.059521,0.014793,-0.008868,-0.010726,-0.063406,0.036197,0.064670,1.000000,0.000074,-0.000044,-0.000054,0.305778,0.401248,-0.073368,-0.860301,29.115974,40.204647,-130.007362
02782,-6.371963,3.633652,6.463672,0.073866,0.042572,-0.036332,0.012648,-0.005132,-0.006978,-0.063720,0.036335,0.064637,1.000000,0.000063,-0.000026,-0.000035,0.305772,0.401221,-0.073406,-0.860312,29.117842,40.200209,-130.009085
02783,-6.393468,3.664816,6.431957,0.122279,0.034298,-0.032031,0.008366,0.006637,-0.006381,-0.063931,0.036648,0.064323,1.000000,0.000042,0.000033,-0.000032,0.305780,0.401238,-0.073408,-0.860301,29.120116,40.201489,-130.006438
02784,-6.398005,3.666136,6.473404,0.094411,0.030830,-0.000954,0.002076,0.007421,-0.006392,-0.063976,0.036663,0.064737,1.000000,0.000010,0.000037,-0.000032,0.305802,0.401249,-0.073383,-0.860290,29.119132,40.203170,-130.003195
02785,-6.430124,3.646566,6.513052,0.071731,0.060306,0.038962,0.001204,0.009628,-0.003493,-0.064297,0.036466,0.065134,1.000000,0.000006,0.000048,-0.000017,0.305839,0.401267,-0.073354,-0.860271,29.119175,40.205210,-129.997410
02786,-6.387260,3.563101,6.476633,0.038161,0.106362,-0.044024,0.001605,0.010308,-0.001444,-0.063869,0.035631,0.064770,1.000000,0.000008,0.000052,-0.000007,0.305885,0.401288,-0.073332,-0.860247,29.120696,40.206957,-129.989870
02787,-6.374759,3.567951,6.547688,-0.018433,0.086605,-0.002886,0.007066,0.010453,-0.004113,-0.063743,0.035679,0.065481,1.000000,0.000035,0.000052,-0.000021,0.305908,0.401318,-0.073328,-0.860225,29.124088,40.209475,-129.984230
02788,-6.400707,3.600351,6.557566,0.001569,0.074478,0.032499,0.007512,0.009853,-0.007643,-0.064002,0.036003,0.065580,1.000000,0.000038,0.000049,-0.000038,0.305915,0.401348,-0.073320,-0.860209,29.126263,40.212723,-129.980919
02789,-6.401672,3.600118,6.556752,0.002123,0.074862,0.032496,0.006310,0.007817,-0.013793,-0.064012,0.036004,0.065571,1.000000,0.000032,0.000039,-0.000069,0.305896,0.401369,-0.073296,-0.860208,29.124488,40.216671,-129.982630
02790,-6.406906,3.633752,6.554448,0.021787,0.050357,0.046845,0.005055,0.010352,-0.017106,-0.064063,0.036341,0.065549,1.000000,0.000025,0.000052,-0.000086,0.305868,0.401401,-0.073258,-0.860206,29.121368,40.222808,-129.985339
02791,-6.374020,3.672799,6.569595,0.012380,-0.002830,0.050223,0.002469,0.011396,-0.007087,-0.063735,0.036729,0.065700,1.000000,0.000012,0.000057,-0.000035,0.305885,0.401430,-0.073227,-0.860190,29.121095,40.226727,-129.981617
02792,-6.345932,3.605726,6.559583,-0.025690,0.034982,0.000485,-0.002127,0.012335,-0.010060,-0.063453,0.036061,0.065599,1.000000,-0.000011,0.000062,-0.000050,0.305902,0.401457,-0.073168,-0.860176,29.117311,40.231891,-129.978984
02793,-6.376057,3.638927,6.611602,-0.034032,0.018962,0.066971,0.002442,0.013683,-0.005669,-0.063755,0.036390,0.066121,1.000000,0.000012,0.000068,-0.000028,0.305930,0.401495,-0.073135,-0.860151,29.118106,40.236515,-129.972995
02794,-6.390031,3.568165,6.625980,-0.071420,0.081543,0.059301,0.002890,0.013084,-0.009200,-0.063894,0.035684,0.066264,1.000000,0.000014,0.000065,-0.000046,0.305940,0.401532,-0.073098,-0.860133,29.117737,40.241814,-129.969523
02795,-6.395477,3.635009,6.579868,-0.004192,0.036034,0.056901,0.007933,0.011546,-0.009757,-0.063949,0.036351,0.065804,1.000000,0.000040,0.000058,-0.000049,0.305939,0.401570,-0.073084,-0.860117,29.119471,40.246456,-129.967037
02796,-6.368911,3.622687,6.624374,-0.056315,0.024447,0.064836,0.009257,0.008740,-0.016186,-0.063683,0.036229,0.066248,1.000000,0.000046,0.000044,-0.000081,0.305905,0.401602,-0.073067,-0.860116,29.118766,40.251529,-129.969733
02797,-6.373900,3.656677,6.622135,-0.036599,-0.000063,0.079189,0.007998,0.003681,-0.009851,-0.063736,0.036567,0.066224,1.000000,0.000040,0.000018,-0.000049,0.305901,0.401606,-0.073064,-0.860115,29.118602,40.252287,-129.970021
02798,-6.343134,3.642786,6.624949,-0.060339,-0.007764,0.056025,0.003394,0.007913,-0.015570,-0.063426,0.036432,0.066253,1.000000,0.000017,0.000040,-0.000078,0.305882,0.401625,-0.073025,-0.860117,29.114603,40.256774,-129.972616
02799,-6.357338,3.637064,6.552588,-0.002685,0.012805,0.014836,-0.003316,0.007005,-0.013473,-0.063569,0.036376,0.065528,1.000000,-0.000017,0.000035,-0.000067,0.305884,0.401628,-0.072962,-0.860120,29.107234,40.260263,-129.974402
02800,-6.358001,3.603403,6.595823,-0.049674,0.034184,0.031597,0.001280,0.006069,-0.010499,-0.063576,0.036037,0.065960,1.000000,0.000006,0.000030,-0.000052,0.305890,0.401633,-0.072927,-0.860119,29.103738,40.262413,-129.974345
02801,-6.348483,3.620094,6.567415,-0.025529,0.017882,0.012703,0.001301,0.007077,-0.014662,-0.063480,0.036205,0.065677,1.000000,0.000007,0.000035,-0.000073,0.305875,0.401644,-0.072883,-0.860123,29.098592,40.266221,-129.977173
02802,-6.364046,3.636071,6.593302,-0.029416,0.010089,0.045951,0.000026,0.008605,-0.013815,-0.063635,0.036365,0.065936,1.000000,0.000000,0.000043,-0.000069,0.305870,0.401660,-0.072832,-0.860121,29.093569,40.270564,-129.978366
02803,-6.392673,3.614403,6.590810,-0.023733,0.043459,0.054759,0.005092,0.008078,-0.018533,-0.063921,0.036148,0.065912,1.000000,0.000025,0.000040,-0.000093,0.305834,0.401682,-0.072793,-0.860127,29.089117,40.275963,-129.982940
02804,-6.366246,3.634513,6.592036,-0.028311,0.010867,0.045953,0.006347,0.005544,-0.015219,-0.063658,0.036348,0.065923,1.000000,0.000032,0.000028,-0.000076,0.305810,0.401695,-0.072771,-0.860132,29.086396,40.279165,-129.986173
02805,-6.360786,3.652868,6.605458,-0.032516,-0.009343,0.058177,0.010536,0.007225,-0.017039,-0.063602,0.036531,0.066059,1.000000,0.000053,0.000036,-0.000085,0.305769,0.401721,-0.072759,-0.860135,29.085495,40.283726,-129.990100
02806,-6.393389,3.665973,6.601280,-0.007681,-0.000819,0.081332,0.009268,0.005458,-0.013447,-0.063930,0.036661,0.066016,1.000000,0.000046,0.000027,-0.000067,0.305746,0.401737,-0.072753,-0.860136,29.085179,40.286391,-129.992203
02807,-6.373098,3.667788,6.588413,-0.007463,-0.012831,0.060307,0.010125,0.002244,-0.012182,-0.063728,0.036678,0.065887,1.000000,0.000051,0.000011,-0.000061,0.305725,0.401739,-0.072758,-0.860142,29.084961,40.287058,-129.994839
02808,-6.390283,3.631663,6.601854,-0.025754,0.024836,0.066983,0.010112,-0.002058,-0.005273,-0.063903,0.036315,0.066020,1.000000,0.000051,-0.000010,-0.000026,0.305733,0.401722,-0.072784,-0.860145,29.086823,40.283683,-129.994320
02809,-6.373707,3.667969,6.587724,-0.006352,-0.012045,0.060309,0.008031,0.001405,-0.011273,-0.063735,0.036681,0.065879,1.000000,0.000040,0.000007,-0.000056,0.305720,0.401717,-0.072783,-0.860152,29.085569,40.283703,-129.996597
02810,-6.397569,3.612613,6.587040,-0.019896,0.046208,0.054755,0.006357,0.002252,-0.012477,-0.063973,0.036128,0.065872,1.000000,0.000032,0.000011,-0.000062,0.305706,0.401714,-0.072771,-0.860159,29.083240,40.284493,-129.999233
02811,-6.391715,3.631209,6.600716,-0.024093,0.026006,0.066984,0.008001,0.003693,-0.009857,-0.063914,0.036313,0.066010,1.000000,0.000040,0.000018,-0.000049,0.305698,0.401719,-0.072770,-0.860160,29.083156,40.285274,-130.000064
02812,-6.379758,3.701456,6.584760,0.014495,-0.035708,0.074662,0.005898,0.006147,-0.011694,-0.063793,0.037016,0.065851,1.000000,0.000029,0.000031,-0.000058,0.305690,0.401732,-0.072752,-0.860158,29.081816,40.287796,-130.000764
02813,-6.380512,3.700885,6.584350,0.015067,-0.035319,0.074662,-0.002059,0.004470,-0.010166,-0.063802,0.037013,0.065845,1.000000,-0.000010,0.000022,-0.000051,0.305704,0.401725,-0.072705,-0.860161,29.075962,40.289032,-130.001080
02814,-6.359743,3.669411,6.615649,-0.032278,-0.026399,0.070428,-0.000773,-0.000351,-0.008267,-0.063596,0.036697,0.066156,1.000000,-0.000004,-0.000002,-0.000041,0.305721,0.401699,-0.072675,-0.860169,29.070720,40.287345,-130.001902
02815,-6.366585,3.650191,6.601350,-0.026969,-0.005423,0.058197,0.005907,0.002854,-0.008947,-0.063663,0.036503,0.066015,1.000000,0.000030,0.000014,-0.000045,0.305723,0.401696,-0.072667,-0.860170,29.069589,40.287426,-130.002120
02816,-6.364633,3.703135,6.613687,-0.011953,-0.050457,0.084783,0.005948,-0.002728,-0.007617,-0.063646,0.037032,0.066137,1.000000,0.000030,-0.000014,-0.000038,0.305729,0.401670,-0.072671,-0.860180,29.067913,40.284368,-130.003383
02817,-6.349978,3.686043,6.587522,-0.006989,-0.041891,0.051530,-0.000302,-0.007540,-0.006303,-0.063501,0.036863,0.065873,1.000000,-0.000002,-0.000038,-0.000032,0.305753,0.401612,-0.072657,-0.860200,29.061864,40.278488,-130.005401
02818,-6.351823,3.632689,6.575514,-0.020926,0.003936,0.024945,0.000954,-0.010074,-0.002986,-0.063521,0.036328,0.065752,1.000000,0.000005,-0.000050,-0.000015,0.305787,0.401545,-0.072660,-0.860219,29.057560,40.270462,-130.006303
02819,-6.372659,3.663414,6.544580,0.027535,-0.004172,0.029169,0.001738,-0.005419,-0.001632,-0.063728,0.036634,0.065444,1.000000,0.000009,-0.000027,-0.000008,0.305826,0.401498,-0.072661,-0.860227,29.055187,40.264371,-130.004734
02820,-6.368362,3.629218,6.546230,0.008855,0.021063,0.014818,0.004220,-0.000603,-0.003239,-0.063683,0.036292,0.065463,1.000000,0.000021,-0.000003,-0.000016,0.305854,0.401476,-0.072663,-0.860227,29.054880,40.261159,-130.002348
02821,-6.340952,3.650158,6.547992,0.004344,-0.011551,0.006039,0.005497,-0.002128,-0.004087,-0.063409,0.036501,0.065480,1.000000,0.000027,-0.000011,-0.000020,0.305876,0.401450,-0.072671,-0.860230,29.054413,40.257374,-130.001201
02822,-6.368479,3.629368,6.546033,0.009956,0.021854,0.014815,0.005068,-0.000521,-0.004720,-0.063684,0.036294,0.065461,1.000000,0.000025,-0.000003,-0.000024,0.305897,0.401431,-0.072674,-0.860232,29.053983,40.254616,-129.999757
02823,-6.362313,3.648371,6.559798,0.005800,0.001657,0.027056,0.009224,0.003450,-0.005125,-0.063621,0.036482,0.065601,1.000000,0.000046,0.000017,-0.000026,0.305910,0.401434,-0.072687,-0.860225,29.056520,40.253905,-129.997223
02824,-6.366730,3.650071,6.601277,-0.021978,-0.001879,0.058211,0.008795,0.005057,-0.005759,-0.063665,0.036500,0.066016,1.000000,0.000044,0.000025,-0.000029,0.305921,0.401445,-0.072695,-0.860215,29.059099,40.254229,-129.994427
02825,-6.400838,3.610743,6.584889,-0.011636,0.052101,0.054739,0.010942,-0.002977,-0.002591,-0.064009,0.036105,0.065850,1.000000,0.000055,-0.000015,-0.000013,0.305939,0.401423,-0.072730,-0.860216,29.062142,40.249630,-129.992425
02826,-6.383793,3.647609,6.570919,0.007797,0.015262,0.048071,0.011801,-0.006190,-0.001324,-0.063840,0.036473,0.065709,1.000000,0.000059,-0.000031,-0.000007,0.305959,0.401388,-0.072777,-0.860221,29.065673,40.243087,-129.990821
02827,-6.396277,3.610605,6.542690,0.017774,0.056823,0.023576,0.013079,-0.007715,-0.002172,-0.063965,0.036102,0.065427,1.000000,0.000065,-0.000039,-0.000011,0.305972,0.401349,-0.072829,-0.860230,29.069017,40.236022,-129.990420
02828,-6.408640,3.573709,6.514530,0.027722,0.098402,-0.000923,0.018158,-0.011529,-0.004145,-0.064089,0.035733,0.065145,1.000000,0.000091,-0.000058,-0.000021,0.305965,0.401302,-0.072906,-0.860248,29.073736,40.227591,-129.992615
02829,-6.410911,3.554013,6.458233,0.061288,0.123314,-0.044341,0.016462,-0.004095,-0.010848,-0.064108,0.035538,0.064584,1.000000,0.000082,-0.000020,-0.000054,0.305938,0.401287,-0.072949,-0.860261,29.076155,40.224753,-129.996345
02830,-6.400392,3.539197,6.473508,0.037860,0.127936,-0.046448,0.023604,-0.004778,-0.012318,-0.064003,0.035388,0.064738,1.000000,0.000118,-0.000024,-0.000062,0.305887,0.401281,-0.073023,-0.860276,29.082122,40.221978,-130.001439
02831,-6.363163,3.577946,6.446498,0.056960,0.078671,-0.074133,0.018469,0.007912,-0.014429,-0.063626,0.035778,0.064471,1.000000,0.000092,0.000040,-0.000072,0.305837,0.401321,-0.073052,-0.860272,29.087138,40.226150,-130.003992
02832,-6.395926,3.591600,6.441800,0.081794,0.087282,-0.051031,0.017159,0.011726,-0.012167,-0.063953,0.035914,0.064425,1.000000,0.000086,0.000059,-0.000061,0.305806,0.401376,-0.073074,-0.860256,29.093365,40.231596,-130.002967
02833,-6.433039,3.606352,6.478984,0.078341,0.091926,0.003239,0.007471,0.019760,-0.015923,-0.064321,0.036066,0.064798,1.000000,0.000037,0.000099,-0.000080,0.305781,0.401451,-0.073032,-0.860233,29.094146,40.242167,-130.001696
02834,-6.403207,3.592311,6.481009,0.054569,0.084116,-0.019874,-0.002647,0.021806,-0.010647,-0.064023,0.035927,0.064817,1.000000,-0.000013,0.000109,-0.000053,0.305800,0.401518,-0.072956,-0.860202,29.092047,40.252237,-129.995993
02835,-6.415516,3.573944,6.507630,0.031508,0.101140,-0.000962,-0.003902,0.024340,-0.013969,-0.064145,0.035745,0.065083,1.000000,-0.000020,0.000122,-0.000070,0.305806,0.401595,-0.072863,-0.860171,29.088251,40.264506,-129.991814
02836,-6.400735,3.576210,6.535900,0.003397,0.085159,0.009197,-0.003063,0.027718,-0.018204,-0.063995,0.035769,0.065367,1.000000,-0.000015,0.000139,-0.000091,0.305796,0.401690,-0.072761,-0.860140,29.084105,40.279642,-129.988912
02837,-6.373226,3.616193,6.592338,-0.034053,0.027989,0.043876,-0.002202,0.024508,-0.016936,-0.063721,0.036168,0.065931,1.000000,-0.000011,0.000123,-0.000085,0.305787,0.401771,-0.072670,-0.860113,29.080079,40.292777,-129.986590
02838,-6.369243,3.633735,6.604839,-0.038192,0.007798,0.056135,0.000767,0.026445,-0.023500,-0.063679,0.036345,0.066057,1.000000,0.000004,0.000132,-0.000118,0.305745,0.401868,-0.072575,-0.860090,29.075578,40.308751,-129.987632
02839,-6.365438,3.651243,6.617205,-0.042305,-0.012417,0.068397,0.003293,0.025687,-0.023779,-0.063642,0.036519,0.066181,1.000000,0.000016,0.000128,-0.000119,0.305698,0.401965,-0.072490,-0.860068,29.071993,40.324456,-129.989065
02840,-6.331655,3.710318,6.687675,-0.084414,-0.090176,0.115357,0.000719,0.024436,-0.015169,-0.063306,0.037108,0.066885,1.000000,0.000004,0.000122,-0.000076,0.305692,0.402051,-0.072415,-0.860037,29.070529,40.337103,-129.985370
02841,-6.382045,3.686650,6.696577,-0.078476,-0.044346,0.145119,0.001555,0.020215,-0.009730,-0.063812,0.036869,0.066973,1.000000,0.000008,0.000101,-0.000049,0.305706,0.402117,-0.072360,-0.860006,29.070657,40.346150,-129.979757
02842,-6.339054,3.710753,6.727144,-0.111569,-0.093367,0.146559,0.004555,0.012263,-0.008032,-0.063385,0.037109,0.067276,1.000000,0.000023,0.000061,-0.000040,0.305718,0.402153,-0.072334,-0.859987,29.071550,40.350715,-129.975818
02843,-6.373751,3.670710,6.710415,-0.101316,-0.039384,0.143048,0.002076,0.007440,-0.006419,-0.063734,0.036708,0.067107,1.000000,0.000010,0.000037,-0.000032,0.305741,0.402164,-0.072307,-0.859976,29.070356,40.352449,-129.972660
02844,-6.348773,3.605626,6.743097,-0.167989,-0.005840,0.124544,0.006347,0.001259,-0.008318,-0.063486,0.036057,0.067433,1.000000,0.000032,0.000006,-0.000042,0.305744,0.402155,-0.072305,-0.859979,29.069551,40.351583,-129.972930
02845,-6.338996,3.655804,6.671017,-0.096236,-0.042896,0.088784,0.015623,-0.000859,-0.012106,-0.063388,0.036557,0.066713,1.000000,0.000078,-0.000004,-0.000061,0.305710,0.402153,-0.072339,-0.859989,29.071775,40.350748,-129.976819
02846,-6.364143,3.655652,6.725030,-0.123613,-0.034033,0.140990,0.015249,-0.008132,-0.008649,-0.063643,0.036554,0.067250,1.000000,0.000076,-0.000041,-0.000043,0.305690,0.402118,-0.072389,-0.860008,29.073708,40.345271,-129.980737
02847,-6.378855,3.705599,6.707618,-0.079773,-0.062604,0.157424,0.012724,-0.007371,-0.008375,-0.063789,0.037054,0.067076,1.000000,0.000064,-0.000037,-0.000042,0.305677,0.402082,-0.072428,-0.860027,29.074307,40.340112,-129.984413
02848,-6.374674,3.704045,6.665713,-0.050949,-0.058234,0.126234,0.002661,-0.006617,-0.008690,-0.063747,0.037042,0.066656,1.000000,0.000013,-0.000033,-0.000043,0.305683,0.402034,-0.072421,-0.860047,29.069369,40.335406,-129.987803
02849,-6.370258,3.669530,6.667653,-0.069692,-0.033080,0.111892,0.000923,-0.004494,-0.004312,-0.063703,0.036696,0.066675,1.000000,0.000005,-0.000022,-0.000022,0.305712,0.401991,-0.072413,-0.860058,29.065640,40.330504,-129.987779
02850,-6.355141,3.652563,6.641820,-0.064843,-0.024536,0.078622,0.000551,-0.011768,-0.000853,-0.063555,0.036526,0.066415,1.000000,0.000003,-0.000059,-0.000004,0.305754,0.401915,-0.072422,-0.860078,29.061610,40.321037,-129.987901
02851,-6.377693,3.630109,6.598676,-0.031020,0.012839,0.056155,0.003113,-0.014815,-0.002544,-0.063781,0.036301,0.065983,1.000000,0.000016,-0.000074,-0.000013,0.305785,0.401830,-0.072440,-0.860105,29.057353,40.310551,-129.990082
02852,-6.359982,3.666521,6.585644,-0.011501,-0.023961,0.049500,0.008200,-0.018622,-0.004512,-0.063605,0.036664,0.065852,1.000000,0.000041,-0.000093,-0.000023,0.305794,0.401738,-0.072484,-0.860141,29.054535,40.298668,-129.995105
02853,-6.359239,3.666598,6.586319,-0.010935,-0.023566,0.049502,0.008177,-0.012030,-0.010023,-0.063595,0.036666,0.065861,1.000000,0.000041,-0.000060,-0.000050,0.305780,0.401675,-0.072507,-0.860173,29.050772,40.291564,-130.001617
02854,-6.350268,3.631160,6.546387,-0.001465,0.005564,0.003950,0.011048,-0.014122,0.000092,-0.063507,0.036308,0.065461,1.000000,0.000055,-0.000071,0.000000,0.305805,0.401605,-0.072566,-0.860193,29.052604,40.280654,-130.001974
02855,-6.374809,3.696883,6.513803,0.066357,-0.027107,0.022435,0.014436,-0.018093,0.001087,-0.063754,0.036964,0.065135,1.000000,0.000072,-0.000090,0.000005,0.305820,0.401521,-0.072650,-0.860219,29.055789,40.267435,-130.003912
02856,-6.396807,3.642475,6.514288,0.052543,0.031078,0.016808,0.006429,-0.014208,0.001280,-0.063973,0.036422,0.065140,1.000000,0.000032,-0.000071,0.000006,0.305859,0.401443,-0.072692,-0.860238,29.055458,40.256152,-130.003521
02857,-6.395825,3.642922,6.515002,0.053101,0.031456,0.016804,0.003054,-0.013530,0.003039,-0.063963,0.036427,0.065146,1.000000,0.000015,-0.000068,0.000015,0.305914,0.401361,-0.072719,-0.860254,29.053849,40.244761,-130.001612
02858,-6.371927,3.590683,6.449020,0.066823,0.068726,-0.062040,0.003055,-0.013529,0.003039,-0.063724,0.035905,0.064486,1.000000,0.000015,-0.000068,0.000015,0.305968,0.401280,-0.072749,-0.860270,29.052489,40.233328,-129.999819
02859,-6.387904,3.554621,6.463572,0.048376,0.106297,-0.055394,0.000085,-0.007870,-0.000075,-0.063882,0.035546,0.064633,1.000000,0.000000,-0.000039,-0.000000,0.306018,0.401220,-0.072749,-0.860281,29.049214,40.225595,-129.997911
02860,-6.411045,3.532324,6.419862,0.082115,0.143724,-0.077902,0.008425,-0.002195,-0.002315,-0.064111,0.035321,0.064199,1.000000,0.000042,-0.000011,-0.000012,0.306041,0.401198,-0.072773,-0.860281,29.051330,40.221328,-129.995501
02861,-6.400552,3.624957,6.502024,0.059922,0.053628,0.004503,0.009666,0.006164,-0.011427,-0.064001,0.036250,0.065024,1.000000,0.000048,0.000031,-0.000057,0.306028,0.401216,-0.072771,-0.860277,29.052054,40.223751,-129.995935
02862,-6.397239,3.590427,6.502900,0.041101,0.078762,-0.009848,0.001623,0.012335,-0.009816,-0.063967,0.035907,0.065033,1.000000,0.000008,0.000062,-0.000049,0.306039,0.401249,-0.072729,-0.860262,29.050514,40.228850,-129.993150
02863,-6.375233,3.645185,6.502205,0.056063,0.021374,-0.004219,0.002450,0.011412,-0.007129,-0.063747,0.036453,0.065026,1.000000,0.000012,0.000057,-0.000036,0.306063,0.401277,-0.072693,-0.860243,29.050092,40.232733,-129.988467
02864,-6.428560,3.623818,6.553750,0.033670,0.063276,0.056707,0.009535,0.012023,-0.003012,-0.064281,0.036236,0.065543,1.000000,0.000048,0.000060,-0.000015,0.306087,0.401318,-0.072700,-0.860215,29.055896,40.235782,-129.981332
02865,-6.412596,3.660193,6.539019,0.053243,0.026485,0.050052,0.000369,0.007271,-0.003461,-0.064123,0.036603,0.065393,1.000000,0.000002,0.000036,-0.000017,0.306124,0.401324,-0.072673,-0.860201,29.054969,40.236590,-129.976502
02866,-6.372917,3.578223,6.545423,-0.009276,0.068012,-0.001694,-0.000026,0.006589,-0.005512,-0.063726,0.035784,0.065456,1.000000,-0.000000,0.000033,-0.000028,0.306154,0.401328,-0.072641,-0.860191,29.052957,40.237613,-129.972987
02867,-6.379869,3.559155,6.530863,-0.004134,0.088982,-0.013986,0.010532,0.002956,-0.010154,-0.063796,0.035591,0.065311,1.000000,0.000053,0.000015,-0.000051,0.306136,0.401334,-0.072653,-0.860194,29.054074,40.238155,-129.974675
02868,-6.388889,3.595078,6.570470,-0.012454,0.060662,0.031587,0.017665,0.005582,-0.014379,-0.063884,0.035950,0.065710,1.000000,0.000088,0.000028,-0.000072,0.306092,0.401364,-0.072681,-0.860193,29.058204,40.241141,-129.977345
02869,-6.379400,3.612686,6.541484,0.011727,0.044453,0.012644,0.014685,0.006941,-0.010569,-0.063790,0.036125,0.065420,1.000000,0.000073,0.000035,-0.000053,0.306071,0.401393,-0.072701,-0.860185,29.062355,40.243790,-129.977136
02870,-6.367599,3.650505,6.568742,0.003077,0.003679,0.037228,0.010977,0.005653,-0.016447,-0.063671,0.036507,0.065691,1.000000,0.000055,0.000028,-0.000082,0.306032,0.401414,-0.072696,-0.860190,29.061792,40.247387,-129.981137
02871,-6.358037,3.634828,6.583641,-0.020330,0.008187,0.035178,0.005850,0.011746,-0.013067,-0.063574,0.036351,0.065841,1.000000,0.000029,0.000059,-0.000065,0.306023,0.401451,-0.072665,-0.860179,29.060929,40.253060,-129.980462
02872,-6.359443,3.634706,6.582349,-0.019788,0.008585,0.035179,0.010751,0.019386,-0.007965,-0.063587,0.036346,0.065832,1.000000,0.000054,0.000097,-0.000040,0.306025,0.401527,-0.072655,-0.860143,29.067070,40.261174,-129.973888
02873,-6.373088,3.672186,6.663484,-0.056273,-0.023760,0.112004,0.006220,0.011424,-0.006845,-0.063726,0.036722,0.066640,1.000000,0.000031,0.000057,-0.000034,0.306037,0.401562,-0.072640,-0.860124,29.069029,40.265036,-129.969775
02874,-6.353051,3.673963,6.650454,-0.056071,-0.035824,0.091017,-0.000038,0.009885,-0.008276,-0.063526,0.036742,0.066508,1.000000,-0.000000,0.000049,-0.000041,0.306057,0.401581,-0.072598,-0.860111,29.066618,40.268478,-129.966870
02875,-6.404183,3.597166,6.648142,-0.065053,0.055361,0.094061,-0.001624,0.002853,-0.009551,-0.064039,0.035975,0.066482,1.000000,-0.000008,0.000014,-0.000048,0.306068,0.401567,-0.072558,-0.860117,29.060977,40.268761,-129.967936
02876,-6.383788,3.631160,6.592201,-0.017250,0.022609,0.056171,0.002693,-0.005610,-0.012862,-0.063837,0.036315,0.065921,1.000000,0.000013,-0.000028,-0.000064,0.306057,0.401525,-0.072542,-0.860142,29.054532,40.265719,-129.973692
02877,-6.388354,3.664790,6.590596,0.002708,-0.001698,0.070515,0.005600,-0.002388,-0.013846,-0.063882,0.036650,0.065906,1.000000,0.000028,-0.000012,-0.000069,0.306033,0.401501,-0.072532,-0.860162,29.049963,40.264569,-129.979423
02878,-6.315039,3.655072,6.569576,-0.021768,-0.034586,0.005506,0.002642,-0.000025,-0.014208,-0.063148,0.036554,0.065696,1.000000,0.000013,-0.000000,-0.000071,0.306018,0.401484,-0.072505,-0.860178,29.044234,40.264699,-129.984027
02879,-6.368273,3.665578,6.578153,0.003462,-0.013382,0.049527,0.000902,0.002097,-0.009829,-0.063680,0.036659,0.065782,1.000000,0.000005,0.000010,-0.000049,0.306024,0.401471,-0.072475,-0.860184,29.039690,40.264724,-129.985334
02880,-6.324451,3.690061,6.609386,-0.029456,-0.062520,0.051107,0.006663,0.006527,-0.003450,-0.063242,0.036900,0.066097,1.000000,0.000033,0.000033,-0.000017,0.306050,0.401484,-0.072477,-0.860169,29.042373,40.265143,-129.980488
02881,-6.358667,3.650294,6.592892,-0.019412,-0.008504,0.047489,0.003286,0.007200,-0.001691,-0.063584,0.036502,0.065932,1.000000,0.000016,0.000036,-0.000008,0.306091,0.401494,-0.072465,-0.860151,29.043810,40.265442,-129.974281
02882,-6.375923,3.614175,6.606193,-0.037941,0.029046,0.054134,0.003246,0.009489,-0.000278,-0.063756,0.036141,0.066066,1.000000,0.000016,0.000047,-0.000001,0.306138,0.401514,-0.072453,-0.860126,29.046579,40.266461,-129.966272
02883,-6.374053,3.635083,6.661705,-0.070139,0.004819,0.097699,0.009203,0.002476,-0.000967,-0.063740,0.036348,0.066620,1.000000,0.000046,0.000012,-0.000005,0.306166,0.401512,-0.072477,-0.860115,29.050650,40.264169,-129.961559
02884,-6.397510,3.612983,6.617409,-0.036498,0.042296,0.075121,0.011376,-0.001251,-0.004708,-0.063975,0.036128,0.066176,1.000000,0.000057,-0.000006,-0.000024,0.306174,0.401499,-0.072508,-0.860115,29.053667,40.261041,-129.960374
02885,-6.353028,3.638228,6.648879,-0.069388,-0.006885,0.076721,0.013956,-0.007591,-0.003638,-0.063532,0.036379,0.066489,1.000000,0.000070,-0.000038,-0.000018,0.306176,0.401462,-0.072562,-0.860127,29.056958,40.254526,-129.961329
02886,-6.373665,3.636666,6.661213,-0.068496,0.005983,0.097710,0.011076,-0.009806,-0.006827,-0.063739,0.036365,0.066611,1.000000,0.000055,-0.000049,-0.000034,0.306172,0.401413,-0.072601,-0.860148,29.056888,40.247703,-129.964655
02887,-6.369539,3.668084,6.575529,0.007860,-0.010258,0.049528,0.016130,-0.011316,-0.007381,-0.063698,0.036678,0.065755,1.000000,0.000081,-0.000057,-0.000037,0.306150,0.401365,-0.072664,-0.860173,29.058994,40.240366,-129.969669
02888,-6.358445,3.653196,6.591499,-0.015580,-0.005774,0.047497,0.006416,-0.007610,-0.004224,-0.063586,0.036531,0.065914,1.000000,0.000032,-0.000038,-0.000021,0.306167,0.401318,-0.072684,-0.860188,29.057875,40.233919,-129.970485
02889,-6.385453,3.632401,6.589904,-0.010123,0.027675,0.056168,0.007660,-0.006843,-0.003656,-0.063856,0.036323,0.065898,1.000000,0.000038,-0.000034,-0.000018,0.306185,0.401274,-0.072709,-0.860199,29.057711,40.227657,-129.970726
02890,-6.359730,3.600607,6.579533,-0.029373,0.040263,0.020842,0.008053,-0.006160,-0.001605,-0.063599,0.036004,0.065795,1.000000,0.000040,-0.000031,-0.000008,0.306212,0.401234,-0.072740,-0.860206,29.058981,40.221208,-129.969295
02891,-6.403662,3.576360,6.548077,0.004604,0.090215,0.019220,0.010619,-0.009203,-0.003295,-0.064039,0.035761,0.065480,1.000000,0.000053,-0.000046,-0.000016,0.306229,0.401185,-0.072779,-0.860220,29.060029,40.213666,-129.969646
02892,-6.407642,3.610857,6.546552,0.024588,0.065956,0.033558,0.009401,-0.008964,-0.008037,-0.064078,0.036108,0.065464,1.000000,0.000047,-0.000045,-0.000040,0.306224,0.401137,-0.072807,-0.860241,29.058688,40.207602,-129.973456
02893,-6.382284,3.578970,6.535881,0.005344,0.078525,-0.001769,0.013889,0.001292,-0.007753,-0.063821,0.035788,0.065362,1.000000,0.000069,0.000006,-0.000039,0.306214,0.401139,-0.072838,-0.860241,29.062284,40.206571,-129.973537
02894,-6.397792,3.628534,6.517852,0.049322,0.050201,0.014593,0.005914,0.002873,-0.008974,-0.063975,0.036286,0.065181,1.000000,0.000030,0.000014,-0.000045,0.306216,0.401138,-0.072831,-0.860242,29.061334,40.206696,-129.973648
02895,-6.349944,3.618741,6.550526,-0.002975,0.025651,0.001884,0.005845,0.011750,-0.013085,-0.063493,0.036190,0.065510,1.000000,0.000029,0.000059,-0.000065,0.306203,0.401175,-0.072801,-0.860232,29.060504,40.212435,-129.973423
02896,-6.388967,3.612660,6.532155,0.026424,0.055052,0.012562,0.003308,0.008206,-0.005872,-0.063886,0.036127,0.065325,1.000000,0.000017,0.000041,-0.000029,0.306225,0.401191,-0.072780,-0.860218,29.060628,40.214368,-129.969557
02897,-6.376872,3.617722,6.603335,-0.029681,0.034864,0.054143,0.002050,0.010733,-0.009202,-0.063764,0.036179,0.066037,1.000000,0.000010,0.000054,-0.000046,0.306244,0.401217,-0.072739,-0.860203,29.058907,40.218463,-129.966212
02898,-6.377849,3.617167,6.602695,-0.029141,0.035261,0.054143,0.000847,0.007677,-0.011183,-0.063774,0.036175,0.066030,1.000000,0.000004,0.000038,-0.000056,0.306248,0.401229,-0.072698,-0.860199,29.055247,40.221609,-129.966021
02899,-6.399618,3.614525,6.614528,-0.028229,0.048124,0.075122,0.002997,0.002946,-0.010749,-0.063993,0.036148,0.066147,1.000000,0.000015,0.000015,-0.000054,0.306251,0.401223,-0.072673,-0.860203,29.051658,40.222250,-129.967058
02900,-6.358401,3.650657,6.546086,0.019254,0.002963,0.016220,0.002227,-0.001716,-0.012091,-0.063582,0.036510,0.065461,1.000000,0.000011,-0.000009,-0.000060,0.306245,0.401197,-0.072650,-0.860219,29.046194,40.220944,-129.970886
02901,-6.371037,3.579778,6.561681,-0.018802,0.065114,0.008514,0.008052,0.001439,-0.011304,-0.063708,0.035799,0.065619,1.000000,0.000040,0.000007,-0.000057,0.306230,0.401192,-0.072650,-0.860227,29.045007,40.220972,-129.973446
02902,-6.371951,3.611976,6.517521,0.029370,0.044927,-0.008437,0.005132,0.001509,-0.013079,-0.063717,0.036122,0.065177,1.000000,0.000026,0.000008,-0.000065,0.306216,0.401185,-0.072633,-0.860237,29.041548,40.221556,-129.976748
02903,-6.372581,3.611711,6.517051,0.029924,0.045327,-0.008441,0.010105,0.004582,-0.010808,-0.063722,0.036117,0.065174,1.000000,0.000051,0.000023,-0.000054,0.306199,0.401197,-0.072639,-0.860237,29.042513,40.222985,-129.977919
02904,-6.367251,3.630434,6.530274,0.025957,0.025142,0.003885,0.007980,0.010319,-0.015420,-0.063666,0.036307,0.065307,1.000000,0.000040,0.000052,-0.000077,0.306172,0.401232,-0.072616,-0.860231,29.041767,40.228633,-129.979546
02905,-6.366379,3.650737,6.585201,-0.006129,0.000900,0.047510,0.009992,0.015751,-0.013513,-0.063656,0.036508,0.065859,1.000000,0.000050,0.000079,-0.000068,0.306150,0.401293,-0.072598,-0.860212,29.044112,40.236397,-129.978142
02906,-6.395224,3.629671,6.581928,-0.000742,0.034375,0.056152,0.015007,0.016537,-0.012655,-0.063945,0.036296,0.065827,1.000000,0.000075,0.000083,-0.000063,0.306123,0.401365,-0.072601,-0.860188,29.050027,40.244390,-129.975689
02907,-6.384097,3.667876,6.608445,-0.009181,-0.006434,0.080817,0.013738,0.014765,-0.009048,-0.063834,0.036677,0.066092,1.000000,0.000069,0.000074,-0.000045,0.306114,0.401427,-0.072607,-0.860162,29.056073,40.250627,-129.971556
02908,-6.401924,3.631768,6.621187,-0.027791,0.031077,0.087451,0.011295,0.010939,-0.011596,-0.064014,0.036318,0.066217,1.000000,0.000056,0.000055,-0.000058,0.306097,0.401469,-0.072605,-0.860149,29.058993,40.255522,-129.970447
02909,-6.381760,3.633609,6.608256,-0.027584,0.018979,0.066478,0.003001,0.002948,-0.010754,-0.063815,0.036339,0.066084,1.000000,0.000015,0.000015,-0.000054,0.306092,0.401463,-0.072584,-0.860155,29.055547,40.256166,-129.972462
02910,-6.399172,3.629499,6.578185,0.001442,0.035933,0.056147,0.004259,0.000422,-0.007421,-0.063990,0.036296,0.065783,1.000000,0.000021,0.000002,-0.000037,0.306103,0.401447,-0.072576,-0.860159,29.053729,40.254631,-129.972448
02911,-6.372483,3.650189,6.579598,-0.002832,0.003253,0.047511,0.008503,0.004140,-0.017609,-0.063720,0.036505,0.065799,1.000000,0.000043,0.000021,-0.000088,0.306060,0.401457,-0.072562,-0.860171,29.050791,40.257737,-129.978252
02912,-6.330881,3.621283,6.598516,-0.050629,-0.000791,0.022535,0.005557,0.003203,-0.015209,-0.063305,0.036216,0.065987,1.000000,0.000028,0.000016,-0.000076,0.306036,0.401459,-0.072540,-0.860181,29.047069,40.259762,-129.982335
02913,-6.353229,3.651198,6.566254,-0.002068,-0.008462,0.026539,0.010556,0.007286,-0.017116,-0.063527,0.036514,0.065667,1.000000,0.000053,0.000036,-0.000086,0.305998,0.401485,-0.072527,-0.860183,29.046119,40.264358,-129.985933
02914,-6.331043,3.673700,6.609259,-0.034476,-0.045211,0.049221,0.009243,0.007802,-0.012096,-0.063306,0.036738,0.066097,1.000000,0.000046,0.000039,-0.000060,0.305982,0.401511,-0.072520,-0.860177,29.046912,40.267821,-129.986297
02915,-6.368093,3.720968,6.603042,0.009953,-0.060963,0.086533,0.009215,0.006798,-0.007918,-0.063677,0.037209,0.066034,1.000000,0.000046,0.000034,-0.000040,0.305983,0.401531,-0.072522,-0.860167,29.049015,40.269684,-129.984456
02916,-6.353449,3.671543,6.620196,-0.033022,-0.031945,0.070198,0.002123,0.001860,-0.005095,-0.063533,0.036716,0.066203,1.000000,0.000011,0.000009,-0.000025,0.306009,0.401517,-0.072508,-0.860166,29.047299,40.268223,-129.982391
02917,-6.387305,3.631476,6.604071,-0.023177,0.022099,0.066483,0.002859,0.005519,0.000421,-0.063871,0.036314,0.066043,1.000000,0.000014,0.000028,0.000002,0.306057,0.401519,-0.072502,-0.860148,29.049019,40.267108,-129.975611
02918,-6.383024,3.597175,6.605772,-0.042168,0.047093,0.052144,0.000116,-0.003574,-0.007000,-0.063830,0.035974,0.066057,1.000000,0.000001,-0.000018,-0.000035,0.306077,0.401480,-0.072483,-0.860161,29.044064,40.263454,-129.976778
02919,-6.345683,3.635057,6.579544,-0.022767,-0.002115,0.024548,0.000908,0.002096,-0.009841,-0.063454,0.036353,0.065796,1.000000,0.000005,0.000010,-0.000049,0.306084,0.401466,-0.072454,-0.860167,29.039536,40.263412,-129.977998
02920,-6.362670,3.598235,6.593465,-0.041419,0.035374,0.031177,0.003481,-0.000944,-0.011528,-0.063625,0.035985,0.065935,1.000000,0.000017,-0.000005,-0.000058,0.306079,0.401445,-0.072437,-0.860180,29.035208,40.262335,-129.981178
02921,-6.363275,3.597726,6.593158,-0.040857,0.035748,0.031178,0.005516,0.005497,-0.013802,-0.063628,0.035980,0.065934,1.000000,0.000028,0.000027,-0.000069,0.306064,0.401456,-0.072411,-0.860183,29.032356,40.265125,-129.983281
02922,-6.383359,3.648385,6.617010,-0.024882,0.003478,0.078833,0.007193,0.004662,-0.012593,-0.063830,0.036485,0.066173,1.000000,0.000036,0.000023,-0.000063,0.306049,0.401465,-0.072400,-0.860185,29.031022,40.267152,-129.985117
02923,-6.339740,3.673011,6.648220,-0.057573,-0.045808,0.080580,0.003828,0.002032,-0.008065,-0.063395,0.036731,0.066484,1.000000,0.000019,0.000010,-0.000040,0.306057,0.401455,-0.072386,-0.860188,29.028901,40.266589,-129.985196
02924,-6.395138,3.662998,6.600470,0.000227,0.000268,0.080823,0.002541,0.003552,-0.007222,-0.063949,0.036631,0.066006,1.000000,0.000013,0.000018,-0.000036,0.306074,0.401451,-0.072367,-0.860185,29.026920,40.266567,-129.983910
02925,-6.380098,3.613454,6.618064,-0.042763,0.029235,0.064498,0.001332,-0.003809,-0.002254,-0.063802,0.036135,0.066180,1.000000,0.000007,-0.000019,-0.000011,0.306112,0.401410,-0.072363,-0.860191,29.024453,40.261418,-129.982163
02926,-6.375366,3.579516,6.619992,-0.061781,0.054208,0.050161,0.009309,-0.005372,-0.001028,-0.063755,0.035792,0.066200,1.000000,0.000047,-0.000027,-0.000005,0.306138,0.401375,-0.072399,-0.860195,29.026877,40.255203,-129.980062
02927,-6.375585,3.612192,6.576182,-0.013569,0.034114,0.033167,0.005176,-0.005072,-0.007552,-0.063756,0.036123,0.065761,1.000000,0.000026,-0.000025,-0.000038,0.306140,0.401336,-0.072406,-0.860212,29.024157,40.250916,-129.982919
02928,-6.364762,3.596835,6.592208,-0.037035,0.038499,0.031183,0.000942,-0.004494,-0.004306,-0.063648,0.035969,0.065921,1.000000,0.000005,-0.000022,-0.000022,0.306169,0.401294,-0.072398,-0.860222,29.020603,40.246052,-129.982650
02929,-6.366639,3.543272,6.580106,-0.051603,0.084024,0.004489,0.002195,0.000577,-0.010687,-0.063664,0.035435,0.065802,1.000000,0.000011,0.000003,-0.000053,0.306174,0.401276,-0.072372,-0.860231,29.015996,40.245509,-129.984412
02930,-6.409511,3.570865,6.560634,-0.002713,0.088964,0.029412,-0.002428,0.000471,-0.009494,-0.064093,0.035712,0.065606,1.000000,-0.000012,0.000002,-0.000047,0.306189,0.401252,-0.072331,-0.860240,29.009479,40.244575,-129.985740
02931,-6.403629,3.588852,6.574855,-0.006595,0.068775,0.041767,-0.008683,-0.001091,-0.010921,-0.064035,0.035895,0.065747,1.000000,-0.000043,-0.000005,-0.000055,0.306207,0.401210,-0.072265,-0.860259,28.998293,40.243216,-129.989125
02932,-6.410310,3.568424,6.561182,-0.001631,0.089757,0.029405,-0.007803,0.000001,-0.016586,-0.064100,0.035692,0.065610,1.000000,-0.000039,0.000000,-0.000083,0.306203,0.401178,-0.072187,-0.860282,28.985578,40.244016,-129.995280
02933,-6.383366,3.587999,6.563512,-0.005844,0.057045,0.020801,-0.008546,-0.007958,-0.015156,-0.063834,0.035888,0.065631,1.000000,-0.000043,-0.000040,-0.000076,0.306206,0.401109,-0.072120,-0.860319,28.970948,40.240397,-130.003201
02934,-6.371123,3.624451,6.592187,-0.014155,0.016277,0.045523,-0.007322,-0.003891,-0.017357,-0.063709,0.036252,0.065919,1.000000,-0.000037,-0.000019,-0.000087,0.306196,0.401061,-0.072049,-0.860350,28.957268,40.239457,-130.011278
02935,-6.373641,3.602159,6.536637,0.018910,0.041345,0.001812,-0.007321,-0.003890,-0.017358,-0.063735,0.036030,0.065364,1.000000,-0.000037,-0.000019,-0.000087,0.306186,0.401012,-0.071978,-0.860383,28.943417,40.238488,-130.019489
02936,-6.357692,3.637002,6.522876,0.038690,0.004678,-0.004812,-0.006607,0.003064,-0.014609,-0.063573,0.036377,0.065229,1.000000,-0.000033,0.000015,-0.000073,0.306189,0.400994,-0.071905,-0.860396,28.932945,40.240271,-130.023234
02937,-6.368810,3.618739,6.550638,0.015581,0.021541,0.014172,0.002085,0.008459,-0.010634,-0.063683,0.036190,0.065509,1.000000,0.000010,0.000042,-0.000053,0.306193,0.401011,-0.071869,-0.860390,28.930217,40.243691,-130.022637
02938,-6.395520,3.650190,6.560251,0.036062,0.009912,0.049465,0.002020,0.014045,-0.011992,-0.063948,0.036505,0.065607,1.000000,0.000010,0.000070,-0.000060,0.306194,0.401052,-0.071822,-0.860375,28.928373,40.250255,-130.020675
02939,-6.390161,3.635979,6.617274,-0.015464,0.010140,0.078848,-0.001315,0.012418,-0.011643,-0.063895,0.036364,0.066176,1.000000,-0.000007,0.000062,-0.000058,0.306204,0.401081,-0.071761,-0.860362,28.924126,40.255981,-130.018955
02940,-6.418420,3.614173,6.614840,-0.010168,0.043641,0.087437,0.002521,0.006856,-0.009994,-0.064180,0.036144,0.066151,1.000000,0.000013,0.000034,-0.000050,0.306210,0.401092,-0.071731,-0.860358,28.921731,40.258386,-130.018292
02941,-6.398080,3.615830,6.602225,-0.009957,0.031502,0.066480,0.007287,0.000100,-0.015422,-0.063978,0.036161,0.066024,1.000000,0.000036,0.000001,-0.000077,0.306179,0.401082,-0.071720,-0.860374,28.917987,40.258930,-130.023824
02942,-6.383794,3.598541,6.575703,-0.005361,0.039963,0.033152,0.007675,0.000785,-0.013369,-0.063835,0.035987,0.065759,1.000000,0.000038,0.000004,-0.000067,0.306158,0.401076,-0.071714,-0.860385,28.915687,40.259226,-130.027583
02943,-6.340734,3.655499,6.563139,0.009737,-0.029818,0.017948,0.004322,0.002454,-0.015790,-0.063404,0.036559,0.065633,1.000000,0.000022,0.000012,-0.000079,0.306142,0.401071,-0.071682,-0.860396,28.910511,40.260973,-130.031441
02944,-6.347792,3.635701,6.548726,0.014677,-0.008836,0.005576,0.001308,0.007095,-0.014746,-0.063473,0.036361,0.065490,1.000000,0.000007,0.000035,-0.000074,0.306130,0.401083,-0.071637,-0.860398,28.905458,40.264814,-130.033815
02945,-6.348284,3.602661,6.591987,-0.032448,0.011971,0.022605,0.007998,0.007058,-0.012675,-0.063478,0.036028,0.065924,1.000000,0.000040,0.000035,-0.000063,0.306111,0.401103,-0.071626,-0.860397,28.904982,40.268040,-130.035301
02946,-6.404980,3.700724,6.610106,0.027649,-0.036163,0.107522,0.009627,0.008514,-0.010054,-0.064045,0.037007,0.066106,1.000000,0.000048,0.000043,-0.000050,0.306103,0.401131,-0.071623,-0.860386,28.907021,40.271293,-130.034076
02947,-6.369533,3.653298,6.614832,-0.015779,-0.019834,0.070272,0.003374,0.006946,-0.011484,-0.063691,0.036536,0.066151,1.000000,0.000017,0.000035,-0.000057,0.306096,0.401144,-0.071595,-0.860385,28.904380,40.274187,-130.034996
02948,-6.381870,3.582511,6.630420,-0.054146,0.042134,0.062555,0.005138,-0.002772,-0.006143,-0.063819,0.035825,0.066304,1.000000,0.000026,-0.000014,-0.000031,0.306110,0.401115,-0.071599,-0.860393,28.902862,40.270697,-130.035296
02949,-6.361041,3.584860,6.617916,-0.053929,0.029989,0.041604,0.013902,0.001350,-0.007760,-0.063609,0.035846,0.066182,1.000000,0.000070,0.000007,-0.000039,0.306102,0.401118,-0.071629,-0.860392,28.906440,40.269689,-130.035056
02950,-6.393536,3.630517,6.570050,0.018656,0.018580,0.047476,0.013661,-0.006200,-0.014048,-0.063935,0.036305,0.065701,1.000000,0.000068,-0.000031,-0.000070,0.306064,0.401091,-0.071659,-0.860416,28.905641,40.266669,-130.041798
02951,-6.378720,3.613692,6.543778,0.023233,0.027016,0.014143,0.011955,-0.006374,-0.011078,-0.063787,0.036137,0.065438,1.000000,0.000060,-0.000032,-0.000055,0.306036,0.401059,-0.071689,-0.860438,28.904972,40.262804,-130.047400
02952,-6.341145,3.619536,6.561150,-0.004966,-0.001766,0.003616,0.008949,0.002571,-0.016989,-0.063408,0.036198,0.065614,1.000000,0.000045,0.000013,-0.000085,0.305998,0.401064,-0.071679,-0.860451,28.902282,40.264997,-130.052890
02953,-6.346596,3.653320,6.558685,0.015221,-0.025902,0.017952,0.007998,0.007062,-0.012682,-0.063461,0.036535,0.065591,1.000000,0.000040,0.000035,-0.000063,0.305976,0.401084,-0.071668,-0.860450,28.901789,40.268337,-130.054575
02954,-6.347636,3.653048,6.557830,0.015764,-0.025502,0.017952,0.007512,0.010957,-0.011915,-0.063471,0.036532,0.065583,1.000000,0.000038,0.000055,-0.000060,0.305965,0.401121,-0.071649,-0.860438,28.902399,40.273331,-130.053687
02955,-6.384700,3.667620,6.595184,0.012638,-0.020632,0.072235,0.006997,0.013844,-0.006965,-0.063841,0.036676,0.065958,1.000000,0.000035,0.000069,-0.000035,0.305973,0.401167,-0.071635,-0.860415,28.905386,40.278420,-130.049178
02956,-6.385304,3.635046,6.638115,-0.034508,0.000144,0.089284,0.002422,0.011439,-0.007183,-0.063848,0.036352,0.066385,1.000000,0.000012,0.000057,-0.000036,0.305993,0.401196,-0.071604,-0.860397,28.905204,40.282346,-130.045004
02957,-6.409172,3.611707,6.593718,-0.001217,0.037778,0.066462,0.003008,0.002966,-0.010772,-0.064089,0.036120,0.065939,1.000000,0.000015,0.000015,-0.000054,0.305985,0.401190,-0.071583,-0.860404,28.901787,40.283044,-130.047327
02958,-6.382129,3.600039,6.639055,-0.053077,0.025430,0.074953,0.005102,0.003828,-0.011690,-0.063818,0.036002,0.066393,1.000000,0.000026,0.000019,-0.000058,0.305978,0.401192,-0.071566,-0.860407,28.899439,40.284400,-130.048879
02959,-6.334340,3.623084,6.628421,-0.057556,-0.019845,0.045449,0.008607,-0.004704,-0.013499,-0.063343,0.036232,0.066284,1.000000,0.000043,-0.000024,-0.000067,0.305956,0.401163,-0.071570,-0.860429,28.896084,40.281949,-130.054385
02960,-6.356221,3.653147,6.596472,-0.008973,-0.027274,0.049343,0.013600,-0.000603,-0.015413,-0.063560,0.036532,0.065967,1.000000,0.000068,-0.000003,-0.000077,0.305913,0.401160,-0.071588,-0.860443,28.895981,40.282113,-130.059994
02961,-6.329556,3.674368,6.597766,-0.013097,-0.060013,0.040789,0.013987,0.000083,-0.013360,-0.063293,0.036743,0.065980,1.000000,0.000070,0.000000,-0.000067,0.305883,0.401160,-0.071607,-0.860453,28.896877,40.282034,-130.063614
02962,-6.349525,3.725520,6.621581,0.003118,-0.092146,0.088464,0.007990,0.002762,-0.005729,-0.063493,0.037254,0.066218,1.000000,0.000040,0.000014,-0.000029,0.305895,0.401159,-0.071616,-0.860448,28.898467,40.281205,-130.061633
02963,-6.387805,3.719610,6.603498,0.032376,-0.062534,0.098961,0.004137,0.004013,-0.000428,-0.063877,0.037195,0.066037,1.000000,0.000021,0.000020,-0.000002,0.305926,0.401156,-0.071622,-0.860438,28.900410,40.279575,-130.057260
02964,-6.388849,3.634169,6.635183,-0.030106,0.003279,0.089298,-0.000417,-0.001693,0.002130,-0.063889,0.036341,0.066351,1.000000,-0.000002,-0.000008,0.000011,0.305987,0.401121,-0.071616,-0.860433,28.899479,40.274335,-130.051729
02965,-6.394889,3.615308,6.621194,-0.025205,0.024238,0.076905,0.003772,0.000030,0.000293,-0.063949,0.036152,0.066213,1.000000,0.000019,0.000000,0.000001,0.306031,0.401100,-0.071622,-0.860427,28.900386,40.270497,-130.046995
02966,-6.390573,3.614115,6.579021,0.003353,0.028778,0.045504,0.010095,-0.003979,0.003085,-0.063908,0.036137,0.065791,1.000000,0.000050,-0.000020,0.000015,0.306075,0.401071,-0.071667,-0.860421,28.905345,40.263846,-130.041668
02967,-6.411310,3.612411,6.591253,0.004245,0.041696,0.066446,0.006018,-0.005976,-0.004857,-0.064114,0.036124,0.065912,1.000000,0.000030,-0.000030,-0.000024,0.306088,0.401030,-0.071682,-0.860434,28.903960,40.258470,-130.042702
02968,-6.405022,3.631566,6.605319,0.000450,0.021516,0.078842,0.011111,-0.006453,-0.009592,-0.064051,0.036315,0.066053,1.000000,0.000056,-0.000032,-0.000048,0.306074,0.400996,-0.071711,-0.860453,28.903535,40.254088,-130.046606
02969,-6.388484,3.668012,6.591300,0.020341,-0.015135,0.072232,0.003873,-0.004548,-0.002528,-0.063886,0.036680,0.065912,1.000000,0.000019,-0.000023,-0.000013,0.306102,0.400957,-0.071719,-0.860460,28.902228,40.248860,-130.045683
02970,-6.389799,3.614815,6.579389,0.005518,0.030316,0.045498,0.001342,-0.003805,-0.002253,-0.063899,0.036148,0.065793,1.000000,0.000007,-0.000019,-0.000011,0.306139,0.400917,-0.071715,-0.860466,28.899944,40.243774,-130.043801
02971,-6.347473,3.619303,6.555156,0.005396,0.005599,0.003615,0.004698,-0.005467,0.000170,-0.063477,0.036191,0.065551,1.000000,0.000023,-0.000027,0.000001,0.306186,0.400874,-0.071729,-0.860468,28.899924,40.237182,-130.040271
02972,-6.370181,3.596673,6.511477,0.038607,0.043274,-0.019259,0.005938,-0.004693,0.000737,-0.063703,0.035965,0.065114,1.000000,0.000030,-0.000023,0.000004,0.306227,0.400836,-0.071753,-0.860469,28.901334,40.230822,-130.036748
02973,-6.342288,3.586210,6.556996,-0.013224,0.030827,-0.010719,0.013847,-0.000648,0.000599,-0.063423,0.035857,0.065572,1.000000,0.000069,-0.000003,0.000003,0.306251,0.400828,-0.071804,-0.860460,28.907984,40.226626,-130.032258
02974,-6.369934,3.598222,6.510863,0.039683,0.044046,-0.019267,0.013461,-0.001333,-0.001456,-0.063700,0.035978,0.065111,1.000000,0.000067,-0.000007,-0.000007,0.306269,0.400817,-0.071851,-0.860455,28.913560,40.222559,-130.028957
02975,-6.357865,3.636798,6.538337,0.031604,0.003279,0.005540,0.006698,0.004279,-0.004891,-0.063576,0.036367,0.065386,1.000000,0.000033,0.000021,-0.000024,0.306285,0.400820,-0.071854,-0.860448,28.914989,40.222226,-130.026274
02976,-6.380682,3.581563,6.538122,0.017086,0.061263,-0.000262,0.003334,0.001636,-0.000353,-0.063806,0.035815,0.065382,1.000000,0.000017,0.000008,-0.000002,0.306329,0.400806,-0.071855,-0.860438,28.915925,40.219342,-130.021174
02977,-6.355306,3.549741,6.527444,-0.002439,0.073578,-0.035536,0.004553,0.005706,-0.002562,-0.063551,0.035497,0.065277,1.000000,0.000023,0.000029,-0.000013,0.306350,0.400811,-0.071856,-0.860428,28.917639,40.219034,-130.017599
02978,-6.391942,3.564448,6.565137,-0.005526,0.078498,0.018744,0.004948,0.010696,-0.007469,-0.063915,0.035645,0.065656,1.000000,0.000025,0.000053,-0.000037,0.306364,0.400841,-0.071836,-0.860411,28.918605,40.222665,-130.013885
02979,-6.386679,3.583411,6.578308,-0.009294,0.058285,0.031151,0.006678,0.007576,-0.007668,-0.063863,0.035834,0.065787,1.000000,0.000033,0.000038,-0.000038,0.306369,0.400860,-0.071827,-0.860401,28.919574,40.224909,-130.011875
02980,-6.398257,3.598296,6.561764,0.015271,0.054817,0.033071,0.005905,0.006205,-0.011776,-0.063978,0.035985,0.065621,1.000000,0.000030,0.000031,-0.000059,0.306360,0.400873,-0.071809,-0.860400,28.918209,40.227482,-130.012619
02981,-6.382358,3.602015,6.590768,-0.012504,0.038485,0.043559,0.008751,0.011737,-0.011365,-0.063818,0.036021,0.065913,1.000000,0.000044,0.000059,-0.000057,0.306349,0.400914,-0.071795,-0.860386,28.919758,40.232717,-130.011181
02982,-6.393653,3.584748,6.617847,-0.035651,0.055298,0.062574,0.010013,0.009215,-0.008022,-0.063932,0.035847,0.066183,1.000000,0.000050,0.000046,-0.000040,0.306349,0.400946,-0.071797,-0.860371,28.923044,40.235759,-130.008366
02983,-6.379498,3.567882,6.590941,-0.031161,0.063725,0.029225,0.005876,0.005200,-0.007592,-0.063792,0.035679,0.065912,1.000000,0.000029,0.000026,-0.000038,0.306347,0.400953,-0.071794,-0.860368,28.923230,40.236633,-130.008161
02984,-6.401419,3.565524,6.602379,-0.030281,0.076678,0.050159,0.005365,0.012392,-0.009606,-0.064008,0.035657,0.066029,1.000000,0.000027,0.000062,-0.000048,0.306351,0.400991,-0.071769,-0.860351,28.923927,40.241707,-130.005234
02985,-6.375353,3.586547,6.603213,-0.034365,0.043939,0.041639,0.010096,0.007934,-0.013619,-0.063748,0.035866,0.066036,1.000000,0.000050,0.000040,-0.000068,0.306323,0.401018,-0.071764,-0.860349,28.924496,40.245594,-130.007136
02986,-6.392844,3.550012,6.616367,-0.053227,0.081324,0.048241,0.011754,0.010403,-0.015185,-0.063922,0.035501,0.066169,1.000000,0.000059,0.000052,-0.000076,0.306289,0.401060,-0.071758,-0.860342,28.926018,40.251217,-130.008596
02987,-6.387911,3.568989,6.629243,-0.056943,0.061102,0.060659,0.015579,0.008149,-0.016303,-0.063873,0.035690,0.066298,1.000000,0.000078,0.000041,-0.000082,0.306253,0.401098,-0.071762,-0.860337,28.928343,40.256046,-130.010433
02988,-6.370685,3.626054,6.670156,-0.069250,-0.000240,0.097917,0.009713,0.007251,-0.015676,-0.063702,0.036262,0.066706,1.000000,0.000049,0.000036,-0.000078,0.306220,0.401124,-0.071751,-0.860338,28.927748,40.260224,-130.013360
02989,-6.367647,3.623705,6.627327,-0.040715,0.004312,0.066480,0.005503,0.008821,-0.016615,-0.063671,0.036241,0.066277,1.000000,0.000028,0.000044,-0.000083,0.306193,0.401149,-0.071716,-0.860338,28.924501,40.265434,-130.016265
02990,-6.362584,3.642053,6.640690,-0.044448,-0.015870,0.078903,0.001752,0.005489,-0.014129,-0.063621,0.036424,0.066409,1.000000,0.000009,0.000027,-0.000071,0.306183,0.401154,-0.071676,-0.860343,28.919588,40.268300,-130.018816
02991,-6.370983,3.569063,6.614232,-0.055100,0.050088,0.039731,0.004232,0.007041,-0.012996,-0.063705,0.035693,0.066145,1.000000,0.000021,0.000035,-0.000065,0.306172,0.401168,-0.071647,-0.860343,28.916767,40.271619,-130.020213
02992,-6.396099,3.653658,6.636046,-0.018960,-0.006362,0.101747,0.002629,0.002282,-0.012838,-0.063958,0.036540,0.066362,1.000000,0.000013,0.000011,-0.000064,0.306164,0.401160,-0.071619,-0.860352,28.912151,40.272518,-130.023081
02993,-6.354754,3.657282,6.611391,-0.019113,-0.031113,0.059889,0.000514,0.004715,-0.014698,-0.063543,0.036577,0.066116,1.000000,0.000003,0.000024,-0.000073,0.306143,0.401160,-0.071577,-0.860363,28.906049,40.275278,-130.027575
02994,-6.371792,3.620178,6.625270,-0.037993,0.006261,0.066490,0.001775,0.002194,-0.011351,-0.063715,0.036205,0.066254,1.000000,0.000009,0.000011,-0.000057,0.306143,0.401150,-0.071549,-0.860370,28.901555,40.275720,-130.029498
02995,-6.377084,3.653699,6.623099,-0.017674,-0.017754,0.080822,0.004779,0.000859,-0.015168,-0.063768,0.036540,0.066232,1.000000,0.000024,0.000004,-0.000076,0.306111,0.401139,-0.071531,-0.860387,28.896808,40.276555,-130.035533
02996,-6.373493,3.651371,6.580771,0.010823,-0.013172,0.049370,0.005548,0.002232,-0.011060,-0.063732,0.036515,0.065809,1.000000,0.000028,0.000011,-0.000055,0.306105,0.401135,-0.071519,-0.860393,28.894609,40.276935,-130.037250
02997,-6.352853,3.653199,6.568410,0.011044,-0.025377,0.028443,-0.000352,0.000321,-0.006243,-0.063527,0.036534,0.065684,1.000000,-0.000002,0.000002,-0.000031,0.306136,0.401112,-0.071489,-0.860395,28.890313,40.275109,-130.035934
02998,-6.357431,3.654658,6.610267,-0.016362,-0.029164,0.059900,0.003399,0.003657,-0.008731,-0.063572,0.036548,0.066104,1.000000,0.000017,0.000018,-0.000044,0.306144,0.401109,-0.071470,-0.860395,28.888206,40.275561,-130.035603
02999,-6.353756,3.652531,6.567908,0.012140,-0.024592,0.028443,0.001688,0.003478,-0.005756,-0.063535,0.036527,0.065680,1.000000,0.000008,0.000017,-0.000029,0.306165,0.401102,-0.071451,-0.860392,28.886214,40.275119,-130.033929
03000,-6.385478,3.632936,6.607831,-0.010667,0.004768,0.068398,0.005461,0.003516,-0.005463,-0.063853,0.036329,0.066080,1.000000,0.000027,0.000018,-0.000027,0.306183,0.401101,-0.071448,-0.860386,28.886644,40.274595,-130.031501
03001,-6.396619,3.648106,6.591520,0.013942,0.001343,0.070295,0.008433,0.001175,-0.005091,-0.063965,0.036480,0.065917,1.000000,0.000042,0.000006,-0.000025,0.306199,0.401094,-0.071460,-0.860383,28.888185,40.272727,-130.029503
03002,-6.358990,3.654658,6.608768,-0.014144,-0.027592,0.059908,0.011821,0.000527,-0.006853,-0.063588,0.036545,0.066090,1.000000,0.000059,0.000003,-0.000034,0.306197,0.401090,-0.071486,-0.860383,28.890968,40.271088,-130.029073
03003,-6.365211,3.635972,6.594446,-0.009338,-0.006632,0.047475,0.012699,-0.002680,-0.005560,-0.063652,0.036357,0.065946,1.000000,0.000063,-0.000013,-0.000028,0.306199,0.401073,-0.071522,-0.860388,28.893853,40.267478,-130.028934
03004,-6.371173,3.617421,6.580302,-0.004556,0.014343,0.035039,0.013577,-0.005888,-0.004267,-0.063713,0.036171,0.065804,1.000000,0.000068,-0.000029,-0.000021,0.306203,0.401044,-0.071571,-0.860396,28.897236,40.261905,-130.029132
03005,-6.375678,3.652190,6.578200,0.015823,-0.009679,0.049368,0.011428,-0.004463,-0.001938,-0.063758,0.036519,0.065783,1.000000,0.000057,-0.000022,-0.000010,0.306232,0.401016,-0.071605,-0.860396,28.900321,40.256444,-130.026091
03006,-6.391784,3.616394,6.592253,-0.003099,0.027678,0.055962,0.006745,-0.002301,0.000665,-0.063919,0.036162,0.065923,1.000000,0.000034,-0.000012,0.000003,0.306272,0.400990,-0.071629,-0.860392,28.902724,40.251305,-130.021747
03007,-6.372027,3.565495,6.568084,-0.018454,0.060439,0.008271,0.002621,-0.002021,-0.005871,-0.063720,0.035656,0.065681,1.000000,0.000013,-0.000010,-0.000029,0.306298,0.400960,-0.071617,-0.860397,28.899791,40.248068,-130.021035
03008,-6.388899,3.561655,6.538100,0.010350,0.077614,-0.002282,0.012228,-0.002081,-0.002020,-0.063889,0.035613,0.065383,1.000000,0.000061,-0.000010,-0.000010,0.306315,0.400945,-0.071659,-0.860395,28.904247,40.243782,-130.018376
03009,-6.382954,3.581461,6.551535,0.006668,0.057405,0.010155,0.016834,0.001346,-0.005999,-0.063828,0.035811,0.065519,1.000000,0.000084,0.000007,-0.000030,0.306307,0.400952,-0.071705,-0.860391,28.910238,40.242411,-130.017203
03010,-6.383478,3.581919,6.550774,0.007202,0.057803,0.010152,0.014749,0.004784,-0.012051,-0.063831,0.035818,0.065512,1.000000,0.000074,0.000024,-0.000060,0.306279,0.400973,-0.071727,-0.860389,28.913489,40.244346,-130.018645
03011,-6.389052,3.616284,6.547841,0.027592,0.033818,0.024477,0.013399,0.008589,-0.009804,-0.063886,0.036162,0.065484,1.000000,0.000067,0.000043,-0.000049,0.306270,0.401007,-0.071737,-0.860375,28.917550,40.247525,-130.016671
03012,-6.421248,3.596962,6.587178,0.004772,0.063169,0.064431,0.009627,0.008549,-0.010097,-0.064208,0.035970,0.065876,1.000000,0.000048,0.000043,-0.000050,0.306262,0.401036,-0.071735,-0.860365,28.919579,40.250807,-130.015462
03013,-6.400796,3.599228,6.574389,0.004966,0.050979,0.043509,0.002894,0.003248,-0.001004,-0.064007,0.035992,0.065745,1.000000,0.000014,0.000016,-0.000005,0.306296,0.401028,-0.071734,-0.860357,28.920330,40.248955,-130.011372
03014,-6.375505,3.567007,6.563887,-0.014675,0.063156,0.008260,0.000043,0.005309,-0.011165,-0.063751,0.035674,0.065641,1.000000,0.000000,0.000027,-0.000056,0.306301,0.401028,-0.071693,-0.860358,28.915654,40.250909,-130.012041
03015,-6.391301,3.582982,6.589718,-0.017989,0.055532,0.041624,-0.007559,0.007517,-0.010343,-0.063909,0.035836,0.065898,1.000000,-0.000038,0.000038,-0.000052,0.306328,0.401026,-0.071616,-0.860356,28.907246,40.253795,-130.011210
03016,-6.362263,3.548363,6.537024,-0.009727,0.071913,-0.025109,0.002025,0.010760,-0.009274,-0.063617,0.035486,0.065374,1.000000,0.000010,0.000054,-0.000046,0.306339,0.401052,-0.071579,-0.860343,28.905787,40.257959,-130.008659
03017,-6.372481,3.583859,6.576112,-0.017245,0.043738,0.020705,0.007104,0.013593,-0.016799,-0.063717,0.035842,0.065767,1.000000,0.000036,0.000068,-0.000084,0.306306,0.401100,-0.071546,-0.860335,28.904604,40.265587,-130.010519
03018,-6.357606,3.619804,6.560788,0.002794,0.007198,0.014114,0.008310,0.013366,-0.012042,-0.063569,0.036199,0.065614,1.000000,0.000042,0.000067,-0.000060,0.306294,0.401148,-0.071527,-0.860319,28.906181,40.271825,-130.008841
03019,-6.352920,3.638557,6.573611,-0.000832,-0.013008,0.026565,0.005394,0.013415,-0.013824,-0.063522,0.036388,0.065741,1.000000,0.000027,0.000067,-0.000069,0.306287,0.401193,-0.071486,-0.860304,28.905012,40.278586,-130.007428
03020,-6.385451,3.618725,6.612902,-0.023653,0.016336,0.066523,0.006655,0.010896,-0.010474,-0.063849,0.036188,0.066134,1.000000,0.000033,0.000054,-0.000052,0.306284,0.401227,-0.071466,-0.860290,28.905729,40.283150,-130.005614
03021,-6.369656,3.622656,6.641872,-0.051313,-0.000086,0.077105,0.007095,0.009293,-0.009826,-0.063692,0.036227,0.066423,1.000000,0.000035,0.000046,-0.000049,0.306290,0.401254,-0.071448,-0.860277,28.906316,40.286623,-130.003119
03022,-6.364523,3.641743,6.654964,-0.054959,-0.020266,0.089563,0.010069,0.006955,-0.009451,-0.063641,0.036417,0.066554,1.000000,0.000050,0.000035,-0.000047,0.306284,0.401276,-0.071451,-0.860269,28.908499,40.288928,-130.002064
03023,-6.365238,3.641731,6.654286,-0.054388,-0.019886,0.089567,0.005880,0.005218,-0.007607,-0.063649,0.036418,0.066546,1.000000,0.000029,0.000026,-0.000038,0.306295,0.401284,-0.071441,-0.860262,28.908433,40.289825,-130.000190
03024,-6.372064,3.622255,6.639781,-0.049658,0.001087,0.077113,0.007247,0.005718,-0.016832,-0.063716,0.036226,0.066401,1.000000,0.000036,0.000029,-0.000084,0.306262,0.401299,-0.071419,-0.860269,28.905570,40.293554,-130.004437
03025,-6.366912,3.641146,6.653005,-0.053273,-0.019099,0.089574,0.011366,0.005445,-0.010292,-0.063665,0.036411,0.066534,1.000000,0.000057,0.000027,-0.000051,0.306249,0.401316,-0.071428,-0.860265,28.907612,40.295272,-130.004528
03026,-6.387373,3.692280,6.676394,-0.036690,-0.051015,0.137275,0.009711,0.002972,-0.008721,-0.063871,0.036922,0.066767,1.000000,0.000049,0.000015,-0.000044,0.306244,0.401321,-0.071437,-0.860263,28.908965,40.295376,-130.004440
03027,-6.376882,3.677294,6.692041,-0.060162,-0.046883,0.135414,0.003867,-0.001240,-0.005305,-0.063768,0.036773,0.066921,1.000000,0.000019,-0.000006,-0.000027,0.306269,0.401296,-0.071432,-0.860266,28.907179,40.292402,-130.003230
03028,-6.399530,3.654083,6.648390,-0.027214,-0.009083,0.112361,0.004770,-0.007746,-0.001220,-0.063998,0.036540,0.066482,1.000000,0.000024,-0.000039,-0.000006,0.306303,0.401244,-0.071451,-0.860277,28.906373,40.285053,-130.002100
03029,-6.367321,3.641490,6.652425,-0.051038,-0.017558,0.089589,0.008196,-0.007382,-0.007175,-0.063674,0.036414,0.066523,1.000000,0.000041,-0.000037,-0.000036,0.306308,0.401201,-0.071470,-0.860294,28.904820,40.279553,-130.004361
03030,-6.351719,3.624925,6.626700,-0.046668,-0.009183,0.056219,0.008625,-0.013289,0.000454,-0.063522,0.036246,0.066264,1.000000,0.000043,-0.000066,0.000002,0.306340,0.401130,-0.071518,-0.860311,28.905633,40.268960,-130.004143
03031,-6.378575,3.636355,6.581309,0.006145,0.004267,0.047478,0.010280,-0.010815,-0.001118,-0.063789,0.036361,0.065812,1.000000,0.000051,-0.000054,-0.000006,0.306357,0.401074,-0.071566,-0.860328,28.907139,40.260220,-130.004764
03032,-6.346106,3.624036,6.585438,-0.017710,-0.004192,0.024709,0.008220,-0.010678,-0.004389,-0.063464,0.036239,0.065852,1.000000,0.000041,-0.000053,-0.000022,0.306369,0.401016,-0.071599,-0.860348,28.906275,40.252278,-130.006782
03033,-6.345642,3.624322,6.585728,-0.017156,-0.003816,0.024710,0.009018,-0.008295,-0.004473,-0.063458,0.036242,0.065856,1.000000,0.000045,-0.000041,-0.000022,0.306379,0.400969,-0.071631,-0.860363,28.906211,40.245601,-130.008225
03034,-6.347040,3.603567,6.530008,0.015412,0.021396,-0.019275,0.006009,-0.006964,-0.000655,-0.063473,0.036034,0.065299,1.000000,0.000030,-0.000035,-0.000003,0.306413,0.400922,-0.071655,-0.860371,28.906537,40.238488,-130.006441
03035,-6.367794,3.601676,6.542280,0.016305,0.034388,0.001631,0.006367,-0.002978,-0.001388,-0.063679,0.036015,0.065423,1.000000,0.000032,-0.000015,-0.000007,0.306442,0.400892,-0.071675,-0.860373,28.907572,40.233551,-130.004124
03036,-6.356910,3.586917,6.558175,-0.007215,0.038517,-0.000226,0.003391,-0.000642,-0.001763,-0.063569,0.035869,0.065582,1.000000,0.000017,-0.000003,-0.000009,0.306479,0.400869,-0.071677,-0.860370,28.907409,40.229916,-130.000775
03037,-6.388900,3.599775,6.554215,0.017739,0.047782,0.022533,0.007198,0.000409,-0.005666,-0.063888,0.035997,0.065544,1.000000,0.000036,0.000002,-0.000028,0.306491,0.400856,-0.071685,-0.860371,28.907871,40.227845,-129.999800
03038,-6.353036,3.585079,6.515764,0.021737,0.043549,-0.031754,0.002569,0.000272,-0.004468,-0.063529,0.035851,0.065158,1.000000,0.000013,0.000001,-0.000022,0.306518,0.400837,-0.071676,-0.860371,28.906303,40.225418,-129.997897
03039,-6.374404,3.582771,6.527667,0.022622,0.056525,-0.010851,0.008471,0.002195,-0.009294,-0.063742,0.035828,0.065279,1.000000,0.000042,0.000011,-0.000046,0.306512,0.400836,-0.071680,-0.860374,28.906335,40.225379,-129.998774
03040,-6.385687,3.597913,6.511165,0.047213,0.053203,-0.009004,0.012626,0.002931,-0.006949,-0.063855,0.035977,0.065115,1.000000,0.000063,0.000015,-0.000035,0.306509,0.400844,-0.071705,-0.860369,28.910099,40.224972,-129.997537
03041,-6.377809,3.606346,6.624370,-0.036139,0.028259,0.064678,0.010889,0.006046,-0.006759,-0.063775,0.036062,0.066248,1.000000,0.000054,0.000030,-0.000034,0.306509,0.400861,-0.071721,-0.860360,28.913607,40.225956,-129.995567
03042,-6.385098,3.619620,6.565578,0.016313,0.029190,0.034994,0.011746,0.006138,-0.008249,-0.063847,0.036195,0.065660,1.000000,0.000059,0.000031,-0.000041,0.306503,0.400882,-0.071735,-0.860351,28.917067,40.227518,-129.994020
03043,-6.400794,3.636755,6.590890,0.013089,0.021624,0.068373,0.009651,0.005268,-0.007325,-0.064005,0.036367,0.065912,1.000000,0.000048,0.000026,-0.000037,0.306507,0.400895,-0.071743,-0.860343,28.919350,40.228281,-129.992126
03044,-6.396408,3.602829,6.592438,-0.006299,0.046311,0.054048,0.008438,0.001192,-0.005102,-0.063963,0.036027,0.065926,1.000000,0.000042,0.000006,-0.000026,0.306520,0.400888,-0.071757,-0.860340,28.921091,40.226490,-129.990307
03045,-6.381722,3.586072,6.565937,-0.001929,0.054662,0.020665,0.008854,0.002886,-0.007241,-0.063815,0.035860,0.065662,1.000000,0.000044,0.000014,-0.000036,0.306535,0.400890,-0.071759,-0.860334,28.922221,40.226019,-129.988003
03046,-6.392519,3.568846,6.593538,-0.025113,0.071376,0.039722,0.011900,0.002561,-0.015255,-0.063922,0.035689,0.065938,1.000000,0.000059,0.000013,-0.000076,0.306498,0.400898,-0.071765,-0.860343,28.921959,40.227727,-129.992355
03047,-6.393809,3.600761,6.548885,0.023240,0.051751,0.022502,0.007651,0.003111,-0.012002,-0.063935,0.036009,0.065491,1.000000,0.000038,0.000016,-0.000060,0.306490,0.400900,-0.071756,-0.860346,28.920534,40.228685,-129.993743
03048,-6.377617,3.604711,6.578271,-0.004405,0.035278,0.033141,0.009806,0.001691,-0.014332,-0.063773,0.036048,0.065785,1.000000,0.000049,0.000008,-0.000072,0.306460,0.400901,-0.071756,-0.860356,28.919260,40.229702,-129.997805
03049,-6.389196,3.619264,6.561788,0.020221,0.031958,0.034978,0.005531,0.005537,-0.013870,-0.063888,0.036195,0.065621,1.000000,0.000028,0.000028,-0.000069,0.306447,0.400911,-0.071730,-0.860358,28.916383,40.232515,-129.999772
03050,-6.417189,3.597274,6.559461,0.025214,0.065547,0.043392,0.003793,0.008652,-0.013682,-0.064167,0.035976,0.065598,1.000000,0.000019,0.000043,-0.000068,0.306435,0.400933,-0.071695,-0.860355,28.913570,40.236842,-130.000882
03051,-6.359298,3.605325,6.564350,-0.003081,0.023821,0.012237,0.001698,0.007781,-0.012758,-0.063588,0.036057,0.065646,1.000000,0.000008,0.000039,-0.000064,0.306435,0.400946,-0.071652,-0.860352,28.909513,40.240452,-130.001376
03052,-6.375356,3.621617,6.589786,-0.006310,0.016262,0.045622,0.000781,0.009982,-0.009864,-0.063748,0.036219,0.065901,1.000000,0.000004,0.000050,-0.000049,0.306446,0.400968,-0.071610,-0.860342,28.906906,40.244389,-129.999495
03053,-6.340359,3.606495,6.550732,-0.002314,0.011982,-0.008663,0.006208,0.012509,-0.011149,-0.063397,0.036066,0.065512,1.000000,0.000031,0.000063,-0.000056,0.306448,0.401008,-0.071580,-0.860325,28.907175,40.249909,-129.996822
03054,-6.377770,3.620841,6.587877,-0.005197,0.017040,0.045621,0.005767,0.014113,-0.011801,-0.063771,0.036210,0.065884,1.000000,0.000029,0.000071,-0.000059,0.306442,0.401055,-0.071550,-0.860307,28.907572,40.256454,-129.994714
03055,-6.356280,3.643732,6.630675,-0.036911,-0.020044,0.068768,0.003354,0.010259,-0.014336,-0.063557,0.036441,0.066311,1.000000,0.000017,0.000051,-0.000072,0.306426,0.401083,-0.071509,-0.860303,28.904449,40.261824,-129.996058
03056,-6.363210,3.624067,6.616136,-0.032269,0.000926,0.056280,0.002044,0.007468,-0.006509,-0.063628,0.036242,0.066164,1.000000,0.000010,0.000037,-0.000033,0.306449,0.401094,-0.071483,-0.860292,28.903402,40.263571,-129.992885
03057,-6.368779,3.657920,6.613499,-0.011727,-0.022928,0.070603,0.003343,0.005957,-0.007348,-0.063684,0.036580,0.066137,1.000000,0.000017,0.000030,-0.000037,0.306466,0.401100,-0.071462,-0.860285,28.902228,40.264680,-129.990685
03058,-6.347706,3.627708,6.645097,-0.059314,-0.015176,0.066948,0.002168,0.002884,-0.009318,-0.063474,0.036279,0.066452,1.000000,0.000011,0.000014,-0.000047,0.306474,0.401093,-0.071438,-0.860288,28.898984,40.264905,-129.991021
03059,-6.365009,3.623082,6.614946,-0.030587,0.002118,0.056286,0.004704,0.002155,-0.009591,-0.063648,0.036232,0.066151,1.000000,0.000024,0.000011,-0.000048,0.306477,0.401085,-0.071425,-0.860291,28.896745,40.264735,-129.991720
03060,-6.338520,3.644342,6.616267,-0.034471,-0.030681,0.047887,0.009336,0.002300,-0.010789,-0.063382,0.036444,0.066165,1.000000,0.000047,0.000011,-0.000054,0.306464,0.401087,-0.071429,-0.860295,28.896845,40.265075,-129.993235
03061,-6.354021,3.661490,6.641791,-0.037663,-0.038240,0.081280,0.012216,0.001255,-0.004811,-0.063539,0.036612,0.066421,1.000000,0.000061,0.000006,-0.000024,0.306465,0.401086,-0.071462,-0.860292,28.900811,40.263239,-129.992014
03062,-6.332100,3.717592,6.640894,-0.021550,-0.095279,0.087207,0.012657,-0.000347,-0.004160,-0.063320,0.037173,0.066411,1.000000,0.000063,-0.000002,-0.000021,0.306473,0.401079,-0.071498,-0.860290,28.905010,40.260415,-129.990132
03063,-6.376069,3.692304,6.608906,0.011576,-0.044779,0.084932,0.003270,0.003949,0.001043,-0.063760,0.036922,0.066091,1.000000,0.000016,0.000020,0.000005,0.306518,0.401073,-0.071501,-0.860276,28.906979,40.258298,-129.984062
03064,-6.371822,3.690897,6.566528,0.039928,-0.040093,0.053362,0.004434,0.002721,0.010003,-0.063719,0.036904,0.065667,1.000000,0.000022,0.000014,0.000050,0.306605,0.401062,-0.071525,-0.860248,28.913200,40.253091,-129.971759
03065,-6.333810,3.698546,6.583773,0.011990,-0.069248,0.043149,0.005131,0.006395,0.015515,-0.063339,0.036979,0.065841,1.000000,0.000026,0.000032,0.000078,0.306709,0.401065,-0.071560,-0.860207,28.922927,40.248283,-129.955391
03066,-6.292125,3.737157,6.514346,0.059656,-0.114047,-0.015886,0.010202,0.015086,0.032431,-0.062922,0.037358,0.065150,1.000000,0.000051,0.000075,0.000162,0.306885,0.401107,-0.071636,-0.860118,28.944869,40.243054,-129.923868
03067,-6.239182,3.847637,6.427540,0.147016,-0.219933,-0.067176,0.004786,0.037167,0.061641,-0.062392,0.038456,0.064288,1.000000,0.000024,0.000186,0.000308,0.307207,0.401225,-0.071711,-0.859942,28.981081,40.240726,-129.864972
03068,-6.104249,4.077466,6.356085,0.237088,-0.470198,-0.116807,-0.001938,0.074246,0.106323,-0.061041,0.040743,0.063583,1.000000,-0.000010,0.000371,0.000532,0.307746,0.401477,-0.071791,-0.859625,29.041308,40.244576,-129.763419
03069,-5.940267,4.190828,6.262278,0.270909,-0.639859,-0.242780,-0.009656,0.146140,0.181731,-0.059395,0.041857,0.062664,0.999999,-0.000048,0.000731,0.000909,0.308650,0.401998,-0.071879,-0.859050,29.145904,40.263338,-129.586313
03070,-5.837391,4.687482,6.225238,0.469286,-1.084503,-0.148071,-0.039092,0.240765,0.289921,-0.058367,0.046802,0.062313,0.999998,-0.000195,0.001204,0.001450,0.310111,0.402840,-0.071912,-0.858126,29.302224,40.298806,-129.303286
03071,-5.304190,4.323325,5.945905,0.225986,-1.063436,-0.812835,-0.105567,0.388018,0.453701,-0.053024,0.043144,0.059539,0.999995,-0.000528,0.001940,0.002269,0.312459,0.404149,-0.071760,-0.856670,29.525321,40.360935,-128.858476
03072,-5.479953,4.818985,5.695673,0.699671,-1.304119,-0.674704,-0.040980,0.628472,0.683432,-0.054784,0.048014,0.057119,0.999989,-0.000205,0.003142,0.003417,0.315743,0.406501,-0.071973,-0.854332,29.942271,40.475550,-128.172600
03073,-5.955718,4.385358,5.744041,0.635581,-0.658866,-0.492942,-0.146531,0.673554,0.829658,-0.059545,0.043649,0.057609,0.999985,-0.000733,0.003368,0.004148,0.319867,0.408815,-0.071963,-0.851690,30.374107,40.566551,-127.373059
03074,-5.629397,4.203250,5.612988,0.439366,-0.666483,-0.855824,0.005485,0.835212,0.921045,-0.056252,0.041772,0.056366,0.999981,0.000027,0.004176,0.004605,0.324124,0.412014,-0.072522,-0.848486,30.975021,40.705004,-126.448630
03075,-6.515460,3.978503,5.858404,0.473254,0.044048,-0.201544,0.003595,0.889841,0.947576,-0.065081,0.039476,0.058874,0.999979,0.000018,0.004449,0.004738,0.328491,0.415416,-0.073044,-0.845096,31.604707,40.854800,-125.483225
03076,-6.649051,3.676562,5.840718,0.307686,0.399914,-0.242660,0.232783,0.883687,1.009951,-0.066416,0.036362,0.058743,0.999977,0.001164,0.004418,0.005050,0.332642,0.419127,-0.074664,-0.841491,32.394608,40.973554,-124.474284
03077,-6.475156,4.653669,5.891290,0.582052,-0.415974,0.075620,0.341915,0.897324,1.083688,-0.064737,0.046085,0.059282,0.999974,0.001710,0.004487,0.005418,0.336868,0.423026,-0.076868,-0.837652,33.285244,41.064496,-123.408336
03078,-5.980411,4.860854,5.442414,0.718569,-0.753202,-0.435687,0.397307,0.981107,1.262910,-0.059841,0.048122,0.054814,0.999966,0.001987,0.004905,0.006314,0.341734,0.427277,-0.079540,-0.833262,34.308694,41.125042,-122.191160
03079,-5.932982,5.985087,5.295637,1.267181,-1.529758,-0.059862,0.432644,1.099879,1.481161,-0.059477,0.059296,0.053412,0.999955,0.002163,0.005499,0.007406,0.347459,0.431959,-0.082615,-0.828165,35.477864,41.151856,-120.783551
03080,-6.005346,5.985075,5.151174,1.293076,-1.367797,-0.072303,0.308590,1.203381,1.650164,-0.060232,0.059274,0.051966,0.999947,0.001543,0.006017,0.008251,0.354155,0.436746,-0.085354,-0.822522,36.675791,41.148133,-119.225352
03081,-6.138459,5.644942,5.235919,0.984101,-0.952119,-0.061590,0.244326,1.322687,1.738158,-0.061523,0.055851,0.052834,0.999940,0.001222,0.006613,0.008691,0.361369,0.441817,-0.087801,-0.816395,37.907477,41.142776,-117.559210
03082,-6.249317,5.179662,5.175752,0.701811,-0.443158,-0.222056,0.220521,1.415493,1.800198,-0.062587,0.051176,0.052257,0.999934,0.001103,0.007077,0.009001,0.368878,0.447145,-0.090108,-0.809858,39.178258,41.130064,-115.813161
03083,-6.492243,4.698600,5.157096,0.401037,0.153297,-0.292463,0.364921,1.472035,1.870739,-0.064975,0.046284,0.052134,0.999928,0.001825,0.007360,0.009353,0.376323,0.452873,-0.093050,-0.802888,40.575881,41.085017,-114.000255
03084,-6.592867,5.023869,5.241884,0.368045,0.069970,-0.012744,0.530104,1.471452,1.903305,-0.066013,0.049471,0.053036,0.999924,0.002650,0.007357,0.009516,0.383470,0.458828,-0.096707,-0.795661,42.075295,40.993537,-112.172770
03085,-6.878334,5.298974,5.450774,0.245799,0.135888,0.435191,0.590088,1.467814,1.872869,-0.068871,0.052183,0.055168,0.999925,0.002950,0.007339,0.009364,0.390297,0.464824,-0.100545,-0.788351,43.591236,40.874508,-110.371164
03086,-7.572201,5.418689,5.873838,-0.042736,0.560982,1.181937,0.627778,1.337914,1.818151,-0.075813,0.053312,0.059414,0.999931,0.003139,0.006689,0.009091,0.396700,0.470347,-0.104624,-0.781317,45.053803,40.690433,-108.676275
03087,-7.769693,5.769668,6.220598,-0.285408,0.505908,1.676949,0.618465,1.130081,1.754500,-0.077844,0.056821,0.062822,0.999941,0.003092,0.005650,0.008772,0.402731,0.474991,-0.108941,-0.774805,46.403465,40.413793,-107.139756
03088,-8.510493,6.188387,6.682079,-0.460159,0.795650,2.618162,0.566929,0.847289,1.715827,-0.085346,0.060962,0.067356,0.999950,0.002835,0.004236,0.008579,0.408523,0.478426,-0.113498,-0.768983,47.593148,40.021157,-105.793775
03089,-8.425775,6.862679,7.086174,-0.612800,0.362878,3.140809,0.456982,0.417332,1.715176,-0.084693,0.067739,0.071194,0.999958,0.002285,0.002087,0.008576,0.414304,0.479927,-0.118510,-0.764185,48.545892,39.442733,-104.706001
03090,-8.183954,7.107773,7.248008,-0.769309,0.171403,3.202934,0.272897,-0.015944,1.746443,-0.082461,0.070260,0.072570,0.999961,0.001364,-0.000080,0.008732,0.420346,0.479346,-0.123770,-0.760406,49.228080,38.678005,-103.864795
03091,-7.565805,7.317768,7.226751,-0.806737,-0.219592,2.927575,0.075534,-0.391408,1.767321,-0.076442,0.072477,0.072146,0.999959,0.000378,-0.001957,0.008836,0.426682,0.476860,-0.129123,-0.757545,49.653076,37.755800,-103.241216
03092,-7.290040,7.470126,7.175442,-0.735490,-0.292830,2.828649,-0.125387,-0.703188,1.790233,-0.073817,0.074088,0.071449,0.999954,-0.000627,-0.003516,0.008951,0.433337,0.472719,-0.134409,-0.755440,49.848458,36.707758,-102.792515
03093,-6.685891,7.393162,6.744402,-0.482225,-0.401914,2.205973,-0.394061,-0.985938,1.765833,-0.067840,0.073468,0.066966,0.999947,-0.001970,-0.004930,0.008829,0.440303,0.466893,-0.139229,-0.754161,49.781730,35.564561,-102.516072
03094,-6.043161,6.984781,6.589456,-0.606640,-0.425256,1.508732,-0.593016,-1.148622,1.703807,-0.061401,0.069522,0.065337,0.999943,-0.002965,-0.005743,0.008519,0.447336,0.460011,-0.143489,-0.753454,49.530318,34.389640,-102.354471
03095,-5.818771,6.311829,6.342282,-0.711382,0.026913,0.836763,-0.684526,-1.276842,1.649880,-0.059109,0.062849,0.062832,0.999940,-0.003423,-0.006384,0.008249,0.454235,0.452416,-0.147553,-0.753139,49.175237,33.190015,-102.279156
03096,-4.863682,5.439986,5.814981,-0.836090,0.006922,-0.519645,-0.648371,-1.328925,1.545139,-0.049440,0.054207,0.057647,0.999943,-0.003242,-0.006644,0.007726,0.460562,0.444740,-0.151614,-0.753062,48.804874,32.017525,-102.269120
03097,-4.343440,4.556199,5.638263,-1.202900,0.234940,-1.451458,-0.444967,-1.266747,1.402498,-0.044109,0.045379,0.056004,0.999953,-0.002225,-0.006334,0.007012,0.465896,0.437828,-0.155966,-0.752942,48.538391,30.929967,-102.283465
03098,-4.058356,4.388108,5.518758,-1.202332,0.243551,-1.770554,-0.086437,-1.168540,1.271219,-0.041183,0.043644,0.054929,0.999963,-0.000432,-0.005843,0.006356,0.469989,0.432185,-0.161137,-0.752569,48.474725,29.936027,-102.302951
03099,-4.257975,5.468333,5.926283,-0.853639,-0.060558,-0.734158,0.237644,-1.052305,1.192101,-0.043216,0.054357,0.059101,0.999968,0.001188,-0.005261,0.005960,0.473145,0.427774,-0.167074,-0.751817,48.608135,29.020028,-102.300124
03100,-5.190121,7.214608,6.554699,-0.182024,-0.064244,1.228692,0.341404,-1.038276,1.209204,-0.052675,0.071717,0.065398,0.999967,0.001707,-0.005191,0.006046,0.476124,0.423619,-0.173392,-0.750859,48.806202,28.102103,-102.286065
03101,-4.708190,8.469476,6.616293,0.411575,-0.912842,1.877845,0.084055,-1.144942,1.213681,-0.047972,0.084378,0.065926,0.999965,0.000420,-0.005725,0.006068,0.479538,0.418418,-0.178994,-0.750287,48.832341,27.142060,-102.324235
03102,-3.560808,8.156204,6.417450,0.229089,-1.558980,1.045544,-0.334397,-1.085852,1.132741,-0.036417,0.081464,0.063842,0.999968,-0.001672,-0.005429,0.005664,0.483546,0.412479,-0.182704,-0.750109,48.617708,26.239075,-102.366011
03103,-3.726307,6.963664,6.433070,-0.359855,-0.713805,0.342181,-0.512739,-0.976941,1.077560,-0.037951,0.069598,0.063968,0.999970,-0.002564,-0.004885,0.005388,0.487783,0.406542,-0.185356,-0.749956,48.315955,25.400939,-102.374404
03104,-3.930779,6.712020,6.570341,-0.496937,-0.303158,0.352494,-0.500315,-0.913844,1.072424,-0.039967,0.067071,0.065354,0.999972,-0.002502,-0.004569,0.005362,0.492006,0.400853,-0.187880,-0.749632,48.035154,24.589112,-102.350426
03105,-4.462912,6.997920,6.891425,-0.401219,0.141628,0.966785,-0.475710,-0.937643,1.089276,-0.045332,0.069897,0.068537,0.999971,-0.002379,-0.004688,0.005446,0.496192,0.395096,-0.190578,-0.749248,47.768102,23.761047,-102.326401
03106,-4.032257,7.162121,6.983205,-0.374398,-0.183227,0.964331,-0.587983,-1.008989,1.060759,-0.041053,0.071609,0.069416,0.999969,-0.002940,-0.005045,0.005304,0.500396,0.388797,-0.192964,-0.749137,47.420554,22.917655,-102.342513
03107,-4.350974,6.885317,7.167245,-0.522279,0.343404,1.018507,-0.669483,-1.062553,1.016919,-0.044239,0.068868,0.071208,0.999967,-0.003347,-0.005313,0.005085,0.504509,0.382110,-0.195081,-0.749270,47.012384,22.071727,-102.395406
03108,-4.347257,6.578969,7.257149,-0.670553,0.598754,0.866118,-0.716969,-1.172948,0.962199,-0.044213,0.065837,0.072078,0.999965,-0.003585,-0.005865,0.004811,0.508366,0.374917,-0.197181,-0.749747,46.553684,21.205037,-102.513724
03109,-4.752045,6.432400,7.468065,-0.724400,1.153948,1.044122,-0.700041,-1.302424,0.946569,-0.048309,0.064357,0.074143,0.999961,-0.003500,-0.006512,0.004733,0.511966,0.367269,-0.199629,-0.750435,46.086527,20.292685,-102.687889
03110,-4.428423,6.670881,7.393460,-0.460203,0.925068,1.036444,-0.751044,-1.504627,0.915564,-0.045143,0.066780,0.073346,0.999954,-0.003755,-0.007523,0.004578,0.515299,0.358732,-0.202330,-0.751559,45.561777,19.311007,-102.953998
03111,-3.374528,6.270278,7.157974,-0.622087,0.279405,0.260644,-0.894154,-1.580780,0.819972,-0.034566,0.062881,0.071028,0.999950,-0.004471,-0.007904,0.004100,0.518403,0.349601,-0.204498,-0.753139,44.939360,18.335025,-103.281673
03112,-3.623687,5.763555,7.255482,-0.821489,0.838343,0.067128,-0.908679,-1.613760,0.738942,-0.037033,0.057828,0.071996,0.999950,-0.004543,-0.008069,0.003695,0.521141,0.340358,-0.206534,-0.754926,44.303094,17.374883,-103.644822
03113,-3.250923,5.777848,7.169095,-0.691667,0.628963,-0.093079,-0.879803,-1.680581,0.663853,-0.033301,0.057983,0.071159,0.999950,-0.004399,-0.008403,0.003319,0.523424,0.330979,-0.208705,-0.756916,43.675350,16.413299,-104.055201
03114,-3.085250,5.974123,7.249268,-0.516980,0.536397,0.046450,-0.891821,-1.707218,0.591356,-0.031645,0.059970,0.071958,0.999949,-0.004459,-0.008536,0.002957,0.525372,0.321511,-0.210759,-0.759075,43.039382,15.464886,-104.494741
03115,-2.565263,5.622887,7.118243,-0.640187,0.308690,-0.412749,-0.912023,-1.701355,0.515461,-0.026401,0.056485,0.070703,0.999950,-0.004560,-0.008507,0.002577,0.527018,0.312059,-0.212577,-0.761369,42.394015,14.543758,-104.952099
03116,-2.897707,5.677821,7.393616,-0.576628,0.724006,-0.094642,-0.790676,-1.671412,0.499756,-0.029735,0.056996,0.073465,0.999954,-0.003953,-0.008357,0.002499,0.528395,0.303027,-0.214734,-0.763454,41.829502,13.636794,-105.392450
03117,-3.362180,6.508394,7.678891,0.047526,1.007065,0.751825,-0.737148,-1.747144,0.540878,-0.034466,0.065273,0.076250,0.999951,-0.003686,-0.008736,0.002704,0.529716,0.293775,-0.217336,-0.765416,41.302280,12.677693,-105.833727
03118,-2.585697,6.620005,7.567802,0.142661,0.379519,0.561026,-0.892902,-1.808365,0.514389,-0.026709,0.066468,0.075143,0.999946,-0.004464,-0.009042,0.002572,0.531044,0.283874,-0.219444,-0.767628,40.688233,11.697854,-106.298701
03119,-2.117018,5.494511,7.395132,-0.495584,0.446520,-0.383407,-0.974635,-1.799513,0.434864,-0.021953,0.055257,0.073487,0.999945,-0.004873,-0.008997,0.002174,0.532133,0.273846,-0.221077,-0.770044,40.031111,10.746403,-106.783083
03120,-1.900145,4.930461,7.495053,-0.876067,0.557437,-0.701431,-0.843016,-1.760285,0.356516,-0.019747,0.049585,0.074570,0.999951,-0.004215,-0.008801,0.001783,0.532729,0.264378,-0.222982,-0.772388,39.455765,9.835882,-107.275931
03121,-2.513404,5.589000,7.868241,-0.339537,1.060951,0.097892,-0.705117,-1.784510,0.302512,-0.025918,0.056128,0.078256,0.999953,-0.003526,-0.008922,0.001513,0.532855,0.255217,-0.225391,-0.774680,38.963172,8.929687,-107.792092
03122,-2.592905,6.261840,8.307160,0.029378,1.077111,0.853998,-0.776717,-1.879692,0.225046,-0.026777,0.062910,0.082579,0.999948,-0.003884,-0.009398,0.001125,0.532611,0.245560,-0.227655,-0.777302,38.429045,8.004149,-108.368127
03123,-2.355312,5.759974,8.376232,-0.282735,1.156762,0.553804,-0.929073,-2.010073,0.111726,-0.024424,0.057974,0.083251,0.999939,-0.004645,-0.010050,0.000559,0.531905,0.235090,-0.229509,-0.780471,37.805341,7.054222,-109.031511
03124,-1.765450,4.926062,8.376348,-0.905240,1.006113,-0.029504,-0.968788,-2.102228,-0.031092,-0.018524,0.049668,0.083332,0.999933,-0.004844,-0.010511,-0.000155,0.530514,0.224289,-0.231255,-0.784073,37.160149,6.104947,-109.780517
03125,-1.898630,4.664258,8.798160,-1.132479,1.400477,0.163280,-0.881875,-2.185704,-0.180701,-0.019902,0.047047,0.087561,0.999930,-0.004409,-0.010928,-0.000903,0.528269,0.213533,-0.233364,-0.787957,36.568410,5.160880,-110.615707
03126,-2.510615,5.356861,9.164822,-0.439709,1.931957,0.914025,-0.848331,-2.387161,-0.295902,-0.026116,0.053994,0.091112,0.999919,-0.004242,-0.011935,-0.001479,0.525220,0.202175,-0.235979,-0.792202,36.001229,4.154440,-111.561809
03127,-1.727590,5.382587,9.055747,-0.443829,1.323219,0.770801,-1.002103,-2.570701,-0.447716,-0.018314,0.054318,0.090055,0.999902,-0.005010,-0.012853,-0.002239,0.521413,0.189828,-0.238270,-0.797070,35.355036,3.103419,-112.628312
03128,-1.532376,4.712018,8.908448,-0.726904,1.490635,0.244947,-1.023568,-2.702018,-0.556898,-0.016391,0.047619,0.088625,0.999892,-0.005118,-0.013510,-0.002784,0.516929,0.176993,-0.240666,-0.802208,34.713010,2.014756,-113.776239
03129,-0.461723,4.451419,8.287456,-0.828779,0.619211,-0.451292,-0.997210,-2.764321,-0.647161,-0.005615,0.044944,0.082578,0.999887,-0.004986,-0.013821,-0.003236,0.511868,0.164045,-0.243194,-0.807426,34.106479,0.913488,-114.974435
03130,0.441690,4.489573,7.850982,-0.796615,-0.177682,-0.794926,-0.927192,-2.659048,-0.714939,0.003536,0.045246,0.078352,0.999894,-0.004636,-0.013295,-0.003575,0.506493,0.151749,-0.245628,-0.812468,33.562809,-0.128074,-116.159717
03131,0.470749,4.690756,7.764718,-0.477793,-0.177461,-0.743326,-0.826952,-2.509383,-0.711189,0.003902,0.047213,0.077505,0.999906,-0.004135,-0.012547,-0.003556,0.501140,0.140279,-0.248042,-0.817102,33.096611,-1.109528,-117.287012
03132,0.482557,5.217391,7.836287,0.005832,-0.255372,-0.389633,-0.730242,-2.372491,-0.649217,0.004067,0.052446,0.078223,0.999918,-0.003651,-0.011862,-0.003246,0.496053,0.129509,-0.250510,-0.821221,32.702835,-2.052882,-118.334722
03133,0.264876,5.871349,7.827026,0.730672,-0.216392,-0.054489,-0.734063,-2.275315,-0.589127,0.001933,0.058994,0.078079,0.999924,-0.003670,-0.011376,-0.002946,0.491259,0.119032,-0.252719,-0.825003,32.320800,-2.974828,-119.317710
03134,0.227752,5.522887,8.147152,0.481484,0.138285,0.019755,-0.860969,-2.212497,-0.600054,0.001544,0.055574,0.081253,0.999925,-0.004305,-0.011062,-0.003000,0.486501,0.108500,-0.254207,-0.828809,31.880713,-3.870003,-120.280909
03135,0.411496,4.113826,8.030470,-0.479796,0.594111,-0.812914,-0.827267,-2.195924,-0.652782,0.003369,0.041458,0.080173,0.999926,-0.004136,-0.010979,-0.003264,0.481453,0.098167,-0.255726,-0.832568,31.475685,-4.748277,-121.259338
03136,0.686312,4.243789,8.136061,-0.440614,0.436960,-0.631768,-0.677313,-2.138197,-0.760922,0.006156,0.042689,0.081285,0.999930,-0.003386,-0.010691,-0.003805,0.475887,0.088562,-0.257642,-0.836247,31.174170,-5.572106,-122.269308
03137,0.148405,4.436648,8.441347,-0.006960,1.005263,-0.328508,-0.670415,-2.129519,-0.897415,0.000786,0.044645,0.084275,0.999928,-0.003352,-0.010647,-0.004487,0.469690,0.079170,-0.259467,-0.840119,30.896876,-6.356410,-123.341343
03138,0.343781,4.234782,8.470261,-0.147471,1.021664,-0.393056,-0.716881,-2.151204,-1.053520,0.002752,0.042635,0.084582,0.999922,-0.003584,-0.010756,-0.005267,0.462757,0.069771,-0.261049,-0.844299,30.617103,-7.110844,-124.494838
03139,0.532424,3.854815,8.346147,-0.367548,1.065776,-0.673291,-0.697863,-2.148996,-1.212441,0.004663,0.038810,0.083379,0.999918,-0.003489,-0.010745,-0.006062,0.455075,0.060620,-0.262607,-0.848687,30.372571,-7.823195,-125.725244
03140,0.265941,4.258383,8.342658,0.206301,1.168674,-0.517815,-0.682629,-2.140879,-1.365471,0.002059,0.042853,0.083305,0.999914,-0.003413,-0.010704,-0.006827,0.446673,0.051730,-0.264122,-0.853257,30.162157,-8.492196,-127.028875
03141,0.444179,4.176596,8.285914,0.177727,1.100817,-0.590279,-0.775010,-2.154978,-1.520083,0.003869,0.042056,0.082740,0.999906,-0.003875,-0.010775,-0.007600,0.437536,0.042767,-0.265184,-0.858144,29.925637,-9.128844,-128.413841
03142,0.914071,3.585050,7.710822,-0.255538,0.831626,-1.304636,-0.795426,-2.099507,-1.671255,0.008632,0.036083,0.077057,0.999902,-0.003977,-0.010497,-0.008356,0.427744,0.034191,-0.265957,-0.863211,29.701945,-9.700368,-129.858634
03143,1.124549,3.928647,7.579062,-0.013666,0.491967,-1.216280,-0.724840,-1.978422,-1.788683,0.010848,0.039463,0.075756,0.999905,-0.003624,-0.009892,-0.008943,0.417511,0.026436,-0.266702,-0.868249,29.535768,-10.183147,-131.328358
03144,1.052221,4.370641,7.294021,0.495243,0.222774,-1.261830,-0.725192,-1.849067,-1.843031,0.010252,0.043875,0.072877,0.999908,-0.003626,-0.009245,-0.009215,0.407138,0.019311,-0.267120,-0.873220,29.379358,-10.590170,-132.789181
03145,1.513331,4.717178,7.118645,0.527689,-0.361251,-1.163530,-0.772495,-1.681634,-1.874311,0.014978,0.047306,0.071130,0.999913,-0.003862,-0.008408,-0.009371,0.396782,0.012858,-0.266938,-0.878147,29.198761,-10.908961,-134.218714
03146,1.030751,4.709746,7.396943,0.833811,0.102388,-1.023320,-0.813581,-1.493681,-1.895694,0.010203,0.047301,0.073854,0.999919,-0.004068,-0.007468,-0.009478,0.386521,0.007177,-0.266159,-0.883012,28.993521,-11.132432,-135.605938
03147,0.630741,4.888822,7.659933,1.229024,0.371354,-0.794692,-0.850259,-1.399871,-1.931735,0.006246,0.049153,0.076435,0.999920,-0.004251,-0.006999,-0.009658,0.376164,0.001884,-0.264990,-0.887850,28.770088,-11.303947,-136.985267
03148,0.198761,4.861353,8.058035,1.500602,0.815031,-0.555938,-1.003157,-1.358465,-2.012568,0.001933,0.048997,0.080348,0.999914,-0.005016,-0.006792,-0.010063,0.365442,-0.003405,-0.263022,-0.892894,28.468857,-11.438651,-138.394333
03149,0.162386,4.096534,7.962548,1.117927,1.190786,-1.006914,-1.077991,-1.366507,-2.133018,0.001521,0.041377,0.079414,0.999905,-0.005390,-0.006832,-0.010665,0.354105,-0.008708,-0.260687,-0.898096,28.140196,-11.552259,-139.867530
03150,0.532607,4.104617,7.931754,0.921838,0.881087,-0.957318,-1.093772,-1.325684,-2.244709,0.005265,0.041420,0.079127,0.999900,-0.005469,-0.006628,-0.011223,0.342250,-0.013707,-0.258165,-0.903343,27.814431,-11.623451,-141.386960
03151,0.677267,4.094164,7.688802,0.898543,0.625571,-1.144393,-1.084848,-1.252262,-2.292136,0.006764,0.041281,0.076707,0.999900,-0.005424,-0.006261,-0.011460,0.330207,-0.018297,-0.255507,-0.908485,27.495673,-11.653103,-142.910924
03152,0.779534,4.524733,7.688644,1.122490,0.221272,-0.930868,-1.039912,-1.144738,-2.233358,0.007864,0.045559,0.076695,0.999908,-0.005199,-0.005724,-0.011166,0.318510,-0.022395,-0.252825,-0.913307,27.191325,-11.651648,-144.375289
03153,1.290231,4.614323,7.199110,0.851225,-0.425847,-1.217477,-0.990283,-1.017564,-2.052326,0.013012,0.046366,0.071828,0.999922,-0.004951,-0.005088,-0.010261,0.307751,-0.026059,-0.250100,-0.917638,26.889054,-11.639998,-145.711509
03154,1.899402,5.291366,6.778194,0.793142,-1.487831,-1.169360,-0.988610,-0.770489,-1.873950,0.019230,0.053069,0.067594,0.999936,-0.004943,-0.003852,-0.009370,0.298077,-0.028805,-0.246947,-0.921595,26.555125,-11.555166,-146.889320
03155,1.809413,5.059189,6.747978,0.723481,-1.368427,-1.326943,-1.186384,-0.479662,-1.779720,0.018384,0.050828,0.067223,0.999940,-0.005932,-0.002398,-0.008898,0.289131,-0.030619,-0.242403,-0.925585,26.079915,-11.353024,-147.942402
03156,1.415973,3.889452,7.448411,0.339759,-0.089728,-1.298729,-1.166800,-0.228161,-1.682082,0.014404,0.039208,0.074272,0.999947,-0.005834,-0.001141,-0.008410,0.280912,-0.031356,-0.237545,-0.929342,25.589448,-11.054298,-148.880871
03157,0.311058,4.289827,8.086611,1.435380,0.374342,-0.774363,-1.036856,-0.168470,-1.521677,0.003371,0.043292,0.080645,0.999957,-0.005184,-0.000842,-0.007608,0.273502,-0.031820,-0.233158,-0.932642,25.149936,-10.771506,-149.721399
03158,1.326792,4.611281,7.967519,0.746808,-0.523317,-0.556704,-1.081551,-0.117767,-1.442065,0.013555,0.046446,0.079433,0.999959,-0.005408,-0.000589,-0.007210,0.266494,-0.032199,-0.228463,-0.935815,24.671227,-10.488226,-150.508828
03159,0.473945,3.758733,8.583291,0.997343,0.705221,-0.510392,-1.007531,-0.017049,-1.327274,0.004983,0.037987,0.085643,0.999965,-0.005038,-0.000085,-0.006636,0.260128,-0.032138,-0.223943,-0.938696,24.215714,-10.185908,-151.212742
03160,0.417095,4.336650,8.304769,1.353092,0.073467,-0.532990,-0.876945,-0.102638,-1.202405,0.004390,0.043704,0.082859,0.999972,-0.004385,-0.000513,-0.006012,0.254259,-0.032445,-0.220115,-0.941196,23.824341,-9.962670,-151.872185
03161,1.838996,4.596715,8.009839,0.252199,-1.006075,-0.453592,-1.014953,0.020002,-1.190116,0.018673,0.046262,0.079862,0.999969,-0.005075,0.000100,-0.005951,0.248544,-0.032363,-0.215464,-0.943798,23.344996,-9.682733,-152.497780
03162,1.046226,3.474964,8.122686,0.384512,0.187029,-0.926496,-1.027044,0.157850,-1.179061,0.010733,0.035103,0.081039,0.999969,-0.005135,0.000789,-0.005895,0.243013,-0.031655,-0.210572,-0.946362,22.849758,-9.337941,-153.087823
03163,1.307516,4.035979,8.296963,0.395278,-0.401522,-0.511077,-1.005086,0.215974,-1.198269,0.013408,0.040696,0.082751,0.999969,-0.005025,0.001080,-0.005991,0.237441,-0.030623,-0.205702,-0.948879,22.363140,-8.963118,-153.677591
03164,2.016433,4.094018,7.978182,-0.222878,-0.998011,-0.678610,-1.260412,0.347656,-1.324471,0.020575,0.041306,0.079487,0.999957,-0.006302,0.001738,-0.006622,0.231349,-0.029137,-0.199470,-0.951757,21.732602,-8.496970,-154.309458
03165,2.879055,3.075569,7.034971,-1.459492,-1.025731,-1.809227,-1.476183,0.595375,-1.498513,0.029231,0.031055,0.070035,0.999940,-0.007381,0.002977,-0.007492,0.224620,-0.026546,-0.191927,-0.954990,20.978824,-7.869856,-154.987719
03166,4.132347,3.436171,6.384078,-2.472057,-2.208782,-2.154482,-1.629906,1.005816,-1.654660,0.041928,0.034534,0.063350,0.999920,-0.008149,0.005029,-0.008273,0.217489,-0.022014,-0.183185,-0.958466,20.129563,-7.000634,-155.674717
03167,3.118675,2.851026,7.712796,-1.953895,-0.965764,-1.292839,-1.674679,1.515794,-1.635387,0.032004,0.028894,0.076647,0.999903,-0.008373,0.007579,-0.008177,0.210872,-0.015101,-0.173638,-0.961850,19.231561,-5.870510,-156.264072
03168,-0.198723,2.888697,9.183689,0.905037,0.649086,-0.248202,-1.394094,1.592176,-1.360031,-0.001058,0.029536,0.091643,0.999921,-0.006970,0.007961,-0.006800,0.205631,-0.007760,-0.165311,-0.964535,18.469294,-4.758533,-156.704428
03169,0.652200,4.509318,9.654853,0.627768,-1.131189,0.784338,-1.339395,1.511374,-1.113430,0.007503,0.045698,0.096190,0.999934,-0.006697,0.007557,-0.005567,0.201484,-0.000957,-0.157294,-0.966779,17.722110,-3.740352,-157.038560
03170,-0.730327,3.817420,11.020781,1.421871,0.203478,1.784498,-1.445421,1.501333,-0.961660,-0.006291,0.039001,0.109978,0.999934,-0.007227,0.007507,-0.004808,0.198036,0.005573,-0.148756,-0.968825,16.904739,-2.758157,-157.304706
03171,-2.608399,2.380614,11.201040,2.497316,2.022076,1.483557,-1.251763,1.100032,-0.807205,-0.025370,0.024611,0.111999,0.999957,-0.006259,0.005500,-0.004036,0.195011,0.010234,-0.141540,-0.970481,16.193876,-2.025217,-157.564450
03172,0.518349,3.369957,10.170924,-0.004009,-0.507459,0.902387,-1.297997,0.845005,-0.859393,0.005759,0.034335,0.101464,0.999961,-0.006490,0.004225,-0.004297,0.191538,0.013650,-0.134335,-0.972153,15.456068,-1.428026,-157.901921
03173,2.096756,2.359180,8.684138,-1.778325,-0.742889,-0.776107,-1.500299,0.987333,-1.021117,0.021518,0.024133,0.086556,0.999947,-0.007501,0.004937,-0.005105,0.187371,0.017670,-0.125985,-0.974016,14.599763,-0.732787,-158.315995
03174,2.644043,2.313569,8.000076,-2.318110,-1.217430,-1.476834,-1.537082,1.303424,-1.217364,0.027103,0.023585,0.079645,0.999931,-0.007685,0.006517,-0.006087,0.182428,0.023318,-0.117129,-0.975939,13.717235,0.159186,-158.805162
03175,2.676984,2.428644,7.968994,-2.403400,-1.497713,-1.533420,-1.669874,1.677572,-1.277053,0.027593,0.024775,0.079255,0.999910,-0.008349,0.008388,-0.006385,0.177398,0.030700,-0.107257,-0.977795,12.749907,1.259609,-159.292984
03176,1.959002,1.582196,7.979105,-2.140194,-0.635805,-1.749277,-1.538659,2.029724,-1.139377,0.020490,0.016319,0.079462,0.999903,-0.007693,0.010148,-0.005697,0.173178,0.039842,-0.097716,-0.979221,11.851248,2.532316,-159.678705
03177,0.986939,2.167098,8.428357,-1.229983,-0.926867,-1.191151,-1.254504,2.273421,-0.947226,0.010930,0.022148,0.084025,0.999905,-0.006272,0.011367,-0.004736,0.169927,0.050319,-0.089374,-0.980105,11.112859,3.914201,-159.947187
03178,0.470476,1.894577,8.592248,-1.021967,-0.639743,-1.084630,-1.098820,2.405295,-0.742533,0.005808,0.019397,0.085751,0.999906,-0.005494,0.012026,-0.003713,0.167667,0.061476,-0.081718,-0.980526,10.466401,5.345118,-160.102998
03179,0.636790,1.504109,8.412575,-1.452502,-0.511261,-1.382767,-0.833403,2.553904,-0.490975,0.007478,0.015374,0.083971,0.999907,-0.004167,0.012769,-0.002455,0.166587,0.073468,-0.075300,-0.980398,9.983065,6.832509,-160.115618
03180,0.370790,1.709254,8.083913,-1.273579,-0.783667,-1.678319,-0.514617,2.803851,-0.237665,0.004861,0.017295,0.080732,0.999898,-0.002573,0.014019,-0.001188,0.166694,0.086842,-0.070316,-0.979657,9.703375,8.436215,-159.969199
03181,-0.405284,2.308450,8.112880,-0.579083,-1.192338,-1.473034,-0.348061,3.047691,-0.027997,-0.002813,0.023226,0.081138,0.999882,-0.001740,0.015238,-0.000140,0.167805,0.101455,-0.066019,-0.978361,9.545430,10.157952,-159.684787
03182,-1.405464,2.642347,8.417790,0.146068,-1.249119,-0.968006,-0.365543,3.272652,0.021997,-0.012678,0.026576,0.084344,0.999864,-0.001828,0.016363,0.000110,0.169201,0.117113,-0.061458,-0.976667,9.395477,12.003035,-159.352982
03183,-2.658730,1.803120,8.667513,0.701706,-0.139641,-0.597157,-0.474257,3.405286,-0.013214,-0.025106,0.018239,0.087068,0.999852,-0.002371,0.017026,-0.000066,0.170481,0.133303,-0.056214,-0.974683,9.191169,13.927182,-159.032654
03184,-3.508419,0.799448,8.833901,0.820900,0.968858,-0.359413,-0.420245,3.431913,-0.092300,-0.033558,0.008197,0.088907,0.999850,-0.002101,0.017159,-0.000461,0.171297,0.149652,-0.051143,-0.972443,9.016240,15.874772,-158.759903
03185,-4.087097,0.835034,8.799721,1.061781,1.002218,-0.184832,-0.261480,3.427441,-0.199378,-0.039347,0.008506,0.088669,0.999852,-0.001307,0.017136,-0.000997,0.171421,0.166098,-0.046751,-0.969969,8.921929,17.829842,-158.553142
03186,-4.233001,1.011238,8.535545,1.035162,0.751783,-0.317908,-0.191281,3.387708,-0.300266,-0.040861,0.010257,0.086046,0.999855,-0.000956,0.016938,-0.001501,0.170938,0.182387,-0.042637,-0.967314,8.853885,19.771796,-158.410945
03187,-4.342092,1.321115,8.158663,1.070776,0.373759,-0.546175,-0.053513,3.395214,-0.269703,-0.042010,0.013290,0.082304,0.999855,-0.000268,0.016975,-0.001348,0.170430,0.198770,-0.039198,-0.964317,8.876236,21.715220,-158.248770
03188,-4.763347,2.766676,7.987341,1.657088,-0.944767,-0.299828,0.004165,3.413905,-0.128533,-0.046243,0.027695,0.080671,0.999854,0.000021,0.017069,-0.000643,0.170499,0.215208,-0.036150,-0.960890,8.972760,23.656654,-157.993654
03189,-5.284271,3.425669,7.860376,2.059437,-1.483924,-0.066279,-0.155293,3.430537,0.114146,-0.051504,0.034289,0.079468,0.999852,-0.000776,0.017152,0.000571,0.171858,0.231482,-0.032572,-0.956985,9.052175,25.585254,-157.578907
03190,-5.667339,3.232012,7.655073,2.116557,-1.259296,-0.061216,-0.258241,3.405475,0.417517,-0.055427,0.032303,0.077460,0.999852,-0.001291,0.017027,0.002087,0.174734,0.247431,-0.028866,-0.952582,9.174485,27.471595,-156.964284
03191,-6.038662,2.881945,7.551753,2.066966,-0.879604,0.023275,-0.331888,3.380326,0.677758,-0.059197,0.028744,0.076477,0.999850,-0.001659,0.016901,0.003389,0.178884,0.263084,-0.025143,-0.947711,9.358227,29.318175,-156.168913
03192,-6.472228,2.378039,7.428239,2.017493,-0.322242,0.114113,-0.377131,3.350869,0.819053,-0.063563,0.023660,0.075309,0.999849,-0.001886,0.016754,0.004095,0.183706,0.278460,-0.021411,-0.942472,9.594458,31.132278,-155.262004
03193,-6.711717,2.199612,7.500895,1.805708,-0.151649,0.329147,-0.459694,3.355977,0.756852,-0.065930,0.021919,0.076071,0.999849,-0.002298,0.016779,0.003784,0.188295,0.293708,-0.017192,-0.937009,9.799878,32.952211,-154.370266
03194,-7.378530,1.213943,7.493685,1.667582,0.909445,0.601446,-0.587511,3.321116,0.592257,-0.072564,0.012146,0.076113,0.999853,-0.002937,0.016605,0.002961,0.192242,0.308599,-0.012161,-0.931484,9.904904,34.766560,-153.569978
03195,-7.314858,0.204175,7.446963,0.978272,1.718075,0.438548,-0.430909,3.241197,0.536549,-0.071934,0.002010,0.075638,0.999863,-0.002154,0.016205,0.002683,0.195628,0.323184,-0.007845,-0.925862,10.105596,36.539607,-152.794718
03196,-7.806391,0.943121,7.566493,1.202354,1.108350,0.976080,-0.149079,3.121520,0.564187,-0.076897,0.009270,0.076864,0.999874,-0.000745,0.015607,0.002821,0.198630,0.337405,-0.004995,-0.920152,10.507108,38.238998,-151.985884
03197,-8.214270,2.428035,7.795322,1.562148,-0.218033,1.660755,-0.131435,2.971321,0.572725,-0.081042,0.024099,0.079147,0.999885,-0.000657,0.014856,0.002864,0.201590,0.350871,-0.002387,-0.914464,10.949694,39.848217,-151.156906
03198,-8.575445,2.518217,7.913370,1.457947,-0.261045,2.032121,-0.271367,2.751772,0.630033,-0.084734,0.025023,0.080270,0.999899,-0.001357,0.013758,0.003150,0.205013,0.363116,0.000538,-0.908909,11.358599,41.322768,-150.282898
03199,-8.337065,2.440105,7.596258,1.205835,-0.297676,1.659685,-0.281795,2.490430,0.761971,-0.082509,0.024194,0.076959,0.999914,-0.001409,0.012452,0.003810,0.209015,0.374096,0.003004,-0.903524,11.839778,42.630351,-149.315657
03200,-7.840644,2.855199,7.464197,0.898195,-0.888827,1.311209,-0.344857,2.274460,0.937682,-0.077684,0.028316,0.075479,0.999923,-0.001724,0.011372,0.004688,0.213899,0.383976,0.005199,-0.898211,12.392628,43.789172,-148.213422
03201,-7.557305,2.552103,7.155650,0.608250,-0.704695,0.862489,-0.460626,2.157700,1.025749,-0.074926,0.025302,0.072309,0.999926,-0.002303,0.010788,0.005129,0.219372,0.393152,0.007620,-0.892888,12.953821,44.863921,-147.026476
03202,-7.400598,1.613341,6.766783,0.215984,0.119573,0.340973,-0.463730,2.102577,1.033479,-0.073372,0.015911,0.068404,0.999929,-0.002319,0.010513,0.005167,0.224855,0.402021,0.009978,-0.887536,13.552421,45.898137,-145.806278
03203,-7.534829,1.196395,6.649428,0.006293,0.534317,0.293288,-0.285031,2.108862,0.946919,-0.074698,0.011705,0.067267,0.999932,-0.001425,0.010544,0.004734,0.229563,0.411060,0.011722,-0.882153,14.247934,46.938152,-144.614834
03204,-7.713834,1.435300,6.578857,0.049523,0.372449,0.419606,-0.122885,2.084106,0.845397,-0.076507,0.014069,0.066579,0.999937,-0.000614,0.010420,0.004227,0.233461,0.420114,0.012930,-0.876831,15.017421,47.968413,-143.469061
03205,-7.744512,2.211973,6.541540,0.213900,-0.326629,0.555826,0.003571,2.040720,0.837276,-0.076864,0.021796,0.066202,0.999939,0.000018,0.010203,0.004186,0.237032,0.429074,0.013549,-0.871509,15.893941,48.964867,-142.295199
03206,-7.785766,3.113342,6.479675,0.463328,-1.113661,0.715325,-0.015006,1.998856,0.929877,-0.077349,0.030778,0.065569,0.999939,-0.000075,0.009994,0.004649,0.241021,0.437783,0.013998,-0.866059,16.860650,49.910561,-141.005838
03207,-7.825455,3.171249,6.309729,0.442540,-1.114610,0.659469,-0.080574,1.928068,1.101532,-0.077815,0.031309,0.063836,0.999938,-0.000403,0.009640,0.005508,0.245871,0.446066,0.014268,-0.860447,17.940455,50.773169,-139.537801
03208,-7.950005,3.244989,6.180202,0.443860,-1.088756,0.701209,-0.091319,1.888541,1.253105,-0.079113,0.031982,0.062536,0.999936,-0.000457,0.009443,0.006265,0.251369,0.454119,0.014196,-0.854628,19.162621,51.567549,-137.896373
03209,-8.059655,2.973846,6.066906,0.270654,-0.755183,0.673608,-0.050958,1.827499,1.408222,-0.080245,0.029188,0.061396,0.999933,-0.000255,0.009137,0.007041,0.257410,0.461914,0.013521,-0.848642,20.557194,52.275275,-136.082327
03210,-7.908832,3.271111,5.972720,0.217112,-1.009532,0.572564,0.087363,1.778692,1.628046,-0.078816,0.032042,0.060443,0.999927,0.000437,0.008893,0.008140,0.264032,0.469629,0.011687,-0.842377,22.229366,52.880704,-134.034559
03211,-8.010231,3.751614,5.688546,0.503888,-1.235236,0.618723,0.167153,1.766759,1.823429,-0.079933,0.036739,0.057623,0.999919,0.000836,0.008834,0.009117,0.271249,0.477339,0.009040,-0.835757,24.138887,53.396717,-131.762461
03212,-8.097067,4.234191,5.603604,0.628672,-1.505326,0.780996,0.091036,1.802002,1.838837,-0.080846,0.041572,0.056784,0.999917,0.000455,0.009010,0.009194,0.278666,0.485015,0.006721,-0.828891,26.083171,53.881032,-129.407700
03213,-8.146042,3.460368,5.473392,0.185650,-0.715780,0.567069,0.051908,1.818221,1.899390,-0.081282,0.033817,0.055482,0.999914,0.000260,0.009091,0.009497,0.286381,0.492624,0.004438,-0.821759,28.107731,54.309277,-126.939873
03214,-8.532721,3.615645,5.399423,0.236913,-0.552123,0.895611,0.231949,1.773285,2.156441,-0.085227,0.035174,0.054791,0.999902,0.001160,0.008866,0.010782,0.294657,0.500219,0.000717,-0.814222,30.444967,54.587552,-124.225423
03215,-8.551750,4.914614,5.380918,0.649270,-1.474693,1.306523,0.347540,1.709977,2.563141,-0.085672,0.047954,0.054625,0.999880,0.001738,0.008550,0.012815,0.304235,0.507620,-0.004585,-0.806066,33.129424,54.642860,-121.172086
03216,-8.782359,5.547767,5.204511,0.926466,-1.629973,1.653336,0.394903,1.630615,3.016338,-0.088217,0.054045,0.052871,0.999851,0.001974,0.008153,0.015081,0.315434,0.514625,-0.011347,-0.797204,36.098032,54.425834,-117.800146
03217,-8.980929,6.206305,5.300736,0.965994,-1.827389,2.145044,0.365526,1.544412,3.548289,-0.090477,0.060364,0.053816,0.999811,0.001828,0.007722,0.017740,0.328719,0.521036,-0.019494,-0.787455,39.283903,53.878529,-114.123472
03218,-9.810267,6.448169,5.472032,0.860219,-1.284145,3.046316,0.381405,1.353995,4.142766,-0.099035,0.062331,0.055509,0.999761,0.001907,0.006769,0.020712,0.344142,0.526441,-0.029555,-0.776887,42.600537,52.904138,-110.259382
03219,-10.027201,7.185286,5.900602,0.619691,-1.432792,3.771420,0.255738,1.092306,4.524894,-0.101537,0.069489,0.059648,0.999728,0.001279,0.005461,0.022622,0.361165,0.530287,-0.040570,-0.765969,45.709746,51.541862,-106.506582
03220,-10.173201,6.405394,6.212243,-0.294768,-0.407634,3.709077,0.003640,0.761289,4.601870,-0.102932,0.061693,0.062514,0.999728,0.000018,0.003806,0.023007,0.378887,0.532105,-0.051398,-0.755425,48.299762,49.905478,-103.158648
03221,-9.946892,5.056781,6.409549,-1.437592,0.781993,2.950422,-0.124617,0.377398,4.414247,-0.100432,0.048398,0.064254,0.999754,-0.000623,0.001887,0.022069,0.395947,0.532003,-0.061945,-0.745896,50.313950,48.123449,-100.390868
03222,-9.303561,4.175871,6.446256,-2.210383,1.335300,1.971431,-0.029329,0.023016,4.052374,-0.093849,0.039872,0.064467,0.999795,-0.000147,0.000115,0.020260,0.411114,0.530639,-0.072557,-0.737661,51.882086,46.319667,-98.226072
03223,-9.209038,4.344306,6.715211,-2.522079,1.430659,2.034380,0.113641,-0.284694,3.686552,-0.092965,0.041697,0.067044,0.999829,0.000568,-0.001423,0.018432,0.424287,0.528366,-0.083332,-0.730662,53.119044,44.539433,-96.575515
03224,-9.370517,5.113541,6.973290,-2.448432,1.347504,2.627470,0.155406,-0.680002,3.424787,-0.094798,0.049464,0.069451,0.999847,0.000777,-0.003400,0.017123,0.436089,0.524674,-0.094378,-0.725008,54.017639,42.724247,-95.396280
03225,-8.542155,6.308615,6.835567,-1.834352,0.455460,2.673565,-0.002852,-1.059193,3.208666,-0.086779,0.061702,0.067898,0.999857,-0.000014,-0.005296,0.016043,0.447216,0.519209,-0.105083,-0.720679,54.532604,40.872328,-94.614976
03226,-7.733150,6.665755,6.626905,-1.536664,0.091894,2.260756,-0.367250,-1.323206,3.021127,-0.078763,0.065596,0.065630,0.999862,-0.001836,-0.006616,0.015105,0.458347,0.511929,-0.114549,-0.717443,54.641826,39.017261,-94.110518
03227,-6.779501,6.378307,6.180854,-1.336407,0.005790,1.280181,-0.710529,-1.474074,2.810022,-0.069136,0.063036,0.061077,0.999868,-0.003552,-0.007370,0.014049,0.469389,0.503304,-0.122558,-0.715079,54.424969,37.210873,-93.795383
03228,-7.150306,6.562071,6.233108,-1.188888,0.524655,1.647701,-0.934594,-1.549664,2.662744,-0.072849,0.064945,0.061466,0.999870,-0.004673,-0.007748,0.013313,0.480299,0.493840,-0.129539,-0.713200,54.012672,35.449067,-93.580198
03229,-8.083948,6.742754,6.400150,-1.075193,1.498010,2.367792,-1.177455,-1.779862,2.610988,-0.082277,0.066732,0.062879,0.999858,-0.005887,-0.008899,0.013054,0.491343,0.482871,-0.136045,-0.711976,53.378854,33.634682,-93.500573
03230,-8.074065,6.858067,6.494917,-0.941329,1.785136,2.447815,-1.438378,-2.073889,2.527828,-0.082267,0.068008,0.063611,0.999841,-0.007192,-0.010369,0.012638,0.502371,0.470124,-0.142102,-0.711628,52.503091,31.757871,-93.588103
03231,-7.365103,6.281244,6.372608,-1.024255,1.848613,1.581529,-1.754923,-2.357832,2.308645,-0.075114,0.062502,0.062297,0.999825,-0.008774,-0.011788,0.011543,0.512993,0.455569,-0.147182,-0.712483,51.346484,29.878588,-93.874431
