PacketCounter,Acc_X,Acc_Y,Acc_Z,FreeAcc_E,FreeAcc_N,FreeAcc_U,Gyr_X,Gyr_Y,Gyr_Z,VelInc_X,VelInc_Y,VelInc_Z,OriInc_q0,OriInc_q1,OriInc_q2,OriInc_q3,Quat_q0,Quat_q1,Quat_q2,Quat_q3,Roll,Pitch,Yaw
15541,-9.564025,-1.207962,-0.670275,-0.133547,-0.670759,-0.173638,0.069928,0.003538,0.013558,-0.095640,-0.012084,-0.006705,1.000000,0.000350,0.000018,0.000068,0.026110,0.722770,0.167675,-0.669931,-118.389706,77.732825,77.453239
15542,-9.538560,-1.301480,-0.712272,-0.118147,-0.564310,-0.176666,0.026902,0.007913,0.010861,-0.095385,-0.013019,-0.007121,1.000000,0.000135,0.000040,0.000054,0.026091,0.722805,0.167509,-0.669935,-118.412618,77.743099,77.414990
15543,-9.569230,-1.468971,-0.851503,-0.032733,-0.375305,-0.101293,0.002176,0.007026,-0.005897,-0.095693,-0.014687,-0.008512,1.000000,0.000011,0.000035,-0.000029,0.026094,0.722817,0.167489,-0.669927,-118.421991,77.744315,77.404147
15544,-9.535521,-1.494387,-0.791686,-0.095904,-0.360235,-0.135541,0.002376,0.007981,-0.019555,-0.095357,-0.014934,-0.007913,1.000000,0.000012,0.000040,-0.000098,0.026060,0.722824,0.167514,-0.669914,-118.420778,77.739278,77.404651
15545,-9.524352,-1.488317,-0.903668,0.013607,-0.335556,-0.136314,-0.011025,0.009968,-0.024940,-0.095246,-0.014872,-0.009031,1.000000,-0.000055,0.000050,-0.000125,0.026044,0.722828,0.167607,-0.669887,-118.420641,77.730096,77.411281
15546,-9.539373,-1.493538,-1.035376,0.137384,-0.300573,-0.107376,-0.026772,0.008956,-0.026932,-0.095396,-0.014924,-0.010347,1.000000,-0.000134,0.000045,-0.000135,0.026090,0.722829,0.167755,-0.669848,-118.429041,77.721096,77.418962
15547,-9.481774,-1.494106,-1.175881,0.274299,-0.252817,-0.149358,-0.037388,0.007566,-0.029591,-0.094820,-0.014929,-0.011752,1.000000,-0.000187,0.000038,-0.000148,0.026156,0.722817,0.167953,-0.669808,-118.432627,77.710226,77.437241
15548,-9.442642,-1.703034,-1.172777,0.214441,-0.050315,-0.148801,-0.040289,0.009292,-0.033402,-0.094430,-0.017017,-0.011720,1.000000,-0.000201,0.000046,-0.000167,0.026226,0.722812,0.168168,-0.669757,-118.441471,77.697921,77.452125
15549,-9.443571,-1.884370,-1.284167,0.270420,0.147824,-0.102590,-0.040087,0.002423,-0.030191,-0.094439,-0.018832,-0.012837,1.000000,-0.000200,0.000012,-0.000151,0.026305,0.722782,0.168376,-0.669734,-118.434004,77.688153,77.483302
15550,-9.443513,-1.992116,-1.346279,0.300197,0.264429,-0.076113,-0.021853,-0.004949,-0.028781,-0.094438,-0.019909,-0.013463,1.000000,-0.000109,-0.000025,-0.000144,0.026339,0.722735,0.168514,-0.669749,-118.405503,77.682036,77.526060
15551,-9.449219,-2.015670,-1.203136,0.157237,0.246559,-0.080643,0.021728,-0.003804,-0.019879,-0.094494,-0.020146,-0.012035,1.000000,0.000109,-0.000019,-0.000099,0.026233,0.722702,0.168477,-0.669798,-118.361180,77.679155,77.558710
15552,-9.410256,-2.086633,-1.123050,0.063950,0.300018,-0.113508,0.052274,-0.001350,-0.011648,-0.094104,-0.020858,-0.011237,1.000000,0.000261,-0.000007,-0.000058,0.026053,0.722691,0.168304,-0.669860,-118.319794,77.680654,77.570964
15553,-9.434825,-2.057789,-1.105600,0.056102,0.263088,-0.096700,0.085323,0.000103,-0.004288,-0.094349,-0.020571,-0.011065,1.000000,0.000427,0.000001,-0.000021,0.025766,0.722692,0.167998,-0.669947,-118.267467,77.684567,77.574511
15554,-9.405083,-1.859211,-0.952099,-0.032791,0.042548,-0.178589,0.105326,0.002876,0.002412,-0.094051,-0.018588,-0.009529,1.000000,0.000527,0.000014,0.000012,0.025438,0.722713,0.167598,-0.670037,-118.222925,77.691961,77.559054
15555,-9.530280,-1.749486,-0.906236,-0.050282,-0.098081,-0.081497,0.105431,0.001744,0.004248,-0.095303,-0.017492,-0.009071,1.000000,0.000527,0.000009,0.000021,0.025106,0.722729,0.167195,-0.670133,-118.173440,77.699739,77.547900
15556,-9.558721,-1.633366,-0.872110,-0.050548,-0.221333,-0.078928,0.092081,-0.001952,0.000294,-0.095587,-0.016330,-0.008730,1.000000,0.000460,-0.000010,0.000001,0.024823,0.722731,0.166846,-0.670229,-118.122741,77.707415,77.546485
15557,-9.523358,-1.518860,-0.923462,0.033558,-0.307765,-0.129804,0.058467,-0.003693,0.001878,-0.095233,-0.015187,-0.009241,1.000000,0.000292,-0.000018,0.000009,0.024658,0.722720,0.166607,-0.670306,-118.084568,77.715467,77.551293
15558,-9.461573,-1.659684,-0.893935,-0.029319,-0.168295,-0.166659,0.049766,-0.003542,0.006574,-0.094615,-0.016598,-0.008945,1.000000,0.000249,-0.000018,0.000033,0.024550,0.722716,0.166378,-0.670371,-118.062115,77.726740,77.545856
15559,-9.460094,-1.755603,-0.931602,-0.018134,-0.066311,-0.146319,0.047107,-0.001336,0.005656,-0.094600,-0.017557,-0.009321,1.000000,0.000236,-0.000007,0.000028,0.024436,0.722715,0.166164,-0.670429,-118.040571,77.736066,77.540308
15560,-9.484262,-1.895052,-1.001814,0.010989,0.079683,-0.089539,0.058567,0.005385,0.002681,-0.094843,-0.018949,-0.010021,1.000000,0.000293,0.000027,0.000013,0.024275,0.722739,0.165919,-0.670470,-118.028905,77.742977,77.518475
15561,-9.487410,-1.840999,-0.997526,0.022539,0.027842,-0.097030,0.084662,0.004564,0.005203,-0.094874,-0.018408,-0.009981,1.000000,0.000423,0.000023,0.000026,0.024020,0.722762,0.165581,-0.670538,-117.999003,77.750487,77.499460
15562,-9.463847,-1.807466,-0.986538,0.023248,-0.000334,-0.127438,0.090342,0.006904,0.011465,-0.094638,-0.018076,-0.009870,1.000000,0.000452,0.000035,0.000057,0.023772,0.722802,0.165198,-0.670598,-117.983546,77.761434,77.462914
15563,-9.496943,-1.677806,-0.985738,0.056897,-0.128530,-0.119448,0.092754,0.011615,0.009193,-0.094969,-0.016778,-0.009860,1.000000,0.000464,0.000058,0.000046,0.023494,0.722852,0.164820,-0.670647,-117.970413,77.769070,77.421999
15564,-9.477941,-1.631749,-1.007173,0.091386,-0.161475,-0.144495,0.082045,0.008523,0.005437,-0.094779,-0.016316,-0.010074,1.000000,0.000410,0.000043,0.000027,0.023256,0.722891,0.164487,-0.670695,-117.956060,77.776512,77.389231
15565,-9.529475,-1.580478,-0.997636,0.094269,-0.221864,-0.104651,0.060294,0.005396,0.009024,-0.095294,-0.015806,-0.009979,1.000000,0.000301,0.000027,0.000045,0.023100,0.722917,0.164218,-0.670739,-117.946820,77.785736,77.363363
15566,-9.529582,-1.580188,-0.997071,0.094316,-0.220662,-0.104624,0.045946,0.000371,0.008177,-0.095295,-0.015803,-0.009974,1.000000,0.000230,0.000002,0.000041,0.023009,0.722926,0.163996,-0.670786,-117.937614,77.796745,77.346751
15567,-9.483904,-1.692552,-1.084725,0.151627,-0.081219,-0.119586,0.030317,-0.006414,0.007571,-0.094838,-0.016927,-0.010853,1.000000,0.000152,-0.000032,0.000038,0.022966,0.722907,0.163831,-0.670848,-117.916114,77.808406,77.351001
15568,-9.450146,-1.747710,-1.035527,0.092130,-0.032591,-0.147155,0.038280,-0.005605,0.010046,-0.094500,-0.017480,-0.010361,1.000000,0.000191,-0.000028,0.000050,0.022911,0.722897,0.163626,-0.670911,-117.899388,77.821976,77.346113
15569,-9.445758,-1.759612,-1.002503,0.058524,-0.026822,-0.152488,0.039699,-0.005015,0.011612,-0.094456,-0.017600,-0.010031,1.000000,0.000198,-0.000025,0.000058,0.022847,0.722887,0.163415,-0.670975,-117.880776,77.835308,77.341910
15570,-9.474341,-1.779973,-1.042946,0.091691,-0.000973,-0.116772,0.035899,-0.005742,0.012736,-0.094742,-0.017804,-0.010435,1.000000,0.000179,-0.000029,0.000064,0.022812,0.722879,0.163209,-0.671035,-117.868562,77.850249,77.334159
15571,-9.506437,-1.575716,-0.994642,0.099278,-0.210948,-0.128154,0.027693,-0.007053,0.007366,-0.095063,-0.015759,-0.009952,1.000000,0.000138,-0.000035,0.000037,0.022779,0.722857,0.163054,-0.671098,-117.846722,77.861976,77.340295
15572,-9.564782,-1.510995,-0.828692,-0.044751,-0.323694,-0.099392,0.025391,-0.012890,0.011484,-0.095646,-0.015114,-0.008295,1.000000,0.000127,-0.000064,0.000057,0.022781,0.722823,0.162884,-0.671176,-117.822089,77.878289,77.350882
15573,-9.500094,-1.439079,-0.864944,0.013584,-0.367555,-0.172377,0.001190,-0.010137,-0.000273,-0.095001,-0.014391,-0.008654,1.000000,0.000006,-0.000051,-0.000001,0.022820,0.722781,0.162844,-0.671229,-117.798586,77.886968,77.374249
15574,-9.543349,-1.487117,-0.839126,-0.025137,-0.336435,-0.123655,-0.004576,-0.006784,-0.007954,-0.095434,-0.014868,-0.008394,1.000000,-0.000023,-0.000034,-0.000040,0.022863,0.722748,0.162850,-0.671262,-117.781326,77.891725,77.395470
15575,-9.522696,-1.538289,-0.898766,0.020496,-0.268586,-0.128510,-0.003665,-0.004373,-0.012912,-0.095228,-0.015377,-0.008989,1.000000,-0.000018,-0.000022,-0.000065,0.022873,0.722715,0.162873,-0.671292,-117.758450,77.892454,77.421039
15576,-9.529828,-1.643000,-1.012636,0.102799,-0.142200,-0.090974,-0.002445,-0.007142,-0.013532,-0.095299,-0.016424,-0.010130,1.000000,-0.000012,-0.000036,-0.000068,0.022889,0.722676,0.162890,-0.671329,-117.732055,77.894517,77.450037
15577,-9.480223,-1.705677,-1.043353,0.118983,-0.065365,-0.124854,0.014118,-0.000773,-0.017165,-0.094804,-0.017048,-0.010435,1.000000,0.000071,-0.000004,-0.000086,0.022817,0.722654,0.162869,-0.671360,-117.702215,77.892125,77.472307
15578,-9.456852,-1.779920,-1.093113,0.149433,0.021881,-0.129080,0.007584,-0.011209,-0.017008,-0.094569,-0.017791,-0.010937,1.000000,0.000038,-0.000056,-0.000085,0.022789,0.722599,0.162865,-0.671421,-117.656304,77.893510,77.515559
15579,-9.449937,-1.784129,-1.038067,0.097103,0.013182,-0.140438,0.015713,-0.004197,-0.013074,-0.094500,-0.017834,-0.010384,1.000000,0.000079,-0.000021,-0.000065,0.022728,0.722569,0.162823,-0.671465,-117.622533,77.894098,77.540916
15580,-9.513486,-1.783221,-0.951990,0.012924,-0.022482,-0.086851,0.041390,-0.004294,-0.015223,-0.095136,-0.017823,-0.009526,1.000000,0.000207,-0.000021,-0.000076,0.022579,0.722543,0.162701,-0.671528,-117.575862,77.894529,77.565242
15581,-9.521604,-1.685701,-0.967299,0.054591,-0.112757,-0.095563,0.018557,-0.003022,-0.009949,-0.095217,-0.016851,-0.009676,1.000000,0.000093,-0.000015,-0.000050,0.022517,0.722520,0.162639,-0.671570,-117.547098,77.896385,77.583811
15582,-9.506452,-1.650127,-0.823443,-0.072768,-0.179128,-0.130941,0.017168,-0.006450,-0.010788,-0.095065,-0.016495,-0.008239,1.000000,0.000086,-0.000032,-0.000054,0.022470,0.722488,0.162579,-0.671621,-117.514552,77.899667,77.607536
15583,-9.511530,-1.606627,-0.841929,-0.042483,-0.216527,-0.132263,-0.002208,-0.006636,-0.010625,-0.095116,-0.016061,-0.008422,1.000000,-0.000011,-0.000033,-0.000053,0.022484,0.722449,0.162589,-0.671659,-117.488268,77.902132,77.635736
15584,-9.510820,-1.640107,-0.853978,-0.038754,-0.181644,-0.125560,-0.002827,-0.006486,-0.018232,-0.095109,-0.016393,-0.008543,1.000000,-0.000014,-0.000032,-0.000091,0.022483,0.722409,0.162622,-0.671695,-117.457737,77.901630,77.668885
15585,-9.490574,-1.659619,-0.900991,0.003205,-0.147476,-0.137185,-0.014001,-0.005346,-0.012697,-0.094907,-0.016591,-0.009011,1.000000,-0.000070,-0.000027,-0.000063,0.022532,0.722372,0.162679,-0.671719,-117.438702,77.902695,77.696582
15586,-9.503929,-1.655639,-1.008536,0.108277,-0.126824,-0.114484,-0.018302,-0.014465,-0.017022,-0.095040,-0.016549,-0.010091,1.000000,-0.000092,-0.000072,-0.000085,0.022598,0.722304,0.162760,-0.671771,-117.399509,77.904849,77.747907
15587,-9.472261,-1.690173,-0.969466,0.063947,-0.097646,-0.142803,-0.015467,-0.003083,-0.014973,-0.094724,-0.016895,-0.009695,1.000000,-0.000077,-0.000015,-0.000075,0.022642,0.722272,0.162831,-0.671786,-117.383876,77.904154,77.772984
15588,-9.496191,-1.693365,-0.966190,0.059673,-0.100652,-0.119135,-0.005681,-0.007646,-0.021347,-0.094963,-0.016924,-0.009665,1.000000,-0.000028,-0.000038,-0.000107,0.022643,0.722225,0.162886,-0.671824,-117.348435,77.902325,77.813102
15589,-9.517485,-1.719019,-0.953102,0.040467,-0.084627,-0.094810,-0.007949,-0.006122,-0.017578,-0.095176,-0.017182,-0.009533,1.000000,-0.000040,-0.000031,-0.000088,0.022654,0.722182,0.162940,-0.671856,-117.318091,77.901098,77.848819
15590,-9.466274,-1.739592,-0.948925,0.034119,-0.055803,-0.141457,-0.003777,-0.006042,-0.013989,-0.094664,-0.017389,-0.009492,1.000000,-0.000019,-0.000030,-0.000070,0.022674,0.722146,0.162964,-0.671889,-117.294538,77.902618,77.875882
15591,-9.476445,-1.789858,-1.059920,0.127928,0.017574,-0.111483,-0.003473,-0.001015,-0.010722,-0.094765,-0.017894,-0.010599,1.000000,-0.000017,-0.000005,-0.000054,0.022687,0.722126,0.162979,-0.671906,-117.282168,77.903535,77.890594
15592,-9.460607,-1.786545,-0.929300,0.004240,-0.015167,-0.140139,0.014340,-0.000235,-0.014260,-0.094607,-0.017858,-0.009294,1.000000,0.000072,-0.000001,-0.000071,0.022634,0.722111,0.162942,-0.671932,-117.261554,77.903358,77.903803
15593,-9.540851,-1.725737,-0.949041,0.036598,-0.084356,-0.071115,0.004250,-0.000702,-0.011151,-0.095409,-0.017252,-0.009491,1.000000,0.000021,-0.000004,-0.000056,0.022618,0.722093,0.162933,-0.671954,-117.244973,77.903973,77.918296
15594,-9.509723,-1.727751,-0.897806,-0.011535,-0.088690,-0.106091,-0.004657,-0.001093,-0.009382,-0.095098,-0.017273,-0.008978,1.000000,-0.000023,-0.000005,-0.000047,0.022652,0.722077,0.162945,-0.671967,-117.239399,77.906524,77.927629
15595,-9.507537,-1.718757,-0.875198,-0.030086,-0.102144,-0.112068,0.000537,-0.007130,-0.008591,-0.095076,-0.017183,-0.008755,1.000000,0.000003,-0.000036,-0.000043,0.022664,0.722039,0.162938,-0.672010,-117.212784,77.910127,77.954559
15596,-9.489968,-1.715595,-0.931990,0.026807,-0.087011,-0.124392,0.010608,0.003548,-0.012770,-0.094901,-0.017149,-0.009319,1.000000,0.000053,0.000018,-0.000064,0.022624,0.722038,0.162907,-0.672019,-117.205004,77.909731,77.956580
15597,-9.491436,-1.620886,-0.893924,0.015966,-0.187048,-0.144260,0.023000,-0.000341,-0.018922,-0.094916,-0.016199,-0.008941,1.000000,0.000115,-0.000002,-0.000095,0.022514,0.722017,0.162863,-0.672056,-117.169035,77.906287,77.979913
15598,-9.497004,-1.546193,-0.900404,0.042459,-0.257947,-0.152140,0.026949,0.006601,-0.018582,-0.094972,-0.015452,-0.009003,1.000000,0.000135,0.000033,-0.000093,0.022396,0.722024,0.162800,-0.672069,-117.152196,77.902142,77.981902
15599,-9.523475,-1.527717,-0.907180,0.053364,-0.280318,-0.129090,0.026603,0.004423,-0.022563,-0.095237,-0.015265,-0.009072,1.000000,0.000133,0.000022,-0.000113,0.022256,0.722016,0.162757,-0.672092,-117.121087,77.895593,77.998155
15600,-9.522453,-1.562350,-0.919937,0.057091,-0.245422,-0.122442,0.010774,0.004450,-0.026410,-0.095227,-0.015610,-0.009198,1.000000,0.000054,0.000022,-0.000132,0.022173,0.722006,0.162779,-0.672100,-117.098997,77.888013,78.015310
15601,-9.495957,-1.659763,-0.961080,0.072608,-0.139166,-0.126251,-0.002305,0.003971,-0.028229,-0.094962,-0.016584,-0.009609,1.000000,-0.000012,0.000020,-0.000141,0.022120,0.721989,0.162854,-0.672102,-117.076537,77.878688,78.039658
15602,-9.493555,-1.758942,-0.999288,0.083685,-0.036890,-0.106417,0.003988,0.003710,-0.030211,-0.094938,-0.017575,-0.009991,1.000000,0.000020,0.000019,-0.000151,0.022046,0.721974,0.162909,-0.672107,-117.051753,77.869366,78.062997
15603,-9.464941,-1.846369,-1.017996,0.080475,0.054886,-0.116244,0.009869,0.002045,-0.021448,-0.094651,-0.018453,-0.010180,1.000000,0.000049,0.000010,-0.000107,0.021973,0.721957,0.162918,-0.672126,-117.026033,77.863999,78.083546
15604,-9.474506,-1.887501,-0.919359,-0.025139,0.066120,-0.108609,0.033127,0.004698,-0.021637,-0.094747,-0.018863,-0.009194,1.000000,0.000166,0.000023,-0.000108,0.021823,0.721955,0.162844,-0.672150,-116.997530,77.858816,78.093706
15605,-9.449268,-1.920045,-0.934918,-0.016966,0.104993,-0.125686,0.034989,0.009149,-0.015005,-0.094495,-0.019192,-0.009348,1.000000,0.000175,0.000046,-0.000075,0.021675,0.721971,0.162747,-0.672162,-116.982100,77.854888,78.089009
15606,-9.504705,-1.890230,-0.970796,0.023282,0.073950,-0.073651,0.041862,0.011587,-0.010105,-0.095049,-0.018895,-0.009706,1.000000,0.000209,0.000058,-0.000051,0.021526,0.722002,0.162603,-0.672168,-116.978810,77.853780,78.068363
15607,-9.496323,-1.851909,-0.881940,-0.051448,0.017039,-0.097514,0.045973,0.007163,-0.006874,-0.094964,-0.018514,-0.008820,1.000000,0.000230,0.000036,-0.000034,0.021368,0.722018,0.162439,-0.672195,-116.962196,77.854519,78.058439
15608,-9.462026,-1.812215,-0.983205,0.058608,0.012371,-0.128826,0.032288,0.001916,-0.000127,-0.094620,-0.018121,-0.009834,1.000000,0.000161,0.000010,-0.000001,0.021294,0.722024,0.162290,-0.672227,-116.953293,77.860978,78.048877
15609,-9.446583,-1.711792,-1.002314,0.104601,-0.073784,-0.160931,0.032626,0.004106,0.003857,-0.094466,-0.017118,-0.010024,1.000000,0.000163,0.000021,0.000019,0.021222,0.722037,0.162132,-0.672254,-116.950032,77.867994,78.033118
15610,-9.510243,-1.603137,-0.857316,-0.009288,-0.224848,-0.132857,0.019029,0.005429,-0.004487,-0.095103,-0.016028,-0.008572,1.000000,0.000095,0.000027,-0.000022,0.021180,0.722050,0.162046,-0.672262,-116.952020,77.871310,78.020624
15611,-9.512157,-1.507012,-0.819815,-0.020126,-0.324919,-0.152545,0.003786,0.000751,-0.001114,-0.095122,-0.015069,-0.008198,1.000000,0.000019,0.000004,-0.000006,0.021199,0.722045,0.162002,-0.672278,-116.951312,77.876658,78.019155
15612,-9.489284,-1.547473,-0.858118,0.006651,-0.271393,-0.163653,-0.024600,0.008619,-0.001386,-0.094893,-0.015475,-0.008575,1.000000,-0.000123,0.000043,-0.000007,0.021326,0.722066,0.162055,-0.672239,-116.989873,77.880737,77.995387
15613,-9.493894,-1.641849,-0.950779,0.070354,-0.159519,-0.132642,-0.030593,0.001233,-0.010874,-0.094940,-0.016415,-0.009505,1.000000,-0.000153,0.000006,-0.000054,0.021435,0.722050,0.162162,-0.672226,-116.998210,77.880976,78.004814
15614,-9.490971,-1.664960,-0.941922,0.055357,-0.139107,-0.132015,-0.013828,0.008181,-0.011600,-0.094911,-0.016645,-0.009414,1.000000,-0.000069,0.000041,-0.000058,0.021488,0.722063,0.162214,-0.672198,-117.017030,77.879953,77.994603
15615,-9.490686,-1.666054,-0.942865,0.055535,-0.138089,-0.132001,-0.007536,0.007926,-0.013577,-0.094908,-0.016654,-0.009424,1.000000,-0.000038,0.000040,-0.000068,0.021500,0.722070,0.162254,-0.672180,-117.024789,77.877071,77.991110
15616,-9.519260,-1.656750,-0.972589,0.085057,-0.145730,-0.102971,0.006472,0.008005,-0.015974,-0.095194,-0.016560,-0.009723,1.000000,0.000032,0.000040,-0.000080,0.021463,0.722081,0.162251,-0.672170,-117.026204,77.873898,77.986481
15617,-9.465830,-1.667387,-0.947295,0.060092,-0.131735,-0.155642,0.010355,0.010435,-0.016001,-0.094660,-0.016666,-0.009469,1.000000,0.000052,0.000052,-0.000080,0.021400,0.722097,0.162240,-0.672158,-117.026729,77.869126,77.979902
15618,-9.494296,-1.658618,-0.977158,0.089612,-0.139374,-0.126612,0.007220,0.011596,-0.022733,-0.094945,-0.016575,-0.009767,1.000000,0.000036,0.000058,-0.000114,0.021336,0.722114,0.162261,-0.672136,-117.028137,77.861552,77.975155
15619,-9.522701,-1.650216,-1.007011,0.119255,-0.147195,-0.097584,0.001911,0.008580,-0.024262,-0.095229,-0.016491,-0.010066,1.000000,0.000010,0.000043,-0.000121,0.021277,0.722116,0.162308,-0.672125,-117.019099,77.853047,77.983306
15620,-9.513516,-1.645151,-0.931156,0.048083,-0.170258,-0.114787,0.001759,0.002384,-0.025709,-0.095137,-0.016439,-0.009311,1.000000,0.000009,0.000012,-0.000129,0.021226,0.722100,0.162352,-0.672133,-116.997881,77.846357,78.004045
15621,-9.487501,-1.709911,-0.959466,0.059923,-0.097713,-0.125381,-0.008078,0.002391,-0.019725,-0.094877,-0.017090,-0.009593,1.000000,-0.000040,0.000012,-0.000099,0.021223,0.722084,0.162416,-0.672135,-116.985406,77.841776,78.021567
15622,-9.432620,-1.784971,-0.958830,0.042174,-0.016155,-0.165005,-0.006754,0.001306,-0.019251,-0.094328,-0.017841,-0.009587,1.000000,-0.000034,0.000007,-0.000096,0.021231,0.722068,0.162472,-0.672139,-116.974688,77.838639,78.037562
15623,-9.479178,-1.854285,-0.978388,0.041058,0.044046,-0.104607,0.001300,0.003830,-0.015689,-0.094793,-0.018535,-0.009782,1.000000,0.000006,0.000019,-0.000078,0.021207,0.722061,0.162489,-0.672143,-116.965134,77.835744,78.046599
15624,-9.479592,-1.823719,-0.965958,0.037445,0.011550,-0.111133,0.005034,0.000064,-0.017164,-0.094797,-0.018229,-0.009660,1.000000,0.000025,0.000000,-0.000086,0.021177,0.722044,0.162494,-0.672161,-116.947133,77.834017,78.062662
15625,-9.477335,-1.815218,-0.943699,0.018896,-0.001928,-0.117064,0.008122,0.001751,-0.011154,-0.094774,-0.018147,-0.009437,1.000000,0.000041,0.000009,-0.000056,0.021145,0.722034,0.162472,-0.672177,-116.934213,77.833977,78.071144
15626,-9.508749,-1.783569,-0.982219,0.063479,-0.028749,-0.088629,0.010531,-0.000928,-0.013102,-0.095089,-0.017829,-0.009824,1.000000,0.000053,-0.000005,-0.000066,0.021111,0.722017,0.162446,-0.672203,-116.915551,77.834554,78.084823
15627,-9.454958,-1.719468,-0.908816,0.012437,-0.096729,-0.160266,0.013425,0.004775,-0.009622,-0.094551,-0.017190,-0.009087,1.000000,0.000067,0.000024,-0.000048,0.021063,0.722020,0.162401,-0.672213,-116.908603,77.834512,78.084088
15628,-9.458234,-1.666202,-0.906059,0.023882,-0.148452,-0.167338,0.023645,0.004117,-0.010899,-0.094583,-0.016656,-0.009061,1.000000,0.000118,0.000021,-0.000054,0.020986,0.722023,0.162323,-0.672230,-116.897060,77.834892,78.082890
15629,-9.481408,-1.701276,-0.916035,0.023415,-0.117824,-0.137145,0.008119,0.009122,-0.011511,-0.094815,-0.017007,-0.009157,1.000000,0.000041,0.000046,-0.000058,0.020947,0.722038,0.162303,-0.672220,-116.901185,77.832757,78.073938
15630,-9.489343,-1.635888,-0.945659,0.068645,-0.174244,-0.138859,0.009105,0.005854,-0.015015,-0.094895,-0.016351,-0.009455,1.000000,0.000046,0.000029,-0.000075,0.020904,0.722043,0.162287,-0.672221,-116.897136,77.830643,78.073194
15631,-9.506515,-1.641520,-0.889053,0.011997,-0.187112,-0.126425,-0.000032,0.004918,-0.016157,-0.095067,-0.016408,-0.008888,1.000000,-0.000000,0.000025,-0.000081,0.020882,0.722039,0.162310,-0.672220,-116.890385,77.827224,78.080145
15632,-9.530377,-1.644790,-0.886657,0.007743,-0.189994,-0.102722,-0.003962,0.005331,-0.016853,-0.095305,-0.016440,-0.008864,1.000000,-0.000020,0.000027,-0.000084,0.020884,0.722038,0.162347,-0.672211,-116.890384,77.824280,78.083306
15633,-9.455188,-1.737607,-0.933560,0.031879,-0.075579,-0.154288,-0.010350,0.003899,-0.015965,-0.094553,-0.017369,-0.009333,1.000000,-0.000052,0.000019,-0.000080,0.020901,0.722030,0.162405,-0.672206,-116.887369,77.821224,78.092484
15634,-9.448553,-1.815749,-0.927342,0.005501,-0.002244,-0.146663,-0.007894,0.005746,-0.017547,-0.094487,-0.018150,-0.009270,1.000000,-0.000039,0.000029,-0.000088,0.020911,0.722030,0.162455,-0.672193,-116.889642,77.817819,78.095233
15635,-9.471535,-1.851323,-0.937776,0.005035,0.028407,-0.116505,0.012784,0.012317,-0.017564,-0.094718,-0.018504,-0.009373,1.000000,0.000064,0.000062,-0.000088,0.020832,0.722052,0.162441,-0.672176,-116.891378,77.811763,78.085989
15636,-9.537824,-1.828304,-0.862968,-0.064031,-0.026130,-0.063190,0.023588,0.006986,-0.011609,-0.095380,-0.018276,-0.008629,1.000000,0.000118,0.000035,-0.000058,0.020750,0.722064,0.162366,-0.672183,-116.885854,77.811086,78.078648
15637,-9.465063,-1.823958,-0.872361,-0.050911,-0.012882,-0.134232,0.006183,0.012824,-0.003775,-0.094652,-0.018238,-0.008718,1.000000,0.000031,0.000064,-0.000019,0.020741,0.722097,0.162325,-0.672157,-116.909114,77.811945,78.051254
15638,-9.453256,-1.849828,-0.997416,0.062166,0.045718,-0.128948,-0.009052,0.015477,-0.000781,-0.094533,-0.018498,-0.009966,1.000000,-0.000045,0.000077,-0.000004,0.020803,0.722144,0.162319,-0.672107,-116.955119,77.814589,78.009786
15639,-9.453923,-1.817652,-0.986250,0.058674,0.013019,-0.135416,-0.005168,0.010544,-0.000445,-0.094540,-0.018177,-0.009857,1.000000,-0.000026,0.000053,-0.000002,0.020848,0.722171,0.162304,-0.672080,-116.983513,77.817733,77.983794
15640,-9.482406,-1.732654,-0.968987,0.062138,-0.076493,-0.125204,-0.016614,0.006587,0.001798,-0.094824,-0.017328,-0.009685,1.000000,-0.000083,0.000033,0.000009,0.020957,0.722189,0.162316,-0.672055,-117.016145,77.823964,77.961055
15641,-9.484403,-1.741815,-0.992106,0.081044,-0.060965,-0.119298,-0.019770,0.005669,0.010499,-0.094843,-0.017424,-0.009917,1.000000,-0.000099,0.000028,0.000052,0.021096,0.722207,0.162310,-0.672032,-117.054629,77.833957,77.933300
15642,-9.485372,-1.708398,-0.980189,0.077432,-0.093486,-0.125740,0.002482,0.004291,0.014212,-0.094853,-0.017091,-0.009800,1.000000,0.000012,0.000021,0.000071,0.021181,0.722229,0.162216,-0.672029,-117.086050,77.847080,77.901031
15643,-9.464173,-1.682805,-0.993350,0.096980,-0.107619,-0.149967,-0.007404,0.007128,0.019463,-0.094640,-0.016838,-0.009930,1.000000,-0.000037,0.000036,0.000097,0.021304,0.722260,0.162136,-0.672010,-117.131900,77.861257,77.858497
15644,-9.440210,-1.679329,-0.997134,0.101362,-0.102367,-0.173640,-0.012903,0.008122,0.015402,-0.094401,-0.016801,-0.009966,1.000000,-0.000065,0.000041,0.000077,0.021439,0.722295,0.162082,-0.671982,-117.182458,77.874015,77.814389
15645,-9.514819,-1.693127,-1.011755,0.107334,-0.098999,-0.096681,0.000907,0.012245,0.010493,-0.095148,-0.016936,-0.010112,1.000000,0.000005,0.000061,0.000052,0.021497,0.722338,0.162007,-0.671952,-117.224941,77.882266,77.770431
15646,-9.562100,-1.653668,-0.971877,0.076376,-0.154125,-0.061619,0.009712,0.003626,0.008020,-0.095621,-0.016540,-0.009718,1.000000,0.000049,0.000018,0.000040,0.021533,0.722353,0.161907,-0.671959,-117.243308,77.892441,77.746648
15647,-9.504514,-1.673987,-0.913922,0.017605,-0.135613,-0.119670,-0.005522,-0.001084,0.011369,-0.095044,-0.016746,-0.009139,1.000000,-0.000028,-0.000005,0.000057,0.021629,0.722351,0.161849,-0.671972,-117.258987,77.904627,77.733874
15648,-9.456325,-1.669424,-0.919952,0.026289,-0.126318,-0.167029,-0.009407,0.003855,0.011036,-0.094563,-0.016700,-0.009197,1.000000,-0.000047,0.000019,0.000055,0.021742,0.722368,0.161801,-0.671962,-117.292579,77.916282,77.705519
15649,-9.500902,-1.651779,-0.870877,-0.019609,-0.162417,-0.131408,-0.015659,0.016001,0.013017,-0.095009,-0.016525,-0.008700,1.000000,-0.000078,0.000080,0.000065,0.021866,0.722423,0.161773,-0.671905,-117.356826,77.924810,77.649019
15650,-9.527102,-1.662275,-0.891589,-0.005129,-0.150735,-0.101817,-0.021344,0.006269,0.007137,-0.095271,-0.016627,-0.008911,1.000000,-0.000107,0.000031,0.000036,0.022009,0.722444,0.161781,-0.671876,-117.398417,77.933836,77.619667
15651,-9.483489,-1.645549,-0.930144,0.037454,-0.146334,-0.143833,-0.021201,0.005101,0.008945,-0.094834,-0.016461,-0.009297,1.000000,-0.000106,0.000026,0.000045,0.022148,0.722458,0.161785,-0.671855,-117.435016,77.943150,77.594690
15652,-9.467957,-1.650343,-1.010116,0.113076,-0.116763,-0.150402,-0.042274,-0.000784,0.004253,-0.094679,-0.016508,-0.010098,1.000000,-0.000211,-0.000004,0.000021,0.022358,0.722451,0.161869,-0.671836,-117.467956,77.952535,77.585809
15653,-9.501610,-1.626179,-1.071619,0.176516,-0.129163,-0.116009,-0.043079,-0.001526,0.010293,-0.095015,-0.016269,-0.010713,1.000000,-0.000215,-0.000008,0.000051,0.022586,0.722442,0.161941,-0.671820,-117.503065,77.964280,77.575174
15654,-9.510023,-1.653889,-0.951145,0.052187,-0.132426,-0.114218,-0.029020,-0.004280,0.008631,-0.095099,-0.016544,-0.009511,1.000000,-0.000145,-0.000021,0.000043,0.022768,0.722428,0.161965,-0.671824,-117.525787,77.976854,77.569239
15655,-9.516081,-1.682212,-1.018068,0.108549,-0.087849,-0.096587,-0.043040,-0.004360,0.011022,-0.095160,-0.016830,-0.010179,1.000000,-0.000215,-0.000022,0.000055,0.023000,0.722410,0.162034,-0.671819,-117.555092,77.989719,77.564516
15656,-9.437556,-1.752498,-1.020111,0.095097,-0.002425,-0.160211,-0.030400,-0.007706,0.007797,-0.094374,-0.017530,-0.010202,1.000000,-0.000152,-0.000039,0.000039,0.023187,0.722383,0.162065,-0.671834,-117.569281,78.002751,77.568045
15657,-9.461205,-1.785271,-1.029608,0.094636,0.028301,-0.130130,-0.006905,-0.004521,0.010533,-0.094611,-0.017858,-0.010298,1.000000,-0.000035,-0.000023,0.000053,0.023287,0.722368,0.162015,-0.671858,-117.576932,78.015409,77.564294
15658,-9.480961,-1.798263,-0.994579,0.056606,0.030179,-0.111788,-0.000272,-0.002594,0.012541,-0.094808,-0.017989,-0.009947,1.000000,-0.000001,-0.000013,0.000063,0.023377,0.722366,0.161928,-0.671878,-117.592225,78.029511,77.549099
15659,-9.508863,-1.744505,-0.988144,0.063861,-0.025758,-0.095000,0.017727,-0.005781,0.011562,-0.095087,-0.017450,-0.009886,1.000000,0.000089,-0.000029,0.000058,0.023393,0.722351,0.161791,-0.671927,-117.584055,78.043026,77.547093
15660,-9.481015,-1.722068,-0.945828,0.030765,-0.049581,-0.130417,0.017917,-0.002427,0.013740,-0.094809,-0.017226,-0.009461,1.000000,0.000090,-0.000012,0.000069,0.023425,0.722351,0.161644,-0.671961,-117.591139,78.057679,77.530417
15661,-9.487481,-1.644164,-0.951546,0.057385,-0.120718,-0.137815,0.020663,-0.010299,0.016121,-0.094873,-0.016448,-0.009522,1.000000,0.000103,-0.000051,0.000081,0.023450,0.722325,0.161480,-0.672028,-117.576154,78.074708,77.533659
15662,-9.483862,-1.623179,-0.906052,0.019988,-0.148568,-0.149519,0.014030,-0.004851,0.013766,-0.094837,-0.016238,-0.009064,1.000000,0.000070,-0.000024,0.000069,0.023498,0.722317,0.161346,-0.672067,-117.579548,78.089989,77.523018
15663,-9.480194,-1.602210,-0.860913,-0.017294,-0.176601,-0.161219,0.003705,-0.005853,0.013959,-0.094801,-0.016029,-0.008612,1.000000,0.000019,-0.000029,0.000070,0.023573,0.722301,0.161247,-0.672105,-117.582260,78.104740,77.518103
15664,-9.498566,-1.679026,-0.850864,-0.047984,-0.107243,-0.130123,-0.008890,-0.005341,0.017911,-0.094984,-0.016799,-0.008510,1.000000,-0.000044,-0.000027,0.000090,0.023716,0.722293,0.161172,-0.672127,-117.602853,78.122301,77.502863
15665,-9.504798,-1.707114,-0.917187,0.008379,-0.062645,-0.112550,-0.011976,-0.007020,0.011898,-0.095047,-0.017077,-0.009174,1.000000,-0.000060,-0.000035,0.000059,0.023841,0.722270,0.161133,-0.672156,-117.609172,78.136315,77.503444
15666,-9.524601,-1.719629,-0.882354,-0.029652,-0.060762,-0.094194,-0.012677,0.001283,0.018676,-0.095244,-0.017206,-0.008822,1.000000,-0.000063,0.000006,0.000093,0.023996,0.722283,0.161071,-0.672151,-117.648926,78.152425,77.471113
15667,-9.500702,-1.716160,-0.885670,-0.025171,-0.055747,-0.117884,-0.005004,0.004462,0.017541,-0.095006,-0.017170,-0.008854,1.000000,-0.000025,0.000022,0.000088,0.024106,0.722305,0.160990,-0.672144,-117.686272,78.166248,77.435910
15668,-9.451886,-1.743357,-0.904429,-0.012820,-0.012825,-0.158926,-0.002592,0.001778,0.015589,-0.094518,-0.017441,-0.009043,1.000000,-0.000013,0.000009,0.000078,0.024208,0.722319,0.160899,-0.672146,-117.717420,78.180710,77.405522
15669,-9.468179,-1.714194,-1.022290,0.107446,-0.011325,-0.137033,-0.000841,-0.002823,0.021482,-0.094680,-0.017152,-0.010224,1.000000,-0.000004,-0.000014,0.000107,0.024322,0.722320,0.160788,-0.672168,-117.739899,78.198466,77.383077
15670,-9.461284,-1.640808,-0.920451,0.028916,-0.101987,-0.166749,0.013131,0.000094,0.018371,-0.094611,-0.016416,-0.009206,1.000000,0.000066,0.000000,0.000092,0.024388,0.722331,0.160644,-0.672188,-117.762145,78.214745,77.354206
15671,-9.497785,-1.593433,-0.990930,0.107421,-0.133524,-0.132835,-0.004581,0.000958,0.022967,-0.094976,-0.015945,-0.009908,1.000000,-0.000023,0.000005,0.000115,0.024518,0.722345,0.160541,-0.672193,-117.798004,78.232239,77.320284
15672,-9.494859,-1.539224,-0.934006,0.066365,-0.195133,-0.150832,-0.004344,0.001467,0.025865,-0.094947,-0.015405,-0.009339,1.000000,-0.000022,0.000007,0.000129,0.024661,0.722366,0.160419,-0.672194,-117.842879,78.251961,77.276839
15673,-9.538927,-1.552554,-0.896764,0.024148,-0.197392,-0.108761,-0.016280,0.003910,0.021974,-0.095388,-0.015537,-0.008965,1.000000,-0.000081,0.000020,0.000110,0.024827,0.722388,0.160359,-0.672179,-117.891589,78.268152,77.236642
15674,-9.552801,-1.641230,-0.855762,-0.040320,-0.123316,-0.083086,-0.033538,-0.004027,0.016896,-0.095526,-0.016422,-0.008557,1.000000,-0.000168,-0.000020,0.000084,0.025051,0.722380,0.160368,-0.672177,-117.928630,78.284823,77.218556
15675,-9.486544,-1.663701,-0.931742,0.028951,-0.066778,-0.136673,-0.035661,0.003698,0.022124,-0.094864,-0.016649,-0.009313,1.000000,-0.000178,0.000018,0.000111,0.025288,0.722398,0.160373,-0.672147,-117.988361,78.301134,77.178449
15676,-9.510434,-1.695083,-0.942155,0.028377,-0.035796,-0.106647,-0.035819,-0.002496,0.020668,-0.095102,-0.016962,-0.009420,1.000000,-0.000179,-0.000012,0.000103,0.025538,0.722397,0.160382,-0.672137,-118.035858,78.319294,77.151935
15677,-9.534301,-1.726657,-0.952583,0.027922,-0.004995,-0.076628,-0.029510,0.004615,0.018348,-0.095342,-0.017277,-0.009521,1.000000,-0.000148,0.000023,0.000092,0.025739,0.722416,0.160380,-0.672109,-118.089641,78.333434,77.114308
15678,-9.541860,-1.689827,-0.994876,0.076824,-0.027666,-0.071757,-0.021648,0.003764,0.019737,-0.095417,-0.016909,-0.009945,1.000000,-0.000108,0.000019,0.000099,0.025930,0.722437,0.160346,-0.672087,-118.143429,78.349430,77.073258
15679,-9.513970,-1.666526,-0.953848,0.043843,-0.051754,-0.107114,0.006978,0.006543,0.021821,-0.095138,-0.016675,-0.009536,1.000000,0.000035,0.000033,0.000109,0.026009,0.722470,0.160209,-0.672081,-118.185814,78.364789,77.025927
15680,-9.457894,-1.621969,-0.871112,-0.022399,-0.100781,-0.177817,0.016222,0.009121,0.024055,-0.094577,-0.016230,-0.008708,1.000000,0.000081,0.000046,0.000120,0.026065,0.722519,0.160023,-0.672071,-118.236394,78.381504,76.964394
15681,-9.419094,-1.591584,-0.941057,0.053952,-0.101203,-0.214516,0.012468,0.005535,0.025888,-0.094189,-0.015927,-0.009409,1.000000,0.000062,0.000028,0.000129,0.026139,0.722552,0.159853,-0.672073,-118.278785,78.399173,76.913851
15682,-9.465806,-1.582626,-0.913636,0.026681,-0.122451,-0.172915,0.011198,0.011157,0.025794,-0.094657,-0.015838,-0.009132,1.000000,0.000056,0.000056,0.000129,0.026225,0.722607,0.159686,-0.672050,-118.340342,78.416174,76.845442
15683,-9.485662,-1.594359,-0.880123,-0.011232,-0.120715,-0.154547,0.011212,0.018534,0.025453,-0.094855,-0.015955,-0.008793,1.000000,0.000056,0.000093,0.000127,0.026291,0.722684,0.159524,-0.672004,-118.415189,78.430063,76.762511
15684,-9.506097,-1.574073,-0.834133,-0.052926,-0.152553,-0.142461,0.005798,0.013856,0.022826,-0.095060,-0.015751,-0.008335,1.000000,0.000029,0.000069,0.000114,0.026385,0.722744,0.159388,-0.671967,-118.482714,78.444738,76.691310
15685,-9.514923,-1.578959,-0.912122,0.018496,-0.127123,-0.125462,-0.012104,0.018780,0.024903,-0.095148,-0.015802,-0.009111,1.000000,-0.000061,0.000094,0.000125,0.026534,0.722818,0.159305,-0.671901,-118.571171,78.458239,76.608130
15686,-9.458168,-1.566340,-0.843262,-0.044073,-0.142445,-0.189839,-0.013725,0.014843,0.021161,-0.094581,-0.015674,-0.008425,1.000000,-0.000069,0.000074,0.000106,0.026678,0.722881,0.159226,-0.671847,-118.649946,78.471878,76.534496
15687,-9.481428,-1.629693,-0.867713,-0.040855,-0.077866,-0.153569,-0.022248,0.021177,0.027285,-0.094813,-0.016311,-0.008665,1.000000,-0.000111,0.000106,0.000136,0.026870,0.722963,0.159169,-0.671764,-118.753739,78.485866,76.441604
15688,-9.542631,-1.656768,-0.985224,0.059327,-0.031032,-0.077552,-0.026145,0.018768,0.027310,-0.095425,-0.016582,-0.009841,1.000000,-0.000131,0.000094,0.000137,0.027084,0.723041,0.159118,-0.671685,-118.858457,78.501438,76.350110
15689,-9.532711,-1.742780,-0.949143,-0.000732,0.046838,-0.075720,-0.024262,0.020377,0.034679,-0.095325,-0.017445,-0.009480,1.000000,-0.000121,0.000102,0.000173,0.027309,0.723126,0.159041,-0.671602,-118.972022,78.519287,76.248434
15690,-9.510373,-1.779525,-0.989278,0.026029,0.100278,-0.087368,-0.016308,0.021197,0.037171,-0.095101,-0.017814,-0.009881,1.000000,-0.000082,0.000106,0.000186,0.027524,0.723220,0.158927,-0.671519,-119.091406,78.539021,76.137052
15691,-9.496218,-1.717231,-1.045470,0.094408,0.062140,-0.106644,-0.026883,0.019738,0.034466,-0.094960,-0.017190,-0.010443,1.000000,-0.000134,0.000099,0.000172,0.027757,0.723302,0.158860,-0.671437,-119.205294,78.556859,76.036593
15692,-9.479694,-1.538897,-1.018690,0.114202,-0.106190,-0.156279,-0.039627,0.011264,0.037674,-0.094795,-0.015409,-0.010179,1.000000,-0.000198,0.000056,0.000188,0.028066,0.723359,0.158822,-0.671371,-119.314782,78.579459,75.949094
15693,-9.416771,-1.527403,-0.895705,-0.000799,-0.131637,-0.231795,-0.028773,0.017776,0.043678,-0.094165,-0.015296,-0.008946,1.000000,-0.000144,0.000089,0.000218,0.028339,0.723442,0.158727,-0.671293,-119.438461,78.602368,75.839766
15694,-9.522516,-1.536062,-0.963498,0.053323,-0.121697,-0.119985,-0.045675,0.026853,0.041911,-0.095223,-0.015383,-0.009619,1.000000,-0.000228,0.000134,0.000210,0.028673,0.723554,0.158696,-0.671165,-119.597017,78.622657,75.705753
15695,-9.547607,-1.501514,-0.950509,0.045530,-0.158354,-0.102504,-0.041347,0.013068,0.032519,-0.095474,-0.015033,-0.009496,1.000000,-0.000207,0.000065,0.000163,0.028957,0.723611,0.158683,-0.671095,-119.701448,78.641241,75.623423
15696,-9.465939,-1.550548,-0.909844,-0.005424,-0.102320,-0.178087,-0.029229,0.013941,0.038614,-0.094657,-0.015525,-0.009090,1.000000,-0.000146,0.000070,0.000193,0.029227,0.723680,0.158603,-0.671028,-119.814559,78.663468,75.525599
15697,-9.448728,-1.680001,-1.042222,0.084977,0.062082,-0.159915,-0.031226,0.020525,0.045685,-0.094485,-0.016823,-0.010410,1.000000,-0.000156,0.000103,0.000228,0.029513,0.723773,0.158510,-0.670937,-119.951145,78.686397,75.404574
15698,-9.465519,-1.776441,-1.026059,0.039236,0.150761,-0.128663,0.017578,0.029755,0.040195,-0.094653,-0.017783,-0.010248,1.000000,0.000088,0.000149,0.000201,0.029608,0.723902,0.158272,-0.670849,-120.079876,78.704753,75.263848
15699,-9.547938,-1.774741,-0.886448,-0.101540,0.101825,-0.061896,0.066935,0.031453,0.042663,-0.095477,-0.017765,-0.008855,1.000000,0.000335,0.000157,0.000213,0.029520,0.724044,0.157862,-0.670797,-120.183919,78.722939,75.118673
15700,-9.488053,-1.654844,-0.944528,-0.013308,0.018671,-0.135225,0.070205,0.033672,0.051631,-0.094878,-0.016570,-0.009435,1.000000,0.000351,0.000168,0.000258,0.029466,0.724202,0.157415,-0.670734,-120.309916,78.745623,74.951204
15701,-9.527384,-1.517991,-1.001119,0.072931,-0.099477,-0.114112,0.066411,0.030132,0.053479,-0.095271,-0.015202,-0.010002,1.000000,0.000332,0.000151,0.000267,0.029418,0.724347,0.156967,-0.670684,-120.427681,78.769420,74.792366
15702,-9.523672,-1.439443,-1.143002,0.227508,-0.132221,-0.116836,0.032865,0.028381,0.054895,-0.095234,-0.014419,-0.011419,1.000000,0.000164,0.000142,0.000274,0.029508,0.724485,0.156625,-0.670611,-120.567700,78.795195,74.631329
15703,-9.488047,-1.374580,-1.014110,0.119598,-0.214629,-0.175231,0.032559,0.023351,0.051620,-0.094878,-0.013769,-0.010132,1.000000,0.000163,0.000117,0.000258,0.029581,0.724601,0.156297,-0.670559,-120.686479,78.819915,74.491258
15704,-9.498028,-1.537402,-0.968288,0.028692,-0.068304,-0.142722,0.016964,0.023977,0.050628,-0.094978,-0.015397,-0.009673,1.000000,0.000085,0.000120,0.000253,0.029713,0.724720,0.156017,-0.670490,-120.819156,78.844739,74.346038
15705,-9.632847,-1.758842,-0.965893,-0.042448,0.121280,0.026098,0.041649,0.027098,0.052101,-0.096325,-0.017612,-0.009650,1.000000,0.000208,0.000135,0.000261,0.029752,0.724850,0.155657,-0.670432,-120.943975,78.868473,74.194526
15706,-9.584320,-1.816066,-0.997863,-0.026459,0.197807,-0.008954,0.082732,0.020095,0.049594,-0.095840,-0.018180,-0.009977,1.000000,0.000414,0.000100,0.000248,0.029650,0.724963,0.155164,-0.670428,-121.029410,78.893840,74.059983
15707,-9.555018,-1.662869,-1.093370,0.106455,0.086687,-0.053584,0.111780,0.021002,0.058349,-0.095546,-0.016650,-0.010933,1.000000,0.000559,0.000105,0.000292,0.029460,0.725088,0.154546,-0.670444,-121.109313,78.922347,73.913322
15708,-9.472234,-1.381020,-1.089825,0.180640,-0.161473,-0.181517,0.129804,0.019442,0.058569,-0.094719,-0.013831,-0.010898,1.000000,0.000649,0.000097,0.000293,0.029218,0.725212,0.153863,-0.670477,-121.180797,78.952225,73.765544
15709,-9.510177,-1.106406,-1.073186,0.233477,-0.429240,-0.190807,0.112084,0.020804,0.046573,-0.095100,-0.011080,-0.010728,1.000000,0.000560,0.000104,0.000233,0.028988,0.725326,0.153286,-0.670496,-121.243211,78.974949,73.636552
15710,-9.555263,-1.053766,-1.011611,0.183839,-0.498701,-0.161038,0.075625,0.019046,0.042962,-0.095551,-0.010554,-0.010111,1.000000,0.000378,0.000095,0.000215,0.028886,0.725430,0.152837,-0.670491,-121.321523,78.997188,73.512779
15711,-9.556873,-1.125058,-1.059603,0.210091,-0.415587,-0.142864,0.052920,0.012160,0.033698,-0.095567,-0.011264,-0.010593,1.000000,0.000265,0.000061,0.000168,0.028834,0.725496,0.152504,-0.670497,-121.377093,79.016130,73.425310
15712,-9.523446,-1.242582,-1.036349,0.157884,-0.299898,-0.158715,0.056484,0.012368,0.029702,-0.095233,-0.012437,-0.010361,1.000000,0.000282,0.000062,0.000149,0.028765,0.725564,0.152168,-0.670503,-121.430197,79.033905,73.338726
15713,-9.455564,-1.342064,-0.917065,0.020095,-0.219561,-0.220960,0.071217,0.014210,0.019501,-0.094555,-0.013427,-0.009169,1.000000,0.000356,0.000071,0.000098,0.028597,0.725629,0.151825,-0.670518,-121.458973,79.045267,73.267880
15714,-9.543459,-1.435016,-0.868075,-0.057223,-0.156989,-0.124421,0.051768,0.025494,0.016658,-0.095434,-0.014356,-0.008672,1.000000,0.000259,0.000127,0.000083,0.028484,0.725731,0.151547,-0.670475,-121.527627,79.052717,73.167127
15715,-9.618660,-1.383463,-0.859153,-0.058520,-0.220546,-0.059807,0.051395,0.028983,0.011217,-0.096187,-0.013838,-0.008581,1.000000,0.000257,0.000145,0.000056,0.028350,0.725836,0.151303,-0.670422,-121.592420,79.055577,73.071168
15716,-9.587619,-1.212947,-0.725223,-0.143763,-0.408819,-0.131167,0.037987,0.018925,0.005660,-0.095877,-0.012131,-0.007245,1.000000,0.000190,0.000095,0.000028,0.028262,0.725904,0.151118,-0.670394,-121.635907,79.059589,73.005259
15717,-9.552604,-1.076937,-0.790848,-0.044641,-0.515357,-0.180974,-0.003911,0.013527,-0.002533,-0.095527,-0.010768,-0.007902,1.000000,-0.000020,0.000068,-0.000013,0.028294,0.725940,0.151106,-0.670357,-121.672077,79.060360,72.970729
15718,-9.613006,-1.053732,-0.663729,-0.166147,-0.579330,-0.138106,-0.052519,0.017613,-0.015683,-0.096131,-0.010532,-0.006626,1.000000,-0.000263,0.000088,-0.000078,0.028471,0.725974,0.151308,-0.670267,-121.731296,79.054350,72.942713
15719,-9.640848,-0.895233,-0.842543,0.044502,-0.692960,-0.118612,-0.129051,0.003238,-0.037512,-0.096410,-0.008940,-0.008418,1.000000,-0.000645,0.000016,-0.000188,0.028847,0.725930,0.151842,-0.670178,-121.758739,79.041169,72.990100
15720,-9.644464,-0.661431,-0.547322,-0.180428,-0.990920,-0.182616,-0.199694,0.003847,-0.050031,-0.096446,-0.006596,-0.005465,0.999999,-0.000998,0.000019,-0.000250,0.029445,0.725871,0.152649,-0.670032,-121.813372,79.022644,73.051028
15721,-9.524401,-0.680381,-0.365534,-0.354455,-0.999634,-0.316065,-0.288621,0.001755,-0.062972,-0.095246,-0.006779,-0.003645,0.999999,-0.001443,0.000009,-0.000315,0.030316,0.725778,0.153809,-0.669828,-121.888923,78.997538,73.142551
15722,-9.596283,-0.892795,-0.459100,-0.326481,-0.792730,-0.202199,-0.369291,0.022629,-0.086033,-0.095967,-0.008895,-0.004564,0.999998,-0.001846,0.000113,-0.000430,0.031394,0.725726,0.155318,-0.669487,-122.031609,78.955916,73.212846
15723,-9.561481,-1.019801,-0.441920,-0.378587,-0.677252,-0.218147,-0.484731,0.010804,-0.098238,-0.095620,-0.010162,-0.004389,0.999997,-0.002424,0.000054,-0.000491,0.032852,0.725600,0.157263,-0.669099,-122.187122,78.911017,73.337406
15724,-9.520402,-1.901932,-0.769602,-0.308884,0.244510,-0.081681,-0.573375,0.016013,-0.093419,-0.095214,-0.018997,-0.007634,0.999996,-0.002867,0.000080,-0.000467,0.034653,0.725478,0.159479,-0.668616,-122.418364,78.868037,73.436883
15725,-9.631923,-2.254166,0.012466,-1.173350,0.341676,0.003719,-0.485312,0.027525,-0.101389,-0.096331,-0.022492,0.000193,0.999997,-0.002427,0.000138,-0.000507,0.036088,0.725396,0.161438,-0.668159,-122.609669,78.816637,73.525339
15726,-9.582683,-2.300989,-0.494805,-0.709857,0.519788,0.015491,-0.455922,0.057793,-0.100267,-0.095840,-0.022973,-0.004868,0.999997,-0.002280,0.000289,-0.000501,0.037403,0.725419,0.163290,-0.667611,-122.862986,78.757476,73.533363
15727,-9.611647,-1.844338,-0.992274,-0.118583,0.208446,0.021560,-0.481004,0.085356,-0.113740,-0.096131,-0.018412,-0.009837,0.999997,-0.002405,0.000427,-0.000569,0.038735,0.725512,0.165288,-0.666942,-123.170496,78.682240,73.500847
15728,-9.603288,-1.726310,-0.428802,-0.636907,-0.070813,-0.067102,-0.445876,0.131006,-0.158599,-0.096049,-0.017196,-0.004187,0.999997,-0.002229,0.000655,-0.000793,0.039767,0.725723,0.167341,-0.666139,-123.498640,78.572095,73.428267
15729,-9.909285,-1.788067,-0.619118,-0.508212,-0.037535,0.262760,-0.448058,0.171069,-0.195273,-0.099115,-0.017798,-0.006066,0.999997,-0.002240,0.000855,-0.000976,0.040636,0.726031,0.169539,-0.665195,-123.855946,78.430684,73.325646
15730,-9.791181,-1.873719,-0.782932,-0.389373,0.089481,0.178876,-0.330777,0.178686,-0.208013,-0.097938,-0.018648,-0.007711,0.999998,-0.001654,0.000893,-0.001040,0.041037,0.726375,0.171388,-0.664320,-124.142120,78.281630,73.227111
15731,-9.321073,-1.632311,-0.887474,-0.205452,-0.035130,-0.310531,-0.237408,0.168901,-0.143129,-0.093230,-0.016267,-0.008777,0.999999,-0.001187,0.000845,-0.000716,0.041315,0.726758,0.172694,-0.663546,-124.444813,78.165388,73.056886
15732,-8.818230,-1.729012,-1.144322,0.023085,0.215771,-0.756584,-0.167266,0.182085,-0.076445,-0.088199,-0.017266,-0.011348,0.999999,-0.000836,0.000910,-0.000382,0.041553,0.727256,0.173520,-0.662769,-124.838156,78.076981,72.752628
15733,-8.833070,-1.911477,-1.487057,0.274077,0.473754,-0.670007,-0.051634,0.219083,-0.050435,-0.088352,-0.019096,-0.014769,0.999999,-0.000258,0.001095,-0.000252,0.041419,0.727920,0.173884,-0.661952,-125.279280,77.987244,72.331971
15734,-9.055171,-1.765030,-1.182946,-0.000818,0.194343,-0.513601,0.060187,0.220505,-0.060230,-0.090570,-0.017619,-0.011735,0.999999,0.000301,0.001103,-0.000301,0.040848,0.728606,0.173900,-0.661228,-125.641180,77.892904,71.925839
15735,-9.643033,-1.880198,-1.045538,-0.224226,0.133253,0.063966,-0.028416,0.258584,-0.065757,-0.096450,-0.018772,-0.010328,0.999999,-0.000142,0.001293,-0.000329,0.040545,0.729391,0.174250,-0.660289,-126.117419,77.781549,71.455347
15736,-10.036612,-2.711823,-0.988173,-0.585046,0.803549,0.583274,-0.054230,0.266470,-0.055902,-0.100387,-0.027093,-0.009741,0.999999,-0.000271,0.001332,-0.000280,0.040369,0.730206,0.174643,-0.659294,-126.635200,77.672151,70.957227
15737,-9.855563,-2.772232,-1.001472,-0.600089,0.888909,0.418150,0.082854,0.231500,-0.044893,-0.098573,-0.027696,-0.009912,0.999999,0.000414,0.001158,-0.000224,0.039752,0.730940,0.174544,-0.658545,-127.007191,77.578052,70.527814
15738,-9.348913,-2.477784,-1.480485,-0.035704,0.845062,-0.064970,0.089709,0.214103,-0.020605,-0.093507,-0.024762,-0.014716,0.999999,0.000449,0.001071,-0.000103,0.039206,0.731640,0.174318,-0.657859,-127.374111,77.501338,70.098479
15739,-9.208684,-2.276729,-2.030778,0.543050,0.836058,-0.163154,0.128053,0.207118,0.006064,-0.092107,-0.022757,-0.020227,0.999999,0.000640,0.001036,0.000030,0.038613,0.732345,0.173879,-0.657226,-127.739603,77.437726,69.648937
15740,-9.596551,-2.065844,-2.136372,0.663292,0.583544,0.194564,0.104431,0.192976,0.005824,-0.095985,-0.020650,-0.021282,0.999999,0.000522,0.000965,0.000029,0.038119,0.733000,0.173503,-0.656623,-128.088290,77.379221,69.229476
15741,-9.851876,-2.090416,-2.338645,0.815658,0.605656,0.476454,0.124864,0.140162,-0.008022,-0.098536,-0.020886,-0.023330,1.000000,0.000624,0.000701,-0.000040,0.037549,0.733471,0.173113,-0.656234,-128.291719,77.331910,68.947698
15742,-9.634286,-2.006949,-2.654539,1.151340,0.656042,0.293642,0.128419,0.080155,-0.002082,-0.096354,-0.020051,-0.026520,1.000000,0.000642,0.000401,-0.000010,0.037039,0.733752,0.172668,-0.656066,-128.383966,77.309142,68.777162
15743,-9.232670,-1.954775,-2.831031,1.363136,0.736712,-0.082466,0.097912,0.059572,0.029008,-0.092332,-0.019547,-0.028292,1.000000,0.000490,0.000298,0.000145,0.036760,0.733984,0.172216,-0.655941,-128.498831,77.306887,68.601942
15744,-9.224050,-1.931150,-2.712430,1.254475,0.684195,-0.110735,0.086276,0.057162,0.051634,-0.092243,-0.019324,-0.027106,1.000000,0.000431,0.000286,0.000258,0.036605,0.734227,0.171713,-0.655809,-128.654853,77.316133,68.391522
15745,-9.417569,-1.524536,-1.973238,0.654389,0.059431,-0.092774,0.119200,0.053318,0.056072,-0.094177,-0.015260,-0.019716,1.000000,0.000596,0.000267,0.000280,0.036341,0.734466,0.171089,-0.655719,-128.788357,77.328029,68.184705
15746,-9.733295,-1.261995,-1.037716,-0.185597,-0.507004,0.042007,0.080386,0.025134,0.057678,-0.097331,-0.012644,-0.010370,1.000000,0.000402,0.000126,0.000288,0.036247,0.734609,0.170567,-0.655700,-128.894216,77.351408,68.027679
15747,-9.750146,-1.098425,-1.101773,-0.080053,-0.640471,0.039681,-0.121003,0.000451,0.048369,-0.097499,-0.011014,-0.011011,1.000000,-0.000605,0.000002,0.000242,0.036886,0.734624,0.170750,-0.655601,-129.048850,77.378725,67.940284
15748,-9.550700,-0.895053,-1.191571,0.078986,-0.759081,-0.176589,-0.223038,0.001397,0.047566,-0.095505,-0.008987,-0.011905,0.999999,-0.001115,0.000007,0.000238,0.037905,0.734623,0.171271,-0.655408,-129.266814,77.405727,67.848857
15749,-9.433630,-0.996122,-1.367005,0.220303,-0.584137,-0.248976,-0.323485,-0.001891,0.033309,-0.094335,-0.009999,-0.013655,0.999999,-0.001617,-0.000009,0.000167,0.039240,0.734576,0.172172,-0.655145,-129.509533,77.427087,67.790095
15750,-9.484141,-1.432039,-1.482476,0.187760,-0.145652,-0.110063,-0.320300,-0.010802,0.025711,-0.094839,-0.014356,-0.014807,0.999999,-0.001602,-0.000054,0.000129,0.040551,0.734496,0.173081,-0.654916,-129.724549,77.448927,67.757850
15751,-9.389470,-1.857723,-1.609184,0.180992,0.315302,-0.113688,-0.237795,-0.040337,0.025199,-0.093889,-0.018608,-0.016089,0.999999,-0.001189,-0.000202,0.000126,0.041577,0.734330,0.173723,-0.654867,-129.829539,77.480722,67.789897
15752,-9.339856,-2.162325,-1.885745,0.350225,0.696478,-0.073239,-0.128044,-0.014239,0.025765,-0.093394,-0.021647,-0.018850,1.000000,-0.000640,-0.000071,0.000129,0.042181,0.734277,0.173995,-0.654816,-129.928091,77.503971,67.763155
15753,-9.269598,-2.211364,-1.975238,0.423096,0.786328,-0.121463,-0.004000,0.017302,0.022644,-0.092695,-0.022125,-0.019744,1.000000,-0.000020,0.000087,0.000113,0.042290,0.734346,0.173892,-0.654759,-130.009495,77.513453,67.682151
15754,-9.322034,-1.958129,-1.783666,0.313893,0.485063,-0.138896,0.107244,0.046618,0.024059,-0.093222,-0.019583,-0.017825,1.000000,0.000536,0.000233,0.000120,0.041971,0.734540,0.173414,-0.654689,-130.091308,77.513422,67.534566
15755,-9.450939,-1.527160,-1.788847,0.440426,0.056884,-0.083595,0.169270,0.038852,0.009623,-0.094512,-0.015261,-0.017883,1.000000,0.000846,0.000194,0.000048,0.041383,0.734704,0.172796,-0.654705,-130.094498,77.509208,67.431990
15756,-9.616126,-0.753062,-1.297128,0.198944,-0.843970,-0.118995,0.181596,0.024850,-0.003365,-0.096163,-0.007517,-0.012966,1.000000,0.000908,0.000124,-0.000017,0.040720,0.734817,0.172173,-0.654784,-130.044669,77.505004,67.375809
15757,-9.600814,-0.249868,-0.945933,0.020633,-1.414508,-0.266400,0.102487,0.025871,-0.010876,-0.096009,-0.002489,-0.009448,1.000000,0.000512,0.000129,-0.000054,0.040321,0.734907,0.171846,-0.654794,-130.026285,77.496603,67.334520
15758,-9.578522,0.113448,-0.960766,0.146296,-1.747848,-0.346555,-0.069962,0.018176,-0.027760,-0.095786,0.001144,-0.009599,1.000000,-0.000350,0.000091,-0.000139,0.040510,0.734925,0.172136,-0.654686,-130.066848,77.484168,67.333584
15759,-9.623278,0.314115,-1.038358,0.277632,-1.923551,-0.325475,-0.312131,0.005273,-0.047846,-0.096232,0.003148,-0.010386,0.999999,-0.001561,0.000026,-0.000239,0.041531,0.734831,0.173298,-0.654421,-130.183804,77.467162,67.397001
15760,-9.617321,0.155673,-1.107030,0.296082,-1.753376,-0.295302,-0.535134,-0.020195,-0.065968,-0.096172,0.001559,-0.011084,0.999996,-0.002676,-0.000101,-0.000330,0.043341,0.734590,0.175244,-0.654055,-130.352273,77.452365,67.538681
15761,-9.442926,-0.596173,-1.480265,0.429038,-0.904068,-0.288295,-0.647522,-0.050310,-0.085038,-0.094428,-0.005970,-0.014807,0.999995,-0.003238,-0.000252,-0.000425,0.045521,0.734201,0.177626,-0.653702,-130.490225,77.439856,67.777466
15762,-9.287322,-1.573744,-1.697447,0.331557,0.105558,-0.247581,-0.608063,-0.053043,-0.105235,-0.092877,-0.015740,-0.016951,0.999995,-0.003040,-0.000265,-0.000526,0.047495,0.733789,0.179941,-0.653390,-130.570297,77.420331,68.051999
15763,-9.161192,-2.588308,-1.728322,0.034229,1.082351,-0.198052,-0.395842,-0.019854,-0.106081,-0.091624,-0.025869,-0.017241,0.999998,-0.001979,-0.000099,-0.000530,0.048655,0.733527,0.181582,-0.653145,-130.588913,77.387458,68.265346
15764,-9.238048,-3.006623,-1.919642,0.064992,1.508106,-0.025567,-0.111482,0.020072,-0.106842,-0.092398,-0.030028,-0.019170,1.000000,-0.000557,0.000100,-0.000534,0.048746,0.733465,0.182307,-0.653006,-130.526566,77.340028,68.396066
15765,-9.273441,-2.571314,-1.978741,0.261126,1.104860,-0.053852,0.147391,0.070788,-0.095778,-0.092754,-0.025654,-0.019774,1.000000,0.000737,0.000354,-0.000479,0.047864,0.733638,0.182158,-0.652918,-130.428239,77.277850,68.410318
15766,-9.450674,-1.585560,-1.686364,0.298195,0.050045,-0.087379,0.285272,0.080330,-0.101924,-0.094522,-0.015783,-0.016848,0.999999,0.001426,0.000402,-0.000510,0.046447,0.733873,0.181570,-0.652920,-130.263051,77.210072,68.411052
15767,-9.553972,-0.697227,-1.470277,0.377928,-0.877741,-0.168366,0.285293,0.074245,-0.118066,-0.095549,-0.006895,-0.014677,0.999999,0.001426,0.000371,-0.000590,0.044983,0.734068,0.181053,-0.652948,-130.057851,77.136841,68.453885
15768,-9.500819,-0.180397,-1.178709,0.275563,-1.450111,-0.351784,0.197990,0.048613,-0.125076,-0.095012,-0.001733,-0.011766,0.999999,0.000990,0.000243,-0.000625,0.043843,0.734155,0.180830,-0.652989,-129.847599,77.070653,68.552762
15769,-9.417952,-0.048549,-1.240041,0.383098,-1.549567,-0.448397,-0.011434,0.041875,-0.125484,-0.094182,-0.000427,-0.012381,1.000000,-0.000057,0.000209,-0.000627,0.043473,0.734170,0.181300,-0.652866,-129.741164,77.005967,68.668729
15770,-9.690716,-0.434571,-1.041363,0.049171,-1.318312,-0.146101,-0.195612,0.024531,-0.145401,-0.096912,-0.004285,-0.010398,0.999999,-0.000978,0.000123,-0.000727,0.043744,0.734072,0.182440,-0.652641,-129.681929,76.939603,68.845751
15771,-9.739023,-0.643257,-1.281521,0.205396,-1.072736,-0.029452,-0.360150,-0.009338,-0.166239,-0.097395,-0.006375,-0.012808,0.999998,-0.001801,-0.000047,-0.000831,0.044568,0.733804,0.184187,-0.652396,-129.615955,76.875595,69.125371
15772,-9.348322,-0.898254,-1.287333,0.160195,-0.760705,-0.365420,-0.450161,-0.015610,-0.162089,-0.093489,-0.008936,-0.012860,0.999997,-0.002251,-0.000078,-0.000810,0.045747,0.733500,0.186198,-0.652086,-129.602158,76.816613,69.404091
15773,-9.104975,-1.748445,-1.024529,-0.352227,-0.011761,-0.491578,-0.455272,0.000271,-0.142663,-0.091062,-0.017443,-0.010205,0.999997,-0.002276,0.000001,-0.000713,0.046987,0.733256,0.188169,-0.651706,-129.648110,76.759472,69.624860
15774,-9.257801,-2.591053,-0.835192,-0.831851,0.664230,-0.221818,-0.325015,0.019178,-0.139371,-0.092597,-0.025860,-0.008301,0.999998,-0.001625,0.000096,-0.000697,0.047758,0.733106,0.189709,-0.651372,-129.665871,76.697656,69.799532
15775,-9.376769,-2.884830,-0.870381,-0.914227,0.908226,-0.048319,-0.146647,0.057586,-0.130793,-0.093789,-0.028793,-0.008656,0.999999,-0.000733,0.000288,-0.000654,0.047851,0.733129,0.190643,-0.651067,-129.661877,76.624824,69.890017
15776,-9.469802,-2.696298,-0.945134,-0.791595,0.725384,0.020299,0.042134,0.087063,-0.112024,-0.094717,-0.026908,-0.009416,1.000000,0.000211,0.000435,-0.000560,0.047296,0.733312,0.190898,-0.650826,-129.637869,76.550300,69.890676
15777,-9.395183,-2.346556,-1.210005,-0.420515,0.491135,-0.075037,0.176527,0.104510,-0.096798,-0.093969,-0.023409,-0.012072,0.999999,0.000883,0.000523,-0.000484,0.046270,0.733596,0.190666,-0.650648,-129.588119,76.475312,69.837853
15778,-9.442000,-1.848391,-1.601464,0.109986,0.132300,-0.060611,0.259951,0.117900,-0.088968,-0.094438,-0.018421,-0.015983,0.999999,0.001300,0.000590,-0.000445,0.044962,0.733951,0.190136,-0.650494,-129.530903,76.399625,69.744490
15779,-9.544959,-1.497121,-1.942065,0.537456,-0.122447,0.026792,0.261770,0.119443,-0.095953,-0.095468,-0.014900,-0.019383,0.999999,0.001309,0.000597,-0.000480,0.043612,0.734300,0.189627,-0.650340,-129.460820,76.319594,69.662299
15780,-9.549503,-1.178422,-2.328025,1.004350,-0.313832,0.030795,0.213212,0.094666,-0.115471,-0.095513,-0.011704,-0.023248,0.999999,0.001066,0.000473,-0.000577,0.042410,0.734542,0.189339,-0.650231,-129.348751,76.240756,69.652672
15781,-9.417410,-1.147118,-2.173157,0.879608,-0.377348,-0.127132,0.163611,0.080815,-0.128513,-0.094190,-0.011393,-0.021703,0.999999,0.000818,0.000404,-0.000643,0.041351,0.734712,0.189260,-0.650131,-129.217326,76.160371,69.691503
15782,-9.400658,-1.220824,-2.053003,0.744427,-0.357654,-0.148553,0.149227,0.052730,-0.135389,-0.094020,-0.012129,-0.020514,0.999999,0.000746,0.000264,-0.000677,0.040362,0.734782,0.189246,-0.650117,-129.039093,76.087756,69.788272
15783,-9.751706,-1.325721,-1.962434,0.597768,-0.383320,0.197316,0.099037,0.046709,-0.156048,-0.097532,-0.013171,-0.019608,1.000000,0.000495,0.000234,-0.000780,0.039482,0.734801,0.189471,-0.650085,-128.845930,76.007330,69.928865
15784,-10.241465,-1.020771,-1.836210,0.543549,-0.833136,0.594601,0.070378,0.010564,-0.203177,-0.102426,-0.010097,-0.018360,0.999999,0.000352,0.000053,-0.001016,0.038601,0.734653,0.189953,-0.650163,-128.543471,75.919297,70.200129
15785,-10.305493,-0.634017,-2.191874,1.009692,-1.118852,0.634232,-0.027678,-0.035645,-0.265777,-0.103059,-0.006206,-0.021936,0.999999,-0.000138,-0.000178,-0.001329,0.037909,0.734273,0.190976,-0.650333,-128.126196,75.818466,70.646805
15786,-10.020551,-0.270853,-2.076429,1.058492,-1.446504,0.266177,-0.094272,-0.079872,-0.309284,-0.100201,-0.002563,-0.020803,0.999999,-0.000471,-0.000399,-0.001546,0.037375,0.733697,0.192367,-0.650605,-127.618947,75.713362,71.227178
15787,-9.161762,-0.104101,-2.133899,1.253977,-1.404962,-0.595541,-0.117319,-0.108200,-0.343353,-0.091608,-0.000896,-0.021388,0.999998,-0.000587,-0.000541,-0.001717,0.036829,0.732986,0.193952,-0.650967,-127.032029,75.600485,71.902386
15788,-8.818042,-0.114570,-1.334774,0.543689,-1.581873,-1.051716,-0.154075,-0.084290,-0.358291,-0.088177,-0.000998,-0.013384,0.999998,-0.000770,-0.000421,-0.001791,0.036359,0.732332,0.195713,-0.651202,-126.503633,75.471790,72.540470
15789,-9.652770,0.016758,-0.977298,0.207652,-2.039754,-0.329675,-0.274820,-0.089990,-0.411530,-0.096523,0.000353,-0.009817,0.999997,-0.001374,-0.000450,-0.002058,0.036149,0.731579,0.198061,-0.651350,-125.971223,75.318083,73.253402
15790,-10.335323,0.279607,-1.008625,0.299827,-2.470315,0.273038,-0.419728,-0.110353,-0.485033,-0.103340,0.003025,-0.010149,0.999995,-0.002099,-0.000552,-0.002425,0.036261,0.730659,0.201137,-0.651434,-125.411127,75.136443,74.081665
15791,-9.894676,0.278614,-1.278291,0.613704,-2.311431,-0.122656,-0.522728,-0.167770,-0.537554,-0.098928,0.003018,-0.012874,0.999993,-0.002614,-0.000839,-0.002688,0.036624,0.729467,0.204735,-0.651629,-124.757693,74.945673,75.068051
15792,-9.520181,-0.505750,-1.529696,0.633350,-1.455290,-0.288486,-0.605355,-0.182542,-0.569379,-0.095202,-0.004833,-0.015369,0.999991,-0.003027,-0.000913,-0.002847,0.037217,0.728170,0.208711,-0.651784,-124.113650,74.742968,76.096010
15793,-9.792908,-1.441404,-1.929853,0.687621,-0.581113,0.231828,-0.626461,-0.192792,-0.619026,-0.097955,-0.014171,-0.019348,0.999990,-0.003132,-0.000964,-0.003095,0.037717,0.726767,0.212932,-0.651956,-123.424823,74.515567,77.182665
15794,-10.086605,-1.641973,-2.608587,1.259263,-0.292407,0.654829,-0.563348,-0.224027,-0.673913,-0.100892,-0.016153,-0.026153,0.999990,-0.002817,-0.001120,-0.003370,0.037858,0.725205,0.217135,-0.652302,-122.616476,74.268951,78.358320
15795,-10.147253,-1.260076,-2.888830,1.692169,-0.603629,0.659740,-0.464470,-0.265749,-0.724041,-0.101479,-0.012301,-0.028994,0.999990,-0.002322,-0.001329,-0.003620,0.037505,0.723452,0.221187,-0.652906,-121.655017,74.004710,79.634523
15796,-10.503658,-0.410161,-2.971991,2.113750,-1.483165,0.801435,-0.419187,-0.318483,-0.780361,-0.105004,-0.003754,-0.029879,0.999989,-0.002096,-0.001592,-0.003902,0.036883,0.721462,0.225282,-0.653743,-120.563930,73.723383,81.022448
15797,-11.093334,0.447482,-2.914441,2.418402,-2.487972,1.128830,-0.331171,-0.360680,-0.869908,-0.110860,0.004909,-0.029352,0.999988,-0.001656,-0.001803,-0.004350,0.035677,0.719230,0.229398,-0.654838,-119.305470,73.400644,82.532387
15798,-11.828160,1.318330,-2.800393,2.694120,-3.578174,1.563721,-0.259044,-0.399802,-0.999265,-0.118158,0.013737,-0.028258,0.999985,-0.001295,-0.001999,-0.004996,0.033847,0.716718,0.233722,-0.656158,-117.884974,73.015245,84.172075
15799,-12.543687,2.304805,-1.880586,2.291400,-5.073899,1.814690,-0.189489,-0.355365,-1.152419,-0.125268,0.023752,-0.019051,0.999981,-0.000947,-0.001777,-0.005762,0.031197,0.714157,0.238374,-0.657407,-116.438112,72.526784,85.800584
15800,-12.651566,2.850902,-1.053268,1.831475,-5.988042,1.592834,-0.245185,-0.264883,-1.249665,-0.126320,0.029286,-0.010736,0.999979,-0.001226,-0.001324,-0.006248,0.028345,0.711745,0.243565,-0.658249,-115.184655,71.955909,87.267108
15801,-12.029596,2.961298,-0.859283,1.793948,-6.069852,0.871672,-0.354405,-0.143846,-1.235259,-0.120104,0.030340,-0.008733,0.999979,-0.001772,-0.000719,-0.006176,0.025752,0.709699,0.249067,-0.658505,-114.269094,71.353611,88.445633
15802,-11.961334,2.806835,-0.016605,1.032973,-6.320889,0.672058,-0.384369,-0.057604,-1.107230,-0.119455,0.028730,-0.000255,0.999983,-0.001922,-0.000288,-0.005536,0.023613,0.708072,0.254221,-0.658368,-113.656072,70.795299,89.330114
15803,-10.920374,2.472890,0.068425,0.884199,-5.805192,-0.278982,-0.309149,0.013172,-0.891518,-0.109092,0.025216,0.000653,0.999989,-0.001546,0.000066,-0.004458,0.021793,0.706935,0.258359,-0.658041,-113.276011,70.329846,89.921006
15804,-9.028461,2.652105,-1.053328,2.014438,-4.960908,-2.003235,-0.250172,0.138108,-0.497076,-0.090226,0.026732,-0.010504,0.999996,-0.001251,0.000691,-0.002485,0.020937,0.706719,0.260925,-0.657288,-113.314081,70.045205,90.036738
15805,-8.836655,1.732677,-0.269577,0.926359,-4.416706,-2.015519,0.140312,0.234705,-0.044874,-0.088366,0.017348,-0.002580,0.999999,0.000702,0.001174,-0.000224,0.020025,0.707444,0.260612,-0.656661,-113.544368,69.974259,89.706168
15806,-9.311449,1.723455,0.252932,0.412913,-4.759865,-1.632811,0.423493,0.199526,0.381930,-0.093145,0.017051,0.002658,0.999995,0.002117,0.000998,0.001910,0.019593,0.708639,0.257853,-0.656474,-113.837985,70.137564,89.138706
15807,-9.603227,2.450560,0.714342,0.223439,-5.620971,-1.621739,0.670523,0.129199,0.772199,-0.096121,0.024110,0.007287,0.999987,0.003353,0.000646,0.003861,0.019623,0.710113,0.252891,-0.656811,-114.145939,70.517800,88.403702
15808,-9.519736,3.144847,1.291919,-0.105915,-6.339489,-1.939767,0.689092,0.080747,1.109162,-0.095364,0.030875,0.013065,0.999979,0.003445,0.000404,0.005546,0.020786,0.711836,0.246647,-0.657284,-114.631096,71.086846,87.473906
15809,-9.505724,3.747263,1.627294,-0.261231,-6.892908,-2.101232,0.492422,0.052626,1.384555,-0.095309,0.036773,0.016389,0.999973,0.002462,0.000263,0.006923,0.023555,0.713746,0.240064,-0.657557,-115.430265,71.799026,86.333347
15810,-9.897484,3.876189,1.319139,-0.003743,-6.911811,-1.630408,0.118988,-0.013913,1.549248,-0.099272,0.037986,0.013207,0.999970,0.000595,-0.000070,0.007746,0.028311,0.715554,0.234087,-0.657559,-116.558377,72.610092,85.078830
15811,-10.574378,2.894949,1.223899,-0.352344,-6.077955,-0.613343,-0.251621,-0.101288,1.602184,-0.105977,0.028116,0.012150,0.999967,-0.001258,-0.000506,0.008011,0.034634,0.717034,0.229124,-0.657393,-117.911374,73.459026,83.815071
15812,-10.788255,1.287997,0.669446,-0.487610,-4.359891,0.149473,-0.551240,-0.216326,1.595461,-0.107988,0.012037,0.006544,0.999964,-0.002756,-0.001082,0.007977,0.042173,0.718030,0.225119,-0.657249,-119.376869,74.330707,82.620303
15813,-10.375187,-0.122342,0.310828,-0.709062,-2.702686,0.184642,-0.690766,-0.322810,1.561746,-0.103743,-0.002023,0.002947,0.999962,-0.003454,-0.001614,0.007809,0.050184,0.718550,0.221670,-0.657290,-120.835457,75.203713,81.518866
15814,-9.639216,-1.052703,-0.098787,-0.691428,-1.380016,-0.239392,-0.751750,-0.395863,1.533182,-0.096306,-0.011270,-0.001137,0.999962,-0.003759,-0.001979,0.007666,0.058434,0.718732,0.218471,-0.657481,-122.319928,76.080954,80.432976
15815,-9.316107,-1.410596,-0.318951,-0.645145,-0.751489,-0.437266,-0.782009,-0.435224,1.537194,-0.093042,-0.014834,-0.003335,0.999960,-0.003910,-0.002176,0.007686,0.066808,0.718719,0.215345,-0.657728,-123.907717,76.960983,79.261038
15816,-9.407139,-1.522440,-0.540411,-0.520033,-0.435847,-0.292093,-0.843192,-0.476842,1.539496,-0.093937,-0.015971,-0.005562,0.999959,-0.004216,-0.002384,0.007697,0.075484,0.718495,0.212363,-0.658003,-125.653775,77.851329,77.968731
15817,-9.578945,-1.633762,-0.754153,-0.407540,-0.131595,-0.075721,-0.922355,-0.516266,1.554329,-0.095639,-0.017117,-0.007711,0.999956,-0.004612,-0.002581,0.007772,0.084493,0.718063,0.209573,-0.658275,-127.607949,78.748553,76.512865
15818,-9.448008,-2.045927,-0.836706,-0.530323,0.457073,-0.134962,-1.031002,-0.538174,1.565828,-0.094293,-0.021242,-0.008513,0.999952,-0.005155,-0.002691,0.007829,0.093981,0.717460,0.207053,-0.658444,-129.902988,79.651056,74.779547
15819,-9.189235,-2.750580,-1.150670,-0.571717,1.419520,-0.273943,-1.096946,-0.534184,1.547066,-0.091645,-0.028279,-0.011598,0.999951,-0.005485,-0.002671,0.007735,0.103594,0.716747,0.204816,-0.658477,-132.568058,80.525388,72.712231
15820,-9.131566,-3.425889,-1.275623,-0.797488,2.237039,-0.267691,-1.057516,-0.489158,1.494270,-0.091025,-0.035007,-0.012795,0.999955,-0.005288,-0.002446,0.007471,0.112872,0.716084,0.202625,-0.658352,-135.678532,81.344627,70.177669
15821,-9.158949,-4.289360,-1.194713,-1.306791,3.110133,-0.203855,-0.935311,-0.443954,1.407801,-0.091258,-0.043593,-0.011947,0.999962,-0.004676,-0.002220,0.007039,0.121337,0.715488,0.200368,-0.658184,-139.125856,82.083716,67.235640
15822,-9.158164,-4.899518,-1.066674,-1.750899,3.725682,-0.217534,-0.835272,-0.412739,1.284217,-0.091242,-0.049626,-0.010649,0.999969,-0.004176,-0.002064,0.006421,0.129031,0.714883,0.198211,-0.658032,-142.819415,82.739635,63.993816
15823,-9.209024,-4.989839,-1.000242,-1.905173,3.885019,-0.222033,-0.737198,-0.416625,1.148867,-0.091781,-0.050463,-0.010009,0.999975,-0.003686,-0.002083,0.005744,0.135892,0.714151,0.196219,-0.658042,-146.531246,83.320552,60.679969
15824,-9.019429,-4.790844,-0.420248,-2.358872,3.564830,-0.527984,-0.707397,-0.419932,0.983480,-0.089948,-0.048366,-0.004221,0.999979,-0.003537,-0.002100,0.004917,0.142130,0.713234,0.194691,-0.658173,-150.130029,83.829096,57.467704
15825,-9.003297,-4.578259,-0.523086,-2.199493,3.505096,-0.583959,-0.755894,-0.449138,0.755036,-0.089847,-0.046142,-0.005259,0.999983,-0.003779,-0.002246,0.003775,0.147782,0.711936,0.194126,-0.658500,-153.074489,84.266218,54.942780
15826,-8.842739,-4.743289,-0.554527,-2.263559,3.737195,-0.762287,-0.864425,-0.488189,0.491835,-0.088297,-0.047674,-0.005555,0.999985,-0.004322,-0.002441,0.002459,0.153015,0.710151,0.194804,-0.659033,-154.987791,84.648113,53.519303
15827,-8.382936,-5.152707,-0.622174,-2.392840,4.198812,-1.218777,-0.970392,-0.544003,0.271223,-0.083742,-0.051671,-0.006199,0.999984,-0.004852,-0.002720,0.001356,0.157918,0.707863,0.196581,-0.659809,-155.711726,85.000867,53.350706
15828,-8.102596,-5.598077,-1.446211,-1.894192,5.027084,-1.432803,-1.001699,-0.583959,0.106196,-0.080954,-0.056096,-0.014418,0.999983,-0.005008,-0.002920,0.000531,0.162447,0.705231,0.198993,-0.660804,-155.380126,85.337384,54.260496
15829,-7.965456,-6.065354,-1.754801,-1.868792,5.607102,-1.543205,-0.922168,-0.569425,-0.013798,-0.079609,-0.060729,-0.017495,0.999985,-0.004611,-0.002847,-0.000069,0.166254,0.702571,0.201585,-0.661904,-154.104377,85.633809,56.070245
15830,-7.587156,-6.171712,-2.132794,-1.593583,5.919936,-1.899495,-0.765129,-0.532188,-0.092134,-0.075843,-0.061764,-0.021294,0.999989,-0.003826,-0.002661,-0.000461,0.169231,0.700067,0.203945,-0.663079,-152.127205,85.888799,58.493294
15831,-7.234833,-5.885224,-2.683328,-0.968526,5.978840,-2.230184,-0.598826,-0.448964,-0.170565,-0.072338,-0.058871,-0.026819,0.999993,-0.002994,-0.002245,-0.000853,0.171255,0.697888,0.206109,-0.664186,-149.522778,86.070777,61.448116
15832,-7.146393,-5.909183,-2.470866,-1.158875,5.893674,-2.328293,-0.361998,-0.326847,-0.268914,-0.071503,-0.059040,-0.024719,0.999996,-0.001810,-0.001634,-0.001345,0.172018,0.696206,0.207919,-0.665189,-146.419642,86.154920,64.767027
15833,-7.299177,-5.622271,-2.974792,-0.571246,5.888516,-2.148726,-0.155500,-0.239708,-0.364473,-0.073058,-0.056113,-0.029792,0.999997,-0.000777,-0.001199,-0.001822,0.171633,0.694890,0.209461,-0.666180,-142.838525,86.151339,68.445550
15834,-7.912763,-4.978646,-3.139419,-0.087668,5.365017,-1.538425,-0.008274,-0.138310,-0.501978,-0.079231,-0.049589,-0.031447,0.999997,-0.000041,-0.000692,-0.002510,0.170188,0.693888,0.211066,-0.667088,-138.898943,86.038519,72.399675
15835,-8.066560,-4.682290,-4.117235,0.928939,5.571909,-1.325318,0.034106,-0.052030,-0.655067,-0.080808,-0.046551,-0.041201,0.999995,0.000171,-0.000260,-0.003275,0.167976,0.693044,0.213142,-0.667866,-134.782655,85.809059,76.506822
15836,-8.047600,-4.181944,-9.482438,5.800646,7.869739,-1.061212,-0.022136,0.104926,-0.843221,-0.080701,-0.041490,-0.094777,0.999991,-0.000111,0.000525,-0.004216,0.165175,0.692466,0.216179,-0.668187,-131.112442,85.421661,80.201088
15837,-15.107844,1.641190,-17.503815,15.599706,6.384692,6.099756,-0.120823,0.565284,-1.146108,-0.151475,0.017174,-0.174621,0.999979,-0.000604,0.002826,-0.005730,0.161188,0.692998,0.220977,-0.667040,-129.163615,84.716648,82.226627
15838,-26.681870,-7.381357,7.397285,-10.599806,-0.131492,16.809525,1.438200,1.648337,-0.910413,-0.266534,-0.073140,0.075643,0.999930,0.007191,0.008241,-0.004552,0.151388,0.698600,0.220606,-0.663606,-132.093090,83.712201,78.454975
15839,-16.266256,-5.175793,0.617817,-3.439239,2.413146,6.743494,2.256663,-0.404101,-0.218379,-0.162730,-0.051643,0.005266,0.999934,0.011283,-0.002020,-0.001092,0.143254,0.698676,0.213524,-0.667636,-128.466284,83.772347,80.802819
15840,-2.693732,-0.976760,-0.096204,-0.432648,0.605758,-7.044050,2.008164,0.173265,-0.233577,-0.026950,-0.009726,-0.001036,0.999949,0.010041,0.000866,-0.001168,0.135316,0.700405,0.207708,-0.669313,-127.302484,83.612784,80.816774
15841,-2.763938,5.885618,6.749387,-3.228697,-8.620794,-8.054443,0.325358,-0.057044,-0.491727,-0.027514,0.058814,0.067582,0.999996,0.001627,-0.000285,-0.002459,0.132627,0.699915,0.208265,-0.670190,-125.426404,83.411263,82.517352
15842,-8.564897,7.146433,4.924722,-1.081291,-9.576264,-2.342333,-0.973240,0.451685,-0.762576,-0.085264,0.072029,0.049090,0.999978,-0.004866,0.002258,-0.003813,0.133055,0.699971,0.214447,-0.668094,-125.639445,82.912658,82.865041
15843,-13.910752,3.377225,-0.256449,1.667186,-4.570479,3.652467,-1.876306,0.248159,-0.867287,-0.138963,0.034350,-0.002712,0.999946,-0.009381,0.001241,-0.004336,0.136488,0.698579,0.223866,-0.665764,-125.378891,82.431557,84.211660
15844,-12.275855,-3.652688,-0.147615,-1.843701,1.556368,2.766577,-1.972673,-0.093516,-0.803694,-0.122903,-0.036046,-0.001176,0.999943,-0.009863,-0.000468,-0.004018,0.140854,0.695979,0.233119,-0.664402,-124.264404,82.091910,86.477736
15845,-7.684553,-9.062038,-0.482756,-4.332811,6.855492,-1.115950,-1.461194,-0.057825,-0.548130,-0.077092,-0.090441,-0.004189,0.999970,-0.007306,-0.000289,-0.002741,0.144218,0.694094,0.239796,-0.663274,-123.669186,81.855981,87.924352
15846,-6.041451,-10.200349,-1.980715,-3.703390,8.753068,-2.454844,-0.202305,0.314047,-0.377462,-0.060638,-0.101909,-0.019609,0.999996,-0.001012,0.001570,-0.001887,0.143343,0.694531,0.241958,-0.662220,-123.995216,81.583780,87.712567
15847,-7.603922,-7.574960,-2.666605,-1.732985,6.631148,-1.133139,0.965346,0.560115,-0.397059,-0.076264,-0.075469,-0.026817,0.999982,0.004827,0.002801,-0.001985,0.138033,0.696582,0.240501,-0.661724,-124.359469,81.221318,86.784818
15848,-9.098292,-3.206539,-2.465550,0.387474,2.551002,-0.195959,1.589494,0.626440,-0.383762,-0.091121,-0.031695,-0.024623,0.999962,0.007947,0.003132,-0.001919,0.130516,0.699260,0.236960,-0.661703,-124.545067,80.844068,85.675325
15849,-9.954786,-0.021492,-2.285418,1.834274,-0.472620,0.223882,1.614529,0.608253,-0.319136,-0.099617,0.000127,-0.022551,0.999962,0.008073,0.003041,-0.001596,0.123127,0.701918,0.233086,-0.661681,-124.739210,80.501543,84.541160
15850,-10.714404,1.601061,-1.686104,2.067499,-2.368986,0.690524,1.239106,0.500935,-0.330252,-0.107159,0.016290,-0.016492,0.999976,0.006195,0.002505,-0.001651,0.117145,0.703934,0.230407,-0.661564,-124.790158,80.189463,83.769753
15851,-10.478755,2.611993,-1.399582,2.275458,-3.412649,0.274996,0.590952,0.339415,-0.377626,-0.104761,0.026359,-0.013740,0.999992,0.002955,0.001697,-0.001888,0.113462,0.704959,0.229942,-0.661276,-124.665982,79.906883,83.552092
15852,-10.061644,2.623318,-1.562603,2.423794,-3.324141,-0.136150,-0.169629,0.192308,-0.398018,-0.100579,0.026420,-0.015552,0.999997,-0.000848,0.000962,-0.001990,0.112570,0.705036,0.231973,-0.660637,-124.557036,79.663792,83.762096
15853,-9.973072,1.049152,-1.730403,1.833595,-1.894118,0.016217,-0.798291,0.063930,-0.403602,-0.099715,0.010624,-0.017314,0.999990,-0.003991,0.000320,-0.002018,0.114014,0.704319,0.236029,-0.659716,-124.472626,79.458525,84.313041
15854,-9.671238,-1.447954,-2.130962,0.988448,0.484322,0.135115,-1.116928,-0.024075,-0.399604,-0.096739,-0.014405,-0.021241,0.999982,-0.005585,-0.000120,-0.001998,0.116705,0.703117,0.241061,-0.658708,-124.371912,79.284795,85.067296
15855,-9.234097,-3.494512,-2.614655,0.392007,2.530801,0.074570,-1.116670,-0.060916,-0.371289,-0.092398,-0.034919,-0.025980,0.999983,-0.005583,-0.000305,-0.001856,0.119517,0.701802,0.245968,-0.657791,-124.236634,79.134769,85.856358
15856,-8.831872,-4.631182,-2.404895,-0.382485,3.446104,-0.158089,-0.855464,-0.031701,-0.322623,-0.088390,-0.046272,-0.023865,0.999990,-0.004277,-0.000159,-0.001613,0.121545,0.700781,0.249850,-0.657045,-124.120653,78.999306,86.474361
15857,-8.782193,-4.808514,-1.893580,-0.935086,3.324532,-0.225854,-0.546145,0.016898,-0.254156,-0.087885,-0.048025,-0.018797,0.999995,-0.002731,0.000084,-0.001271,0.122640,0.700181,0.252508,-0.656464,-124.062078,78.879324,86.852914
15858,-9.056890,-4.102431,-1.448928,-0.968587,2.430657,-0.111641,-0.279136,0.051857,-0.188385,-0.090611,-0.040959,-0.014409,0.999999,-0.001396,0.000259,-0.000942,0.122981,0.699941,0.254074,-0.656053,-124.049168,78.780316,87.029706
15859,-9.198779,-2.984978,-1.043454,-0.745383,1.242142,-0.194065,-0.180308,0.063790,-0.123327,-0.092009,-0.029802,-0.010378,0.999999,-0.000902,0.000319,-0.000617,0.123164,0.699879,0.255100,-0.655685,-124.110578,78.707350,87.072455
15860,-9.491201,-2.117403,-0.681458,-0.612965,0.261204,-0.087117,-0.182357,0.066617,-0.089022,-0.094924,-0.021138,-0.006764,0.999999,-0.000912,0.000333,-0.000445,0.123472,0.699871,0.256010,-0.655282,-124.237886,78.650650,87.049733
15861,-9.422837,-1.371778,-0.532229,-0.356579,-0.435603,-0.292288,-0.228986,0.053409,-0.069297,-0.094235,-0.013691,-0.005281,0.999999,-0.001145,0.000267,-0.000346,0.124016,0.699813,0.256999,-0.654854,-124.388489,78.606641,87.029971
15862,-9.321970,-1.185253,-0.527908,-0.267345,-0.581058,-0.422611,-0.275965,0.065026,-0.047953,-0.093224,-0.011837,-0.005232,0.999999,-0.001380,0.000325,-0.000240,0.124787,0.699791,0.258071,-0.654309,-124.629734,78.569827,86.945699
15863,-9.467250,-1.268873,-0.611620,-0.248430,-0.503618,-0.257710,-0.245762,0.075088,-0.044060,-0.094678,-0.012675,-0.006065,0.999999,-0.001229,0.000375,-0.000220,0.125444,0.699824,0.259039,-0.653765,-124.879225,78.530589,86.834843
15864,-9.487100,-1.041929,-0.750598,-0.018817,-0.632505,-0.260010,-0.195196,0.097950,-0.049988,-0.094877,-0.010403,-0.007449,0.999999,-0.000976,0.000490,-0.000250,0.125883,0.699955,0.259873,-0.653209,-125.144578,78.481883,86.678714
15865,-9.538758,-0.711810,-0.604762,0.022724,-1.002034,-0.280861,-0.140785,0.128556,-0.059606,-0.095394,-0.007094,-0.005981,1.000000,-0.000704,0.000643,-0.000298,0.126052,0.700207,0.260586,-0.652623,-125.428345,78.417474,86.471442
15866,-9.526500,-0.645104,-0.653531,0.090725,-1.040406,-0.299183,-0.168612,0.132631,-0.073040,-0.095272,-0.006422,-0.006467,0.999999,-0.000843,0.000663,-0.000365,0.126278,0.700437,0.261434,-0.651993,-125.715686,78.346209,86.277255
15867,-9.731128,-0.639865,-0.725699,0.142540,-1.061263,-0.092385,-0.209063,0.155725,-0.091364,-0.097320,-0.006362,-0.007175,0.999999,-0.001045,0.000779,-0.000457,0.126547,0.700690,0.262497,-0.651241,-126.042121,78.257508,86.066249
15868,-9.675873,-0.753253,-1.079645,0.372233,-0.786805,-0.086543,-0.291250,0.154874,-0.123238,-0.096772,-0.007489,-0.010711,0.999998,-0.001456,0.000774,-0.000616,0.127010,0.700846,0.263934,-0.650401,-126.360970,78.155142,85.911547
15869,-9.517994,-1.105246,-1.265557,0.332563,-0.382316,-0.160816,-0.325518,0.160143,-0.137837,-0.095198,-0.011007,-0.012561,0.999998,-0.001628,0.000801,-0.000689,0.127528,0.700975,0.265540,-0.649506,-126.680244,78.043063,85.775894
15870,-9.349609,-1.557957,-1.022633,-0.124540,-0.118553,-0.280711,-0.260342,0.171970,-0.143461,-0.093516,-0.015526,-0.010126,0.999999,-0.001302,0.000860,-0.000717,0.127794,0.701176,0.266957,-0.648656,-126.977499,77.925241,85.625059
15871,-9.395091,-1.723634,-1.021037,-0.227929,-0.012507,-0.209095,-0.198132,0.197947,-0.147702,-0.093974,-0.017177,-0.010100,0.999999,-0.000991,0.000990,-0.000739,0.127783,0.701491,0.268207,-0.647801,-127.279983,77.795291,85.431803
15872,-9.513481,-1.467514,-1.139524,-0.004136,-0.208129,-0.121710,-0.138019,0.225210,-0.157776,-0.095159,-0.014608,-0.011278,0.999999,-0.000690,0.001126,-0.000789,0.127502,0.701920,0.269310,-0.646935,-127.586518,77.652090,85.199592
15873,-9.442644,-1.305120,-1.238109,0.155800,-0.298623,-0.206113,-0.108197,0.234065,-0.170688,-0.094452,-0.012977,-0.012264,0.999999,-0.000541,0.001170,-0.000853,0.127052,0.702376,0.270371,-0.646085,-127.864569,77.498644,84.978381
15874,-9.459970,-1.528614,-1.310382,0.082673,-0.106511,-0.141775,-0.063518,0.250903,-0.191204,-0.094631,-0.015200,-0.012980,0.999999,-0.000318,0.001255,-0.000956,0.126366,0.702886,0.271366,-0.645247,-128.115583,77.330823,84.759051
15875,-9.221600,-1.694722,-1.211054,-0.097196,0.002136,-0.359269,0.038122,0.259764,-0.185992,-0.092247,-0.016859,-0.011994,0.999999,0.000191,0.001299,-0.000930,0.125316,0.703493,0.272024,-0.644512,-128.325315,77.160973,84.521649
15876,-9.124560,-2.292801,-1.222257,-0.421421,0.493822,-0.347651,0.176041,0.289264,-0.160502,-0.091282,-0.022844,-0.012111,0.999998,0.000880,0.001446,-0.000803,0.123834,0.704316,0.272161,-0.643842,-128.550237,76.992894,84.187975
15877,-9.289898,-2.932541,-1.207688,-0.792854,0.947918,-0.074449,0.374289,0.329301,-0.158432,-0.092942,-0.029229,-0.011979,0.999997,0.001871,0.001647,-0.000792,0.121595,0.705389,0.271680,-0.643297,-128.731820,76.810118,83.781391
15878,-9.452604,-2.775191,-1.163328,-0.754579,0.730995,0.051537,0.554031,0.354977,-0.161258,-0.094569,-0.027644,-0.011542,0.999994,0.002770,0.001775,-0.000806,0.118687,0.706644,0.270640,-0.642901,-128.849528,76.617606,83.334828
15879,-9.475911,-2.311971,-1.241978,-0.444894,0.354529,0.003468,0.692601,0.372044,-0.161372,-0.094801,-0.023000,-0.012323,0.999992,0.003463,0.001860,-0.000807,0.115254,0.708025,0.269166,-0.642625,-128.908982,76.417765,82.865641
15880,-9.483152,-1.501624,-1.350593,0.069741,-0.295288,-0.121610,0.714185,0.373710,-0.160937,-0.094869,-0.014892,-0.013382,0.999992,0.003571,0.001869,-0.000805,0.111751,0.709414,0.267613,-0.642360,-128.954564,76.218356,82.398102
15881,-9.598099,-1.108242,-1.454234,0.350836,-0.632245,-0.068789,0.665725,0.362244,-0.163060,-0.096016,-0.010956,-0.014405,0.999992,0.003329,0.001811,-0.000815,0.108418,0.710725,0.266217,-0.642062,-128.994363,76.021113,81.964230
15882,-9.636558,-1.022082,-1.866505,0.736984,-0.545427,0.013348,0.577744,0.338429,-0.184603,-0.096406,-0.010078,-0.018531,0.999994,0.002889,0.001692,-0.000923,0.105368,0.711874,0.265160,-0.641735,-129.007312,75.823768,81.610149
15883,-9.473770,-1.184987,-2.125843,0.874670,-0.281252,-0.074544,0.542192,0.327896,-0.210093,-0.094785,-0.011693,-0.021135,0.999994,0.002711,0.001639,-0.001050,0.102366,0.712928,0.264302,-0.641405,-128.978671,75.617931,81.319177
15884,-9.370791,-1.431385,-2.019173,0.657581,-0.139823,-0.143895,0.585688,0.313080,-0.218827,-0.093755,-0.014152,-0.020087,0.999994,0.002928,0.001565,-0.001094,0.099209,0.713937,0.263322,-0.641181,-128.886733,75.414567,81.068131
15885,-9.539793,-1.758315,-2.107369,0.561798,0.096321,0.097676,0.618230,0.311807,-0.227647,-0.095451,-0.017410,-0.020979,0.999993,0.003091,0.001559,-0.001138,0.095898,0.714938,0.262269,-0.641001,-128.757204,75.206888,80.835877
15886,-9.547108,-1.659634,-2.049244,0.562010,-0.057230,0.075779,0.688691,0.305303,-0.253234,-0.095523,-0.016405,-0.020403,0.999992,0.003443,0.001527,-0.001266,0.092271,0.715908,0.261071,-0.640939,-128.543720,74.991205,80.649088
15887,-9.451407,-1.283744,-1.945944,0.663840,-0.441591,-0.110731,0.652996,0.284045,-0.271867,-0.094559,-0.012646,-0.019367,0.999993,0.003265,0.001420,-0.001359,0.088727,0.716758,0.260044,-0.640907,-128.288648,74.773981,80.525783
15888,-9.628678,-0.992453,-2.045512,0.886781,-0.730791,0.013804,0.542567,0.245984,-0.278487,-0.096326,-0.009735,-0.020363,0.999995,0.002713,0.001230,-0.001392,0.085618,0.717421,0.259371,-0.640862,-128.030409,74.568335,80.471868
15889,-9.605373,-1.199094,-2.302961,1.017415,-0.472208,0.073990,0.427510,0.195340,-0.292071,-0.096094,-0.011801,-0.022961,0.999996,0.002138,0.000977,-0.001460,0.082932,0.717847,0.259095,-0.640850,-127.738531,74.373492,80.520609
15890,-9.339156,-1.627415,-2.491697,0.997999,0.010199,-0.061758,0.355358,0.150089,-0.315154,-0.093436,-0.016083,-0.024876,0.999997,0.001777,0.000750,-0.001576,0.080499,0.718064,0.259109,-0.640910,-127.393772,74.184865,80.667957
15891,-9.179514,-1.859630,-2.214644,0.662235,0.089259,-0.211662,0.366001,0.154718,-0.334952,-0.091843,-0.018402,-0.022109,0.999997,0.001830,0.000774,-0.001675,0.077948,0.718269,0.259163,-0.640974,-127.029250,73.984391,80.828976
15892,-9.307614,-1.739300,-1.927782,0.472391,-0.213260,-0.163624,0.356936,0.139108,-0.341283,-0.093119,-0.017200,-0.019244,0.999997,0.001785,0.000696,-0.001706,0.075440,0.718410,0.259259,-0.641078,-126.647215,73.787042,81.014511
15893,-9.531822,-1.588435,-1.895304,0.517256,-0.456078,0.010511,0.324898,0.117345,-0.358608,-0.095358,-0.015683,-0.018923,0.999997,0.001624,0.000587,-0.001793,0.073008,0.718440,0.259512,-0.641223,-126.233081,73.587807,81.252085
15894,-9.595783,-1.520980,-1.922213,0.583780,-0.557631,0.058252,0.270423,0.084870,-0.372432,-0.095994,-0.015005,-0.019202,0.999997,0.001352,0.000424,-0.001862,0.070781,0.718326,0.259974,-0.641414,-125.794607,73.393580,81.548586
15895,-9.376080,-1.956471,-2.192149,0.645857,-0.042685,-0.008348,0.239472,0.059943,-0.371312,-0.093803,-0.019364,-0.021917,0.999998,0.001197,0.000300,-0.001857,0.068689,0.718117,0.260524,-0.641652,-125.341856,73.206561,81.878055
15896,-9.281573,-2.485581,-2.411490,0.618064,0.495311,0.062205,0.266134,0.052687,-0.380068,-0.092869,-0.024647,-0.024123,0.999997,0.001331,0.000263,-0.001900,0.066494,0.717881,0.261013,-0.641949,-124.864926,73.018050,82.217932
15897,-9.412222,-2.663054,-2.302559,0.456405,0.524967,0.212256,0.308238,0.042765,-0.388472,-0.094179,-0.026412,-0.023046,0.999997,0.001541,0.000214,-0.001942,0.064122,0.717609,0.261395,-0.642338,-124.345896,72.826964,82.576178
15898,-9.615162,-2.565085,-2.477263,0.673984,0.417982,0.411728,0.358923,0.021271,-0.401578,-0.096205,-0.025413,-0.024808,0.999996,0.001795,0.000106,-0.002008,0.061564,0.717266,0.261650,-0.642867,-123.764461,72.636504,82.970531
15899,-10.145746,-1.699039,-2.872992,1.430408,-0.352380,0.765899,0.313447,-0.046546,-0.425888,-0.101487,-0.016729,-0.028780,0.999996,0.001567,-0.000233,-0.002129,0.059169,0.716652,0.262118,-0.643586,-123.089503,72.453592,83.489838
15900,-10.799966,-0.654867,-3.233071,2.238053,-1.330248,1.175584,0.204552,-0.154374,-0.477512,-0.107990,-0.006258,-0.032421,0.999996,0.001023,-0.000772,-0.002388,0.057151,0.715588,0.263086,-0.644556,-122.279089,72.278096,84.218107
15901,-10.694969,0.190768,-3.071405,2.524509,-2.128786,0.814966,0.101695,-0.245764,-0.548222,-0.106906,0.002216,-0.030844,0.999995,0.000508,-0.001229,-0.002741,0.055380,0.714099,0.264612,-0.645737,-121.335591,72.091445,85.147952
15902,-9.716863,0.719886,-2.737540,2.542450,-2.456534,-0.329503,0.023189,-0.319190,-0.607159,-0.097102,0.007497,-0.027530,0.999994,0.000116,-0.001596,-0.003036,0.053810,0.712269,0.266577,-0.647081,-120.296310,71.893519,86.227794
15903,-9.514966,1.803906,-2.222284,2.630441,-3.566409,-0.919530,-0.113416,-0.346120,-0.671764,-0.095050,0.018346,-0.022398,0.999993,-0.000567,-0.001731,-0.003359,0.052539,0.710217,0.269205,-0.648352,-119.259350,71.664024,87.387934
15904,-10.515144,2.947541,-1.551099,2.599242,-5.170468,-0.422712,-0.308886,-0.333890,-0.791780,-0.105008,0.029867,-0.015732,0.999990,-0.001544,-0.001669,-0.003959,0.051570,0.707983,0.272889,-0.649332,-118.286538,71.365834,88.601421
15905,-11.595776,3.477017,-1.304575,2.697627,-6.114206,0.365306,-0.362761,-0.366742,-0.961633,-0.115765,0.035303,-0.013322,0.999985,-0.001814,-0.001834,-0.004808,0.050270,0.705375,0.277337,-0.650387,-117.197527,70.982090,89.971597
15906,-11.114972,2.722874,-1.290603,2.437043,-5.387006,0.069717,-0.392589,-0.333470,-1.076532,-0.110979,0.027801,-0.013145,0.999982,-0.001963,-0.001667,-0.005383,0.048671,0.702690,0.282282,-0.651287,-116.144922,70.524436,91.326084
15907,-10.869686,1.623109,-1.486692,2.191020,-4.368810,0.142539,-0.359151,-0.237633,-1.105607,-0.108587,0.016805,-0.015026,0.999982,-0.001796,-0.001188,-0.005528,0.046705,0.700255,0.287238,-0.651886,-115.242957,70.018730,92.502920
15908,-11.305667,0.971273,-1.915412,2.350241,-3.868508,0.767483,-0.162177,-0.113660,-1.105676,-0.112990,0.010322,-0.019227,0.999984,-0.000811,-0.000568,-0.005528,0.043891,0.698252,0.291566,-0.652309,-114.457954,69.479369,93.440156
15909,-12.016456,0.918657,-1.766201,2.272061,-4.237121,1.378456,0.121688,0.020743,-1.080807,-0.120114,0.009846,-0.017644,0.999985,0.000608,0.000104,-0.005404,0.039948,0.696760,0.294909,-0.652655,-113.750907,68.915365,94.121947
15910,-12.479184,2.166799,-1.153124,2.364242,-5.807415,1.252465,0.515035,0.137127,-0.977077,-0.124692,0.022307,-0.011389,0.999985,0.002575,0.000686,-0.004885,0.034825,0.695864,0.296614,-0.653131,-113.074721,68.378821,94.532757
15911,-12.358255,3.777393,-0.284238,2.337369,-7.566970,0.402618,0.848114,0.244845,-0.760559,-0.123441,0.038255,-0.002530,0.999983,0.004241,0.001224,-0.003803,0.029065,0.695672,0.296494,-0.653672,-112.489975,67.928844,94.639241
15912,-11.684758,4.173991,0.309231,1.935572,-7.976156,-0.502205,0.908124,0.357870,-0.480366,-0.116741,0.042005,0.003492,0.999985,0.004541,0.001789,-0.002402,0.023870,0.696257,0.295202,-0.653844,-112.181104,67.605153,94.412637
15913,-11.627547,4.687425,0.544081,1.893363,-8.536617,-0.812217,0.862307,0.396524,-0.279017,-0.116199,0.047012,0.005874,0.999988,0.004312,0.001983,-0.001395,0.019409,0.697236,0.293364,-0.653776,-112.049043,67.377631,94.020813
15914,-11.865065,5.492110,1.389444,1.422923,-9.680135,-1.029555,0.653260,0.315613,-0.111649,-0.118598,0.054941,0.014261,0.999993,0.003266,0.001578,-0.000558,0.016373,0.698168,0.291603,-0.653652,-112.021908,67.259773,93.646565
15915,-11.308645,5.329532,2.166292,0.584438,-9.656104,-1.602931,0.362650,0.142576,0.146916,-0.113110,0.053173,0.021840,0.999998,0.001813,0.000713,0.000735,0.015418,0.698876,0.289882,-0.653684,-112.069806,67.313244,93.369421
15916,-10.276619,4.593726,2.010325,0.358378,-8.562437,-2.242445,0.007810,-0.039750,0.527001,-0.102891,0.045665,0.020085,0.999997,0.000039,-0.000199,0.002635,0.017244,0.699514,0.287964,-0.653804,-112.292921,67.611285,93.125144
15917,-10.048787,3.100536,2.384804,-0.639312,-7.326094,-1.926144,-0.096112,-0.180431,0.920380,-0.100651,0.030554,0.023743,0.999989,-0.000481,-0.000902,0.004602,0.020886,0.700233,0.285006,-0.654224,-112.607743,68.144252,92.844783
15918,-10.160990,1.704685,2.123243,-1.016377,-6.004227,-1.235121,-0.193313,-0.298068,1.253705,-0.101746,0.016430,0.021065,0.999979,-0.000967,-0.001490,0.006268,0.026165,0.701014,0.281163,-0.654860,-113.030367,68.882869,92.511787
15919,-10.716668,1.276654,1.704468,-0.838468,-5.550220,-0.438692,-0.239551,-0.360021,1.508286,-0.107289,0.011978,0.016837,0.999969,-0.001198,-0.001800,0.007541,0.032486,0.701901,0.276570,-0.655582,-113.570985,69.764289,92.080699
15920,-11.419051,0.849875,1.406767,-0.776596,-5.154538,0.479088,-0.353119,-0.414205,1.640332,-0.114284,0.007586,0.013817,0.999963,-0.001766,-0.002071,0.008202,0.039752,0.702732,0.271842,-0.656269,-114.234245,70.730276,91.593070
15921,-11.897873,0.387518,0.779179,-0.439451,-4.482337,1.233976,-0.541170,-0.489391,1.663819,-0.119024,0.002906,0.007492,0.999959,-0.002706,-0.002447,0.008319,0.047814,0.703249,0.267628,-0.656909,-114.961570,71.719905,91.152419
15922,-11.914988,-0.590461,0.197922,-0.377664,-3.219600,1.669601,-0.733033,-0.540345,1.621433,-0.119102,-0.006864,0.001681,0.999957,-0.003665,-0.002702,0.008107,0.056518,0.703441,0.264140,-0.657424,-115.755410,72.702823,90.761891
15923,-11.738797,-1.862518,-0.483682,-0.368963,-1.596793,1.969212,-0.823787,-0.591037,1.556160,-0.117223,-0.019558,-0.005104,0.999957,-0.004119,-0.002955,0.007781,0.065347,0.703288,0.261161,-0.657960,-116.521624,73.658557,90.454577
15924,-11.102565,-3.025580,-0.860083,-0.600315,-0.070632,1.710880,-0.799321,-0.614849,1.493701,-0.110769,-0.031119,-0.008818,0.999959,-0.003997,-0.003074,0.007468,0.073951,0.702927,0.258272,-0.658575,-117.242444,74.592108,90.183339
15925,-10.084265,-3.977501,-0.835492,-1.102265,1.177346,0.939401,-0.728852,-0.623025,1.475560,-0.100519,-0.040548,-0.008522,0.999961,-0.003644,-0.003115,0.007378,0.082211,0.702481,0.255210,-0.659264,-117.942958,75.512839,89.890568
15926,-9.491940,-4.248075,-1.455885,-0.722352,2.002473,0.469752,-0.680282,-0.642402,1.486380,-0.094553,-0.043234,-0.014717,0.999961,-0.003401,-0.003212,0.007432,0.090395,0.701954,0.251902,-0.660026,-118.660400,76.448011,89.554767
15927,-9.321404,-4.215884,-1.216724,-0.958154,2.065611,0.234977,-0.569874,-0.633720,1.494555,-0.092856,-0.042889,-0.012340,0.999963,-0.002849,-0.003169,0.007473,0.098160,0.701458,0.248205,-0.660844,-119.411143,77.379043,89.119280
15928,-8.930132,-3.905750,-1.277827,-0.793202,2.070318,-0.235764,-0.564953,-0.638340,1.507957,-0.088962,-0.039766,-0.012951,0.999962,-0.002825,-0.003192,0.007540,0.105990,0.700916,0.244405,-0.661626,-120.268658,78.321128,88.575056
15929,-8.623216,-3.980999,-1.689740,-0.507743,2.541792,-0.520604,-0.610176,-0.598547,1.501067,-0.085879,-0.040507,-0.017032,0.999963,-0.003051,-0.002993,0.007505,0.113859,0.700417,0.240801,-0.662168,-121.357713,79.241548,87.821264
15930,-8.759373,-4.623981,-1.792045,-0.780104,3.262198,-0.322341,-0.594807,-0.537980,1.438220,-0.087210,-0.046921,-0.018017,0.999966,-0.002974,-0.002690,0.007191,0.121424,0.700003,0.237364,-0.662503,-122.676308,80.114104,86.829132
15931,-8.442248,-5.315578,-2.124148,-0.879937,4.207372,-0.562787,-0.554678,-0.502975,1.389485,-0.083997,-0.053799,-0.021304,0.999969,-0.002773,-0.002515,0.006947,0.128598,0.699624,0.233988,-0.662750,-124.187205,80.943367,85.619622
15932,-7.711645,-5.803766,-2.031027,-1.243823,4.819039,-1.297622,-0.422366,-0.459609,1.335125,-0.076680,-0.058593,-0.020363,0.999973,-0.002112,-0.002298,0.006676,0.135108,0.699370,0.230361,-0.662994,-125.917416,81.730938,84.115888
15933,-7.122545,-5.885071,-2.098624,-1.259187,5.114066,-1.936879,-0.303213,-0.396467,1.268286,-0.070809,-0.059332,-0.021037,0.999977,-0.001516,-0.001982,0.006341,0.140863,0.699291,0.226621,-0.663168,-127.936406,82.454399,82.252987
15934,-6.867038,-6.173731,-1.848956,-1.651683,5.364256,-2.250583,-0.202988,-0.309414,1.155914,-0.068283,-0.062152,-0.018532,0.999982,-0.001015,-0.001547,0.005780,0.145824,0.699416,0.222977,-0.663200,-130.290304,83.089742,79.999002
15935,-6.905322,-6.425313,-1.743638,-1.900112,5.604571,-2.263788,-0.107665,-0.256104,1.035269,-0.068697,-0.064619,-0.017490,0.999986,-0.000538,-0.001281,0.005176,0.149954,0.699628,0.219487,-0.663219,-132.804720,83.636982,77.529791
15936,-7.189433,-6.211714,-1.648744,-1.905097,5.417382,-2.065845,-0.052859,-0.214545,0.922966,-0.071589,-0.062452,-0.016548,0.999989,-0.000264,-0.001073,0.004615,0.153501,0.699878,0.216218,-0.663218,-135.483293,84.111059,74.867683
15937,-7.340430,-5.997632,-1.394967,-2.038613,5.158868,-2.000579,-0.003238,-0.203677,0.813316,-0.073145,-0.060274,-0.014023,0.999991,-0.000016,-0.001018,0.004067,0.156465,0.700069,0.213187,-0.663305,-138.118829,84.520906,72.221041
15938,-7.398565,-5.672369,-1.219309,-2.042312,4.847023,-2.019346,-0.014479,-0.198949,0.718337,-0.073769,-0.056990,-0.012262,0.999993,-0.000072,-0.000995,0.003592,0.159174,0.700154,0.210512,-0.663425,-140.750117,84.883418,69.588037
15939,-8.050758,-5.314375,-1.435109,-1.709909,4.647725,-1.410821,-0.089004,-0.192543,0.610365,-0.080331,-0.053395,-0.014405,0.999995,-0.000445,-0.000963,0.003052,0.161749,0.700079,0.208479,-0.663524,-143.224201,85.191219,67.155873
15940,-8.559368,-5.100430,-1.127007,-1.897768,4.319123,-0.964483,-0.117067,-0.189923,0.503395,-0.085454,-0.051226,-0.011321,0.999996,-0.000585,-0.000950,0.002517,0.164087,0.699871,0.206901,-0.663662,-145.442705,85.455358,64.998362
15941,-8.688485,-4.458025,-1.387201,-1.365007,3.931989,-0.870422,-0.203830,-0.194925,0.430644,-0.086775,-0.044781,-0.013911,0.999997,-0.001019,-0.000975,0.002153,0.166468,0.699495,0.205873,-0.663786,-147.459819,85.690043,63.092381
15942,-9.109563,-3.797336,-1.205366,-1.211853,3.280837,-0.505475,-0.276484,-0.175194,0.319194,-0.091024,-0.038135,-0.012081,0.999997,-0.001382,-0.000876,0.001596,0.168733,0.699005,0.205479,-0.663852,-149.085609,85.878584,61.622013
15943,-9.074832,-3.367258,-1.337584,-0.886670,3.009048,-0.558525,-0.358864,-0.185019,0.198378,-0.090702,-0.033787,-0.013399,0.999997,-0.001794,-0.000925,0.000992,0.170872,0.698286,0.205782,-0.663968,-149.965622,86.032629,60.945962
15944,-9.081452,-2.995149,-1.456067,-0.600449,2.769643,-0.564318,-0.415582,-0.161115,0.084590,-0.090790,-0.030020,-0.014571,0.999997,-0.002078,-0.000806,0.000423,0.172827,0.697476,0.206680,-0.664034,-150.224574,86.143482,60.925978
15945,-9.265650,-2.849434,-1.492836,-0.502988,2.662453,-0.386211,-0.409639,-0.129692,-0.026720,-0.092651,-0.028513,-0.014930,0.999998,-0.002048,-0.000648,-0.000134,0.174337,0.696657,0.207984,-0.664092,-149.757987,86.205178,61.628868
15946,-9.178710,-3.030859,-1.585296,-0.516558,2.869950,-0.461509,-0.333362,-0.082920,-0.123567,-0.091799,-0.030278,-0.015841,0.999998,-0.001667,-0.000415,-0.000618,0.175230,0.695957,0.209401,-0.664146,-148.742091,86.216436,62.839258
15947,-8.953994,-3.359786,-1.637383,-0.636168,3.178822,-0.667550,-0.195007,0.003273,-0.221515,-0.089577,-0.033515,-0.016340,0.999999,-0.000975,0.000016,-0.001108,0.175207,0.695559,0.210785,-0.664131,-147.304582,86.152750,64.391969
15948,-8.678222,-4.262803,-1.480151,-1.229851,3.860605,-0.910047,0.083774,0.064811,-0.287587,-0.086848,-0.042497,-0.014791,0.999999,0.000419,0.000324,-0.001438,0.173946,0.695539,0.211517,-0.664250,-145.614675,86.037462,66.038487
15949,-7.825296,-4.753931,-0.661514,-2.144174,3.881492,-1.774705,0.428761,0.175229,-0.335303,-0.078338,-0.047394,-0.006648,0.999996,0.002144,0.000876,-0.001677,0.171193,0.696132,0.211373,-0.664390,-144.013816,85.849995,67.397115
15950,-7.711746,-3.949894,-0.700446,-1.666595,3.201192,-1.904589,0.634170,0.227096,-0.377472,-0.077200,-0.039331,-0.007042,0.999993,0.003171,0.001135,-0.001887,0.167543,0.697021,0.210728,-0.664594,-142.427935,85.623055,68.623726
15951,-7.525859,-3.552813,0.120723,-2.135907,2.428406,-2.143513,0.745328,0.245536,-0.447639,-0.075336,-0.035364,0.001168,0.999990,0.003727,0.001228,-0.002238,0.163234,0.697978,0.209977,-0.664899,-140.600153,85.358773,70.028841
15952,-7.481777,-3.168941,-1.335327,-0.663696,2.809036,-2.100950,0.541653,0.207592,-0.513531,-0.074913,-0.031461,-0.013361,0.999992,0.002708,0.001038,-0.002568,0.159468,0.698561,0.210092,-0.665165,-138.575173,85.084322,71.750052
15953,-10.341302,-0.565137,-13.427779,11.033500,6.339737,1.396050,0.176412,0.181465,-0.762898,-0.103555,-0.005138,-0.134189,0.999992,0.000882,0.000907,-0.003814,0.156160,0.698493,0.212276,-0.665327,-135.702114,84.716333,74.533062
15954,-21.327461,-0.336065,-1.477272,0.502855,-1.046539,11.536657,0.053242,1.500849,-1.106540,-0.213392,-0.002177,-0.013172,0.999957,0.000266,0.007504,-0.005533,0.150744,0.702320,0.217084,-0.660982,-137.027565,83.663104,73.170906
15955,-26.965999,-10.348390,5.677999,-10.968348,3.170152,17.319184,1.918689,0.848345,-0.771786,-0.269817,-0.102989,0.056935,0.999938,0.009593,0.004242,-0.003859,0.140562,0.705685,0.214042,-0.660634,-136.061610,83.011820,73.036648
15956,-5.956909,-4.287276,-1.903718,-0.589146,3.945215,-3.364675,1.774193,-0.264273,-0.359101,-0.059620,-0.042594,-0.019495,0.999958,0.008871,-0.001321,-0.001795,0.133441,0.705641,0.209211,-0.663698,-133.015860,82.978173,75.081679
15957,-2.406189,3.205099,1.295335,0.277054,-3.703815,-7.826454,1.175577,0.186969,-0.301522,-0.024001,0.032010,0.013164,0.999981,0.005878,0.000935,-0.001508,0.128132,0.706712,0.206458,-0.664466,-132.054122,82.784284,75.372130
15958,-4.073216,3.626081,3.160240,-1.260329,-5.143384,-6.394549,0.146417,0.454107,-0.549031,-0.040561,0.036349,0.031721,0.999993,0.000732,0.002271,-0.002745,0.125369,0.707739,0.208159,-0.663368,-131.860963,82.383307,75.482874
15959,-10.684471,2.545978,-3.439787,3.867377,-2.102442,0.821900,-0.344737,0.519782,-0.880895,-0.106820,0.025871,-0.034165,0.999985,-0.001724,0.002599,-0.004404,0.123161,0.708316,0.212706,-0.661722,-131.264099,81.813931,76.284894
15960,-13.121801,-0.235701,-2.694177,1.838111,-0.438514,3.450935,-0.630381,0.323025,-0.973944,-0.131271,-0.001802,-0.026724,0.999982,-0.003152,0.001615,-0.004870,0.121876,0.707944,0.218393,-0.660504,-130.138339,81.277292,77.788809
15961,-10.907873,-5.556959,-1.778244,-1.393683,4.023503,1.801618,-0.680121,-0.034683,-0.749635,-0.109283,-0.055220,-0.017613,0.999987,-0.003401,-0.000173,-0.003748,0.121881,0.706583,0.223232,-0.660343,-128.693923,80.963974,79.645175
15962,-7.708688,-7.802211,-3.114523,-1.201361,7.033152,-0.919441,-0.263462,0.047749,-0.537949,-0.077304,-0.077855,-0.031024,0.999995,-0.001317,0.000239,-0.002690,0.121031,0.705974,0.225988,-0.660213,-127.808827,80.712128,80.695249
15963,-7.344911,-7.199133,-3.229421,-0.792818,6.574724,-1.306897,0.323074,0.263443,-0.518884,-0.073678,-0.071748,-0.032313,0.999994,0.001615,0.001317,-0.002594,0.117916,0.706445,0.226875,-0.659969,-127.262665,80.390386,81.061299
15964,-9.249258,-3.847562,-2.247314,-0.082926,2.834224,0.054570,0.675777,0.320783,-0.563435,-0.092636,-0.038139,-0.022454,0.999989,0.003379,0.001604,-0.002817,0.113351,0.707253,0.226782,-0.659936,-126.613867,80.028702,81.327300
15965,-10.197063,-0.668122,-2.443247,1.581541,-0.073485,0.574270,0.553180,0.217480,-0.504232,-0.102013,-0.006357,-0.024339,0.999992,0.002766,0.001087,-0.002521,0.109521,0.707703,0.226824,-0.660085,-125.909350,79.728049,81.721023
15966,-9.632160,0.024744,-1.587244,1.173340,-1.021197,-0.175327,0.206556,0.112502,-0.411844,-0.096330,0.000462,-0.015818,0.999997,0.001033,0.000563,-0.002059,0.107349,0.707716,0.227622,-0.660153,-125.336901,79.505433,82.183232
15967,-9.409483,-1.056284,-1.172526,0.320407,-0.262979,-0.280794,-0.070452,0.069127,-0.397529,-0.094120,-0.010380,-0.011689,0.999998,-0.000352,0.000346,-0.001988,0.106244,0.707449,0.229261,-0.660051,-124.856327,79.302326,82.713240
15968,-9.393844,-2.623294,-1.437383,-0.164312,1.191723,-0.027764,-0.166666,0.057904,-0.389595,-0.093993,-0.026062,-0.014325,0.999998,-0.000833,0.000290,-0.001948,0.105528,0.707102,0.231180,-0.659869,-124.438687,79.106626,83.236203
15969,-9.309567,-3.665794,-1.268831,-0.791491,2.004875,0.039721,-0.124797,0.057862,-0.345131,-0.093162,-0.036505,-0.012639,0.999998,-0.000624,0.000289,-0.001726,0.104800,0.706823,0.232806,-0.659712,-124.082891,78.930566,83.671503
15970,-9.364503,-3.947476,-0.844303,-1.294248,2.015880,0.099446,-0.005967,0.077634,-0.287144,-0.093705,-0.039341,-0.008405,0.999999,-0.000030,0.000388,-0.001436,0.103829,0.706739,0.233842,-0.659589,-123.815612,78.775975,83.947955
15971,-9.339015,-3.376055,-0.899574,-0.971474,1.524205,-0.006712,0.136611,0.092354,-0.231772,-0.093433,-0.033646,-0.008976,0.999999,0.000683,0.000462,-0.001159,0.102512,0.706840,0.234221,-0.659552,-123.593494,78.642186,84.094670
15972,-9.207652,-2.073563,-0.414852,-0.785153,0.177526,-0.399685,0.224602,0.114260,-0.187073,-0.092098,-0.020645,-0.004119,0.999999,0.001123,0.000571,-0.000935,0.101011,0.707110,0.234162,-0.659516,-123.449425,78.523311,84.110846
15973,-9.382602,-1.081273,0.104471,-0.787738,-0.972206,-0.450661,0.171855,0.134803,-0.150578,-0.093833,-0.010743,0.001099,0.999999,0.000859,0.000674,-0.000753,0.099787,0.707461,0.234159,-0.659327,-123.438320,78.414807,84.021717
15974,-9.445498,-0.518491,-0.000032,-0.440604,-1.443726,-0.474178,0.007052,0.141705,-0.133975,-0.094458,-0.005122,0.000066,1.000000,0.000035,0.000709,-0.000670,0.099198,0.707772,0.234642,-0.658909,-123.564391,78.312643,83.889332
15975,-9.476220,-0.515812,-0.290286,-0.189594,-1.338160,-0.414686,-0.102291,0.151463,-0.133685,-0.094768,-0.005096,-0.002828,0.999999,-0.000511,0.000757,-0.000668,0.098980,0.708060,0.235490,-0.658330,-123.770765,78.206834,83.738439
15976,-9.456611,-0.819651,-0.520476,-0.134530,-0.982755,-0.358256,-0.183146,0.152947,-0.129285,-0.094575,-0.008140,-0.005125,0.999999,-0.000916,0.000765,-0.000646,0.099067,0.708318,0.236587,-0.657646,-124.032625,78.103205,83.578558
15977,-9.444606,-1.113603,-0.828189,-0.008194,-0.602428,-0.285695,-0.203202,0.151345,-0.131224,-0.094460,-0.011082,-0.008199,0.999999,-0.001016,0.000757,-0.000656,0.099213,0.708555,0.237759,-0.656945,-124.293310,77.998339,83.431136
15978,-9.435458,-1.242725,-1.196062,0.246597,-0.338561,-0.230030,-0.186595,0.161688,-0.139966,-0.094373,-0.012372,-0.011873,0.999999,-0.000933,0.000808,-0.000700,0.099267,0.708825,0.238908,-0.656229,-124.553003,77.886581,83.275370
15979,-9.628766,-0.833737,-1.086640,0.326974,-0.800661,-0.125530,-0.196881,0.164481,-0.153381,-0.096303,-0.008274,-0.010779,0.999999,-0.000984,0.000822,-0.000767,0.099302,0.709079,0.240143,-0.655497,-124.798188,77.766725,83.139976
15980,-9.759745,-0.330943,-1.448876,0.871279,-1.116100,-0.042501,-0.289109,0.146001,-0.178228,-0.097611,-0.003243,-0.014413,0.999998,-0.001446,0.000730,-0.000891,0.099613,0.709197,0.241755,-0.654730,-125.017925,77.641889,83.085098
15981,-9.685757,0.169147,-1.470421,1.123737,-1.539642,-0.201687,-0.390598,0.121770,-0.209683,-0.096865,0.001764,-0.014649,0.999997,-0.001953,0.000609,-0.001048,0.100202,0.709143,0.243801,-0.653940,-125.192186,77.509504,83.135853
15982,-9.484652,0.644125,-1.463101,1.348954,-1.923935,-0.485686,-0.516612,0.082289,-0.234313,-0.094845,0.006515,-0.014609,0.999996,-0.002583,0.000411,-0.001172,0.101213,0.708863,0.246321,-0.653142,-125.320859,77.379502,83.307816
15983,-9.358380,0.413655,-1.533485,1.305478,-1.678715,-0.561763,-0.698594,0.077587,-0.248014,-0.093585,0.004199,-0.015313,0.999993,-0.003493,0.000388,-0.001240,0.102820,0.708450,0.249483,-0.652139,-125.521246,77.243954,83.512728
15984,-9.239515,-0.478038,-1.212583,0.593079,-1.057093,-0.560753,-0.756393,0.092947,-0.269888,-0.092407,-0.004701,-0.012065,0.999992,-0.003782,0.000465,-0.001349,0.104550,0.708021,0.252911,-0.651009,-125.757203,77.094180,83.715822
15985,-9.142036,-1.575720,-0.720893,-0.380144,-0.360522,-0.522648,-0.709356,0.115314,-0.286136,-0.091447,-0.015652,-0.007101,0.999993,-0.003547,0.000577,-0.001431,0.106020,0.707656,0.256255,-0.649859,-125.984381,76.928624,83.899813
15986,-9.186076,-2.403623,-0.556448,-0.949683,0.220332,-0.351162,-0.613181,0.156942,-0.265933,-0.091897,-0.023931,-0.005419,0.999994,-0.003066,0.000785,-0.001330,0.107172,0.707495,0.259230,-0.648664,-126.270281,76.759497,83.967630
15987,-9.144883,-2.919399,-0.582470,-1.203661,0.643598,-0.292819,-0.465054,0.210531,-0.253988,-0.091492,-0.029091,-0.005661,0.999996,-0.002325,0.001053,-0.001270,0.107757,0.707595,0.261712,-0.647461,-126.586859,76.576775,83.916152
15988,-9.217347,-3.260758,-0.139052,-1.778352,0.660558,-0.220381,-0.189759,0.288048,-0.249899,-0.092216,-0.032494,-0.001227,0.999998,-0.000949,0.001440,-0.001249,0.107289,0.708095,0.263325,-0.646336,-126.897207,76.370229,83.709353
15989,-9.377417,-3.277744,-0.089419,-1.849889,0.576602,-0.069338,0.062649,0.358927,-0.251616,-0.093817,-0.032659,-0.000736,0.999998,0.000313,0.001795,-0.001258,0.105819,0.708954,0.264168,-0.645292,-127.182671,76.137259,83.378549
15990,-9.545303,-2.936429,-0.640824,-1.221237,0.483961,0.108013,0.265233,0.412191,-0.255648,-0.095503,-0.029234,-0.006250,0.999996,0.001326,0.002061,-0.001278,0.103555,0.710083,0.264396,-0.644324,-127.435793,75.884480,82.961575
15991,-9.482592,-2.407112,-1.358500,-0.345744,0.364268,0.051737,0.417786,0.440583,-0.265392,-0.094887,-0.023917,-0.013426,0.999995,0.002089,0.002203,-0.001327,0.100671,0.711363,0.264182,-0.643457,-127.625266,75.616084,82.519147
15992,-9.534817,-1.812449,-1.789878,0.313570,0.013912,0.051522,0.557442,0.457712,-0.286119,-0.095415,-0.017938,-0.017731,0.999992,0.002787,0.002289,-0.001431,0.097208,0.712731,0.263595,-0.642715,-127.727437,75.332877,82.084128
15993,-9.512216,-1.016318,-2.413972,1.242535,-0.405630,-0.033439,0.576683,0.434089,-0.308370,-0.095190,-0.009947,-0.023962,0.999992,0.002883,0.002170,-0.001542,0.093626,0.713993,0.263013,-0.642084,-127.737236,75.046902,81.732256
15994,-9.455805,-0.386291,-2.545541,1.660876,-0.916380,-0.197975,0.499858,0.403728,-0.321619,-0.094615,-0.003647,-0.025274,0.999994,0.002499,0.002019,-0.001608,0.090324,0.715095,0.262704,-0.641458,-127.718244,74.766432,81.455802
15995,-9.515045,-0.428618,-2.503823,1.591636,-0.968808,-0.142280,0.303475,0.356755,-0.348668,-0.095202,-0.004082,-0.024875,0.999996,0.001517,0.001784,-0.001743,0.087689,0.715914,0.263100,-0.640747,-127.693166,74.489332,81.301512
15996,-9.705969,-0.775911,-2.746678,1.618313,-0.662955,0.151923,0.064817,0.296155,-0.393763,-0.097115,-0.007559,-0.027325,0.999997,0.000324,0.001481,-0.001969,0.085852,0.716370,0.264391,-0.639954,-127.650523,74.213913,81.307824
15997,-9.458060,-0.957936,-2.574996,1.386371,-0.567923,-0.078294,-0.109475,0.225524,-0.428524,-0.094630,-0.009391,-0.025638,0.999997,-0.000547,0.001128,-0.002143,0.084611,0.716475,0.266336,-0.639195,-127.551717,73.946516,81.475829
15998,-9.167000,-1.529919,-2.103695,0.706028,-0.265945,-0.313702,-0.183680,0.202090,-0.430349,-0.091724,-0.015121,-0.020930,0.999997,-0.000918,0.001010,-0.002152,0.083672,0.716467,0.268510,-0.638417,-127.463391,73.687298,81.678055
15999,-9.235180,-2.580188,-1.889317,-0.001320,0.456512,-0.050165,-0.164285,0.199568,-0.438879,-0.092427,-0.025615,-0.018780,0.999997,-0.000821,0.000998,-0.002194,0.082628,0.716443,0.270653,-0.637675,-127.352245,73.424068,81.892116
16000,-9.474492,-3.165799,-1.810008,-0.367968,0.796228,0.301402,0.022632,0.218968,-0.462808,-0.094838,-0.031437,-0.018000,0.999997,0.000113,0.001095,-0.002314,0.080822,0.716522,0.272288,-0.637121,-127.144339,73.143930,82.096346
16001,-9.323028,-3.152207,-1.937999,-0.236999,0.836175,0.180085,0.243394,0.239351,-0.471419,-0.093327,-0.031279,-0.019307,0.999996,0.001217,0.001197,-0.002357,0.078160,0.716737,0.273261,-0.636794,-126.835875,72.851660,82.273112
16002,-9.217293,-2.566432,-1.920709,0.051243,0.315190,-0.059127,0.437969,0.272492,-0.469634,-0.092259,-0.025406,-0.019137,0.999994,0.002190,0.001362,-0.002348,0.074769,0.717131,0.273615,-0.636607,-126.477682,72.549432,82.386118
16003,-9.130199,-1.854575,-2.154570,0.617821,-0.204580,-0.272335,0.505431,0.278181,-0.472618,-0.091375,-0.018276,-0.021465,0.999993,0.002527,0.001391,-0.002363,0.071108,0.717553,0.273767,-0.636485,-126.091811,72.242828,82.487160
16004,-9.190419,-1.506438,-2.374119,0.986774,-0.472308,-0.264257,0.474291,0.261972,-0.468704,-0.091970,-0.014793,-0.023656,0.999994,0.002371,0.001310,-0.002344,0.067603,0.717909,0.273992,-0.636368,-125.714927,71.944135,82.598335
16005,-9.292697,-1.759383,-2.725193,1.181080,-0.191210,-0.043117,0.372161,0.228958,-0.490206,-0.093001,-0.017315,-0.027178,0.999995,0.001861,0.001145,-0.002451,0.064430,0.718087,0.274607,-0.636231,-125.333596,71.645338,82.775323
16006,-9.267022,-2.286333,-2.791614,1.004612,0.232206,0.078453,0.331118,0.193452,-0.523194,-0.092756,-0.022575,-0.027864,0.999995,0.001656,0.000967,-0.002616,0.061359,0.718089,0.275454,-0.636167,-124.905227,71.343257,83.027736
16007,-9.116842,-2.552072,-2.605283,0.739583,0.365034,-0.028167,0.362259,0.174828,-0.522497,-0.091257,-0.025235,-0.026019,0.999995,0.001811,0.000874,-0.002612,0.058192,0.718031,0.276194,-0.636209,-124.442549,71.046099,83.297273
16008,-9.145311,-2.884195,-2.278646,0.315985,0.438425,0.028815,0.451951,0.172670,-0.506839,-0.091545,-0.028559,-0.022772,0.999994,0.002260,0.000863,-0.002534,0.054766,0.718009,0.276586,-0.636367,-123.953890,70.757181,83.541152
16009,-9.318061,-2.999117,-2.422373,0.408532,0.484702,0.251441,0.534226,0.173316,-0.524571,-0.093280,-0.029682,-0.024222,0.999993,0.002671,0.000867,-0.002623,0.050976,0.717976,0.276779,-0.636636,-123.411719,70.458058,83.791465
16010,-9.545339,-2.407659,-2.424284,0.704926,-0.149522,0.300064,0.660213,0.178739,-0.585628,-0.095545,-0.023717,-0.024236,0.999990,0.003301,0.000894,-0.002928,0.046541,0.717897,0.276785,-0.637062,-122.766449,70.127891,84.075875
16011,-11.194958,-0.542599,-3.468118,2.462204,-1.915378,1.497373,0.630634,0.067034,-0.660323,-0.111978,-0.004947,-0.034660,0.999990,0.003153,0.000335,-0.003302,0.042118,0.717335,0.277123,-0.637855,-121.941213,69.793800,84.569711
16012,-12.207328,1.563024,-2.741995,2.774768,-4.427722,1.662296,0.679974,-0.030878,-0.799778,-0.122005,0.016211,-0.027384,0.999986,0.003400,-0.000154,-0.003999,0.037219,0.716264,0.277775,-0.639079,-120.873144,69.418864,85.294446
16013,-11.109200,3.862898,-3.363700,4.439467,-5.817501,-0.009769,0.575700,-0.229822,-0.920019,-0.110874,0.039236,-0.033652,0.999985,0.002878,-0.001149,-0.004600,0.032574,0.714347,0.279148,-0.640877,-119.545587,69.035655,86.361538
16014,-9.306504,4.056738,-2.574782,3.910327,-5.736884,-1.970883,0.507311,-0.187238,-1.066773,-0.092823,0.041128,-0.025731,0.999982,0.002537,-0.000936,-0.005334,0.027656,0.712331,0.281259,-0.642427,-118.255468,68.559676,87.434679
16015,-9.590466,3.927746,-1.524129,2.956048,-6.235692,-1.932108,0.341493,-0.140633,-1.282650,-0.095639,0.039917,-0.015241,0.999978,0.001707,-0.000703,-0.006413,0.022554,0.710106,0.284670,-0.643586,-117.026749,67.952115,88.546883
16016,-11.655576,3.304336,-1.701112,2.894875,-6.526462,0.121440,0.162059,-0.076084,-1.534619,-0.116291,0.033950,-0.017028,0.999970,0.000810,-0.000380,-0.007673,0.017203,0.707678,0.289541,-0.644252,-115.893811,67.192023,89.673431
16017,-14.333842,2.699133,-1.146907,2.224731,-7.442872,2.585225,0.144703,-0.033137,-1.789580,-0.143087,0.028281,-0.011473,0.999960,0.000724,-0.000166,-0.008948,0.011012,0.704965,0.295358,-0.644722,-114.751029,66.279389,90.827095
16018,-15.417459,2.607565,-1.338812,2.485104,-7.934508,3.497086,0.083153,-0.022054,-1.928980,-0.153912,0.027567,-0.013394,0.999953,0.000416,-0.000110,-0.009645,0.004592,0.702022,0.301835,-0.645011,-113.673112,65.284659,91.958343
16019,-14.937336,2.435761,-1.353221,2.535518,-7.809666,2.972509,0.058404,0.109319,-1.929325,-0.149136,0.025801,-0.013443,0.999953,0.000292,0.000547,-0.009646,-0.001962,0.699432,0.308374,-0.644746,-112.835301,64.250401,92.847526
16020,-14.135259,2.826051,-1.226878,2.662770,-8.036804,1.918085,0.047092,0.247590,-1.807587,-0.141105,0.029539,-0.012087,0.999958,0.000235,0.001238,-0.009038,-0.008272,0.697420,0.314487,-0.643921,-112.271165,63.248139,93.448254
16021,-13.579757,3.440675,-0.543518,2.352281,-8.731808,0.899991,0.170214,0.350333,-1.574148,-0.135530,0.035479,-0.005168,0.999967,0.000851,0.001752,-0.007871,-0.014446,0.696044,0.319370,-0.642897,-111.875592,62.343007,93.783394
16022,-12.765554,3.804376,0.253250,1.788596,-9.099861,-0.247765,0.230836,0.389853,-1.226565,-0.127414,0.038823,0.002826,0.999979,0.001154,0.001949,-0.006133,-0.019746,0.695314,0.322821,-0.641821,-111.646112,61.616630,93.895592
16023,-11.946935,4.267641,0.188891,2.020578,-9.152501,-1.261335,0.167378,0.338115,-0.800369,-0.119294,0.043152,0.002127,0.999990,0.000837,0.001691,-0.004002,-0.023403,0.695086,0.324996,-0.640847,-111.570199,61.125051,93.872856
16024,-11.557009,5.153330,0.720323,1.891808,-9.920195,-2.154315,0.096479,0.228205,-0.349536,-0.115471,0.051732,0.007360,0.999998,0.000482,0.001141,-0.001748,-0.025157,0.695244,0.325831,-0.640185,-111.603971,60.900368,93.773333
16025,-11.506872,5.138855,1.540238,1.128061,-10.211994,-2.354075,0.024794,0.069123,0.099223,-0.115089,0.051330,0.015449,1.000000,0.000124,0.000346,0.000496,-0.025000,0.695625,0.325365,-0.640014,-111.693100,60.944711,93.655132
16026,-11.499851,4.038844,1.784415,0.430540,-9.414641,-1.880357,-0.081840,-0.056468,0.481171,-0.115100,0.040119,0.017795,0.999997,-0.000409,-0.000282,0.002406,-0.023007,0.696244,0.323914,-0.640152,-111.873583,61.222935,93.504958
16027,-11.557710,2.856539,1.561962,0.119904,-8.372426,-1.206435,-0.098539,-0.153807,0.775974,-0.115699,0.028124,0.015517,0.999992,-0.000493,-0.000769,0.003880,-0.019893,0.697015,0.321510,-0.640629,-112.085149,61.674319,93.328414
16028,-11.683479,2.470316,1.677793,-0.163458,-8.090239,-0.871705,-0.116914,-0.251705,1.014520,-0.116979,0.024120,0.016617,0.999986,-0.000585,-0.001259,0.005073,-0.015751,0.697850,0.318321,-0.641428,-112.316880,62.277698,93.144291
16029,-11.604068,2.339823,2.090847,-0.611990,-8.006681,-0.867438,-0.243316,-0.354282,1.227686,-0.116218,0.022710,0.020675,0.999979,-0.001217,-0.001771,0.006138,-0.010362,0.698673,0.314806,-0.642376,-112.612791,63.011415,92.968127
16030,-11.504584,1.788256,1.723636,-0.529427,-7.251335,-0.557438,-0.477736,-0.480283,1.423881,-0.115210,0.017103,0.016918,0.999969,-0.002389,-0.002401,0.007119,-0.003280,0.699381,0.311330,-0.643374,-113.015096,63.881252,92.826884
16031,-11.077047,0.569879,1.229394,-0.627619,-5.738729,-0.262428,-0.650351,-0.591880,1.588301,-0.110847,0.004858,0.011949,0.999959,-0.003252,-0.002959,0.007941,0.005063,0.699931,0.307831,-0.644446,-113.486756,64.857364,92.717089
16032,-10.699819,-0.552044,0.755300,-0.713858,-4.309407,-0.000570,-0.777079,-0.687354,1.742157,-0.106970,-0.006424,0.007209,0.999949,-0.003885,-0.003437,0.008711,0.014539,0.700347,0.304151,-0.645596,-114.026533,65.941100,92.615571
16033,-10.277704,-1.607852,0.456583,-0.947299,-2.968197,0.122798,-0.825103,-0.746050,1.889914,-0.102635,-0.017031,0.004252,0.999940,-0.004125,-0.003730,0.009449,0.024700,0.700711,0.300090,-0.646792,-114.629521,67.110001,92.473641
16034,-10.066270,-2.175322,-0.274788,-0.590451,-1.906502,0.294233,-0.887940,-0.811430,2.037035,-0.100422,-0.022790,-0.003056,0.999930,-0.004440,-0.004057,0.010185,0.035700,0.700988,0.295648,-0.648023,-115.316619,68.375955,92.283327
16035,-9.650421,-3.196122,-0.663258,-0.769135,-0.523904,0.332025,-0.927362,-0.852737,2.151718,-0.096124,-0.033028,-0.006891,0.999922,-0.004637,-0.004264,0.010758,0.047218,0.701185,0.290901,-0.649220,-116.095021,69.704832,92.018837
16036,-9.565203,-3.771799,-1.289755,-0.544797,0.496498,0.523388,-0.854053,-0.899335,2.250650,-0.095160,-0.038847,-0.013162,0.999917,-0.004270,-0.004497,0.011253,0.058908,0.701282,0.285490,-0.650561,-116.910529,71.100468,91.674919
16037,-9.357386,-4.417581,-1.662377,-0.590981,1.517149,0.540210,-0.787508,-0.914444,2.303792,-0.092979,-0.045315,-0.016873,0.999915,-0.003937,-0.004572,0.011519,0.070501,0.701303,0.279645,-0.651922,-117.792027,72.519723,91.222090
16038,-9.190280,-4.992604,-1.788469,-0.828226,2.356853,0.499410,-0.703842,-0.902538,2.321246,-0.091233,-0.051051,-0.018119,0.999916,-0.003519,-0.004513,0.011606,0.081876,0.701300,0.273400,-0.653243,-118.782586,73.947508,90.610954
16039,-8.963010,-5.280650,-2.109158,-0.760246,3.059595,0.322618,-0.638862,-0.876094,2.309195,-0.088919,-0.053904,-0.021311,0.999919,-0.003194,-0.004380,0.011546,0.092887,0.701275,0.266973,-0.654454,-119.919081,75.352919,89.812114
16040,-8.793281,-5.389108,-2.148946,-0.849721,3.452744,0.103624,-0.590890,-0.830994,2.273536,-0.087222,-0.054949,-0.021692,0.999922,-0.002954,-0.004155,0.011367,0.103583,0.701260,0.260471,-0.655484,-121.286278,76.727871,88.754303
16041,-8.369672,-5.656058,-2.316889,-0.907260,4.082478,-0.330312,-0.615516,-0.799146,2.228160,-0.082966,-0.057559,-0.023325,0.999925,-0.003078,-0.003996,0.011141,0.114114,0.701169,0.254206,-0.656292,-122.943117,78.058743,87.418054
16042,-7.566461,-6.242038,-2.238630,-1.336746,4.909973,-1.133604,-0.568163,-0.722411,2.187197,-0.074894,-0.063306,-0.022479,0.999930,-0.002841,-0.003612,0.010936,0.124273,0.701202,0.247915,-0.656818,-125.073653,79.340161,85.579427
16043,-7.185381,-6.715882,-2.441142,-1.470367,5.666534,-1.541297,-0.459741,-0.640043,2.156438,-0.071045,-0.067984,-0.024484,0.999934,-0.002299,-0.003200,0.010782,0.133790,0.701439,0.241414,-0.657118,-127.821413,80.558188,83.056558
16044,-7.292092,-7.273521,-2.470501,-1.800081,6.310732,-1.499319,-0.270287,-0.532963,2.076490,-0.072094,-0.073520,-0.024799,0.999942,-0.001351,-0.002665,0.010382,0.142272,0.701968,0.234592,-0.657241,-131.346392,81.680488,79.647537
16045,-7.487561,-7.709597,-2.184672,-2.329723,6.673523,-1.427776,-0.074341,-0.440793,1.942928,-0.074074,-0.077826,-0.021982,0.999950,-0.000372,-0.002204,0.009714,0.149465,0.702707,0.227655,-0.657295,-135.646555,82.668361,75.350176
16046,-7.538646,-8.035321,-2.196270,-2.528663,7.107674,-1.487759,0.159312,-0.356529,1.810341,-0.074616,-0.081013,-0.022161,0.999957,0.000797,-0.001783,0.009052,0.155328,0.703680,0.220439,-0.657354,-140.865946,83.521587,70.002546
16047,-7.721642,-7.848458,-2.601234,-2.112338,7.281868,-1.416384,0.356399,-0.318077,1.657064,-0.076521,-0.079074,-0.026275,0.999963,0.001782,-0.001590,0.008285,0.159902,0.704707,0.213145,-0.657562,-146.838616,84.235185,63.790467
16048,-7.627092,-7.873118,-2.005612,-2.633683,7.147797,-1.679346,0.550470,-0.257581,1.493023,-0.075655,-0.079242,-0.020371,0.999968,0.002752,-0.001288,0.007465,0.163209,0.705863,0.205807,-0.657847,-153.563319,84.797162,56.719631
16049,-7.569600,-7.393893,-2.417390,-2.019541,7.068798,-1.827457,0.694678,-0.215844,1.348009,-0.075169,-0.074362,-0.024513,0.999971,0.003473,-0.001079,0.006740,0.165446,0.707082,0.198545,-0.658212,-160.818143,85.216035,49.037795
16050,-7.686084,-6.560357,-2.087676,-1.871927,6.285510,-1.846544,0.859814,-0.144292,1.192439,-0.076453,-0.065969,-0.021215,0.999973,0.004299,-0.000721,0.005962,0.166534,0.708476,0.191322,-0.658577,-168.252510,85.484169,41.086022
16051,-7.628862,-5.987154,-1.972168,-1.660873,5.827976,-1.988993,0.867400,-0.123834,1.039274,-0.075964,-0.060180,-0.020029,0.999977,0.004337,-0.000619,0.005196,0.167034,0.709763,0.184639,-0.658972,-175.292518,85.643286,33.526482
16052,-7.557529,-5.581442,-2.067108,-1.352712,5.602902,-2.110828,0.773913,-0.115643,0.922385,-0.075305,-0.056081,-0.020931,0.999982,0.003870,-0.000578,0.004612,0.167492,0.710860,0.178665,-0.659320,178.052678,85.725840,26.409300
16053,-7.202578,-5.731916,-1.740976,-1.662478,5.661199,-2.536049,0.766584,-0.055202,0.779066,-0.071797,-0.057532,-0.017650,0.999985,0.003833,-0.000276,0.003895,0.167419,0.711999,0.173282,-0.659547,172.427375,85.722412,20.327913
16054,-8.655191,-4.679512,-2.853933,-0.271827,5.268078,-1.030415,0.621599,-0.032131,0.604100,-0.086406,-0.046967,-0.028699,0.999991,0.003108,-0.000161,0.003020,0.167283,0.712923,0.169003,-0.659693,168.084824,85.683597,15.617033
16055,-9.814789,-4.466896,-1.659145,-1.299969,4.548286,0.018845,0.696474,0.019461,0.412463,-0.098057,-0.044813,-0.016738,0.999992,0.003482,0.000097,0.002062,0.166179,0.713906,0.165212,-0.659870,165.412970,85.619777,12.537300
16056,-10.090184,-4.077271,-2.192997,-0.655905,4.472973,0.326712,0.553860,0.004872,0.270732,-0.100847,-0.040848,-0.022041,0.999995,0.002769,0.000024,0.001354,0.165146,0.714595,0.162373,-0.660087,163.686946,85.576494,10.488854
16057,-10.077506,-3.736838,-2.495551,-0.218970,4.320678,0.337763,0.473532,0.037398,0.097355,-0.100762,-0.037358,-0.025025,0.999997,0.002368,0.000187,0.000487,0.163781,0.715180,0.160455,-0.660264,163.270132,85.540970,9.798686
16058,-10.128972,-3.403623,-2.267568,-0.261423,3.917418,0.380842,0.474399,0.040582,-0.092745,-0.101310,-0.033935,-0.022736,0.999997,0.002372,0.000203,-0.000464,0.161799,0.715619,0.159206,-0.660579,164.173286,85.534119,10.432832
16059,-10.247902,-3.130876,-2.729912,0.284615,3.854500,0.547621,0.394912,0.042471,-0.271116,-0.102527,-0.031116,-0.027339,0.999997,0.001975,0.000212,-0.001356,0.159492,0.715854,0.158868,-0.660967,166.328790,85.551205,12.367952
