PacketCounter,Acc_X,Acc_Y,Acc_Z,FreeAcc_E,FreeAcc_N,FreeAcc_U,Gyr_X,Gyr_Y,Gyr_Z,VelInc_X,VelInc_Y,VelInc_Z,OriInc_q0,OriInc_q1,OriInc_q2,OriInc_q3,Quat_q0,Quat_q1,Quat_q2,Quat_q3,Roll,Pitch,Yaw
53628,-1.563832,1.723053,9.636073,0.031434,-0.178482,0.098697,0.046939,0.009868,0.111762,-0.015643,0.017199,0.096366,1.000000,0.000235,0.000049,0.000559,-0.948442,-0.069480,-0.100501,-0.292454,11.113876,8.626916,35.115415
53629,-1.573661,1.728377,9.587377,0.012486,-0.184390,0.053787,0.100246,0.001569,0.133540,-0.015747,0.017225,0.095883,1.000000,0.000501,0.000008,0.000668,-0.948197,-0.069996,-0.100577,-0.293100,11.179495,8.609644,35.198277
53630,-1.578524,1.714924,9.513421,0.004582,-0.205553,-0.020059,0.150932,0.007942,0.156548,-0.015795,0.017065,0.095148,0.999999,0.000755,0.000040,0.000783,-0.947896,-0.070753,-0.100752,-0.293830,11.276082,8.593661,35.294828
53631,-1.662137,1.936063,9.539851,-0.167835,-0.091892,0.060668,0.204212,0.010036,0.168288,-0.016633,0.019249,0.095419,0.999999,0.001021,0.000050,0.000841,-0.947557,-0.071768,-0.101008,-0.294590,11.404303,8.576954,35.398330
53632,-1.698192,2.044576,9.639023,-0.223073,-0.051439,0.183435,0.193773,-0.003057,0.176165,-0.017001,0.020337,0.096410,0.999999,0.000969,-0.000015,0.000881,-0.947214,-0.072754,-0.101187,-0.295386,11.526828,8.552177,35.504671
53633,-1.693229,2.093800,9.582663,-0.251629,-0.024236,0.137916,0.179944,-0.023329,0.181322,-0.016962,0.020836,0.095843,0.999999,0.000900,-0.000117,0.000907,-0.946878,-0.073709,-0.101244,-0.296207,11.641560,8.514808,35.611602
53634,-1.567968,2.035619,9.481628,-0.137211,-0.010991,0.009968,0.167112,-0.025778,0.189471,-0.015711,0.020262,0.094831,0.999999,0.000836,-0.000129,0.000947,-0.946534,-0.074608,-0.101270,-0.297071,11.749398,8.475334,35.722700
53635,-1.609342,1.928878,9.399944,-0.125418,-0.134749,-0.084606,0.186397,-0.021128,0.202902,-0.016123,0.019185,0.094016,0.999999,0.000932,-0.000106,0.001015,-0.946159,-0.075601,-0.101339,-0.297991,11.869497,8.436254,35.841956
53636,-1.817587,1.724106,9.442894,-0.160597,-0.449651,-0.054801,0.277988,-0.024769,0.245794,-0.018209,0.017087,0.094451,0.999998,0.001390,-0.000124,0.001229,-0.945684,-0.077052,-0.101514,-0.299064,12.045366,8.390170,35.984878
53637,-1.870591,1.683096,9.384219,-0.179822,-0.545856,-0.113977,0.439316,-0.067547,0.318649,-0.018764,0.016595,0.093872,0.999996,0.002197,-0.000338,0.001593,-0.945055,-0.079369,-0.101696,-0.300382,12.318809,8.310331,36.163690
53638,-1.634016,2.129394,9.310684,-0.235252,-0.094409,-0.126173,0.595100,-0.108598,0.388857,-0.016432,0.020985,0.093161,0.999994,0.002975,-0.000543,0.001944,-0.944270,-0.082516,-0.101892,-0.301932,12.685977,8.198309,36.376447
53639,-1.203625,2.559744,9.084728,-0.162883,0.462937,-0.310474,0.645305,-0.086713,0.432850,-0.012131,0.025278,0.090924,0.999992,0.003227,-0.000434,0.002164,-0.943373,-0.085890,-0.102245,-0.303671,13.085431,8.091007,36.616122
53640,-0.868916,2.865728,8.913633,-0.084078,0.861238,-0.449402,0.640047,-0.014187,0.464968,-0.008762,0.028352,0.089227,0.999992,0.003200,-0.000071,0.002325,-0.942378,-0.089142,-0.102920,-0.305589,13.485182,8.018744,36.882623
53641,-0.881695,3.075524,8.934881,-0.176991,0.961804,-0.372794,0.624817,0.087834,0.500431,-0.008854,0.030454,0.089448,0.999992,0.003124,0.000439,0.002502,-0.941268,-0.092186,-0.104031,-0.307723,13.880724,7.996162,37.182569
53642,-1.035622,3.043864,8.989811,-0.232491,0.785500,-0.300436,0.612843,0.164431,0.554715,-0.010366,0.030134,0.089999,0.999991,0.003064,0.000822,0.002774,-0.940024,-0.095081,-0.105461,-0.310149,14.275094,8.006964,37.523516
53643,-1.099577,3.476174,9.168475,-0.443007,1.017523,-0.008512,0.569656,0.220769,0.602667,-0.010999,0.034467,0.091795,0.999991,0.002848,0.001104,0.003013,-0.938679,-0.097710,-0.107061,-0.312844,14.649744,8.039466,37.899627
53644,-1.177826,3.475056,9.274990,-0.439934,0.912949,0.110088,0.439630,0.271216,0.637213,-0.011763,0.034509,0.092842,0.999992,0.002198,0.001356,0.003186,-0.937301,-0.099667,-0.108678,-0.315790,14.954068,8.093043,38.302692
53645,-1.260056,3.201483,9.316634,-0.303441,0.611016,0.095457,0.341948,0.322054,0.667483,-0.012557,0.031813,0.093241,0.999992,0.001710,0.001610,0.003337,-0.935879,-0.101101,-0.110360,-0.318951,15.206289,8.167900,38.730708
53646,-1.562854,2.790850,9.379098,-0.249355,0.069538,0.093454,0.341904,0.335870,0.710157,-0.015570,0.027693,0.093865,0.999991,0.001710,0.001679,0.003551,-0.934365,-0.102534,-0.112086,-0.322312,15.462991,8.242412,39.185029
53647,-1.743335,2.909247,9.521068,-0.378816,-0.000380,0.287309,0.391406,0.320085,0.739255,-0.017388,0.028842,0.095295,0.999990,0.001957,0.001600,0.003696,-0.932770,-0.104238,-0.113797,-0.325769,15.750428,8.301223,39.653590
53648,-2.049414,3.412667,9.971239,-0.743860,0.102332,0.897495,0.315456,0.261361,0.711967,-0.020485,0.033896,0.099793,0.999992,0.001577,0.001307,0.003560,-0.931274,-0.105667,-0.115126,-0.329103,15.991429,8.330191,40.097929
53649,-1.803442,3.220544,9.881674,-0.448255,0.095646,0.725892,0.109109,0.175686,0.644993,-0.018051,0.032093,0.098850,0.999994,0.000546,0.000878,0.003225,-0.930034,-0.106235,-0.115747,-0.332195,16.106687,8.320841,40.491427
53650,-1.425611,2.685041,9.685210,0.104866,-0.055659,0.337732,-0.019624,0.147731,0.551285,-0.014259,0.026821,0.096860,0.999996,-0.000098,0.000739,0.002756,-0.929024,-0.106197,-0.116077,-0.334907,16.140201,8.310927,40.828233
53651,-1.230443,2.391701,9.651710,0.418482,-0.146332,0.196967,-0.084392,0.156699,0.443156,-0.012282,0.023931,0.096517,0.999997,-0.000422,0.000783,0.002216,-0.928218,-0.105778,-0.116393,-0.337158,16.127846,8.322685,41.106382
53652,-1.224107,2.184289,9.649531,0.548739,-0.288994,0.137105,-0.118175,0.175313,0.321660,-0.012192,0.021880,0.096493,0.999998,-0.000591,0.000877,0.001608,-0.927619,-0.105101,-0.116805,-0.338871,16.087140,8.364528,41.319895
53653,-1.412534,2.022927,9.886638,0.576663,-0.546555,0.346142,-0.126324,0.167209,0.205900,-0.014064,0.020277,0.098865,0.999999,-0.000632,0.000836,0.001030,-0.927222,-0.104331,-0.117223,-0.340048,16.032102,8.420036,41.467720
53654,-1.700497,2.057849,10.095912,0.404034,-0.718021,0.597647,-0.115943,0.122698,0.096453,-0.016953,0.020629,0.100958,1.000000,-0.000580,0.000613,0.000482,-0.927031,-0.103621,-0.117513,-0.340687,15.973324,8.468841,41.547413
53655,-1.839710,2.030906,10.179371,0.338431,-0.825160,0.691277,-0.132082,0.038663,-0.001775,-0.018377,0.020376,0.101784,1.000000,-0.000660,0.000193,-0.000009,-0.927064,-0.102921,-0.117433,-0.340837,15.895123,8.486513,41.559023
53656,-1.668040,1.967318,10.073150,0.464243,-0.736743,0.548911,-0.129307,-0.038198,-0.095671,-0.016690,0.019746,0.100716,1.000000,-0.000647,-0.000191,-0.000478,-0.927300,-0.102309,-0.117052,-0.340509,15.809088,8.476934,41.506061
53657,-1.410917,1.902581,9.873313,0.624833,-0.586037,0.304572,-0.099068,-0.068997,-0.169716,-0.014127,0.019087,0.098719,0.999999,-0.000495,-0.000345,-0.000849,-0.927664,-0.101847,-0.116615,-0.339806,15.733509,8.461429,41.407048
53658,-1.317222,2.045507,9.710639,0.551357,-0.393701,0.175139,-0.056827,-0.067854,-0.222189,-0.013182,0.020497,0.097096,0.999999,-0.000284,-0.000339,-0.001111,-0.928094,-0.101546,-0.116285,-0.338833,15.677876,8.454981,41.278907
53659,-1.373563,2.275735,9.696927,0.359571,-0.250604,0.232408,-0.038859,-0.054274,-0.262576,-0.013732,0.022794,0.096961,0.999999,-0.000194,-0.000271,-0.001313,-0.928574,-0.101284,-0.116065,-0.337671,15.629538,8.461754,41.130435
53660,-1.461770,2.389888,9.628112,0.200408,-0.207343,0.210571,-0.047894,-0.045155,-0.281650,-0.014606,0.023943,0.096272,0.999999,-0.000239,-0.000226,-0.001408,-0.929083,-0.100952,-0.115885,-0.336427,15.574578,8.476749,40.972662
53661,-1.563102,2.554162,9.682287,0.035562,-0.145399,0.320984,-0.076889,-0.044760,-0.292709,-0.015615,0.025602,0.096810,0.999999,-0.000384,-0.000224,-0.001464,-0.929624,-0.100479,-0.115660,-0.335150,15.502114,8.493103,40.808825
53662,-1.618346,2.439895,9.558172,0.020197,-0.242150,0.180897,-0.095289,-0.053088,-0.283254,-0.016174,0.024467,0.095566,0.999999,-0.000476,-0.000265,-0.001416,-0.930161,-0.099938,-0.115364,-0.333922,15.419576,8.503577,40.648882
53663,-1.540671,2.448245,9.389312,0.017438,-0.155884,0.010863,-0.096694,-0.052926,-0.260216,-0.015400,0.024548,0.093877,0.999999,-0.000483,-0.000265,-0.001301,-0.930658,-0.099405,-0.115051,-0.332801,15.338194,8.510032,40.501885
53664,-1.400205,2.456174,9.256194,0.073766,-0.033797,-0.134676,-0.092540,-0.026453,-0.239950,-0.013985,0.024621,0.092549,0.999999,-0.000463,-0.000132,-0.001200,-0.931103,-0.098858,-0.114861,-0.331785,15.261338,8.528242,40.370173
53665,-1.474428,2.443647,9.198738,0.004882,-0.072622,-0.181653,-0.081218,0.015812,-0.213122,-0.014711,0.024490,0.091979,0.999999,-0.000406,0.000079,-0.001066,-0.931472,-0.098309,-0.114871,-0.330908,15.194185,8.565228,40.259933
53666,-1.668148,2.495541,9.184913,-0.177267,-0.143267,-0.152402,-0.060084,0.039213,-0.176488,-0.016641,0.024998,0.091845,1.000000,-0.000300,0.000196,-0.000882,-0.931756,-0.097840,-0.115009,-0.330200,15.142538,8.609935,40.173604
53667,-1.693050,2.533650,9.183940,-0.218404,-0.118902,-0.139595,-0.049995,0.050573,-0.138808,-0.016890,0.025371,0.091837,1.000000,-0.000250,0.000253,-0.000694,-0.931965,-0.097422,-0.115195,-0.329668,15.100127,8.654837,40.110101
53668,-1.704423,2.552791,9.207075,-0.230347,-0.103616,-0.110717,-0.048542,0.064201,-0.099546,-0.017002,0.025559,0.092070,1.000000,-0.000243,0.000321,-0.000498,-0.932100,-0.097009,-0.115431,-0.329323,15.062013,8.701789,40.070506
53669,-1.763492,2.632974,9.233732,-0.313240,-0.072754,-0.055596,-0.052526,0.068270,-0.070573,-0.017594,0.026360,0.092336,1.000000,-0.000263,0.000341,-0.000353,-0.932188,-0.096590,-0.115662,-0.329119,15.024237,8.746251,40.047785
53670,-1.867363,2.647581,9.404658,-0.352475,-0.134628,0.127229,-0.088008,0.061556,-0.048543,-0.018638,0.026522,0.094041,1.000000,-0.000440,0.000308,-0.000243,-0.932259,-0.096027,-0.115796,-0.329033,14.967743,8.784142,40.036274
53671,-1.707736,2.514771,9.358300,-0.169076,-0.118360,0.024772,-0.114010,0.039360,-0.033055,-0.017055,0.025204,0.093572,1.000000,-0.000570,0.000197,-0.000165,-0.932330,-0.095390,-0.115774,-0.329025,14.897250,8.807016,40.030160
53672,-1.574119,2.370731,9.294497,-0.005022,-0.125989,-0.093120,-0.105724,0.037255,-0.025352,-0.015721,0.023758,0.092935,1.000000,-0.000529,0.000186,-0.000127,-0.932386,-0.094798,-0.115754,-0.329046,14.832028,8.828040,40.027939
53673,-1.617450,2.297197,9.362572,0.021225,-0.207016,-0.039883,-0.078714,0.040370,-0.019687,-0.016153,0.023010,0.093620,1.000000,-0.000394,0.000202,-0.000098,-0.932417,-0.094332,-0.115788,-0.329080,14.782920,8.849503,40.029417
53674,-1.680607,2.348909,9.420468,-0.042902,-0.206151,0.038337,-0.044800,0.028704,-0.019194,-0.016790,0.023512,0.094202,1.000000,-0.000224,0.000144,-0.000096,-0.932438,-0.094041,-0.115826,-0.329090,14.752922,8.864892,40.029347
53675,-1.684381,2.398792,9.490639,-0.057112,-0.172593,0.118603,-0.029435,0.013698,-0.031538,-0.016834,0.024005,0.094904,1.000000,-0.000147,0.000068,-0.000158,-0.932480,-0.093842,-0.115822,-0.329028,14.730415,8.873306,40.020219
53676,-1.779335,2.492901,9.576632,-0.163040,-0.165272,0.239107,-0.038486,-0.005089,-0.050929,-0.017789,0.024952,0.095761,1.000000,-0.000192,-0.000025,-0.000255,-0.932570,-0.093617,-0.115728,-0.328870,14.700508,8.874599,39.997354
53677,-1.763372,2.545216,9.618604,-0.175867,-0.113863,0.289849,-0.080627,-0.034223,-0.082480,-0.017640,0.025498,0.096173,1.000000,-0.000403,-0.000171,-0.000412,-0.932748,-0.093229,-0.115440,-0.328577,14.643177,8.863834,39.952600
53678,-1.531563,2.408316,9.508920,0.041056,-0.052838,0.115089,-0.120991,-0.043413,-0.114076,-0.015323,0.024149,0.095071,1.000000,-0.000605,-0.000217,-0.000570,-0.933002,-0.092646,-0.115061,-0.328155,14.559685,8.852972,39.888694
53679,-1.369039,2.217171,9.370106,0.228957,-0.072972,-0.089969,-0.120970,-0.029860,-0.131638,-0.013690,0.022237,0.093686,1.000000,-0.000605,-0.000149,-0.000658,-0.933275,-0.092033,-0.114750,-0.327658,14.475108,8.851567,39.817011
53680,-1.323012,2.197271,9.337584,0.260189,-0.046219,-0.132863,-0.071988,0.002100,-0.143231,-0.013213,0.022016,0.093368,1.000000,-0.000360,0.000011,-0.000716,-0.933527,-0.091588,-0.114677,-0.327092,14.418174,8.869944,39.743349
53681,-1.478238,2.370959,9.427769,0.063031,-0.011288,0.020184,-0.024879,0.023052,-0.147970,-0.014754,0.023732,0.094276,1.000000,-0.000124,0.000115,-0.000740,-0.933751,-0.091328,-0.114777,-0.326487,14.388374,8.900090,39.670122
53682,-1.454941,2.589691,9.547924,-0.014236,0.167373,0.185211,-0.022118,0.021036,-0.138579,-0.014521,0.025918,0.095478,1.000000,-0.000111,0.000105,-0.000693,-0.933960,-0.091087,-0.114872,-0.325923,14.360754,8.928208,39.601767
53683,-1.434873,2.650419,9.635804,-0.009220,0.224962,0.280954,-0.013827,0.027074,-0.129328,-0.014319,0.026520,0.096358,1.000000,-0.000069,0.000135,-0.000647,-0.934147,-0.090882,-0.115000,-0.325400,14.338926,8.957871,39.539553
53684,-1.464429,2.743419,9.681059,-0.072890,0.279812,0.351474,-0.021354,0.014172,-0.105931,-0.014623,0.027452,0.096809,1.000000,-0.000107,0.000071,-0.000530,-0.934306,-0.090675,-0.115049,-0.324984,14.314399,8.977478,39.488533
53685,-1.446654,2.798785,9.645190,-0.102358,0.342935,0.327708,-0.038870,0.008584,-0.089391,-0.014450,0.028013,0.096447,1.000000,-0.000194,0.000043,-0.000447,-0.934448,-0.090406,-0.115032,-0.324654,14.281264,8.991169,39.446085
53686,-1.516891,2.688752,9.647718,-0.093153,0.219664,0.314102,-0.051386,0.001693,-0.066457,-0.015159,0.026917,0.096470,1.000000,-0.000257,0.000008,-0.000332,-0.934564,-0.090101,-0.114956,-0.324435,14.242723,8.998201,39.415454
53687,-1.619826,2.538096,9.561688,-0.109992,0.050896,0.211132,-0.024564,-0.009284,-0.039246,-0.016198,0.025396,0.095613,1.000000,-0.000123,-0.000046,-0.000196,-0.934629,-0.089957,-0.114856,-0.324323,14.221784,8.994857,39.398636
53688,-1.573043,2.501209,9.480224,-0.076507,0.059319,0.116854,0.024955,-0.017315,-0.011430,-0.015737,0.025001,0.094804,1.000000,0.000125,-0.000087,-0.000057,-0.934631,-0.090072,-0.114790,-0.324307,14.231414,8.983561,39.396235
53689,-1.549441,2.643636,9.459210,-0.147211,0.182892,0.127690,0.047289,-0.010186,-0.000764,-0.015499,0.026414,0.094598,1.000000,0.000236,-0.000051,-0.000004,-0.934602,-0.090288,-0.114786,-0.324334,14.255005,8.974294,39.400925
53690,-1.665584,2.735127,9.550013,-0.263708,0.169072,0.255068,0.026401,-0.004784,0.001362,-0.016658,0.027339,0.095503,1.000000,0.000132,-0.000024,0.000007,-0.934575,-0.090396,-0.114775,-0.324383,14.266881,8.968149,39.407501
53691,-1.759531,2.701854,9.650273,-0.289632,0.073535,0.357585,-0.006505,-0.016635,-0.000012,-0.017603,0.027022,0.096500,1.000000,-0.000033,-0.000083,-0.000000,-0.934573,-0.090371,-0.114652,-0.324441,14.259571,8.955193,39.411688
53692,-1.744595,2.521037,9.643298,-0.178712,-0.056371,0.304492,-0.033768,-0.044871,-0.006252,-0.017467,0.025227,0.096425,1.000000,-0.000169,-0.000224,-0.000031,-0.934609,-0.090260,-0.114360,-0.324471,14.235443,8.927872,39.408264
53693,-1.527928,2.463823,9.452902,-0.038825,0.053061,0.074578,-0.037645,-0.062177,-0.007669,-0.015308,0.024657,0.094520,1.000000,-0.000188,-0.000311,-0.000038,-0.934659,-0.090158,-0.113978,-0.324490,14.208617,8.890703,39.401667
53694,-1.321747,2.350531,9.245344,0.122233,0.114266,-0.183544,-0.025345,-0.037551,-0.017022,-0.013233,0.023518,0.092448,1.000000,-0.000127,-0.000188,-0.000085,-0.934704,-0.090068,-0.113738,-0.324468,14.188555,8.868964,39.393254
53695,-1.429732,2.254130,9.205100,0.083141,-0.024051,-0.228763,0.012197,0.005644,-0.024044,-0.014292,0.022537,0.092053,1.000000,0.000061,0.000028,-0.000120,-0.934719,-0.090081,-0.113761,-0.324413,14.190361,8.871764,39.387113
53696,-1.679624,2.371331,9.246800,-0.162289,-0.094705,-0.121849,0.053508,0.029567,-0.027513,-0.016779,0.023691,0.092477,1.000000,0.000268,0.000148,-0.000138,-0.934708,-0.090244,-0.113968,-0.324327,14.216039,8.888766,39.382353
53697,-1.738049,2.487725,9.295280,-0.256679,-0.048876,-0.038050,0.079895,0.018036,-0.017357,-0.017370,0.024842,0.092964,1.000000,0.000399,0.000090,-0.000087,-0.934675,-0.090557,-0.114156,-0.324270,14.257486,8.897510,39.381740
53698,-1.592372,2.603773,9.298283,-0.207461,0.128358,-0.029343,0.057667,0.022428,-0.009714,-0.015912,0.026012,0.092992,1.000000,0.000288,0.000112,-0.000049,-0.934637,-0.090761,-0.114328,-0.324262,14.286945,8.908056,39.385981
53699,-1.541499,2.551860,9.315879,-0.128356,0.116070,-0.032920,0.056717,0.040331,0.001220,-0.015396,0.025492,0.093169,1.000000,0.000284,0.000202,0.000006,-0.934571,-0.090940,-0.114574,-0.324315,14.317227,8.926551,39.399012
53700,-1.695779,2.422495,9.362364,-0.151370,-0.087975,0.004000,0.074210,0.045392,0.030983,-0.016940,0.024188,0.093636,1.000000,0.000371,0.000227,0.000155,-0.934446,-0.091208,-0.114862,-0.324498,14.360254,8.944066,39.429434
53701,-1.732854,2.342216,9.402434,-0.113675,-0.184121,0.028435,0.131765,0.031378,0.074953,-0.017323,0.023354,0.094042,1.000000,0.000659,0.000157,0.000375,-0.934231,-0.091794,-0.115154,-0.324848,14.439786,8.947064,39.482630
53702,-1.735071,2.282387,9.483020,-0.047692,-0.253031,0.090903,0.193886,0.018981,0.125117,-0.017356,0.022721,0.094854,0.999999,0.000969,0.000095,0.000626,-0.933912,-0.092718,-0.115469,-0.325390,14.559012,8.936355,39.562122
53703,-1.799960,2.255028,9.448435,-0.077194,-0.334258,0.060516,0.298753,-0.017203,0.178338,-0.018028,0.022393,0.094516,0.999998,0.001494,-0.000086,0.000892,-0.933477,-0.094222,-0.115758,-0.326103,14.742084,8.897211,39.666211
53704,-1.425714,2.507045,9.409207,0.064139,0.067981,0.028159,0.355881,-0.041628,0.221785,-0.014304,0.024887,0.094133,0.999998,0.001779,-0.000208,0.001109,-0.932955,-0.096056,-0.116009,-0.326972,14.960959,8.838276,39.790787
53705,-1.167760,2.688538,9.327016,0.147032,0.343900,-0.043086,0.370382,-0.016958,0.253807,-0.011719,0.026698,0.093319,0.999997,0.001852,-0.000085,0.001269,-0.932354,-0.097937,-0.116378,-0.327993,15.191313,8.787258,39.936837
53706,-1.181745,2.797668,9.337631,0.094414,0.383372,-0.001531,0.369804,0.034147,0.285923,-0.011841,0.027787,0.093430,0.999997,0.001849,0.000171,0.001430,-0.931667,-0.099749,-0.116973,-0.329187,15.425134,8.759492,40.108366
53707,-1.288364,2.689699,9.319745,0.094543,0.202913,-0.029959,0.360704,0.078238,0.328895,-0.012891,0.026708,0.093251,0.999997,0.001804,0.000391,0.001644,-0.930882,-0.101471,-0.117732,-0.330607,15.658359,8.748325,40.310692
53708,-1.134856,2.655390,9.283598,0.246637,0.247389,-0.096618,0.408104,0.137450,0.400793,-0.011338,0.026342,0.092898,0.999996,0.002041,0.000687,0.002004,-0.929913,-0.103356,-0.118811,-0.332361,15.926277,8.758140,40.562347
53709,-1.023601,2.765560,9.184906,0.269752,0.379156,-0.177241,0.491876,0.213501,0.517860,-0.010209,0.027403,0.091928,0.999993,0.002459,0.001068,0.002589,-0.928650,-0.105574,-0.120317,-0.334646,16.254084,8.789516,40.891560
53710,-0.920982,2.886157,9.159253,0.309278,0.499314,-0.183321,0.601559,0.283930,0.658100,-0.009174,0.028556,0.091692,0.999989,0.003008,0.001420,0.003290,-0.927035,-0.108265,-0.122261,-0.337545,16.658738,8.835129,41.310491
53711,-0.827347,3.215242,9.051444,0.199974,0.772845,-0.204712,0.697133,0.371235,0.790494,-0.008231,0.031804,0.090641,0.999984,0.003486,0.001856,0.003952,-0.925067,-0.111331,-0.124693,-0.341040,17.132189,8.903006,41.818058
53712,-0.857925,3.694933,9.043191,-0.056814,1.059473,-0.063758,0.724699,0.482447,0.907490,-0.008527,0.036583,0.090586,0.999980,0.003623,0.002412,0.004537,-0.922782,-0.114403,-0.127620,-0.345107,17.635445,9.007703,42.410301
53713,-1.392756,4.426653,9.399104,-0.717384,1.144891,0.582127,0.665258,0.558989,0.978846,-0.013880,0.043885,0.094176,0.999979,0.003326,0.002795,0.004894,-0.920320,-0.117110,-0.130748,-0.349572,18.114301,9.136257,43.056700
53714,-1.765963,4.718176,9.735131,-1.000741,1.015391,1.055603,0.416458,0.546532,1.018339,-0.017633,0.046889,0.097497,0.999981,0.002082,0.002733,0.005092,-0.917906,-0.118716,-0.133358,-0.354359,18.455408,9.246629,43.723701
53715,-1.667754,4.192000,9.581062,-0.617547,0.691487,0.736786,0.140506,0.527553,1.024734,-0.016639,0.041767,0.095884,0.999983,0.000703,0.002638,0.005124,-0.915624,-0.119088,-0.135381,-0.359336,18.639524,9.342242,44.391444
53716,-1.688130,3.416042,9.269697,-0.224064,0.150138,0.205975,0.009021,0.536562,1.025540,-0.016807,0.034070,0.092744,0.999983,0.000045,0.002683,0.005128,-0.913381,-0.118840,-0.137207,-0.364398,18.750138,9.441157,45.061726
53717,-1.739730,2.922872,9.095349,0.019321,-0.215509,-0.104530,0.007525,0.543607,0.993994,-0.017295,0.029139,0.091002,0.999984,0.000038,0.002718,0.004970,-0.911162,-0.118545,-0.139073,-0.369310,18.858205,9.548201,45.716385
53718,-1.694396,2.581995,9.102112,0.303188,-0.420791,-0.214926,0.063946,0.575386,0.948125,-0.016804,0.025711,0.091078,0.999985,0.000320,0.002877,0.004741,-0.908942,-0.118414,-0.141215,-0.373979,18.997118,9.679859,46.352268
53719,-2.044787,2.391376,9.257670,0.285392,-0.819830,-0.073566,0.188620,0.598486,0.932893,-0.020282,0.023732,0.092660,0.999984,0.000943,0.002992,0.004664,-0.906632,-0.118791,-0.143695,-0.378495,19.208110,9.824707,46.984859
53720,-2.301626,2.374083,9.189902,0.156224,-1.021383,-0.100835,0.361694,0.537819,0.948368,-0.022881,0.023466,0.092003,0.999984,0.001808,0.002689,0.004742,-0.904204,-0.120075,-0.146218,-0.382906,19.519487,9.931251,47.615124
53721,-1.679461,2.755396,9.051887,0.330686,-0.321989,-0.213936,0.522682,0.502413,0.983773,-0.016702,0.027235,0.090632,0.999981,0.002613,0.002512,0.004919,-0.901605,-0.122176,-0.148859,-0.387326,19.926146,10.007687,48.258687
53722,-0.551944,3.498072,8.239741,0.344064,1.056583,-0.913286,0.675451,0.657458,1.138567,-0.005446,0.034671,0.082533,0.999973,0.003377,0.003287,0.005693,-0.898456,-0.124775,-0.152396,-0.392406,20.442007,10.132094,49.018700
53723,0.516636,4.863357,6.905549,-0.319597,2.857705,-1.854244,0.835201,0.993106,1.388242,0.005173,0.048381,0.069232,0.999955,0.004176,0.004965,0.006941,-0.894397,-0.127614,-0.157585,-0.398668,21.088466,10.377711,49.985643
53724,0.104143,6.428716,6.625796,-1.697173,3.550738,-1.460929,0.758493,1.435190,1.706378,0.000971,0.064044,0.066494,0.999931,0.003792,0.007176,0.008532,-0.889300,-0.129466,-0.164379,-0.406648,21.746364,10.781878,51.223100
53725,-0.303125,7.417810,6.556697,-2.616332,3.822789,-1.057874,0.513333,1.839915,2.083970,-0.003198,0.073977,0.065786,0.999900,0.002567,0.009199,0.010420,-0.883112,-0.129692,-0.172200,-0.416702,22.330671,11.306476,52.759830
53726,-0.377783,7.412455,6.422259,-2.703080,3.722529,-1.142706,0.125974,2.233012,2.479427,-0.003978,0.074036,0.064313,0.999861,0.000630,0.011165,0.012397,-0.875799,-0.127704,-0.180653,-0.428990,22.771347,11.938662,54.606297
53727,0.347714,5.841757,5.513318,-1.589582,3.395752,-2.700324,-0.105828,2.636032,2.875182,0.003363,0.058496,0.055057,0.999810,-0.000529,0.013179,0.014375,-0.867132,-0.124145,-0.190059,-0.443336,23.167412,12.681815,56.767980
53728,1.003579,3.087855,3.096315,-0.345640,2.459031,-6.076006,0.275629,3.213836,3.334876,0.010016,0.031003,0.030845,0.999731,0.001378,0.016068,0.016673,-0.856260,-0.121349,-0.202445,-0.459466,23.904347,13.602187,59.328078
53729,0.138120,3.908595,2.212961,-1.791142,2.180335,-6.315430,1.481852,4.051369,3.649353,0.001122,0.038943,0.022394,0.999601,0.007408,0.020254,0.018244,-0.842515,-0.122020,-0.220857,-0.475922,25.478003,14.833226,62.293985
53730,-3.564711,6.889322,4.062895,-4.628515,0.445415,-2.393581,2.072679,4.612153,3.804565,-0.035983,0.067779,0.042163,0.999500,0.010362,0.023057,0.019020,-0.826660,-0.123918,-0.242744,-0.492292,27.534322,16.219992,65.548531
53731,-6.510727,9.096569,5.847615,-6.140304,-1.186200,1.150549,1.840848,4.602779,3.720235,-0.065396,0.089198,0.060806,0.999520,0.009203,0.023010,0.018598,-0.810359,-0.124647,-0.263835,-0.508106,29.536745,17.513728,68.827276
53732,-8.098768,9.596050,7.900554,-5.421864,-2.397548,3.785896,0.999461,4.226953,3.440677,-0.080917,0.094166,0.081190,0.999616,0.004997,0.021132,0.017201,-0.795083,-0.122457,-0.281217,-0.523224,31.062299,18.604632,71.908539
53733,-8.925605,7.858600,9.605804,-2.882732,-3.759526,4.721246,0.079645,3.545225,3.058166,-0.088722,0.077188,0.097665,0.999726,0.000398,0.017725,0.015289,-0.781809,-0.117764,-0.293527,-0.537354,31.986100,19.414648,74.617022
53734,-7.785653,5.475812,10.558469,0.137854,-3.475808,3.970476,-0.595371,2.782600,2.572781,-0.077078,0.054079,0.106499,0.999816,-0.002977,0.013912,0.012863,-0.770991,-0.111727,-0.301202,-0.549879,32.395068,19.972912,76.849888
53735,-7.046142,1.746757,11.065117,3.705791,-3.946228,2.263130,-0.972529,2.169681,2.128323,-0.069441,0.017265,0.111324,0.999873,-0.004862,0.010848,0.010641,-0.762292,-0.105204,-0.305624,-0.560747,32.458348,20.362802,78.661891
53736,-7.237438,-2.425904,10.269935,6.664942,-5.538715,-0.398158,-0.401181,1.517218,1.668239,-0.071388,-0.024650,0.103293,0.999934,-0.002006,0.007586,0.008341,-0.755427,-0.101974,-0.309352,-0.568535,32.703156,20.575038,80.026913
53737,-6.962405,-1.709772,11.281279,6.902685,-4.725656,0.612429,0.752747,0.887757,1.172204,-0.069019,-0.017929,0.113054,0.999966,0.003764,0.004439,0.005861,-0.750286,-0.104105,-0.314196,-0.572289,33.447998,20.629111,80.929991
53738,-6.913323,0.653740,11.656982,5.434011,-3.826492,2.016629,1.271935,0.224272,0.738181,-0.069024,0.005541,0.116685,0.999972,0.006360,0.001121,0.003691,-0.747110,-0.109397,-0.318250,-0.573215,34.333822,20.494584,81.386841
53739,-5.987263,3.082108,11.671006,3.819501,-2.260174,2.909709,1.325086,-0.337094,0.319616,-0.060118,0.029951,0.116809,0.999975,0.006625,-0.001685,0.001598,-0.745961,-0.115822,-0.320564,-0.572159,35.105616,20.225778,81.435156
53740,-4.989630,3.236274,10.296854,3.107787,-1.654671,1.545009,1.091967,-0.738168,0.005031,-0.050277,0.031799,0.102958,0.999978,0.005460,-0.003691,0.000025,-0.746455,-0.122014,-0.320889,-0.570042,35.640631,19.873984,81.182073
53741,-3.822586,3.694582,8.975054,2.176864,-0.769367,0.359913,1.180763,-0.912900,-0.229249,-0.038594,0.036460,0.089791,0.999971,0.005904,-0.004564,-0.001146,-0.747806,-0.128654,-0.320936,-0.566775,36.166695,19.521484,80.748225
53742,-3.138872,4.953574,8.239748,0.932304,0.059622,0.257567,1.257051,-0.925536,-0.349778,-0.031684,0.049072,0.082561,0.999968,0.006285,-0.004628,-0.001749,-0.749425,-0.135411,-0.321214,-0.562892,36.717023,19.208651,80.248299
53743,-2.634304,6.671324,7.809311,-0.471520,0.959311,0.736618,1.218101,-0.827414,-0.399492,-0.026534,0.066289,0.078388,0.999971,0.006090,-0.004137,-0.001997,-0.751007,-0.141661,-0.321761,-0.558918,37.250351,18.961718,79.757858
53744,-2.008863,7.626281,7.521550,-1.179651,1.774792,0.875032,0.909633,-0.655394,-0.368313,-0.020196,0.075957,0.075495,0.999983,0.004548,-0.003277,-0.001842,-0.752410,-0.146313,-0.322058,-0.555653,37.633563,18.786456,79.344240
53745,-1.397170,7.179180,6.724940,-1.188725,2.058319,-0.165539,0.688002,-0.372679,-0.276566,-0.013998,0.071579,0.067470,0.999991,0.003440,-0.001863,-0.001383,-0.753245,-0.149492,-0.322724,-0.553284,37.938130,18.708792,79.078547
53746,-1.321276,7.330370,6.495539,-1.374387,2.143721,-0.263485,0.685520,-0.023286,-0.164487,-0.013160,0.073091,0.065205,0.999994,0.003428,-0.000116,-0.000822,-0.753197,-0.151873,-0.324614,-0.551592,38.300440,18.750847,78.996240
53747,-1.573642,7.866399,6.845661,-1.518449,2.147660,0.400106,0.566165,0.289988,-0.065944,-0.015611,0.078475,0.068702,0.999995,0.002831,0.001450,-0.000330,-0.752451,-0.153100,-0.327273,-0.550699,38.647248,18.898378,79.078845
53748,-1.995833,8.020021,7.388079,-1.290984,1.902870,1.031663,0.335015,0.540200,0.007360,-0.019761,0.080076,0.074069,0.999995,0.001675,0.002701,0.000037,-0.751263,-0.152888,-0.330181,-0.550645,38.904781,19.131180,79.292013
53749,-2.459666,7.281600,7.647941,-0.626588,1.290069,0.934662,0.040671,0.700150,0.048859,-0.024346,0.072794,0.076580,0.999994,0.000203,0.003501,0.000244,-0.749914,-0.151195,-0.332840,-0.551350,39.021196,19.419405,79.586907
53750,-2.700285,6.299637,7.793834,0.162824,0.799985,0.534003,-0.089136,0.799832,0.037822,-0.026703,0.063026,0.078017,0.999992,-0.000446,0.003999,0.000189,-0.748516,-0.148723,-0.335523,-0.552296,39.076658,19.755640,79.915894
53751,-2.963621,5.595228,7.758546,0.620651,0.372431,0.175321,-0.189455,0.879782,-0.028628,-0.029287,0.056030,0.077662,0.999990,-0.000947,0.004399,-0.000143,-0.747229,-0.145538,-0.338267,-0.553212,39.076181,20.151199,80.244995
53752,-3.565327,5.052022,7.737724,0.918154,-0.298177,0.045018,-0.195409,0.938512,-0.125587,-0.035258,0.050618,0.077494,0.999988,-0.000977,0.004693,-0.000628,-0.746098,-0.142004,-0.341280,-0.553806,39.067226,20.607943,80.551672
53753,-4.525902,5.237816,7.834299,0.713699,-1.019385,0.567368,-0.189419,0.911424,-0.195262,-0.044850,0.052496,0.078498,0.999989,-0.000947,0.004557,-0.000976,-0.745186,-0.138442,-0.344248,-0.554099,39.048311,21.077838,80.815435
53754,-5.297833,5.327722,8.142075,0.746249,-1.559578,1.130588,-0.297223,0.761625,-0.215678,-0.052610,0.053455,0.081542,0.999991,-0.001486,0.003808,-0.001078,-0.744647,-0.134858,-0.346369,-0.554385,38.945412,21.488718,81.011804
53755,-5.371807,4.329547,7.873825,1.283630,-1.951551,0.392301,-0.325708,0.560236,-0.205826,-0.053453,0.043479,0.078818,0.999994,-0.001629,0.002801,-0.001029,-0.744439,-0.131739,-0.347647,-0.554615,38.799802,21.806550,81.134444
53756,-5.147847,3.538495,7.355137,1.549467,-2.068107,-0.515310,-0.095179,0.406026,-0.207056,-0.051292,0.035473,0.073639,0.999997,-0.000476,0.002030,-0.001035,-0.744344,-0.129903,-0.348990,-0.554332,38.764477,22.056340,81.196575
53757,-4.944905,3.760417,7.067530,1.236536,-1.823882,-0.664620,0.209417,0.285070,-0.237513,-0.049304,0.037589,0.070785,0.999998,0.001047,0.001425,-0.001188,-0.744343,-0.129482,-0.350743,-0.553324,38.880527,22.262823,81.197363
53758,-4.614420,4.441600,6.700890,0.565311,-1.325058,-0.655880,0.391012,0.194993,-0.312771,-0.046009,0.044357,0.067141,0.999996,0.001955,0.000975,-0.001564,-0.744587,-0.129851,-0.352713,-0.551654,39.073794,22.456677,81.127396
53759,-4.175892,4.922635,6.263618,0.014303,-0.811453,-0.854757,0.441440,0.154314,-0.420887,-0.041607,0.049176,0.062777,0.999995,0.002207,0.000772,-0.002104,-0.745162,-0.130331,-0.354735,-0.549464,39.269804,22.671436,80.990101
53760,-3.797550,5.073348,5.821186,-0.307760,-0.465684,-1.225798,0.460470,0.175527,-0.540920,-0.037787,0.050702,0.058362,0.999993,0.002302,0.000878,-0.002705,-0.746009,-0.130606,-0.356966,-0.546799,39.457308,22.940099,80.803997
53761,-3.542654,5.651472,5.675441,-0.756193,-0.005163,-1.087551,0.438004,0.243844,-0.670772,-0.035168,0.056508,0.056921,0.999991,0.002190,0.001219,-0.003354,-0.747092,-0.130379,-0.359466,-0.543727,39.617315,23.286365,80.583090
53762,-3.486892,6.032536,5.716935,-0.969193,0.258079,-0.855743,0.249192,0.335686,-0.811359,-0.034528,0.060395,0.057303,0.999990,0.001246,0.001678,-0.004057,-0.748501,-0.128940,-0.361885,-0.540518,39.655448,23.725382,80.331124
53763,-3.628829,5.740395,5.616382,-0.839741,0.076937,-1.040426,0.061850,0.446782,-0.940272,-0.035892,0.057556,0.056262,0.999986,0.000309,0.002234,-0.004701,-0.750161,-0.126266,-0.364284,-0.537226,39.576491,24.259958,80.060210
53764,-3.712426,5.643800,5.565830,-0.817142,0.045988,-1.098194,-0.019916,0.557355,-1.023423,-0.036680,0.056632,0.055755,0.999983,-0.000100,0.002787,-0.005117,-0.751873,-0.122831,-0.366924,-0.533823,39.449053,24.873764,79.790925
53765,-4.040614,5.428065,5.496523,-0.764746,-0.246299,-1.131916,-0.051137,0.649562,-1.048806,-0.039942,0.054505,0.055082,0.999981,-0.000256,0.003248,-0.005244,-0.753475,-0.118983,-0.369826,-0.530422,39.310056,25.536573,79.543284
53766,-4.295128,5.747754,5.541272,-1.001633,-0.223582,-0.805125,-0.018293,0.727205,-1.020674,-0.042455,0.057700,0.055562,0.999980,-0.000091,0.003636,-0.005103,-0.754811,-0.115099,-0.373081,-0.527090,39.205910,26.223660,79.337874
53767,-4.468834,5.917425,5.575766,-1.122354,-0.185713,-0.605065,-0.066708,0.793257,-0.945386,-0.044186,0.059403,0.055914,0.999981,-0.000334,0.003966,-0.004727,-0.755824,-0.110996,-0.376396,-0.524152,39.099067,26.912007,79.193918
53768,-4.442833,6.162546,5.637368,-1.242477,0.068505,-0.434727,-0.091637,0.865179,-0.839886,-0.043925,0.061837,0.056536,0.999982,-0.000458,0.004326,-0.004199,-0.756412,-0.106803,-0.379850,-0.521678,39.013311,27.594595,79.129858
53769,-4.610804,6.253987,5.941736,-1.121043,0.146614,-0.096888,-0.226075,0.920969,-0.738906,-0.045602,0.062776,0.059557,0.999982,-0.001130,0.004605,-0.003695,-0.756675,-0.102146,-0.383092,-0.519855,38.883147,28.265018,79.137550
53770,-4.594937,5.498792,5.947694,-0.579737,-0.056752,-0.518343,-0.337269,0.979632,-0.689861,-0.045467,0.055246,0.059607,0.999981,-0.001686,0.004898,-0.003449,-0.756727,-0.097005,-0.386233,-0.518439,38.712320,28.944597,79.192337
53771,-4.700174,4.784198,5.950416,-0.092339,-0.347312,-0.854046,-0.398482,1.071490,-0.786510,-0.046493,0.048144,0.059658,0.999976,-0.001992,0.005357,-0.003933,-0.756849,-0.091204,-0.389588,-0.516800,38.499589,29.699462,79.232810
53772,-5.014287,4.090397,6.027553,0.396755,-0.778676,-1.012658,-0.393661,1.128835,-0.974303,-0.049601,0.041265,0.060476,0.999970,-0.001968,0.005644,-0.004871,-0.757302,-0.084902,-0.393243,-0.514437,38.251921,30.547591,79.196305
53773,-5.558883,3.944757,6.234650,0.549384,-1.105954,-0.658112,-0.265744,1.154148,-1.161559,-0.054997,0.039851,0.062612,0.999966,-0.001329,0.005771,-0.005808,-0.758085,-0.078646,-0.397372,-0.511094,38.028936,31.472679,79.067257
53774,-6.084115,4.535009,6.578993,0.275958,-1.014169,0.175250,-0.201845,1.094393,-1.255711,-0.060194,0.045796,0.066074,0.999965,-0.001009,0.005472,-0.006278,-0.759149,-0.072592,-0.401453,-0.507206,37.798619,32.404109,78.857794
53775,-6.380038,4.912227,6.667941,0.013234,-0.889915,0.603739,-0.198772,0.972487,-1.233162,-0.063171,0.049580,0.066938,0.999969,-0.000994,0.004862,-0.006166,-0.760351,-0.066900,-0.405039,-0.503323,37.542203,33.270945,78.602776
53776,-6.250015,5.285226,6.547148,-0.321042,-0.486850,0.652475,-0.145752,0.837663,-1.098953,-0.061933,0.053241,0.065693,0.999976,-0.000729,0.004188,-0.005495,-0.761428,-0.062015,-0.408184,-0.499767,37.319210,34.029529,78.358084
53777,-6.036350,6.144249,6.325894,-1.052327,0.175409,0.820596,-0.134312,0.735337,-0.935470,-0.059842,0.061766,0.063438,0.999982,-0.000672,0.003677,-0.004677,-0.762271,-0.057762,-0.410895,-0.496761,37.123565,34.683284,78.155275
53778,-5.043364,6.800348,5.822978,-1.707208,1.264356,0.240814,-0.398149,0.780498,-0.852225,-0.049916,0.068333,0.058289,0.999981,-0.001991,0.003902,-0.004261,-0.762862,-0.052559,-0.413091,-0.494606,36.809976,35.329038,78.012996
53779,-4.630913,6.447023,5.403186,-1.701619,1.398133,-0.466451,-0.699675,0.982444,-0.839609,-0.045772,0.064852,0.054031,0.999973,-0.003498,0.004912,-0.004198,-0.763051,-0.045731,-0.415282,-0.493156,36.371718,36.061847,77.956212
53780,-4.888690,5.682511,5.444577,-1.209401,0.949075,-0.676578,-0.908097,1.212502,-0.835644,-0.048318,0.057275,0.054480,0.999963,-0.004540,0.006062,-0.004178,-0.762749,-0.037547,-0.417817,-0.492171,35.868142,36.900053,77.990566
53781,-5.795818,4.594153,5.610715,-0.501884,-0.114649,-0.543881,-0.973656,1.366224,-0.822850,-0.057384,0.046452,0.056275,0.999956,-0.004868,0.006831,-0.004114,-0.762047,-0.028757,-0.420734,-0.491365,35.365024,37.805134,78.087796
53782,-6.669382,3.078320,6.148302,0.791567,-1.213752,-0.343991,-0.815412,1.398510,-0.822908,-0.066134,0.031308,0.061820,0.999959,-0.004077,0.006992,-0.004114,-0.761189,-0.020490,-0.424134,-0.490186,34.958094,38.726580,78.190975
53783,-7.413820,2.684655,6.726629,1.336961,-1.595909,0.340278,-0.523356,1.312512,-0.921192,-0.073570,0.027363,0.067679,0.999964,-0.002617,0.006562,-0.004606,-0.760667,-0.013334,-0.427894,-0.487970,34.654523,39.639559,78.191817
53784,-7.563051,2.888440,7.310395,1.543937,-1.198688,0.918650,-0.414848,1.124207,-1.049872,-0.075065,0.029432,0.073466,0.999968,-0.002074,0.005621,-0.005249,-0.760803,-0.006773,-0.431188,-0.484984,34.306950,40.506073,78.026951
53785,-7.582659,3.140689,7.206088,1.268962,-0.957864,0.992793,-0.292935,0.933335,-1.143845,-0.075308,0.031944,0.072367,0.999972,-0.001465,0.004667,-0.005719,-0.761530,-0.000937,-0.434024,-0.481347,33.928831,41.310691,77.712320
53786,-7.375524,4.002410,7.215829,0.652619,-0.187260,1.233714,-0.264750,0.763622,-1.114670,-0.073254,0.040529,0.072385,0.999976,-0.001324,0.003818,-0.005573,-0.762515,0.004322,-0.436264,-0.477730,33.521189,42.024318,77.333167
53787,-6.901536,4.228524,6.907848,0.331646,0.284609,0.819225,-0.307898,0.667677,-0.998011,-0.068572,0.042735,0.069242,0.999981,-0.001539,0.003338,-0.004990,-0.763399,0.009260,-0.438014,-0.474637,33.101034,42.652417,76.977564
53788,-6.615688,4.244531,6.692647,0.197100,0.526408,0.495453,-0.336552,0.663135,-0.887359,-0.065745,0.042850,0.067073,0.999983,-0.001683,0.003316,-0.004437,-0.764000,0.014056,-0.439674,-0.472009,32.703784,43.242797,76.683309
53789,-6.689607,3.708472,6.612517,0.499233,0.254087,0.282566,-0.354045,0.658919,-0.829862,-0.066523,0.037479,0.066279,0.999984,-0.001770,0.003295,-0.004149,-0.764451,0.018780,-0.441260,-0.469629,32.313295,43.811143,76.417013
53790,-7.004081,3.415879,6.737683,0.720709,0.035320,0.463501,-0.276665,0.667905,-0.832275,-0.069672,0.034543,0.067562,0.999985,-0.001383,0.003340,-0.004161,-0.764870,0.023237,-0.443055,-0.467050,31.961790,44.384073,76.145385
53791,-7.347197,3.290781,6.836494,0.798137,-0.118475,0.718032,-0.218851,0.615765,-0.881646,-0.073115,0.033306,0.068554,0.999985,-0.001094,0.003079,-0.004408,-0.765506,0.027456,-0.444761,-0.464149,31.596396,44.944523,75.809997
53792,-7.603697,3.145270,6.842906,0.841963,-0.266315,0.852840,-0.128614,0.518428,-0.934005,-0.075711,0.031851,0.068605,0.999986,-0.000643,0.002592,-0.004670,-0.766469,0.031223,-0.446288,-0.460845,31.219743,45.472188,75.388778
53793,-7.673331,3.181958,6.901258,0.815841,-0.165325,0.954785,-0.028851,0.398312,-0.964152,-0.076441,0.032199,0.069160,0.999986,-0.000144,0.001992,-0.004821,-0.767764,0.034395,-0.447563,-0.457211,30.839596,45.947077,74.886721
53794,-7.507018,3.459100,6.865476,0.595816,0.180919,0.914244,0.084090,0.303514,-0.949580,-0.074801,0.034918,0.068783,0.999987,0.000420,0.001518,-0.004748,-0.769238,0.036886,-0.448729,-0.453382,30.494136,46.369492,74.346649
53795,-7.524802,4.079867,7.073540,0.254008,0.712031,1.265707,0.100771,0.218416,-0.919425,-0.074982,0.041108,0.070838,0.999989,0.000504,0.001092,-0.004597,-0.770820,0.039048,-0.449595,-0.449640,30.139718,46.738071,73.784795
53796,-7.609751,3.952737,7.277518,0.436135,0.751428,1.400667,0.015021,0.106624,-0.898037,-0.075880,0.039863,0.072819,0.999990,0.000075,0.000533,-0.004490,-0.772572,0.041244,-0.449836,-0.446183,29.705938,47.043034,73.184504
53797,-7.763021,3.140868,7.311594,0.976151,0.246821,1.258656,-0.020579,-0.021970,-0.917905,-0.077493,0.031772,0.073104,0.999989,-0.000103,-0.000110,-0.004590,-0.774635,0.043331,-0.449484,-0.442749,29.195003,47.285366,72.509607
53798,-7.900385,2.558091,7.260308,1.284760,-0.166177,1.141460,0.093448,-0.171078,-0.965698,-0.078941,0.025928,0.072548,0.999988,0.000467,-0.000855,-0.004828,-0.777146,0.044755,-0.448790,-0.438894,28.672442,47.462638,71.732342
53799,-7.905789,2.683508,7.221479,1.112809,-0.075266,1.169487,0.255338,-0.329095,-0.969105,-0.079046,0.027126,0.072119,0.999986,0.001277,-0.001645,-0.004846,-0.780037,0.045208,-0.447822,-0.434690,28.189327,47.555986,70.884519
53800,-7.795752,3.179702,6.949455,0.545852,0.199054,1.088749,0.317752,-0.480251,-0.958915,-0.077971,0.032061,0.069358,0.999984,0.001589,-0.002401,-0.004795,-0.783234,0.045068,-0.446391,-0.430404,27.701054,47.565808,69.982031
53801,-7.587748,3.174554,6.866984,0.485569,0.303129,0.886809,0.322066,-0.568686,-0.926468,-0.075925,0.031987,0.068505,0.999984,0.001610,-0.002843,-0.004632,-0.786537,0.044643,-0.444615,-0.426245,27.208350,47.516304,69.069818
53802,-7.319493,3.213913,6.383463,0.151101,0.282310,0.412288,0.475091,-0.622103,-0.817961,-0.073261,0.032287,0.063683,0.999984,0.002375,-0.003110,-0.004090,-0.789736,0.043264,-0.442967,-0.422168,26.850531,47.407244,68.220657
53803,-7.391664,2.885715,6.285430,0.258841,-0.030061,0.306730,0.589791,-0.684452,-0.657576,-0.074036,0.028915,0.062686,0.999984,0.002949,-0.003422,-0.003288,-0.792735,0.040940,-0.441333,-0.418474,26.634083,47.221526,67.472257
53804,-6.954337,3.243491,6.254568,0.077212,0.433856,0.077124,0.801529,-0.681069,-0.545909,-0.069668,0.032375,0.062438,0.999982,0.004008,-0.003405,-0.002730,-0.795510,0.037540,-0.440167,-0.414738,26.605420,47.008292,66.812325
53805,-7.015257,3.653665,6.313746,-0.195274,0.658669,0.284561,0.776929,-0.643715,-0.566134,-0.070252,0.036490,0.063053,0.999983,0.003885,-0.003219,-0.002831,-0.798214,0.034354,-0.439077,-0.410957,26.565668,46.818613,66.154171
53806,-6.516616,4.002596,6.020580,-0.505536,1.061708,-0.150822,0.642382,-0.567738,-0.647057,-0.065207,0.040044,0.060149,0.999986,0.003212,-0.002839,-0.003235,-0.800869,0.032042,-0.437988,-0.407121,26.428065,46.688334,65.465950
53807,-6.247669,4.142476,5.622290,-0.805194,1.161152,-0.549481,0.488746,-0.397379,-0.668931,-0.062450,0.041496,0.056200,0.999989,0.002444,-0.001987,-0.003345,-0.803152,0.030736,-0.437253,-0.403499,26.238591,46.649300,64.826316
53808,-5.993478,4.739177,5.406610,-1.291500,1.658154,-0.691535,0.247511,-0.148855,-0.753858,-0.059796,0.047550,0.054080,0.999992,0.001238,-0.000744,-0.003769,-0.805011,0.031087,-0.437010,-0.400016,25.930428,46.758024,64.213951
53809,-6.518953,4.365615,5.481424,-1.163827,1.158806,-0.383812,-0.028314,0.050801,-0.772109,-0.065006,0.043915,0.054825,0.999993,-0.000142,0.000254,-0.003861,-0.806415,0.032984,-0.437008,-0.397026,25.504059,46.971279,63.657714
53810,-7.238154,3.695243,5.793820,-0.745469,0.445293,0.130132,-0.145510,0.128859,-0.680972,-0.072218,0.037241,0.057958,0.999994,-0.000728,0.000644,-0.003405,-0.807438,0.035311,-0.437099,-0.394641,25.077100,47.200131,63.194267
53811,-7.525542,3.284957,6.084861,-0.387915,0.161528,0.398748,-0.132741,0.088489,-0.575059,-0.075134,0.033106,0.060860,0.999996,-0.000664,0.000442,-0.002875,-0.808334,0.037274,-0.437065,-0.392660,24.702310,47.379942,62.793478
53812,-7.445857,2.882923,6.242326,-0.013647,0.041137,0.322232,-0.092631,0.027599,-0.526255,-0.074374,0.029054,0.062420,0.999996,-0.000463,0.000138,-0.002631,-0.809267,0.038848,-0.436871,-0.390796,24.359743,47.515002,62.406099
53813,-7.441452,2.719770,6.269890,0.088200,-0.018785,0.290557,-0.049138,-0.024542,-0.576954,-0.074343,0.027428,0.062683,0.999996,-0.000246,-0.000123,-0.002885,-0.810417,0.040255,-0.436536,-0.388639,23.997387,47.632789,61.959080
53814,-7.392716,2.619325,6.345101,0.188462,0.011470,0.273813,-0.086184,-0.063390,-0.674382,-0.073858,0.026470,0.063416,0.999994,-0.000431,-0.000317,-0.003372,-0.811825,0.041949,-0.435950,-0.386172,23.545687,47.750863,61.420654
53815,-7.305965,2.460212,6.167539,0.160498,-0.073199,0.058320,-0.144553,-0.074330,-0.794428,-0.072984,0.024937,0.061630,0.999992,-0.000723,-0.000372,-0.003972,-0.813466,0.044119,-0.435173,-0.383343,22.985020,47.886839,60.781532
53816,-7.300017,2.409247,6.017578,0.046708,-0.110856,-0.050978,-0.190509,-0.063048,-0.890363,-0.072911,0.024474,0.060130,0.999990,-0.000953,-0.000315,-0.004452,-0.815240,0.046707,-0.434327,-0.380213,22.340613,48.045735,60.066492
53817,-7.176776,2.300956,5.884481,0.017121,-0.105374,-0.251538,-0.249424,-0.019012,-0.993667,-0.071658,0.023439,0.058809,0.999987,-0.001247,-0.000095,-0.004968,-0.817084,0.049841,-0.433512,-0.376772,21.606171,48.244110,59.278005
53818,-7.287056,2.289852,5.890655,-0.067367,-0.095207,-0.167489,-0.358302,0.038423,-1.140434,-0.072727,0.023419,0.058879,0.999982,-0.001791,0.000192,-0.005702,-0.819027,0.053845,-0.432680,-0.372940,20.726814,48.496412,58.381773
53819,-7.874511,1.718609,6.033441,0.127028,-0.681255,0.231327,-0.462677,0.017271,-1.314491,-0.078624,0.017843,0.060300,0.999976,-0.002313,0.000086,-0.006572,-0.821278,0.058611,-0.431499,-0.368613,19.665668,48.761352,57.326664
53820,-8.083352,1.223208,5.985276,0.259318,-1.074416,0.258919,-0.382236,-0.089259,-1.347893,-0.080775,0.012891,0.059792,0.999975,-0.001911,-0.000446,-0.006739,-0.823805,0.062921,-0.430000,-0.363988,18.595027,48.962210,56.201437
53821,-7.393210,1.952760,5.763498,-0.192833,-0.173745,-0.240726,-0.195878,-0.142871,-1.227463,-0.073851,0.020037,0.057563,0.999980,-0.000979,-0.000714,-0.006137,-0.826250,0.066102,-0.428637,-0.359460,17.686706,49.099245,55.152722
53822,-6.610123,3.027408,5.504828,-0.825254,0.995664,-0.785550,-0.131282,-0.044516,-0.947855,-0.065969,0.030623,0.055014,0.999989,-0.000656,-0.000223,-0.004739,-0.827978,0.068594,-0.427878,-0.355903,17.005843,49.233132,54.357828
53823,-6.612554,3.721009,5.520828,-1.297724,1.572365,-0.653291,-0.211731,0.118105,-0.685341,-0.065965,0.037495,0.055208,0.999993,-0.001059,0.000591,-0.003427,-0.828850,0.071144,-0.427729,-0.353545,16.472838,49.407035,53.820545
53824,-7.149793,2.842563,5.621231,-0.895563,0.742411,-0.355186,-0.398989,0.218809,-0.556783,-0.071357,0.028737,0.056233,0.999994,-0.001995,0.001094,-0.002784,-0.829201,0.074372,-0.427709,-0.352079,15.929797,49.612833,53.412504
53825,-7.856428,1.398685,6.046752,0.016728,-0.449404,0.189325,-0.409908,0.211519,-0.605944,-0.078457,0.014349,0.060521,0.999993,-0.002050,0.001058,-0.003030,-0.829639,0.077737,-0.427613,-0.350432,15.342333,49.819241,52.955840
53826,-8.249615,0.479450,6.399886,0.653325,-1.114547,0.559147,-0.306710,0.107679,-0.743970,-0.082443,0.005199,0.064035,0.999992,-0.001534,0.000538,-0.003720,-0.830568,0.080786,-0.427210,-0.348025,14.700295,49.985853,52.351595
53827,-8.484007,0.581378,6.658706,0.612543,-0.978799,0.926064,-0.185516,-0.036428,-0.926619,-0.084824,0.006269,0.066566,0.999989,-0.000928,-0.000182,-0.004633,-0.832157,0.083469,-0.426335,-0.344654,13.977461,50.093390,51.552757
53828,-8.508844,0.759122,6.823383,0.521464,-0.716632,1.084498,-0.247611,-0.203032,-1.137499,-0.085112,0.008160,0.068138,0.999983,-0.001238,-0.001015,-0.005687,-0.834414,0.086572,-0.424562,-0.340596,13.048501,50.129327,50.532399
53829,-8.321934,0.177392,6.580380,0.714813,-1.095440,0.717036,-0.281373,-0.359687,-1.288910,-0.083323,0.002403,0.065651,0.999977,-0.001407,-0.001798,-0.006444,-0.837214,0.089865,-0.421993,-0.336033,11.975051,50.084601,49.348962
53830,-7.971706,0.274637,6.355011,0.543073,-0.883200,0.332920,-0.187179,-0.473615,-1.350781,-0.079846,0.003345,0.063358,0.999974,-0.000936,-0.002368,-0.006754,-0.840359,0.092701,-0.419060,-0.331046,10.902287,49.969131,48.094627
53831,-6.899857,0.837011,5.992791,0.315240,-0.044230,-0.640990,-0.126430,-0.462244,-1.195898,-0.069085,0.008821,0.059763,0.999979,-0.000632,-0.002311,-0.005979,-0.843215,0.094970,-0.416324,-0.326564,9.976379,49.829538,46.984408
53832,-6.248692,1.949268,5.577275,-0.431674,0.979710,-1.280085,-0.055068,-0.285591,-0.885161,-0.062479,0.019785,0.055678,0.999989,-0.000275,-0.001428,-0.004426,-0.845202,0.096579,-0.414587,-0.323147,9.324467,49.750467,46.177715
53833,-6.431405,2.413987,5.624210,-0.816217,1.313180,-1.070198,-0.236637,-0.065929,-0.629783,-0.064256,0.024409,0.056192,0.999994,-0.001183,-0.000330,-0.003149,-0.846220,0.098777,-0.413599,-0.321076,8.764599,49.766773,45.627430
53834,-7.159334,1.171294,5.540174,-0.451358,0.020097,-0.695824,-0.290007,0.075642,-0.437173,-0.071546,0.011950,0.055412,0.999996,-0.001450,0.000378,-0.002186,-0.846602,0.101030,-0.413218,-0.319857,8.316662,49.844149,45.264076
53835,-7.743263,0.975906,5.963400,-0.346139,-0.174552,0.001701,-0.197929,0.108692,-0.380697,-0.077381,0.009965,0.059666,0.999998,-0.000990,0.000543,-0.001903,-0.846868,0.102828,-0.413148,-0.318669,7.961300,49.933673,44.953247
53836,-8.189552,0.638853,6.370385,-0.103829,-0.418061,0.573500,-0.228822,0.059884,-0.496877,-0.081860,0.006665,0.063721,0.999996,-0.001144,0.000299,-0.002484,-0.847397,0.104919,-0.412763,-0.317075,7.503775,50.003421,44.532436
53837,-8.483635,-0.366047,6.516667,0.442499,-1.221383,0.812051,-0.162899,-0.076383,-0.648695,-0.084872,-0.003332,0.065137,0.999994,-0.000814,-0.000382,-0.003243,-0.848477,0.106826,-0.411818,-0.314771,6.968380,50.003923,43.960928
53838,-8.604719,-0.249368,6.858876,0.472418,-0.991603,1.139051,-0.016090,-0.240434,-0.845402,-0.086139,-0.002124,0.068485,0.999990,-0.000080,-0.001202,-0.004227,-0.850268,0.108258,-0.410301,-0.311412,6.371372,49.920965,43.198764
53839,-8.742837,-0.486312,7.038096,0.582699,-1.118019,1.350554,-0.037154,-0.444080,-1.080442,-0.087609,-0.004377,0.070187,0.999983,-0.000186,-0.002220,-0.005402,-0.852811,0.109939,-0.407744,-0.307201,5.593460,49.729679,42.214079
53840,-8.069272,-0.588551,6.703389,0.649774,-1.015268,0.624783,0.033249,-0.630288,-1.221932,-0.080937,-0.005403,0.066778,0.999976,0.000166,-0.003151,-0.006110,-0.855954,0.111321,-0.404409,-0.302331,4.759164,49.430990,41.098911
53841,-6.717652,0.694375,6.231846,0.139016,0.401749,-0.633169,0.123480,-0.629062,-1.149400,-0.067331,0.007292,0.062111,0.999978,0.000617,-0.003145,-0.005747,-0.858998,0.112165,-0.401236,-0.297576,4.038994,49.119576,40.060883
53842,-5.336312,1.977829,5.602012,-0.393747,1.756121,-2.032494,0.059826,-0.399482,-0.753689,-0.053400,0.019963,0.055919,0.999991,0.000299,-0.001997,-0.003768,-0.860930,0.112829,-0.399167,-0.294510,3.563263,48.917780,39.391115
53843,-5.457854,2.798190,5.485861,-1.042664,2.329748,-1.989786,-0.065557,-0.039976,-0.309990,-0.054546,0.028084,0.054839,0.999999,-0.000328,-0.000200,-0.001550,-0.861412,0.113672,-0.398704,-0.293399,3.324693,48.903152,39.130033
53844,-6.769642,1.196866,5.597215,-0.692891,0.567985,-0.993015,-0.237005,0.185311,-0.037398,-0.067642,0.012048,0.056021,0.999999,-0.001185,0.000927,-0.000187,-0.860945,0.115042,-0.399117,-0.293674,3.175000,49.008327,39.117249
53845,-7.982311,0.356472,6.398024,-0.307449,-0.236594,0.416120,-0.227186,0.221225,-0.051416,-0.079751,0.003658,0.064064,0.999999,-0.001136,0.001106,-0.000257,-0.860432,0.116449,-0.399686,-0.293850,3.022750,49.134095,39.093627
53846,-8.608004,-0.795106,6.643952,0.214225,-1.278807,1.012777,-0.184557,0.103389,-0.253605,-0.086056,-0.007781,0.066491,0.999999,-0.000923,0.000517,-0.001268,-0.860472,0.117905,-0.399696,-0.293137,2.756437,49.198607,38.886991
53847,-8.603014,-0.944714,6.798940,0.379190,-1.298656,1.109742,-0.020669,-0.078041,-0.484408,-0.086079,-0.009232,0.067957,0.999997,-0.000103,-0.000390,-0.002422,-0.861308,0.118848,-0.399025,-0.291210,2.425250,49.164155,38.470610
53848,-8.295699,-0.391792,6.750583,0.134891,-0.727369,0.864156,0.110546,-0.234642,-0.650483,-0.083048,-0.003685,0.067406,0.999994,0.000553,-0.001173,-0.003252,-0.862767,0.119332,-0.397771,-0.288395,2.056271,49.042544,37.904374
53849,-8.254864,-0.091117,6.877715,-0.002742,-0.390640,0.925143,0.063453,-0.371495,-0.797221,-0.082679,-0.000604,0.068623,0.999990,0.000317,-0.001857,-0.003986,-0.864669,0.120108,-0.395762,-0.285120,1.564735,48.841996,37.209919
53850,-8.205110,-0.604686,6.847709,0.225670,-0.772297,0.861226,0.022089,-0.514324,-0.974558,-0.082255,-0.005654,0.068265,0.999985,0.000110,-0.002572,-0.004873,-0.867060,0.121211,-0.392964,-0.281237,0.938195,48.557867,36.364875
53851,-8.179350,-1.098701,7.030713,0.533746,-1.054479,0.964221,0.029788,-0.635731,-1.187931,-0.082080,-0.010510,0.070045,0.999977,0.000149,-0.003179,-0.005940,-0.869963,0.122522,-0.389503,-0.276479,0.189078,48.198245,35.345621
53852,-7.977539,-1.315507,6.924183,0.576709,-1.170412,0.751968,0.112709,-0.786423,-1.343897,-0.080133,-0.012656,0.068920,0.999970,0.000564,-0.003932,-0.006719,-0.873379,0.123564,-0.385388,-0.270956,-0.595605,47.743400,34.208271
53853,-7.357283,-0.623421,6.834927,0.343106,-0.381216,0.235699,0.212127,-0.853793,-1.402295,-0.073905,-0.005789,0.068028,0.999966,0.001061,-0.004269,-0.007011,-0.877010,0.124182,-0.381050,-0.265013,-1.337842,47.238820,33.042298
53854,-6.692903,0.200849,6.481347,-0.068761,0.421640,-0.503570,0.201458,-0.817231,-1.368447,-0.067178,0.002402,0.064542,0.999968,0.001007,-0.004086,-0.006842,-0.880462,0.124827,-0.376857,-0.259197,-2.044918,46.746287,31.923695
53855,-6.255389,0.688585,6.244732,-0.319437,0.915935,-1.000249,0.098500,-0.683690,-1.250554,-0.062722,0.007247,0.062237,0.999974,0.000492,-0.003418,-0.006253,-0.883396,0.125865,-0.373168,-0.253998,-2.723170,46.323378,30.917291
53856,-6.209689,0.736114,6.223834,-0.407659,0.995636,-1.055963,0.014488,-0.515945,-1.088259,-0.062216,0.007695,0.062078,0.999982,0.000072,-0.002580,-0.005441,-0.885719,0.127183,-0.370201,-0.249554,-3.344128,45.993972,30.051044
53857,-6.673275,0.703007,6.794849,-0.397408,1.078539,-0.332438,-0.088929,-0.377450,-0.964016,-0.066826,0.007382,0.067819,0.999987,-0.000445,-0.001887,-0.004820,-0.887538,0.128893,-0.367784,-0.245758,-3.945784,45.741484,29.289673
53858,-7.075130,-0.209760,7.130189,-0.026818,0.350420,0.228077,-0.175261,-0.335483,-0.902479,-0.070879,-0.001716,0.071185,0.999988,-0.000876,-0.001677,-0.004512,-0.889126,0.130925,-0.365480,-0.242358,-4.555842,45.510393,28.582837
53859,-7.638652,-0.955830,7.683027,0.267067,-0.200065,1.058349,-0.119557,-0.388088,-0.934778,-0.076579,-0.009155,0.076687,0.999987,-0.000598,-0.001940,-0.004674,-0.890865,0.132698,-0.362977,-0.238744,-5.142818,45.242161,27.860329
53860,-7.729399,-1.365745,7.929613,0.476265,-0.439082,1.325852,-0.023190,-0.534252,-1.025368,-0.077574,-0.013251,0.079091,0.999983,-0.000116,-0.002671,-0.005127,-0.893014,0.134031,-0.359870,-0.234639,-5.710488,44.880919,27.083388
53861,-7.373131,-1.384943,8.029173,0.662546,-0.273278,1.152441,0.098209,-0.671903,-1.104573,-0.074076,-0.013480,0.080037,0.999979,0.000491,-0.003359,-0.005523,-0.895553,0.134796,-0.356221,-0.230048,-6.233523,44.430937,26.265201
53862,-7.063755,-0.995545,8.042141,0.557851,0.179893,0.921330,0.161771,-0.772304,-1.144848,-0.071003,-0.009615,0.080140,0.999976,0.000809,-0.003861,-0.005724,-0.898318,0.135229,-0.352156,-0.225219,-6.723120,43.916393,25.436002
53863,-7.037966,-0.882051,7.924207,0.332730,0.251624,0.814108,0.124794,-0.848689,-1.171216,-0.070765,-0.008456,0.078937,0.999974,0.000624,-0.004243,-0.005856,-0.901180,0.135778,-0.347668,-0.220378,-7.227568,43.351106,24.607501
53864,-6.504214,-1.026938,7.619535,0.463724,0.178565,0.245572,0.135268,-0.892625,-1.179301,-0.065441,-0.009936,0.075897,0.999972,0.000676,-0.004463,-0.005896,-0.904085,0.136242,-0.342971,-0.215500,-7.711677,42.755375,23.791410
53865,-6.452382,-1.142816,7.685539,0.472914,0.127129,0.275216,0.146301,-0.893865,-1.129861,-0.064930,-0.011118,0.076558,0.999974,0.000731,-0.004469,-0.005649,-0.906898,0.136560,-0.338294,-0.210817,-8.147304,42.157815,23.028177
53866,-6.441870,-1.043390,7.693287,0.321950,0.223617,0.267903,0.213647,-0.884973,-1.083703,-0.064814,-0.010165,0.076636,0.999975,0.001068,-0.004425,-0.005418,-0.909648,0.136500,-0.333744,-0.206211,-8.507678,41.565443,22.311465
53867,-6.561536,-1.186918,7.823942,0.263423,0.115995,0.463139,0.157840,-0.891773,-1.051079,-0.066025,-0.011584,0.077936,0.999976,0.000789,-0.004459,-0.005255,-0.912294,0.136622,-0.329111,-0.201843,-8.869623,40.968481,21.632025
53868,-6.675744,-1.486564,7.670477,0.119663,-0.238318,0.460549,0.239452,-0.904144,-1.038200,-0.067180,-0.014609,0.076384,0.999976,0.001197,-0.004521,-0.005191,-0.914958,0.136335,-0.324497,-0.197396,-9.165722,40.362923,20.974012
53869,-6.619989,-1.106623,7.799839,-0.057503,0.158009,0.475995,0.286329,-0.909288,-1.043251,-0.066610,-0.010831,0.077681,0.999975,0.001432,-0.004546,-0.005216,-0.917624,0.135827,-0.319886,-0.192846,-9.424882,39.751409,20.322981
53870,-6.425330,-1.068078,7.757117,-0.070070,0.224629,0.313620,0.257505,-0.907271,-1.041773,-0.064659,-0.010444,0.077265,0.999975,0.001288,-0.004536,-0.005209,-0.920220,0.135447,-0.315243,-0.188337,-9.689204,39.139064,19.681834
53871,-6.245714,-0.976841,7.638031,-0.149870,0.305386,0.096200,0.288400,-0.883279,-1.007546,-0.062842,-0.009562,0.076089,0.999977,0.001442,-0.004416,-0.005038,-0.922724,0.134884,-0.310746,-0.183912,-9.910881,38.541352,19.071648
53872,-5.947408,-0.695459,7.557009,-0.189688,0.597727,-0.191371,0.301416,-0.843082,-0.916089,-0.059823,-0.006795,0.075308,0.999979,0.001507,-0.004215,-0.004580,-0.925049,0.134153,-0.306496,-0.179853,-10.078496,37.973959,18.529308
53873,-5.701382,-0.231675,7.588070,-0.267839,1.078137,-0.383817,0.290391,-0.777755,-0.793462,-0.057317,-0.002200,0.075655,0.999984,0.001452,-0.003889,-0.003967,-0.927124,0.133336,-0.302608,-0.176329,-10.196004,37.454569,18.072153
53874,-5.413701,0.120961,7.577849,-0.272263,1.454956,-0.617298,0.189122,-0.685376,-0.653227,-0.054392,0.001315,0.075594,0.999988,0.000946,-0.003427,-0.003266,-0.928841,0.132857,-0.299145,-0.173540,-10.313269,37.000971,17.706541
53875,-5.321557,0.034804,7.561469,-0.238437,1.392547,-0.674872,0.019018,-0.559401,-0.552501,-0.053426,0.000488,0.075466,0.999992,0.000095,-0.002797,-0.002762,-0.930152,0.133121,-0.296180,-0.171388,-10.490764,36.627897,17.399220
53876,-5.298274,-0.795186,7.367870,-0.042152,0.584640,-0.721716,-0.046754,-0.430707,-0.429192,-0.053158,-0.007821,0.073566,0.999995,-0.000234,-0.002154,-0.002146,-0.931111,0.133618,-0.293837,-0.169818,-10.661707,36.339650,17.164057
53877,-5.486169,-0.819130,7.408303,-0.198886,0.535619,-0.575511,0.051854,-0.323943,-0.311450,-0.054994,-0.008125,0.073992,0.999997,0.000259,-0.001620,-0.001557,-0.931873,0.133572,-0.292150,-0.168580,-10.734007,36.123512,16.998632
53878,-5.682566,-0.729903,7.540391,-0.351124,0.615533,-0.369194,0.027444,-0.257281,-0.229445,-0.056931,-0.007244,0.075330,0.999999,0.000137,-0.001286,-0.001147,-0.932449,0.133576,-0.290807,-0.167714,-10.791125,35.953635,16.882104
53879,-5.891384,-0.893907,7.521847,-0.484275,0.410647,-0.237592,0.019179,-0.218630,-0.183224,-0.059004,-0.008892,0.075153,0.999999,0.000096,-0.001093,-0.000916,-0.932922,0.133583,-0.289667,-0.167049,-10.836570,35.810280,16.793046
53880,-5.945952,-1.073543,7.588838,-0.447575,0.260125,-0.126136,-0.037173,-0.190112,-0.192194,-0.059542,-0.010664,0.075834,0.999999,-0.000186,-0.000951,-0.000961,-0.933321,0.133889,-0.288608,-0.166405,-10.919801,35.682058,16.694286
53881,-5.882216,-1.768465,7.389242,-0.250586,-0.421164,-0.216406,-0.013502,-0.180279,-0.198207,-0.058906,-0.017621,0.073841,0.999999,-0.000068,-0.000901,-0.000991,-0.933726,0.134101,-0.287608,-0.165692,-10.992246,35.558466,16.590452
53882,-6.001229,-1.696414,7.535018,-0.321286,-0.333602,-0.042605,0.105367,-0.180056,-0.191857,-0.060096,-0.016946,0.075287,0.999999,0.000527,-0.000900,-0.000959,-0.934203,0.133750,-0.286713,-0.164836,-10.993743,35.435810,16.491195
53883,-5.949113,-1.351302,7.668647,-0.369277,0.031826,-0.020411,0.134714,-0.212347,-0.200731,-0.059586,-0.013505,0.076614,0.999999,0.000674,-0.001062,-0.001004,-0.934752,0.133247,-0.285684,-0.163919,-10.979175,35.293860,16.390324
53884,-5.810609,-1.415213,7.548199,-0.319065,-0.044533,-0.187851,0.128414,-0.242332,-0.186123,-0.058211,-0.014146,0.075402,0.999999,0.000642,-0.001212,-0.000931,-0.935324,0.132728,-0.284520,-0.163099,-10.959843,35.136866,16.303600
53885,-5.575724,-1.173753,7.503166,-0.272842,0.203927,-0.397391,0.128137,-0.252848,-0.158990,-0.055861,-0.011741,0.074954,0.999999,0.000641,-0.001264,-0.000795,-0.935887,0.132162,-0.283322,-0.162412,-10.928886,34.976735,16.237051
53886,-5.412674,-1.070471,7.441456,-0.236441,0.304637,-0.556907,0.092861,-0.233490,-0.131865,-0.054221,-0.010704,0.074346,0.999999,0.000464,-0.001167,-0.000659,-0.936374,0.131739,-0.282205,-0.161889,-10.908800,34.830691,16.186545
53887,-5.420454,-1.275552,7.311621,-0.248208,0.064184,-0.625609,0.054739,-0.194707,-0.100118,-0.054282,-0.012748,0.073060,0.999999,0.000274,-0.000974,-0.000501,-0.936756,0.131480,-0.281258,-0.161543,-10.900949,34.709688,16.152744
53888,-5.527105,-1.153526,7.315672,-0.391945,0.145036,-0.581008,0.093746,-0.151342,-0.067889,-0.055330,-0.011551,0.073109,1.000000,0.000469,-0.000757,-0.000339,-0.937074,0.131028,-0.280568,-0.161264,-10.861390,34.616828,16.135244
53889,-5.695022,-1.079564,7.499517,-0.475856,0.228871,-0.348932,0.055097,-0.124692,-0.068468,-0.057001,-0.010797,0.074957,1.000000,0.000275,-0.000623,-0.000342,-0.937330,0.130780,-0.279969,-0.161019,-10.846201,34.538663,16.113845
53890,-5.792898,-1.460085,7.570759,-0.388183,-0.122327,-0.177323,0.049471,-0.122472,-0.076800,-0.057981,-0.014597,0.075668,1.000000,0.000247,-0.000612,-0.000384,-0.937584,0.130571,-0.279373,-0.160741,-10.837544,34.461132,16.086456
53891,-5.774564,-1.478950,7.703971,-0.314158,-0.097607,-0.077400,0.107767,-0.122879,-0.077206,-0.057799,-0.014809,0.076996,1.000000,0.000539,-0.000614,-0.000386,-0.937878,0.130089,-0.278819,-0.160381,-10.795645,34.383060,16.058839
53892,-5.895708,-1.423524,7.920876,-0.338321,-0.012599,0.157841,0.137999,-0.138858,-0.086357,-0.059018,-0.014264,0.079158,0.999999,0.000690,-0.000694,-0.000432,-0.938219,0.129465,-0.278210,-0.159945,-10.738719,34.295345,16.026983
53893,-6.213653,-1.708299,8.065293,-0.430177,-0.311409,0.497243,0.166642,-0.182271,-0.096684,-0.062218,-0.017120,0.080582,0.999999,0.000833,-0.000911,-0.000483,-0.938647,0.128686,-0.277411,-0.159449,-10.666249,34.181808,15.993617
53894,-7.007819,-1.873484,8.513524,-0.809534,-0.517145,1.330770,0.269532,-0.308922,-0.145977,-0.070223,-0.018798,0.085002,0.999998,0.001348,-0.001545,-0.000730,-0.939353,0.127391,-0.276071,-0.158660,-10.544552,33.992145,15.942659
53895,-7.223238,-1.748309,9.196270,-0.749750,-0.255801,1.984564,0.213648,-0.565982,-0.269059,-0.072516,-0.017484,0.091739,0.999995,0.001068,-0.002830,-0.001345,-0.940469,0.126324,-0.273395,-0.157532,-10.483281,33.644518,15.840415
53896,-6.412310,-2.267034,8.962246,-0.102576,-0.650626,1.418714,0.169856,-0.798324,-0.413901,-0.064527,-0.022613,0.089346,0.999990,0.000849,-0.003992,-0.002069,-0.941973,0.125476,-0.269500,-0.155928,-10.484131,33.151366,15.669668
53897,-5.115040,-2.023094,8.839150,0.701531,-0.198486,0.572626,0.196629,-0.867342,-0.525182,-0.051586,-0.020183,0.088149,0.999987,0.000983,-0.004337,-0.002626,-0.943652,0.124595,-0.265220,-0.153803,-10.503640,32.607263,15.434008
53898,-4.220528,-2.195318,8.303668,1.151344,-0.351510,-0.318827,0.210410,-0.804312,-0.558358,-0.042600,-0.021922,0.082843,0.999987,0.001052,-0.004022,-0.002792,-0.945257,0.123738,-0.261225,-0.151459,-10.528596,32.095531,15.169977
53899,-3.809173,-1.634026,7.959832,1.062394,0.122307,-0.902314,0.369245,-0.638547,-0.493882,-0.038386,-0.016392,0.079446,0.999990,0.001846,-0.003193,-0.002469,-0.946675,0.122169,-0.258164,-0.149108,-10.448317,31.683611,14.929487
53900,-4.883445,-1.166918,8.495131,0.206518,0.452523,0.042731,0.369010,-0.512011,-0.377058,-0.049074,-0.011733,0.084804,0.999993,0.001845,-0.002560,-0.001885,-0.947826,0.120544,-0.255772,-0.147229,-10.334503,31.355730,14.750938
53901,-6.307884,-0.750166,9.149967,-0.872264,0.694627,1.270195,0.357046,-0.594678,-0.322338,-0.063363,-0.007563,0.091298,0.999993,0.001785,-0.002973,-0.001612,-0.949023,0.118842,-0.253006,-0.145673,-10.202850,30.986851,14.618240
53902,-6.327272,-1.269098,9.380103,-0.687907,0.248819,1.549330,0.103513,-0.789512,-0.358220,-0.063665,-0.012626,0.093544,0.999990,0.000518,-0.003948,-0.001791,-0.950325,0.118244,-0.249108,-0.144381,-10.215818,30.504904,14.485114
53903,-6.374452,-2.798983,9.120288,-0.436681,-1.285041,1.580485,0.144160,-0.960756,-0.455797,-0.064245,-0.027909,0.090875,0.999986,0.000721,-0.004804,-0.002279,-0.951913,0.117449,-0.244360,-0.142673,-10.225891,29.916132,14.309363
53904,-5.779214,-2.685116,9.449003,0.038158,-0.985734,1.541515,0.240534,-1.150602,-0.630787,-0.058419,-0.026781,0.094123,0.999978,0.001203,-0.005753,-0.003154,-0.953879,0.116269,-0.238668,-0.140120,-10.223490,29.202891,14.043481
53905,-4.313959,-2.960807,8.824646,0.964339,-1.149649,0.336088,0.291685,-1.211035,-0.761154,-0.043785,-0.029571,0.087939,0.999973,0.001458,-0.006055,-0.003806,-0.955993,0.114952,-0.232633,-0.136913,-10.224896,28.441931,13.702693
53906,-3.184499,-2.219018,8.276580,1.346902,-0.418258,-0.780709,0.475628,-1.087029,-0.790460,-0.032382,-0.022259,0.082538,0.999975,0.002378,-0.005435,-0.003952,-0.958038,0.112871,-0.227291,-0.133273,-10.132038,27.748535,13.330445
53907,-3.276443,-1.130192,8.544843,0.947994,0.615208,-0.661247,0.465158,-0.897339,-0.740675,-0.033189,-0.011378,0.085274,0.999980,0.002326,-0.004487,-0.003703,-0.959787,0.110903,-0.222865,-0.129771,-10.036220,27.167320,12.969428
53908,-4.351596,-1.294754,8.603438,0.007681,0.223505,-0.087396,0.433503,-0.781698,-0.625095,-0.043892,-0.012997,0.085835,0.999985,0.002168,-0.003908,-0.003125,-0.961281,0.109032,-0.219033,-0.126789,-9.928154,26.663657,12.669134
53909,-6.805636,-1.404203,9.746267,-1.745036,-0.091852,2.028911,0.386857,-0.896767,-0.599191,-0.068534,-0.014025,0.097129,0.999984,0.001934,-0.004484,-0.002996,-0.962830,0.107278,-0.214623,-0.124043,-9.831070,26.097823,12.398316
53910,-8.733690,-2.391435,10.882469,-2.874561,-1.131779,4.003122,0.241912,-1.370426,-0.777331,-0.088172,-0.023704,0.108194,0.999968,0.001210,-0.006852,-0.003887,-0.964873,0.106115,-0.207740,-0.120842,-9.839762,25.247665,12.068373
53911,-7.013280,-3.538424,10.522248,-1.417969,-2.009137,3.085758,0.146828,-1.955353,-1.138588,-0.071357,-0.035057,0.104503,0.999936,0.000734,-0.009777,-0.005693,-0.967601,0.105422,-0.197763,-0.116297,-9.962864,24.031097,11.581493
53912,-2.265282,-4.113020,8.547930,2.013846,-2.212229,-0.530392,0.250744,-2.103005,-1.409644,-0.023839,-0.041072,0.085181,0.999919,0.001254,-0.010515,-0.007048,-0.970545,0.104395,-0.186966,-0.110397,-10.073592,22.703849,10.951343
53913,0.409857,-3.034138,7.191520,3.513098,-1.109122,-2.919402,0.652864,-1.691917,-1.452976,0.003269,-0.030602,0.071846,0.999933,0.003264,-0.008459,-0.007265,-0.973197,0.101667,-0.178331,-0.103682,-9.965838,21.603660,10.256358
53914,-0.540928,-0.729290,7.467893,2.072878,0.929785,-2.641112,0.836921,-1.191486,-1.262591,-0.005901,-0.007569,0.074613,0.999954,0.004185,-0.005957,-0.006313,-0.975287,0.098125,-0.172305,-0.097461,-9.719437,20.806933,9.624751
53915,-2.895840,0.398838,8.631261,-0.058921,1.848216,-0.889481,0.707085,-0.955230,-0.968649,-0.029351,0.003825,0.086187,0.999971,0.003535,-0.004776,-0.004843,-0.976893,0.095066,-0.167497,-0.092664,-9.486132,20.173935,9.145985
53916,-5.192352,0.367223,9.595855,-1.971227,1.638566,0.798820,0.529444,-1.059846,-0.648957,-0.052419,0.003588,0.095691,0.999977,0.002647,-0.005299,-0.003245,-0.978304,0.092558,-0.162240,-0.089621,-9.281382,19.513567,8.868978
53917,-6.026578,-0.110214,10.297390,-2.571614,1.160936,1.780618,0.302327,-1.400293,-0.457595,-0.060987,-0.001118,0.102547,0.999972,0.001512,-0.007001,-0.002288,-0.979751,0.090845,-0.155295,-0.087852,-9.154920,18.678794,8.738990
53918,-4.074707,-1.573966,9.677545,-0.799814,-0.139435,0.773790,0.121606,-1.681772,-0.456734,-0.041595,-0.015704,0.096418,0.999962,0.000608,-0.008409,-0.002284,-0.981269,0.089888,-0.146885,-0.086349,-9.121845,17.685417,8.635825
53919,-2.019448,-2.671943,8.759543,0.931775,-1.128768,-0.549721,0.204235,-1.627161,-0.538352,-0.020978,-0.026753,0.087400,0.999963,0.001021,-0.008136,-0.002692,-0.982746,0.088601,-0.138728,-0.084355,-9.055457,16.715261,8.478930
53920,-1.466270,-2.404567,8.680234,1.238477,-0.848588,-0.811426,0.373511,-1.419241,-0.648069,-0.015356,-0.024159,0.086650,0.999968,0.001868,-0.007096,-0.003240,-0.984131,0.086642,-0.131608,-0.081605,-8.913829,15.853602,8.236749
53921,-2.115653,-2.217300,8.955855,0.524774,-0.751139,-0.391504,0.465249,-1.207026,-0.715537,-0.021776,-0.022304,0.089377,0.999973,0.002326,-0.006035,-0.003578,-0.985386,0.084356,-0.125530,-0.078367,-8.732255,15.106450,7.934159
53922,-4.207738,-1.972666,9.899938,-1.428938,-0.669617,1.009190,0.600649,-1.237993,-0.714126,-0.042760,-0.019871,0.098677,0.999970,0.003003,-0.006190,-0.003571,-0.986660,0.081387,-0.119349,-0.075059,-8.469198,14.343309,7.633074
53923,-5.944331,-1.919079,11.172453,-2.992138,-0.676242,2.614198,0.596177,-1.575660,-0.691470,-0.060387,-0.019315,0.111194,0.999959,0.002981,-0.007878,-0.003457,-0.988056,0.078292,-0.111498,-0.071998,-8.194489,13.391701,7.371699
53924,-5.833094,-1.566463,10.982252,-3.211087,-0.424172,2.294793,0.659201,-2.125348,-0.743258,-0.059552,-0.015805,0.109142,0.999931,0.003296,-0.010626,-0.003716,-0.989693,0.074711,-0.100927,-0.068852,-7.876676,12.125924,7.121323
53925,-1.476925,-0.856057,9.243634,0.336956,0.442640,-0.429464,0.538637,-2.385747,-0.800323,-0.015905,-0.008747,0.092228,0.999917,0.002693,-0.011928,-0.004002,-0.991286,0.071651,-0.088984,-0.065573,-7.625312,10.708621,6.853434
53926,1.454562,-0.775599,7.500295,2.709409,0.528794,-2.646884,0.574904,-2.078925,-0.732211,0.013736,-0.008023,0.075126,0.999935,0.002874,-0.010394,-0.003661,-0.992587,0.068475,-0.078591,-0.062495,-7.345613,9.472571,6.595922
53927,0.882378,-0.220939,7.605890,1.960021,0.957196,-2.469833,0.686774,-1.607912,-0.585329,0.008205,-0.002495,0.076118,0.999958,0.003434,-0.008039,-0.002927,-0.993590,0.064822,-0.070607,-0.059934,-6.989648,8.515570,6.382908
53928,-0.797198,0.091158,8.559560,0.284852,1.145400,-1.297085,0.626640,-1.358083,-0.424229,-0.008551,0.000661,0.085541,0.999970,0.003133,-0.006790,-0.002121,-0.994364,0.061484,-0.063896,-0.058110,-6.655353,7.713350,6.239851
53929,-2.160879,-0.458639,9.108005,-1.038101,0.463756,-0.509931,0.604377,-1.313196,-0.269592,-0.022213,-0.004832,0.090921,0.999973,0.003022,-0.006566,-0.001348,-0.995016,0.058213,-0.057442,-0.057044,-6.321156,6.947132,6.178283
53930,-2.039517,-0.258140,9.522824,-1.022743,0.654906,-0.146583,0.647969,-1.447799,-0.155904,-0.021086,-0.002873,0.095068,0.999968,0.003240,-0.007239,-0.000780,-0.995629,0.054654,-0.050365,-0.056567,-5.953549,6.112014,6.185487
53931,-0.624172,0.500080,9.245835,0.131349,1.448939,-0.647172,0.651182,-1.445434,-0.073340,-0.006908,0.004702,0.092426,0.999969,0.003256,-0.007227,-0.000367,-0.996155,0.051053,-0.043316,-0.056497,-5.579811,5.282541,6.234506
53932,-0.331972,0.194900,9.276758,0.336847,1.117985,-0.601735,0.455198,-1.332639,-0.003051,-0.003938,0.001738,0.092747,0.999975,0.002276,-0.006663,-0.000015,-0.996531,0.048443,-0.036793,-0.056787,-5.316678,4.521424,6.312834
53933,-0.367263,0.080868,9.327123,0.207141,0.949414,-0.528769,0.507807,-1.185419,0.055794,-0.004226,0.000571,0.093249,0.999979,0.002539,-0.005927,0.000279,-0.996831,0.045599,-0.031027,-0.057322,-5.022613,3.846525,6.413496
53934,-0.400999,-0.104994,9.658943,0.113415,0.741184,-0.174024,0.350397,-1.048791,0.045196,-0.004516,-0.001220,0.096565,0.999985,0.001752,-0.005244,0.000226,-0.997041,0.043579,-0.025896,-0.057796,-4.820878,3.249088,6.498306
53935,-1.154708,-0.917292,9.932622,-0.622233,-0.169759,0.208031,0.365962,-1.003612,0.034158,-0.012044,-0.009357,0.099250,0.999986,0.001830,-0.005018,0.000171,-0.997221,0.041493,-0.020989,-0.058201,-4.611594,2.676211,6.572536
53936,-1.720667,-1.111046,10.443914,-1.243260,-0.441257,0.748027,0.511623,-1.095245,0.078536,-0.017774,-0.011384,0.104314,0.999982,0.002558,-0.005476,0.000393,-0.997396,0.038649,-0.015680,-0.058829,-4.318529,2.053090,6.673618
53937,-2.180663,-0.695162,10.832224,-1.859815,-0.131525,1.100477,0.634939,-1.332176,0.130014,-0.022523,-0.007310,0.108151,0.999973,0.003175,-0.006661,0.000650,-0.997553,0.035115,-0.009231,-0.059747,-3.954970,1.295692,6.810368
53938,-0.537415,-0.243800,9.796389,-0.435134,0.346299,-0.014428,0.735470,-1.541259,0.240297,-0.006126,-0.002805,0.097909,0.999963,0.003677,-0.007706,0.001201,-0.997639,0.031009,-0.001793,-0.061243,-3.534790,0.422552,7.012694
53939,1.392107,0.680290,8.939158,1.233685,1.362085,-0.928420,0.712768,-1.471433,0.328664,0.013252,0.006506,0.089514,0.999965,0.003564,-0.007357,0.001643,-0.997623,0.027035,0.005296,-0.063166,-3.130604,-0.409726,7.257006
53940,1.374350,0.371092,9.223475,1.135642,1.006817,-0.604293,0.473779,-1.175540,0.361030,0.013195,0.003516,0.092322,0.999978,0.002369,-0.005878,0.001805,-0.997515,0.024345,0.010974,-0.065199,-2.866542,-1.072608,7.506062
53941,0.047676,-0.806206,9.518398,-0.133379,-0.372764,-0.268349,0.481714,-1.080941,0.371735,-0.000022,-0.008291,0.095165,0.999981,0.002409,-0.005405,0.001859,-0.997369,0.021647,0.016181,-0.067273,-2.600775,-1.682739,7.755712
53942,0.175216,-0.284035,10.448193,-0.206387,0.141559,0.637784,0.429384,-1.035933,0.252814,0.001215,-0.003063,0.104483,0.999983,0.002147,-0.005180,0.001264,-0.997224,0.019213,0.021190,-0.068741,-2.365035,-2.270663,7.933469
53943,-0.821248,-2.256285,10.102688,-1.009178,-2.018968,0.323076,0.432441,-1.112255,0.158194,-0.008756,-0.022788,0.100930,0.999982,0.002162,-0.005561,0.000791,-0.997070,0.016728,0.026590,-0.069744,-2.127049,-2.905617,8.056418
53944,0.134171,-0.743665,10.198513,-0.387035,-0.465076,0.395772,0.815694,-1.274184,0.091273,0.000696,-0.007852,0.101959,0.999971,0.004078,-0.006371,0.000456,-0.996903,0.012267,0.032664,-0.070473,-1.668694,-3.634754,8.140195
53945,0.923260,-0.489722,9.547254,0.287530,-0.211114,-0.215118,0.815648,-1.276471,0.141394,0.008627,-0.005280,0.095508,0.999971,0.004078,-0.006382,0.000707,-0.996661,0.007812,0.038748,-0.071449,-1.213048,-4.365671,8.247088
53946,0.468801,-0.302048,9.328504,-0.278221,-0.200979,-0.473954,1.185457,-1.327184,0.357647,0.004075,-0.003566,0.093293,0.999959,0.005927,-0.006636,0.001788,-0.996276,0.001538,0.044938,-0.073571,-0.556660,-5.124171,8.471655
53947,0.911482,0.679022,9.532403,-0.116607,0.693125,-0.238696,1.511225,-1.410456,0.720127,0.008419,0.006101,0.095433,0.999940,0.007556,-0.007052,0.003601,-0.995640,-0.006309,0.051420,-0.077565,0.264155,-5.933230,8.895496
53948,0.609328,1.297637,9.951857,-0.678594,1.076049,0.160863,1.741426,-1.462982,1.117139,0.005295,0.012140,0.099667,0.999920,0.008707,-0.007315,0.005586,-0.994691,-0.015218,0.058074,-0.083581,1.186802,-6.781021,9.535934
53949,0.420227,1.611191,10.270401,-1.097204,1.141695,0.470341,1.803300,-1.584504,1.451285,0.003275,0.015211,0.102872,0.999902,0.009016,-0.007922,0.007256,-0.993383,-0.024387,0.065327,-0.091254,2.112526,-7.714652,10.354648
53950,1.466919,1.857999,9.611684,-0.200409,1.416651,-0.017974,1.730379,-1.670230,1.635608,0.013717,0.017862,0.096391,0.999894,0.008652,-0.008351,0.008178,-0.991770,-0.033168,0.073042,-0.099788,2.969870,-8.713935,11.264756
53951,2.954500,1.989952,9.365307,1.087878,1.700856,0.001491,1.450568,-1.465417,1.614768,0.028699,0.019453,0.094008,0.999914,0.007253,-0.007327,0.008074,-0.990097,-0.040460,0.079869,-0.108132,3.654506,-9.608037,12.158355
53952,2.644116,0.325851,8.971624,1.085540,-0.051931,-0.517261,1.140484,-1.222593,1.504698,0.025869,0.002942,0.089893,0.999937,0.005702,-0.006113,0.007523,-0.988495,-0.046126,0.085623,-0.115840,4.159740,-10.367603,12.990281
53953,2.701879,0.386725,9.436111,0.961150,-0.122693,-0.037733,1.104147,-0.982384,1.222076,0.026533,0.003509,0.094512,0.999954,0.005521,-0.004912,0.006110,-0.987059,-0.051587,0.090142,-0.122179,4.663368,-10.985217,13.663793
53954,2.079754,-0.950882,9.744384,0.582186,-1.684414,0.036450,0.915168,-0.888664,1.033509,0.020415,-0.009849,0.097491,0.999966,0.004576,-0.004443,0.005167,-0.985751,-0.056141,0.094253,-0.127516,5.073473,-11.544973,14.228377
53955,1.665451,-1.047219,9.621067,0.182906,-1.964851,-0.192933,1.316012,-0.927642,0.919781,0.016258,-0.011030,0.096215,0.999957,0.006580,-0.004638,0.004599,-0.984308,-0.062742,0.098265,-0.132461,5.722334,-12.126365,14.720480
53956,2.561032,0.508908,9.767759,0.521245,-0.407572,0.276274,1.414278,-0.981550,0.898100,0.025109,0.004511,0.097835,0.999953,0.007071,-0.004908,0.004490,-0.982733,-0.069869,0.102459,-0.137318,6.427313,-12.742361,15.190543
53957,2.817795,0.788247,9.293665,0.702607,-0.132401,-0.095664,1.420951,-0.934828,0.934930,0.027708,0.007352,0.093120,0.999953,0.007105,-0.004674,0.004675,-0.981062,-0.076970,0.106425,-0.142364,7.127062,-13.340290,15.678775
53958,2.649408,1.104440,9.350338,0.376097,-0.021058,-0.039041,1.473480,-0.900259,1.014994,0.026018,0.010487,0.093700,0.999950,0.007367,-0.004501,0.005075,-0.979236,-0.084254,0.110201,-0.147828,7.841922,-13.929994,16.209962
53959,3.134749,1.246447,9.196133,0.750537,0.141215,-0.047231,1.487957,-0.855579,1.102239,0.030887,0.011950,0.092184,0.999948,0.007440,-0.004278,0.005511,-0.977264,-0.091520,0.113777,-0.153733,8.547813,-14.508230,16.789779
53960,2.534598,1.399668,9.233697,0.080613,-0.027753,-0.136159,1.591655,-0.771856,1.154791,0.024911,0.013405,0.092542,0.999944,0.007958,-0.003859,0.005774,-0.975147,-0.099188,0.116873,-0.159974,9.299475,-15.050519,17.401807
53961,2.934726,2.383678,9.438208,0.019892,0.814559,0.321830,1.432899,-0.777176,1.086055,0.028852,0.023317,0.094663,0.999952,0.007164,-0.003886,0.005430,-0.973058,-0.106116,0.120078,-0.165769,9.966701,-15.596841,17.967663
53962,3.750781,1.748785,8.605459,1.091554,0.563904,-0.343256,1.117676,-0.666222,0.979319,0.037136,0.017189,0.086275,0.999967,0.005588,-0.003331,0.004897,-0.971212,-0.111474,0.122935,-0.170900,10.463630,-16.074958,18.478223
53963,3.410418,1.796847,8.671699,0.706908,0.400000,-0.357660,1.102407,-0.441190,0.805762,0.033841,0.017627,0.086890,0.999974,0.005512,-0.002206,0.004029,-0.969604,-0.116665,0.124612,-0.175294,10.970610,-16.412494,18.908721
53964,2.886272,1.752588,9.289905,0.096789,-0.051738,0.071233,0.871719,-0.347720,0.655942,0.028644,0.017215,0.093024,0.999984,0.004359,-0.001739,0.003280,-0.968280,-0.120746,0.125943,-0.178866,11.365903,-16.683899,19.260009
53965,2.613392,1.255773,9.194921,0.038150,-0.638164,-0.192701,0.885542,-0.325292,0.608271,0.025947,0.012229,0.092046,0.999984,0.004428,-0.001626,0.003041,-0.966972,-0.124899,0.127123,-0.182223,11.775170,-16.939803,19.584588
53966,2.746985,1.720657,9.363037,-0.068143,-0.304691,0.090592,0.956654,-0.325290,0.637348,0.027263,0.016845,0.093756,0.999982,0.004783,-0.001626,0.003187,-0.965561,-0.129373,0.128249,-0.185760,12.219341,-17.201263,19.924599
53967,2.940631,2.142914,9.487684,-0.102894,0.016018,0.348222,0.929498,-0.325434,0.706843,0.029177,0.021091,0.095023,0.999982,0.004647,-0.001627,0.003534,-0.964068,-0.133666,0.129444,-0.189608,12.634665,-17.474017,20.303811
53968,3.079975,1.511581,8.820648,0.386880,-0.375229,-0.363667,0.971050,-0.327477,0.853031,0.030592,0.014818,0.088329,0.999978,0.004855,-0.001637,0.004265,-0.962368,-0.138063,0.130699,-0.194178,13.046699,-17.768910,20.766892
53969,3.817170,2.139529,8.390957,0.851204,0.490650,-0.400424,1.166953,-0.251224,0.999357,0.037960,0.021095,0.084081,0.999970,0.005835,-0.001256,0.004997,-0.960389,-0.143224,0.131494,-0.199623,13.539604,-18.044260,21.324609
53970,4.115177,2.260519,8.182786,1.087440,0.697284,-0.467447,1.180507,-0.085073,1.136303,0.040989,0.022355,0.081978,0.999966,0.005902,-0.000425,0.005681,-0.958312,-0.148186,0.131565,-0.205841,14.006253,-18.250106,21.984642
53971,2.855543,2.579396,8.659408,-0.256091,0.286848,-0.344628,1.388494,0.049484,1.266773,0.028415,0.025372,0.086764,0.999956,0.006942,0.000247,0.006334,-0.955959,-0.153908,0.130865,-0.212904,14.560113,-18.405420,22.739800
53972,2.546047,3.569409,9.567877,-1.140216,0.606753,0.632314,1.286323,0.002006,1.329170,0.025226,0.035246,0.095906,0.999957,0.006432,0.000010,0.006646,-0.953505,-0.159139,0.130537,-0.220144,15.044343,-18.602555,23.523285
53973,2.750128,2.658212,9.028815,-0.457450,0.007644,-0.017845,1.095333,-0.053447,1.347644,0.027299,0.026271,0.090440,0.999962,0.005477,-0.000267,0.006738,-0.951069,-0.163494,0.130688,-0.227285,15.415766,-18.838772,24.308216
53974,3.434087,2.213994,8.542884,0.419252,0.006074,-0.352276,1.185182,-0.017060,1.327770,0.034188,0.021860,0.085562,0.999960,0.005926,-0.000085,0.006639,-0.948532,-0.168237,0.130536,-0.234402,15.837972,-19.056830,25.086721
53975,2.731477,2.770096,9.120699,-0.551531,-0.111438,0.087022,1.263355,0.046292,1.316923,0.027155,0.027303,0.091374,0.999958,0.006317,0.000231,0.006585,-0.945905,-0.173269,0.129974,-0.241553,16.301043,-19.244126,25.868766
53976,3.099065,3.074938,9.031569,-0.380460,0.239997,0.208580,1.127186,-0.009225,1.314241,0.030786,0.030442,0.090489,0.999963,0.005636,-0.000046,0.006571,-0.943289,-0.177713,0.129825,-0.248535,16.687503,-19.466799,26.639077
53977,3.908843,2.220672,8.247721,0.857759,0.136262,-0.459569,1.104896,0.084787,1.344006,0.038975,0.022013,0.082583,0.999962,0.005524,0.000424,0.006720,-0.940645,-0.181900,0.129278,-0.255708,17.047293,-19.647761,27.442783
53978,3.642617,2.413243,8.048271,0.567267,0.200471,-0.674595,1.371289,0.209567,1.452159,0.036337,0.023844,0.080609,0.999950,0.006856,0.001048,0.007261,-0.937617,-0.187097,0.127890,-0.263653,17.529219,-19.784308,28.331183
53979,3.767446,3.573036,8.362134,0.005772,0.969989,-0.017584,1.500378,0.340238,1.594496,0.037534,0.035402,0.083824,0.999939,0.007502,0.001701,0.007972,-0.934260,-0.192613,0.125838,-0.272440,18.047165,-19.881896,29.325884
53980,3.038527,4.111361,8.732781,-0.933175,0.805364,0.231076,1.495172,0.429407,1.751231,0.030215,0.040725,0.087568,0.999931,0.007476,0.002147,0.008756,-0.930628,-0.197861,0.123511,-0.282006,18.524286,-19.967209,30.427872
53981,2.653451,4.482998,9.338060,-1.525300,0.542772,0.756867,1.325482,0.407402,1.838660,0.026315,0.044453,0.093622,0.999934,0.006627,0.002037,0.009193,-0.926901,-0.202269,0.121597,-0.291815,18.886241,-20.088178,31.576182
53982,3.315449,3.066685,8.641239,-0.086099,0.048831,-0.062927,1.054298,0.376410,1.826326,0.033038,0.030513,0.086511,0.999943,0.005271,0.001882,0.009131,-0.923333,-0.205449,0.120192,-0.301333,19.095196,-20.228890,32.711371
53983,3.148903,2.910671,8.600031,-0.111907,-0.179716,-0.205240,1.238481,0.441873,1.757006,0.031425,0.028850,0.086110,0.999940,0.006192,0.002209,0.008785,-0.919609,-0.209396,0.118124,-0.310674,19.416322,-20.326144,33.820087
53984,2.970194,3.410559,9.188693,-0.595551,-0.240718,0.408520,1.138544,0.412241,1.668792,0.029608,0.033829,0.092019,0.999947,0.005693,0.002061,0.008344,-0.916006,-0.212961,0.116240,-0.319484,19.698510,-20.427831,34.871930
53985,3.370869,3.328600,8.810952,-0.193495,0.037448,0.189121,1.059824,0.399364,1.585133,0.033622,0.033085,0.088218,0.999953,0.005299,0.001997,0.007926,-0.912519,-0.216210,0.114441,-0.327819,19.951220,-20.524923,35.873288
53986,3.238150,3.357917,8.995282,-0.315854,-0.146630,0.314251,0.951992,0.389041,1.506137,0.032305,0.033394,0.090049,0.999958,0.004760,0.001945,0.007531,-0.909191,-0.219012,0.112769,-0.335691,20.157657,-20.615665,36.827089
53987,3.521497,2.878447,8.608237,0.245536,-0.163769,-0.081245,0.886491,0.409763,1.438929,0.035185,0.028656,0.086137,0.999962,0.004432,0.002049,0.007195,-0.905987,-0.221500,0.111032,-0.343217,20.336922,-20.685090,37.747011
53988,3.253249,3.152122,8.859455,-0.133552,-0.287058,0.132615,0.966892,0.416883,1.398990,0.032498,0.031320,0.088679,0.999962,0.004834,0.002084,0.006995,-0.902696,-0.224347,0.109070,-0.350587,20.569199,-20.745643,38.645488
53989,3.448610,3.163943,8.779063,0.020917,-0.161457,0.134614,0.889809,0.399169,1.371388,0.034445,0.031485,0.087862,0.999965,0.004449,0.001996,0.006857,-0.899464,-0.226874,0.107285,-0.357746,20.762901,-20.813380,39.524610
53990,3.657008,3.228049,8.443859,0.151533,0.135021,-0.063253,0.950715,0.433703,1.339849,0.036538,0.032124,0.084512,0.999964,0.004754,0.002168,0.006699,-0.896173,-0.229615,0.105192,-0.364808,20.994792,-20.859090,40.393100
53991,3.155294,3.964386,9.008607,-0.716322,-0.019607,0.498157,0.937790,0.449714,1.309153,0.031497,0.039427,0.090200,0.999965,0.004689,0.002249,0.006546,-0.892897,-0.232267,0.103009,-0.371720,21.223317,-20.893320,41.247759
53992,3.324511,3.532232,8.940546,-0.274436,-0.182299,0.353619,0.710259,0.406667,1.258741,0.033205,0.035214,0.089463,0.999972,0.003551,0.002033,0.006294,-0.889901,-0.233997,0.101374,-0.378214,21.334968,-20.942263,42.063968
53993,3.447268,3.152868,8.605744,0.096058,-0.190566,-0.023026,0.721803,0.409315,1.171933,0.034465,0.031420,0.086100,0.999974,0.003609,0.002047,0.005860,-0.887007,-0.235802,0.099600,-0.384311,21.469779,-20.973442,42.831464
53994,3.348507,3.182335,8.782784,0.022321,-0.340186,0.105013,0.646291,0.392786,1.043120,0.033492,0.031714,0.087865,0.999979,0.003231,0.001964,0.005216,-0.884401,-0.237359,0.097886,-0.389761,21.589089,-20.987768,43.521570
53995,3.606352,2.998160,8.551616,0.345557,-0.178860,-0.067256,0.594088,0.392690,0.914921,0.036095,0.029893,0.085534,0.999983,0.002970,0.001963,0.004575,-0.882073,-0.238737,0.096121,-0.394605,21.704267,-20.976535,44.138687
53996,3.748008,3.066443,8.539528,0.406338,-0.047419,-0.004181,0.549387,0.402196,0.813633,0.037527,0.030582,0.085404,0.999986,0.002747,0.002011,0.004068,-0.879975,-0.239943,0.094276,-0.398979,21.814345,-20.939699,44.700006
53997,4.043933,2.848994,8.149323,0.774210,0.217795,-0.313490,0.567932,0.465514,0.772469,0.040519,0.028415,0.081480,0.999986,0.002840,0.002328,0.003862,-0.877941,-0.241114,0.092066,-0.403246,21.938448,-20.861643,45.252396
53998,4.235357,3.019786,8.040771,0.791985,0.498216,-0.281904,0.663914,0.550368,0.785016,0.042457,0.030097,0.080391,0.999983,0.003320,0.002752,0.003925,-0.875779,-0.242524,0.089300,-0.407700,22.109362,-20.742435,45.831123
53999,4.611206,2.930272,7.560112,1.114452,0.948408,-0.600553,0.820994,0.711684,0.894877,0.046250,0.029199,0.075557,0.999975,0.004105,0.003558,0.004474,-0.873237,-0.244232,0.085638,-0.412886,22.336259,-20.563458,46.509493
54000,3.865212,4.306029,7.768445,-0.363562,1.077071,-0.193022,1.171466,0.886947,1.095098,0.038762,0.042817,0.077764,0.999958,0.005857,0.004435,0.005475,-0.869870,-0.247008,0.080726,-0.419281,22.712617,-20.339033,47.341991
54001,3.813608,5.274739,8.739657,-1.033196,1.053819,0.984068,0.923551,0.969348,1.257718,0.038229,0.052584,0.087455,0.999958,0.004618,0.004847,0.006289,-0.866428,-0.248445,0.076170,-0.426351,22.911320,-20.111107,48.285623
54002,3.823816,3.230398,7.511064,0.495030,0.628212,-0.821954,0.874793,1.065499,1.409819,0.038411,0.032246,0.075047,0.999951,0.004374,0.005327,0.007049,-0.862680,-0.249388,0.071483,-0.434141,23.049395,-19.869155,49.336643
54003,4.163915,3.688425,7.298542,0.358578,1.222093,-0.724831,1.273123,1.230644,1.550147,0.041803,0.036743,0.072963,0.999931,0.006365,0.006153,0.007751,-0.858089,-0.251608,0.065386,-0.442834,23.380263,-19.575911,50.505217
54004,4.143385,4.559279,7.554484,-0.273688,1.510296,-0.186223,1.340184,1.424733,1.657017,0.041595,0.045431,0.075554,0.999918,0.006701,0.007123,0.008285,-0.853109,-0.253617,0.058433,-0.452183,23.721128,-19.211825,51.779666
54005,4.114294,4.304869,7.257815,-0.084183,1.532065,-0.550901,1.301056,1.624970,1.773160,0.041351,0.042943,0.072522,0.999907,0.006505,0.008125,0.008866,-0.847825,-0.254924,0.050850,-0.462192,24.010908,-18.776177,53.166733
54006,3.879169,4.030399,7.122181,0.029338,1.328632,-0.854392,1.448722,1.853078,1.898869,0.039069,0.040158,0.071152,0.999886,0.007243,0.009265,0.009494,-0.841943,-0.256250,0.042110,-0.472965,24.357294,-18.258412,54.677988
54007,3.152851,4.445996,7.581360,-0.562104,0.752268,-0.522809,1.654212,2.016803,2.012395,0.031848,0.044152,0.075860,0.999864,0.008271,0.010084,0.010062,-0.835354,-0.257960,0.032330,-0.484351,24.802897,-17.691987,56.291649
54008,2.451451,5.081225,8.277649,-1.221510,0.139932,0.128899,1.659617,2.091607,2.048677,0.024864,0.050378,0.082937,0.999858,0.008298,0.010458,0.010243,-0.828449,-0.259440,0.022263,-0.495851,25.256238,-17.108004,57.943313
54009,1.829420,4.934582,8.805851,-1.180464,-0.643968,0.357385,1.429802,2.061205,1.996374,0.018713,0.048901,0.088218,0.999872,0.007149,0.010306,0.009981,-0.821746,-0.259974,0.012816,-0.506936,25.603876,-16.537491,59.558191
54010,1.803620,3.906313,8.718717,-0.232243,-0.951738,-0.139670,1.257408,1.978252,1.848964,0.018540,0.038685,0.087249,0.999889,0.006287,0.009891,0.009244,-0.815436,-0.259962,0.003953,-0.517173,25.897239,-15.982126,61.070707
54011,1.440896,3.521279,9.001576,0.123582,-1.451171,-0.149304,1.321772,1.901680,1.683815,0.014972,0.034742,0.090106,0.999898,0.006609,0.009508,0.008419,-0.809295,-0.260353,-0.004980,-0.526530,26.270363,-15.432649,62.474270
54012,1.064755,4.018510,9.505601,-0.179831,-1.781161,0.406490,1.393324,1.745174,1.561475,0.011167,0.039608,0.095237,0.999907,0.006966,0.008726,0.007807,-0.803227,-0.261396,-0.013627,-0.535081,26.725119,-14.942221,63.771755
54013,1.189727,4.957812,9.654481,-0.737511,-1.431213,0.985944,1.278985,1.540176,1.429472,0.012290,0.049047,0.096766,0.999924,0.006395,0.007701,0.007147,-0.797542,-0.262470,-0.021315,-0.542754,27.155039,-14.531636,64.945837
54014,1.919558,4.700209,9.277863,-0.229454,-0.680515,0.739039,0.868316,1.434266,1.253432,0.019568,0.046721,0.092842,0.999945,0.004341,0.007171,0.006267,-0.792780,-0.262146,-0.027695,-0.549557,27.388165,-14.135489,65.998811
54015,0.982660,3.932540,9.009773,0.057506,-1.563141,-0.057747,0.890842,1.331412,1.148104,0.010202,0.038982,0.090205,0.999951,0.004454,0.006657,0.005740,-0.788210,-0.262147,-0.033864,-0.555750,27.660488,-13.768083,66.968776
54016,1.620748,4.624816,9.085126,-0.181319,-0.814709,0.476044,0.828595,1.183182,0.999323,0.016515,0.045954,0.090945,0.999961,0.004143,0.005916,0.004997,-0.784091,-0.262270,-0.039469,-0.561122,27.931135,-13.440566,67.820587
54017,1.790846,4.317158,8.844093,0.128777,-0.605701,0.171251,0.634778,1.132501,0.861804,0.018224,0.042969,0.088475,0.999970,0.003174,0.005662,0.004309,-0.780569,-0.261727,-0.044507,-0.565890,28.114594,-13.104905,68.587228
54018,1.875364,4.075663,8.560727,0.322270,-0.436688,-0.162867,0.664668,1.100001,0.781880,0.019066,0.040546,0.085638,0.999972,0.003323,0.005500,0.003909,-0.777194,-0.261362,-0.049608,-0.570262,28.331321,-12.766591,69.303433
54019,1.755620,4.897473,8.605956,-0.345654,-0.346305,0.231715,0.728818,1.086497,0.732611,0.017845,0.048726,0.086141,0.999972,0.003644,0.005432,0.003663,-0.773836,-0.261255,-0.054898,-0.574378,28.594721,-12.424567,69.991064
54020,1.656353,5.476718,8.983232,-0.669880,-0.410007,0.808948,0.559632,1.066009,0.697521,0.016852,0.054574,0.089896,0.999976,0.002798,0.005330,0.003488,-0.770765,-0.260532,-0.059669,-0.578346,28.770615,-12.085726,70.655175
54021,1.064003,5.087452,8.896778,-0.509090,-0.963739,0.433221,0.429871,0.992214,0.669487,0.010912,0.050719,0.089023,0.999980,0.002149,0.004961,0.003347,-0.767931,-0.259500,-0.063811,-0.582125,28.882614,-11.777855,71.284275
54022,1.198362,4.889223,8.786383,-0.296182,-0.803379,0.277293,0.400174,0.873073,0.619803,0.012216,0.048754,0.087908,0.999984,0.002001,0.004365,0.003099,-0.765291,-0.258677,-0.067474,-0.585545,28.993121,-11.517028,71.854019
54023,1.195262,4.618541,8.868830,0.007381,-0.847507,0.222112,0.345174,0.779861,0.572696,0.012167,0.046067,0.088721,0.999987,0.001726,0.003899,0.002863,-0.762869,-0.257891,-0.070676,-0.588667,29.083967,-11.290893,72.373371
54024,1.555095,4.533473,8.644919,0.131661,-0.425503,0.061863,0.406306,0.703840,0.477403,0.015747,0.045196,0.086486,0.999989,0.002032,0.003519,0.002387,-0.760656,-0.257524,-0.073893,-0.591290,29.225907,-11.077035,72.822406
54025,1.457522,4.056770,8.759013,0.595442,-0.599145,-0.087034,0.297861,0.670075,0.368920,0.014794,0.040464,0.087601,0.999992,0.001489,0.003350,0.001845,-0.758901,-0.256797,-0.076795,-0.593487,29.319219,-10.850764,73.206839
54026,1.576657,4.129038,8.700846,0.577920,-0.422860,-0.079934,0.403435,0.638163,0.284599,0.015986,0.041137,0.087041,0.999992,0.002017,0.003191,0.001423,-0.757261,-0.256530,-0.080000,-0.595271,29.484623,-10.617324,73.539384
54027,1.651484,4.461045,8.937193,0.450329,-0.332358,0.296133,0.294728,0.627711,0.218314,0.016747,0.044497,0.089385,0.999993,0.001474,0.003139,0.001092,-0.755951,-0.255851,-0.082922,-0.596827,29.595272,-10.371391,73.835768
54028,0.900222,4.591153,9.078310,0.230459,-1.026272,0.345964,0.350538,0.590392,0.206050,0.009223,0.045762,0.090836,0.999994,0.001753,0.002952,0.001030,-0.754612,-0.255487,-0.085887,-0.598257,29.742453,-10.140964,74.115411
54029,1.032424,5.143958,9.217526,-0.113293,-0.826269,0.760548,0.241172,0.462134,0.191532,0.010488,0.051338,0.092213,0.999996,0.001206,0.002311,0.000958,-0.753503,-0.255084,-0.088056,-0.599510,29.835251,-9.971008,74.351075
54030,1.555777,4.420635,8.776788,0.476619,-0.290633,0.121231,0.167839,0.426730,0.159191,0.015710,0.044145,0.087772,0.999997,0.000839,0.002134,0.000796,-0.752595,-0.254495,-0.089916,-0.600623,29.891599,-9.809378,74.560167
54031,1.657880,4.193759,8.633668,0.654494,-0.161194,-0.095592,0.196569,0.421679,0.094696,0.016741,0.041861,0.086343,0.999997,0.000983,0.002108,0.000473,-0.751842,-0.253999,-0.091921,-0.601472,29.970385,-9.632403,74.735501
54032,1.776349,3.922077,8.439375,0.855647,-0.006640,-0.377178,0.237789,0.440821,0.021318,0.017945,0.039122,0.084401,0.999997,0.001189,0.002204,0.000107,-0.751245,-0.253565,-0.094218,-0.602046,30.078811,-9.424832,74.879590
54033,1.404913,4.398492,8.639008,0.473975,-0.313121,-0.033625,0.351621,0.449986,-0.034866,0.014251,0.043831,0.086435,0.999996,0.001758,0.002250,-0.000174,-0.750662,-0.253502,-0.096959,-0.602364,30.256773,-9.197246,74.998676
54034,1.950017,4.292740,8.319368,0.596187,0.307683,-0.273727,0.291411,0.439860,-0.092736,0.019703,0.042797,0.083213,0.999996,0.001457,0.002199,-0.000464,-0.750330,-0.253214,-0.099557,-0.602475,30.405877,-8.957918,75.086320
54035,2.411970,3.914116,7.827552,0.849779,0.858717,-0.815539,0.366599,0.552761,-0.155588,0.024366,0.038979,0.078280,0.999994,0.001833,0.002764,-0.000778,-0.750028,-0.252834,-0.102880,-0.602452,30.597887,-8.645176,75.176516
54036,1.970954,4.613111,8.045619,0.291279,0.530507,-0.350624,0.499573,0.685424,-0.191739,0.020029,0.045911,0.080503,0.999991,0.002498,0.003427,-0.000959,-0.749588,-0.252531,-0.107148,-0.602382,30.863485,-8.256614,75.289108
54037,2.488138,4.883340,7.796301,0.127545,1.185663,-0.357661,0.380491,0.804446,-0.216589,0.025248,0.048658,0.077955,0.999990,0.001902,0.004022,-0.001083,-0.749295,-0.251405,-0.111530,-0.602423,31.058092,-7.802957,75.426304
54038,1.923884,4.884622,7.663325,-0.025401,0.747122,-0.553755,0.477641,1.005484,-0.191622,0.019671,0.048644,0.076651,0.999984,0.002388,0.005027,-0.000958,-0.748673,-0.250045,-0.116926,-0.602739,31.299991,-7.258517,75.637534
54039,1.055641,5.939607,8.337818,-0.743133,-0.009620,0.451773,0.559813,1.099545,-0.109866,0.011048,0.059157,0.083484,0.999981,0.002799,0.005498,-0.000549,-0.747620,-0.248749,-0.122813,-0.603411,31.582245,-6.693656,75.919636
54040,0.077044,6.854250,9.024822,-1.343195,-0.891557,1.404891,0.476854,1.053258,0.016047,0.001241,0.068327,0.090406,0.999983,0.002384,0.005266,0.000080,-0.746293,-0.247350,-0.128117,-0.604525,31.814175,-6.190399,76.251677
54041,0.580285,6.302417,8.919157,-0.762532,-0.389561,1.090286,0.133075,0.928289,0.074514,0.006193,0.062967,0.089205,0.999989,0.000665,0.004641,0.000373,-0.745274,-0.245077,-0.131839,-0.605906,31.852478,-5.766552,76.575309
54042,1.472113,4.545897,8.050337,0.505087,0.471777,-0.476628,-0.036105,0.965489,-0.012959,0.015112,0.045473,0.080423,0.999988,-0.000181,0.004827,-0.000065,-0.744686,-0.241999,-0.135294,-0.607104,31.799724,-5.297903,76.867076
54043,0.330657,4.187523,8.237360,0.662743,-0.644409,-0.612491,0.237670,1.024805,-0.080405,0.003746,0.041776,0.082405,0.999986,0.001188,0.005124,-0.000402,-0.743912,-0.239707,-0.139876,-0.607923,31.907345,-4.780354,77.143957
54044,0.567103,4.917967,8.488250,0.269160,-0.276212,0.006121,0.273484,0.926055,-0.127746,0.006096,0.049060,0.084922,0.999988,0.001367,0.004630,-0.000639,-0.743289,-0.237809,-0.144255,-0.608406,32.042267,-4.296808,77.368546
54045,1.130510,4.527697,8.001019,0.511574,0.380242,-0.572155,0.245322,0.986400,-0.173060,0.011739,0.045169,0.080008,0.999987,0.001227,0.004932,-0.000865,-0.742776,-0.235585,-0.148821,-0.608799,32.162979,-3.770890,77.590490
54046,0.422735,4.749586,7.834841,0.135301,-0.169071,-0.643481,0.421200,1.020207,-0.190869,0.004672,0.047326,0.078425,0.999984,0.002106,0.005101,-0.000954,-0.742063,-0.233891,-0.154066,-0.609016,32.386542,-3.223618,77.815559
54047,1.418836,5.096341,7.037896,-0.301846,1.060760,-1.077660,0.412855,1.091579,-0.218501,0.014628,0.050802,0.070405,0.999982,0.002064,0.005458,-0.001092,-0.741365,-0.231919,-0.159576,-0.609202,32.606812,-2.634421,78.051289
54048,1.039896,6.124523,6.592222,-1.409902,0.995103,-0.920583,0.546957,1.299932,-0.223198,0.010896,0.061053,0.066020,0.999975,0.002735,0.006500,-0.001116,-0.740328,-0.229797,-0.166267,-0.609478,32.904172,-1.944294,78.351902
54049,0.836886,7.293341,6.826258,-2.235294,1.036472,-0.095741,0.405801,1.509828,-0.129375,0.008932,0.072789,0.068344,0.999969,0.002029,0.007549,-0.000647,-0.738951,-0.226577,-0.173186,-0.610426,33.121141,-1.184111,78.766156
54050,0.323501,7.618939,6.697618,-2.627833,0.702172,-0.034580,0.177967,1.686635,0.031779,0.003788,0.076130,0.067014,0.999964,0.000890,0.008433,0.000159,-0.737138,-0.222103,-0.179872,-0.612326,33.211771,-0.390680,79.315011
54051,1.305068,6.754005,6.472010,-1.841378,1.670715,-0.700962,-0.124936,1.907578,0.125836,0.013624,0.067589,0.064550,0.999954,-0.000625,0.009538,0.000629,-0.735115,-0.215900,-0.186323,-0.615042,33.136463,0.479078,79.978340
54052,-0.159532,5.819287,6.982194,-1.042484,0.171849,-0.783703,-0.025727,2.207538,0.179315,-0.000877,0.058201,0.069827,0.999939,-0.000129,0.011037,0.000897,-0.732461,-0.209171,-0.194107,-0.618118,33.131547,1.476449,80.760725
54053,-2.407067,6.208454,8.818622,-0.684181,-1.957782,1.041034,0.039794,2.116683,0.246947,-0.023212,0.062038,0.088447,0.999943,0.000199,0.010583,0.001235,-0.729533,-0.202999,-0.201663,-0.621212,33.176795,2.408797,81.547818
54054,-2.081491,4.879024,9.042257,0.628611,-1.682643,0.515498,-0.150501,1.827623,0.242036,-0.020047,0.048834,0.090571,0.999957,-0.000752,0.009138,0.001210,-0.727031,-0.197010,-0.207564,-0.624124,33.121119,3.204152,82.242261
54055,-2.360452,3.690038,8.916904,1.545255,-1.983465,-0.201465,0.115271,1.609846,0.142296,-0.022912,0.036832,0.089377,0.999967,0.000576,0.008049,0.000711,-0.724750,-0.192544,-0.213581,-0.626136,33.218932,3.926003,82.821212
54056,-2.162536,4.079039,9.352807,1.543252,-1.610625,0.376173,0.261887,1.343509,-0.005789,-0.020995,0.040668,0.093724,0.999977,0.001309,0.006717,-0.000029,-0.723036,-0.189277,-0.219227,-0.627163,33.396933,4.565759,83.247224
54057,-1.196901,3.729676,8.598166,1.573190,-0.593138,-0.515175,0.221237,1.177619,-0.180598,-0.011429,0.037212,0.086091,0.999982,0.001106,0.005888,-0.000903,-0.722060,-0.186180,-0.224297,-0.627421,33.544243,5.180016,83.538986
54058,-0.262805,3.306196,7.640847,1.530435,0.359631,-1.632832,0.321739,1.189448,-0.374012,-0.002112,0.032943,0.076475,0.999979,0.001609,0.005947,-0.001870,-0.721556,-0.183186,-0.229901,-0.626853,33.744531,5.860765,83.743995
54059,0.578750,2.883716,6.640499,1.444727,1.205888,-2.798093,0.413963,1.377697,-0.576436,0.006328,0.028682,0.066422,0.999970,0.002070,0.006888,-0.002882,-0.721350,-0.179693,-0.236643,-0.625591,33.996247,6.694558,83.915588
54060,1.041086,3.342622,5.553578,0.549993,1.800539,-3.523546,0.737470,1.752792,-0.789011,0.011029,0.033179,0.055564,0.999947,0.003687,0.008764,-0.003945,-0.721015,-0.175927,-0.245924,-0.623465,34.439710,7.773732,84.112918
54061,0.586227,4.995334,5.743926,-0.661665,1.767547,-2.415069,0.883419,2.228709,-0.959194,0.006742,0.049668,0.057587,0.999917,0.004417,0.011143,-0.004796,-0.720400,-0.170970,-0.257489,-0.620881,34.983296,9.130628,84.396157
54062,-0.764774,6.022816,6.147174,-1.299666,0.835534,-1.312390,0.773725,2.607912,-1.036900,-0.006532,0.060025,0.061794,0.999894,0.003868,0.013039,-0.005184,-0.719495,-0.164310,-0.270099,-0.618365,35.489391,10.688074,84.783525
54063,-2.105010,6.327568,6.580231,-1.314560,-0.143910,-0.538330,0.616770,2.826934,-1.051414,-0.019783,0.063178,0.066283,0.999882,0.003084,0.014134,-0.005257,-0.718308,-0.156351,-0.282961,-0.616052,35.932511,12.349036,85.253940
54064,-2.958443,5.864594,6.894137,-0.734451,-0.764390,-0.349892,0.484969,2.896378,-1.049950,-0.028273,0.058629,0.069499,0.999878,0.002425,0.014481,-0.005250,-0.716950,-0.147672,-0.295601,-0.613837,36.323210,14.038236,85.764640
54065,-3.627552,5.258219,7.153310,-0.051197,-1.223827,-0.301106,0.525054,2.905319,-1.068154,-0.034949,0.052582,0.072185,0.999877,0.002625,0.014526,-0.005341,-0.715431,-0.139044,-0.308335,-0.611355,36.753800,15.734165,86.286052
54066,-4.096312,4.964024,7.337613,0.366863,-1.426030,-0.164577,0.664655,2.830053,-1.152896,-0.039632,0.049626,0.074108,0.999878,0.003323,0.014150,-0.005764,-0.714014,-0.130982,-0.321213,-0.608153,37.265846,17.420779,86.758925
54067,-4.638759,5.179348,7.926556,0.647585,-1.483260,0.605836,0.803542,2.724519,-1.268105,-0.044972,0.051761,0.080093,0.999879,0.004018,0.013622,-0.006340,-0.712854,-0.123519,-0.334132,-0.604101,37.847421,19.095189,87.159079
54068,-5.179592,5.470083,8.527445,0.892263,-1.479079,1.433374,0.798439,2.519203,-1.396529,-0.050333,0.054713,0.086133,0.999888,0.003992,0.012596,-0.006982,-0.712263,-0.116415,-0.346309,-0.599332,38.397505,20.718897,87.442120
54069,-5.561115,5.676784,8.867823,1.042780,-1.383921,1.967735,0.736568,2.257265,-1.516440,-0.054173,0.056854,0.089504,0.999901,0.003683,0.011286,-0.007582,-0.712373,-0.109643,-0.357361,-0.593967,38.867733,22.265571,87.585170
54070,-5.950052,5.272474,9.047148,1.542250,-1.504436,2.036518,0.641604,1.915032,-1.601841,-0.058206,0.052903,0.091202,0.999917,0.003208,0.009575,-0.008009,-0.713270,-0.103376,-0.366899,-0.588170,39.224161,23.690195,87.566515
54071,-6.215850,4.986521,8.824642,1.679085,-1.625506,1.845327,0.759070,1.553346,-1.639938,-0.061060,0.050032,0.088913,0.999929,0.003795,0.007767,-0.008199,-0.714774,-0.098506,-0.375452,-0.581748,39.583975,24.968216,87.394466
54072,-6.443045,5.442825,9.028855,1.525419,-1.397681,2.368136,0.863021,1.181922,-1.641402,-0.063447,0.054560,0.090901,0.999940,0.004315,0.005909,-0.008207,-0.716836,-0.095070,-0.382936,-0.574864,39.937997,26.084723,87.078044
54073,-6.596135,5.644835,8.814393,1.289227,-1.333064,2.419417,0.919271,0.815527,-1.588497,-0.065152,0.056561,0.088671,0.999950,0.004596,0.004078,-0.007942,-0.719341,-0.092982,-0.389198,-0.567827,40.265091,27.022221,86.640982
54074,-7.794546,6.632169,9.339181,0.906017,-1.736385,3.903094,1.082312,0.414487,-1.402404,-0.077286,0.066358,0.093911,0.999959,0.005411,0.002072,-0.007012,-0.721959,-0.092969,-0.394361,-0.560902,40.646336,27.718829,86.130685
54075,-8.261801,7.465657,10.056329,0.798258,-1.520292,5.092817,0.882001,-0.202530,-1.175305,-0.082281,0.074697,0.100809,0.999972,0.004410,-0.001013,-0.005876,-0.725200,-0.094409,-0.396600,-0.554869,40.839526,28.064197,85.472439
54076,-7.187556,5.498959,9.256617,1.771296,-1.509779,2.921813,0.715335,-0.784109,-1.012853,-0.071960,0.055023,0.092481,0.999973,0.003577,-0.003921,-0.005064,-0.729185,-0.097168,-0.396174,-0.549448,40.856157,28.098596,84.646405
54077,-6.235638,3.884858,8.586196,2.543022,-1.526837,1.091412,0.991675,-1.203286,-1.020957,-0.062674,0.038743,0.085678,0.999957,0.004958,-0.006016,-0.005105,-0.733836,-0.102071,-0.394951,-0.543212,40.946675,27.954271,83.638833
54078,-5.498778,3.554904,8.264936,2.619757,-1.183022,0.332246,1.303403,-1.475759,-1.228737,-0.055379,0.035351,0.082473,0.999933,0.006517,-0.007379,-0.006144,-0.739352,-0.108426,-0.393640,-0.535396,41.116652,27.773401,82.414635
54079,-5.354676,3.650036,7.887577,2.298563,-1.206799,0.059943,1.468934,-1.627557,-1.560537,-0.053904,0.036342,0.078705,0.999909,0.007344,-0.008138,-0.007802,-0.745847,-0.115139,-0.392327,-0.525865,41.280135,27.654408,80.965510
54080,-5.041250,4.011382,7.281939,1.652954,-0.996103,-0.283401,1.557021,-1.677218,-1.885205,-0.050645,0.040024,0.072707,0.999890,0.007785,-0.008386,-0.009426,-0.753098,-0.121640,-0.391170,-0.514814,41.411849,27.641360,79.337609
54081,-4.174331,4.651215,6.126090,0.536597,-0.241989,-1.081061,1.635109,-1.569016,-2.099708,-0.041736,0.046449,0.061313,0.999881,0.008175,-0.007845,-0.010498,-0.760466,-0.127720,-0.390662,-0.502754,41.560806,27.758599,77.651735
54082,-3.175854,6.733307,5.228121,-1.260301,1.441508,-0.919466,1.659325,-1.254240,-2.206609,-0.031346,0.067245,0.052642,0.999885,0.008296,-0.006271,-0.011033,-0.767300,-0.132850,-0.391389,-0.490322,41.754974,28.056873,76.046373
54083,-2.265896,9.118939,4.591672,-2.982955,3.374517,-0.374236,1.271289,-0.817375,-2.210344,-0.021841,0.091140,0.046406,0.999910,0.006356,-0.004087,-0.011051,-0.773387,-0.135399,-0.392764,-0.478828,41.804770,28.545156,74.623975
54084,-1.585248,11.073162,4.643274,-3.926807,5.123051,0.435141,0.507182,-0.216568,-2.126118,-0.014725,0.110774,0.046697,0.999940,0.002536,-0.001083,-0.010630,-0.778498,-0.133691,-0.394517,-0.469493,41.544600,29.257010,73.494601
54085,-2.369994,10.311419,4.630581,-3.624471,4.274626,0.285356,-0.565751,0.409407,-1.986171,-0.022579,0.103473,0.046060,0.999945,-0.002829,0.002047,-0.009931,-0.782670,-0.126606,-0.396049,-0.463188,40.817825,30.176620,72.690991
54086,-3.633981,8.186793,4.772370,-2.571154,2.328377,-0.274992,-1.239457,0.883803,-1.920135,-0.035340,0.082505,0.047371,0.999925,-0.006197,0.004419,-0.009600,-0.786077,-0.115898,-0.397786,-0.458713,39.801762,31.268705,72.100926
54087,-5.070296,6.093930,5.389869,-1.270764,0.346592,-0.317745,-1.601490,1.115490,-1.950276,-0.049803,0.061858,0.053685,0.999905,-0.008007,0.005577,-0.009751,-0.789167,-0.103160,-0.399552,-0.454898,38.595368,32.464117,71.562006
54088,-6.346191,4.335892,6.269341,0.038424,-1.243235,0.027282,-1.655604,1.089920,-2.053782,-0.062667,0.044524,0.062671,0.999898,-0.008278,0.005449,-0.010269,-0.792417,-0.090038,-0.401070,-0.450679,37.291226,33.674462,70.918176
54089,-7.222315,2.881900,7.039382,1.170514,-2.346589,0.342917,-1.516659,0.903011,-2.182488,-0.071581,0.030137,0.070493,0.999902,-0.007583,0.004515,-0.010912,-0.796111,-0.077613,-0.402138,-0.445499,35.947811,34.829734,70.082889
54090,-7.713764,1.777391,7.375774,1.864829,-3.056463,0.396985,-1.136104,0.647803,-2.281326,-0.076686,0.019070,0.073901,0.999914,-0.005680,0.003239,-0.011406,-0.800244,-0.067054,-0.403004,-0.438977,34.691342,35.883000,69.044009
54091,-7.821523,1.627537,7.555750,1.938043,-2.974429,0.594357,-0.595637,0.340181,-2.328759,-0.077888,0.017409,0.075639,0.999926,-0.002978,0.001701,-0.011644,-0.804793,-0.059231,-0.403774,-0.431006,33.617694,36.787727,67.815201
54092,-7.565931,2.311664,7.509791,1.434515,-2.196737,0.774924,-0.125208,0.081713,-2.286300,-0.075357,0.024026,0.075114,0.999934,-0.000626,0.000409,-0.011431,-0.809523,-0.053928,-0.404453,-0.422116,32.733112,37.538892,66.477324
54093,-6.620054,3.783901,6.920208,0.299694,-0.566202,0.464457,0.130090,-0.049826,-2.250655,-0.065787,0.038536,0.069211,0.999936,0.000650,-0.000249,-0.011253,-0.814271,-0.050008,-0.405074,-0.412769,31.948191,38.199098,65.084192
54094,-5.842326,5.668513,6.211955,-1.180018,1.202622,0.287401,0.045608,-0.039703,-2.242520,-0.057795,0.057321,0.062121,0.999937,0.000228,-0.000199,-0.011212,-0.818901,-0.045725,-0.405511,-0.403572,31.091813,38.846821,63.674952
54095,-5.453453,6.608888,6.118455,-1.745841,2.266996,0.319534,-0.449699,0.089065,-2.249793,-0.053758,0.066834,0.061059,0.999934,-0.002248,0.000445,-0.011249,-0.823293,-0.039142,-0.405424,-0.395332,29.949792,39.540073,62.282298
54096,-5.762416,5.706930,5.677817,-1.683104,1.532579,-0.178079,-1.038470,0.237612,-2.238849,-0.056911,0.058003,0.056547,0.999923,-0.005192,0.001188,-0.011194,-0.827362,-0.029852,-0.404727,-0.388301,28.473419,40.280401,60.915789
54097,-6.106337,3.731960,5.505639,-0.811603,0.089694,-0.820706,-1.347928,0.378338,-2.167609,-0.060547,0.038348,0.054915,0.999917,-0.006739,0.001892,-0.010838,-0.830921,-0.019154,-0.403935,-0.382152,26.843017,41.043824,59.605486
54098,-6.555207,2.249945,5.174789,-0.392788,-1.141592,-1.248232,-1.293707,0.551215,-2.121624,-0.065163,0.023527,0.051778,0.999919,-0.006468,0.002756,-0.010608,-0.833902,-0.008436,-0.403897,-0.376037,25.259988,41.857157,58.340668
54099,-6.591240,2.039177,5.071041,-0.426281,-1.155018,-1.339251,-0.961949,0.677600,-2.002585,-0.065530,0.021294,0.050832,0.999933,-0.004810,0.003388,-0.010013,-0.836267,0.000892,-0.404942,-0.369701,23.908148,42.682760,57.156660
54100,-5.881142,2.437956,5.197675,-0.347042,-0.217762,-1.604319,-0.623367,0.889817,-1.633229,-0.058377,0.025020,0.052160,0.999952,-0.003117,0.004449,-0.008166,-0.837425,0.008455,-0.407459,-0.364177,22.937777,43.518668,56.265817
54101,-5.504469,4.110630,4.422047,-1.742174,1.139451,-1.912312,-0.168821,1.224895,-1.098499,-0.054546,0.041444,0.044521,0.999966,-0.000844,0.006124,-0.005492,-0.836879,0.013629,-0.412192,-0.359925,22.544309,44.404595,55.844462
54102,-5.316346,7.094502,5.067806,-3.006222,3.802185,-0.824809,-0.281594,1.629798,-0.780474,-0.052471,0.071222,0.051007,0.999958,-0.001408,0.008149,-0.003902,-0.834853,0.019351,-0.418412,-0.357178,22.327483,45.434592,55.772087
54103,-6.328233,5.890044,5.400969,-2.395944,2.594895,-0.250660,-1.186481,1.903116,-0.811187,-0.062526,0.059476,0.054255,0.999929,-0.005932,0.009515,-0.004056,-0.832131,0.029397,-0.424103,-0.356133,21.625791,46.615134,55.747591
54104,-7.745736,1.663802,5.754510,-0.068431,-1.018182,-0.074479,-1.595124,1.899400,-1.021437,-0.076819,0.017494,0.058139,0.999910,-0.007975,0.009497,-0.005107,-0.829595,0.041577,-0.428956,-0.355021,20.547432,47.837291,55.529133
54105,-9.449297,-1.654295,6.376739,1.810743,-3.955141,0.853192,-1.113329,1.614877,-1.181033,-0.094068,-0.015628,0.064617,0.999934,-0.005567,0.008074,-0.005905,-0.827926,0.051589,-0.433380,-0.352220,19.553629,48.934115,55.058796
54106,-9.952299,-0.842271,7.563449,1.946615,-2.941499,2.208908,-0.238588,1.091926,-1.167073,-0.099155,-0.007753,0.076186,0.999967,-0.001193,0.005460,-0.005835,-0.827508,0.057028,-0.437146,-0.347679,18.924812,49.741749,54.415616
54107,-9.081025,1.699838,8.399550,1.269777,-0.083701,2.608510,0.011616,0.627502,-1.041011,-0.090456,0.017465,0.084281,0.999982,0.000058,0.003137,-0.005205,-0.827918,0.060342,-0.439434,-0.343231,18.398141,50.269033,53.725001
54108,-7.809879,1.667580,7.471564,1.129172,0.286766,1.061192,-0.153232,0.379305,-0.917254,-0.077879,0.017091,0.074850,0.999987,-0.000766,0.001897,-0.004586,-0.828585,0.063644,-0.440441,-0.339717,17.789908,50.635589,53.055777
54109,-7.242037,0.688634,6.453015,1.236310,-0.495863,-0.180043,-0.070533,0.354695,-0.912619,-0.072273,0.007239,0.064656,0.999988,-0.000353,0.001773,-0.004563,-0.829306,0.066545,-0.441472,-0.336044,17.216268,50.982594,52.373253
54110,-7.458980,0.331779,6.157503,1.159176,-0.926175,-0.249243,0.177972,0.348416,-0.875750,-0.074467,0.003589,0.061708,0.999988,0.000890,0.001742,-0.004379,-0.830042,0.068328,-0.442900,-0.331966,16.797875,51.317036,51.710855
54111,-7.518835,1.930210,6.050620,0.088840,0.294164,0.024683,0.377232,0.345811,-0.808668,-0.075005,0.019491,0.060673,0.999989,0.001886,0.001729,-0.004043,-0.830722,0.069123,-0.444658,-0.327723,16.531544,51.635736,51.099581
54112,-7.441248,2.920048,5.934080,-0.548908,1.113960,0.065045,0.152469,0.345837,-0.685676,-0.074209,0.029410,0.059492,0.999992,0.000762,0.001729,-0.003428,-0.831107,0.070584,-0.446085,-0.324480,16.214035,51.933412,50.590080
54113,-7.451679,2.848231,5.576484,-0.747877,0.968091,-0.156586,-0.002792,0.377129,-0.515786,-0.074338,0.028675,0.055905,0.999995,-0.000014,0.001886,-0.002579,-0.831083,0.072355,-0.447441,-0.322278,15.928681,52.218937,50.235734
54114,-7.870539,2.540182,5.636523,-0.674043,0.612853,0.154161,-0.096053,0.430535,-0.423207,-0.078530,0.025595,0.056522,0.999995,-0.000480,0.002153,-0.002116,-0.830747,0.074397,-0.448901,-0.320644,15.661461,52.519128,49.973447
54115,-8.484108,1.897797,5.992368,-0.269249,0.028702,0.742718,-0.085821,0.395486,-0.411224,-0.084683,0.019178,0.060083,0.999996,-0.000429,0.001977,-0.002056,-0.830468,0.076307,-0.450230,-0.319050,15.398428,52.796674,49.709777
54116,-8.534738,1.943348,6.178017,-0.176115,0.172011,0.898308,0.028745,0.318615,-0.411251,-0.085209,0.019600,0.061919,0.999997,0.000144,0.001593,-0.002056,-0.830399,0.077623,-0.451423,-0.317222,15.181570,53.031786,49.422829
54117,-8.280229,2.331519,6.403745,-0.139594,0.732373,0.885449,0.087637,0.257438,-0.376700,-0.082676,0.023443,0.064154,0.999997,0.000438,0.001287,-0.001883,-0.830432,0.078514,-0.452462,-0.315430,15.009507,53.226594,49.150276
54118,-8.144060,2.642124,6.588781,-0.131009,1.155777,0.928143,0.074732,0.232448,-0.368313,-0.081315,0.026546,0.065992,0.999998,0.000374,0.001162,-0.001842,-0.830499,0.079405,-0.453382,-0.313707,14.828521,53.406506,48.876674
54119,-8.511637,2.197218,7.068374,0.326571,0.881636,1.428020,-0.067919,0.162294,-0.438598,-0.085010,0.022183,0.070745,0.999997,-0.000340,0.000811,-0.002193,-0.830775,0.080932,-0.453752,-0.312045,14.497563,53.556314,48.518555
54120,-8.684990,1.327458,7.230525,0.867753,0.230004,1.530395,-0.119974,0.006292,-0.541691,-0.086811,0.013553,0.072300,0.999996,-0.000600,0.000031,-0.002708,-0.831538,0.082669,-0.453353,-0.310131,14.026272,53.633121,48.023800
54121,-8.450587,1.119978,7.256521,1.061639,0.221649,1.329455,-0.114925,-0.172251,-0.614266,-0.084533,0.011501,0.072486,0.999995,-0.000575,-0.000861,-0.003071,-0.832815,0.084269,-0.452181,-0.307978,13.469080,53.617235,47.418813
54122,-8.095497,1.287203,6.941487,0.833280,0.410594,0.888479,-0.077670,-0.286387,-0.603822,-0.081015,0.013143,0.069294,0.999994,-0.000388,-0.001432,-0.003019,-0.834340,0.085517,-0.450594,-0.305826,12.921476,53.533314,46.799040
54123,-7.651786,1.452085,6.659920,0.666837,0.638833,0.393187,-0.088099,-0.345373,-0.514890,-0.076595,0.014747,0.066461,0.999995,-0.000440,-0.001727,-0.002574,-0.835849,0.086513,-0.448775,-0.304094,12.428545,53.401444,46.253667
54124,-7.541788,1.502330,6.307967,0.388116,0.592412,0.108212,-0.064712,-0.347585,-0.400687,-0.075497,0.015195,0.062944,0.999996,-0.000324,-0.001738,-0.002003,-0.837192,0.087154,-0.447030,-0.302782,12.037560,53.252308,45.817946
54125,-7.716237,1.171432,6.246519,0.419245,0.237490,0.172261,-0.140231,-0.323938,-0.393579,-0.077240,0.011910,0.062332,0.999997,-0.000701,-0.001620,-0.001968,-0.838434,0.088128,-0.445268,-0.301659,11.616180,53.113423,45.397239
54126,-8.184455,0.144557,6.122907,0.683601,-0.821001,0.353656,-0.160072,-0.327782,-0.510476,-0.081941,0.001704,0.061094,0.999995,-0.000800,-0.001639,-0.002552,-0.839845,0.089442,-0.443406,-0.300087,11.098132,52.983761,44.869313
54127,-8.648142,-0.293646,6.106823,0.665743,-1.355092,0.670151,-0.032010,-0.413319,-0.687681,-0.086617,-0.002629,0.060890,0.999992,-0.000160,-0.002067,-0.003438,-0.841757,0.090478,-0.441291,-0.297524,10.513914,52.821694,44.165163
54128,-8.507399,0.126005,6.126608,0.420136,-0.930104,0.622103,0.100260,-0.546199,-0.783953,-0.085235,0.001563,0.061034,0.999988,0.000501,-0.002731,-0.003920,-0.844150,0.090975,-0.438762,-0.294315,9.921811,52.590411,43.354396
54129,-7.968885,1.031429,5.766236,-0.189290,-0.107616,0.075112,0.173506,-0.613352,-0.765988,-0.079825,0.010570,0.057427,0.999988,0.000868,-0.003067,-0.003830,-0.846678,0.091017,-0.436055,-0.291048,9.386226,52.314371,42.558837
54130,-7.602531,1.486472,5.591292,-0.476057,0.354586,-0.277602,0.101780,-0.596421,-0.735075,-0.076136,0.015116,0.055694,0.999989,0.000509,-0.002982,-0.003675,-0.849071,0.091324,-0.433319,-0.288051,8.842690,52.040850,41.802735
54131,-7.589410,1.464728,5.456524,-0.617177,0.303280,-0.376324,0.031291,-0.536385,-0.711084,-0.075987,0.014909,0.054364,0.999990,0.000156,-0.002682,-0.003555,-0.851249,0.091958,-0.430739,-0.285277,8.292530,51.794590,41.086396
54132,-7.782532,1.296197,5.853021,-0.411377,0.269100,-0.001284,-0.085027,-0.502736,-0.759027,-0.077922,0.013282,0.058329,0.999990,-0.000425,-0.002514,-0.003795,-0.853353,0.093240,-0.428105,-0.282527,7.651899,51.566963,40.337751
54133,-8.282065,0.297541,6.084419,-0.011661,-0.629510,0.449090,-0.129638,-0.546404,-0.877062,-0.082972,0.003378,0.060616,0.999986,-0.000648,-0.002732,-0.004385,-0.855676,0.094897,-0.425157,-0.279384,6.906898,51.317185,39.485449
54134,-8.862812,-0.188522,6.729060,0.307546,-0.966892,1.270379,-0.088506,-0.713937,-1.082642,-0.088876,-0.001375,0.066974,0.999979,-0.000443,-0.003570,-0.005413,-0.858632,0.096583,-0.421438,-0.275342,6.037307,50.978170,38.439803
54135,-9.379387,-0.951840,7.185856,0.631140,-1.579182,1.918486,-0.067225,-0.982287,-1.407456,-0.094209,-0.008832,0.071400,0.999963,-0.000336,-0.004911,-0.007037,-0.862562,0.098482,-0.416414,-0.269977,4.955164,50.492472,37.097358
54136,-9.756770,-1.711939,7.590976,0.911334,-2.152925,2.446071,-0.008714,-1.328948,-1.807408,-0.098219,-0.016230,0.075259,0.999937,-0.000044,-0.006645,-0.009037,-0.867697,0.100490,-0.409736,-0.262906,3.647498,49.808604,35.406750
54137,-9.704497,-1.989234,7.846840,0.974826,-2.221358,2.589490,0.089251,-1.697256,-2.200892,-0.097917,-0.018853,0.077631,0.999903,0.000446,-0.008486,-0.011004,-0.874016,0.102372,-0.401327,-0.254074,2.178008,48.898996,33.408346
54138,-9.250386,-1.940655,7.874290,0.883002,-1.964225,2.298950,0.188121,-2.035777,-2.493555,-0.093532,-0.018318,0.077777,0.999870,0.000941,-0.010178,-0.012467,-0.881239,0.103966,-0.391323,-0.243877,0.650607,47.766194,31.226183
54139,-8.421761,-1.566887,7.539827,0.604666,-1.448721,1.490217,0.331061,-2.263422,-2.622586,-0.085260,-0.014679,0.074412,0.999849,0.001655,-0.011317,-0.013112,-0.888892,0.104866,-0.380314,-0.232885,-0.772807,46.465549,29.030717
54140,-7.336004,-0.911224,7.229001,0.413700,-0.610985,0.500096,0.428690,-2.355345,-2.567612,-0.074315,-0.008316,0.071400,0.999846,0.002143,-0.011776,-0.012837,-0.896437,0.105100,-0.368924,-0.221925,-2.003320,45.079071,26.978121
54141,-5.406387,0.036979,6.181359,0.278346,0.472956,-1.619096,0.559168,-2.261460,-2.256675,-0.054751,0.000813,0.061199,0.999869,0.002796,-0.011307,-0.011283,-0.903277,0.104240,-0.358157,-0.212011,-2.891119,43.727502,25.257622
54142,-2.799518,2.047496,4.923685,0.168102,2.621494,-4.393156,0.662380,-1.843419,-1.634152,-0.028280,0.020543,0.049045,0.999919,0.003312,-0.009217,-0.008171,-0.908572,0.102230,-0.349635,-0.204455,-3.334204,42.620535,24.063037
54143,-0.775426,3.933353,3.656314,-0.087215,4.485078,-6.760214,0.648782,-1.037356,-0.741681,-0.007799,0.039244,0.036650,0.999974,0.003244,-0.005187,-0.003708,-0.911441,0.099524,-0.345181,-0.200549,-3.314855,42.000943,23.545859
54144,-1.979961,5.552902,4.483613,-1.114585,5.838701,-5.393978,0.228364,-0.088288,0.030879,-0.019828,0.055475,0.044891,0.999999,0.001142,-0.000441,0.000154,-0.911666,0.098357,-0.345003,-0.200408,-3.164438,41.949798,23.582476
54145,-4.976527,2.574091,4.737741,-1.700856,2.340383,-3.069721,-0.287333,0.552271,0.550774,-0.049705,0.025672,0.047478,0.999991,-0.001437,0.002761,0.002754,-0.910002,0.099278,-0.347484,-0.203213,-3.057348,42.281276,23.993962
54146,-7.766570,0.347268,6.247002,-1.662258,-0.014565,0.020997,-0.291379,0.767269,0.725008,-0.077437,0.003283,0.062763,0.999985,-0.001457,0.003836,0.003625,-0.907764,0.100133,-0.351015,-0.206705,-2.862821,42.740039,24.535537
54147,-9.146964,-1.519464,7.202722,-1.096121,-1.794065,1.738679,-0.203159,0.641357,0.612800,-0.091191,-0.015401,0.072336,0.999990,-0.001016,0.003207,0.003064,-0.905883,0.100649,-0.354002,-0.209591,-2.666913,43.122366,25.000276
54148,-9.253375,-2.020317,8.145510,-0.301443,-1.963649,2.520557,0.001769,0.359695,0.301750,-0.092356,-0.020343,0.081621,0.999997,0.000009,0.001798,0.001509,-0.904917,0.100495,-0.355767,-0.210844,-2.510181,43.334514,25.234194
54149,-8.513330,-1.926692,8.494698,0.386321,-1.540176,2.263215,0.133147,0.067397,-0.011415,-0.085106,-0.019319,0.084963,1.000000,0.000666,0.000337,-0.000057,-0.904866,0.099991,-0.356189,-0.210593,-2.438992,43.371120,25.232937
54150,-7.680647,-1.233515,8.464874,0.597881,-0.684060,1.647790,0.234530,-0.165140,-0.224806,-0.076890,-0.012348,0.084571,0.999998,0.001173,-0.000826,-0.001124,-0.905501,0.099168,-0.355559,-0.209310,-2.420355,43.269661,25.071016
54151,-6.990647,-0.463571,8.255305,0.553130,0.135934,0.999785,0.206228,-0.315749,-0.350540,-0.070045,-0.004598,0.082438,0.999997,0.001031,-0.001579,-0.001753,-0.906518,0.098535,-0.354153,-0.207584,-2.480600,43.078633,24.816462
54152,-6.721406,-0.349827,8.042426,0.511022,0.245739,0.659112,0.105252,-0.398275,-0.436250,-0.067382,-0.003394,0.080288,0.999995,0.000526,-0.001991,-0.002181,-0.907713,0.098429,-0.352224,-0.205686,-2.641647,42.837987,24.498545
54153,-6.658203,-0.789311,7.842353,0.573583,-0.191970,0.487362,0.037214,-0.479470,-0.500822,-0.066789,-0.007741,0.078262,0.999994,0.000186,-0.002397,-0.002504,-0.909075,0.098656,-0.349820,-0.203654,-2.870065,42.548135,24.136483
54154,-6.649964,-0.970324,7.642102,0.473774,-0.412110,0.344604,0.031025,-0.562099,-0.560340,-0.066741,-0.009528,0.076232,0.999992,0.000155,-0.002810,-0.002802,-0.910627,0.098936,-0.347000,-0.201398,-3.127938,42.208187,23.734540
54155,-6.400382,-1.078783,7.227618,0.372895,-0.562612,-0.121914,0.024966,-0.603122,-0.613098,-0.064254,-0.010600,0.072081,0.999991,0.000125,-0.003016,-0.003065,-0.912285,0.099286,-0.343956,-0.198931,-3.409581,41.841563,23.298796
