PacketCounter,Acc_X,Acc_Y,Acc_Z,FreeAcc_E,FreeAcc_N,FreeAcc_U,Gyr_X,Gyr_Y,Gyr_Z,VelInc_X,VelInc_Y,VelInc_Z,OriInc_q0,OriInc_q1,OriInc_q2,OriInc_q3,Quat_q0,Quat_q1,Quat_q2,Quat_q3,Roll,Pitch,Yaw
28961,-7.611515,6.945187,-0.003207,0.110666,-0.007789,0.490636,0.134147,-0.019376,0.142419,-0.076165,0.069398,0.000007,1.000000,0.000671,-0.000097,0.000712,0.235214,0.647136,-0.275961,-0.670622,89.140507,47.573927,-94.401685
28962,-7.632631,6.908616,0.254890,-0.151217,0.067877,0.484084,0.183612,-0.042585,0.163705,-0.076383,0.069021,0.002596,0.999999,0.000918,-0.000213,0.000819,0.235138,0.646947,-0.277196,-0.670323,89.216300,47.473721,-94.441127
28963,-7.463161,6.789405,0.278089,-0.185897,0.062792,0.278576,0.212811,-0.062039,0.184799,-0.074695,0.067822,0.002830,0.999999,0.001064,-0.000310,0.000924,0.235009,0.646698,-0.278618,-0.670018,89.297306,47.361611,-94.496560
28964,-7.412643,6.634050,0.160622,-0.073618,0.156526,0.134861,0.261016,-0.061420,0.208515,-0.074196,0.066261,0.001670,0.999999,0.001305,-0.000307,0.001043,0.234806,0.646471,-0.280278,-0.669616,89.405965,47.235689,-94.551771
28965,-7.271708,6.649595,0.516734,-0.446142,0.099458,0.043928,0.232896,-0.081528,0.229429,-0.072795,0.066406,0.005215,0.999999,0.001164,-0.000408,0.001147,0.234732,0.646114,-0.281934,-0.669291,89.486659,47.098026,-94.623547
28966,-7.211041,6.205452,0.905613,-0.822708,0.436941,-0.301690,0.276375,-0.092016,0.220318,-0.072183,0.061962,0.009109,0.999998,0.001382,-0.000460,0.001102,0.234474,0.645782,-0.283717,-0.668948,89.585285,46.965326,-94.704725
28967,-7.332272,6.565132,0.248534,-0.187869,0.229716,0.027884,0.209825,-0.050879,0.190940,-0.073386,0.065579,0.002536,0.999999,0.001049,-0.000254,0.000955,0.234389,0.645552,-0.285134,-0.668598,89.671386,46.849985,-94.751298
28968,-7.496528,7.060354,0.248391,-0.213733,0.002031,0.485978,0.219008,-0.064702,0.175319,-0.075028,0.070535,0.002537,0.999999,0.001095,-0.000324,0.000877,0.234203,0.645305,-0.286546,-0.668298,89.753685,46.743336,-94.810063
28969,-7.193242,7.369390,0.743161,-0.746102,-0.369989,0.478539,0.088980,-0.064659,0.163131,-0.071995,0.073632,0.007441,1.000000,0.000445,-0.000323,0.000816,0.234394,0.644924,-0.287484,-0.668195,89.762076,46.643967,-94.868440
28970,-6.914710,6.618321,0.488855,-0.458571,-0.021609,-0.239622,-0.177443,-0.010696,0.130681,-0.069191,0.066142,0.004826,0.999999,-0.000887,-0.000053,0.000653,0.235415,0.644455,-0.287364,-0.668341,89.650093,46.563039,-94.882120
28971,-7.096844,5.922991,-0.020632,0.110689,0.574977,-0.587473,-0.203043,0.040693,0.075636,-0.070991,0.059203,-0.000252,0.999999,-0.001015,0.000203,0.000378,0.236406,0.644208,-0.286920,-0.668420,89.555007,46.514110,-94.852694
28972,-7.500167,5.775104,-0.232754,0.362189,0.947202,-0.398330,-0.167743,0.046228,0.030264,-0.075011,0.057738,-0.002359,1.000000,-0.000839,0.000231,0.000151,0.237141,0.644084,-0.286441,-0.668485,89.482736,46.490970,-94.819329
28973,-7.471665,5.750594,-0.067974,0.203616,0.960418,-0.435275,-0.100648,0.015311,0.003633,-0.074718,0.057504,-0.000703,1.000000,-0.000503,0.000077,0.000018,0.237525,0.643976,-0.286137,-0.668583,89.430681,46.483207,-94.811439
28974,-7.220098,5.443410,-0.228504,0.369648,0.997751,-0.830450,-0.076413,0.001890,-0.018370,-0.072196,0.054440,-0.002305,1.000000,-0.000382,0.000009,-0.000092,0.237740,0.643880,-0.285859,-0.668717,89.383730,46.487764,-94.815317
28975,-6.974546,5.208399,-0.535539,0.675901,0.974051,-1.172497,-0.003337,-0.003390,-0.041981,-0.069734,0.052099,-0.005357,1.000000,-0.000017,-0.000017,-0.000210,0.237631,0.643890,-0.285756,-0.668790,89.375856,46.506026,-94.823385
28976,-6.985460,4.918350,-0.459635,0.613727,1.192776,-1.362912,0.108545,-0.018887,-0.080997,-0.069834,0.049214,-0.004576,1.000000,0.000543,-0.000094,-0.000405,0.237010,0.644035,-0.285919,-0.668801,89.421956,46.546391,-94.845085
28977,-7.124743,4.984716,-0.185272,0.336814,1.253239,-1.212710,0.247515,-0.009312,-0.133036,-0.071214,0.049897,-0.001794,0.999999,0.001238,-0.000047,-0.000665,0.235780,0.644452,-0.286368,-0.668642,89.553751,46.616802,-94.858730
28978,-7.219407,5.175779,-0.593789,0.727467,1.133888,-1.012338,0.207547,0.000163,-0.199448,-0.072142,0.051836,-0.005884,0.999999,0.001038,0.000001,-0.000997,0.234472,0.644946,-0.286457,-0.668588,89.667764,46.725220,-94.865027
28979,-6.967481,5.245425,-0.595588,0.698643,0.892877,-1.144954,0.229058,-0.010648,-0.236720,-0.069612,0.052543,-0.005899,0.999999,0.001145,-0.000053,-0.001184,0.232952,0.645482,-0.286510,-0.668579,89.788110,46.855072,-94.879824
28980,-6.734400,4.855169,-0.102034,0.203490,1.037904,-1.577610,0.245492,-0.010741,-0.281296,-0.067276,0.048648,-0.000964,0.999998,0.001227,-0.000054,-0.001406,0.231229,0.646098,-0.286473,-0.668598,89.917548,47.010441,-94.894763
28981,-6.823903,4.567225,-0.113053,0.222297,1.283361,-1.704577,0.278367,0.037921,-0.358372,-0.068157,0.045796,-0.001054,0.999997,0.001392,0.000190,-0.001792,0.229211,0.647024,-0.286240,-0.668498,90.096672,47.210039,-94.867818
28982,-7.191516,4.702351,-0.512157,0.612492,1.367923,-1.336498,0.343969,0.053680,-0.432954,-0.071814,0.047188,-0.005021,0.999996,0.001720,0.000268,-0.002165,0.226753,0.648179,-0.285964,-0.668335,90.323830,47.452283,-94.826512
28983,-7.158092,5.359105,-0.018560,0.049499,0.870390,-0.913339,0.444742,0.004047,-0.466383,-0.071456,0.053758,-0.000065,0.999995,0.002224,0.000020,-0.002332,0.223784,0.649325,-0.285971,-0.668220,90.579596,47.713769,-94.825078
28984,-6.753179,5.698771,0.226971,-0.267719,0.332291,-0.983720,0.361052,-0.009212,-0.488455,-0.067392,0.057148,0.002370,0.999995,0.001805,-0.000046,-0.002442,0.220991,0.650358,-0.285638,-0.668287,90.779917,47.988053,-94.833528
28985,-6.525668,5.631636,0.065338,-0.136982,0.174451,-1.195579,0.291644,0.023085,-0.513429,-0.065112,0.056483,0.000743,0.999996,0.001458,0.000115,-0.002567,0.218384,0.651454,-0.284955,-0.668369,90.962749,48.276312,-94.812254
28986,-6.695157,5.650136,0.030934,-0.116050,0.226854,-1.055691,0.252029,0.042388,-0.539535,-0.066799,0.056681,0.000395,0.999996,0.001260,0.000212,-0.002698,0.215845,0.652600,-0.284030,-0.668469,91.136378,48.579356,-94.772819
28987,-7.011354,5.703113,0.078807,-0.172430,0.354060,-0.782989,0.241799,0.059787,-0.569181,-0.069951,0.057229,0.000878,0.999995,0.001209,0.000299,-0.002846,0.213264,0.653832,-0.282954,-0.668550,91.317776,48.899007,-94.715660
28988,-7.288245,5.858072,-0.100671,-0.012646,0.350568,-0.468046,0.161187,0.059364,-0.599206,-0.072707,0.058799,-0.000938,0.999995,0.000806,0.000297,-0.002996,0.210842,0.655011,-0.281506,-0.668775,91.454266,49.235856,-94.656839
28989,-7.470293,5.974528,-0.038883,-0.093089,0.332628,-0.253285,0.173066,0.033939,-0.615537,-0.074519,0.059975,-0.000324,0.999995,0.000865,0.000170,-0.003078,0.208290,0.656136,-0.280070,-0.669075,91.582750,49.582254,-94.618078
28990,-7.401172,6.206936,0.015521,-0.188770,0.060168,-0.155355,0.156263,0.015973,-0.631226,-0.073815,0.062302,0.000210,0.999995,0.000781,0.000080,-0.003156,0.205712,0.657198,-0.278541,-0.669469,91.690536,49.937997,-94.593752
28991,-7.406492,6.131541,-0.073118,-0.107899,0.052397,-0.197983,0.081291,0.020154,-0.645686,-0.073867,0.061554,-0.000699,0.999995,0.000406,0.000101,-0.003228,0.203337,0.658211,-0.276707,-0.669960,91.759856,50.301806,-94.563972
28992,-7.638570,6.376744,-0.443749,0.237346,-0.087114,0.144383,0.081954,0.022190,-0.651866,-0.076178,0.064018,-0.004403,0.999995,0.000410,0.000111,-0.003259,0.200939,0.659231,-0.274849,-0.670444,91.831482,50.669249,-94.531556
28993,-7.986648,9.188308,-3.257968,2.769347,-2.379820,2.249348,0.234526,0.060162,-0.490435,-0.079651,0.092117,-0.032448,0.999996,0.001173,0.000301,-0.002452,0.198630,0.660306,-0.273996,-0.670424,92.015142,50.943318,-94.467820
28994,-11.214593,15.638273,-3.628591,2.603304,-5.375676,8.837054,0.684491,0.157514,0.197989,-0.112329,0.156394,-0.035662,0.999993,0.003422,0.000788,0.000990,0.197274,0.661204,-0.276823,-0.668776,92.507787,50.820886,-94.337998
28995,-13.359587,18.025550,5.848529,-7.120992,-4.645531,11.758189,1.959834,-0.794896,0.795169,-0.134545,0.179141,0.059711,0.999936,0.009799,-0.003974,0.003976,0.192367,0.659302,-0.286809,-0.667875,93.045387,50.382324,-95.095286
28996,-2.460685,16.883475,10.770971,-12.646866,-9.761927,2.511022,1.134632,-1.139493,0.644549,-0.025766,0.168139,0.108520,0.999962,0.005673,-0.005697,0.003223,0.189165,0.655602,-0.293847,-0.669370,92.884596,50.041535,-96.150157
28997,0.950726,6.074865,-5.381603,4.562926,-5.911530,-6.496472,-3.016426,1.310268,-0.126656,0.009189,0.059921,-0.054785,0.999865,-0.015081,0.006551,-0.000633,0.200553,0.657197,-0.282095,-0.669547,92.051248,50.076131,-94.982746
28998,-7.409101,-1.528509,-8.580693,9.059866,4.960701,-4.896521,-0.560992,0.846958,-0.198782,-0.074469,-0.015451,-0.085449,0.999987,-0.002805,0.004235,-0.000994,0.202953,0.659703,-0.278752,-0.667757,92.310198,50.165293,-94.225916
28999,-11.412046,2.611575,1.225747,-0.941163,5.428767,0.589248,1.179498,-0.118197,-0.116565,-0.114113,0.026110,0.012344,0.999982,0.005897,-0.000591,-0.000583,0.198531,0.660622,-0.282459,-0.666619,92.903941,50.229520,-94.332587
29000,-11.099729,4.415670,2.483491,-2.390851,4.003933,1.462157,-0.089978,-0.276920,0.059566,-0.111045,0.044135,0.024661,0.999999,-0.000450,-0.001385,0.000298,0.198663,0.659488,-0.282669,-0.667612,92.655087,50.197248,-94.588956
29001,-7.440664,4.705978,-0.235015,0.133097,1.144359,-1.081282,-0.570898,-0.284333,0.197666,-0.074450,0.046979,-0.002590,0.999994,-0.002854,-0.001422,0.000988,0.200828,0.657655,-0.281735,-0.669166,92.122895,50.085298,-94.855987
29002,-5.543210,4.393862,-1.601538,1.442263,0.025096,-2.705130,0.251140,-0.096178,0.156399,-0.055459,0.043915,-0.015987,0.999999,0.001256,-0.000481,0.000782,0.200417,0.657327,-0.283224,-0.668983,92.192040,49.992026,-94.953080
29003,-5.661537,4.910826,-0.331886,0.118772,-0.138567,-2.312954,0.576713,-0.022426,0.032531,-0.056623,0.049108,-0.003184,0.999996,0.002884,-0.000112,0.000163,0.198624,0.657747,-0.285320,-0.668214,92.501822,49.968342,-94.979901
29004,-6.466854,5.327298,0.785985,-1.009402,0.196377,-1.460406,0.166005,0.012551,-0.078813,-0.064647,0.053292,0.007908,1.000000,0.000830,0.000063,-0.000394,0.197860,0.658029,-0.285641,-0.668025,92.602910,50.007364,-94.971695
29005,-7.417605,5.596649,0.772818,-0.968769,0.586925,-0.557552,-0.398051,0.015292,-0.182221,-0.074124,0.056049,0.007622,0.999998,-0.001990,0.000076,-0.000911,0.198608,0.657911,-0.283734,-0.668732,92.386242,50.105710,-94.956684
29006,-7.674060,4.901644,-0.001833,-0.088778,1.165596,-0.782144,-0.541081,-0.003705,-0.232863,-0.076683,0.049105,-0.000153,0.999996,-0.002705,-0.000019,-0.001164,0.199630,0.657652,-0.281200,-0.669752,92.074862,50.233336,-94.958025
29007,-7.754438,4.855728,-1.721317,1.644695,1.035761,-0.708047,-0.314130,0.071171,-0.235964,-0.077493,0.048622,-0.017262,0.999998,-0.001571,0.000356,-0.001180,0.199998,0.657873,-0.279339,-0.670204,91.945211,50.361411,-94.892462
29008,-8.145355,5.406600,-2.433526,2.320893,0.768957,-0.039135,0.035930,0.015019,-0.149653,-0.081415,0.054131,-0.024319,1.000000,0.000180,0.000075,-0.000748,0.199427,0.658132,-0.278990,-0.670266,91.974745,50.441073,-94.880445
29009,-8.257100,6.882656,-1.333471,1.073713,-0.173743,0.964405,0.432478,-0.098290,0.008507,-0.082567,0.068852,-0.013226,0.999998,0.002162,-0.000491,0.000043,0.197920,0.658186,-0.280603,-0.669986,92.149715,50.432623,-94.974761
29010,-8.418652,8.895775,-0.032643,-0.449539,-1.447240,2.341028,0.599150,-0.119627,0.160180,-0.084258,0.088891,-0.000110,0.999995,0.002996,-0.000598,0.000801,0.196343,0.658114,-0.283293,-0.669388,92.400952,50.337945,-95.093912
29011,-8.270298,9.930965,1.234127,-1.871832,-2.144812,2.853831,0.616976,-0.124112,0.207237,-0.082814,0.099185,0.012596,0.999995,0.003085,-0.000621,0.001036,0.194855,0.657973,-0.286198,-0.668725,92.658126,50.216886,-95.219008
29012,-7.343225,9.315779,1.562608,-2.218083,-2.192905,1.738052,0.412851,-0.062843,0.132565,-0.073499,0.093077,0.015795,0.999998,0.002064,-0.000314,0.000663,0.193877,0.657937,-0.288114,-0.668222,92.842169,50.136990,-95.286990
29013,-6.911217,7.303720,-0.299825,-0.173176,-1.170184,0.177299,-0.053440,0.111620,-0.009590,-0.069110,0.073040,-0.002979,1.000000,-0.000267,0.000558,-0.000048,0.194207,0.658238,-0.287833,-0.667951,92.883832,50.133729,-95.192677
29014,-7.491105,5.395223,-1.334992,1.110282,0.512898,-0.565445,-0.079054,0.122933,-0.091336,-0.074895,0.053981,-0.013325,1.000000,-0.000395,0.000615,-0.000457,0.194367,0.658665,-0.287188,-0.667761,92.920921,50.176597,-95.084952
29015,-7.826838,4.971609,-0.413407,0.261138,1.160876,-0.607723,0.078545,0.005114,-0.075768,-0.078250,0.049747,-0.004113,1.000000,0.000393,0.000026,-0.000379,0.193888,0.658833,-0.287234,-0.667715,92.967557,50.214252,-95.082684
29016,-7.370364,5.221814,0.136705,-0.340739,0.746694,-0.816319,0.015246,-0.046121,-0.022873,-0.073698,0.052226,0.001354,1.000000,0.000076,-0.000231,-0.000114,0.193723,0.658690,-0.287293,-0.667879,92.940352,50.222920,-95.129051
29017,-6.706936,5.254803,-0.122597,-0.121842,0.265213,-1.296480,-0.039337,-0.030104,0.006080,-0.067071,0.052546,-0.001246,1.000000,-0.000197,-0.000151,0.000030,0.193855,0.658508,-0.287249,-0.668038,92.892356,50.214767,-95.162034
29018,-6.573790,5.658745,-0.270497,-0.029198,-0.145031,-1.135857,0.017671,0.005497,-0.008212,-0.065736,0.056590,-0.002698,1.000000,0.000088,0.000027,-0.000041,0.193804,0.658519,-0.287314,-0.668015,92.901477,50.213545,-95.162938
29019,-6.873650,5.992677,-0.189001,-0.133945,-0.198382,-0.694701,-0.021865,0.045140,-0.042152,-0.068724,0.059941,-0.001881,1.000000,-0.000109,0.000226,-0.000211,0.193826,0.658674,-0.287097,-0.667949,92.916893,50.230801,-95.126435
29020,-7.210718,6.277025,-0.148147,-0.189018,-0.197724,-0.255355,-0.084350,0.048367,-0.048758,-0.072092,0.062787,-0.001491,1.000000,-0.000422,0.000242,-0.000244,0.194038,0.658787,-0.286646,-0.667969,92.898460,50.251527,-95.087138
29021,-7.467673,6.532190,-0.306286,-0.044195,-0.250686,0.110249,-0.111516,0.026658,-0.016647,-0.074672,0.065326,-0.003089,1.000000,-0.000558,0.000133,-0.000083,0.194413,0.658757,-0.286231,-0.668068,92.848928,50.254734,-95.068314
29022,-7.643085,6.640515,-0.612991,0.262555,-0.258536,0.324036,-0.047445,-0.012552,0.035445,-0.076442,0.066390,-0.006150,1.000000,-0.000237,-0.000063,0.000177,0.194697,0.658582,-0.286240,-0.668154,92.806835,50.229020,-95.087307
29023,-7.884911,6.571163,-0.661298,0.332676,-0.051161,0.467197,0.131819,-0.034754,0.081365,-0.078875,0.065684,-0.006583,1.000000,0.000659,-0.000174,0.000407,0.194511,0.658443,-0.287020,-0.668011,92.851183,50.177884,-95.127743
29024,-7.982634,6.575184,-0.495852,0.166514,0.039449,0.539706,0.238233,-0.043833,0.096033,-0.079857,0.065719,-0.004898,0.999999,0.001191,-0.000219,0.000480,0.194012,0.658353,-0.288213,-0.667731,92.949260,50.118419,-95.177392
29025,-7.860061,6.514426,-0.318982,-0.018317,0.040274,0.400936,0.218316,-0.043702,0.070857,-0.078623,0.065120,-0.003136,0.999999,0.001092,-0.000219,0.000354,0.193492,0.658282,-0.289256,-0.667501,93.037364,50.073638,-95.225457
29026,-7.658493,6.351509,-0.050754,-0.283024,0.076953,0.132700,0.136028,-0.031642,0.029817,-0.076594,0.063504,-0.000476,1.000000,0.000680,-0.000158,0.000149,0.193125,0.658228,-0.289877,-0.667391,93.087557,50.051776,-95.261249
29027,-7.672195,6.081320,0.093740,-0.398002,0.311117,-0.035233,0.105399,0.011169,-0.034764,-0.076711,0.060826,0.000974,1.000000,0.000527,0.000056,-0.000174,0.192704,0.658382,-0.290142,-0.667245,93.152318,50.065779,-95.255403
29028,-7.880564,6.019870,-0.609527,0.313406,0.393222,0.110054,-0.045005,0.069637,-0.081075,-0.078783,0.060229,-0.006081,1.000000,-0.000225,0.000348,-0.000405,0.192710,0.658652,-0.289696,-0.667171,93.172142,50.104205,-95.195541
29029,-7.955478,6.023553,-0.691194,0.395305,0.421106,0.173151,-0.001607,0.028781,-0.078833,-0.079532,0.060267,-0.006901,1.000000,-0.000008,0.000144,-0.000394,0.192519,0.658826,-0.289441,-0.667165,93.189358,50.142854,-95.171763
29030,-7.567944,6.027444,-0.100003,-0.216044,0.243921,-0.142750,0.080337,-0.021924,-0.055516,-0.075663,0.060296,-0.000984,1.000000,0.000402,-0.000110,-0.000278,0.192065,0.658874,-0.289586,-0.667186,93.217425,50.169585,-95.194767
29031,-7.269983,5.886340,-0.116050,-0.202222,0.154868,-0.461204,0.020692,0.005378,-0.051397,-0.072685,0.058882,-0.001152,1.000000,0.000103,0.000027,-0.000257,0.191858,0.658951,-0.289519,-0.667198,93.230371,50.193282,-95.193203
29032,-7.402670,5.663909,-0.353430,0.066000,0.373008,-0.492772,0.036769,0.017277,-0.050755,-0.074013,0.056659,-0.003517,1.000000,0.000184,0.000086,-0.000254,0.191620,0.659081,-0.289496,-0.667148,93.260190,50.216038,-95.181408
29033,-7.519712,5.882703,-0.305791,-0.007495,0.284278,-0.264656,0.128299,-0.000517,-0.056921,-0.075180,0.058850,-0.003020,1.000000,0.000641,-0.000003,-0.000285,0.191032,0.659250,-0.289775,-0.667029,93.330996,50.243088,-95.184782
29034,-7.529751,6.112737,-0.278351,-0.070111,0.116575,-0.111055,0.109067,-0.008292,-0.042176,-0.075284,0.061145,-0.002753,1.000000,0.000545,-0.000041,-0.000211,0.190546,0.659351,-0.290046,-0.666950,93.384376,50.261796,-95.196249
29035,-7.432394,6.368627,-0.327065,-0.066026,-0.148099,-0.020825,0.120551,-0.027705,-0.024393,-0.074316,0.063697,-0.003243,1.000000,0.000603,-0.000139,-0.000122,0.190053,0.659374,-0.290432,-0.666900,93.430762,50.271172,-95.225603
29036,-7.237112,6.551673,-0.374085,-0.060728,-0.418251,-0.052486,0.144422,-0.027315,-0.014523,-0.072366,0.065525,-0.003703,1.000000,0.000722,-0.000137,-0.000073,0.189515,0.659404,-0.290930,-0.666806,93.490188,50.274736,-95.255544
29037,-7.205759,6.576308,-0.182598,-0.263401,-0.429965,-0.068465,0.165423,-0.017890,-0.010518,-0.072054,0.065768,-0.001778,1.000000,0.000827,-0.000089,-0.000053,0.188934,0.659481,-0.291501,-0.666645,93.568467,50.275871,-95.276856
29038,-7.259495,6.554391,-0.377929,-0.070488,-0.405647,-0.033443,0.058679,0.006445,-0.009298,-0.072592,0.065548,-0.003758,1.000000,0.000293,0.000032,-0.000046,0.188746,0.659535,-0.291699,-0.666559,93.601777,50.275257,-95.276860
29039,-7.489217,6.357878,-0.343051,-0.068956,-0.104928,0.016499,0.054423,0.006132,-0.006179,-0.074890,0.063582,-0.003411,1.000000,0.000272,0.000031,-0.000031,0.188580,0.659581,-0.291892,-0.666475,93.632802,50.273063,-95.276921
29040,-7.565348,6.263717,-0.387166,-0.010814,0.009080,0.016775,0.018526,0.014608,-0.013534,-0.075650,0.062643,-0.003860,1.000000,0.000093,0.000073,-0.000068,0.188522,0.659630,-0.291934,-0.666425,93.648910,50.274563,-95.269369
29041,-7.636806,6.138357,-0.356587,-0.022908,0.153531,-0.009459,0.057738,0.007614,-0.020754,-0.076362,0.061393,-0.003545,1.000000,0.000289,0.000038,-0.000104,0.188299,0.659706,-0.292088,-0.666346,93.683494,50.280649,-95.267271
29042,-7.526252,6.249451,-0.417807,0.012341,-0.010708,-0.021140,0.078372,-0.007684,-0.027135,-0.075254,0.062506,-0.004156,1.000000,0.000392,-0.000038,-0.000136,0.187966,0.659756,-0.292306,-0.666294,93.719153,50.290750,-95.278898
29043,-7.514906,6.220924,-0.490118,0.082148,-0.008075,-0.045031,0.097781,-0.002938,-0.031646,-0.075139,0.062224,-0.004872,1.000000,0.000489,-0.000015,-0.000158,0.187559,0.659850,-0.292568,-0.666201,93.769917,50.303456,-95.285592
29044,-7.544946,6.189701,-0.481613,0.074152,0.034127,-0.042125,0.096096,-0.002886,-0.033894,-0.075439,0.061912,-0.004787,1.000000,0.000480,-0.000014,-0.000169,0.187152,0.659943,-0.292817,-0.666114,93.819366,50.317251,-95.292488
29045,-7.504261,6.269392,-0.448586,0.022821,-0.049307,-0.024047,0.101260,-0.014792,-0.031134,-0.075033,0.062708,-0.004460,1.000000,0.000506,-0.000074,-0.000156,0.186717,0.659999,-0.293103,-0.666054,93.863951,50.330127,-95.309797
29046,-7.428821,6.172645,-0.321249,-0.098305,-0.007330,-0.149230,0.081659,-0.021202,-0.031462,-0.074278,0.061739,-0.003195,1.000000,0.000408,-0.000106,-0.000157,0.186339,0.660014,-0.293330,-0.666046,93.892413,50.343247,-95.333216
29047,-7.325608,6.236652,-0.321556,-0.116811,-0.123200,-0.187983,0.089413,-0.015319,-0.029347,-0.073247,0.062379,-0.003193,1.000000,0.000447,-0.000077,-0.000147,0.185949,0.660055,-0.293583,-0.666003,93.929768,50.355135,-95.351092
29048,-7.365031,6.253758,-0.402913,-0.040384,-0.124018,-0.143225,0.076896,-0.010606,-0.019087,-0.073644,0.062546,-0.004009,1.000000,0.000384,-0.000053,-0.000095,0.185643,0.660082,-0.293824,-0.665955,93.962223,50.360779,-95.365774
29049,-7.299004,6.355278,-0.282813,-0.180776,-0.225382,-0.134799,0.079252,-0.017403,-0.006305,-0.072988,0.063556,-0.002809,1.000000,0.000396,-0.000087,-0.000032,0.185360,0.660072,-0.294121,-0.665912,93.991225,50.359592,-95.386935
29050,-7.213362,6.265367,-0.296129,-0.162541,-0.212207,-0.257392,0.051783,-0.009109,0.009368,-0.072136,0.062651,-0.002948,1.000000,0.000259,-0.000046,0.000047,0.185234,0.660039,-0.294372,-0.665870,94.008956,50.348914,-95.402042
29051,-7.330498,6.327735,-0.487825,0.023710,-0.211079,-0.118912,0.007668,0.015394,0.014714,-0.073310,0.063272,-0.004870,1.000000,0.000038,0.000077,0.000074,0.185305,0.660041,-0.294469,-0.665805,94.018549,50.334408,-95.395145
29052,-7.310177,6.365940,-0.419865,-0.050458,-0.240636,-0.113217,0.016059,-0.003015,0.010849,-0.073105,0.063656,-0.004195,1.000000,0.000080,-0.000015,0.000054,0.185311,0.659993,-0.294600,-0.665793,94.019946,50.322634,-95.404877
29053,-7.312777,6.345756,-0.262313,-0.203505,-0.198439,-0.131089,0.003318,0.017371,0.009095,-0.073131,0.063454,-0.002616,1.000000,0.000017,0.000087,0.000045,0.185381,0.660005,-0.294663,-0.665733,94.028672,50.311259,-95.395865
29054,-7.523093,6.221513,-0.582968,0.144997,-0.016167,-0.034001,-0.094695,0.042125,0.004289,-0.075233,0.062211,-0.005843,1.000000,-0.000473,0.000211,0.000021,0.185797,0.660014,-0.294361,-0.665742,93.998012,50.301413,-95.364804
29055,-7.684128,6.230982,-0.669842,0.241554,0.067600,0.099766,-0.043853,0.025404,-0.000121,-0.076842,0.062308,-0.006702,1.000000,-0.000219,0.000127,-0.000001,0.186004,0.660024,-0.294229,-0.665733,93.985687,50.294988,-95.348023
29056,-7.600885,6.332654,-0.515230,0.070429,-0.039083,0.093621,-0.004946,0.006454,-0.007447,-0.076007,0.063329,-0.005151,1.000000,-0.000025,0.000032,-0.000037,0.186032,0.660014,-0.294220,-0.665738,93.982472,50.293285,-95.348116
29057,-7.438470,6.404033,-0.307029,-0.154719,-0.165743,0.004916,-0.014812,0.015482,-0.006480,-0.074383,0.064043,-0.003069,1.000000,-0.000074,0.000077,-0.000032,0.186107,0.660027,-0.294173,-0.665726,93.980261,50.290891,-95.339815
29058,-7.418065,6.274881,-0.517911,0.072364,-0.111413,-0.083740,-0.069845,0.024770,-0.008420,-0.074179,0.062750,-0.005192,1.000000,-0.000349,0.000124,-0.000042,0.186373,0.660020,-0.293929,-0.665766,93.952514,50.289013,-95.323473
29059,-7.529282,6.131739,-0.598255,0.180184,0.056304,-0.085890,-0.037462,0.029841,-0.008810,-0.075291,0.061320,-0.005983,1.000000,-0.000187,0.000149,-0.000044,0.186537,0.660062,-0.293785,-0.665742,93.947319,50.287388,-95.302181
29060,-7.663774,6.066082,-0.449463,0.049713,0.213663,-0.030832,0.024893,0.008803,-0.005612,-0.076636,0.060664,-0.004484,1.000000,0.000124,0.000044,-0.000028,0.186476,0.660086,-0.293880,-0.665693,93.962741,50.284539,-95.300293
29061,-7.540452,6.075889,-0.440069,0.030112,0.129897,-0.119869,0.042261,-0.003956,-0.001337,-0.075404,0.060760,-0.004389,1.000000,0.000211,-0.000020,-0.000007,0.186351,0.660080,-0.294057,-0.665656,93.979609,50.279978,-95.309699
29062,-7.458788,6.096548,-0.407117,-0.011294,0.067840,-0.170985,0.038051,-0.015361,-0.003689,-0.074586,0.060968,-0.004065,1.000000,0.000190,-0.000077,-0.000018,0.186218,0.660033,-0.294225,-0.665666,93.985858,50.276999,-95.329534
29063,-7.367846,6.082527,-0.340692,-0.081250,0.030791,-0.252833,0.047095,-0.016835,-0.005002,-0.073677,0.060828,-0.003399,1.000000,0.000235,-0.000084,-0.000025,0.186046,0.659993,-0.294419,-0.665668,93.996812,50.275049,-95.350232
29064,-7.442026,6.188141,-0.318626,-0.114659,0.001663,-0.129443,0.041871,-0.011272,-0.007016,-0.074418,0.061885,-0.003177,1.000000,0.000209,-0.000056,-0.000035,0.185895,0.659968,-0.294584,-0.665662,94.008220,50.273817,-95.366218
29065,-7.574883,6.318139,-0.362530,-0.083187,-0.018324,0.057566,0.030559,0.003435,-0.007420,-0.075747,0.063185,-0.003614,1.000000,0.000153,0.000017,-0.000037,0.185800,0.659984,-0.294696,-0.665623,94.023758,50.272441,-95.368637
29066,-7.595575,6.429385,-0.349251,-0.111289,-0.087037,0.143807,-0.004347,0.001976,-0.005620,-0.075954,0.064296,-0.003493,1.000000,-0.000022,0.000010,-0.000028,0.185825,0.659958,-0.294700,-0.665640,94.017724,50.269880,-95.372875
29067,-7.485526,6.333560,-0.156249,-0.294190,-0.056025,-0.010554,-0.012281,0.003134,-0.010222,-0.074852,0.063339,-0.001565,1.000000,-0.000061,0.000016,-0.000051,0.185861,0.659937,-0.294660,-0.665668,94.008645,50.270118,-95.375387
29068,-7.476662,6.174675,-0.322723,-0.106537,0.034029,-0.111207,-0.038916,0.020435,-0.011705,-0.074763,0.061750,-0.003232,1.000000,-0.000195,0.000102,-0.000059,0.186008,0.659949,-0.294511,-0.665681,93.995783,50.270294,-95.362740
29069,-7.588946,6.056363,-0.520452,0.113267,0.165762,-0.091463,-0.034250,0.023317,-0.015494,-0.075885,0.060569,-0.005206,1.000000,-0.000171,0.000117,-0.000077,0.186129,0.659983,-0.294363,-0.665680,93.988250,50.272739,-95.346874
29070,-7.632918,6.108777,-0.416997,0.006376,0.168860,-0.028827,0.014644,0.001793,-0.012660,-0.076325,0.061093,-0.004165,1.000000,0.000073,0.000009,-0.000063,0.186068,0.659984,-0.294406,-0.665676,93.993307,50.274212,-95.350806
29071,-7.483667,6.189148,-0.339777,-0.090455,0.024186,-0.095820,0.011660,-0.003500,-0.009812,-0.074834,0.061895,-0.003395,1.000000,0.000058,-0.000018,-0.000049,0.186017,0.659963,-0.294454,-0.665690,93.993362,50.274479,-95.359278
29072,-7.354352,6.139021,-0.392652,-0.038628,-0.027595,-0.224883,-0.002259,0.004510,-0.004047,-0.073542,0.061392,-0.003926,1.000000,-0.000011,0.000023,-0.000020,0.186045,0.659945,-0.294467,-0.665695,93.990185,50.270927,-95.361332
29073,-7.397056,6.174995,-0.487412,0.052062,-0.040939,-0.164880,0.015829,0.010287,-0.004325,-0.073969,0.061752,-0.004865,1.000000,0.000079,0.000051,-0.000022,0.186018,0.659965,-0.294534,-0.665652,94.001847,50.267508,-95.357817
29074,-7.462284,6.271977,-0.549312,0.102140,-0.080866,-0.050099,0.014924,0.016247,0.002435,-0.074624,0.062719,-0.005482,1.000000,0.000075,0.000081,0.000012,0.186028,0.659993,-0.294615,-0.665586,94.016277,50.259785,-95.349768
29075,-7.484888,6.213817,-0.461751,0.023943,-0.008186,-0.073712,0.019934,0.005043,0.003596,-0.074850,0.062137,-0.004609,1.000000,0.000100,0.000025,0.000018,0.186007,0.659988,-0.294726,-0.665548,94.026301,50.252048,-95.351442
29076,-7.346581,6.292023,-0.458264,-0.000378,-0.152905,-0.130310,0.044812,0.003638,0.014645,-0.073470,0.062916,-0.004567,1.000000,0.000224,0.000018,0.000073,0.185940,0.659983,-0.294959,-0.665468,94.048599,50.237846,-95.355449
29077,-7.269752,6.387442,-0.422537,-0.057459,-0.265025,-0.130038,0.102735,-0.005775,0.036695,-0.072709,0.063863,-0.004195,1.000000,0.000514,-0.000029,0.000183,0.185740,0.659971,-0.295465,-0.665312,94.097013,50.211634,-95.368901
29078,-7.024537,6.684170,-0.336394,-0.204692,-0.626487,-0.132759,0.119559,-0.017801,0.066881,-0.070267,0.066820,-0.003330,1.000000,0.000598,-0.000089,0.000334,0.185568,0.659886,-0.296139,-0.665144,94.144831,50.168461,-95.395479
29079,-6.946594,6.745172,-0.340396,-0.217782,-0.713640,-0.152891,0.054345,0.002916,0.096625,-0.069499,0.067419,-0.003385,1.000000,0.000272,0.000015,0.000483,0.185739,0.659768,-0.296673,-0.664975,94.168472,50.107653,-95.405101
29080,-7.073527,6.951308,-0.423525,-0.159930,-0.788797,0.081101,0.047184,0.021241,0.118305,-0.070777,0.069472,-0.004211,1.000000,0.000236,0.000106,0.000592,0.186036,0.659670,-0.297240,-0.664737,94.198938,50.033449,-95.400243
29081,-7.291975,7.240509,-0.610451,-0.005256,-0.881393,0.443707,0.002546,0.032946,0.128967,-0.072967,0.072358,-0.006092,1.000000,0.000013,0.000165,0.000645,0.186530,0.659555,-0.297681,-0.664515,94.211702,49.952905,-95.385339
29082,-7.268644,7.366631,-0.282951,-0.348545,-0.926237,0.492703,0.034364,0.012668,0.159338,-0.072745,0.073609,-0.002812,1.000000,0.000172,0.000063,0.000797,0.186992,0.659355,-0.298347,-0.664285,94.226883,49.855571,-95.390821
29083,-7.071797,7.309160,-0.228215,-0.403597,-0.981862,0.304587,-0.064816,0.037474,0.201378,-0.070792,0.073020,-0.002293,0.999999,-0.000324,0.000187,0.001007,0.187955,0.659083,-0.298798,-0.664080,94.200413,49.733458,-95.376710
29084,-7.127792,6.953993,-0.588204,0.015452,-0.709726,0.137459,-0.183235,0.069718,0.247793,-0.071366,0.069446,-0.005921,0.999999,-0.000916,0.000349,0.001239,0.189513,0.658734,-0.298980,-0.663902,94.125094,49.583170,-95.337358
29085,-7.414080,6.601552,-0.745007,0.246840,-0.256928,0.136036,-0.085897,0.057307,0.278330,-0.074235,0.065909,-0.007457,0.999999,-0.000429,0.000287,0.001392,0.190831,0.658391,-0.299594,-0.663587,94.096260,49.416282,-95.310408
29086,-7.501301,6.762338,-0.643466,0.133558,-0.276358,0.302573,-0.048256,0.071029,0.282853,-0.075111,0.067516,-0.006424,0.999999,-0.000241,0.000355,0.001414,0.192062,0.658119,-0.300337,-0.663167,94.097358,49.245902,-95.272100
29087,-7.400497,6.756557,-1.161912,0.643139,-0.382658,0.247547,-0.081711,0.111713,0.281428,-0.074106,0.067457,-0.011605,0.999999,-0.000409,0.000559,0.001407,0.193456,0.657952,-0.300922,-0.662661,94.106532,49.075017,-95.197945
29088,-7.333985,6.793127,-1.092072,0.565567,-0.410450,0.219167,-0.009928,0.098845,0.323653,-0.073455,0.067812,-0.010888,0.999999,-0.000050,0.000494,0.001618,0.194737,0.657745,-0.301897,-0.662048,94.145496,48.880153,-95.138368
29089,-7.362387,6.829952,-0.681392,0.151462,-0.324201,0.246593,0.127407,0.069519,0.350761,-0.073746,0.068175,-0.006745,0.999998,0.000637,0.000348,0.001754,0.195609,0.657533,-0.303442,-0.661294,94.242583,48.671339,-95.106195
29090,-7.486173,6.722403,-0.582160,0.067613,-0.111141,0.264780,0.127822,0.073191,0.356079,-0.074983,0.067094,-0.005751,0.999998,0.000639,0.000366,0.001780,0.196504,0.657321,-0.305003,-0.660521,94.341048,48.458912,-95.072151
29091,-7.706239,6.438846,-0.932423,0.455602,0.229971,0.259734,0.177891,0.106830,0.338935,-0.077176,0.064266,-0.009226,0.999998,0.000889,0.000534,0.001695,0.197226,0.657296,-0.306637,-0.659574,94.490355,48.255128,-95.008598
29092,-7.835715,6.509670,-1.046374,0.550353,0.283710,0.409134,0.258283,0.066978,0.330369,-0.078468,0.064981,-0.010354,0.999998,0.001291,0.000335,0.001652,0.197595,0.657225,-0.308548,-0.658642,94.659362,48.057571,-94.980094
29093,-7.588949,6.354420,-0.451148,-0.044934,0.355677,0.089115,0.315691,0.002311,0.327648,-0.075994,0.063427,-0.004410,0.999997,0.001578,0.000012,0.001638,0.197664,0.657002,-0.310699,-0.657832,94.820089,47.864945,-95.007076
29094,-7.324415,6.271743,-0.175335,-0.335312,0.314260,-0.179346,0.305464,0.016825,0.308914,-0.073341,0.062607,-0.001652,0.999998,0.001527,0.000084,0.001545,0.197730,0.656841,-0.312741,-0.657006,94.984270,47.681991,-95.021353
29095,-7.344085,6.110476,-0.689498,0.184018,0.397899,-0.244164,0.174001,0.083562,0.277885,-0.073529,0.061009,-0.006811,0.999999,0.000870,0.000418,0.001389,0.198226,0.656816,-0.314180,-0.656193,95.116454,47.513768,-94.977205
29096,-7.502704,6.200422,-0.807447,0.282173,0.450056,-0.060481,0.246482,0.064844,0.259098,-0.075110,0.061917,-0.007974,0.999998,0.001232,0.000324,0.001295,0.198395,0.656828,-0.315815,-0.655346,95.278613,47.356818,-94.948380
29097,-7.336237,6.501227,-0.289901,-0.299441,0.226440,-0.013230,0.240785,0.037532,0.227489,-0.073437,0.064932,-0.002807,0.999999,0.001204,0.000188,0.001137,0.198432,0.656794,-0.317351,-0.654626,95.422228,47.219650,-94.940533
29098,-7.155294,6.377966,-0.337019,-0.252366,0.207855,-0.227108,-0.013805,0.091563,0.183996,-0.071613,0.063714,-0.003342,0.999999,-0.000069,0.000458,0.000920,0.199251,0.656750,-0.317859,-0.654175,95.455124,47.104042,-94.884543
29099,-7.205217,5.687100,-0.511023,0.029942,0.727464,-0.648120,-0.150307,0.135676,0.120155,-0.072090,0.056824,-0.005104,0.999999,-0.000752,0.000678,0.000601,0.200377,0.656817,-0.317664,-0.653858,95.440802,47.022746,-94.786323
29100,-7.335782,5.181240,-0.617511,0.221285,1.173110,-0.889957,-0.168523,0.149051,0.051553,-0.073376,0.051788,-0.006164,0.999999,-0.000843,0.000745,0.000258,0.201362,0.657015,-0.317173,-0.653595,95.427707,46.979565,-94.671873
29101,-7.464152,4.776879,-0.724216,0.394776,1.538402,-1.064311,-0.195094,0.150067,-0.026222,-0.074641,0.047772,-0.007233,0.999999,-0.000975,0.000750,-0.000131,0.202178,0.657315,-0.316336,-0.653447,95.404843,46.981021,-94.550105
29102,-7.513302,4.484017,-0.694478,0.410567,1.783896,-1.228542,-0.164174,0.125319,-0.098766,-0.075115,0.044872,-0.006935,0.999999,-0.000821,0.000627,-0.000494,0.202619,0.657676,-0.315388,-0.653405,95.388437,47.024988,-94.443625
29103,-7.449598,4.365233,-0.718008,0.444946,1.814173,-1.352304,-0.081065,0.083792,-0.154866,-0.074465,0.043707,-0.007167,1.000000,-0.000405,0.000419,-0.000774,0.202535,0.658076,-0.314567,-0.653424,95.397981,47.103428,-94.366994
29104,-7.223949,4.430027,-0.759546,0.461398,1.595042,-1.468204,-0.060266,0.041910,-0.208106,-0.072195,0.044373,-0.007594,0.999999,-0.000301,0.000210,-0.001041,0.202145,0.658442,-0.313681,-0.653602,95.396623,47.214352,-94.321410
29105,-6.912228,4.420772,-0.538932,0.224830,1.404313,-1.713929,0.070695,-0.001124,-0.264739,-0.069064,0.044301,-0.005374,0.999999,0.000353,-0.000006,-0.001324,0.201069,0.658889,-0.313080,-0.653772,95.447580,47.360035,-94.307035
29106,-6.683043,4.682159,-0.306753,-0.062249,1.071934,-1.717825,0.101882,0.002574,-0.314435,-0.066757,0.046928,-0.003043,0.999999,0.000509,0.000013,-0.001572,0.199734,0.659455,-0.312412,-0.653930,95.521572,47.533783,-94.285486
29107,-6.665752,4.833927,-0.458781,0.055151,0.902589,-1.615628,0.082687,0.025173,-0.354084,-0.066572,0.048459,-0.004559,0.999998,0.000413,0.000126,-0.001770,0.198367,0.660136,-0.311528,-0.654080,95.601798,47.728930,-94.240875
29108,-6.788311,5.061213,-0.537924,0.094352,0.779501,-1.364623,0.097579,0.034551,-0.374889,-0.067789,0.050742,-0.005343,0.999998,0.000488,0.000173,-0.001874,0.196897,0.660892,-0.310613,-0.654196,95.697975,47.935350,-94.186227
29109,-6.937183,5.380818,-0.447004,-0.048711,0.628805,-1.044583,0.118292,0.016219,-0.374731,-0.069271,0.053941,-0.004433,0.999998,0.000591,0.000081,-0.001874,0.195329,0.661607,-0.309783,-0.654337,95.795416,48.142683,-94.146184
29110,-7.026784,5.860423,-0.383626,-0.192492,0.315320,-0.662232,0.119220,-0.002723,-0.370335,-0.070159,0.058736,-0.003802,0.999998,0.000596,-0.000014,-0.001852,0.193743,0.662251,-0.308988,-0.654533,95.881266,48.348592,-94.122319
29111,-7.085427,6.238152,-0.359896,-0.282534,0.047710,-0.369959,0.100384,-0.013124,-0.372944,-0.070738,0.062515,-0.003572,0.999998,0.000502,-0.000066,-0.001865,0.192193,0.662845,-0.308132,-0.654792,95.950584,48.556560,-94.106400
29112,-7.219112,6.588153,-0.242133,-0.458664,-0.138572,-0.048044,0.129428,-0.007366,-0.383587,-0.072064,0.066021,-0.002381,0.999998,0.000647,-0.000037,-0.001918,0.190522,0.663499,-0.307329,-0.654996,96.041069,48.770264,-94.084294
29113,-7.443204,7.053164,-0.408875,-0.369865,-0.396072,0.435326,0.094917,0.004454,-0.387996,-0.074295,0.070678,-0.004054,0.999998,0.000475,0.000022,-0.001940,0.188967,0.664163,-0.306386,-0.655215,96.120639,48.985710,-94.050713
29114,-7.628184,7.662860,-0.789275,-0.095006,-0.822170,0.996865,0.075438,0.001042,-0.377548,-0.076137,0.076775,-0.007863,0.999998,0.000377,0.000005,-0.001888,0.187505,0.664779,-0.305415,-0.655463,96.186189,49.195409,-94.020793
29115,-7.676189,8.757726,-1.004790,-0.070340,-1.672960,1.755691,0.181109,-0.030558,-0.301555,-0.076628,0.087702,-0.009980,0.999998,0.000906,-0.000153,-0.001508,0.185893,0.665273,-0.305073,-0.655581,96.286765,49.363740,-94.024859
29116,-7.718156,10.948683,-1.374304,-0.080927,-3.355750,3.228195,0.237540,-0.030748,-0.100714,-0.077124,0.109542,-0.013625,0.999999,0.001188,-0.000154,-0.000504,0.184750,0.665510,-0.305583,-0.655426,96.404684,49.417676,-94.048465
29117,-8.428547,12.727863,-0.404696,-1.318007,-4.060110,4.849541,0.226221,-0.072052,0.187726,-0.084403,0.127204,-0.003933,0.999999,0.001131,-0.000360,0.000939,0.184527,0.665160,-0.307053,-0.655157,96.467637,49.310109,-94.136164
29118,-8.358162,12.528346,3.056428,-4.715357,-3.360077,4.422300,0.434305,-0.283810,0.390188,-0.083869,0.125053,0.030717,0.999995,0.002172,-0.001419,0.001951,0.183950,0.663991,-0.310072,-0.655082,96.494817,49.100801,-94.428576
29119,-6.483264,10.656893,2.866379,-4.294565,-3.176296,1.818558,-0.233586,-0.119048,0.302954,-0.065011,0.106504,0.028501,0.999998,-0.001168,-0.000595,0.001515,0.185557,0.662880,-0.310460,-0.655571,96.256023,48.930551,-94.567468
29120,-6.338295,6.850285,-2.519773,1.685470,-1.299394,-0.382941,-1.104396,0.446571,0.071475,-0.063464,0.068340,-0.025434,0.999982,-0.005522,0.002233,0.000357,0.190169,0.663158,-0.306696,-0.655740,95.904477,48.857000,-94.193702
29121,-8.203667,4.500272,-4.082715,3.709252,1.454915,-0.413444,-0.374295,0.353770,0.024798,-0.082114,0.044916,-0.040766,0.999997,-0.001871,0.001769,0.000124,0.192058,0.663887,-0.305252,-0.655125,95.914283,48.816648,-93.895667
29122,-8.556728,5.410217,-0.988580,0.522093,1.479780,0.237337,0.295050,-0.049148,0.099440,-0.085592,0.054074,-0.009827,0.999999,0.001475,-0.000246,0.000497,0.191356,0.663819,-0.306635,-0.654754,96.039395,48.757205,-93.953642
29123,-7.522075,6.070008,0.615343,-1.207038,0.563539,-0.219425,-0.046756,-0.141138,0.219299,-0.075292,0.060619,0.006086,0.999999,-0.000234,-0.000706,0.001096,0.192037,0.662940,-0.307383,-0.655094,95.901540,48.635303,-94.101341
29124,-6.873856,5.677123,-0.210727,-0.339163,0.325321,-0.907461,-0.375768,-0.024647,0.285030,-0.068819,0.056669,-0.002222,0.999997,-0.001879,-0.000123,0.001425,0.194204,0.662021,-0.307159,-0.655489,95.646582,48.468561,-94.153800
29125,-6.643681,5.279871,-1.235040,0.739487,0.340363,-1.275819,-0.112903,0.018488,0.281757,-0.066512,0.052698,-0.012374,0.999999,-0.000565,0.000092,0.001409,0.195554,0.661503,-0.307742,-0.655337,95.571433,48.301492,-94.167645
29126,-6.535240,5.470449,-1.048234,0.521589,0.178890,-1.243564,0.200610,0.007547,0.247967,-0.065421,0.054634,-0.010425,0.999999,0.001003,0.000038,0.001240,0.195741,0.661304,-0.309251,-0.654772,95.670552,48.153995,-94.188432
29127,-6.855375,5.544679,-0.534663,0.011081,0.433435,-0.990133,0.151431,0.037479,0.206844,-0.068612,0.055380,-0.005292,0.999999,0.000757,0.000187,0.001034,0.195999,0.661219,-0.310432,-0.654221,95.763437,48.028569,-94.180058
29128,-7.292112,5.337212,-0.452190,-0.020302,0.906407,-0.810287,-0.028948,0.046421,0.165445,-0.072966,0.053311,-0.004513,1.000000,-0.000145,0.000232,0.000827,0.196735,0.661048,-0.310878,-0.653962,95.760637,47.925935,-94.161080
29129,-7.372908,4.949120,-0.553882,0.147544,1.242184,-1.003854,-0.134110,0.029699,0.120472,-0.073760,0.049443,-0.005561,1.000000,-0.000671,0.000148,0.000602,0.197642,0.660790,-0.310847,-0.653963,95.690408,47.850193,-94.152019
29130,-7.377697,4.605748,-0.694646,0.343210,1.484259,-1.221701,-0.029303,0.018859,0.070349,-0.073794,0.046031,-0.006946,1.000000,-0.000147,0.000094,0.000352,0.198024,0.660676,-0.311004,-0.653889,95.676101,47.803412,-94.148245
29131,-7.470924,4.597834,-1.249969,0.896790,1.476671,-1.121749,0.018197,0.029540,0.015040,-0.074715,0.045974,-0.012484,1.000000,0.000091,0.000148,0.000075,0.198083,0.660732,-0.311122,-0.653758,95.699673,47.787794,-94.130349
29132,-7.654678,4.632791,-1.353142,0.997772,1.559472,-0.954903,0.167382,-0.014037,-0.027421,-0.076539,0.046350,-0.013498,1.000000,0.000837,-0.000070,-0.000137,0.197444,0.660857,-0.311631,-0.653582,95.783542,47.798699,-94.146202
29133,-7.660748,5.038452,-0.626658,0.210585,1.369964,-0.727282,0.256581,-0.054689,-0.084520,-0.076584,0.050425,-0.006223,0.999999,0.001283,-0.000273,-0.000423,0.196259,0.661027,-0.312282,-0.653456,95.897083,47.844707,-94.191216
29134,-7.589037,5.205745,-0.259903,-0.188267,1.243492,-0.692431,0.111527,-0.033296,-0.184432,-0.075842,0.052129,-0.002583,0.999999,0.000558,-0.000166,-0.000922,0.195261,0.661279,-0.312108,-0.653584,95.947118,47.946331,-94.209501
29135,-7.463495,5.110383,-0.334127,-0.109743,1.197606,-0.841341,-0.028662,-0.005392,-0.292101,-0.074560,0.051212,-0.003351,0.999999,-0.000143,-0.000027,-0.001461,0.194417,0.661653,-0.311091,-0.653942,95.942002,48.107764,-94.194144
29136,-7.425092,4.973571,-0.596638,0.167208,1.203461,-0.938680,-0.072334,0.005014,-0.388444,-0.074154,0.049878,-0.005983,0.999998,-0.000362,0.000025,-0.001942,0.193418,0.662165,-0.309602,-0.654426,95.924494,48.323450,-94.161641
29137,-7.383717,4.774201,-0.708319,0.303658,1.270340,-1.088704,-0.000598,-0.015641,-0.439780,-0.073731,0.047904,-0.007089,0.999998,-0.000003,-0.000078,-0.002199,0.191981,0.662757,-0.308197,-0.654913,95.938863,48.569653,-94.141835
29138,-7.305880,4.933977,-0.676894,0.239314,1.067257,-1.038764,0.047517,-0.048368,-0.467658,-0.072942,0.049512,-0.006775,0.999997,0.000238,-0.000242,-0.002338,0.190241,0.663327,-0.306886,-0.655459,95.961247,48.833699,-94.147919
29139,-7.079591,5.117846,-0.586625,0.106496,0.755706,-1.090617,0.070295,-0.090172,-0.472754,-0.070672,0.051348,-0.005880,0.999997,0.000351,-0.000451,-0.002364,0.188344,0.663786,-0.305672,-0.656109,95.970129,49.103123,-94.189389
29140,-6.807124,5.559387,-0.323701,-0.240229,0.248852,-1.024700,0.107194,-0.093021,-0.474863,-0.067937,0.055757,-0.003239,0.999997,0.000536,-0.000465,-0.002374,0.186313,0.664270,-0.304571,-0.656711,95.997796,49.373996,-94.233567
29141,-6.681898,6.362915,-0.684616,-0.024419,-0.527328,-0.575571,0.042510,-0.046044,-0.457592,-0.066672,0.063783,-0.006848,0.999997,0.000213,-0.000230,-0.002288,0.184623,0.664818,-0.303271,-0.657235,96.018776,49.632155,-94.237862
29142,-6.858652,8.228254,-2.264014,1.235900,-2.088950,0.863442,0.003820,0.014068,-0.358845,-0.068440,0.082406,-0.022634,0.999998,0.000019,0.000070,-0.001794,0.183476,0.665374,-0.302115,-0.657525,96.050669,49.830481,-94.198594
29143,-7.557262,11.585680,-3.299026,1.729846,-4.336351,3.619638,0.252603,0.043276,-0.030608,-0.075562,0.115910,-0.032828,0.999999,0.001263,0.000216,-0.000153,0.182625,0.665759,-0.302842,-0.657038,96.221972,49.839932,-94.163677
29144,-9.021242,13.744133,0.648484,-2.495169,-4.358254,5.855216,0.690922,-0.148040,0.468991,-0.090539,0.137206,0.006892,0.999991,0.003455,-0.000740,0.002345,0.181666,0.665151,-0.306844,-0.656063,96.478191,49.576842,-94.346437
29145,-7.476796,13.406738,6.583415,-8.421503,-4.012732,4.042189,1.022591,-0.594923,0.637072,-0.075391,0.133490,0.066294,0.999977,0.005113,-0.002975,0.003185,0.179462,0.663101,-0.312888,-0.655890,96.615411,49.247762,-94.937120
29146,-4.599093,10.224096,2.485498,-3.981748,-4.143166,0.129185,-0.763322,0.093195,0.294712,-0.046130,0.102267,0.024486,0.999992,-0.003817,0.000466,0.001474,0.183130,0.662217,-0.311314,-0.656518,96.212248,49.068376,-94.891410
29147,-6.582239,3.813800,-6.276831,5.891781,0.480157,-1.918057,-1.381112,0.858379,-0.120022,-0.066069,0.037744,-0.062747,0.999967,-0.006905,0.004292,-0.000600,0.188664,0.663900,-0.305625,-0.655924,95.988655,49.079150,-94.139858
29148,-9.735833,2.855957,-4.640901,4.566235,3.537435,-0.267177,0.421265,0.230851,-0.103951,-0.097397,0.028708,-0.046236,0.999997,0.002106,0.001154,-0.000520,0.187304,0.665173,-0.306482,-0.654623,96.383867,49.118416,-93.935846
29149,-9.288176,5.397696,0.655546,-1.110745,2.162609,0.671798,0.749192,-0.323168,-0.004273,-0.092891,0.053954,0.006608,0.999992,0.003746,-0.001616,-0.000021,0.184326,0.664783,-0.309259,-0.654559,96.596071,49.136468,-94.222742
29150,-7.453256,6.066278,1.526865,-2.158347,0.614857,-0.344558,-0.244695,-0.222403,0.088721,-0.074576,0.060648,0.015112,0.999999,-0.001223,-0.001112,0.000444,0.185111,0.663654,-0.308996,-0.655606,96.297797,49.094705,-94.431433
29151,-6.700591,5.072863,-0.651242,0.146920,0.517155,-1.400384,-0.605436,0.004184,0.095259,-0.067030,0.050677,-0.006664,0.999995,-0.003027,0.000021,0.000476,0.187462,0.662922,-0.307360,-0.656447,95.942216,49.034845,-94.442790
29152,-6.310622,4.877147,-1.735509,1.245871,0.244673,-1.749782,-0.072538,0.003120,0.037075,-0.063116,0.048753,-0.017372,1.000000,-0.000363,0.000016,0.000185,0.187856,0.662769,-0.307281,-0.656525,95.894922,49.007972,-94.449952
29153,-6.065659,5.495907,-0.902769,0.310799,-0.243662,-1.587346,0.194599,-0.023310,-0.021507,-0.060650,0.054974,-0.008981,1.000000,0.000973,-0.000117,-0.000108,0.187129,0.662873,-0.307908,-0.656334,95.987897,49.016262,-94.474343
29154,-6.660189,5.415702,-0.208814,-0.334254,0.310109,-1.238094,-0.072171,0.058177,-0.062270,-0.066586,0.054177,-0.002088,1.000000,-0.000361,0.000291,-0.000311,0.187279,0.663055,-0.307449,-0.656323,95.983833,49.042701,-94.424549
29155,-7.462821,4.880811,-0.357392,-0.055358,1.201308,-0.969751,-0.352366,0.073500,-0.101419,-0.074605,0.048840,-0.003633,0.999998,-0.001762,0.000367,-0.000507,0.188252,0.663086,-0.305926,-0.656725,95.832432,49.090815,-94.357570
29156,-7.675562,4.476071,-0.690031,0.359844,1.579666,-1.049084,-0.363903,0.014661,-0.141502,-0.076724,0.044802,-0.006976,0.999998,-0.001820,0.000073,-0.000708,0.189041,0.662969,-0.304286,-0.657377,95.637745,49.165094,-94.338918
29157,-7.503146,4.513252,-1.063274,0.723932,1.371190,-1.129777,-0.148590,-0.014972,-0.166687,-0.074993,0.045187,-0.010672,0.999999,-0.000743,-0.000075,-0.000833,0.188988,0.662998,-0.303297,-0.657821,95.548807,49.255608,-94.343795
29158,-7.476947,4.961575,-1.554774,1.141507,0.933762,-0.825790,0.044749,-0.037951,-0.152708,-0.074729,0.049676,-0.015551,1.000000,0.000224,-0.000190,-0.000764,0.188305,0.663110,-0.303012,-0.658035,95.553956,49.339316,-94.370422
29159,-7.621940,5.678172,-1.493661,0.972066,0.490088,-0.253320,0.300494,-0.102631,-0.103709,-0.076182,0.056844,-0.014890,0.999999,0.001502,-0.000513,-0.000519,0.186837,0.663176,-0.303791,-0.658028,95.659964,49.398826,-94.457455
29160,-7.630997,6.952161,-1.098699,0.366623,-0.402456,0.554346,0.436669,-0.120732,-0.048079,-0.076287,0.069564,-0.010881,0.999997,0.002183,-0.000604,-0.000240,0.185072,0.663222,-0.305219,-0.657820,95.827896,49.427720,-94.565426
29161,-7.599932,8.317071,-0.852207,-0.120873,-1.402688,1.397875,0.357912,-0.074946,0.002169,-0.075997,0.083185,-0.008402,0.999998,0.001790,-0.000375,0.000011,0.183802,0.663267,-0.306510,-0.657530,95.978168,49.425549,-94.637421
29162,-7.616562,9.398408,-0.292766,-0.871644,-2.100091,2.072497,0.284738,-0.043638,0.078026,-0.076202,0.093958,-0.002811,0.999999,0.001424,-0.000218,0.000390,0.183072,0.663228,-0.307783,-0.657178,96.101627,49.378265,-94.689393
29163,-7.598537,9.755248,0.757643,-1.983526,-2.190009,2.218359,0.204151,-0.044698,0.133616,-0.076052,0.097494,0.007659,0.999999,0.001021,-0.000223,0.000668,0.182790,0.663026,-0.308976,-0.656900,96.174646,49.299552,-94.747186
29164,-7.289630,8.870968,0.492725,-1.594869,-1.759359,1.431715,0.001265,0.007582,0.127202,-0.072953,0.088663,0.004931,1.000000,0.000006,0.000038,0.000636,0.183241,0.662819,-0.309433,-0.656769,96.166065,49.221086,-94.759047
29165,-7.129461,7.433669,-0.816988,-0.064485,-0.999807,0.470907,-0.216337,0.099124,0.080123,-0.071328,0.074299,-0.008215,0.999999,-0.001082,0.000496,0.000401,0.184399,0.662786,-0.308935,-0.656712,96.097083,49.164039,-94.686274
29166,-7.293078,6.389159,-1.488627,0.788404,-0.218406,-0.037359,-0.163581,0.098723,0.056539,-0.072956,0.063859,-0.014903,1.000000,-0.000818,0.000494,0.000283,0.185306,0.662834,-0.308533,-0.656597,96.059163,49.120214,-94.612108
29167,-7.243134,6.495510,-0.807099,0.101255,-0.212235,-0.053039,-0.061008,0.035454,0.083689,-0.072460,0.064922,-0.008078,1.000000,-0.000305,0.000177,0.000418,0.185861,0.662729,-0.308615,-0.656507,96.036964,49.065049,-94.595082
29168,-6.964188,6.974975,-0.160203,-0.622064,-0.635629,0.004891,-0.157452,0.026508,0.134924,-0.069689,0.069701,-0.001648,0.999999,-0.000787,0.000133,0.000675,0.186894,0.662424,-0.308560,-0.656549,95.949664,48.980959,-94.590794
29169,-6.614097,7.104745,-0.321108,-0.485170,-0.971589,-0.161399,-0.381501,0.089551,0.182163,-0.066207,0.070981,-0.003317,0.999998,-0.001908,0.000448,0.000911,0.188917,0.662044,-0.307864,-0.656679,95.772730,48.866540,-94.535395
29170,-6.362423,7.136750,-0.832421,0.025187,-1.219408,-0.293293,-0.401955,0.128724,0.237994,-0.063714,0.071275,-0.008427,0.999997,-0.002010,0.000644,0.001190,0.191253,0.661681,-0.307249,-0.656657,95.605642,48.717852,-94.450984
29171,-6.454886,7.368052,-0.925971,0.109008,-1.316457,-0.062502,-0.333687,0.133912,0.301750,-0.064666,0.073567,-0.009339,0.999997,-0.001668,0.000670,0.001509,0.193578,0.661301,-0.307061,-0.656447,95.477600,48.532984,-94.366686
29172,-6.669345,7.536496,-0.741885,-0.065581,-1.237355,0.201993,-0.319041,0.108283,0.379435,-0.066840,0.075226,-0.007503,0.999997,-0.001595,0.000541,0.001897,0.196071,0.660725,-0.307203,-0.656221,95.336294,48.304938,-94.310808
29173,-6.924240,7.589998,-0.633603,-0.143953,-1.049846,0.426039,-0.316007,0.089345,0.452347,-0.069417,0.075733,-0.006425,0.999996,-0.001580,0.000447,0.002262,0.198760,0.659975,-0.307610,-0.655975,95.181152,48.036766,-94.275877
29174,-7.027428,7.538312,-0.780158,0.038507,-0.914491,0.482044,-0.302900,0.079382,0.511443,-0.070470,0.075191,-0.007888,0.999996,-0.001514,0.000397,0.002557,0.201585,0.659107,-0.308264,-0.655679,95.023955,47.735022,-94.253432
29175,-7.131411,7.552229,-1.081911,0.361386,-0.840335,0.590515,-0.188186,0.073159,0.568070,-0.071532,0.075309,-0.010864,0.999995,-0.000941,0.000366,0.002840,0.204204,0.658243,-0.309482,-0.655162,94.926559,47.401718,-94.239155
29176,-7.247452,7.905976,-1.289863,0.537019,-0.982810,0.931570,-0.050025,0.053827,0.624586,-0.072724,0.078830,-0.012899,0.999995,-0.000250,0.000269,0.003123,0.206523,0.657360,-0.311359,-0.654432,94.893169,47.036619,-94.245319
29177,-7.333387,8.284443,-0.989899,0.199729,-1.083252,1.240667,0.041628,0.020372,0.703304,-0.073626,0.082588,-0.009874,0.999994,0.000208,0.000102,0.003517,0.208742,0.656335,-0.313822,-0.653580,94.888532,46.628707,-94.284225
29178,-7.219533,8.647956,-0.540083,-0.296774,-1.278176,1.389013,0.084863,0.009236,0.754623,-0.072521,0.086209,-0.005361,0.999993,0.000424,0.000046,0.003773,0.210970,0.655227,-0.316605,-0.652634,94.899349,46.191506,-94.336072
29179,-7.170225,8.778171,-0.569380,-0.280675,-1.321181,1.455304,-0.047847,0.058643,0.789555,-0.072050,0.087496,-0.005694,0.999992,-0.000239,0.000293,0.003948,0.213818,0.654077,-0.319010,-0.651688,94.862616,45.732484,-94.348880
29180,-7.250525,8.520612,-0.763181,-0.035245,-1.019565,1.354762,-0.117843,0.098923,0.809538,-0.072853,0.084907,-0.007646,0.999992,-0.000589,0.000495,0.004048,0.217025,0.652937,-0.321207,-0.650692,94.808246,45.259497,-94.330139
29181,-7.224457,8.526988,-0.703353,-0.082337,-0.941204,1.345431,-0.092106,0.101425,0.842305,-0.072606,0.084961,-0.007036,0.999991,-0.000461,0.000507,0.004212,0.220250,0.651773,-0.323582,-0.649597,94.769109,44.768298,-94.310703
29182,-7.025761,8.485823,-0.615418,-0.157843,-0.945598,1.179554,-0.170723,0.112789,0.877233,-0.070632,0.084544,-0.006187,0.999990,-0.000854,0.000564,0.004386,0.223864,0.650486,-0.325801,-0.648542,94.689541,44.255999,-94.284254
29183,-6.832314,8.467493,-0.498278,-0.260797,-0.956853,1.033638,-0.208124,0.126792,0.930119,-0.068719,0.084351,-0.005027,0.999988,-0.001041,0.000634,0.004651,0.227784,0.649106,-0.328044,-0.647429,94.594708,43.713511,-94.248939
29184,-6.596076,8.319331,-0.486263,-0.241217,-0.921991,0.772525,-0.280433,0.146377,0.986080,-0.066373,0.082860,-0.004930,0.999987,-0.001402,0.000732,0.004930,0.232151,0.647595,-0.330206,-0.646290,94.466746,43.137581,-94.200863
29185,-6.485012,8.060204,-0.574176,-0.099315,-0.733518,0.521868,-0.320029,0.170554,1.036288,-0.065271,0.080255,-0.005815,0.999985,-0.001600,0.000853,0.005181,0.236837,0.646018,-0.332363,-0.645061,94.327834,42.532633,-94.135318
29186,-6.422129,7.883730,-0.534602,-0.091797,-0.548285,0.354546,-0.333511,0.186378,1.083345,-0.064652,0.078479,-0.005417,0.999984,-0.001668,0.000932,0.005417,0.241742,0.644373,-0.334602,-0.643728,94.187555,41.899574,-94.059183
29187,-6.543397,7.820810,-0.645720,0.059660,-0.317847,0.399675,-0.347876,0.218509,1.106819,-0.065873,0.077833,-0.006521,0.999983,-0.001739,0.001093,0.005534,0.246809,0.642757,-0.336817,-0.642264,94.055081,41.252582,-93.958286
29188,-6.718307,7.756347,-0.907162,0.362304,-0.058974,0.482145,-0.360773,0.227077,1.121376,-0.067627,0.077169,-0.009134,0.999982,-0.001804,0.001135,0.005607,0.251975,0.641101,-0.339018,-0.640753,93.918358,40.596424,-93.850908
29189,-6.876396,7.823138,-0.854952,0.335387,0.143671,0.631586,-0.255447,0.177672,1.158561,-0.069223,0.077820,-0.008588,0.999982,-0.001277,0.000888,0.005793,0.256825,0.639337,-0.341722,-0.639152,93.816768,39.921773,-93.781459
29190,-6.796150,7.882560,-0.687255,0.182453,0.186768,0.614451,-0.265050,0.132127,1.196142,-0.068436,0.078408,-0.006932,0.999981,-0.001325,0.000661,0.005981,0.261743,0.637323,-0.344564,-0.637641,93.686665,39.226775,-93.746758
29191,-6.614902,7.707702,-0.641334,0.168501,0.286226,0.359101,-0.161560,0.114832,1.225490,-0.066623,0.076665,-0.006437,0.999981,-0.000808,0.000574,0.006127,0.266380,0.635317,-0.347837,-0.635943,93.607867,38.516354,-93.724638
29192,-6.479746,7.789195,-0.676380,0.204772,0.252588,0.336653,-0.107371,0.114069,1.231117,-0.065279,0.077487,-0.006768,0.999981,-0.000537,0.000570,0.006156,0.270855,0.633344,-0.351289,-0.634121,93.559531,37.802099,-93.702744
29193,-6.434676,8.023859,-0.685114,0.200645,0.200312,0.491439,-0.065072,0.105434,1.223260,-0.064840,0.079841,-0.006843,0.999981,-0.000325,0.000527,0.006116,0.275142,0.631392,-0.354846,-0.632238,93.532233,37.093317,-93.686139
29194,-6.284046,8.349746,-0.589753,0.080032,0.023415,0.653782,-0.113270,0.094977,1.220720,-0.063351,0.083108,-0.005915,0.999981,-0.000566,0.000475,0.006104,0.279548,0.629319,-0.358246,-0.630453,93.472728,36.385716,-93.676550
29195,-6.054407,8.565247,-0.426080,-0.096675,-0.142699,0.683490,-0.162357,0.098599,1.224158,-0.061069,0.085276,-0.004300,0.999981,-0.000812,0.000493,0.006121,0.284110,0.627161,-0.361480,-0.628715,93.387358,35.676683,-93.663348
29196,-5.740521,8.603760,-0.228439,-0.288982,-0.272054,0.525183,-0.246694,0.118605,1.232112,-0.057935,0.085679,-0.002356,0.999980,-0.001233,0.000593,0.006161,0.288991,0.624903,-0.364435,-0.627031,93.261979,34.961809,-93.635135
29197,-5.618056,8.485086,-0.388894,-0.094736,-0.194108,0.368788,-0.353322,0.164304,1.234599,-0.056706,0.084495,-0.003992,0.999979,-0.001767,0.000822,0.006173,0.294280,0.622608,-0.366978,-0.625369,93.094647,34.244770,-93.573117
29198,-5.708327,8.281888,-0.505284,0.078099,0.107399,0.257615,-0.419587,0.190956,1.224679,-0.057594,0.082456,-0.005171,0.999979,-0.002098,0.000955,0.006123,0.299840,0.620318,-0.369178,-0.623706,92.900045,33.532119,-93.480332
29199,-5.840906,8.165422,-0.491425,0.116482,0.405647,0.229840,-0.433196,0.187793,1.217779,-0.058909,0.081286,-0.005035,0.999979,-0.002166,0.000939,0.006089,0.305342,0.617956,-0.371354,-0.622088,92.697308,32.824403,-93.397043
29200,-5.752220,8.125790,-0.486637,0.145434,0.475100,0.142469,-0.411165,0.175387,1.219335,-0.058020,0.080895,-0.004982,0.999979,-0.002056,0.000877,0.006097,0.310749,0.615556,-0.373608,-0.620438,92.502666,32.115726,-93.320126
29201,-5.551289,8.079207,-0.555793,0.239726,0.446010,-0.007505,-0.351099,0.167226,1.238055,-0.056016,0.080436,-0.005653,0.999979,-0.001755,0.000836,0.006190,0.315997,0.613166,-0.376101,-0.618645,92.339830,31.397374,-93.247086
29202,-5.337896,8.123414,-0.592026,0.291298,0.361019,-0.085561,-0.325891,0.154662,1.255425,-0.053892,0.080887,-0.006011,0.999979,-0.001629,0.000773,0.006277,0.321188,0.610714,-0.378731,-0.616789,92.186677,30.668923,-93.181288
29203,-5.173359,8.175951,-0.510327,0.223837,0.322143,-0.132032,-0.253249,0.152966,1.262358,-0.052252,0.081424,-0.005167,0.999979,-0.001266,0.000765,0.006312,0.326157,0.608338,-0.381591,-0.614764,92.074814,29.937285,-93.115192
29204,-5.168155,8.363042,-0.521251,0.244686,0.347140,0.022980,-0.254513,0.173644,1.239874,-0.052203,0.083301,-0.005273,0.999980,-0.001273,0.000868,0.006199,0.331091,0.606038,-0.384330,-0.612688,91.968737,29.217618,-93.033967
29205,-5.269030,8.432643,-0.806471,0.551002,0.503973,0.135362,-0.266556,0.191805,1.208109,-0.053206,0.083995,-0.008126,0.999980,-0.001333,0.000959,0.006041,0.335981,0.603813,-0.386889,-0.610609,91.861709,28.516521,-92.939080
29206,-5.266367,8.522760,-0.553887,0.313551,0.597526,0.198419,-0.215332,0.168173,1.199218,-0.053178,0.084904,-0.005586,0.999981,-0.001077,0.000841,0.005996,0.340635,0.601592,-0.389604,-0.608493,91.775917,27.820515,-92.858759
29207,-5.063984,8.478365,-0.422530,0.193581,0.568160,0.053601,-0.197300,0.152034,1.199489,-0.051150,0.084474,-0.004270,0.999981,-0.000986,0.000760,0.005997,0.345187,0.599333,-0.392385,-0.606367,91.695344,27.125308,-92.788127
29208,-4.853316,8.401507,-0.518011,0.298486,0.527852,-0.115292,-0.144825,0.153306,1.187782,-0.049035,0.083721,-0.005203,0.999982,-0.000724,0.000767,0.005939,0.349540,0.597165,-0.395275,-0.604130,91.644493,26.436316,-92.716101
29209,-4.780087,8.265480,-0.445682,0.239153,0.641302,-0.278721,-0.074714,0.153315,1.160797,-0.048283,0.082374,-0.004451,0.999983,-0.000374,0.000767,0.005804,0.353585,0.595155,-0.398280,-0.601782,91.633518,25.763355,-92.643491
29210,-4.711960,8.382618,-0.456958,0.246785,0.639838,-0.210168,-0.044201,0.145641,1.130734,-0.047596,0.083557,-0.004554,0.999984,-0.000221,0.000728,0.005654,0.357425,0.593212,-0.401289,-0.599427,91.637014,25.107230,-92.575647
29211,-4.589921,8.457246,-0.387076,0.172178,0.610910,-0.203400,-0.038502,0.135280,1.109118,-0.046370,0.084315,-0.003856,0.999984,-0.000193,0.000676,0.005546,0.361148,0.591276,-0.404255,-0.597112,91.640576,24.464162,-92.514266
29212,-4.390899,8.683758,0.005969,-0.236645,0.466043,-0.096024,0.000069,0.136031,1.090987,-0.044382,0.086596,0.000090,0.999985,0.000000,0.000680,0.005455,0.364696,0.589427,-0.407270,-0.594730,91.665511,23.830971,-92.452650
29213,-4.199030,8.656209,-0.132712,-0.099659,0.399518,-0.199728,-0.112587,0.153830,1.067114,-0.042452,0.086336,-0.001343,0.999985,-0.000563,0.000769,0.005336,0.368527,0.587459,-0.409834,-0.592551,91.630028,23.211645,-92.379642
29214,-4.090902,8.532726,-0.166119,-0.053119,0.447629,-0.359302,-0.178982,0.158092,1.027437,-0.041348,0.085114,-0.001705,0.999986,-0.000895,0.000790,0.005137,0.372437,0.585443,-0.412065,-0.590551,91.556971,22.614581,-92.303072
29215,-4.020507,8.318312,-0.076706,-0.119747,0.563426,-0.591397,-0.229699,0.149668,0.976290,-0.040611,0.082985,-0.000832,0.999987,-0.001148,0.000748,0.004881,0.376313,0.583399,-0.414001,-0.588759,91.452965,22.047508,-92.230134
29216,-3.952892,8.366259,-0.091794,-0.088444,0.569803,-0.577161,-0.297014,0.154962,0.916945,-0.039913,0.083479,-0.001011,0.999988,-0.001485,0.000775,0.004585,0.380216,0.581350,-0.415546,-0.587188,91.311418,21.514065,-92.152101
29217,-3.865234,8.278443,-0.060288,-0.096651,0.604532,-0.696717,-0.301438,0.151333,0.881852,-0.039017,0.082612,-0.000698,0.999989,-0.001507,0.000757,0.004409,0.384009,0.579344,-0.416971,-0.585690,91.166691,21.001386,-92.074604
29218,-3.719789,8.299463,-0.184840,0.047546,0.535513,-0.731802,-0.349126,0.134856,0.862520,-0.037557,0.082830,-0.001968,0.999989,-0.001746,0.000674,0.004313,0.387843,0.577222,-0.418225,-0.584363,90.990709,20.499758,-92.005788
29219,-3.661192,8.138393,-0.205520,0.096366,0.613605,-0.907987,-0.292603,0.114543,0.853812,-0.036960,0.081224,-0.002153,0.999990,-0.001463,0.000573,0.004269,0.391435,0.575159,-0.419647,-0.582981,90.842977,20.003894,-91.947924
29220,-3.633453,8.131727,-0.088758,0.001487,0.668728,-0.930842,-0.279906,0.108207,0.808864,-0.036664,0.081168,-0.000981,0.999991,-0.001400,0.000541,0.004044,0.394841,0.573183,-0.420983,-0.581666,90.701030,19.533592,-91.892472
29221,-3.520454,8.077981,-0.271859,0.202660,0.642975,-1.022557,-0.250812,0.111547,0.753536,-0.035510,0.080643,-0.002800,0.999992,-0.001254,0.000558,0.003768,0.398000,0.571383,-0.422229,-0.580379,90.576706,19.095467,-91.833539
29222,-3.414965,8.193405,-0.085921,0.029292,0.576521,-0.954489,-0.221611,0.107273,0.690003,-0.034433,0.081815,-0.000931,0.999993,-0.001108,0.000536,0.003450,0.400879,0.569751,-0.423382,-0.579161,90.467999,18.693532,-91.776125
29223,-3.330657,8.401803,-0.109709,0.064264,0.488656,-0.787589,-0.235039,0.116109,0.629384,-0.033571,0.083911,-0.001176,0.999994,-0.001175,0.000581,0.003147,0.403631,0.568242,-0.424299,-0.578060,90.353469,18.326745,-91.712343
29224,-3.373443,8.342663,-0.070356,0.046727,0.603776,-0.833929,-0.278209,0.112927,0.574119,-0.033974,0.083328,-0.000800,0.999995,-0.001391,0.000565,0.002871,0.406338,0.566745,-0.424936,-0.577165,90.213281,17.991446,-91.649657
29225,-3.278313,8.123528,-0.039411,0.038226,0.630719,-1.075347,-0.305798,0.094899,0.519516,-0.032994,0.081149,-0.000503,0.999995,-0.001529,0.000474,0.002598,0.408920,0.565252,-0.425371,-0.576484,90.054132,17.687934,-91.596868
29226,-3.019121,8.109342,-0.198875,0.214190,0.427302,-1.170499,-0.305749,0.095216,0.472502,-0.030384,0.081019,-0.002098,0.999996,-0.001529,0.000476,0.002363,0.411366,0.563853,-0.425669,-0.575894,89.894820,17.411207,-91.543173
29227,-2.818271,8.127317,0.273687,-0.240377,0.282086,-1.214238,-0.296827,0.082359,0.433747,-0.028358,0.081216,0.002628,0.999996,-0.001484,0.000412,0.002169,0.413642,0.562515,-0.425906,-0.575396,89.738513,17.157097,-91.496478
29228,-2.831536,7.986419,0.001310,0.057176,0.364146,-1.347200,-0.357971,0.125883,0.373993,-0.028465,0.079811,-0.000112,0.999996,-0.001790,0.000629,0.001870,0.416010,0.561298,-0.425707,-0.575025,89.554553,16.937235,-91.423261
29229,-2.976068,7.798542,-0.229285,0.315588,0.582719,-1.488773,-0.329278,0.112520,0.346988,-0.029897,0.077930,-0.002404,0.999997,-0.001646,0.000563,0.001735,0.418187,0.560157,-0.425538,-0.574683,89.384825,16.733266,-91.357497
29230,-2.906842,7.850703,0.278305,-0.173199,0.541675,-1.455821,-0.235592,0.082713,0.356285,-0.029207,0.078458,0.002703,0.999998,-0.001178,0.000414,0.001781,0.420064,0.559102,-0.425726,-0.574203,89.263380,16.523678,-91.309088
29231,-2.749056,7.697175,0.106203,0.008551,0.459974,-1.651599,-0.167394,0.079825,0.341639,-0.027622,0.076926,0.001009,0.999998,-0.000837,0.000399,0.001708,0.421699,0.558212,-0.426072,-0.573613,89.180639,16.322793,-91.262118
29232,-2.777736,7.898139,0.208340,-0.083631,0.460152,-1.450808,-0.070067,0.079552,0.307487,-0.027898,0.078939,0.002067,0.999999,-0.000350,0.000398,0.001537,0.422963,0.557596,-0.426601,-0.572888,89.153201,16.141286,-91.215520
29233,-2.816185,8.224717,0.339271,-0.208944,0.432551,-1.125848,-0.019147,0.079915,0.245673,-0.028261,0.082213,0.003396,0.999999,-0.000096,0.000400,0.001228,0.423907,0.557221,-0.427102,-0.572181,89.154945,15.995434,-91.169179
29234,-2.856934,8.733658,0.328590,-0.193535,0.351619,-0.626518,-0.000722,0.066223,0.197664,-0.028655,0.087308,0.003295,0.999999,-0.000004,0.000331,0.000988,0.424634,0.556946,-0.427550,-0.571575,89.164546,15.876758,-91.131531
29235,-2.813856,9.107830,0.567785,-0.429590,0.228720,-0.275609,-0.039233,0.060612,0.157203,-0.028208,0.091057,0.005669,1.000000,-0.000196,0.000303,0.000786,0.425338,0.556661,-0.427786,-0.571152,89.151232,15.781425,-91.097523
29236,-2.787910,9.165735,0.359206,-0.213940,0.198224,-0.230042,-0.144328,0.067221,0.111883,-0.027929,0.091644,0.003535,1.000000,-0.000722,0.000336,0.000559,0.426221,0.556266,-0.427583,-0.571032,89.078382,15.711944,-91.060015
29237,-2.717971,9.086979,0.301271,-0.143809,0.160759,-0.325603,-0.198834,0.051965,0.074466,-0.027213,0.090863,0.002929,0.999999,-0.000994,0.000260,0.000372,0.427114,0.555792,-0.427151,-0.571149,88.971980,15.664000,-91.031784
29238,-2.546614,9.110209,0.896894,-0.725735,0.003303,-0.338573,-0.182016,0.055800,0.047628,-0.025485,0.091104,0.008893,1.000000,-0.000910,0.000279,0.000238,0.427893,0.555420,-0.426684,-0.571277,88.875501,15.631335,-91.001571
29239,-2.510555,8.883429,0.093630,0.094968,0.022544,-0.581362,-0.334697,0.082118,0.003021,-0.025107,0.088835,0.000798,0.999999,-0.001673,0.000411,0.000015,0.429022,0.554892,-0.425600,-0.571751,88.695870,15.624797,-90.956106
29240,-2.639774,8.483626,-0.010510,0.217412,0.254011,-0.934140,-0.247977,0.076144,-0.009549,-0.026394,0.084837,-0.000200,0.999999,-0.001240,0.000381,-0.000048,0.429863,0.554557,-0.424741,-0.572084,88.564658,15.625312,-90.914441
29241,-2.637982,8.287636,0.428253,-0.209859,0.308990,-1.112818,-0.154063,0.048045,-0.007309,-0.026376,0.082881,0.004225,1.000000,-0.000770,0.000240,-0.000037,0.430387,0.554340,-0.424217,-0.572289,88.483027,15.624388,-90.889369
29242,-2.564311,7.818368,-0.059485,0.273663,0.360186,-1.596759,-0.058115,0.055729,-0.016140,-0.025637,0.078186,-0.000610,1.000000,-0.000291,0.000279,-0.000081,0.430639,0.554368,-0.423926,-0.572288,88.457301,15.628492,-90.859954
29243,-2.659009,7.771275,-0.133333,0.343011,0.462265,-1.618210,0.149907,0.049705,-0.035433,-0.026577,0.077718,-0.001268,1.000000,0.000750,0.000249,-0.000177,0.430243,0.554869,-0.424189,-0.571904,88.549986,15.643710,-90.834330
29244,-2.734290,8.320829,0.238961,-0.035240,0.386625,-1.059467,0.292162,0.031650,-0.051871,-0.027321,0.083212,0.002515,0.999999,0.001461,0.000158,-0.000259,0.429369,0.555657,-0.424852,-0.571304,88.720985,15.667889,-90.819724
29245,-2.739202,8.549688,0.384569,-0.204824,0.327342,-0.834987,0.362784,0.025421,-0.053833,-0.027369,0.085497,0.004004,0.999998,0.001814,0.000127,-0.000269,0.428277,0.556583,-0.425724,-0.570573,88.931719,15.693223,-90.808680
29246,-2.776746,8.970589,0.168563,-0.013457,0.243541,-0.423832,0.339692,0.030521,-0.065174,-0.027738,0.089712,0.001842,0.999998,0.001698,0.000153,-0.000326,0.427228,0.557495,-0.426485,-0.569900,89.129790,15.724930,-90.794705
29247,-2.889143,9.139608,0.510822,-0.383910,0.304205,-0.226212,0.346441,0.021388,-0.072252,-0.028858,0.091397,0.005270,0.999998,0.001732,0.000107,-0.000361,0.426118,0.558411,-0.427265,-0.569250,89.330531,15.760709,-90.786019
29248,-2.847773,9.294494,0.664465,-0.566787,0.218301,-0.087978,0.300632,-0.001294,-0.081279,-0.028440,0.092946,0.006784,0.999999,0.001503,-0.000006,-0.000406,0.425062,0.559180,-0.427936,-0.568781,89.501113,15.801378,-90.790862
29249,-2.699023,9.516260,0.504039,-0.434620,0.006218,0.082210,0.282492,0.004955,-0.092169,-0.026946,0.095168,0.005175,0.999999,0.001412,0.000025,-0.000461,0.424036,0.559952,-0.428510,-0.568354,89.662597,15.848448,-90.791817
29250,-2.721803,10.059251,0.584905,-0.538157,-0.127704,0.610023,0.211021,0.009106,-0.107614,-0.027164,0.100601,0.005956,0.999999,0.001055,0.000046,-0.000538,0.423176,0.560615,-0.428829,-0.568101,89.783543,15.904263,-90.790324
29251,-2.768277,10.370923,0.744114,-0.711058,-0.177516,0.922114,0.065538,0.015951,-0.128975,-0.027615,0.103725,0.007477,1.000000,0.000328,0.000080,-0.000645,0.422677,0.561036,-0.428660,-0.568184,89.822550,15.972446,-90.784615
29252,-2.736148,10.410141,0.535650,-0.501472,-0.237056,0.950061,-0.106231,0.026919,-0.171812,-0.027271,0.104128,0.005305,0.999999,-0.000531,0.000135,-0.000859,0.422562,0.561216,-0.427859,-0.568696,89.764612,16.065073,-90.772580
29253,-2.843669,10.254070,0.193341,-0.139532,-0.114630,0.828604,-0.266977,0.032767,-0.211317,-0.028328,0.102573,0.001801,0.999999,-0.001335,0.000164,-0.001057,0.422796,0.561157,-0.426477,-0.569617,89.615793,16.180496,-90.757241
29254,-2.889080,9.843025,0.358259,-0.276685,0.023168,0.448066,-0.314546,0.019816,-0.224014,-0.028780,0.098468,0.003431,0.999998,-0.001573,0.000099,-0.001120,0.423100,0.560985,-0.424950,-0.570702,89.437152,16.303043,-90.750145
29255,-2.830910,9.207981,-0.003749,0.111295,0.119755,-0.180755,-0.339504,0.010611,-0.232962,-0.028202,0.092112,-0.000192,0.999998,-0.001698,0.000053,-0.001165,0.423426,0.560752,-0.423344,-0.571881,89.242870,16.430810,-90.748901
29256,-2.757031,8.905465,-0.146108,0.276122,0.112228,-0.493838,-0.245593,0.012165,-0.225831,-0.027470,0.089084,-0.001569,0.999999,-0.001228,0.000061,-0.001129,0.423512,0.560703,-0.422022,-0.572841,89.102239,16.554379,-90.747176
29257,-2.767061,8.868804,0.088232,0.058495,0.114685,-0.522721,-0.141755,0.005538,-0.213281,-0.027576,0.088718,0.000820,0.999999,-0.000709,0.000028,-0.001066,0.423326,0.560830,-0.421046,-0.573572,89.020266,16.670827,-90.749419
29258,-2.687820,9.000858,-0.050135,0.208531,-0.018276,-0.421283,-0.105136,0.007790,-0.190973,-0.026792,0.090034,-0.000548,0.999999,-0.000526,0.000039,-0.000955,0.423108,0.560991,-0.420232,-0.574173,88.959362,16.774393,-90.750352
29259,-2.653601,9.107488,0.044645,0.121862,-0.096973,-0.327665,-0.054491,0.012721,-0.164534,-0.026461,0.091097,0.000423,1.000000,-0.000272,0.000064,-0.000823,0.422832,0.561219,-0.419627,-0.574595,88.928707,16.862987,-90.748010
29260,-2.725385,9.159770,0.050055,0.121209,-0.056704,-0.256867,-0.017582,0.011733,-0.134425,-0.027192,0.091616,0.000494,1.000000,-0.000088,0.000059,-0.000672,0.422538,0.561457,-0.419214,-0.574880,88.918808,16.934199,-90.746069
29261,-2.804808,9.092460,0.141253,0.028741,0.028695,-0.296487,0.043269,0.002659,-0.114032,-0.027996,0.090940,0.001433,1.000000,0.000216,0.000013,-0.000570,0.422111,0.561756,-0.419053,-0.575019,88.942572,16.993756,-90.749209
29262,-2.829166,9.166147,0.227730,-0.063643,0.021636,-0.217389,0.118536,0.002025,-0.106830,-0.028243,0.091675,0.002332,1.000000,0.000593,0.000010,-0.000534,0.421493,0.562195,-0.419129,-0.574987,89.009076,17.049058,-90.752718
29263,-2.950930,9.459908,0.253021,-0.097042,0.042709,0.099456,0.174819,-0.002240,-0.109456,-0.029458,0.094613,0.002613,0.999999,0.000874,-0.000011,-0.000547,0.420699,0.562748,-0.419369,-0.574854,89.107397,17.105953,-90.758612
29264,-3.017358,9.884034,0.346811,-0.202957,-0.028055,0.525438,0.202527,-0.010497,-0.119881,-0.030115,0.098855,0.003567,0.999999,0.001013,-0.000052,-0.000599,0.419781,0.563354,-0.419675,-0.574708,89.219825,17.168640,-90.769556
29265,-2.988843,10.199847,0.346766,-0.217858,-0.160194,0.818265,0.158494,-0.015085,-0.129550,-0.029823,0.102015,0.003546,0.999999,0.000792,-0.000075,-0.000648,0.418947,0.563877,-0.419837,-0.574685,89.306518,17.236972,-90.783100
29266,-2.922712,10.352027,0.409545,-0.292617,-0.281099,0.944160,0.092307,-0.011784,-0.145109,-0.029152,0.103540,0.004142,1.000000,0.000462,-0.000059,-0.000726,0.418263,0.564300,-0.419758,-0.574826,89.355534,17.314130,-90.794812
29267,-2.905229,10.322160,0.598658,-0.485336,-0.302060,0.912000,-0.024443,-0.009029,-0.159838,-0.028970,0.103246,0.005973,1.000000,-0.000122,-0.000045,-0.000799,0.417870,0.564520,-0.419295,-0.575233,89.338428,17.399873,-90.804835
29268,-2.848957,10.007173,0.364443,-0.245539,-0.280364,0.591828,-0.146583,0.009021,-0.168105,-0.028405,0.100098,0.003572,0.999999,-0.000733,0.000045,-0.000841,0.417838,0.564551,-0.418420,-0.575864,89.254197,17.490333,-90.804290
29269,-2.847366,9.696762,0.159243,-0.024606,-0.206026,0.292605,-0.233142,0.002329,-0.146029,-0.028403,0.096990,0.001480,0.999999,-0.001166,0.000012,-0.000730,0.418097,0.564337,-0.417371,-0.576646,89.119498,17.568230,-90.807631
29270,-2.782905,9.041577,0.496695,-0.349361,-0.078205,-0.346264,-0.204960,-0.008586,-0.106984,-0.027781,0.090436,0.004873,0.999999,-0.001025,-0.000043,-0.000535,0.418367,0.564066,-0.416536,-0.577318,88.998681,17.623500,-90.817460
29271,-2.755541,8.860224,0.041955,0.119162,-0.061549,-0.534739,-0.161274,0.001747,-0.080707,-0.027520,0.088614,0.000348,1.000000,-0.000806,0.000009,-0.000404,0.418610,0.563863,-0.415879,-0.577814,88.905163,17.663957,-90.820770
29272,-2.926293,9.174073,-0.120170,0.295544,-0.000421,-0.186998,0.003458,-0.011727,-0.041799,-0.029244,0.091747,-0.001202,1.000000,0.000017,-0.000059,-0.000209,0.418474,0.563882,-0.415836,-0.577925,88.903349,17.681824,-90.831901
29273,-3.046202,9.698077,0.262515,-0.080034,-0.043581,0.355530,0.061256,-0.028335,-0.009546,-0.030458,0.096981,0.002651,1.000000,0.000306,-0.000142,-0.000048,0.418231,0.563910,-0.416085,-0.577894,88.932074,17.681189,-90.852515
29274,-2.971914,9.823003,0.204608,-0.027547,-0.152148,0.450919,0.083100,-0.016004,-0.000548,-0.029719,0.098229,0.002085,1.000000,0.000416,-0.000080,-0.000003,0.417981,0.563998,-0.416397,-0.577764,88.975258,17.675388,-90.865746
29275,-2.916034,9.879136,0.047370,0.123594,-0.223778,0.484762,0.049300,-0.005084,-0.018106,-0.029151,0.098794,0.000497,1.000000,0.000246,-0.000025,-0.000091,0.417796,0.564086,-0.416539,-0.577710,89.001351,17.679916,-90.872472
29276,-3.009208,9.768049,0.104242,0.061035,-0.101767,0.408218,0.073841,-0.006756,-0.025027,-0.030080,0.097684,0.001077,1.000000,0.000369,-0.000034,-0.000125,0.417520,0.564232,-0.416736,-0.577625,89.040843,17.688236,-90.880399
29277,-3.062461,9.688350,0.178293,-0.020744,-0.027627,0.349664,0.091263,-0.012128,-0.028700,-0.030611,0.096887,0.001825,1.000000,0.000456,-0.000061,-0.000143,0.417172,0.564408,-0.416984,-0.577525,89.089660,17.698776,-90.891459
29278,-3.052526,9.623749,0.217501,-0.069423,-0.018603,0.285659,0.100673,-0.015228,-0.026878,-0.030512,0.096240,0.002221,1.000000,0.000503,-0.000076,-0.000134,0.416797,0.564590,-0.417270,-0.577412,89.142976,17.708092,-90.904482
29279,-2.944255,9.709141,0.207090,-0.068410,-0.149294,0.333838,0.090716,-0.013477,-0.025877,-0.029430,0.097094,0.002113,1.000000,0.000454,-0.000067,-0.000129,0.416455,0.564755,-0.417527,-0.577311,89.191242,17.717022,-90.916311
29280,-2.823005,9.730812,0.247013,-0.116301,-0.271984,0.318037,0.052631,-0.014348,-0.019156,-0.028221,0.097310,0.002494,1.000000,0.000263,-0.000072,-0.000096,0.416240,0.564823,-0.417695,-0.577279,89.217212,17.721936,-90.928727
29281,-2.829680,9.597566,0.195184,-0.066328,-0.226119,0.192458,-0.029571,0.002122,-0.010804,-0.028292,0.095977,0.001938,1.000000,-0.000148,0.000011,-0.000054,0.416314,0.564751,-0.417614,-0.577354,89.199453,17.722362,-90.931042
29282,-2.887489,9.302284,0.120685,0.011051,-0.081639,-0.072161,-0.069801,0.015316,-0.000623,-0.028875,0.093023,0.001177,1.000000,-0.000349,0.000077,-0.000003,0.416560,0.564610,-0.417419,-0.577455,89.160749,17.716886,-90.925461
29283,-3.013305,9.015459,0.149657,-0.013579,0.127502,-0.306665,-0.045710,0.006904,0.016506,-0.030140,0.090152,0.001477,1.000000,-0.000229,0.000035,0.000083,0.416768,0.564462,-0.417359,-0.577493,89.134692,17.701705,-90.924656
29284,-2.976247,8.914844,0.118810,0.017266,0.125466,-0.414253,0.015901,-0.004434,0.026918,-0.029774,0.089144,0.001195,1.000000,0.000080,-0.000022,0.000135,0.416811,0.564386,-0.417531,-0.577413,89.141558,17.680287,-90.930697
29285,-3.024119,8.896352,0.066142,0.067668,0.179607,-0.418119,0.056008,-0.005836,0.027123,-0.030253,0.088959,0.000685,1.000000,0.000280,-0.000029,0.000136,0.416736,0.564390,-0.417821,-0.577253,89.171484,17.658916,-90.937461
29286,-3.087383,8.954760,0.101836,0.025538,0.226045,-0.342826,0.134265,-0.009166,0.023028,-0.030884,0.089543,0.001077,1.000000,0.000671,-0.000046,0.000115,0.416423,0.564555,-0.418332,-0.576947,89.245294,17.639703,-90.946405
29287,-3.074000,9.322263,0.113772,0.003714,0.104875,0.003421,0.155640,-0.013698,0.011985,-0.030746,0.093220,0.001208,1.000000,0.000778,-0.000068,0.000060,0.416006,0.564775,-0.418884,-0.576632,89.330828,17.626964,-90.958058
29288,-2.970245,9.546147,0.233674,-0.128248,-0.058534,0.186612,0.112100,-0.014402,-0.002899,-0.029701,0.095461,0.002388,1.000000,0.000560,-0.000072,-0.000014,0.415670,0.564932,-0.419268,-0.576441,89.390923,17.622602,-90.970376
29289,-3.004366,9.553966,0.219749,-0.121897,-0.028420,0.204153,0.070324,-0.008980,-0.018183,-0.030035,0.095542,0.002230,1.000000,0.000352,-0.000045,-0.000091,0.415417,0.565052,-0.419478,-0.576353,89.428369,17.627199,-90.979407
29290,-2.968739,9.657472,0.243999,-0.150210,-0.094836,0.292171,0.024745,-0.013777,-0.033621,-0.029671,0.096579,0.002450,1.000000,0.000124,-0.000069,-0.000168,0.415240,0.565093,-0.419523,-0.576408,89.438464,17.640455,-90.991539
29291,-2.829132,9.713370,0.221440,-0.128088,-0.248228,0.302872,-0.048618,-0.006560,-0.047839,-0.028268,0.097141,0.002190,1.000000,-0.000243,-0.000033,-0.000239,0.415242,0.565035,-0.419302,-0.576624,89.408144,17.662058,-90.999296
29292,-2.750819,9.545957,0.139893,-0.038163,-0.278106,0.118730,-0.169281,0.012667,-0.067372,-0.027476,0.095470,0.001320,1.000000,-0.000846,0.000063,-0.000337,0.415571,0.564820,-0.418637,-0.577080,89.311810,17.694798,-90.995776
29293,-2.813235,9.134114,0.014738,0.103213,-0.101697,-0.256249,-0.225340,0.022247,-0.082109,-0.028095,0.091353,0.000048,0.999999,-0.001127,0.000111,-0.000411,0.416034,0.564549,-0.417748,-0.577656,89.185396,17.736228,-90.986550
29294,-2.836537,8.990142,-0.074464,0.211580,-0.044323,-0.387860,-0.225696,0.012674,-0.093615,-0.028323,0.089914,-0.000844,0.999999,-0.001128,0.000063,-0.000468,0.416496,0.564307,-0.416796,-0.578247,89.056629,17.784010,-90.973410
29295,-2.757183,8.953013,-0.309544,0.465829,-0.119892,-0.451977,-0.249552,0.021489,-0.106988,-0.027524,0.089541,-0.003204,0.999999,-0.001248,0.000107,-0.000535,0.416953,0.564033,-0.415767,-0.578925,88.916078,17.839724,-90.965098
29296,-2.837676,8.875064,-0.295700,0.473478,-0.028685,-0.502395,-0.241110,0.029503,-0.118927,-0.028324,0.088764,-0.003060,0.999999,-0.001206,0.000148,-0.000595,0.417419,0.563858,-0.414663,-0.579551,88.781444,17.902211,-90.942366
29297,-2.871322,8.590223,-0.322800,0.517296,0.079778,-0.764671,-0.253719,0.029675,-0.141315,-0.028653,0.085918,-0.003333,0.999999,-0.001269,0.000148,-0.000707,0.417803,0.563669,-0.413507,-0.580284,88.639812,17.977732,-90.929867
29298,-2.887600,8.095015,-0.541501,0.745036,0.234527,-1.236522,-0.201910,0.040397,-0.155597,-0.028814,0.080967,-0.005491,0.999999,-0.001010,0.000202,-0.000778,0.418074,0.563681,-0.412389,-0.580873,88.529465,18.061434,-90.901402
29299,-2.866783,7.941014,-0.293095,0.502053,0.252285,-1.383670,-0.043064,0.037098,-0.156137,-0.028606,0.079432,-0.002943,1.000000,-0.000215,0.000185,-0.000781,0.417835,0.563982,-0.411786,-0.581180,88.509803,18.145594,-90.884914
29300,-2.864739,7.975049,-0.109056,0.316638,0.229412,-1.347043,0.073329,0.034091,-0.143644,-0.028590,0.079771,-0.001056,1.000000,0.000367,0.000170,-0.000718,0.417351,0.564526,-0.411514,-0.581193,88.556088,18.222386,-90.860117
29301,-2.942052,8.088027,-0.208759,0.406653,0.256004,-1.217079,0.232378,0.026645,-0.129655,-0.029368,0.080902,-0.001990,0.999999,0.001162,0.000133,-0.000648,0.416390,0.565316,-0.411807,-0.580906,88.692484,18.291203,-90.849374
29302,-3.010976,8.611691,0.190853,-0.008200,0.150122,-0.689042,0.372874,0.007820,-0.119759,-0.030058,0.086131,0.002070,0.999998,0.001864,0.000039,-0.000599,0.415073,0.566356,-0.412525,-0.580326,88.905681,18.353943,-90.839735
29303,-3.051761,9.221385,0.410613,-0.251698,-0.011565,-0.094035,0.366448,0.013442,-0.128806,-0.030458,0.092226,0.004277,0.999998,0.001832,0.000067,-0.000644,0.413706,0.567382,-0.413235,-0.579795,89.116563,18.422073,-90.836455
29304,-3.115344,9.504735,0.314458,-0.182770,-0.053950,0.192703,0.291185,0.021336,-0.150787,-0.031081,0.095066,0.003286,0.999999,0.001456,0.000107,-0.000754,0.412555,0.568353,-0.413598,-0.579405,89.285599,18.502701,-90.818451
29305,-3.204406,9.597343,0.215125,-0.107004,-0.014801,0.307182,0.228113,0.026229,-0.173500,-0.031960,0.095999,0.002265,0.999999,0.001141,0.000131,-0.000868,0.411476,0.569219,-0.413751,-0.579213,89.419728,18.596501,-90.807319
29306,-3.281572,9.524313,0.245138,-0.157726,0.064615,0.262640,0.198764,0.033514,-0.196583,-0.032722,0.095273,0.002552,0.999999,0.000994,0.000168,-0.000983,0.410479,0.570127,-0.413688,-0.579072,89.538239,18.703390,-90.781784
29307,-3.369319,9.420500,0.191182,-0.122833,0.162082,0.191974,0.199448,0.024170,-0.195038,-0.033601,0.094236,0.002010,0.999999,0.000997,0.000121,-0.000975,0.409412,0.570971,-0.413700,-0.578987,89.655692,18.809476,-90.771554
29308,-3.414334,9.461333,0.176870,-0.129482,0.173601,0.245086,0.247154,0.007912,-0.186286,-0.034055,0.094643,0.001887,0.999999,0.001236,0.000040,-0.000931,0.408253,0.571881,-0.413857,-0.578796,89.797140,18.910336,-90.760986
29309,-3.331409,9.689245,0.167977,-0.147127,0.003999,0.433591,0.280812,-0.006046,-0.181255,-0.033226,0.096920,0.001815,0.999999,0.001404,-0.000030,-0.000906,0.406929,0.572772,-0.414203,-0.578598,89.955486,19.008439,-90.768483
29310,-3.218969,9.904369,0.278710,-0.285063,-0.188171,0.599768,0.234795,-0.003018,-0.182650,-0.032099,0.099070,0.002903,0.999999,0.001174,-0.000015,-0.000913,0.405791,0.573615,-0.414355,-0.578454,90.087866,19.107219,-90.763995
29311,-3.097269,9.868626,0.242467,-0.267796,-0.309681,0.525300,0.117801,0.014516,-0.186700,-0.030880,0.098714,0.002485,0.999999,0.000589,0.000073,-0.000933,0.404960,0.574244,-0.414171,-0.578544,90.157027,19.208445,-90.758576
29312,-3.070288,9.695533,0.081899,-0.113411,-0.299004,0.352668,0.009467,0.039463,-0.197347,-0.030607,0.096986,0.000830,0.999999,0.000047,0.000197,-0.000987,0.404513,0.574782,-0.413542,-0.578773,90.168869,19.315578,-90.728032
29313,-3.133656,9.382735,0.080001,-0.108892,-0.154825,0.078018,-0.033812,0.053619,-0.202030,-0.031242,0.093859,0.000793,0.999999,-0.000169,0.000268,-0.001010,0.404153,0.575248,-0.412795,-0.579095,90.159095,19.425520,-90.698754
29314,-3.189709,9.109721,0.092582,-0.117347,-0.029305,-0.160994,-0.030587,0.033962,-0.191246,-0.031810,0.091128,0.000917,1.000000,-0.000153,0.000170,-0.000956,0.403827,0.575674,-0.412077,-0.579410,90.146941,19.529159,-90.671558
29315,-3.222921,8.941388,-0.000209,-0.023418,0.040115,-0.308296,0.016740,0.025366,-0.183039,-0.032147,0.089443,0.000009,1.000000,0.000084,0.000127,-0.000915,0.403318,0.576120,-0.411588,-0.579669,90.160470,19.628269,-90.659475
29316,-3.357498,8.899448,0.018816,-0.047622,0.165428,-0.302500,0.131849,-0.004618,-0.170739,-0.033499,0.089023,0.000246,0.999999,0.000659,-0.000023,-0.000854,0.402503,0.576719,-0.411477,-0.579718,90.233556,19.720223,-90.655694
29317,-3.345158,8.890256,0.053039,-0.095133,0.143204,-0.315322,0.181414,-0.035203,-0.151238,-0.033384,0.088927,0.000605,0.999999,0.000907,-0.000176,-0.000756,0.401486,0.577255,-0.411678,-0.579748,90.329057,19.801257,-90.680332
29318,-3.303639,9.081921,0.143938,-0.207723,0.027979,-0.149766,0.275663,-0.032888,-0.137741,-0.032974,0.090840,0.001559,0.999999,0.001378,-0.000164,-0.000689,0.400292,0.577991,-0.412135,-0.579514,90.478750,19.874446,-90.693567
29319,-3.302403,9.409799,0.098838,-0.191300,-0.097172,0.157962,0.280404,-0.034006,-0.135030,-0.032961,0.094119,0.001115,0.999999,0.001402,-0.000170,-0.000675,0.399038,0.578693,-0.412665,-0.579302,90.631256,19.946297,-90.717182
29320,-3.242958,9.545654,0.118887,-0.238618,-0.211145,0.264457,0.257506,-0.019608,-0.136574,-0.032365,0.095477,0.001309,0.999999,0.001288,-0.000098,-0.000683,0.397925,0.579427,-0.413044,-0.579063,90.773377,20.018836,-90.721949
29321,-3.303105,9.644765,0.169378,-0.310480,-0.200742,0.376716,0.168872,0.012545,-0.150087,-0.032959,0.096471,0.001777,0.999999,0.000844,0.000063,-0.000750,0.397045,0.580071,-0.413113,-0.578974,90.871821,20.099033,-90.716706
29322,-3.442679,9.675346,0.191013,-0.343953,-0.094839,0.452473,0.088208,0.017042,-0.168895,-0.034345,0.096782,0.001956,1.000000,0.000441,0.000085,-0.000844,0.396404,0.580640,-0.412834,-0.579042,90.924785,20.189796,-90.698555
29323,-3.556093,9.579626,0.031739,-0.188761,0.025215,0.403953,0.055429,-0.000031,-0.177612,-0.035476,0.095828,0.000344,1.000000,0.000277,-0.000000,-0.000888,0.395746,0.581077,-0.412519,-0.579277,90.955748,20.285870,-90.700533
29324,-3.571946,9.369561,0.014888,-0.171141,0.095939,0.212739,0.038650,-0.039019,-0.172221,-0.035639,0.093726,0.000160,1.000000,0.000193,-0.000195,-0.000861,0.395124,0.581391,-0.412197,-0.579616,90.968483,20.379068,-90.716486
29325,-3.453335,9.317642,0.009347,-0.168119,-0.013447,0.122885,0.034749,-0.032894,-0.172782,-0.034453,0.093206,0.000104,1.000000,0.000174,-0.000164,-0.000864,0.394472,0.581682,-0.411901,-0.579979,90.980583,20.472696,-90.738546
29326,-3.515064,9.361751,-0.190908,0.028869,0.008893,0.188991,0.056172,-0.040634,-0.174639,-0.035068,0.093649,-0.001890,1.000000,0.000281,-0.000203,-0.000873,0.393737,0.581994,-0.411676,-0.580325,91.002941,20.567310,-90.765446
29327,-3.455150,9.146917,-0.022956,-0.138392,0.015927,-0.035916,0.050237,-0.052538,-0.159851,-0.034478,0.091497,-0.000216,1.000000,0.000251,-0.000263,-0.000799,0.393036,0.582231,-0.411500,-0.580687,91.019579,20.653742,-90.799630
29328,-3.377482,9.148487,0.059994,-0.225426,-0.070908,-0.063332,0.044901,-0.024447,-0.175208,-0.033695,0.091514,0.000616,1.000000,0.000225,-0.000122,-0.000876,0.392365,0.582568,-0.411208,-0.581009,91.038917,20.748532,-90.816578
29329,-3.470820,9.132608,-0.225913,0.059577,-0.000589,-0.040349,0.018362,-0.010924,-0.187132,-0.034623,0.091359,-0.002253,1.000000,0.000092,-0.000055,-0.000936,0.391763,0.582919,-0.410778,-0.581368,91.046353,20.850176,-90.824949
29330,-3.560325,9.059906,0.022175,-0.188602,0.097132,-0.080613,0.058989,-0.018540,-0.181065,-0.035521,0.090631,0.000245,1.000000,0.000295,-0.000093,-0.000905,0.391097,0.583347,-0.410447,-0.581621,91.075034,20.948267,-90.828177
29331,-3.646308,8.969257,0.127277,-0.295295,0.194614,-0.136209,0.068912,-0.033802,-0.200693,-0.036373,0.089729,0.001298,0.999999,0.000345,-0.000169,-0.001003,0.390260,0.583757,-0.410168,-0.581968,91.106459,21.057936,-90.850349
29332,-3.629326,8.865352,0.136970,-0.306165,0.198009,-0.239169,0.042072,-0.054101,-0.201500,-0.036204,0.088690,0.001379,0.999999,0.000210,-0.000271,-0.001008,0.389510,0.584090,-0.409797,-0.582398,91.117639,21.168146,-90.875102
29333,-3.496311,8.647531,0.090011,-0.257289,0.133515,-0.489167,0.034441,-0.053097,-0.201766,-0.034876,0.086510,0.000906,0.999999,0.000172,-0.000265,-0.001009,0.388730,0.584377,-0.409451,-0.582874,91.124958,21.278656,-90.909087
29334,-3.519399,8.564045,-0.052308,-0.116779,0.165032,-0.555751,0.104623,-0.055496,-0.186112,-0.035114,0.085673,-0.000488,0.999999,0.000523,-0.000277,-0.000931,0.387838,0.584795,-0.409309,-0.583149,91.171470,21.380095,-90.934872
29335,-3.442309,8.716241,0.170175,-0.353370,0.028148,-0.446492,0.149452,-0.065411,-0.161729,-0.034353,0.087189,0.001756,0.999999,0.000747,-0.000327,-0.000809,0.386813,0.585186,-0.409439,-0.583346,91.241665,21.467867,-90.976824
29336,-3.403717,9.242793,0.240081,-0.449437,-0.212452,0.027282,0.133416,-0.040167,-0.158082,-0.033965,0.092453,0.002456,0.999999,0.000667,-0.000201,-0.000790,0.385950,0.585646,-0.409432,-0.583462,91.307951,21.553132,-90.993364
29337,-3.616023,9.567792,-0.072105,-0.154532,-0.156300,0.413511,0.126286,-0.033976,-0.148735,-0.036089,0.095705,-0.000667,1.000000,0.000631,-0.000170,-0.000744,0.385094,0.586056,-0.409470,-0.583588,91.371877,21.633130,-91.015967
29338,-3.491463,9.651460,-0.081532,-0.159393,-0.315904,0.445111,0.109913,-0.059187,-0.124595,-0.034854,0.096537,-0.000773,1.000000,0.000550,-0.000296,-0.000623,0.384357,0.586345,-0.409528,-0.583743,91.420164,21.699522,-91.044573
29339,-3.573804,9.700972,-0.046152,-0.201460,-0.269045,0.520273,0.060670,-0.043307,-0.136990,-0.035671,0.097034,-0.000440,1.000000,0.000303,-0.000217,-0.000685,0.383708,0.586577,-0.409427,-0.584007,91.444289,21.772961,-91.072994
29340,-3.638185,9.633376,-0.222759,-0.023752,-0.202745,0.485189,0.010199,-0.036480,-0.146268,-0.036311,0.096360,-0.002229,1.000000,0.000051,-0.000182,-0.000731,0.383196,0.586749,-0.409138,-0.584374,91.440684,21.851455,-91.097239
29341,-3.651189,9.653310,-0.308048,0.063440,-0.214489,0.510220,-0.029295,-0.051488,-0.141305,-0.036443,0.096558,-0.003104,1.000000,-0.000146,-0.000257,-0.000707,0.382781,0.586793,-0.408776,-0.584854,91.411319,21.927479,-91.130683
29342,-3.504073,9.614741,-0.444876,0.205594,-0.354201,0.422152,-0.080997,-0.040499,-0.140104,-0.034972,0.096170,-0.004495,1.000000,-0.000405,-0.000202,-0.000701,0.382546,0.586765,-0.408246,-0.585407,91.354400,22.002466,-91.157615
29343,-3.567373,9.559315,-0.398974,0.169090,-0.287255,0.392934,-0.035430,-0.017505,-0.145378,-0.035604,0.095618,-0.004010,1.000000,-0.000177,-0.000088,-0.000727,0.382206,0.586904,-0.407789,-0.585807,91.329282,22.080321,-91.170157
29344,-3.614398,9.512188,-0.335078,0.115933,-0.238009,0.365120,-0.127059,-0.022042,-0.143087,-0.036076,0.095146,-0.003415,1.000000,-0.000635,-0.000110,-0.000715,0.382135,0.586847,-0.407079,-0.586404,91.250167,22.156724,-91.185790
29345,-3.573032,9.139016,-0.440354,0.245730,-0.152630,0.005579,-0.174457,-0.003216,-0.148108,-0.035663,0.091413,-0.004484,0.999999,-0.000872,-0.000016,-0.000741,0.382223,0.586768,-0.406179,-0.587050,91.148629,22.235942,-91.189679
29346,-3.656526,8.771630,-0.425110,0.254929,0.050603,-0.303491,-0.105672,-0.000083,-0.145508,-0.036501,0.087741,-0.004297,1.000000,-0.000528,-0.000000,-0.000728,0.382177,0.586855,-0.405431,-0.587509,91.086803,22.313435,-91.181950
29347,-3.678700,8.518083,-0.569968,0.416345,0.150512,-0.527246,-0.107711,-0.016692,-0.142341,-0.036726,0.085204,-0.005749,1.000000,-0.000539,-0.000083,-0.000712,0.382059,0.586851,-0.404769,-0.588047,91.020214,22.389483,-91.194474
29348,-3.618039,8.201821,-0.728820,0.589070,0.198978,-0.840249,-0.035645,-0.035873,-0.122729,-0.036129,0.082039,-0.007309,1.000000,-0.000178,-0.000179,-0.000614,0.381750,0.586885,-0.404412,-0.588459,90.989904,22.454288,-91.219333
29349,-3.559580,8.410217,-0.323985,0.173108,0.067754,-0.676345,0.178202,-0.028925,-0.093563,-0.035556,0.084122,-0.003170,0.999999,0.000891,-0.000145,-0.000468,0.380911,0.587291,-0.404757,-0.588360,91.083984,22.502515,-91.240023
29350,-3.622322,8.942798,-0.090792,-0.091242,-0.077449,-0.164437,0.260388,-0.026244,-0.068938,-0.036192,0.089442,-0.000796,0.999999,0.001302,-0.000131,-0.000345,0.379910,0.587808,-0.405411,-0.588041,91.225363,22.536461,-91.259408
29351,-3.772435,9.030947,-0.125232,-0.075599,0.021129,-0.025003,0.199845,-0.049409,-0.068445,-0.037693,0.090324,-0.001171,0.999999,0.000999,-0.000247,-0.000342,0.379039,0.588142,-0.405931,-0.587910,91.326891,22.570641,-91.292944
29352,-3.782871,8.953316,-0.390901,0.179154,0.046039,-0.086920,0.130265,-0.022775,-0.082278,-0.037791,0.089551,-0.003855,1.000000,0.000651,-0.000114,-0.000411,0.378439,0.588484,-0.406104,-0.587835,91.394639,22.612244,-91.299859
29353,-3.792386,8.946420,-0.289419,0.065201,0.053501,-0.091718,0.183106,-0.032651,-0.088469,-0.037884,0.089484,-0.002818,0.999999,0.000916,-0.000163,-0.000442,0.377591,0.588876,-0.406483,-0.587726,91.490689,22.657742,-91.322594
29354,-3.520924,9.447324,-0.300571,0.040467,-0.397178,0.265992,0.120333,-0.029853,-0.082948,-0.035170,0.094490,-0.002954,1.000000,0.000602,-0.000149,-0.000415,0.377004,0.589179,-0.406638,-0.587693,91.551085,22.699882,-91.333773
29355,-3.557409,9.526963,-0.174494,-0.093312,-0.397394,0.350088,0.007191,0.011535,-0.085587,-0.035533,0.095285,-0.001739,1.000000,0.000036,0.000058,-0.000428,0.376772,0.589362,-0.406425,-0.587804,91.556922,22.743083,-91.329039
29356,-3.704251,9.536111,0.030261,-0.296805,-0.266434,0.409872,0.028415,-0.007898,-0.089119,-0.037000,0.095378,0.000315,1.000000,0.000142,-0.000039,-0.000446,0.376430,0.589533,-0.406301,-0.587938,91.569948,22.788412,-91.336454
29357,-3.881925,9.398310,0.086957,-0.344730,-0.056667,0.350140,-0.019798,-0.011749,-0.110923,-0.038767,0.094005,0.000858,1.000000,-0.000099,-0.000059,-0.000555,0.376157,0.589648,-0.405978,-0.588220,91.554889,22.846487,-91.345748
29358,-4.152454,8.732949,-0.245263,0.027581,0.426912,-0.149129,-0.203820,-0.022410,-0.149798,-0.041459,0.087358,-0.002546,0.999999,-0.001019,-0.000112,-0.000749,0.376291,0.589462,-0.405019,-0.588982,91.431674,22.926771,-91.361277
29359,-4.084158,8.136157,-0.650037,0.471785,0.567872,-0.715720,-0.270883,-0.032169,-0.174551,-0.040769,0.081388,-0.006617,0.999999,-0.001354,-0.000161,-0.000873,0.376528,0.589172,-0.403807,-0.589952,91.268040,23.021536,-91.382586
29360,-3.740368,8.204247,-0.074155,-0.102198,0.229568,-0.799233,0.021143,-0.034149,-0.157326,-0.037339,0.082072,-0.000739,1.000000,0.000106,-0.000171,-0.000787,0.376004,0.589423,-0.403459,-0.590273,91.270724,23.106250,-91.395678
29361,-3.707215,9.163190,0.494992,-0.708419,-0.169364,0.057568,0.157031,-0.066384,-0.120575,-0.037019,0.091650,0.005010,0.999999,0.000785,-0.000332,-0.000603,0.375069,0.589727,-0.403732,-0.590378,91.343493,23.170529,-91.439171
29362,-3.695180,9.527653,0.636484,-0.866524,-0.328257,0.384225,0.002037,-0.096214,-0.105795,-0.036904,0.095296,0.006348,1.000000,0.000010,-0.000481,-0.000529,0.374576,0.589620,-0.403646,-0.590856,91.319662,23.226575,-91.501621
29363,-3.989045,9.278196,0.142147,-0.341737,0.010065,0.281897,-0.284298,-0.039822,-0.152385,-0.039820,0.092814,0.001282,0.999999,-0.001421,-0.000199,-0.000762,0.374902,0.589239,-0.402471,-0.591831,91.146137,23.308697,-91.528257
29364,-4.158279,8.733093,-0.268074,0.118309,0.349254,-0.143459,-0.343006,-0.034376,-0.200924,-0.041495,0.087368,-0.002838,0.999998,-0.001715,-0.000172,-0.001005,0.375320,0.588891,-0.400916,-0.592966,90.939996,23.418297,-91.541437
29365,-3.830954,9.079878,0.069594,-0.211973,-0.096189,0.039774,-0.180528,-0.057412,-0.190850,-0.038223,0.090836,0.000603,0.999999,-0.000903,-0.000287,-0.000954,0.375188,0.588726,-0.399967,-0.593853,90.821377,23.522458,-91.579281
29366,-3.670484,9.481507,0.063143,-0.195903,-0.421178,0.344062,-0.284465,-0.068610,-0.165389,-0.036627,0.094846,0.000484,0.999999,-0.001422,-0.000343,-0.000827,0.375469,0.588313,-0.398752,-0.594901,90.639757,23.611839,-91.614833
29367,-3.719138,9.082626,-0.212623,0.120979,-0.242983,0.000441,-0.348168,-0.043105,-0.175775,-0.037111,0.090855,-0.002292,0.999998,-0.001741,-0.000216,-0.000879,0.375902,0.587843,-0.397319,-0.596050,90.428231,23.707075,-91.644558
29368,-4.026190,8.859948,-0.181180,0.134284,0.109009,-0.080695,-0.364532,0.000841,-0.227736,-0.040161,0.088642,-0.001973,0.999998,-0.001823,0.000004,-0.001139,0.376369,0.587605,-0.395550,-0.597166,90.217894,23.831640,-91.637175
29369,-4.393614,7.929052,-0.629888,0.640504,0.784884,-0.782514,-0.464383,0.014247,-0.267401,-0.043831,0.079334,-0.006480,0.999996,-0.002322,0.000071,-0.001337,0.376980,0.587262,-0.393390,-0.598543,89.953913,23.979108,-91.631740
29370,-4.256081,7.232447,-0.761036,0.796907,0.917213,-1.474504,-0.064448,-0.065493,-0.244908,-0.042470,0.072374,-0.007648,0.999999,-0.000322,-0.000327,-0.001225,0.376380,0.587420,-0.392589,-0.599290,89.898167,24.113467,-91.666935
29371,-3.945405,7.861162,0.401697,-0.388845,0.393168,-1.025219,0.379682,-0.128345,-0.183358,-0.039385,0.078640,0.004141,0.999998,0.001898,-0.000642,-0.000917,0.374482,0.588071,-0.393469,-0.599265,90.081065,24.212776,-91.751296
29372,-3.922117,8.668699,0.705521,-0.731072,0.037894,-0.300005,0.390277,-0.141254,-0.160571,-0.039157,0.086704,0.007197,0.999998,0.001951,-0.000706,-0.000803,0.372647,0.588687,-0.394418,-0.599179,90.266326,24.299151,-91.833696
29373,-3.962263,9.188050,0.412163,-0.475431,-0.161152,0.189191,0.383616,-0.124967,-0.161292,-0.039551,0.091904,0.004273,0.999998,0.001918,-0.000625,-0.000806,0.370806,0.589306,-0.395365,-0.599089,90.452318,24.386299,-91.915433
29374,-3.995750,10.110513,0.435894,-0.546686,-0.525656,1.041032,0.291092,-0.073588,-0.190568,-0.039863,0.101137,0.004491,0.999998,0.001455,-0.000368,-0.000953,0.369304,0.589995,-0.395799,-0.599052,90.598330,24.490016,-91.954640
29375,-3.959694,10.388661,0.241569,-0.373224,-0.701570,1.279213,0.002690,-0.058110,-0.220426,-0.039483,0.103930,0.002406,0.999999,0.000013,-0.000291,-0.001102,0.368540,0.590224,-0.395304,-0.599624,90.583560,24.610949,-91.993629
29376,-3.987182,10.364708,0.155432,-0.272819,-0.694767,1.268454,-0.225511,-0.033668,-0.237398,-0.039749,0.103696,0.001431,0.999999,-0.001128,-0.000168,-0.001187,0.368500,0.590170,-0.393977,-0.600574,90.443941,24.741253,-92.007530
29377,-4.118003,9.694248,0.004044,-0.067189,-0.328705,0.714592,-0.478857,-0.016830,-0.259852,-0.041054,0.096996,-0.000195,0.999996,-0.002394,-0.000084,-0.001299,0.369117,0.589709,-0.391842,-0.602043,90.163778,24.884471,-92.021079
29378,-4.325525,8.699031,-0.178432,0.181826,0.243378,-0.100702,-0.448481,-0.002129,-0.285245,-0.043131,0.087048,-0.001980,0.999996,-0.002242,-0.000011,-0.001426,0.369649,0.589425,-0.389642,-0.603421,89.904183,25.041971,-92.016291
29379,-4.458375,8.041577,-0.524096,0.574271,0.602248,-0.640659,-0.363858,-0.024082,-0.307052,-0.044460,0.080474,-0.005393,0.999997,-0.001819,-0.000120,-0.001535,0.369766,0.589238,-0.387722,-0.604767,89.687237,25.212102,-92.035973
29380,-4.378388,7.577112,-0.537285,0.609148,0.700378,-1.094320,-0.103134,-0.062726,-0.309408,-0.043665,0.075836,-0.005426,0.999999,-0.000516,-0.000314,-0.001547,0.369086,0.589451,-0.386603,-0.605691,89.608550,25.383217,-92.070861
29381,-4.199266,7.944152,-0.026737,0.089716,0.372758,-0.835102,0.168088,-0.086607,-0.285546,-0.041879,0.079502,-0.000219,0.999999,0.000840,-0.000433,-0.001428,0.367577,0.590012,-0.386470,-0.606147,89.679024,25.540756,-92.130690
29382,-3.964607,8.081747,-0.262610,0.306750,0.070396,-0.812543,0.154832,-0.112775,-0.255446,-0.039541,0.080870,-0.002586,0.999999,0.000774,-0.000564,-0.001277,0.366202,0.590441,-0.386380,-0.606618,89.734295,25.680875,-92.197123
29383,-3.802081,8.319400,-0.190849,0.212867,-0.197499,-0.668275,0.267147,-0.102718,-0.232713,-0.037923,0.083241,-0.001817,0.999998,0.001336,-0.000514,-0.001164,0.364528,0.591030,-0.386731,-0.606830,89.857001,25.808252,-92.266758
29384,-3.890440,8.904587,0.220493,-0.221944,-0.376919,-0.102671,0.216414,-0.046961,-0.226482,-0.038804,0.089087,0.002292,0.999999,0.001082,-0.000235,-0.001132,0.363184,0.591712,-0.386791,-0.606932,89.965729,25.932076,-92.290857
29385,-4.063833,8.702344,-0.159671,0.154485,-0.168175,-0.209624,0.099441,-0.026291,-0.227659,-0.040539,0.087070,-0.001559,0.999999,0.000497,-0.000131,-0.001138,0.362167,0.592215,-0.386507,-0.607230,90.013571,26.056777,-92.311441
29386,-4.137842,8.473988,-0.023787,0.013963,-0.015495,-0.382402,0.186477,-0.031277,-0.210173,-0.041289,0.084783,-0.000165,0.999999,0.000932,-0.000156,-0.001051,0.360990,0.592857,-0.386495,-0.607312,90.109545,26.171314,-92.325251
29387,-4.259792,8.284004,-0.012385,-0.002464,0.159327,-0.498974,0.123839,0.015632,-0.220402,-0.042507,0.082887,-0.000069,0.999999,0.000619,0.000078,-0.001102,0.360003,0.593516,-0.386229,-0.607424,90.183270,26.291846,-92.318730
29388,-4.323118,8.273786,-0.316667,0.290809,0.188452,-0.478609,0.170105,0.009939,-0.226256,-0.043138,0.082789,-0.003094,0.999999,0.000851,0.000050,-0.001131,0.358905,0.594282,-0.386044,-0.607442,90.281641,26.415570,-92.305813
29389,-4.256079,8.591227,-0.056110,0.002775,-0.021337,-0.224883,0.239083,-0.002330,-0.224877,-0.042464,0.085961,-0.000459,0.999999,0.001195,-0.000012,-0.001124,0.357526,0.595100,-0.386145,-0.607391,90.416520,26.538708,-92.310282
29390,-4.302709,8.805217,-0.035171,-0.041025,-0.094999,-0.012911,0.183531,0.012632,-0.239947,-0.042921,0.088104,-0.000268,0.999999,0.000918,0.000063,-0.001200,0.356349,0.595922,-0.385954,-0.607397,90.523672,26.670254,-92.294979
29391,-4.440263,8.813345,-0.210253,0.123050,-0.007024,0.057466,0.135807,0.018823,-0.269521,-0.044284,0.088195,-0.002038,0.999999,0.000679,0.000094,-0.001348,0.355181,0.596703,-0.385569,-0.607559,90.605824,26.818864,-92.285086
29392,-4.607117,8.906956,0.075194,-0.175133,0.087079,0.213613,0.201003,0.005113,-0.271894,-0.045950,0.089131,0.000843,0.999999,0.001005,0.000026,-0.001359,0.353839,0.597593,-0.385346,-0.607609,90.721168,26.968747,-92.273857
29393,-4.687291,8.904887,0.333953,-0.449260,0.147733,0.244922,0.230794,-0.067670,-0.237048,-0.046768,0.089100,0.003426,0.999999,0.001154,-0.000338,-0.001185,0.352318,0.598214,-0.385498,-0.607786,90.832666,27.099391,-92.319234
29394,-4.498303,9.041712,0.619490,-0.765992,-0.087634,0.275749,0.317970,-0.149156,-0.189793,-0.044902,0.090450,0.006305,0.999998,0.001590,-0.000746,-0.000949,0.350576,0.598679,-0.386146,-0.607923,90.969632,27.203626,-92.407473
29395,-4.445200,9.379674,0.727350,-0.908622,-0.298035,0.548425,0.282205,-0.178141,-0.170698,-0.044378,0.093824,0.007366,0.999998,0.001411,-0.000891,-0.000853,0.348888,0.598923,-0.386844,-0.608211,91.077739,27.297564,-92.524255
29396,-4.448495,9.860634,0.537698,-0.751536,-0.541820,0.978601,0.142030,-0.137033,-0.206792,-0.044387,0.098648,0.005417,0.999999,0.000710,-0.000685,-0.001034,0.347643,0.599147,-0.386883,-0.608678,91.117339,27.411693,-92.604267
29397,-4.468706,10.406246,0.330058,-0.562096,-0.810313,1.474278,-0.135149,-0.058561,-0.264338,-0.044550,0.104124,0.003217,0.999999,-0.000676,-0.000293,-0.001322,0.347149,0.599206,-0.385821,-0.609575,91.021978,27.558078,-92.642866
29398,-4.556362,10.493351,0.316025,-0.519117,-0.805424,1.591360,-0.402613,-0.021240,-0.282126,-0.045416,0.105004,0.002944,0.999997,-0.002013,-0.000106,-0.001411,0.347528,0.598978,-0.383772,-0.610875,90.783881,27.714012,-92.647910
29399,-4.730981,9.695508,0.189093,-0.304673,-0.320840,0.968065,-0.654410,-0.023452,-0.278562,-0.047175,0.097026,0.001568,0.999994,-0.003272,-0.000117,-0.001393,0.348610,0.598262,-0.381017,-0.612682,90.400776,27.868048,-92.665160
29400,-4.827423,8.667591,0.102066,-0.124910,0.209144,0.106078,-0.627540,-0.041213,-0.265302,-0.048159,0.086742,0.000739,0.999994,-0.003138,-0.000206,-0.001327,0.349670,0.597537,-0.378358,-0.614432,90.026605,28.014194,-92.685384
29401,-4.932570,8.165458,-0.132300,0.173642,0.499874,-0.286816,-0.502576,-0.040499,-0.252878,-0.049222,0.081713,-0.001538,0.999996,-0.002513,-0.000202,-0.001264,0.350336,0.596972,-0.376168,-0.615944,89.724172,28.153290,-92.715899
29402,-4.913460,8.220570,-0.366033,0.439340,0.422400,-0.248050,-0.295351,-0.043460,-0.248210,-0.049032,0.082261,-0.003792,0.999998,-0.001477,-0.000217,-0.001241,0.350447,0.596779,-0.374580,-0.617034,89.538709,28.289374,-92.739289
29403,-4.760802,8.636805,-0.482462,0.564260,0.062830,0.044797,-0.163963,-0.063421,-0.229867,-0.047507,0.086419,-0.004911,0.999999,-0.000820,-0.000317,-0.001149,0.350129,0.596688,-0.373539,-0.617933,89.422586,28.414979,-92.785755
29404,-4.469789,8.989821,-0.102435,0.179013,-0.364106,0.219348,-0.024439,-0.098726,-0.182842,-0.044615,0.089939,-0.001057,0.999999,-0.000122,-0.000494,-0.000914,0.349528,0.596674,-0.373078,-0.618565,89.374959,28.513174,-92.845400
29405,-4.405664,8.992716,-0.025606,0.108733,-0.433511,0.191297,-0.090364,-0.105393,-0.130193,-0.043998,0.089956,-0.000320,1.000000,-0.000452,-0.000527,-0.000651,0.349219,0.596395,-0.372634,-0.619276,89.287928,28.581285,-92.918941
29406,-4.512771,8.480610,-0.049289,0.153861,-0.106442,-0.207832,-0.042984,-0.109705,-0.100357,-0.045085,0.084829,-0.000536,1.000000,-0.000215,-0.000549,-0.000502,0.348909,0.596160,-0.372381,-0.619830,89.226271,28.631966,-92.985407
29407,-4.488599,8.596492,-0.000642,0.109337,-0.189702,-0.117366,-0.006411,-0.090885,-0.094407,-0.044845,0.085986,-0.000030,1.000000,-0.000032,-0.000454,-0.000472,0.348486,0.596005,-0.372277,-0.620278,89.191800,28.679553,-93.049395
29408,-4.497138,8.748066,0.166591,-0.056111,-0.255522,0.021550,0.026199,-0.079987,-0.095129,-0.044930,0.087502,0.001659,1.000000,0.000131,-0.000400,-0.000476,0.347987,0.595939,-0.372254,-0.620635,89.178952,28.727391,-93.106554
29409,-4.437494,9.268855,0.149695,-0.038345,-0.569239,0.448886,-0.181006,-0.044737,-0.121652,-0.044319,0.092717,0.001403,0.999999,-0.000905,-0.000224,-0.000608,0.348086,0.595674,-0.371447,-0.621317,89.058650,28.790904,-93.140808
29410,-4.536628,8.815581,-0.433112,0.575579,-0.304010,0.089800,-0.303744,0.000103,-0.133212,-0.045308,0.088179,-0.004465,0.999999,-0.001519,0.000001,-0.000666,0.348599,0.595352,-0.370146,-0.622114,88.881551,28.861182,-93.146304
29411,-4.726882,8.760482,0.017055,0.152108,-0.101088,0.140020,-0.043573,-0.064739,-0.089240,-0.047230,0.087626,0.000136,1.000000,-0.000218,-0.000324,-0.000446,0.348352,0.595203,-0.369897,-0.622544,88.833632,28.905761,-93.193592
29412,-4.773223,8.696838,0.590966,-0.410176,-0.009073,0.117043,-0.054682,-0.097145,-0.038658,-0.047718,0.086979,0.005863,1.000000,-0.000273,-0.000486,-0.000193,0.348292,0.594869,-0.369769,-0.622973,88.768991,28.920685,-93.251675
29413,-4.701312,8.193611,-0.055487,0.244037,0.139393,-0.370141,-0.041274,-0.107841,-0.023214,-0.047003,0.081941,-0.000597,1.000000,-0.000206,-0.000539,-0.000116,0.348164,0.594466,-0.369799,-0.623411,88.709117,28.926815,-93.326344
29414,-4.562280,8.409066,-0.030353,0.211261,-0.086414,-0.248400,0.152015,-0.107638,-0.021587,-0.045614,0.084096,-0.000264,1.000000,0.000760,-0.000538,-0.000108,0.347468,0.594395,-0.370435,-0.623489,88.759671,28.931761,-93.401059
29415,-4.466653,9.198167,0.416478,-0.251649,-0.531988,0.404180,0.085863,-0.069899,-0.044557,-0.044648,0.091990,0.004189,1.000000,0.000429,-0.000349,-0.000223,0.346966,0.594371,-0.370732,-0.623615,88.784491,28.950620,-93.451200
29416,-4.492274,9.308880,-0.082332,0.252586,-0.593319,0.503644,-0.166751,-0.009161,-0.076544,-0.044887,0.093105,-0.000903,1.000000,-0.000834,-0.000046,-0.000383,0.347228,0.594155,-0.370040,-0.624086,88.683189,28.988275,-93.462292
29417,-4.601380,9.141487,0.028659,0.167164,-0.418908,0.411638,-0.231745,-0.004421,-0.071893,-0.045981,0.091432,0.000180,0.999999,-0.001159,-0.000022,-0.000359,0.347705,0.593834,-0.369150,-0.624653,88.546524,29.023579,-93.470072
29418,-4.755586,8.622462,0.035390,0.193478,-0.039230,0.032345,-0.291069,0.020487,-0.072979,-0.047524,0.086242,0.000233,0.999999,-0.001455,0.000102,-0.000365,0.348456,0.593518,-0.367976,-0.625227,88.383351,29.059583,-93.451872
29419,-4.854533,8.151752,0.031457,0.225499,0.268983,-0.331374,-0.256975,0.006437,-0.066622,-0.048518,0.081534,0.000211,0.999999,-0.001285,0.000032,-0.000333,0.349043,0.593175,-0.367003,-0.625797,88.235623,29.092014,-93.452655
29420,-4.811800,7.744362,-0.120722,0.390122,0.417138,-0.712307,-0.120434,-0.020733,-0.071523,-0.048090,0.077460,-0.001259,1.000000,-0.000602,-0.000104,-0.000358,0.349216,0.593023,-0.366439,-0.626175,88.157017,29.126481,-93.461629
29421,-4.751641,8.100522,-0.032165,0.303769,0.189174,-0.428151,0.046991,-0.041085,-0.070112,-0.047488,0.081022,-0.000312,1.000000,0.000235,-0.000205,-0.000351,0.348803,0.593067,-0.366489,-0.626334,88.168191,29.160036,-93.493740
29422,-4.697754,8.398522,0.091864,0.174402,-0.002339,-0.190729,0.095161,-0.062992,-0.054121,-0.046955,0.083997,0.000944,1.000000,0.000476,-0.000315,-0.000271,0.348259,0.593095,-0.366776,-0.626442,88.199771,29.183786,-93.540047
29423,-4.570762,8.648677,0.326026,-0.068722,-0.227917,-0.027949,0.045578,-0.069652,-0.046806,-0.045689,0.086497,0.003264,1.000000,0.000228,-0.000348,-0.000234,0.347870,0.593005,-0.366941,-0.626647,88.201209,29.203499,-93.590408
29424,-4.457812,8.454315,-0.078323,0.330820,-0.254532,-0.263895,-0.047856,-0.015010,-0.059684,-0.044553,0.084556,-0.000807,1.000000,-0.000239,-0.000075,-0.000298,0.347821,0.592944,-0.366680,-0.626884,88.166116,29.231303,-93.605377
29425,-4.612729,8.436521,0.004243,0.258314,-0.112090,-0.201606,0.019128,0.005810,-0.064821,-0.046100,0.084380,0.000052,1.000000,0.000096,0.000029,-0.000324,0.347593,0.593077,-0.366577,-0.626945,88.176354,29.262690,-93.606625
29426,-4.699365,8.744286,0.410918,-0.143662,-0.173389,0.120324,0.004200,-0.002372,-0.065401,-0.046965,0.087458,0.004110,1.000000,0.000021,-0.000012,-0.000327,0.347394,0.593157,-0.366440,-0.627060,88.175092,29.293984,-93.613419
29427,-4.660219,8.624875,0.180612,0.086570,-0.165492,-0.009431,-0.066415,0.009733,-0.066082,-0.046574,0.086265,0.001780,1.000000,-0.000332,0.000049,-0.000330,0.347423,0.593156,-0.366059,-0.627268,88.137559,29.326165,-93.612127
29428,-4.649150,8.591665,0.187292,0.083133,-0.163987,-0.043728,-0.030023,0.005169,-0.061947,-0.046465,0.085931,0.001861,1.000000,-0.000150,0.000026,-0.000310,0.347350,0.593193,-0.365812,-0.627416,88.119129,29.355613,-93.613918
29429,-4.685479,8.668622,0.169798,0.105488,-0.176087,0.040506,-0.041336,0.011514,-0.058308,-0.046829,0.086700,0.001683,1.000000,-0.000207,0.000058,-0.000292,0.347332,0.593227,-0.365529,-0.627560,88.096608,29.383376,-93.611318
29430,-4.652172,8.691079,0.008214,0.269882,-0.228943,0.038829,-0.083003,0.017013,-0.065358,-0.046493,0.086926,0.000050,1.000000,-0.000415,0.000085,-0.000327,0.347428,0.593216,-0.365085,-0.627776,88.051590,29.414998,-93.605449
29431,-4.577691,8.944252,0.371691,-0.091857,-0.406875,0.233161,-0.037235,0.018607,-0.057538,-0.045751,0.089456,0.003705,1.000000,-0.000186,0.000093,-0.000288,0.347412,0.593277,-0.364804,-0.627889,88.033704,29.442462,-93.598203
29432,-4.520830,9.055305,0.171197,0.113235,-0.525862,0.295547,-0.170598,0.062644,-0.065909,-0.045178,0.090569,0.001649,1.000000,-0.000853,0.000313,-0.000330,0.347849,0.593258,-0.364004,-0.628130,87.953238,29.475313,-93.562355
29433,-4.638373,8.729720,-0.063952,0.366124,-0.279950,0.062239,-0.193801,0.060026,-0.066220,-0.046355,0.087312,-0.000710,0.999999,-0.000969,0.000300,-0.000331,0.348346,0.593192,-0.363134,-0.628420,87.858929,29.508631,-93.528143
29434,-4.696018,8.650828,0.086480,0.232143,-0.189065,0.026380,-0.169011,0.036408,-0.037062,-0.046944,0.086518,0.000800,1.000000,-0.000845,0.000182,-0.000185,0.348876,0.593071,-0.362418,-0.628654,87.771215,29.524475,-93.498952
29435,-4.772388,8.319346,-0.035219,0.364564,0.033837,-0.228618,-0.092433,0.032167,-0.015889,-0.047717,0.083197,-0.000383,1.000000,-0.000462,0.000161,-0.000079,0.349179,0.593002,-0.362064,-0.628754,87.726565,29.528431,-93.481861
29436,-4.766256,8.606870,0.485989,-0.153424,-0.090962,0.036159,0.091487,-0.020344,0.013852,-0.047669,0.086063,0.004894,1.000000,0.000457,-0.000102,0.000069,0.348938,0.593034,-0.362468,-0.628626,87.770378,29.513867,-93.498663
29437,-4.741825,8.709222,0.577489,-0.253837,-0.155739,0.116071,0.129113,-0.000466,0.015206,-0.047425,0.087085,0.005831,1.000000,0.000646,-0.000002,0.000076,0.348624,0.593193,-0.362959,-0.628367,87.842472,29.499289,-93.502255
29438,-4.741490,8.580483,0.011693,0.296598,-0.113721,-0.014441,0.174770,0.037881,0.005180,-0.047417,0.085803,0.000201,1.000000,0.000874,0.000189,0.000026,0.348214,0.593567,-0.363498,-0.627929,87.952735,29.490936,-93.481048
29439,-4.962603,9.045373,0.545399,-0.246221,-0.123194,0.515322,0.359738,0.001841,0.037319,-0.049643,0.090434,0.005617,0.999998,0.001799,0.000009,0.000187,0.347287,0.594093,-0.364774,-0.627204,88.157924,29.463755,-93.482702
29440,-4.801992,9.357117,0.955987,-0.691376,-0.389439,0.718171,0.261384,-0.018893,0.059736,-0.048049,0.093544,0.009678,0.999999,0.001307,-0.000094,0.000299,0.346741,0.594370,-0.365792,-0.626650,88.299945,29.423050,-93.487802
29441,-4.536269,9.367920,0.940799,-0.709538,-0.617713,0.595758,0.175774,-0.004689,0.048301,-0.045386,0.093660,0.009489,1.000000,0.000879,-0.000023,0.000242,0.346383,0.594534,-0.366534,-0.626260,88.397649,29.389480,-93.493698
29442,-4.608329,9.249478,0.142126,0.081867,-0.529779,0.508280,0.023661,0.070121,0.004456,-0.046085,0.092494,0.001448,1.000000,0.000118,0.000351,0.000022,0.346533,0.594779,-0.366488,-0.625971,88.431599,29.381871,-93.441401
29443,-5.031499,9.323581,0.053971,0.189153,-0.200834,0.778439,-0.017062,0.046379,0.000550,-0.050315,0.093236,0.000543,1.000000,-0.000085,0.000232,0.000003,0.346691,0.594856,-0.366395,-0.625864,88.434836,29.376456,-93.414646
29444,-4.778657,9.378725,0.009746,0.230845,-0.447664,0.701227,-0.243581,0.032439,0.030153,-0.047801,0.093780,-0.000009,0.999999,-0.001218,0.000162,0.000151,0.347593,0.594440,-0.365707,-0.626162,88.303761,29.353526,-93.396607
29445,-4.499459,9.350800,0.196305,0.052976,-0.663160,0.544846,-0.249657,0.000898,0.074994,-0.045030,0.093493,0.001847,0.999999,-0.001248,0.000004,0.000375,0.348593,0.593834,-0.365185,-0.626486,88.159820,29.304757,-93.398209
29446,-4.631739,8.821900,0.427546,-0.149401,-0.271745,0.155538,-0.267897,0.037223,0.068437,-0.046347,0.088209,0.004166,0.999999,-0.001339,0.000186,0.000342,0.349748,0.593349,-0.364473,-0.626715,88.016795,29.260038,-93.366155
29447,-5.048469,7.856466,-0.441538,0.751566,0.533066,-0.509084,-0.175003,0.040035,0.039495,-0.050501,0.078551,-0.004474,1.000000,-0.000875,0.000200,0.000197,0.350485,0.593059,-0.364012,-0.626846,87.927900,29.232383,-93.342643
29448,-5.218574,7.885269,0.233266,0.088380,0.700922,-0.380494,0.142947,-0.044050,0.067632,-0.052213,0.078833,0.002378,1.000000,0.000715,-0.000220,0.000338,0.350271,0.593040,-0.364726,-0.626568,87.994287,29.186517,-93.363813
29449,-4.792215,7.989253,0.090420,0.200420,0.282411,-0.502385,0.184673,-0.071630,0.109062,-0.047966,0.079866,0.000961,0.999999,0.000923,-0.000358,0.000545,0.349956,0.592903,-0.365793,-0.626253,88.076507,29.116810,-93.412009
29450,-4.530855,8.308384,0.861766,-0.602176,-0.053184,-0.329281,0.420863,-0.090207,0.135992,-0.045369,0.083035,0.008772,0.999997,0.002104,-0.000451,0.000680,0.349046,0.593099,-0.367660,-0.625481,88.288122,29.031101,-93.462084
29451,-4.559934,8.837137,0.126084,0.101979,-0.302770,0.127217,0.411725,-0.016327,0.110315,-0.045648,0.088343,0.001439,0.999998,0.002059,-0.000082,0.000552,0.348160,0.593525,-0.369341,-0.624579,88.517901,28.961832,-93.474482
29452,-4.952578,9.386229,0.588265,-0.376902,-0.189226,0.807924,0.432040,-0.033749,0.103535,-0.049575,0.093824,0.006077,0.999998,0.002160,-0.000169,0.000518,0.347216,0.593971,-0.371045,-0.623671,88.753331,28.895883,-93.488867
29453,-4.626288,9.510287,0.964000,-0.799226,-0.499999,0.765053,0.243445,-0.051577,0.111763,-0.046319,0.095065,0.009744,0.999999,0.001217,-0.000258,0.000559,0.346766,0.593988,-0.372264,-0.623178,88.875333,28.825446,-93.524853
29454,-4.304177,8.947376,0.328241,-0.190490,-0.529341,0.105614,0.116157,-0.003635,0.104724,-0.043089,0.089449,0.003334,1.000000,0.000581,-0.000018,0.000524,0.346819,0.593975,-0.372932,-0.622762,88.939143,28.759233,-93.519836
29455,-4.540235,8.827726,0.036117,0.105866,-0.268886,0.110027,0.094192,0.042137,0.097743,-0.045445,0.088255,0.000412,1.000000,0.000471,0.000211,0.000489,0.346942,0.594050,-0.373482,-0.622292,89.004965,28.697878,-93.494940
29456,-4.826956,9.010694,0.056512,0.093978,-0.093384,0.408748,-0.004976,0.029311,0.099780,-0.048314,0.090083,0.000570,1.000000,-0.000025,0.000147,0.000499,0.347346,0.593905,-0.373753,-0.622042,89.009603,28.634810,-93.478632
29457,-4.842590,8.812913,-0.048671,0.206327,0.021531,0.241040,-0.089095,0.009360,0.119338,-0.048478,0.088100,-0.000524,1.000000,-0.000445,0.000047,0.000597,0.348019,0.593519,-0.373853,-0.621974,88.960219,28.560745,-93.474919
29458,-4.683424,8.450529,-0.175387,0.339069,0.061846,-0.155677,-0.147685,0.009925,0.134990,-0.046891,0.084472,-0.001814,0.999999,-0.000738,0.000050,0.000675,0.348919,0.593000,-0.373818,-0.621986,88.877272,28.477327,-93.470714
29459,-4.471812,8.323640,-0.386747,0.554824,-0.060086,-0.372445,-0.213329,0.050238,0.146745,-0.044780,0.083199,-0.003945,0.999999,-0.001067,0.000251,0.000734,0.350122,0.592471,-0.373541,-0.621980,88.769663,28.388054,-93.439774
29460,-4.472655,8.237742,0.111840,0.071796,0.020398,-0.438684,-0.154107,0.041842,0.140525,-0.044784,0.082347,0.001064,0.999999,-0.000771,0.000209,0.000703,0.351171,0.592061,-0.373394,-0.621868,88.693097,28.301887,-93.404377
29461,-4.461005,8.461097,-0.240534,0.433859,-0.100326,-0.254954,-0.179958,0.087126,0.115395,-0.044660,0.084583,-0.002462,0.999999,-0.000900,0.000436,0.000577,0.352246,0.591763,-0.373062,-0.621743,88.615782,28.231148,-93.349675
29462,-4.879170,8.122181,-0.232476,0.457814,0.440563,-0.356130,-0.104546,0.059387,0.121506,-0.048842,0.081191,-0.002353,1.000000,-0.000523,0.000297,0.000608,0.353121,0.591529,-0.372981,-0.621518,88.572909,28.156176,-93.302963
29463,-4.787992,8.012728,0.324229,-0.099829,0.450698,-0.484199,0.017586,0.011277,0.138686,-0.047935,0.080094,0.003252,1.000000,0.000088,0.000056,0.000693,0.353542,0.591299,-0.373465,-0.621207,88.585628,28.071081,-93.297116
29464,-4.603538,7.838476,0.147994,0.062308,0.376578,-0.729161,0.121098,0.008177,0.145781,-0.046092,0.078350,0.001529,1.000000,0.000605,0.000041,0.000729,0.353675,0.591226,-0.374298,-0.620699,88.656467,27.981502,-93.293387
29465,-4.621155,8.095220,0.419868,-0.222261,0.299168,-0.489329,0.226682,-0.005266,0.141121,-0.046269,0.080915,0.004289,0.999999,0.001133,-0.000026,0.000706,0.353453,0.591308,-0.375468,-0.620040,88.783849,27.894789,-93.298478
29466,-4.434810,8.840953,0.592819,-0.427891,-0.190349,0.084890,0.254318,-0.002453,0.137011,-0.044409,0.088371,0.006040,0.999999,0.001272,-0.000012,0.000685,0.353198,0.591485,-0.376654,-0.619297,88.927543,27.810117,-93.292142
29467,-4.331695,9.392689,0.295987,-0.155930,-0.538000,0.519787,0.079766,0.038966,0.125862,-0.043375,0.093898,0.003006,1.000000,0.000399,0.000195,0.000629,0.353445,0.591471,-0.377244,-0.618809,88.983836,27.732627,-93.269170
29468,-4.354501,9.601530,0.352523,-0.213375,-0.597836,0.716908,-0.092774,0.059575,0.133431,-0.043608,0.095988,0.003494,1.000000,-0.000464,0.000298,0.000667,0.354322,0.591233,-0.377235,-0.618542,88.947202,27.650640,-93.222929
29469,-4.492064,9.313439,0.358088,-0.196007,-0.328558,0.526587,-0.240541,0.065497,0.127948,-0.044979,0.093110,0.003484,0.999999,-0.001203,0.000327,0.000640,0.355572,0.590729,-0.376792,-0.618575,88.827911,27.572273,-93.182709
29470,-4.509785,8.767614,0.297099,-0.109762,-0.050910,0.050517,-0.279681,0.059249,0.117516,-0.045149,0.087654,0.002862,0.999999,-0.001398,0.000296,0.000588,0.356950,0.590186,-0.376158,-0.618686,88.684018,27.499500,-93.136622
29471,-4.512217,8.444866,0.045862,0.165659,0.099867,-0.239784,-0.314575,0.060837,0.106280,-0.045167,0.084425,0.000340,0.999999,-0.001573,0.000304,0.000531,0.358341,0.589574,-0.375429,-0.618908,88.520851,27.433658,-93.099365
29472,-4.664035,8.186286,0.012164,0.228443,0.362727,-0.400735,-0.254215,0.041261,0.112242,-0.046686,0.081837,0.000027,0.999999,-0.001271,0.000206,0.000561,0.359592,0.589028,-0.374888,-0.619030,88.386275,27.363797,-93.064578
29473,-4.586390,8.403422,0.242533,0.010840,0.214879,-0.238504,-0.133130,0.016928,0.127894,-0.045917,0.084006,0.002373,1.000000,-0.000666,0.000085,0.000639,0.360432,0.588563,-0.374862,-0.619000,88.314305,27.284998,-93.054948
29474,-4.308669,8.686414,0.308146,-0.055442,-0.146230,-0.112744,-0.121709,0.016585,0.127219,-0.043142,0.086839,0.003032,1.000000,-0.000609,0.000083,0.000636,0.361292,0.588149,-0.374819,-0.618918,88.248535,27.206224,-93.035572
29475,-4.435347,8.523490,0.106690,0.162377,0.044336,-0.205127,-0.168217,0.052797,0.099203,-0.044395,0.085214,0.001007,0.999999,-0.000841,0.000264,0.000496,0.362213,0.587785,-0.374534,-0.618898,88.166816,27.144520,-93.003222
29476,-4.857078,8.745556,0.406631,-0.107505,0.338821,0.193058,-0.054282,0.030426,0.091693,-0.048610,0.087434,0.004050,1.000000,-0.000271,0.000152,0.000458,0.362790,0.587602,-0.374570,-0.618713,88.143482,27.086356,-92.975483
29477,-4.529088,9.071439,0.871112,-0.579419,-0.074487,0.347096,-0.050804,0.010854,0.089025,-0.045331,0.090696,0.008691,1.000000,-0.000254,0.000054,0.000445,0.363255,0.587339,-0.374694,-0.618614,88.116638,27.029736,-92.970258
29478,-4.180787,9.242949,0.226286,0.061993,-0.477937,0.322893,-0.221280,0.055349,0.066213,-0.041838,0.092418,0.002172,0.999999,-0.001106,0.000277,0.000331,0.364236,0.586944,-0.374144,-0.618745,88.004629,26.986683,-92.936986
29479,-4.266507,9.421175,0.343765,-0.028593,-0.472404,0.524419,-0.272703,0.076817,0.057564,-0.042691,0.094204,0.003326,0.999999,-0.001364,0.000384,0.000288,0.365378,0.586539,-0.373368,-0.618924,87.869622,26.949453,-92.889902
29480,-4.421650,9.232877,0.453427,-0.105661,-0.239329,0.431046,-0.390448,0.074162,0.068272,-0.044246,0.092322,0.004370,0.999998,-0.001952,0.000371,0.000341,0.366950,0.585918,-0.372214,-0.619277,87.666244,26.905765,-92.834306
29481,-4.430288,8.412314,0.015330,0.350438,0.133505,-0.312478,-0.420284,0.064210,0.074918,-0.044334,0.084107,-0.000009,0.999998,-0.002101,0.000321,0.000375,0.368552,0.585168,-0.371053,-0.619732,87.443283,26.858573,-92.794595
29482,-4.403017,7.836206,0.168198,0.212074,0.382037,-0.833267,-0.327554,0.047707,0.086577,-0.044064,0.078346,0.001564,0.999999,-0.001638,0.000239,0.000433,0.369944,0.584543,-0.370193,-0.620007,87.268602,26.804002,-92.755113
29483,-4.347202,7.597386,0.238727,0.152012,0.450165,-1.069138,-0.206746,0.052884,0.092925,-0.043507,0.075956,0.002320,0.999999,-0.001034,0.000264,0.000465,0.370954,0.584115,-0.369765,-0.620062,87.165028,26.746400,-92.721827
29484,-4.479006,7.759126,0.185607,0.225748,0.502601,-0.868616,-0.112459,0.042306,0.104568,-0.044830,0.077569,0.001822,1.000000,-0.000562,0.000212,0.000523,0.371762,0.583836,-0.369633,-0.619919,87.112343,26.681509,-92.684977
29485,-4.753690,7.980416,0.559120,-0.127174,0.667752,-0.531786,0.032372,0.021569,0.111540,-0.047581,0.079777,0.005609,1.000000,0.000162,0.000108,0.000558,0.372074,0.583720,-0.370059,-0.619588,87.137013,26.612402,-92.671076
