// General information: 
//  MT Manager version: 2022.0.0 
//  XDA version: 2022.0.0 build 7085 rev 119802 built on 2022-11-08
// Device information: 
//  DeviceId: 00B472EC
//  ProductCode: MTW2-3A7G6
//  Firmware Version: 4.4.0
//  Hardware Version: 2.0.0
// Device settings: 
//  Filter Profile: human(46.1)
//  Option Flags: Orientation Smoother Disabled, Position/Velocity Smoother Disabled, Continuous Zero Rotation Update Disabled, AHS Disabled, ICC Disabled
// Coordinate system: ENU
PacketCounter,Acc_X,Acc_Y,Acc_Z,FreeAcc_E,FreeAcc_N,FreeAcc_U,Gyr_X,Gyr_Y,Gyr_Z,VelInc_X,VelInc_Y,VelInc_Z,OriInc_q0,OriInc_q1,OriInc_q2,OriInc_q3,Quat_q0,Quat_q1,Quat_q2,Quat_q3,Roll,Pitch,Yaw
02939,-9.449052,-2.222172,-1.345582,-0.906759,-1.586802,-0.184964,0.027319,-0.004983,-0.058322,-0.094497,-0.022192,-0.013461,1.000000,0.000137,-0.000025,-0.000292,-0.703974,0.170848,-0.683023,-0.093330,-85.659554,83.489976,-64.091969
02940,-9.424445,-2.144911,-0.497897,-0.149851,-1.203224,-0.210683,0.187674,0.003019,-0.033120,-0.094248,-0.021429,-0.004998,1.000000,0.000938,0.000015,-0.000166,-0.704156,0.170268,-0.683079,-0.092612,-85.545180,83.476469,-64.084597
02941,-9.467162,-1.896152,-0.581608,-0.324835,-0.997660,-0.197077,0.239089,0.025614,-0.028448,-0.094675,-0.018941,-0.005827,0.999999,0.001195,0.000128,-0.000142,-0.704308,0.169514,-0.683230,-0.091716,-85.502862,83.465296,-64.178434
02942,-9.549593,-1.144759,0.338308,0.254153,0.041691,-0.192223,0.381822,0.033526,-0.016897,-0.095496,-0.011446,0.003377,0.999998,0.001909,0.000168,-0.000084,-0.704540,0.168209,-0.683493,-0.090366,-85.423223,83.462436,-64.317990
02943,-9.724262,-0.136175,1.191645,0.680813,1.300710,-0.125351,0.300113,0.015417,-0.018984,-0.097242,-0.001370,0.011922,0.999999,0.001501,0.000077,-0.000095,-0.704771,0.167203,-0.683642,-0.089303,-85.291593,83.456210,-64.357120
02944,-10.089546,0.123561,1.198804,0.575447,1.581027,0.208318,0.105745,-0.042334,-0.046078,-0.100898,0.001253,0.011967,1.000000,0.000529,-0.000212,-0.000230,-0.705041,0.166936,-0.683487,-0.088857,-85.005284,83.433102,-64.129429
02945,-10.020506,-0.225883,0.720306,0.246933,1.079889,0.174968,-0.076863,-0.093418,-0.057238,-0.100209,-0.002227,0.007157,1.000000,-0.000384,-0.000467,-0.000286,-0.705346,0.167340,-0.683050,-0.089038,-84.568328,83.399520,-63.643811
02946,-9.753550,-1.079292,0.236842,0.100073,0.088909,0.002341,-0.187542,-0.119163,-0.061907,-0.097540,-0.010761,0.002320,0.999999,-0.000938,-0.000596,-0.000310,-0.705639,0.168126,-0.682479,-0.089603,-84.085355,83.362665,-63.048939
02947,-9.542623,-1.951981,-0.078813,0.115466,-0.855191,-0.110451,-0.122285,-0.133982,-0.045639,-0.095430,-0.019499,-0.000840,1.000000,-0.000611,-0.000670,-0.000228,-0.706038,0.168632,-0.681888,-0.090015,-83.480112,83.332244,-62.367640
02948,-9.146920,-2.408668,-0.577184,-0.176285,-1.500959,-0.457635,0.004331,-0.119832,-0.024625,-0.091469,-0.024075,-0.005827,1.000000,0.000022,-0.000599,-0.000123,-0.706477,0.168613,-0.681432,-0.090056,-82.873833,83.315185,-61.759237
02949,-9.220963,-2.610394,-0.531835,-0.077122,-1.666700,-0.360740,0.230550,-0.044300,-0.009884,-0.092210,-0.026093,-0.005369,0.999999,0.001153,-0.000221,-0.000049,-0.706851,0.167791,-0.681345,-0.089316,-82.487974,83.310048,-61.502290
02950,-9.746071,-2.235688,-0.276604,-0.012244,-1.174614,0.121135,0.444038,-0.003283,-0.048306,-0.097466,-0.022327,-0.002817,0.999998,0.002220,-0.000016,-0.000242,-0.707270,0.166352,-0.681475,-0.087678,-82.212854,83.287411,-61.480958
02951,-9.963245,-1.656197,-0.246466,-0.211422,-0.600232,0.270219,0.535627,0.003513,-0.079746,-0.099639,-0.016516,-0.002507,0.999996,0.002678,0.000018,-0.000399,-0.707760,0.164710,-0.681628,-0.085610,-81.931459,83.246012,-61.505152
02952,-9.731904,-0.911970,0.440620,0.177911,0.311593,-0.034802,0.670753,-0.010427,-0.071735,-0.097323,-0.009099,0.004371,0.999994,0.003354,-0.000052,-0.000359,-0.708391,0.162543,-0.681801,-0.083120,-81.510925,83.209476,-61.468193
02953,-9.597491,0.049536,0.910833,0.294899,1.355656,-0.272292,0.627197,-0.031343,-0.054073,-0.095976,0.000493,0.009095,0.999995,0.003136,-0.000157,-0.000270,-0.709051,0.160471,-0.681878,-0.080858,-80.997563,83.179639,-61.311619
02954,-9.606731,0.800667,0.903562,0.034314,2.054922,-0.351033,0.406661,-0.059362,-0.044709,-0.096068,0.008010,0.009023,0.999998,0.002033,-0.000297,-0.000224,-0.709613,0.159125,-0.681780,-0.079403,-80.482182,83.153805,-61.026733
02955,-9.487293,1.042283,0.929608,-0.019866,2.275463,-0.497049,0.132412,-0.103516,-0.021856,-0.094877,0.010427,0.009254,1.000000,0.000662,-0.000518,-0.000109,-0.710104,0.158667,-0.681422,-0.078999,-79.892334,83.134899,-60.507626
02956,-9.343229,0.517686,0.820378,0.046765,1.727415,-0.579553,-0.075654,-0.153480,0.021467,-0.093439,0.005170,0.008130,1.000000,-0.000378,-0.000767,0.000107,-0.710575,0.158770,-0.680849,-0.079497,-79.161478,83.135835,-59.727350
02957,-9.083785,-0.284110,0.420173,-0.065837,0.805937,-0.750761,-0.177097,-0.209134,0.073741,-0.090841,-0.002871,0.004109,0.999999,-0.000885,-0.001046,0.000369,-0.711141,0.159042,-0.680068,-0.080572,-78.169292,83.157250,-58.624462
02958,-8.704027,-0.992571,-0.047900,-0.263020,-0.068603,-1.056338,-0.184123,-0.225780,0.130898,-0.087033,-0.009983,-0.000568,0.999999,-0.000921,-0.001129,0.000654,-0.711726,0.159128,-0.679279,-0.081885,-77.044385,83.207412,-57.384815
02959,-8.594847,-1.488923,-0.163957,-0.210992,-0.601756,-1.111624,-0.095914,-0.177065,0.164378,-0.085935,-0.014961,-0.001708,0.999999,-0.000480,-0.000885,0.000822,-0.712207,0.158815,-0.678714,-0.082980,-76.032806,83.278752,-56.309476
02960,-9.148566,-1.724601,-0.445559,-0.440341,-0.881389,-0.544556,0.032576,-0.111723,0.130024,-0.091472,-0.017305,-0.004510,1.000000,0.000163,-0.000559,0.000650,-0.712574,0.158179,-0.678418,-0.083464,-75.287171,83.339584,-55.577037
02961,-10.049063,-1.795367,-0.516546,-0.549639,-0.897035,0.354272,0.158046,-0.060622,0.040881,-0.100485,-0.017970,-0.005210,1.000000,0.000790,-0.000303,0.000204,-0.712912,0.157429,-0.678275,-0.083165,-74.807337,83.356435,-55.183760
02962,-10.930345,-1.866606,-0.404847,-0.487316,-0.842099,1.240545,0.198091,-0.013426,-0.096395,-0.109312,-0.018609,-0.004074,0.999999,0.000990,-0.000067,-0.000482,-0.713169,0.157012,-0.678218,-0.082203,-74.712774,83.305556,-55.202341
02963,-10.999669,-2.234586,0.017048,0.014495,-1.027215,1.364564,0.259648,-0.024386,-0.182930,-0.110017,-0.022245,0.000128,0.999999,0.001298,-0.000122,-0.000915,-0.713554,0.156674,-0.678068,-0.080732,-74.635731,83.203903,-55.273205
02964,-10.207663,-2.356748,0.768174,0.799296,-0.956964,0.617368,0.405380,-0.036929,-0.170962,-0.102098,-0.023496,0.007615,0.999998,0.002027,-0.000185,-0.000855,-0.714081,0.155759,-0.677949,-0.078819,-74.410538,83.108266,-55.279844
02965,-9.333375,-1.835202,1.152649,1.038587,-0.421047,-0.296780,0.455234,-0.000286,-0.131698,-0.093346,-0.018317,0.011485,0.999997,0.002276,-0.000001,-0.000658,-0.714510,0.154559,-0.677998,-0.076848,-74.268773,83.038588,-55.398387
02966,-9.359014,-1.423522,1.383805,1.117770,0.047573,-0.311067,0.379478,0.064327,-0.115420,-0.093594,-0.014207,0.013841,0.999998,0.001897,0.000322,-0.000577,-0.714645,0.153586,-0.678268,-0.075142,-74.446429,82.989241,-55.795940
02967,-9.746616,-1.009456,1.329098,0.905725,0.465660,0.023208,0.286670,0.026625,-0.144537,-0.097472,-0.010043,0.013290,0.999999,0.001433,0.000133,-0.000723,-0.714853,0.153041,-0.678333,-0.073676,-74.533275,82.916516,-56.047515
02968,-9.645594,-0.679592,0.718116,0.226292,0.582190,-0.136694,0.119869,0.008809,-0.161980,-0.096461,-0.006722,0.007181,0.999999,0.000599,0.000044,-0.000810,-0.714991,0.153133,-0.678269,-0.072726,-74.661584,82.832799,-56.245553
02969,-9.429734,-0.550469,0.923176,0.389909,0.758694,-0.360307,0.072337,-0.006774,-0.144935,-0.094302,-0.005440,0.009227,1.000000,0.000362,-0.000034,-0.000725,-0.715147,0.153342,-0.678134,-0.072011,-74.717675,82.754716,-56.342442
02970,-9.279997,-0.794992,0.826507,0.379481,0.491735,-0.482754,-0.069795,-0.023215,-0.110958,-0.092805,-0.007896,0.008257,1.000000,-0.000349,-0.000116,-0.000555,-0.715229,0.153927,-0.677925,-0.071911,-74.750056,82.694312,-56.334287
02971,-9.286372,-1.548335,0.438616,0.242496,-0.332574,-0.396902,-0.163682,-0.012873,-0.079621,-0.092870,-0.015443,0.004393,1.000000,-0.000818,-0.000064,-0.000398,-0.715200,0.154756,-0.677732,-0.072235,-74.835748,82.651434,-56.324721
02972,-9.364386,-2.081608,0.346102,0.316378,-0.849582,-0.256395,-0.132279,0.013716,-0.054708,-0.093649,-0.020788,0.003481,1.000000,-0.000661,0.000069,-0.000274,-0.715088,0.155387,-0.677676,-0.072519,-74.995776,82.627658,-56.409174
02973,-9.474516,-2.137512,0.365753,0.346524,-0.878885,-0.139184,-0.084851,0.026128,-0.044386,-0.094749,-0.021353,0.003679,1.000000,-0.000424,0.000131,-0.000222,-0.714975,0.155830,-0.677678,-0.072671,-75.161407,82.610004,-56.525736
02974,-9.551430,-1.925285,0.387515,0.296966,-0.659467,-0.088305,-0.044419,0.031873,-0.043611,-0.095518,-0.019231,0.003895,1.000000,-0.000222,0.000159,-0.000218,-0.714865,0.156115,-0.677726,-0.072683,-75.334621,82.594963,-56.674255
02975,-9.443045,-1.575050,0.343253,0.154154,-0.351538,-0.240731,-0.030857,0.038544,-0.042574,-0.094433,-0.015730,0.003453,1.000000,-0.000154,0.000193,-0.000213,-0.714751,0.156363,-0.677793,-0.072649,-75.519059,82.579956,-56.840961
02976,-9.544544,-1.357053,0.388100,0.124376,-0.117005,-0.165855,-0.024347,0.068484,-0.030162,-0.095446,-0.013556,0.003915,1.000000,-0.000122,0.000342,-0.000151,-0.714528,0.156545,-0.677991,-0.072613,-75.820832,82.577433,-57.130731
02977,-9.722628,-0.966067,0.370290,-0.023498,0.268466,-0.038882,-0.032235,0.068552,-0.031648,-0.097227,-0.009645,0.003738,1.000000,-0.000161,0.000343,-0.000158,-0.714307,0.156772,-0.678173,-0.072598,-76.121089,82.572451,-57.413438
02978,-9.848966,-0.707695,0.283840,-0.190582,0.501181,0.051188,-0.093242,0.060691,-0.024684,-0.098490,-0.007063,0.002872,1.000000,-0.000466,0.000303,-0.000123,-0.714054,0.157179,-0.678321,-0.072821,-76.422873,82.571524,-57.663415
02979,-9.869247,-0.660679,0.444303,-0.051447,0.602790,0.070122,-0.135119,0.033191,-0.022080,-0.098692,-0.006593,0.004464,1.000000,-0.000676,0.000166,-0.000110,-0.713868,0.157727,-0.678347,-0.073218,-76.620616,82.566836,-57.783321
02980,-9.770558,-0.773329,0.388324,-0.059418,0.471089,-0.015383,-0.215045,0.017278,-0.027882,-0.097706,-0.007715,0.003900,0.999999,-0.001075,0.000086,-0.000139,-0.713666,0.158563,-0.678292,-0.073877,-76.809585,82.558161,-57.849151
02981,-9.716332,-1.169720,0.417638,0.100764,0.106629,-0.018391,-0.227643,0.015156,-0.036533,-0.097165,-0.011675,0.004197,0.999999,-0.001138,0.000076,-0.000183,-0.713472,0.159484,-0.678207,-0.074550,-76.997127,82.543005,-57.905337
02982,-9.545718,-1.503730,0.498625,0.299180,-0.194199,-0.142975,-0.217392,0.014594,-0.035678,-0.095459,-0.015015,0.005010,0.999999,-0.001087,0.000073,-0.000178,-0.713279,0.160353,-0.678134,-0.075190,-77.182952,82.529576,-57.966644
02983,-9.415751,-1.798220,0.284973,0.205796,-0.550270,-0.240540,-0.191435,0.036692,-0.035628,-0.094160,-0.017963,0.002884,1.000000,-0.000957,0.000183,-0.000178,-0.713039,0.161149,-0.678138,-0.075726,-77.439587,82.517578,-58.113441
02984,-9.524701,-1.885794,0.234035,0.184820,-0.632049,-0.122627,-0.127736,0.067914,-0.034787,-0.095249,-0.018840,0.002385,1.000000,-0.000639,0.000340,-0.000174,-0.712736,0.161716,-0.678289,-0.076023,-77.799178,82.511125,-58.401822
02985,-9.682197,-1.845620,0.526600,0.442830,-0.474143,0.036559,-0.081052,0.066749,-0.031321,-0.096823,-0.018439,0.005306,1.000000,-0.000405,0.000334,-0.000157,-0.712481,0.162115,-0.678445,-0.076176,-78.115544,82.504876,-58.672641
02986,-9.579684,-1.877593,0.454358,0.397752,-0.535188,-0.062944,-0.061956,0.056860,-0.029695,-0.095798,-0.018760,0.004577,1.000000,-0.000310,0.000284,-0.000148,-0.712266,0.162426,-0.678585,-0.076277,-78.384791,82.499576,-58.907920
02987,-9.535585,-1.729695,0.267095,0.180447,-0.460901,-0.130458,-0.050260,0.057576,-0.017935,-0.095357,-0.017288,0.002703,1.000000,-0.000251,0.000288,-0.000090,-0.712061,0.162667,-0.678730,-0.076380,-78.632017,82.499414,-59.126781
02988,-9.523050,-1.581019,0.270009,0.140156,-0.320335,-0.161846,-0.062693,0.050003,-0.000519,-0.095230,-0.015809,0.002729,1.000000,-0.000313,0.000250,-0.000003,-0.711858,0.162879,-0.678869,-0.076593,-78.847312,82.509479,-59.307217
02989,-9.604758,-1.455585,0.283907,0.110291,-0.188912,-0.096574,-0.094324,0.020963,0.011113,-0.096046,-0.014560,0.002856,1.000000,-0.000472,0.000105,0.000056,-0.711730,0.163164,-0.678890,-0.076978,-78.939261,82.521390,-59.343983
02990,-9.623464,-1.412355,0.205432,0.024204,-0.173963,-0.085552,-0.136221,0.014358,0.020081,-0.096233,-0.014132,0.002071,1.000000,-0.000681,0.000072,0.000100,-0.711579,0.163554,-0.678891,-0.077543,-79.027539,82.539038,-59.353814
02991,-9.727738,-1.493934,0.212373,0.054365,-0.237858,0.028364,-0.107929,0.020529,0.025430,-0.097275,-0.014951,0.002142,1.000000,-0.000540,0.000103,0.000127,-0.711436,0.163839,-0.678917,-0.078026,-79.114079,82.558933,-59.377258
02992,-9.791516,-1.542126,0.205144,0.062241,-0.280298,0.097488,-0.071305,0.003697,0.017894,-0.097914,-0.015429,0.002059,1.000000,-0.000357,0.000018,0.000089,-0.711375,0.164001,-0.678902,-0.078371,-79.121365,82.574194,-59.342921
02993,-9.640406,-1.636607,0.200048,0.100216,-0.389230,-0.040565,-0.035281,0.004427,0.018867,-0.096402,-0.016375,0.002005,1.000000,-0.000176,0.000022,0.000094,-0.711348,0.164044,-0.678893,-0.078598,-79.102495,82.588640,-59.302034
02994,-9.486451,-1.688511,0.337345,0.258334,-0.410711,-0.183451,0.011793,0.015681,0.023738,-0.094862,-0.016897,0.003380,1.000000,0.000059,0.000078,0.000119,-0.711312,0.163895,-0.678959,-0.078672,-79.109028,82.608487,-59.314951
02995,-9.416904,-1.800019,0.230253,0.201497,-0.562335,-0.241149,0.019789,0.021631,0.040578,-0.094165,-0.018020,0.002311,1.000000,0.000099,0.000108,0.000203,-0.711263,0.163676,-0.679051,-0.078774,-79.115080,82.636986,-59.331001
02996,-9.460590,-1.930225,0.210699,0.226804,-0.690450,-0.182279,0.042273,0.029195,0.051435,-0.094601,-0.019327,0.002117,1.000000,0.000211,0.000146,0.000257,-0.711195,0.163330,-0.679199,-0.078832,-79.140077,82.673877,-59.380141
02997,-9.482372,-1.840221,0.221849,0.208895,-0.605708,-0.172123,0.070221,0.030833,0.060456,-0.094818,-0.018432,0.002227,1.000000,0.000351,0.000154,0.000302,-0.711148,0.162867,-0.679359,-0.078826,-79.141291,82.714514,-59.420421
02998,-9.514348,-1.664215,0.354024,0.276662,-0.399653,-0.159631,0.091111,0.045964,0.074967,-0.095136,-0.016679,0.003555,1.000000,0.000456,0.000230,0.000375,-0.711053,0.162274,-0.679605,-0.078788,-79.193275,82.766449,-59.524964
02999,-9.610317,-1.334472,0.491899,0.294844,-0.041863,-0.102266,0.080329,0.028474,0.078233,-0.096097,-0.013384,0.004927,1.000000,0.000402,0.000142,0.000391,-0.711015,0.161714,-0.679775,-0.078813,-79.163916,82.816802,-59.540237
03000,-9.602463,-1.197534,0.401051,0.168877,0.045996,-0.129115,0.026677,0.024948,0.098207,-0.096018,-0.012023,0.004021,1.000000,0.000133,0.000125,0.000491,-0.710930,0.161263,-0.679939,-0.079094,-79.140061,82.879552,-59.531115
03001,-9.601197,-1.288387,0.421260,0.222781,-0.042484,-0.118930,-0.008532,0.013980,0.116321,-0.096004,-0.012940,0.004220,1.000000,-0.000043,0.000070,0.000582,-0.710854,0.160884,-0.680053,-0.079567,-79.062476,82.949770,-59.446477
03002,-9.676699,-1.481891,0.164483,0.045267,-0.313307,-0.026915,-0.067554,-0.001077,0.115601,-0.096758,-0.014874,0.001649,1.000000,-0.000338,-0.000005,0.000578,-0.710774,0.160698,-0.680100,-0.080251,-78.956776,83.019456,-59.300498
03003,-9.602596,-1.548657,-0.040952,-0.117161,-0.463989,-0.097707,-0.056405,-0.000296,0.113402,-0.096017,-0.015541,-0.000405,1.000000,-0.000282,-0.000001,0.000567,-0.710708,0.160493,-0.680142,-0.080889,-78.839737,83.086414,-59.148500
03004,-9.427737,-1.362278,0.148230,0.015131,-0.255095,-0.289311,-0.019047,0.031673,0.128727,-0.094268,-0.013683,0.001499,1.000000,-0.000095,0.000158,0.000644,-0.710550,0.160103,-0.680335,-0.081428,-78.842171,83.167058,-59.139475
03005,-9.515161,-1.000543,0.162736,-0.089484,0.086159,-0.244489,-0.023884,0.054808,0.128386,-0.095145,-0.010066,0.001655,1.000000,-0.000119,0.000274,0.000642,-0.710316,0.159754,-0.680596,-0.081964,-78.949474,83.248507,-59.232213
03006,-9.666611,-0.960027,0.245131,-0.022579,0.157560,-0.096734,-0.097360,0.112464,0.128592,-0.096659,-0.009661,0.002510,1.000000,-0.000487,0.000562,0.000643,-0.709819,0.159676,-0.681044,-0.082705,-79.387222,83.337779,-59.616326
03007,-10.374458,-0.733447,0.816823,0.409875,0.628182,0.592691,-0.070087,0.078953,0.064450,-0.103739,-0.007365,0.008212,1.000000,-0.000350,0.000395,0.000322,-0.709492,0.159718,-0.681320,-0.083151,-79.705192,83.385603,-59.894483
03008,-10.097555,-0.699074,0.071442,-0.278757,0.376017,0.298461,-0.343565,0.024322,0.035261,-0.100974,-0.007007,0.000739,0.999999,-0.001718,0.000122,0.000176,-0.709135,0.160794,-0.681276,-0.084470,-79.951096,83.412799,-59.943382
03009,-9.980323,-1.144041,0.689926,0.464706,0.157396,0.244695,-0.291228,0.006672,0.074301,-0.099799,-0.011467,0.006919,0.999999,-0.001456,0.000033,0.000372,-0.708871,0.161556,-0.681210,-0.085762,-80.039151,83.458768,-59.862545
03010,-10.019091,-1.388655,0.426646,0.301905,-0.162511,0.305367,-0.381836,-0.058409,0.044159,-0.100189,-0.013901,0.004264,0.999998,-0.001909,-0.000292,0.000221,-0.708757,0.162701,-0.680859,-0.087309,-79.892511,83.482711,-59.494260
03011,-9.713719,-2.184632,-0.326835,-0.108170,-1.200504,0.075834,-0.434812,-0.034612,0.023091,-0.097134,-0.021865,-0.003238,0.999998,-0.002174,-0.000173,0.000115,-0.708534,0.164128,-0.680538,-0.088941,-79.902479,83.495617,-59.252026
03012,-9.699963,-2.518166,0.308503,0.608794,-1.289337,0.111656,-0.179842,-0.006029,0.023164,-0.096997,-0.025190,0.003105,1.000000,-0.000899,-0.000030,0.000116,-0.708412,0.164650,-0.680441,-0.089682,-79.916008,83.512934,-59.161451
03013,-9.670786,-2.410701,-0.200644,0.100364,-1.373803,0.060430,-0.135628,0.002830,0.001496,-0.096708,-0.024109,-0.001989,1.000000,-0.000678,0.000014,0.000007,-0.708314,0.165108,-0.680365,-0.090189,-79.958924,83.517338,-59.124870
03014,-9.370414,-2.311576,-0.239844,0.048456,-1.327056,-0.250149,0.048485,0.013864,0.037836,-0.093700,-0.023133,-0.002398,1.000000,0.000242,0.000069,0.000189,-0.708306,0.164781,-0.680453,-0.090189,-79.927373,83.544930,-59.120591
03015,-9.222195,-1.725594,0.491900,0.536208,-0.543233,-0.448613,0.190381,0.032326,0.094384,-0.092213,-0.017304,0.004917,0.999999,0.000952,0.000162,0.000472,-0.708333,0.163781,-0.680705,-0.089891,-79.848376,83.604612,-59.149262
03016,-9.414171,-1.124080,0.266707,0.107778,-0.054661,-0.328665,0.142895,0.035785,0.089406,-0.094136,-0.011285,0.002676,1.000000,0.000714,0.000179,0.000447,-0.708304,0.162954,-0.680954,-0.089734,-79.826289,83.663502,-59.208934
03017,-9.670475,-0.774302,0.314379,0.021456,0.304186,-0.110962,0.065747,0.055304,0.085315,-0.096701,-0.007785,0.003168,1.000000,0.000329,0.000277,0.000427,-0.708155,0.162437,-0.681223,-0.089809,-79.944666,83.720362,-59.364314
03018,-10.123139,-0.571721,0.584491,0.185030,0.624989,0.322478,0.002491,0.048590,0.047366,-0.101229,-0.005741,0.005869,1.000000,0.000012,0.000243,0.000237,-0.707986,0.162256,-0.681420,-0.089972,-80.109680,83.756777,-59.531271
03019,-10.083438,-0.780041,0.168482,-0.125761,0.278346,0.297667,-0.114664,0.010804,0.008955,-0.100834,-0.007804,0.001695,1.000000,-0.000573,0.000054,0.000045,-0.707876,0.162618,-0.681388,-0.090427,-80.174059,83.766127,-59.528345
03020,-9.568677,-0.884285,0.283233,0.047386,0.171329,-0.200707,-0.066575,-0.011111,0.027942,-0.095686,-0.008855,0.002830,1.000000,-0.000333,-0.000056,0.000140,-0.707863,0.162720,-0.681327,-0.090804,-80.088741,83.785682,-59.403666
03021,-9.190551,-0.697743,0.504140,0.209819,0.383531,-0.592270,-0.024377,-0.005282,0.051128,-0.091904,-0.007000,0.005040,1.000000,-0.000122,-0.000026,0.000256,-0.707862,0.162611,-0.681313,-0.091115,-79.979153,83.817261,-59.277798
03022,-9.180551,-0.542372,0.461213,0.118032,0.506281,-0.619258,-0.022188,0.016897,0.065004,-0.091803,-0.005453,0.004620,1.000000,-0.000111,0.000084,0.000325,-0.707773,0.162443,-0.681401,-0.091449,-79.978800,83.860483,-59.264173
03023,-9.263512,-0.602049,0.487752,0.162579,0.461941,-0.529735,0.027455,0.023080,0.064337,-0.092633,-0.006051,0.004887,1.000000,0.000137,0.000115,0.000322,-0.707711,0.162117,-0.681522,-0.091606,-79.974378,83.902364,-59.273975
03024,-9.249349,-0.689806,0.395052,0.111346,0.339897,-0.536135,0.071206,0.027563,0.067167,-0.092491,-0.006931,0.003961,1.000000,0.000356,0.000138,0.000336,-0.707660,0.161616,-0.681691,-0.091621,-79.974811,83.947871,-59.314955
03025,-9.343320,-0.634930,0.610121,0.292498,0.469332,-0.444273,0.121206,0.041514,0.064983,-0.093430,-0.006383,0.006117,1.000000,0.000606,0.000208,0.000325,-0.707610,0.160965,-0.681921,-0.091447,-80.014622,83.991984,-59.423265
03026,-9.639245,-0.400837,0.735210,0.317455,0.753394,-0.171740,0.100928,0.053385,0.033674,-0.096390,-0.004028,0.007376,1.000000,0.000505,0.000267,0.000168,-0.707510,0.160485,-0.682168,-0.091221,-80.169740,84.021123,-59.636897
03027,-9.849436,-0.338924,0.508123,0.077920,0.748932,0.026900,-0.006339,0.066817,0.008413,-0.098493,-0.003393,0.005114,1.000000,-0.000032,0.000334,0.000042,-0.707297,0.160489,-0.682382,-0.091262,-80.474448,84.035697,-59.938076
03028,-9.840453,-0.421618,0.379325,-0.007645,0.626310,0.024174,-0.091758,0.054336,0.006606,-0.098403,-0.004218,0.003822,1.000000,-0.000459,0.000272,0.000033,-0.707051,0.160783,-0.682523,-0.091597,-80.773206,84.049415,-60.185114
03029,-9.529626,-0.672297,0.364974,0.086765,0.359274,-0.259554,-0.147429,0.028052,0.028591,-0.095295,-0.006734,0.003668,1.000000,-0.000737,0.000140,0.000143,-0.706848,0.161199,-0.682552,-0.092221,-80.933056,84.071632,-60.259385
03030,-9.332473,-1.041333,0.457706,0.317668,0.027939,-0.416559,-0.176198,0.027340,0.058545,-0.093321,-0.010437,0.004599,1.000000,-0.000881,0.000137,0.000293,-0.706601,0.161601,-0.682599,-0.093049,-81.090588,84.112153,-60.315781
03031,-9.461839,-1.407292,0.270713,0.271217,-0.371263,-0.253987,-0.140035,0.039833,0.058438,-0.094614,-0.014099,0.002736,1.000000,-0.000700,0.000199,0.000292,-0.706349,0.161894,-0.682696,-0.093744,-81.287719,84.152269,-60.431787
03032,-9.429701,-1.387791,0.097745,0.111485,-0.421342,-0.290880,-0.059746,0.055784,0.051597,-0.094293,-0.013902,0.001008,1.000000,-0.000299,0.000279,0.000258,-0.706102,0.161922,-0.682892,-0.094128,-81.545804,84.191244,-60.656320
03033,-9.207729,-1.070462,0.330697,0.235092,-0.066932,-0.540268,0.021586,0.070137,0.074630,-0.092072,-0.010739,0.003338,1.000000,0.000108,0.000351,0.000373,-0.705868,0.161603,-0.683185,-0.094303,-81.811923,84.242924,-60.934715
03034,-9.283674,-0.745692,0.631932,0.407386,0.344414,-0.492955,0.074620,0.106540,0.071175,-0.092831,-0.007492,0.006366,1.000000,0.000373,0.000533,0.000356,-0.705547,0.161114,-0.683638,-0.094256,-82.272642,84.296783,-61.440233
03035,-9.812355,-0.567697,0.821937,0.509671,0.622009,0.017546,-0.001394,0.150765,0.039706,-0.098116,-0.005696,0.008293,1.000000,-0.000007,0.000754,0.000199,-0.705036,0.161033,-0.684176,-0.094322,-83.051406,84.334035,-62.220521
03036,-10.506758,-0.290055,0.498481,0.090919,0.830022,0.676706,-0.193822,0.134677,-0.031394,-0.105065,-0.002879,0.005058,0.999999,-0.000969,0.000673,-0.000157,-0.704450,0.161854,-0.684518,-0.094808,-83.913566,84.330051,-62.974837
03037,-10.483155,-0.167900,0.212726,-0.209387,0.848999,0.637448,-0.459188,0.093594,-0.079550,-0.104831,-0.001632,0.002180,0.999997,-0.002296,0.000468,-0.000398,-0.703817,0.163767,-0.684538,-0.096066,-84.705034,84.293865,-63.504325
03038,-10.061972,-0.509151,0.073437,-0.193125,0.453359,0.250367,-0.544697,0.032496,-0.055098,-0.100621,-0.005062,0.000765,0.999996,-0.002723,0.000162,-0.000275,-0.703300,0.165854,-0.684329,-0.097752,-85.189862,84.269293,-63.677446
03039,-9.498060,-0.971183,-0.245413,-0.292325,-0.137568,-0.267417,-0.530969,0.011908,-0.022189,-0.094982,-0.009708,-0.002423,0.999996,-0.002655,0.000060,-0.000111,-0.702851,0.167780,-0.684065,-0.099523,-85.520584,84.261169,-63.702617
03040,-9.388177,-1.440590,-0.631212,-0.464198,-0.722781,-0.332514,-0.469303,0.045126,-0.015384,-0.093884,-0.014413,-0.006257,0.999997,-0.002347,0.000226,-0.000077,-0.702325,0.169471,-0.683961,-0.101078,-86.013150,84.259579,-63.926936
03041,-9.524841,-1.865937,-0.464124,-0.145263,-1.035694,-0.152151,-0.315429,0.088689,-0.037946,-0.095254,-0.018649,-0.004570,0.999999,-0.001577,0.000443,-0.000190,-0.701796,0.170731,-0.684055,-0.101991,-86.661414,84.245195,-64.395387
03042,-9.755852,-1.781749,-0.257173,0.014596,-0.850615,0.071322,-0.134611,0.095720,-0.075618,-0.097566,-0.017782,-0.002513,1.000000,-0.000673,0.000479,-0.000378,-0.701408,0.171477,-0.684243,-0.102147,-87.265020,84.210209,-64.924066
03043,-9.483943,-1.695731,-0.032475,0.207821,-0.700988,-0.206068,-0.020378,0.090987,-0.081036,-0.094846,-0.016919,-0.000280,1.000000,-0.000102,0.000455,-0.000405,-0.701143,0.171851,-0.684458,-0.101897,-87.760125,84.170196,-65.408528
03044,-9.175706,-1.666205,0.540354,0.744251,-0.477403,-0.513226,0.147022,0.096334,-0.044085,-0.091758,-0.016646,0.005435,1.000000,0.000735,0.000482,-0.000220,-0.700978,0.171502,-0.684818,-0.101199,-88.187416,84.152346,-65.922240
03045,-9.362392,-1.604975,0.605770,0.778823,-0.375015,-0.333760,0.222086,0.113111,-0.031011,-0.093623,-0.016042,0.006093,0.999999,0.001110,0.000566,-0.000155,-0.700819,0.170866,-0.685275,-0.100275,-88.649513,84.140519,-66.513171
03046,-9.483679,-1.319461,0.576492,0.645320,-0.108353,-0.242666,0.292280,0.112667,-0.040379,-0.094836,-0.013184,0.005799,0.999999,0.001461,0.000563,-0.000202,-0.700718,0.170003,-0.685767,-0.099078,-89.078910,84.124168,-67.112692
03047,-9.523649,-0.856493,0.523686,0.429111,0.307041,-0.250821,0.302801,0.133825,-0.040768,-0.095235,-0.008553,0.005288,0.999999,0.001514,0.000669,-0.000204,-0.700560,0.169128,-0.686325,-0.097825,-89.605023,84.105891,-67.814501
03048,-9.702512,-0.505469,0.242633,0.040829,0.550001,-0.109650,0.220613,0.142022,-0.047244,-0.097025,-0.005034,0.002490,0.999999,0.001103,0.000710,-0.000236,-0.700298,0.168553,-0.686876,-0.096825,-90.231376,84.084505,-68.570787
03049,-9.663997,-0.447074,0.284182,0.069085,0.623188,-0.154513,0.179014,0.137345,-0.050961,-0.096639,-0.004449,0.002904,0.999999,0.000895,0.000687,-0.000255,-0.700025,0.168146,-0.687375,-0.095958,-90.838103,84.058914,-69.282396
03050,-9.539786,-0.314470,0.377301,0.121135,0.775367,-0.292557,0.118092,0.124832,-0.049887,-0.095396,-0.003123,0.003831,1.000000,0.000590,0.000624,-0.000249,-0.699735,0.167931,-0.687812,-0.095315,-91.417812,84.034570,-69.932793
03051,-9.648296,-0.186741,0.355533,0.059192,0.903293,-0.198561,-0.020254,0.119413,-0.041065,-0.096481,-0.001847,0.003613,1.000000,-0.000101,0.000597,-0.000205,-0.699351,0.168179,-0.688160,-0.095184,-92.031140,84.013491,-70.536324
03052,-9.872856,-0.460385,0.132376,-0.048191,0.598075,0.053554,-0.157588,0.101017,-0.058917,-0.098729,-0.004574,0.001377,1.000000,-0.000788,0.000505,-0.000295,-0.698915,0.168947,-0.688374,-0.095477,-92.626869,83.983123,-71.044064
03053,-9.980790,-1.499686,-0.442529,-0.198069,-0.554304,0.272676,-0.172443,0.100992,-0.075491,-0.099816,-0.014963,-0.004362,0.999999,-0.000862,0.000505,-0.000377,-0.698482,0.169835,-0.688556,-0.095764,-93.207694,83.941637,-71.527368
03054,-9.885572,-2.222138,-0.560484,-0.032550,-1.264487,0.255906,0.000823,0.081318,-0.096385,-0.098869,-0.022174,-0.005565,1.000000,0.000004,0.000407,-0.000482,-0.698265,0.170170,-0.688744,-0.095398,-93.582729,83.889525,-71.904518
03055,-9.532671,-2.160866,-0.741136,-0.209257,-1.299168,-0.098841,0.157132,0.093521,-0.099984,-0.095341,-0.021555,-0.007384,0.999999,0.000786,0.000468,-0.000500,-0.698147,0.169989,-0.689035,-0.094470,-93.913247,83.833522,-72.326023
03056,-9.526681,-1.315380,-0.512188,-0.303237,-0.422915,-0.196067,0.273818,0.126895,-0.088284,-0.095276,-0.013105,-0.005079,0.999999,0.001369,0.000634,-0.000441,-0.698000,0.169363,-0.689517,-0.093153,-94.362260,83.783642,-72.934993
03057,-9.592696,-0.163970,-0.187982,-0.416277,0.779455,-0.257522,0.228074,0.136354,-0.092898,-0.095929,-0.001593,-0.001816,0.999999,0.001140,0.000682,-0.000464,-0.697790,0.168930,-0.689996,-0.091969,-94.864158,83.728996,-73.569864
03058,-9.958723,0.299509,0.316958,-0.116485,1.442237,0.050005,0.107462,0.121292,-0.097594,-0.099584,0.003042,0.003232,1.000000,0.000537,0.000606,-0.000488,-0.697523,0.168914,-0.690371,-0.091198,-95.357032,83.672980,-74.127193
03059,-10.076848,0.094600,0.496353,0.124851,1.341515,0.186459,-0.026037,0.048659,-0.112037,-0.100767,0.001003,0.004988,1.000000,-0.000130,0.000243,-0.000560,-0.697408,0.169391,-0.690410,-0.090898,-95.527683,83.611285,-74.282519
03060,-9.794103,-0.711822,0.169845,0.118606,0.457476,-0.002660,-0.132096,0.012454,-0.124080,-0.097945,-0.007056,0.001709,1.000000,-0.000660,0.000062,-0.000620,-0.697326,0.170252,-0.690274,-0.090953,-95.578779,83.545730,-74.257290
03061,-9.556349,-1.328849,-0.618837,-0.388307,-0.414773,-0.161274,-0.150943,0.004343,-0.126022,-0.095572,-0.013233,-0.006176,1.000000,-0.000755,0.000022,-0.000630,-0.697264,0.171193,-0.690088,-0.091074,-95.587343,83.478552,-74.177449
03062,-9.590190,-1.303881,-1.122444,-0.868409,-0.560986,-0.124402,-0.143628,0.027191,-0.130220,-0.095912,-0.012984,-0.011202,1.000000,-0.000718,0.000136,-0.000651,-0.697122,0.172122,-0.689992,-0.091134,-95.714688,83.408670,-74.222313
03063,-9.992608,-1.307071,-1.103382,-0.861903,-0.499559,0.276200,-0.137681,0.050705,-0.158426,-0.099939,-0.012999,-0.011000,0.999999,-0.000688,0.000254,-0.000792,-0.696924,0.173149,-0.689945,-0.091056,-95.926551,83.320350,-74.354825
03064,-9.802483,-1.658324,-1.109488,-0.733497,-0.831875,0.129124,-0.086607,0.037090,-0.177883,-0.098042,-0.016501,-0.011070,0.999999,-0.000433,0.000185,-0.000889,-0.696819,0.174048,-0.689867,-0.090745,-96.040321,83.222687,-74.418933
03065,-9.780337,-1.768727,-0.723427,-0.336806,-0.777494,0.116500,0.083589,0.039448,-0.181686,-0.097821,-0.017595,-0.007222,0.999999,0.000418,0.000197,-0.000908,-0.696861,0.174378,-0.689861,-0.089831,-96.054100,83.121701,-74.479731
03066,-9.739090,-1.350874,-0.220768,-0.026859,-0.194173,0.020166,0.187286,0.032632,-0.210241,-0.097405,-0.013404,-0.002204,0.999999,0.000936,0.000163,-0.001051,-0.697022,0.174432,-0.689861,-0.088466,-95.971759,83.005864,-74.504396
03067,-9.617252,-0.948450,-0.161604,-0.121403,0.204039,-0.150348,0.211207,0.039186,-0.219013,-0.096183,-0.009377,-0.001607,0.999999,0.001056,0.000196,-0.001095,-0.697190,0.174446,-0.689876,-0.086983,-95.893207,82.883623,-74.545837
03068,-9.708845,-0.501947,-0.057350,-0.195384,0.685077,-0.116845,0.201442,0.027998,-0.222607,-0.097094,-0.004911,-0.000565,0.999999,0.001007,0.000140,-0.001113,-0.697382,0.174491,-0.689852,-0.085530,-95.778074,82.761018,-74.545640
03069,-9.669245,-0.232105,0.242047,-0.019362,1.057793,-0.195650,0.102628,0.009733,-0.232599,-0.096695,-0.002210,0.002424,0.999999,0.000513,0.000049,-0.001163,-0.697560,0.174917,-0.689703,-0.084398,-95.627116,82.632774,-74.451409
03070,-9.536756,-0.255976,0.333700,0.070360,1.070991,-0.327194,0.004730,-0.027169,-0.219620,-0.095371,-0.002455,0.003324,0.999999,0.000024,-0.000136,-0.001098,-0.697767,0.175613,-0.689404,-0.083682,-95.389947,82.514908,-74.214482
03071,-9.462595,-0.177402,0.323777,0.024775,1.148209,-0.412795,-0.109421,-0.036264,-0.219266,-0.094628,-0.001669,0.003222,0.999999,-0.000547,-0.000181,-0.001096,-0.697911,0.176712,-0.689016,-0.083368,-95.177598,82.396694,-73.935774
03072,-9.638018,-0.267624,-0.004128,-0.265438,0.987040,-0.225285,-0.232002,-0.026060,-0.237864,-0.096383,-0.002562,-0.000051,0.999999,-0.001160,-0.000130,-0.001189,-0.697911,0.178297,-0.688604,-0.083403,-95.087054,82.268161,-73.709801
03073,-9.797297,-0.612371,-0.406642,-0.532140,0.563598,-0.018479,-0.296725,-0.031604,-0.262694,-0.097980,-0.006001,-0.004073,0.999998,-0.001484,-0.000158,-0.001313,-0.697887,0.180199,-0.688111,-0.083579,-94.998351,82.124853,-73.447443
03074,-9.778480,-0.800621,-0.465901,-0.528832,0.388273,-0.012368,-0.287578,-0.038844,-0.287947,-0.097795,-0.007872,-0.004667,0.999998,-0.001438,-0.000194,-0.001440,-0.697897,0.182143,-0.687581,-0.083641,-94.880975,81.968262,-73.162070
03075,-9.553200,-1.081718,-0.497972,-0.457490,0.111982,-0.197085,-0.286046,-0.030808,-0.306389,-0.095548,-0.010678,-0.004979,0.999998,-0.001430,-0.000154,-0.001532,-0.697892,0.184157,-0.687051,-0.083626,-94.788570,81.799885,-72.901997
03076,-9.545378,-1.465792,-0.424358,-0.256883,-0.187964,-0.151348,-0.232201,-0.014942,-0.324526,-0.095477,-0.014508,-0.004234,0.999998,-0.001161,-0.000075,-0.001623,-0.697881,0.186043,-0.686589,-0.083347,-94.736130,81.621149,-72.714071
03077,-9.613774,-1.644630,-0.209210,-0.003779,-0.232006,-0.059776,-0.166196,0.007775,-0.353984,-0.096167,-0.016278,-0.002075,0.999998,-0.000831,0.000039,-0.001770,-0.697869,0.187816,-0.686194,-0.082719,-94.721230,81.423712,-72.601568
03078,-9.591425,-1.655549,0.258487,0.424116,-0.037108,-0.085317,-0.084962,0.010328,-0.364612,-0.095944,-0.016379,0.002597,0.999998,-0.000425,0.000052,-0.001823,-0.697920,0.189335,-0.685838,-0.081771,-94.676386,81.220870,-72.506475
03079,-9.556931,-1.336733,0.400239,0.425885,0.335386,-0.169659,-0.114435,-0.000879,-0.358081,-0.095593,-0.013194,0.004010,0.999998,-0.000572,-0.000004,-0.001790,-0.697983,0.190937,-0.685426,-0.080957,-94.605958,81.021458,-72.367668
03080,-9.571863,-0.992742,0.261735,0.156203,0.632003,-0.207966,-0.256069,-0.002843,-0.363266,-0.095736,-0.009750,0.002629,0.999998,-0.001280,-0.000014,-0.001816,-0.697910,0.193041,-0.684951,-0.080612,-94.618610,80.819970,-72.231415
03081,-9.570852,-0.864216,0.190393,0.029762,0.754231,-0.230701,-0.404706,-0.020581,-0.354362,-0.095724,-0.008469,0.001911,0.999996,-0.002024,-0.000103,-0.001772,-0.697753,0.195633,-0.684350,-0.080825,-94.652637,80.623620,-72.029797
03082,-9.548021,-1.130804,0.154123,0.087508,0.525748,-0.211489,-0.516357,-0.029253,-0.349202,-0.095500,-0.011137,0.001556,0.999995,-0.002582,-0.000146,-0.001746,-0.697503,0.198584,-0.683682,-0.081445,-94.731979,80.431431,-71.809807
03083,-9.448955,-1.650487,-0.012785,0.129524,0.005208,-0.221539,-0.566995,-0.039113,-0.345805,-0.094518,-0.016342,-0.000100,0.999994,-0.002835,-0.000196,-0.001729,-0.697234,0.201701,-0.682946,-0.082259,-94.804604,80.240961,-71.552823
03084,-9.324538,-2.115181,0.112332,0.425793,-0.353987,-0.266645,-0.509414,-0.025422,-0.341569,-0.093281,-0.020990,0.001165,0.999995,-0.002547,-0.000127,-0.001708,-0.696961,0.204599,-0.682288,-0.082876,-94.900139,80.053046,-71.353058
03085,-9.283945,-2.084395,0.160851,0.454176,-0.280636,-0.311263,-0.427754,-0.011710,-0.346898,-0.092876,-0.020679,0.001647,0.999996,-0.002139,-0.000059,-0.001734,-0.696727,0.207243,-0.681691,-0.083182,-94.987433,79.860708,-71.191695
03086,-9.592967,-1.716343,0.045959,0.178144,0.090229,-0.069332,-0.399226,0.018515,-0.369938,-0.095961,-0.016985,0.000502,0.999996,-0.001996,0.000093,-0.001850,-0.696418,0.209869,-0.681191,-0.083277,-95.154329,79.654510,-71.128361
03087,-9.807485,-1.478855,0.016304,0.034585,0.365562,0.098874,-0.400857,0.019824,-0.413912,-0.098105,-0.014585,0.000202,0.999996,-0.002004,0.000099,-0.002070,-0.696122,0.212657,-0.680635,-0.083224,-95.305919,79.422413,-71.047841
03088,-9.496381,-1.552780,-0.398185,-0.304110,0.115308,-0.187460,-0.435421,0.025968,-0.439877,-0.094998,-0.015327,-0.003936,0.999995,-0.002177,0.000130,-0.002199,-0.695767,0.215647,-0.680062,-0.083190,-95.492572,79.175986,-70.983414
03089,-9.769546,-2.003699,-0.620057,-0.346698,-0.288757,0.169275,-0.394467,0.039074,-0.465720,-0.097743,-0.019822,-0.006142,0.999995,-0.001972,0.000195,-0.002329,-0.695422,0.218593,-0.679508,-0.082913,-95.678554,78.913383,-70.941549
03090,-10.591662,-2.861909,-0.720811,-0.146567,-0.896745,1.144844,-0.228695,0.041226,-0.523569,-0.105993,-0.028350,-0.007154,0.999996,-0.001143,0.000206,-0.002618,-0.695263,0.221150,-0.678970,-0.081867,-95.762614,78.618443,-70.893167
03091,-10.816283,-3.857203,-0.819085,0.137793,-1.723108,1.569420,0.155340,0.006735,-0.610838,-0.108280,-0.038235,-0.008217,0.999995,0.000777,0.000034,-0.003054,-0.695681,0.222661,-0.678358,-0.079253,-95.504715,78.274886,-70.719688
03092,-10.055813,-3.736163,-0.805131,0.109082,-1.695159,0.809955,0.613832,0.022219,-0.679047,-0.100685,-0.036995,-0.008154,0.999990,0.003069,0.000111,-0.003395,-0.696567,0.222803,-0.677904,-0.074827,-95.029754,77.892174,-70.593222
03093,-9.457072,-2.409342,-0.182080,0.132300,-0.318037,-0.057935,0.946752,0.078107,-0.706678,-0.094656,-0.023750,-0.001897,0.999982,0.004734,0.000391,-0.003533,-0.697632,0.221903,-0.677711,-0.069112,-94.518686,77.489911,-70.624203
03094,-9.587616,-0.684330,0.640251,0.157452,1.636589,-0.320741,1.074160,0.112582,-0.737124,-0.095897,-0.006524,0.006421,0.999979,0.005371,0.000563,-0.003686,-0.698700,0.220656,-0.677631,-0.062818,-94.035082,77.069762,-70.758874
03095,-10.156071,0.681219,0.786723,-0.295479,3.101374,-0.090423,1.023984,0.108470,-0.822395,-0.101527,0.007189,0.007958,0.999978,0.005120,0.000542,-0.004112,-0.699728,0.219871,-0.677389,-0.056398,-93.562220,76.600433,-70.874686
03096,-11.035057,1.720887,0.626614,-0.913738,4.249028,0.494421,0.911313,0.100179,-0.970568,-0.110262,0.017715,0.006401,0.999978,0.004557,0.000501,-0.004853,-0.700667,0.219962,-0.676903,-0.049849,-93.129228,76.047710,-70.965948
03097,-11.702895,2.490730,0.602685,-1.286494,5.190842,0.907542,0.765784,0.085331,-1.133175,-0.116883,0.025546,0.006174,0.999977,0.003829,0.000427,-0.005666,-0.701511,0.221104,-0.676111,-0.043237,-92.734966,75.401976,-71.010940
03098,-11.562554,2.331134,1.088492,-0.785408,5.314522,0.744250,0.727527,0.090710,-1.257889,-0.115471,0.023998,0.011024,0.999974,0.003638,0.000454,-0.006289,-0.702280,0.222787,-0.675167,-0.036308,-92.380043,74.685386,-71.074536
03099,-11.262395,1.516543,1.238275,-0.355563,4.688341,0.606818,0.725761,0.133334,-1.314827,-0.112513,0.015860,0.012515,0.999972,0.003629,0.000667,-0.006574,-0.702883,0.224667,-0.674264,-0.029137,-92.115114,73.935160,-71.230594
03100,-11.150076,0.312921,1.217506,0.026961,3.698308,0.780928,0.752365,0.206385,-1.284218,-0.111465,0.003799,0.012304,0.999972,0.003762,0.001032,-0.006421,-0.703219,0.226345,-0.673626,-0.021899,-91.984457,73.201294,-71.543301
03101,-10.747033,-1.231866,1.492086,0.815411,2.414273,0.805593,0.878429,0.211445,-1.159244,-0.107524,-0.011761,0.014982,0.999973,0.004392,0.001057,-0.005796,-0.703635,0.227147,-0.673117,-0.014671,-91.788418,72.539281,-71.864331
03102,-10.347091,-1.795817,1.543414,1.060382,1.901221,0.576241,1.082303,0.223336,-0.899197,-0.103533,-0.017576,0.015454,0.999975,0.005411,0.001117,-0.004496,-0.704181,0.226346,-0.672933,-0.007656,-91.511955,72.026280,-72.224587
03103,-10.001814,-1.577365,2.045360,1.480389,2.207270,0.169508,1.516784,0.195011,-0.551374,-0.100041,-0.015653,0.020432,0.999967,0.007584,0.000975,-0.002757,-0.705267,0.222829,-0.673013,-0.000438,-90.949029,71.713957,-72.546299
03104,-9.634341,0.105548,1.936026,0.912091,3.583026,-0.707205,1.761099,0.202141,-0.167952,-0.096323,0.000965,0.019466,0.999960,0.008805,0.001011,-0.000840,-0.706541,0.217145,-0.673504,0.006262,-90.276206,71.622105,-72.899980
03105,-10.424199,1.329973,1.712689,0.320757,4.840121,-0.334502,1.760539,0.231981,0.203975,-0.104235,0.013041,0.017363,0.999960,0.008803,0.001160,0.001020,-0.707679,0.210190,-0.674443,0.011673,-89.653833,71.745081,-73.306627
03106,-10.876701,2.621953,1.679946,-0.026608,6.099150,-0.283876,1.739519,0.154744,0.483257,-0.108817,0.025809,0.017109,0.999959,0.008697,0.000774,0.002416,-0.709006,0.202358,-0.675358,0.015947,-88.906815,72.028581,-73.568791
03107,-11.019983,3.512700,1.990476,0.120869,6.977335,-0.376482,1.502254,0.137196,0.658138,-0.110300,0.034613,0.020242,0.999966,0.007511,0.000686,0.003291,-0.710121,0.194756,-0.676347,0.018776,-88.245727,72.413826,-73.778321
03108,-11.440293,3.780130,1.756760,-0.122451,7.211947,-0.003127,1.080713,0.120251,0.772984,-0.114537,0.037263,0.017839,0.999978,0.005404,0.000601,0.003865,-0.710845,0.188260,-0.677397,0.019759,-87.786079,72.864275,-73.944989
03109,-11.875633,3.209046,1.494029,-0.219471,6.653599,0.639150,0.705315,0.063020,0.909424,-0.118896,0.031497,0.015090,0.999983,0.003527,0.000315,0.004547,-0.711405,0.182622,-0.678376,0.018923,-87.411045,73.393146,-73.975493
03110,-11.445055,2.308775,1.238053,-0.193069,5.534713,0.540134,0.388840,-0.008268,1.012815,-0.114566,0.022484,0.012420,0.999985,0.001944,-0.000041,0.005064,-0.711895,0.177773,-0.679211,0.016589,-87.063807,73.977935,-73.845324
03111,-10.786443,1.023740,1.014655,-0.051595,3.996498,0.309024,0.214577,-0.019235,1.100213,-0.107920,0.009633,0.010147,0.999984,0.001073,-0.000096,0.005501,-0.712262,0.173226,-0.680072,0.013332,-86.761063,74.613924,-73.658862
03112,-10.078156,-0.743464,1.717177,1.090948,2.197901,0.139616,0.133329,-0.060049,1.247534,-0.100738,-0.008075,0.017136,0.999980,0.000667,-0.000300,0.006238,-0.712672,0.168480,-0.680902,0.009247,-86.383403,75.330722,-73.346434
03113,-9.635567,-2.219810,1.665545,1.410849,0.553082,0.099310,0.007982,-0.151943,1.420834,-0.096207,-0.022883,0.016581,0.999974,0.000040,-0.000760,0.007104,-0.713275,0.163570,-0.681518,0.004030,-85.795987,76.144213,-72.745438
03114,-9.028992,-2.989709,0.661854,0.659165,-0.691242,-0.326657,-0.111353,-0.283725,1.634286,-0.090051,-0.030630,0.006508,0.999965,-0.000557,-0.001419,0.008171,-0.714180,0.158368,-0.681807,-0.002452,-84.841867,77.069497,-71.698598
03115,-8.862083,-4.104087,0.612607,0.878873,-1.965614,-0.267195,0.067498,-0.335857,1.869367,-0.088242,-0.041869,0.005964,0.999955,0.000337,-0.001679,0.009347,-0.715354,0.151696,-0.682035,-0.009216,-83.406538,78.122303,-70.268919
03116,-9.784547,-3.696722,0.504153,0.624226,-1.620196,0.513918,0.441314,-0.336757,1.974344,-0.097482,-0.037942,0.004794,0.999947,0.002207,-0.001684,0.009872,-0.716729,0.143331,-0.682297,-0.015070,-81.432772,79.223355,-68.513425
03117,-9.836460,-1.739992,0.168297,-0.135022,-0.026379,0.176760,0.524396,-0.456508,2.081531,-0.098180,-0.018426,0.001411,0.999940,0.002622,-0.002282,0.010407,-0.718492,0.134262,-0.682126,-0.021119,-78.512206,80.358907,-65.851477
03118,-8.835148,-0.451229,-0.256126,-0.761860,0.761491,-1.028294,0.470767,-0.526962,2.153476,-0.088289,-0.005457,-0.002806,0.999936,0.002354,-0.002635,0.010767,-0.720351,0.125131,-0.681668,-0.027644,-74.575637,81.493799,-62.137910
03119,-8.084283,0.283611,0.114237,-0.509213,1.268426,-1.839088,0.165549,-0.509383,2.134319,-0.080870,0.001972,0.000938,0.999939,0.000828,-0.002547,0.010671,-0.721882,0.117136,-0.681125,-0.035136,-69.765415,82.574978,-57.376991
03120,-7.509935,-0.206801,1.302836,0.789957,0.820671,-2.273480,-0.269956,-0.474471,2.106360,-0.075103,-0.002842,0.012854,0.999941,-0.001350,-0.002372,0.010532,-0.722946,0.110816,-0.680541,-0.043975,-63.902068,83.582683,-51.314619
03121,-7.404442,-1.141586,0.264667,-0.008722,-0.482034,-2.331737,-0.954911,-0.456484,2.075029,-0.073927,-0.012171,0.002535,0.999932,-0.004774,-0.002282,0.010375,-0.723493,0.107052,-0.679757,-0.055027,-56.536218,84.490687,-43.359058
03122,-8.260327,-2.712609,-0.705064,-0.627672,-2.341044,-1.433495,-1.258396,-0.401457,2.086219,-0.082300,-0.028030,-0.007042,0.999924,-0.006292,-0.002007,0.010431,-0.723572,0.104363,-0.679006,-0.067102,-46.867725,85.291657,-32.928090
03123,-9.192530,-3.615167,-0.508252,-0.234761,-3.312328,-0.496031,-1.256631,-0.462532,2.045176,-0.091537,-0.037121,-0.005063,0.999925,-0.006283,-0.002313,0.010226,-0.723774,0.101756,-0.677900,-0.079055,-33.679467,85.851750,-18.978741
03124,-9.031889,-3.998132,-1.142854,-0.682304,-4.034995,-0.750903,-1.221996,-0.485589,1.936805,-0.089898,-0.040923,-0.011399,0.999931,-0.006110,-0.002428,0.009684,-0.723999,0.099382,-0.676580,-0.090488,-18.343170,86.089913,-2.902605
03125,-7.773380,-3.956964,-0.825722,-0.245699,-4.078407,-2.062290,-0.988230,-0.380717,1.830733,-0.077351,-0.040319,-0.008207,0.999944,-0.004941,-0.001904,0.009153,-0.723952,0.096544,-0.675598,-0.100693,-3.117896,86.066778,12.925660
03126,-6.851395,-4.542268,-0.126462,0.706125,-4.558062,-3.007282,-0.882340,-0.232474,1.709156,-0.068121,-0.046011,-0.001142,0.999953,-0.004412,-0.001162,0.008546,-0.723433,0.093810,-0.675087,-0.110008,10.231946,85.867684,26.815575
03127,-7.202087,-5.031902,-0.862995,0.187237,-5.350779,-2.793629,-0.895318,-0.104100,1.530522,-0.071628,-0.050906,-0.008440,0.999961,-0.004477,-0.000520,0.007653,-0.722518,0.091779,-0.674881,-0.118660,20.871562,85.566828,37.999556
03128,-7.889659,-3.911774,-0.999237,-0.248993,-4.453272,-2.154216,-0.756347,-0.097307,1.343422,-0.078626,-0.039684,-0.009881,0.999970,-0.003782,-0.000487,0.006717,-0.721695,0.089884,-0.674658,-0.126147,28.835732,85.186088,46.424842
03129,-8.001309,-2.243840,0.958016,1.147437,-2.374115,-1.874184,-0.642556,-0.057094,1.153923,-0.079885,-0.022869,0.009630,0.999978,-0.003213,-0.000285,0.005770,-0.720878,0.088233,-0.674523,-0.132549,34.720603,84.801805,52.702331
03130,-8.433370,-1.634790,0.983673,0.993087,-1.886927,-1.433260,-0.869592,-0.041979,0.861855,-0.084264,-0.016668,0.009891,0.999981,-0.004348,-0.000210,0.004309,-0.720065,0.088397,-0.674143,-0.138645,38.326147,84.482172,56.824579
03131,-8.436358,-2.169193,0.001462,0.267332,-2.748417,-1.551208,-1.169461,-0.035351,0.549877,-0.084304,-0.021923,0.000127,0.999979,-0.005847,-0.000177,0.002749,-0.719294,0.090690,-0.673406,-0.144626,40.019190,84.259522,59.199860
03132,-7.822108,-3.220285,0.664059,1.308280,-3.487090,-2.188708,-1.260734,-0.037679,0.241959,-0.078183,-0.032255,0.006829,0.999979,-0.006304,-0.000188,0.001210,-0.718673,0.094346,-0.672435,-0.149796,40.222706,84.147332,60.130965
03133,-6.827650,-4.875928,0.845818,2.141357,-4.871991,-3.271675,-1.268827,-0.009551,-0.053168,-0.068290,-0.048686,0.008764,0.999980,-0.006344,-0.000048,-0.000266,-0.718153,0.099039,-0.671384,-0.153919,39.244340,84.154879,59.879157
03134,-6.188956,-6.112205,0.525159,2.365786,-6.040713,-3.994582,-1.117114,0.035012,-0.334465,-0.061991,-0.060988,0.005603,0.999983,-0.005586,0.000175,-0.001672,-0.717741,0.104164,-0.670454,-0.156489,37.261231,84.283010,58.529727
03135,-6.242977,-6.158003,0.578419,2.478608,-6.015921,-3.905494,-0.916026,0.148290,-0.569049,-0.062600,-0.061375,0.006112,0.999985,-0.004580,0.000741,-0.002845,-0.717223,0.109442,-0.669935,-0.157484,34.561051,84.535750,56.345169
03136,-8.412420,-3.959947,-2.628138,-1.382388,-5.269686,-1.832976,-0.927689,0.369926,-0.854952,-0.084341,-0.039360,-0.025943,0.999978,-0.004638,0.001850,-0.004275,-0.716147,0.115887,-0.670031,-0.157360,30.814866,84.972816,53.117508
03137,-17.183828,1.401835,-9.535815,-10.165312,-3.430137,6.712337,-0.932197,1.267999,-0.995360,-0.172367,0.014434,-0.094333,0.999957,-0.004661,0.006340,-0.004977,-0.712132,0.123524,-0.673204,-0.156222,28.613295,85.879729,51.446137
03138,-27.845899,0.194718,11.887594,9.869271,3.110847,18.641500,1.929547,1.367990,0.525177,-0.277639,0.000058,0.120784,0.999927,0.009648,0.006840,0.002626,-0.708270,0.115911,-0.679840,-0.150783,39.935733,86.353733,61.686788
03139,-15.890093,-0.371410,8.482812,7.485466,1.825845,6.472966,0.863228,-0.822236,0.155362,-0.159245,-0.004202,0.084156,0.999982,0.004316,-0.004111,0.000777,-0.711457,0.111675,-0.677630,-0.148917,37.125583,85.922518,58.375887
03140,-5.314561,-5.898090,-6.918652,-4.494674,-8.278712,-5.105306,0.239546,0.820193,-0.727935,-0.053643,-0.058704,-0.069038,0.999984,0.001198,0.004101,-0.003640,-0.709356,0.113864,-0.680291,-0.145096,36.502973,86.542453,57.614874
03141,-9.232840,1.178316,1.575821,0.785089,1.260395,-0.490137,1.109369,1.167940,-1.222339,-0.092160,0.012257,0.016364,0.999949,0.005547,0.005840,-0.006112,-0.706888,0.114902,-0.684480,-0.136359,33.521214,87.485956,53.994165
03142,-7.700438,5.413809,6.889304,4.340513,7.250577,-1.771770,-0.325214,0.239731,-1.035613,-0.076640,0.054648,0.068896,0.999985,-0.001626,0.001199,-0.005178,-0.706590,0.119723,-0.684483,-0.133713,22.000483,87.880026,42.651104
03143,-8.815875,4.759178,0.065385,-1.889975,4.280163,-0.953724,-1.490007,0.327281,-0.782167,-0.087971,0.047940,0.000442,0.999963,-0.007450,0.001636,-0.003911,-0.705100,0.127851,-0.684121,-0.135893,10.224424,88.179435,31.723764
03144,-11.340522,-0.774769,-3.965985,-3.690692,-2.343530,1.404402,-1.131097,0.383094,-0.579513,-0.113503,-0.007642,-0.039399,0.999978,-0.005655,0.001915,-0.002898,-0.703459,0.134044,-0.684301,-0.137512,-0.809560,88.422391,21.333815
03145,-9.581922,-5.634085,-2.377370,-0.302982,-6.177747,-0.275863,-0.625116,0.297870,-0.620847,-0.096029,-0.056117,-0.023455,0.999989,-0.003126,0.001489,-0.003104,-0.702463,0.138541,-0.684469,-0.137311,-15.158296,88.538512,7.339600
03146,-8.881685,-6.986792,-1.731013,0.865194,-7.107149,-0.900057,-0.223808,0.504198,-0.717808,-0.089110,-0.069568,-0.017008,0.999990,-0.001119,0.002521,-0.003589,-0.701083,0.142093,-0.685566,-0.135246,-35.120649,88.625723,-12.499987
03147,-9.711631,-4.602141,-1.332913,0.316402,-4.672385,-0.048454,0.134691,0.459000,-0.657689,-0.097297,-0.045693,-0.013137,0.999992,0.000673,0.002295,-0.003288,-0.700066,0.144160,-0.686767,-0.132195,-53.245279,88.550454,-30.705797
03148,-10.053961,-2.063342,-1.932654,-1.203765,-2.478487,0.261148,0.195839,0.501531,-0.588538,-0.100648,-0.020319,-0.019094,0.999992,0.000979,0.002508,-0.002943,-0.698884,0.145791,-0.688207,-0.129142,-68.540903,88.397347,-46.118535
03149,-10.180368,-0.928560,-1.404450,-1.130552,-1.154528,0.378636,0.112735,0.470955,-0.517218,-0.101860,-0.009014,-0.013810,0.999994,0.000564,0.002355,-0.002586,-0.697697,0.147457,-0.689519,-0.126645,-79.725090,88.188037,-57.370762
03150,-9.946539,-1.073825,-0.898646,-0.582597,-1.039927,0.160933,0.010117,0.413443,-0.473563,-0.099509,-0.010502,-0.008781,0.999995,0.000051,0.002067,-0.002368,-0.696591,0.149281,-0.690600,-0.124694,-87.479107,87.949380,-65.134474
03151,-9.996666,-1.957699,-0.284882,0.338972,-1.565786,0.251119,-0.035422,0.374867,-0.434121,-0.100014,-0.019360,-0.002658,0.999996,-0.000177,0.001874,-0.002171,-0.695559,0.151113,-0.691532,-0.123066,-93.009898,87.703887,-70.647439
03152,-9.815160,-2.535820,0.102634,0.937281,-1.910067,0.099488,-0.006871,0.338091,-0.364897,-0.098196,-0.025179,0.001193,0.999997,-0.000034,0.001690,-0.001824,-0.694623,0.152572,-0.692411,-0.121606,-97.095767,87.484295,-74.732480
03153,-9.707986,-2.218729,-0.104824,0.642606,-1.656988,-0.013708,0.023437,0.332505,-0.340147,-0.097119,-0.022022,-0.000889,0.999997,0.000117,0.001663,-0.001701,-0.693717,0.153848,-0.693294,-0.120131,-100.455629,87.267489,-78.107767
03154,-9.841705,-1.232924,-0.528895,-0.109473,-0.858003,0.082294,0.028740,0.328014,-0.364378,-0.098448,-0.012149,-0.005129,0.999997,0.000144,0.001640,-0.001822,-0.692834,0.155174,-0.694152,-0.118557,-103.225537,87.030716,-80.897106
03155,-9.888883,-0.253656,-0.574625,-0.509791,0.076340,0.082697,0.026759,0.302596,-0.373176,-0.098902,-0.002351,-0.005597,0.999997,0.000134,0.001513,-0.001866,-0.692046,0.156534,-0.694900,-0.116977,-105.282490,86.785992,-82.970841
03156,-9.758951,0.086502,-0.492740,-0.550163,0.457058,-0.067142,-0.061742,0.268125,-0.358520,-0.097594,0.001038,-0.004797,0.999997,-0.000309,0.001341,-0.001793,-0.691289,0.158116,-0.695495,-0.115783,-106.845327,86.552416,-84.500402
03157,-9.446698,-0.330642,-0.310505,-0.210444,0.162017,-0.358843,-0.115120,0.266900,-0.339342,-0.094476,-0.003148,-0.002977,0.999998,-0.000576,0.001334,-0.001697,-0.690487,0.159826,-0.696056,-0.114840,-108.262040,86.326359,-85.852248
03158,-9.471745,-0.452085,-0.220125,-0.067954,0.123785,-0.328663,-0.133233,0.289152,-0.322033,-0.094728,-0.004370,-0.002061,0.999997,-0.000666,0.001446,-0.001610,-0.689573,0.161538,-0.696705,-0.114002,-109.773714,86.104356,-87.290237
03159,-9.462105,-0.015069,0.005189,-0.013747,0.649697,-0.372918,-0.172449,0.280390,-0.327184,-0.094621,0.000004,0.000185,0.999997,-0.000862,0.001402,-0.001636,-0.688664,0.163410,-0.697283,-0.113289,-111.047977,85.878242,-88.467086
03160,-9.524226,0.270946,0.238539,0.103251,1.045389,-0.339696,-0.272726,0.274904,-0.343301,-0.095234,0.002876,0.002512,0.999997,-0.001364,0.001375,-0.001717,-0.687691,0.165667,-0.697779,-0.112874,-112.185222,85.643851,-89.450277
03161,-9.556091,-0.122474,-0.220292,-0.158126,0.547846,-0.270302,-0.380270,0.248265,-0.344243,-0.095565,-0.001064,-0.002082,0.999996,-0.001901,0.001241,-0.001721,-0.686724,0.168293,-0.698106,-0.112853,-113.078428,85.412842,-90.126221
03162,-9.593522,-0.902892,-0.571670,-0.166372,-0.264905,-0.164905,-0.375077,0.236993,-0.330167,-0.095957,-0.008881,-0.005586,0.999996,-0.001875,0.001185,-0.001651,-0.685780,0.170832,-0.698414,-0.112870,-113.879075,85.191775,-90.713455
03163,-9.545268,-1.457677,-0.642491,-0.000850,-0.768487,-0.165975,-0.343196,0.227011,-0.323950,-0.095483,-0.014433,-0.006292,0.999997,-0.001716,0.001135,-0.001620,-0.684897,0.173245,-0.698697,-0.112805,-114.542092,84.975004,-91.180140
03164,-9.512270,-1.737808,-1.145844,-0.338725,-1.190641,-0.154337,-0.246478,0.234318,-0.318087,-0.095164,-0.017241,-0.011326,0.999997,-0.001232,0.001172,-0.001590,-0.684059,0.175297,-0.699069,-0.112415,-115.176689,84.759768,-91.675017
03165,-9.599837,-1.877851,-0.870895,-0.017656,-1.165147,-0.061604,-0.031212,0.273493,-0.307210,-0.096039,-0.018632,-0.008575,0.999998,-0.000156,0.001367,-0.001536,-0.683269,0.176609,-0.699694,-0.111274,-115.870785,84.539240,-92.352763
03166,-9.846906,-1.567503,-0.714923,0.013751,-0.756685,0.155101,0.104207,0.284051,-0.353198,-0.098507,-0.015497,-0.007017,0.999997,0.000521,0.001420,-0.001766,-0.682577,0.177612,-0.700395,-0.109494,-116.386549,84.292465,-92.930492
03167,-9.569254,-1.158129,-0.552974,0.006559,-0.303732,-0.162548,0.214264,0.284584,-0.369842,-0.095721,-0.011398,-0.005406,0.999997,0.001071,0.001423,-0.001849,-0.681993,0.178309,-0.701131,-0.107269,-116.742780,84.035828,-93.410545
03168,-9.452714,-0.199281,0.455972,0.562205,0.997739,-0.416426,0.325864,0.293866,-0.352108,-0.094524,-0.001834,0.004696,0.999996,0.001629,0.001469,-0.001761,-0.681456,0.178555,-0.701978,-0.104705,-117.101134,83.786309,-93.958211
03169,-9.640635,1.126060,0.514055,0.107321,2.291107,-0.367410,0.123467,0.263878,-0.342544,-0.096380,0.011422,0.005275,0.999997,0.000617,0.001319,-0.001713,-0.680840,0.179452,-0.702611,-0.102910,-117.412985,83.548475,-94.341737
03170,-9.861144,1.449720,0.242756,-0.260125,2.542972,-0.175868,-0.253911,0.211785,-0.326769,-0.098585,0.014661,0.002513,0.999997,-0.001270,0.001059,-0.001634,-0.680051,0.181539,-0.702894,-0.102541,-117.735329,83.332952,-94.519281
03171,-9.646209,0.270525,-0.206419,-0.208998,1.299713,-0.250674,-0.453072,0.141921,-0.338733,-0.096459,0.002864,-0.002002,0.999996,-0.002265,0.000710,-0.001694,-0.679335,0.184318,-0.702811,-0.102894,-117.822364,83.129408,-94.344196
03172,-9.439122,-1.220847,-0.879104,-0.230478,-0.316589,-0.262459,-0.497055,0.136792,-0.342704,-0.094418,-0.012068,-0.008696,0.999995,-0.002485,0.000684,-0.001714,-0.678586,0.187246,-0.702688,-0.103392,-117.918864,82.925799,-94.154015
03173,-9.557907,-2.576781,-1.443448,-0.189366,-1.725628,0.039376,-0.399076,0.163988,-0.335389,-0.095634,-0.025636,-0.014305,0.999996,-0.001995,0.000820,-0.001677,-0.677829,0.189839,-0.702700,-0.103543,-118.074804,82.718115,-94.079445
03174,-9.870302,-3.366972,-1.710099,-0.096735,-2.470713,0.462031,-0.164630,0.216465,-0.385128,-0.098786,-0.033494,-0.016966,0.999997,-0.000823,0.001082,-0.001926,-0.677126,0.191827,-0.702968,-0.102653,-118.206115,82.471653,-94.116255
03175,-9.856190,-3.116836,-1.688897,-0.175507,-2.190384,0.428538,0.134248,0.235487,-0.441721,-0.098650,-0.030939,-0.016794,0.999997,0.000671,0.001177,-0.002209,-0.676674,0.193023,-0.703387,-0.100500,-118.111628,82.190802,-94.097198
03176,-9.444785,-2.350378,-0.815141,0.303075,-1.150331,-0.118496,0.439694,0.280201,-0.463462,-0.094513,-0.023267,-0.008070,0.999994,0.002198,0.001401,-0.002317,-0.676359,0.193270,-0.704093,-0.097157,-117.976654,81.887567,-94.214802
03177,-9.606586,-1.550035,-0.158964,0.578701,-0.091165,-0.098216,0.565686,0.280905,-0.468619,-0.096104,-0.015271,-0.001498,0.999992,0.002828,0.001405,-0.002343,-0.676161,0.193120,-0.704838,-0.093349,-117.754871,81.580819,-94.316843
03178,-9.724975,-0.445338,-0.235324,0.069362,0.949311,-0.121320,0.493018,0.247748,-0.481058,-0.097263,-0.004214,-0.002243,0.999993,0.002465,0.001239,-0.002405,-0.676001,0.193229,-0.705424,-0.089787,-117.456019,81.277400,-94.299797
03179,-9.732347,0.637474,0.235727,0.078173,2.168942,-0.301123,0.307820,0.238789,-0.491322,-0.097305,0.006610,0.002484,0.999995,0.001539,0.001194,-0.002457,-0.675697,0.194006,-0.705870,-0.086851,-117.217368,80.970378,-94.235420
03180,-9.835425,1.101171,0.121246,-0.205376,2.613742,-0.268643,0.041684,0.207114,-0.502914,-0.098325,0.011259,0.001317,0.999996,0.000208,0.001036,-0.002515,-0.675239,0.195695,-0.706085,-0.084845,-117.030509,80.666417,-94.069841
03181,-9.518163,0.800472,-0.596725,-0.756249,2.061652,-0.497659,-0.240651,0.151099,-0.505423,-0.095165,0.008238,-0.005905,0.999996,-0.001203,0.000755,-0.002527,-0.674706,0.198332,-0.705975,-0.083881,-116.833107,80.375057,-93.728673
03182,-9.194001,0.190443,-0.598150,-0.526459,1.499429,-0.735350,-0.411327,0.181726,-0.519192,-0.091940,0.002131,-0.005902,0.999994,-0.002057,0.000909,-0.002596,-0.673888,0.201593,-0.705885,-0.083443,-116.825276,80.069206,-93.481091
03183,-9.388077,-0.532943,-0.694511,-0.327436,0.890658,-0.431769,-0.451618,0.210006,-0.564150,-0.093903,-0.005080,-0.006835,0.999993,-0.002258,0.001050,-0.002821,-0.672945,0.205168,-0.705810,-0.082966,-116.856487,79.732611,-93.248810
03184,-9.321392,-1.332072,-0.757642,-0.064017,0.188898,-0.368286,-0.374212,0.221975,-0.594892,-0.093261,-0.013057,-0.007448,0.999993,-0.001871,0.001110,-0.002974,-0.672038,0.208583,-0.705775,-0.082099,-116.847956,79.377664,-93.021626
03185,-9.468129,-1.889772,-0.428431,0.465872,-0.093132,-0.160010,-0.163517,0.264979,-0.635123,-0.094746,-0.018600,-0.004144,0.999994,-0.000818,0.001325,-0.003176,-0.671212,0.211456,-0.705912,-0.080307,-116.781588,78.990581,-92.857563
03186,-9.490155,-2.087586,-0.357606,0.611193,-0.168519,-0.109775,0.054247,0.310075,-0.708968,-0.094980,-0.020538,-0.003434,0.999992,0.000271,0.001550,-0.003545,-0.670473,0.213865,-0.706208,-0.077450,-116.627315,78.554457,-92.731477
03187,-9.411338,-1.923882,-0.093824,0.782213,0.142730,-0.239252,0.251197,0.346740,-0.760648,-0.094187,-0.018880,-0.000799,0.999990,0.001256,0.001734,-0.003803,-0.669829,0.215817,-0.706628,-0.073683,-116.392809,78.081944,-92.637877
03188,-9.624530,-1.259613,0.317467,0.890041,1.024044,-0.196162,0.384971,0.396048,-0.820977,-0.096289,-0.012207,0.003342,0.999988,0.001925,0.001980,-0.004105,-0.669157,0.217537,-0.707191,-0.069187,-116.147338,77.566296,-92.611915
03189,-9.816528,-0.561731,0.232224,0.532731,1.744574,-0.148028,0.365083,0.381433,-0.887601,-0.098184,-0.005186,0.002500,0.999987,0.001825,0.001907,-0.004438,-0.668529,0.219559,-0.707599,-0.064553,-115.812223,77.019588,-92.481742
03190,-9.661438,-0.485486,0.135167,0.408839,1.832677,-0.322128,0.295004,0.371256,-0.932163,-0.096633,-0.004407,0.001524,0.999986,0.001475,0.001856,-0.004661,-0.667849,0.221954,-0.707892,-0.060028,-115.473125,76.452627,-92.306516
03191,-9.712762,-0.831110,-0.452244,-0.000008,1.408730,-0.156207,0.265067,0.370417,-0.988781,-0.097175,-0.007825,-0.004353,0.999985,0.001325,0.001852,-0.004944,-0.667145,0.224651,-0.708081,-0.055418,-115.108990,75.856034,-92.086908
03192,-10.830381,-1.239421,-1.624785,-0.919821,0.986808,1.125869,0.293981,0.358423,-1.079501,-0.108397,-0.011786,-0.016071,0.999983,0.001470,0.001792,-0.005397,-0.666513,0.227554,-0.708123,-0.050416,-114.650900,75.215096,-91.787284
03193,-12.408821,-1.503014,-1.854380,-1.040169,1.211889,2.722210,0.478027,0.323264,-1.232519,-0.124207,-0.014221,-0.018378,0.999977,0.002390,0.001616,-0.006163,-0.666234,0.230374,-0.707883,-0.044290,-113.919321,74.501580,-91.312228
03194,-11.180090,-2.125652,-1.466189,-0.497178,0.631857,1.633433,0.891368,0.180527,-1.377333,-0.111957,-0.020421,-0.014653,0.999966,0.004457,0.000903,-0.006887,-0.666924,0.232279,-0.707061,-0.036380,-112.642653,73.742325,-90.515420
03195,-9.638954,-1.845752,-1.858324,-1.030752,0.459819,0.111705,1.119661,0.214480,-1.421035,-0.096537,-0.017668,-0.018580,0.999959,0.005598,0.001072,-0.007105,-0.667724,0.233572,-0.706282,-0.027476,-111.354403,72.947715,-89.839556
03196,-10.314259,-0.761128,-1.397050,-1.050593,1.938173,0.387917,1.294393,0.285511,-1.456925,-0.103214,-0.006770,-0.013869,0.999952,0.006472,0.001428,-0.007285,-0.668415,0.234391,-0.705668,-0.017749,-110.154898,72.115644,-89.359068
03197,-11.730696,-0.540563,-0.951252,-0.758329,2.892086,1.583097,1.489233,0.320554,-1.525036,-0.117358,-0.004441,-0.009360,0.999942,0.007446,0.001603,-0.007625,-0.669153,0.234782,-0.705026,-0.007064,-108.933695,71.237118,-88.970760
03198,-13.388796,-0.987643,0.002094,0.236576,3.530542,3.137627,1.805613,0.321246,-1.613051,-0.133962,-0.008797,0.000153,0.999925,0.009028,0.001606,-0.008065,-0.670169,0.234389,-0.704209,0.005032,-107.566149,70.308182,-88.617606
03199,-14.913718,-0.942696,2.710189,2.726553,5.106276,4.228024,2.231159,0.268286,-1.684552,-0.149175,-0.008474,0.027204,0.999901,0.011155,0.001341,-0.008422,-0.671760,0.232786,-0.702991,0.018802,-105.923614,69.346134,-88.229079
03200,-15.092428,0.037240,5.542086,5.101654,6.992204,3.736431,2.763876,0.143015,-1.754386,-0.150878,0.000929,0.055539,0.999866,0.013819,0.000715,-0.008772,-0.674241,0.229594,-0.701066,0.034530,-103.871794,68.359998,-87.726580
03201,-13.012058,2.078838,3.719658,2.829384,7.679887,1.163790,2.595259,0.127400,-1.735760,-0.129913,0.021431,0.037555,0.999878,0.012976,0.000637,-0.008678,-0.676425,0.226848,-0.698951,0.049574,-102.003271,67.381131,-87.314369
03202,-11.945512,1.106449,1.864956,1.330624,6.080536,0.610952,2.235705,0.356664,-1.432479,-0.119339,0.011709,0.018991,0.999910,0.011178,0.001783,-0.007162,-0.677322,0.224155,-0.697906,0.062589,-100.806462,66.542369,-87.405318
03203,-10.109963,-0.364500,0.471373,0.366783,3.833268,-0.445862,2.344506,0.395058,-0.832781,-0.101104,-0.003281,0.004874,0.999921,0.011722,0.001975,-0.004164,-0.678293,0.218945,-0.697502,0.073980,-99.766965,66.039562,-87.737032
03204,-8.137667,-1.222393,-0.742405,-0.606157,2.078763,-1.839087,2.693818,0.470367,-0.055078,-0.081397,-0.012102,-0.007396,0.999906,0.013469,0.002352,-0.000275,-0.679542,0.209778,-0.697965,0.084026,-98.804104,65.971012,-88.372007
03205,-8.052183,0.025146,0.578989,0.497817,3.365705,-2.491682,3.283899,0.485648,0.701641,-0.080507,-0.000128,0.005985,0.999856,0.016419,0.002428,0.003508,-0.681525,0.195902,-0.698852,0.093551,-97.666178,66.336233,-89.185021
03206,-9.231975,1.812828,0.988085,0.720159,5.423203,-2.095210,3.480786,0.420821,1.261247,-0.092409,0.017368,0.010382,0.999826,0.017403,0.002104,0.006306,-0.683961,0.179376,-0.699760,0.101769,-96.426402,67.029791,-90.006185
03207,-10.493187,3.799860,0.590519,0.256820,7.565988,-1.592050,3.615902,0.326924,1.564018,-0.105214,0.037060,0.006753,0.999805,0.018078,0.001635,0.007820,-0.686760,0.161300,-0.700284,0.109295,-95.008187,67.910188,-90.713841
03208,-11.038585,6.285948,0.941465,0.644608,9.952108,-1.889285,3.425367,0.292016,1.609377,-0.110871,0.061793,0.010641,0.999820,0.017126,0.001460,0.008046,-0.689283,0.143687,-0.700573,0.115937,-93.633864,68.822861,-91.346193
03209,-10.926233,7.780491,1.974307,1.869111,11.187088,-2.385581,2.795524,0.259290,1.498752,-0.109813,0.076696,0.020962,0.999873,0.013977,0.001296,0.007493,-0.691203,0.128591,-0.700812,0.120684,-92.533079,69.680245,-91.882193
03210,-10.788525,8.174138,2.218282,2.323195,11.359092,-2.484878,1.885920,0.247958,1.356426,-0.108407,0.080792,0.023082,0.999932,0.009429,0.001240,0.006782,-0.692345,0.117135,-0.701341,0.122716,-91.918396,70.457017,-92.377240
03211,-11.276542,5.787982,1.965623,2.198283,9.135106,-1.081209,1.102931,0.220315,1.307664,-0.113118,0.057031,0.020097,0.999963,0.005515,0.001102,0.006538,-0.693035,0.108542,-0.702144,0.122128,-91.703341,71.210529,-92.819179
03212,-12.227950,3.543995,1.485905,1.754662,7.180545,0.658637,0.548552,0.118963,1.378681,-0.122511,0.034555,0.015027,0.999972,0.002743,0.000595,0.006893,-0.693765,0.101698,-0.702933,0.119297,-91.653668,72.003795,-93.097541
03213,-12.243157,1.772967,0.927448,1.164184,5.354865,1.316810,-0.001320,-0.083981,1.491048,-0.122563,0.016816,0.009223,0.999972,-0.000007,-0.000420,0.007455,-0.694970,0.096454,-0.703358,0.114020,-91.562268,72.868305,-93.001666
03214,-11.564691,0.250485,1.594671,1.761434,3.514769,1.182256,-0.309002,-0.249772,1.596967,-0.115682,0.001606,0.015799,0.999966,-0.001545,-0.001249,0.007985,-0.696614,0.092023,-0.703395,0.107220,-91.327510,73.792283,-92.571305
03215,-11.074987,-0.719524,1.395441,1.494187,2.276285,1.036425,-0.612973,-0.458821,1.737219,-0.110714,-0.008115,0.013724,0.999955,-0.003065,-0.002294,0.008686,-0.698886,0.088233,-0.702868,0.098742,-90.790598,74.801772,-91.649651
03216,-11.007507,-0.444282,0.469724,0.511291,2.346692,0.948855,-0.844493,-0.652631,1.945095,-0.110040,-0.005494,0.004360,0.999938,-0.004222,-0.003263,0.009725,-0.701750,0.084637,-0.701802,0.088643,-89.853469,75.923991,-90.180559
03217,-10.943720,1.068298,0.050151,0.013130,3.585261,0.581974,-1.058289,-0.825657,2.156638,-0.109545,0.009503,-0.000003,0.999919,-0.005291,-0.004128,0.010783,-0.705139,0.081083,-0.700203,0.076950,-88.379491,77.161749,-88.042511
03218,-10.643966,1.328213,0.547672,0.402871,3.550763,0.315592,-1.395480,-0.920908,2.278048,-0.106605,0.012104,0.004899,0.999900,-0.006977,-0.004604,0.011390,-0.708628,0.078345,-0.698328,0.063612,-86.450051,78.447615,-85.250179
03219,-11.312047,1.043789,-0.804345,-1.073937,3.128727,1.084518,-1.887229,-0.978275,2.252634,-0.113186,0.009083,-0.008687,0.999880,-0.009436,-0.004891,0.011263,-0.711974,0.077407,-0.696232,0.048594,-84.050590,79.697079,-81.706332
03220,-11.654618,-0.751885,-2.227728,-2.542944,1.067297,1.752050,-2.395707,-1.081262,2.244740,-0.116328,-0.009096,-0.022804,0.999851,-0.011978,-0.005406,0.011223,-0.715274,0.078343,-0.693711,0.031799,-80.815183,80.896445,-77.031175
03221,-10.936954,-3.203838,-1.695237,-1.892662,-1.740366,1.418352,-2.462826,-1.233569,2.281328,-0.108887,-0.033493,-0.017219,0.999840,-0.012313,-0.006168,0.011406,-0.718872,0.079358,-0.690444,0.014553,-75.791103,82.043153,-70.525523
03222,-9.329517,-5.967965,-2.708694,-2.564291,-5.078212,0.067606,-2.610351,-1.370604,2.317459,-0.092408,-0.061106,-0.026931,0.999824,-0.013051,-0.006853,0.011587,-0.722632,0.080796,-0.686487,-0.003374,-68.392560,83.072452,-61.555888
03223,-7.164478,-7.832581,-3.279778,-2.692073,-7.497594,-2.069009,-2.336357,-1.354740,2.405283,-0.070473,-0.079558,-0.032353,0.999837,-0.011681,-0.006773,0.012026,-0.726212,0.080883,-0.682382,-0.020686,-58.065685,83.963514,-49.817150
03224,-6.266872,-8.479850,-2.840558,-1.977231,-8.375347,-3.090664,-1.851660,-1.230258,2.422948,-0.061460,-0.085808,-0.027995,0.999865,-0.009258,-0.006151,0.012114,-0.729332,0.079171,-0.678592,-0.036336,-44.861402,84.617463,-35.481241
03225,-7.198400,-5.766346,-2.608410,-2.165689,-5.822775,-2.514006,-1.381665,-1.037019,2.385451,-0.071153,-0.058695,-0.026051,0.999892,-0.006908,-0.005185,0.011927,-0.731821,0.075862,-0.675399,-0.050183,-29.589767,84.975397,-19.353169
03226,-7.696470,-4.224868,-2.010340,-1.850283,-4.401303,-2.175521,-1.330261,-1.009329,2.481576,-0.076330,-0.043333,-0.020204,0.999888,-0.006651,-0.005046,0.012407,-0.734038,0.072056,-0.672218,-0.064173,-12.800130,84.948607,-1.733814
03227,-6.417325,-4.668038,-1.686265,-1.297577,-4.977371,-3.539415,-1.294122,-0.938062,2.508064,-0.063501,-0.047589,-0.016856,0.999889,-0.006470,-0.004690,0.012540,-0.735867,0.068012,-0.669159,-0.078110,2.670323,84.531098,14.545118
03228,-5.977223,-6.205094,-0.985426,-0.189204,-6.486520,-4.060603,-1.251065,-0.599986,2.419567,-0.058986,-0.062828,-0.009641,0.999903,-0.006255,-0.003000,0.012097,-0.736449,0.064247,-0.667200,-0.091435,15.106478,83.969121,27.764368
03229,-6.989491,-7.436410,-0.974391,0.095030,-7.872654,-3.246853,-1.086147,-0.381218,2.173073,-0.069063,-0.075169,-0.009469,0.999924,-0.005431,-0.001906,0.010865,-0.736348,0.060767,-0.665916,-0.103226,24.412914,83.332432,37.753647
03230,-7.901998,-7.727753,-1.466042,-0.292737,-8.465983,-2.563803,-0.924286,-0.215285,1.847329,-0.078286,-0.078070,-0.014385,0.999946,-0.004621,-0.001076,0.009236,-0.735806,0.057872,-0.665150,-0.113205,31.103709,82.723315,45.028063
03231,-8.989911,-7.152784,-1.121318,-0.113667,-8.052528,-1.543508,-0.370997,-0.070485,1.526907,-0.089346,-0.072232,-0.011111,0.999969,-0.001855,-0.000352,0.007634,-0.735070,0.054071,-0.665071,-0.120122,36.246359,82.195575,50.429949
03232,-9.785941,-5.010082,-1.466094,-0.989833,-6.268021,-0.716237,-0.316629,-0.008671,1.264946,-0.097539,-0.050742,-0.014585,0.999979,-0.001583,-0.000043,0.006325,-0.734252,0.050989,-0.665156,-0.125864,40.095881,81.737196,54.501259
03233,-10.334679,-3.546291,-1.101516,-1.005588,-4.942078,-0.057762,-0.153624,0.089185,1.074534,-0.103159,-0.036026,-0.010942,0.999985,-0.000768,0.000446,0.005373,-0.733252,0.047992,-0.665619,-0.130343,43.339407,81.357123,57.869742
03234,-10.561598,-2.486052,-0.052816,-0.244008,-3.786660,0.352526,-0.150424,0.061442,0.830439,-0.105512,-0.025299,-0.000477,0.999991,-0.000752,0.000307,0.004152,-0.732478,0.045786,-0.665918,-0.133912,45.614595,81.042339,60.259717
03235,-9.737938,-2.810800,-0.997832,-0.972740,-4.282458,-0.623686,-0.490715,0.080111,0.511425,-0.097311,-0.028381,-0.009870,0.999994,-0.002454,0.000401,0.002557,-0.731773,0.045894,-0.665965,-0.137446,46.818498,80.854378,61.764063
03236,-9.073144,-3.509592,-0.837967,-0.547454,-4.849598,-1.355566,-0.506080,0.191692,0.231054,-0.090699,-0.035222,-0.008204,0.999996,-0.002530,0.000958,0.001155,-0.730871,0.047074,-0.666348,-0.139972,47.592696,80.825314,62.842458
03237,-7.905155,-3.479172,0.446592,0.797951,-4.329215,-2.368451,-0.471232,0.179627,-0.021811,-0.079051,-0.034772,0.004619,0.999997,-0.002356,0.000898,-0.000109,-0.730196,0.048958,-0.666637,-0.141465,47.745588,80.896009,63.271500
03238,-6.543158,-3.628746,1.074858,1.567426,-4.092997,-3.654248,-0.656550,0.248236,-0.327701,-0.065477,-0.036144,0.010949,0.999992,-0.003283,0.001241,-0.001638,-0.729448,0.052588,-0.666973,-0.142435,47.236736,81.123982,63.137661
03239,-6.160241,-3.571203,1.173110,1.703243,-3.911151,-3.992066,-0.892633,0.309888,-0.682091,-0.061705,-0.035449,0.011985,0.999983,-0.004463,0.001549,-0.003410,-0.728674,0.058304,-0.667247,-0.142885,45.809512,81.522149,62.212208
03240,-7.536219,-3.289103,-0.544345,-0.074499,-4.224459,-2.737621,-1.185187,0.434092,-1.010878,-0.075539,-0.032540,-0.005086,0.999967,-0.005926,0.002170,-0.005054,-0.727593,0.066269,-0.667645,-0.143065,43.491224,82.099708,60.556612
03241,-16.676617,2.261978,-5.897802,-7.372902,-1.447316,6.359878,-1.593764,1.078092,-1.517253,-0.166906,0.023419,-0.058263,0.999925,-0.007969,0.005390,-0.007586,-0.724518,0.077867,-0.669845,-0.142541,40.808328,83.133844,58.773265
03242,-27.199657,0.175236,9.963551,7.830962,0.571271,18.070288,-0.335736,1.182717,-0.685652,-0.271393,0.002853,0.101237,0.999975,-0.001679,0.005914,-0.003428,-0.720911,0.082186,-0.673588,-0.140759,41.980634,83.895633,60.147179
03243,-16.267999,-2.016306,10.458345,9.605388,-0.163135,7.092846,-0.726713,-0.891303,-0.164651,-0.163160,-0.019650,0.103929,0.999983,-0.003634,-0.004456,-0.000823,-0.723739,0.084700,-0.669756,-0.143021,37.931103,83.557346,56.493255
03244,-4.862575,-7.096150,-6.307773,-3.916416,-9.162046,-6.004215,-1.682894,0.182739,-0.447378,-0.048842,-0.071380,-0.062434,0.999962,-0.008414,0.000914,-0.002237,-0.722720,0.092382,-0.668980,-0.146995,35.702279,83.788561,55.221397
03245,-6.841713,-5.141878,-2.502998,-1.010322,-6.228510,-3.512186,-0.475278,1.114977,-0.933839,-0.068794,-0.051157,-0.024525,0.999971,-0.002376,0.005575,-0.004669,-0.719458,0.098012,-0.672180,-0.144735,34.767410,84.612096,54.556815
03246,-8.617151,-3.261843,4.285867,4.677906,-2.218492,-1.068686,-0.357029,0.698479,-1.132820,-0.086204,-0.032053,0.043217,0.999976,-0.001785,0.003492,-0.005664,-0.717752,0.103573,-0.673845,-0.141555,30.872177,85.294511,50.852343
03247,-8.125670,-2.708685,1.238245,1.671085,-2.583553,-1.723908,-0.799240,0.275585,-1.146063,-0.081393,-0.026571,0.012601,0.999975,-0.003996,0.001378,-0.005730,-0.717224,0.110470,-0.673629,-0.140032,23.931496,85.731018,44.351302
03248,-10.977560,-4.223752,-4.014039,-2.834040,-5.865039,0.771604,-0.415795,0.704750,-0.924071,-0.110110,-0.041812,-0.039666,0.999981,-0.002079,0.003524,-0.004620,-0.715268,0.115531,-0.675325,-0.137768,18.781926,86.295029,39.428609
03249,-11.778537,-5.464814,-2.280722,-0.787290,-6.347952,1.714779,0.410359,0.532077,-0.683374,-0.118031,-0.054199,-0.022605,0.999989,0.002052,0.002660,-0.003417,-0.714193,0.116714,-0.677081,-0.133672,14.355304,86.693319,34.759809
03250,-9.026240,-4.903776,-2.377820,-0.946575,-5.680750,-0.980561,0.616926,0.555910,-0.666670,-0.090491,-0.048663,-0.023677,0.999986,0.003085,0.002780,-0.003333,-0.713121,0.117104,-0.679062,-0.128918,9.108831,87.078646,29.152108
03251,-10.410444,-1.777193,-2.316183,-2.015932,-2.672976,0.467917,0.715106,0.651083,-0.617751,-0.104233,-0.017368,-0.022885,0.999984,0.003576,0.003255,-0.003089,-0.711737,0.117051,-0.681445,-0.123945,3.008357,87.482568,22.636427
03252,-10.408099,1.117368,-0.696580,-1.439827,0.678608,0.556891,0.343534,0.428259,-0.542987,-0.104065,0.011468,-0.006723,0.999993,0.001718,0.002141,-0.002715,-0.710825,0.117909,-0.682842,-0.120632,-4.154262,87.721765,15.271043
03253,-9.876094,1.067856,0.230445,-0.507799,1.010632,0.059044,-0.224888,0.399969,-0.509622,-0.098728,0.010933,0.002490,0.999994,-0.001124,0.002000,-0.002548,-0.709651,0.120670,-0.683798,-0.119393,-12.603965,87.902542,6.945906
03254,-10.765030,-0.629607,0.085988,-0.089521,-0.578741,0.955149,-0.428240,0.360108,-0.519290,-0.107664,-0.006014,0.001067,0.999993,-0.002141,0.001801,-0.002596,-0.708481,0.124145,-0.684485,-0.118837,-22.367883,88.008538,-2.578197
03255,-10.515623,-1.904183,-0.062846,0.226087,-1.765625,0.724832,-0.496897,0.222389,-0.510893,-0.105205,-0.018774,-0.000465,0.999993,-0.002484,0.001112,-0.002554,-0.707731,0.127766,-0.684631,-0.118630,-31.615092,87.987023,-11.544449
03256,-9.566867,-2.665294,-0.157943,0.445314,-2.465301,-0.201370,-0.501030,0.220336,-0.430048,-0.095727,-0.026451,-0.001408,0.999994,-0.002505,0.001102,-0.002150,-0.706923,0.131107,-0.684818,-0.118723,-39.436799,87.946808,-19.083336
03257,-9.182370,-2.538904,-0.131563,0.456268,-2.296659,-0.577091,-0.205888,0.282750,-0.372511,-0.091872,-0.025219,-0.001160,0.999997,-0.001029,0.001414,-0.001863,-0.706059,0.133261,-0.685424,-0.117966,-46.780117,87.918628,-26.311605
03258,-9.184838,-1.390057,-0.100088,0.099155,-1.167601,-0.596927,0.082513,0.308744,-0.388464,-0.091877,-0.013722,-0.000865,0.999997,0.000413,0.001544,-0.001942,-0.705298,0.134448,-0.686286,-0.116147,-54.115984,87.861540,-33.699260
03259,-9.209357,0.121432,0.353137,0.009396,0.450372,-0.606787,0.185814,0.309309,-0.412008,-0.092085,0.001401,0.003675,0.999996,0.000929,0.001547,-0.002060,-0.704619,0.135369,-0.687180,-0.113888,-61.083029,87.757867,-40.776097
03260,-9.170671,1.284663,0.618623,-0.130238,1.676131,-0.685382,0.113287,0.290255,-0.425007,-0.091670,0.013038,0.006327,0.999997,0.000566,0.001451,-0.002125,-0.703954,0.136561,-0.687961,-0.111846,-67.213083,87.614474,-46.975618
03261,-9.623887,1.982131,0.551171,-0.435274,2.367848,-0.270391,-0.045226,0.304494,-0.455133,-0.096185,0.020042,0.005654,0.999996,-0.000226,0.001522,-0.002276,-0.703148,0.138439,-0.688670,-0.110231,-72.958887,87.430664,-52.699082
03262,-10.121106,2.106407,0.481594,-0.548562,2.531153,0.207179,-0.178433,0.286328,-0.513173,-0.101150,0.021328,0.004942,0.999995,-0.000892,0.001432,-0.002566,-0.702334,0.140956,-0.689204,-0.108884,-77.914183,87.191607,-57.556993
03263,-9.933733,1.435543,0.004085,-0.757365,1.784248,0.035280,-0.309934,0.211205,-0.531659,-0.099299,0.014620,0.000123,0.999995,-0.001550,0.001056,-0.002658,-0.701695,0.143972,-0.689374,-0.107976,-81.370986,86.916824,-60.838910
03264,-9.377947,0.478105,-0.508097,-0.888520,0.733603,-0.479693,-0.375234,0.208806,-0.504100,-0.093772,0.005008,-0.004992,0.999995,-0.001876,0.001044,-0.002520,-0.700989,0.147104,-0.689522,-0.107392,-84.265417,86.650222,-63.522084
03265,-9.271329,-0.332503,-0.678352,-0.756051,-0.041262,-0.541509,-0.382902,0.224411,-0.501387,-0.092729,-0.003105,-0.006673,0.999994,-0.001915,0.001122,-0.002507,-0.700221,0.150274,-0.689707,-0.106830,-86.876454,86.377520,-65.916618
03266,-9.483375,-0.950596,-1.040818,-0.873169,-0.684815,-0.289574,-0.351254,0.243970,-0.526906,-0.094871,-0.009274,-0.010276,0.999994,-0.001756,0.001220,-0.002635,-0.699409,0.153417,-0.689959,-0.106054,-89.295063,86.085856,-68.138285
03267,-9.606742,-1.361284,-0.828430,-0.523067,-0.928423,-0.133171,-0.216791,0.255897,-0.536214,-0.096114,-0.013364,-0.008147,0.999995,-0.001084,0.001279,-0.002681,-0.698661,0.156140,-0.690302,-0.104770,-91.395678,85.781927,-70.118155
03268,-9.798620,-0.892245,-0.404741,-0.297084,-0.268872,0.026623,-0.082858,0.252197,-0.542603,-0.098015,-0.008658,-0.003920,0.999995,-0.000414,0.001261,-0.002713,-0.698023,0.158399,-0.690698,-0.103005,-93.127008,85.471253,-71.806438
03269,-10.029678,-0.059469,-0.416548,-0.613029,0.576229,0.190479,-0.099765,0.236984,-0.561222,-0.100303,-0.000315,-0.004046,0.999995,-0.000499,0.001185,-0.002806,-0.697432,0.160787,-0.691003,-0.101243,-94.525348,85.145781,-73.150616
03270,-9.942022,0.595752,-0.215064,-0.661925,1.307336,0.041116,-0.191944,0.191908,-0.537459,-0.099406,0.006223,-0.002061,0.999995,-0.000960,0.000960,-0.002687,-0.696900,0.163376,-0.691126,-0.099920,-95.541772,84.835235,-74.060052
03271,-9.472758,0.615420,0.067793,-0.400002,1.440125,-0.438131,-0.394243,0.140824,-0.523544,-0.094711,0.006404,0.000732,0.999994,-0.001971,0.000704,-0.002618,-0.696369,0.166608,-0.690966,-0.099383,-96.258454,84.533229,-74.551534
03272,-9.408805,-0.068023,0.207611,-0.024323,0.904254,-0.444933,-0.573021,0.135346,-0.540781,-0.094088,-0.000420,0.002141,0.999992,-0.002865,0.000677,-0.002704,-0.695704,0.170503,-0.690683,-0.099408,-96.977181,84.222459,-74.943344
03273,-9.596674,-1.040127,0.175589,0.299501,0.069862,-0.163129,-0.706395,0.140792,-0.573657,-0.095995,-0.010120,0.001860,0.999989,-0.003532,0.000704,-0.002868,-0.694914,0.174988,-0.690304,-0.099772,-97.712026,83.891006,-75.273867
03274,-9.461309,-2.192847,0.523392,1.063953,-0.808997,-0.178786,-0.639893,0.158374,-0.575859,-0.094671,-0.021639,0.005378,0.999990,-0.003199,0.000792,-0.002879,-0.694104,0.179243,-0.690011,-0.099882,-98.449032,83.557604,-75.645987
03275,-9.313918,-3.138347,1.143712,2.009349,-1.386095,-0.223775,-0.364549,0.201881,-0.574333,-0.093217,-0.031095,0.011588,0.999994,-0.001823,0.001009,-0.002872,-0.693384,0.182568,-0.689990,-0.099006,-99.178733,83.219591,-76.168915
03276,-9.347390,-3.366273,1.264408,2.208724,-1.480723,-0.156970,-0.010110,0.213089,-0.600924,-0.093561,-0.033381,0.012745,0.999995,-0.000051,0.001065,-0.003005,-0.692950,0.184747,-0.690158,-0.096805,-99.687908,82.866015,-76.675544
03277,-9.457353,-2.749739,0.793843,1.526365,-1.025509,-0.104395,0.224744,0.257547,-0.667984,-0.094654,-0.027190,0.008030,0.999993,0.001124,0.001288,-0.003340,-0.692608,0.186377,-0.690516,-0.093518,-100.148995,82.468426,-77.268788
03278,-10.003035,-1.940003,-0.419741,0.070580,-0.615171,0.366534,0.331808,0.291724,-0.739322,-0.100107,-0.019023,-0.004083,0.999991,0.001659,0.001459,-0.003697,-0.692266,0.187881,-0.690973,-0.089581,-100.588438,82.027781,-77.903660
03279,-9.817716,-0.707508,-1.479155,-1.384625,0.158810,0.042922,0.372210,0.251376,-0.757505,-0.098221,-0.006676,-0.014681,0.999990,0.001861,0.001257,-0.003788,-0.692102,0.189302,-0.691269,-0.085477,-100.774936,81.579418,-78.306044
03280,-9.527651,0.179649,-1.851548,-2.065744,0.864912,-0.367013,0.262185,0.246890,-0.723134,-0.095292,0.002165,-0.018395,0.999992,0.001311,0.001234,-0.003616,-0.691817,0.190965,-0.691533,-0.081877,-101.008059,81.151976,-78.693292
03281,-9.638471,0.393827,-1.663027,-1.981647,1.222362,-0.304831,0.129578,0.226811,-0.706669,-0.096389,0.004290,-0.016518,0.999993,0.000648,0.001134,-0.003533,-0.691463,0.193032,-0.691670,-0.078808,-101.223049,80.734556,-78.984757
03282,-9.587511,0.032146,-1.259919,-1.477597,1.106791,-0.320581,0.059476,0.211902,-0.720821,-0.095886,0.000671,-0.012497,0.999993,0.000297,0.001060,-0.003604,-0.691084,0.195368,-0.691713,-0.075948,-101.402691,80.311932,-79.200943
03283,-9.421006,-0.110533,-0.292443,-0.530701,1.383320,-0.503690,0.093834,0.215329,-0.752832,-0.094216,-0.000749,-0.002823,0.999992,0.000469,0.001077,-0.003764,-0.690733,0.197707,-0.691732,-0.072852,-101.531798,79.869735,-79.385263
03284,-9.704981,0.513963,0.473272,-0.072671,2.362659,-0.374107,-0.031546,0.227007,-0.812509,-0.097022,0.005535,0.004842,0.999991,-0.000158,0.001135,-0.004063,-0.690224,0.200674,-0.691683,-0.069973,-101.720732,79.393722,-79.558467
03285,-9.926385,0.899290,0.705567,-0.022769,2.921654,-0.257459,-0.296075,0.196557,-0.879687,-0.099216,0.009440,0.007139,0.999989,-0.001480,0.000983,-0.004398,-0.689569,0.204782,-0.691348,-0.067805,-101.910465,78.882536,-79.577705
03286,-9.854300,0.369129,0.485088,-0.044968,2.431139,-0.243697,-0.494532,0.162683,-0.935747,-0.098520,0.004164,0.004921,0.999986,-0.002473,0.000813,-0.004679,-0.688825,0.209741,-0.690761,-0.066163,-102.081932,78.344925,-79.463088
03287,-9.717140,-0.797214,0.024014,-0.043438,1.268490,-0.145882,-0.572811,0.154761,-1.021823,-0.097210,-0.007475,0.000337,0.999983,-0.002864,0.000774,-0.005109,-0.688038,0.215267,-0.690002,-0.064501,-102.222448,77.759333,-79.270152
03288,-9.503760,-2.026197,-0.627903,-0.180026,-0.031340,-0.076833,-0.531287,0.159767,-1.087842,-0.095151,-0.019761,-0.006150,0.999981,-0.002656,0.000799,-0.005439,-0.687271,0.220863,-0.689185,-0.062461,-102.323506,77.137040,-79.061332
03289,-9.873236,-3.169201,-1.263803,-0.352607,-1.110487,0.568213,-0.281472,0.186857,-1.157274,-0.098925,-0.031138,-0.012502,0.999982,-0.001407,0.000934,-0.005786,-0.686688,0.225848,-0.688431,-0.059290,-102.314216,76.471860,-78.885093
03290,-11.543563,-3.659760,-2.366351,-1.279536,-1.461069,2.372272,0.085757,0.208269,-1.285666,-0.115692,-0.035844,-0.023559,0.999979,0.000429,0.001041,-0.006428,-0.686452,0.230004,-0.687694,-0.054387,-102.098006,75.732856,-78.712487
03291,-12.220736,-3.665353,-2.593095,-1.583783,-1.223437,3.051866,0.748100,0.142079,-1.438078,-0.122485,-0.035676,-0.025979,0.999967,0.003740,0.000710,-0.007190,-0.687215,0.232389,-0.686692,-0.046756,-101.323353,74.914884,-78.353742
03292,-11.186091,-2.181768,-1.974162,-1.617244,0.247540,1.637460,1.417049,0.139061,-1.529168,-0.112036,-0.020821,-0.019814,0.999945,0.007085,0.000695,-0.007646,-0.688722,0.232758,-0.685676,-0.036516,-100.195767,74.045413,-78.025644
03293,-11.058077,0.126443,-0.332145,-1.003992,3.046764,0.775699,1.874467,0.245350,-1.543017,-0.110570,0.002148,-0.003168,0.999926,0.009372,0.001227,-0.007715,-0.690316,0.231598,-0.685000,-0.024531,-99.078982,73.155543,-77.980012
03294,-11.652814,1.248689,1.223413,0.003787,4.921640,0.893353,2.053861,0.280962,-1.494578,-0.116414,0.013229,0.012531,0.999918,0.010269,0.001405,-0.007473,-0.691878,0.229612,-0.684425,-0.012054,-97.996947,72.290861,-78.078745
03295,-11.747447,1.363527,1.088820,-0.158603,5.145620,0.889784,1.905024,0.264031,-1.312715,-0.117367,0.014300,0.011177,0.999932,0.009525,0.001320,-0.006563,-0.693218,0.227490,-0.683883,-0.000733,-97.052601,71.530847,-78.232703
03296,-13.073972,1.631775,1.871127,0.442841,6.158143,1.975973,1.953251,0.341459,-0.963296,-0.130627,0.016762,0.019097,0.999939,0.009766,0.001707,-0.004816,-0.694254,0.223971,-0.683926,0.009629,-96.308548,70.965864,-78.628301
03297,-13.688726,3.019794,3.664289,1.784883,8.187461,2.007043,2.398655,0.252000,-0.506495,-0.136764,0.030101,0.037177,0.999924,0.011993,0.001260,-0.002532,-0.696028,0.217320,-0.684050,0.019826,-95.252527,70.668346,-78.964711
03298,-11.866728,5.419179,2.668032,0.418962,9.489925,-0.481592,2.169738,0.111472,-0.124199,-0.118619,0.053971,0.027333,0.999941,0.010848,0.000557,-0.000621,-0.697972,0.210140,-0.684036,0.027756,-94.165388,70.598030,-79.129588
03299,-11.298260,6.337650,0.934897,-1.311333,9.695132,-1.270222,1.727438,0.228487,0.163574,-0.113023,0.063199,0.010024,0.999962,0.008637,0.001142,0.000818,-0.699030,0.203480,-0.684723,0.033286,-93.553808,70.688958,-79.530155
03300,-11.803143,6.867350,1.049716,-1.209681,10.366579,-0.944466,1.690839,0.215240,0.324558,-0.118131,0.068389,0.011203,0.999962,0.008454,0.001076,0.001623,-0.700063,0.196386,-0.685486,0.038115,-92.959588,70.873374,-79.926311
03301,-11.395408,6.845980,2.534003,0.398984,10.518205,-1.306772,1.523126,0.029524,0.338076,-0.114066,0.068071,0.025876,0.999970,0.007616,0.000148,0.001690,-0.701530,0.189845,-0.685594,0.042132,-92.148664,71.072994,-79.991792
03302,-10.454989,6.217177,3.420674,1.532384,9.780297,-1.960415,0.890135,-0.097308,0.283131,-0.104654,0.061871,0.034432,0.999989,0.004451,-0.000487,0.001416,-0.702783,0.185742,-0.685314,0.044055,-91.480855,71.242581,-79.824550
03303,-9.903520,4.387529,3.512316,2.037685,7.891207,-1.860140,0.392847,-0.142631,0.265192,-0.099118,0.043675,0.035138,0.999997,0.001964,-0.000713,0.001326,-0.703724,0.183438,-0.684954,0.044287,-91.010337,71.403720,-79.566017
03304,-9.849702,2.287873,3.058442,1.993697,5.802080,-1.212340,0.113202,-0.156897,0.329507,-0.098558,0.022699,0.030520,0.999998,0.000566,-0.000784,0.001648,-0.704459,0.181917,-0.684665,0.043328,-90.675068,71.599438,-79.280368
03305,-10.055353,0.013219,2.523457,1.876218,3.603637,-0.274789,-0.007468,-0.188170,0.489690,-0.100577,-0.000113,0.025140,0.999997,-0.000037,-0.000941,0.002448,-0.705233,0.180257,-0.684430,0.041356,-90.345267,71.888786,-78.929379
03306,-10.043631,-1.681357,2.673948,2.330622,1.987294,0.260534,0.130740,-0.284677,0.717113,-0.100413,-0.017191,0.026585,0.999992,0.000654,-0.001423,0.003586,-0.706490,0.177371,-0.684027,0.038975,-89.755914,72.305383,-78.388255
03307,-9.591866,-1.841147,2.502103,2.200769,1.579411,-0.101075,0.232099,-0.374833,0.935582,-0.095878,-0.018889,0.024820,0.999987,0.001160,-0.001874,0.004678,-0.708184,0.173371,-0.683459,0.036079,-88.901979,72.846761,-77.633518
03308,-9.180231,-1.378123,1.839976,1.472580,1.655242,-0.612044,0.357605,-0.363905,1.175556,-0.091752,-0.014353,0.018207,0.999979,0.001788,-0.001820,0.005878,-0.709957,0.168120,-0.683097,0.032780,-87.933996,73.519776,-76.835850
03309,-9.733570,-0.646848,1.602219,1.056170,2.316617,-0.260526,0.428793,-0.358591,1.440095,-0.097314,-0.007203,0.015833,0.999970,0.002144,-0.001793,0.007200,-0.711790,0.161682,-0.682924,0.028778,-86.825237,74.342420,-75.938602
03310,-10.677385,-0.307734,1.036844,0.367162,2.613051,0.589746,0.288022,-0.407116,1.646651,-0.106764,-0.003971,0.010146,0.999963,0.001440,-0.002036,0.008233,-0.713646,0.155057,-0.682725,0.023529,-85.558154,75.273669,-74.796181
03311,-11.252561,-0.015973,0.819715,0.048363,2.799138,1.116685,0.197510,-0.482240,1.773915,-0.112538,-0.001166,0.007925,0.999957,0.000988,-0.002411,0.008869,-0.715656,0.148294,-0.682306,0.017446,-83.970159,76.268319,-73.275684
03312,-11.135669,0.066230,0.736429,-0.060445,2.633881,1.031911,-0.009157,-0.520970,1.779702,-0.111375,-0.000328,0.007074,0.999957,-0.000046,-0.002605,0.008898,-0.717572,0.142265,-0.681717,0.010617,-82.175755,77.249790,-71.426465
03313,-11.013725,-0.340211,0.269797,-0.460797,1.931334,1.029130,-0.300550,-0.548641,1.726817,-0.110109,-0.004349,0.002402,0.999958,-0.001503,-0.002743,0.008634,-0.719322,0.137425,-0.680942,0.002954,-80.194149,78.186899,-69.223308
03314,-10.994275,-1.221895,-0.306374,-0.885992,0.771697,1.190823,-0.530449,-0.593214,1.681675,-0.109825,-0.013151,-0.003356,0.999957,-0.002652,-0.002966,0.008408,-0.720992,0.133580,-0.679926,-0.005350,-77.905783,79.073339,-66.578723
03315,-10.552072,-2.228320,-0.631870,-1.001332,-0.537811,0.930486,-0.673697,-0.695559,1.692169,-0.105304,-0.023197,-0.006608,0.999952,-0.003368,-0.003478,0.008461,-0.722858,0.130175,-0.678475,-0.014257,-74.933460,79.929461,-63.164396
03316,-9.745751,-2.887882,-0.932556,-1.115230,-1.559280,0.212822,-0.816842,-0.764501,1.786233,-0.097158,-0.029786,-0.009577,0.999944,-0.004084,-0.003822,0.008931,-0.724772,0.126975,-0.676761,-0.024022,-71.147929,80.785497,-58.849567
03317,-9.180734,-4.119169,-1.784453,-1.640511,-3.211985,-0.251005,-1.002191,-0.794538,1.881612,-0.091343,-0.042142,-0.017998,0.999935,-0.005011,-0.003973,0.009408,-0.726581,0.124080,-0.674889,-0.034787,-66.400654,81.632339,-53.466045
03318,-8.677772,-6.184330,-1.326650,-0.678603,-5.359038,-0.532278,-0.696823,-0.741233,1.892251,-0.086138,-0.062707,-0.013369,0.999942,-0.003484,-0.003706,0.009461,-0.728297,0.120060,-0.673192,-0.044512,-60.589950,82.417583,-47.195213
03319,-8.623889,-5.551486,-0.395662,0.104681,-4.719553,-0.699053,-0.333774,-0.686582,1.946688,-0.085679,-0.056357,-0.004158,0.999945,-0.001669,-0.003433,0.009733,-0.729962,0.114509,-0.671725,-0.053185,-53.301423,83.143252,-39.656809
03320,-7.984207,-5.312545,-2.463549,-1.878810,-5.214147,-1.607891,-0.380118,-0.632316,2.043208,-0.079215,-0.053984,-0.024785,0.999941,-0.001901,-0.003162,0.010216,-0.731299,0.108828,-0.670428,-0.062320,-44.342930,83.789759,-30.420451
03321,-8.273116,-4.757944,-1.770847,-1.353497,-4.677693,-1.416146,0.078914,-0.525150,2.114006,-0.082175,-0.048443,-0.017944,0.999941,0.000395,-0.002626,0.010570,-0.732426,0.101233,-0.669618,-0.070116,-33.322183,84.318105,-19.386623
03322,-7.846642,-3.723029,-1.205619,-1.011008,-3.732972,-1.943517,0.185071,-0.545383,2.173180,-0.078022,-0.038068,-0.012304,0.999937,0.000925,-0.002727,0.010866,-0.733554,0.093050,-0.668724,-0.077768,-20.208493,84.600959,-6.318004
03323,-7.132846,-2.757932,-1.091818,-1.055857,-2.946930,-2.750537,-0.061753,-0.412786,2.234885,-0.070992,-0.028377,-0.011056,0.999935,-0.000309,-0.002064,0.011174,-0.734013,0.085589,-0.668157,-0.086407,-6.281156,84.661414,7.705229
03324,-7.321372,-1.950358,-0.919425,-1.076284,-2.287335,-2.611372,-0.354099,-0.257706,2.227220,-0.072978,-0.020334,-0.009253,0.999936,-0.001770,-0.001289,0.011136,-0.733729,0.079299,-0.667948,-0.095910,7.047212,84.500463,21.297141
03325,-8.049830,-1.647264,-1.345539,-1.587411,-2.293887,-1.968007,-0.797236,-0.188746,2.144815,-0.080302,-0.017388,-0.013463,0.999934,-0.003986,-0.000944,0.010724,-0.732989,0.074917,-0.667653,-0.106556,18.456655,84.115322,33.221425
03326,-8.496536,-2.664257,-1.192251,-1.159478,-3.437648,-1.594059,-1.078086,-0.145734,2.039857,-0.084679,-0.027571,-0.011837,0.999933,-0.005390,-0.000729,0.010199,-0.731951,0.071943,-0.667244,-0.117719,27.557614,83.574211,42.996560
03327,-9.060889,-4.077774,-0.854778,-0.421530,-4.918890,-1.147703,-1.207500,-0.124741,1.922021,-0.090206,-0.041697,-0.008354,0.999935,-0.006037,-0.000624,0.009610,-0.730774,0.069826,-0.666699,-0.128865,34.565436,82.935668,50.749483
03328,-9.682531,-5.485289,-1.685150,-0.761620,-6.711609,-0.809932,-1.297244,-0.118405,1.754385,-0.096329,-0.055807,-0.016549,0.999940,-0.006486,-0.000592,0.008772,-0.729556,0.068604,-0.665982,-0.139674,39.698150,82.267680,56.675110
03329,-9.962564,-6.849266,-1.074013,0.321778,-8.004886,-0.694929,-0.970718,0.012379,1.492267,-0.099111,-0.069284,-0.010399,0.999960,-0.004854,0.000062,0.007461,-0.728130,0.067139,-0.665809,-0.148385,43.720455,81.695807,61.298814
03330,-10.576347,-6.826660,-1.056412,0.392074,-8.162019,-0.179191,-0.502811,0.119135,1.097301,-0.105393,-0.068872,-0.010329,0.999982,-0.002514,0.000596,0.005486,-0.726750,0.065370,-0.666205,-0.154051,46.726131,81.290931,64.629666
03331,-10.209136,-6.269414,-2.032753,-0.612020,-7.955054,-0.647214,-0.191292,0.180635,0.731228,-0.101879,-0.063086,-0.020175,0.999992,-0.000956,0.000903,0.003656,-0.725535,0.063730,-0.666923,-0.157329,48.924422,81.042404,66.965736
03332,-8.609196,-6.063086,-0.572414,0.843053,-7.133526,-2.092012,0.243139,0.278114,0.417403,-0.085973,-0.060803,-0.005678,0.999996,0.001216,0.001391,0.002087,-0.724367,0.061640,-0.668233,-0.157983,50.810861,80.955673,68.735133
03333,-7.340015,-5.982888,-0.425275,1.046722,-6.841515,-3.335832,0.335655,0.441634,0.068156,-0.073389,-0.059847,-0.004191,0.999996,0.001678,0.002208,0.000341,-0.722955,0.060512,-0.670091,-0.157014,52.410716,81.075202,70.160962
03334,-6.892444,-6.217316,-0.012894,1.544583,-6.865968,-3.760113,0.426498,0.596744,-0.240113,-0.068999,-0.062090,-0.000056,0.999993,0.002132,0.002984,-0.001201,-0.721281,0.060208,-0.672485,-0.154575,53.896299,81.383729,71.417346
03335,-7.228562,-5.812304,1.234169,2.598762,-6.139770,-3.247043,0.519765,0.649630,-0.508682,-0.072393,-0.057971,0.012426,0.999988,0.002599,0.003248,-0.002543,-0.719655,0.060517,-0.675043,-0.150836,55.096402,81.830593,72.330534
03336,-7.635372,-5.791640,1.678399,3.004600,-6.008249,-2.774786,0.467912,0.651413,-0.710043,-0.076504,-0.057684,0.016898,0.999986,0.002340,0.003257,-0.003550,-0.718137,0.061686,-0.677495,-0.146542,55.922101,82.370630,72.893960
03337,-7.449171,-5.988606,2.596600,3.945520,-5.862398,-2.872896,0.587704,0.580492,-0.884710,-0.074680,-0.059632,0.026007,0.999982,0.002939,0.002902,-0.004424,-0.717005,0.062973,-0.679699,-0.141233,56.195079,82.970640,72.831143
03338,-7.128339,-5.039021,3.741879,4.770292,-4.550037,-2.975455,0.605869,0.535898,-1.084327,-0.071455,-0.050117,0.037458,0.999977,0.003029,0.002679,-0.005422,-0.716139,0.064828,-0.681671,-0.135155,55.748193,83.650733,72.032173
03339,-9.596949,-1.173459,2.999466,2.888004,-1.241145,-0.190157,0.583847,0.584252,-1.289840,-0.095955,-0.011204,0.030242,0.999971,0.002919,0.002921,-0.006449,-0.715208,0.067508,-0.683693,-0.128393,54.661296,84.442696,70.604878
03340,-17.745334,9.844345,-3.491030,-6.544575,7.003291,8.411132,0.345895,1.281294,-1.174237,-0.177089,0.099543,-0.033603,0.999961,0.001729,0.006406,-0.005871,-0.711686,0.071071,-0.688054,-0.122613,57.491242,85.404292,73.247387
03341,-30.238697,12.020824,22.855172,18.436031,15.005621,22.063202,2.572272,1.003723,1.252649,-0.301962,0.115351,0.231572,0.999885,0.012861,0.005018,0.006263,-0.708318,0.058194,-0.693542,-0.117891,68.939043,85.015312,83.257654
03342,-11.624671,8.133019,8.465050,5.862653,8.945961,2.777731,-2.207677,-1.739832,0.338865,-0.117111,0.082053,0.082731,0.999900,-0.011038,-0.008699,0.001694,-0.713453,0.063771,-0.686088,-0.127280,58.916107,84.394394,74.462881
03343,-6.443697,-5.973809,-15.146796,-12.997238,-10.506750,-4.588032,-2.648421,0.786679,-0.852748,-0.065290,-0.061457,-0.150406,0.999895,-0.013242,0.003933,-0.004264,-0.710405,0.076612,-0.686833,-0.133102,58.815243,85.038597,75.887066
03344,-8.010879,-0.642190,1.121338,1.108912,-0.887369,-1.823622,-0.760597,0.869600,-1.423241,-0.080102,-0.005808,0.011585,0.999958,-0.003803,0.004348,-0.007116,-0.708059,0.084742,-0.688823,-0.130360,58.381708,85.987586,75.889820
03345,-7.542321,1.352500,7.709805,6.755474,3.201560,-1.921877,-2.317236,-0.103576,-1.041434,-0.075388,0.014809,0.076892,0.999919,-0.011586,-0.000518,-0.005207,-0.708079,0.096433,-0.686421,-0.134729,51.097465,86.434486,69.921812
03346,-11.394597,-3.936281,-7.419780,-5.924868,-6.778327,1.111263,-2.171646,0.325622,-0.941538,-0.114252,-0.039627,-0.073583,0.999929,-0.010858,0.001628,-0.004708,-0.706513,0.107531,-0.685589,-0.138723,46.115239,86.956251,66.178158
03347,-13.044273,-7.092338,-10.222232,-7.417136,-10.734570,2.625204,-0.251990,0.524107,-0.848044,-0.131009,-0.070497,-0.101791,0.999987,-0.001260,0.002621,-0.004240,-0.705182,0.111667,-0.686774,-0.136349,43.181546,87.504876,63.387189
03348,-7.613211,-7.588362,-3.519741,-0.844733,-8.592971,-2.506587,0.469143,0.374568,-0.801233,-0.076501,-0.075495,-0.035232,0.999987,0.002346,0.001873,-0.004006,-0.704710,0.112983,-0.687941,-0.131743,38.241149,87.961088,58.174440
03349,-8.028872,-3.648713,-2.032698,-0.825961,-4.319782,-1.902935,1.197686,0.702663,-0.815488,-0.080508,-0.036038,-0.020261,0.999968,0.005988,0.003513,-0.004077,-0.703504,0.112009,-0.690698,-0.124388,34.406319,88.556783,53.653123
03350,-10.535773,0.887976,-2.398226,-2.699877,-0.098802,0.686925,1.125089,0.571083,-0.855892,-0.105386,0.009464,-0.023629,0.999971,0.005625,0.002855,-0.004279,-0.702689,0.111325,-0.692890,-0.117209,21.686591,89.073850,40.286547
03351,-10.822993,3.610460,0.438453,-0.851702,3.501688,1.021356,0.394641,0.495212,-0.836246,-0.108066,0.036548,0.004724,0.999986,0.001973,0.002476,-0.004181,-0.701694,0.113107,-0.694363,-0.112666,-12.631988,89.404897,5.740884
03352,-11.001564,2.255793,1.875916,0.951697,2.767407,1.190813,-0.383887,0.280122,-0.763657,-0.109902,0.023014,0.018869,0.999990,-0.001919,0.001401,-0.003818,-0.700943,0.117227,-0.694673,-0.111200,-53.165520,89.295287,-34.574582
03353,-9.983565,0.542314,0.703872,0.382760,0.843928,0.167389,-0.858775,0.082873,-0.681242,-0.099813,0.005793,0.007056,0.999985,-0.004294,0.000414,-0.003406,-0.700541,0.122628,-0.694053,-0.111785,-68.648449,88.976055,-49.565481
03354,-9.643740,-1.041730,0.593013,0.788929,-0.625053,-0.147022,-1.169542,0.105202,-0.598388,-0.096465,-0.010094,0.006041,0.999978,-0.005848,0.000526,-0.002992,-0.699794,0.128823,-0.693369,-0.113721,-76.830162,88.670124,-57.078165
03355,-9.508890,-2.818484,0.183135,1.015323,-2.371290,-0.234480,-1.211646,0.098219,-0.553998,-0.095165,-0.027909,0.002048,0.999978,-0.006058,0.000491,-0.002770,-0.698993,0.135017,-0.692628,-0.115957,-81.757115,88.371697,-61.310678
03356,-9.246086,-4.401790,-0.398243,1.054753,-3.999715,-0.436454,-0.932765,0.147564,-0.546817,-0.092584,-0.043783,-0.003710,0.999985,-0.004664,0.000738,-0.002734,-0.698174,0.140220,-0.692208,-0.117216,-85.948748,88.074250,-64.969140
03357,-8.677198,-4.306823,-0.456068,0.999931,-3.890520,-0.985787,-0.408410,0.203004,-0.534305,-0.086891,-0.042845,-0.004385,0.999994,-0.002042,0.001015,-0.002672,-0.697514,0.143596,-0.692275,-0.116661,-89.598159,87.776412,-68.385030
03358,-8.720436,-2.824651,-0.545607,0.392028,-2.487898,-0.982128,-0.026932,0.294901,-0.522410,-0.087286,-0.028019,-0.005324,0.999995,-0.000135,0.001475,-0.002612,-0.696792,0.145635,-0.692894,-0.114761,-93.417726,87.478249,-72.191933
03359,-9.370190,-1.248785,-0.551065,-0.181967,-0.939107,-0.392059,0.189488,0.384786,-0.544164,-0.093746,-0.012228,-0.005342,0.999994,0.000947,0.001924,-0.002721,-0.695925,0.147065,-0.693919,-0.111967,-97.287538,87.151072,-76.172803
03360,-9.944379,-0.043431,-0.153382,-0.237868,0.417252,0.121346,0.304887,0.384685,-0.559426,-0.099447,-0.000154,-0.001343,0.999993,0.001524,0.001923,-0.002797,-0.695138,0.148126,-0.694997,-0.108720,-100.263061,86.806595,-79.326900
03361,-10.027919,0.872108,0.027969,-0.382570,1.404476,0.147294,0.268315,0.324534,-0.556147,-0.100254,0.008999,0.000454,0.999994,0.001342,0.001623,-0.002781,-0.694528,0.149286,-0.695832,-0.105652,-102.102334,86.462265,-81.321499
03362,-9.761786,1.626095,0.154513,-0.520231,2.195921,-0.175908,0.036249,0.252719,-0.531880,-0.097572,0.016520,0.001671,0.999996,0.000181,0.001264,-0.002659,-0.693970,0.151109,-0.696314,-0.103531,-103.199467,86.139415,-82.441249
03363,-9.556344,1.411485,0.146715,-0.448897,2.032345,-0.378422,-0.313425,0.211769,-0.512591,-0.095525,0.014362,0.001546,0.999995,-0.001567,0.001059,-0.002563,-0.693278,0.154074,-0.696473,-0.102722,-104.028570,85.830072,-83.090630
03364,-9.590038,0.185380,-0.163017,-0.303231,0.831502,-0.260398,-0.529989,0.178496,-0.498566,-0.095897,0.002089,-0.001550,0.999993,-0.002650,0.000892,-0.002493,-0.692516,0.157704,-0.696416,-0.102743,-104.679056,85.534266,-83.437957
03365,-9.475066,-1.182240,-0.510242,-0.130592,-0.525980,-0.265907,-0.559966,0.143806,-0.482302,-0.094782,-0.011608,-0.005002,0.999993,-0.002800,0.000719,-0.002412,-0.691837,0.161378,-0.696218,-0.102948,-105.069832,85.250870,-83.506467
03366,-9.295472,-1.510067,-0.466892,0.035103,-0.782939,-0.416429,-0.446639,0.147949,-0.461435,-0.092993,-0.014896,-0.004567,0.999995,-0.002233,0.000740,-0.002307,-0.691212,0.164570,-0.696110,-0.102828,-105.445496,84.979820,-83.626178
03367,-9.500971,-0.607305,-0.363933,-0.202924,0.154144,-0.288792,-0.339039,0.206375,-0.467160,-0.095027,-0.005857,-0.003531,0.999995,-0.001695,0.001032,-0.002336,-0.690472,0.167456,-0.696239,-0.102263,-106.062271,84.694938,-84.048756
03368,-9.965363,0.854771,-0.449942,-0.832911,1.563304,0.041431,-0.401321,0.229601,-0.509063,-0.099637,0.008792,-0.004403,0.999994,-0.002007,0.001148,-0.002545,-0.689609,0.170696,-0.696383,-0.101751,-106.731846,84.384352,-84.489909
03369,-9.601275,1.135469,-0.383233,-0.878596,1.861572,-0.358427,-0.524553,0.183093,-0.541586,-0.095985,0.011605,-0.003775,0.999992,-0.002623,0.000915,-0.002708,-0.688815,0.174465,-0.696258,-0.101593,-107.104147,84.061902,-84.560431
03370,-9.447236,0.135596,0.157262,-0.001592,1.185515,-0.437845,-0.539871,0.192345,-0.560572,-0.094466,0.001625,0.001659,0.999992,-0.002699,0.000962,-0.002803,-0.687970,0.178338,-0.696138,-0.101415,-107.488234,83.728866,-84.635134
03371,-9.629650,-1.454622,0.280803,0.723340,-0.143481,-0.097711,-0.511783,0.164617,-0.612953,-0.096338,-0.014244,0.002924,0.999992,-0.002559,0.000823,-0.003065,-0.687266,0.182295,-0.695872,-0.100980,-107.616153,83.370667,-84.467259
03372,-9.470949,-3.200018,-0.148274,1.015627,-1.857074,-0.041283,-0.407218,0.171776,-0.648203,-0.094814,-0.031696,-0.001337,0.999992,-0.002036,0.000859,-0.003241,-0.686635,0.186001,-0.695647,-0.100054,-107.678101,82.993315,-84.294182
03373,-9.314769,-4.156748,-0.350174,1.210267,-2.759133,-0.061374,-0.031291,0.228115,-0.659061,-0.093288,-0.041261,-0.003389,0.999994,-0.000156,0.001141,-0.003295,-0.686158,0.188495,-0.695777,-0.097727,-107.750466,82.598858,-84.347499
03374,-9.456166,-3.482351,-0.212994,1.058305,-2.004922,0.008261,0.414320,0.310659,-0.705309,-0.094687,-0.034485,-0.002055,0.999990,0.002072,0.001553,-0.003527,-0.685823,0.189644,-0.696361,-0.093614,-107.844267,82.166084,-84.681149
03375,-9.896401,-1.697865,-0.365022,0.201796,-0.304321,0.228271,0.611432,0.355337,-0.755246,-0.099033,-0.016594,-0.003525,0.999987,0.003057,0.001777,-0.003776,-0.685530,0.190324,-0.697119,-0.088597,-107.904308,81.696626,-85.093971
03376,-10.333789,0.072065,-0.802079,-0.896169,1.290448,0.432634,0.525157,0.324373,-0.799363,-0.103347,0.001154,-0.007851,0.999987,0.002626,0.001622,-0.003997,-0.685262,0.191418,-0.697682,-0.083759,-107.834316,81.210097,-85.326977
03377,-10.059378,1.210818,-1.041799,-1.553601,2.284313,-0.009110,0.250127,0.241074,-0.788541,-0.100557,0.012518,-0.010281,0.999991,0.001251,0.001205,-0.003943,-0.685006,0.193394,-0.697830,-0.079993,-107.635381,80.742611,-85.269064
03378,-9.346125,1.210290,-1.040145,-1.551114,2.245249,-0.732532,-0.037872,0.181089,-0.750205,-0.093424,0.012451,-0.010319,0.999993,-0.000189,0.000905,-0.003751,-0.684650,0.196179,-0.697692,-0.077422,-107.463198,80.307892,-85.072013
03379,-9.194651,0.385105,-1.274113,-1.463219,1.446423,-0.752900,-0.341056,0.186761,-0.767682,-0.091943,0.004182,-0.012662,0.999991,-0.001705,0.000934,-0.003838,-0.683976,0.200076,-0.697420,-0.075840,-107.471880,79.861285,-84.880998
03380,-9.205202,-1.198510,-1.384694,-0.967167,0.035814,-0.477142,-0.449836,0.192870,-0.800393,-0.092112,-0.011648,-0.013732,0.999989,-0.002249,0.000964,-0.004002,-0.683167,0.204443,-0.697089,-0.074520,-107.542507,79.397088,-84.690291
03381,-9.268846,-2.414922,-0.418731,0.388473,-0.606600,-0.252393,-0.256425,0.241830,-0.829553,-0.092793,-0.023770,-0.004045,0.999990,-0.001282,0.001209,-0.004148,-0.682385,0.208279,-0.696946,-0.072372,-107.616166,78.907281,-84.614308
03382,-9.508709,-2.454357,0.079751,0.852052,-0.318482,-0.034259,-0.043515,0.261787,-0.886540,-0.095193,-0.024122,0.000927,0.999989,-0.000218,0.001309,-0.004433,-0.681758,0.211576,-0.696881,-0.069268,-107.580069,78.384152,-84.551569
03383,-9.446447,-1.759299,0.173174,0.657511,0.421052,-0.234056,0.056192,0.264351,-0.927696,-0.094542,-0.017155,0.001852,0.999988,0.000281,0.001322,-0.004638,-0.681231,0.214688,-0.696793,-0.065669,-107.461474,77.836792,-84.461881
03384,-9.325896,-1.052218,0.300357,0.490492,1.171393,-0.509127,0.111199,0.293142,-0.968194,-0.093304,-0.010072,0.003135,0.999987,0.000556,0.001466,-0.004841,-0.680657,0.217743,-0.696769,-0.061712,-107.364188,77.263610,-84.427005
03385,-9.304018,-0.919771,0.372243,0.495032,1.406645,-0.575546,0.096472,0.315604,-1.005480,-0.093079,-0.008732,0.003865,0.999986,0.000482,0.001578,-0.005027,-0.679985,0.220992,-0.696749,-0.057649,-107.301658,76.664960,-84.418207
03386,-9.272998,-1.193596,0.313104,0.536139,1.228851,-0.554565,0.039218,0.312001,-1.044663,-0.092786,-0.011452,0.003273,0.999985,0.000196,0.001560,-0.005223,-0.679251,0.224552,-0.696646,-0.053658,-107.243391,76.046716,-84.380875
03387,-9.347703,-1.459092,0.251674,0.568520,1.088584,-0.428517,-0.020563,0.327919,-1.089287,-0.093550,-0.014081,0.002672,0.999984,-0.000103,0.001640,-0.005446,-0.678389,0.228481,-0.696501,-0.049702,-107.223100,75.400207,-84.346498
03388,-9.574287,-1.642966,-0.149468,0.251697,0.938815,-0.146105,-0.024368,0.333460,-1.141965,-0.095837,-0.015883,-0.001333,0.999982,-0.000122,0.001667,-0.005710,-0.677491,0.232587,-0.696299,-0.045575,-107.189423,74.725060,-84.296695
03389,-10.515497,-2.002925,-1.319668,-0.730343,0.545378,0.934246,0.008923,0.305458,-1.207913,-0.105293,-0.019393,-0.013037,0.999981,0.000045,0.001527,-0.006040,-0.676723,0.236807,-0.695899,-0.041137,-107.044262,74.017438,-84.150053
03390,-13.257128,-2.101066,-3.515073,-2.825792,0.534612,3.761108,0.005172,0.228145,-1.344120,-0.132748,-0.020118,-0.035000,0.999977,0.000026,0.001141,-0.006721,-0.676216,0.241475,-0.695055,-0.036343,-106.700380,73.248898,-83.794241
03391,-14.191877,-2.454615,-3.243589,-2.536547,0.786323,4.709660,0.474892,0.046080,-1.496649,-0.142104,-0.023406,-0.032460,0.999969,0.002374,0.000230,-0.007483,-0.676903,0.245051,-0.693451,-0.029617,-105.726414,72.423431,-83.058522
03392,-12.235317,-0.643625,-2.028059,-2.122700,2.439463,2.177708,1.056451,-0.045886,-1.573951,-0.122394,-0.005366,-0.020339,0.999955,0.005282,-0.000229,-0.007870,-0.678579,0.246883,-0.691484,-0.020726,-104.318018,71.565551,-82.213603
03393,-12.041451,2.299111,-0.547142,-1.894438,5.673915,0.901621,1.147039,0.019147,-1.533385,-0.120234,0.023944,-0.005324,0.999954,0.005735,0.000096,-0.007667,-0.680080,0.248262,-0.689727,-0.011574,-103.074881,70.714724,-81.593405
03394,-13.187250,4.700286,1.107940,-1.297376,8.896267,0.975904,0.918052,0.008581,-1.459480,-0.131525,0.047912,0.011304,0.999963,0.004590,0.000043,-0.007297,-0.681269,0.250134,-0.687963,-0.003478,-102.048110,69.903665,-81.061049
03395,-15.445040,5.578158,5.878129,2.729619,12.208228,2.341485,0.980488,-0.052616,-1.222573,-0.154122,0.056435,0.059016,0.999969,0.004902,-0.000263,-0.006113,-0.682701,0.250965,-0.686236,0.003950,-101.023126,69.229145,-80.566030
03396,-13.134146,6.050406,7.820192,4.514421,12.538253,-0.185614,0.734023,-0.424307,-0.838802,-0.131253,0.060768,0.078146,0.999982,0.003670,-0.002122,-0.004194,-0.685070,0.251311,-0.683700,0.008755,-99.746976,68.806359,-79.649179
03397,-9.511000,4.971459,0.238736,-2.066578,7.807101,-2.740933,-0.401746,-0.244671,-0.285616,-0.095042,0.049855,0.002171,0.999996,-0.002009,-0.001223,-0.001428,-0.685415,0.253640,-0.682502,0.008006,-99.542276,68.675011,-79.182344
03398,-12.862563,1.428439,-1.496137,-2.744780,5.325606,1.755732,0.256369,0.175031,0.298658,-0.128660,0.014111,-0.014831,0.999998,0.001282,0.000875,0.001493,-0.685174,0.251704,-0.683460,0.008036,-99.717052,68.833037,-79.526947
03399,-12.879744,0.600492,1.466348,0.350102,5.553374,1.910601,1.408923,-0.013296,0.465419,-0.128812,0.005602,0.014695,0.999972,0.007045,-0.000066,0.002327,-0.687020,0.245243,-0.683911,0.011192,-98.993852,69.104365,-79.617091
03400,-11.039503,1.639771,2.038223,0.717933,5.941894,-0.174653,1.560310,0.030748,0.420619,-0.110426,0.016006,0.020525,0.999967,0.007801,0.000154,0.002103,-0.688850,0.238405,-0.684413,0.015076,-98.234207,69.346048,-79.760266
03401,-10.168780,1.934090,1.919421,0.622421,5.802976,-1.051047,1.528314,0.022928,0.534469,-0.101737,0.018922,0.019352,0.999967,0.007641,0.000115,0.002672,-0.690640,0.231261,-0.684978,0.018443,-97.495322,69.654889,-79.906612
03402,-8.883731,0.216381,2.101348,1.419601,3.803398,-1.633383,1.677785,0.006777,0.850506,-0.088844,0.001610,0.021032,0.999956,0.008389,0.000034,0.004252,-0.692626,0.222514,-0.685789,0.021216,-96.701683,70.143945,-80.084638
03403,-7.690994,-1.598158,1.593435,1.525074,1.514786,-2.091117,1.771340,0.032378,1.290031,-0.076802,-0.016618,0.015801,0.999940,0.008857,0.000162,0.006450,-0.694611,0.211895,-0.687092,0.022808,-95.957691,70.884058,-80.372515
03404,-7.915227,-2.150102,1.985589,2.043411,1.027626,-1.689775,2.140817,0.063451,1.784653,-0.078949,-0.022417,0.019644,0.999903,0.010704,0.000317,0.008923,-0.696819,0.198272,-0.688881,0.023986,-95.123221,71.904180,-80.785777
03405,-9.318179,0.401817,3.458220,2.831389,3.939470,-1.129006,2.464890,0.019246,2.121915,-0.093211,0.002603,0.034629,0.999868,0.012324,0.000096,0.010609,-0.699389,0.182303,-0.690647,0.025050,-94.040202,73.122676,-81.131511
03406,-11.143504,3.088734,3.456479,2.267593,6.704480,-0.037011,2.366247,-0.048492,2.145194,-0.111763,0.029278,0.034890,0.999872,0.011831,-0.000242,0.010726,-0.701915,0.166574,-0.692035,0.025629,-92.831133,74.356985,-81.283858
03407,-11.882315,5.686183,3.358888,1.769117,9.076298,0.151534,1.984376,-0.210958,1.998308,-0.119417,0.055335,0.034017,0.999900,0.009922,-0.001055,0.009991,-0.704515,0.152658,-0.692615,0.025254,-91.383776,75.513304,-80.963094
03408,-11.513080,5.858961,3.856678,2.340263,9.009149,-0.060575,1.132033,-0.408840,1.900174,-0.115758,0.057273,0.038657,0.999937,0.005660,-0.002044,0.009501,-0.707012,0.142102,-0.692424,0.022126,-89.823739,76.610069,-80.023582
03409,-11.166317,3.171342,3.164743,2.131341,6.028855,0.378757,0.224441,-0.604928,1.797722,-0.112037,0.030672,0.031344,0.999954,0.001122,-0.003025,0.008988,-0.709466,0.135091,-0.691484,0.016066,-88.072029,77.641714,-78.359610
03410,-10.874447,-0.113631,1.929955,1.424858,2.406176,0.872263,-0.315627,-0.759558,1.682674,-0.108802,-0.002022,0.018889,0.999956,-0.001578,-0.003798,0.008413,-0.712005,0.130418,-0.689905,0.008450,-85.930079,78.587299,-75.985528
03411,-9.866853,-2.685576,1.158558,1.097798,-0.584944,0.402958,-0.448255,-0.847154,1.665659,-0.098489,-0.027651,0.011230,0.999954,-0.002241,-0.004236,0.008328,-0.714705,0.126241,-0.687938,0.000369,-83.190653,79.499497,-72.934794
03412,-7.611866,-3.767299,0.924498,1.143861,-2.226306,-1.644393,-0.476549,-0.863106,1.749399,-0.075825,-0.038315,0.009008,0.999950,-0.002383,-0.004315,0.008747,-0.717361,0.121892,-0.685908,-0.008108,-79.840263,80.423342,-69.254685
03413,-7.642407,-2.467985,0.162876,0.141179,-1.248289,-1.878970,-0.411624,-0.745873,1.768624,-0.076207,-0.025351,0.001396,0.999952,-0.002058,-0.003729,0.008843,-0.719595,0.117211,-0.684235,-0.016369,-76.112366,81.332881,-65.241266
03414,-9.731614,0.443519,-1.157141,-1.849536,1.441145,-0.286997,-0.951112,-0.726560,1.857663,-0.097308,0.003475,-0.011943,0.999939,-0.004755,-0.003633,0.009288,-0.721347,0.114180,-0.682572,-0.026773,-71.810769,82.245982,-60.344241
03415,-10.358419,0.429764,0.734089,-0.089570,1.672382,0.444566,-1.027584,-0.983123,2.003720,-0.103655,0.003295,0.006813,0.999925,-0.005138,-0.004915,0.010018,-0.723824,0.110852,-0.679954,-0.038117,-64.961589,83.113228,-52.846453
03416,-9.784688,-0.855278,-0.144252,-0.692740,-0.032627,-0.014338,-1.422721,-0.982016,1.985218,-0.097747,-0.009536,-0.001857,0.999913,-0.007113,-0.004910,0.009926,-0.725951,0.109024,-0.677153,-0.050721,-56.566327,83.836423,-43.575904
03417,-10.788981,-3.040953,-1.948213,-2.048894,-2.718598,1.043237,-1.662941,-0.815484,1.887458,-0.107515,-0.031588,-0.019662,0.999913,-0.008314,-0.004077,0.009437,-0.727294,0.108397,-0.674713,-0.063693,-47.368393,84.405549,-33.372801
03418,-10.929807,-4.397487,-1.360110,-1.142166,-4.115474,1.250859,-1.548876,-0.951082,1.796250,-0.108831,-0.045060,-0.013773,0.999918,-0.007744,-0.004755,0.008981,-0.729049,0.107626,-0.671661,-0.076002,-36.326024,84.688797,-21.388677
03419,-9.131439,-5.291736,-1.219247,-0.586555,-5.205883,-0.570215,-1.583181,-1.027302,1.767566,-0.090779,-0.053818,-0.012236,0.999916,-0.007916,-0.005136,0.008838,-0.730941,0.107007,-0.668182,-0.088359,-24.497750,84.693045,-8.599641
03420,-8.632026,-7.406452,-1.941747,-0.592673,-7.615501,-1.164774,-1.304803,-0.870231,1.711924,-0.085597,-0.074925,-0.019304,0.999933,-0.006524,-0.004351,0.008559,-0.732361,0.105632,-0.665277,-0.099475,-13.592560,84.539411,3.104919
03421,-8.943023,-6.401815,-1.901684,-0.808553,-6.805997,-1.003694,-0.746568,-0.718696,1.702829,-0.088812,-0.064847,-0.019096,0.999950,-0.003733,-0.003593,0.008514,-0.733499,0.102289,-0.663112,-0.108618,-3.449102,84.271260,13.725947
03422,-7.983145,-5.199923,-1.874029,-1.004590,-5.781300,-2.076640,-0.596471,-0.656232,1.722910,-0.079318,-0.052740,-0.018845,0.999953,-0.002982,-0.003281,0.008614,-0.734415,0.098370,-0.661213,-0.117286,5.705095,83.870809,23.273166
03423,-7.886804,-4.627678,-1.657330,-0.928807,-5.304213,-2.238758,-0.393615,-0.423391,1.610457,-0.078457,-0.046942,-0.016648,0.999963,-0.001968,-0.002117,0.008052,-0.734673,0.094193,-0.660167,-0.124753,13.381501,83.471245,31.223183
03424,-8.688500,-2.875596,-2.645361,-2.444298,-4.114708,-1.575588,-0.433475,-0.244965,1.464126,-0.086639,-0.029448,-0.026497,0.999970,-0.002167,-0.001225,0.007321,-0.734356,0.090764,-0.659647,-0.131715,19.661650,83.092467,37.797187
03425,-9.143364,-1.365189,-2.298016,-2.591793,-2.744179,-1.066489,-0.620489,-0.159397,1.436378,-0.091314,-0.014379,-0.023009,0.999969,-0.003102,-0.000797,0.007182,-0.733653,0.088153,-0.659257,-0.139151,25.162325,82.686461,43.698681
03426,-9.042428,-2.235382,-0.818630,-0.862996,-3.224994,-1.078517,-0.780020,-0.141392,1.376529,-0.090262,-0.023007,-0.008161,0.999968,-0.003900,-0.000707,0.006883,-0.732808,0.086342,-0.658762,-0.146871,29.750377,82.244732,48.777900
03427,-8.718106,-5.153007,-2.307582,-1.204572,-6.524905,-1.821653,-0.907691,-0.006985,1.176889,-0.086875,-0.052146,-0.022843,0.999972,-0.004538,-0.000035,0.005884,-0.731574,0.085741,-0.658532,-0.154217,33.358269,81.880611,52.945878
03428,-9.676928,-8.008127,-2.643971,-0.545521,-9.503763,-1.202052,-0.455260,0.158023,0.920942,-0.096420,-0.080586,-0.026180,0.999986,-0.002276,0.000790,0.004605,-0.730151,0.084461,-0.659126,-0.159056,36.462051,81.646636,56.346032
03429,-9.175825,-8.589105,-1.478168,0.836978,-9.659662,-1.679834,0.171604,0.049884,0.668731,-0.091474,-0.086185,-0.014833,0.999994,0.000858,0.000249,0.003344,-0.729541,0.081632,-0.659696,-0.160954,38.730301,81.428131,58.540325
03430,-7.619838,-6.849340,-1.196762,0.623096,-7.784378,-3.073057,0.682164,0.181321,0.447505,-0.076056,-0.068622,-0.012133,0.999991,0.003411,0.000907,0.002238,-0.728868,0.077779,-0.661064,-0.160302,40.872445,81.337470,60.312095
03431,-7.705046,-4.566183,-0.595006,0.401009,-5.484723,-2.718410,0.931735,0.428206,0.229710,-0.077011,-0.045722,-0.005998,0.999986,0.004659,0.002141,0.001149,-0.727638,0.073934,-0.663426,-0.157933,43.140751,81.424753,62.067274
03432,-7.415233,-3.547861,-0.181614,0.478278,-4.364248,-2.860669,0.702772,0.456888,-0.010481,-0.074158,-0.035468,-0.001771,0.999991,0.003514,0.002284,-0.000052,-0.726397,0.071738,-0.665613,-0.155434,44.742134,81.610962,63.279739
03433,-6.920502,-3.446138,0.158231,0.811929,-4.086545,-3.298464,0.393561,0.554140,-0.216510,-0.069238,-0.034390,0.001706,0.999994,0.001968,0.002771,-0.001083,-0.724876,0.071431,-0.667824,-0.153180,45.927439,81.915682,64.250687
03434,-6.695549,-4.308313,0.909296,1.829210,-4.615694,-3.522378,0.200378,0.565976,-0.360248,-0.067007,-0.042972,0.009239,0.999994,0.001002,0.002830,-0.001801,-0.723342,0.072307,-0.669876,-0.151042,46.713435,82.282402,64.928790
03435,-6.556385,-5.103775,1.772540,2.922901,-5.054327,-3.641230,0.144038,0.506589,-0.473601,-0.065639,-0.050895,0.017855,0.999994,0.000720,0.002533,-0.002368,-0.722069,0.073729,-0.671615,-0.148704,46.993966,82.672400,65.129868
03436,-7.469966,-4.565573,2.690510,3.588687,-4.328727,-2.583106,0.141503,0.484168,-0.681837,-0.074789,-0.045420,0.027054,0.999991,0.000708,0.002421,-0.003409,-0.721010,0.075832,-0.673192,-0.145628,46.558520,83.140531,64.609852
03437,-12.243098,0.076987,-1.103525,-1.683908,-1.508081,2.270574,-0.172756,0.621887,-1.148917,-0.122457,0.001464,-0.010656,0.999978,-0.000864,0.003109,-0.005745,-0.719692,0.080752,-0.674831,-0.141869,44.650430,83.853980,62.790718
03438,-22.744271,8.176496,-1.006084,-4.496507,5.459164,13.320182,-0.191827,1.683066,-1.244875,-0.227002,0.083170,-0.008229,0.999945,-0.000959,0.008415,-0.006224,-0.714793,0.086798,-0.680192,-0.137390,46.500898,85.032041,64.760733
03439,-25.974907,6.600251,19.780518,15.773197,10.311190,17.653870,0.579279,0.049255,0.094110,-0.259731,0.065307,0.198059,0.999996,0.002896,0.000246,0.000471,-0.714828,0.084417,-0.680779,-0.135774,47.490118,85.005544,65.421954
03440,-7.771913,0.126202,2.242449,1.770072,0.204088,-1.921446,-2.694711,-0.815810,0.078799,-0.077810,0.001530,0.022088,0.999901,-0.013473,-0.004079,0.000394,-0.716357,0.093183,-0.675981,-0.145599,42.660756,84.636863,62.123598
03441,-5.328470,-8.257026,-6.949045,-3.922588,-10.509752,-5.452070,-1.530012,0.781852,-0.625971,-0.053813,-0.082930,-0.068647,0.999958,-0.007650,0.003909,-0.003130,-0.713450,0.101320,-0.677318,-0.148200,42.206572,85.202608,62.549210
03442,-8.069054,-5.101462,2.476149,3.810837,-4.451396,-1.880056,-0.469321,0.860602,-1.185246,-0.080883,-0.050477,0.025228,0.999970,-0.002347,0.004303,-0.005926,-0.711169,0.107608,-0.679402,-0.145162,39.469930,86.013554,60.074753
03443,-6.573191,-3.498648,3.144952,3.946608,-2.506632,-3.218910,-0.949511,0.149602,-1.213495,-0.065918,-0.034437,0.031663,0.999970,-0.004748,0.000748,-0.006067,-0.711031,0.115191,-0.678544,-0.144029,31.027400,86.479584,52.161156
03444,-9.905824,-3.243368,-4.728315,-3.581810,-5.152651,-0.240796,-0.606286,0.678477,-1.047263,-0.099386,-0.032056,-0.046849,0.999976,-0.003031,0.003392,-0.005236,-0.709131,0.121351,-0.679883,-0.142010,24.497909,87.098193,45.969916
03445,-13.171481,-2.897078,-6.619327,-5.548271,-5.508093,3.015843,0.662876,0.751981,-0.812129,-0.132078,-0.028216,-0.065791,0.999979,0.003314,0.003760,-0.004061,-0.707560,0.122275,-0.682486,-0.136458,18.949761,87.665603,40.037727
03446,-9.904958,-3.182477,-3.503457,-2.442557,-4.430517,-0.070321,1.021781,0.513352,-0.802024,-0.099265,-0.031248,-0.034941,0.999976,0.005109,0.002567,-0.004010,-0.706977,0.121710,-0.684475,-0.129858,9.656726,88.060739,30.152951
03447,-10.165047,-2.370177,-3.583404,-2.820318,-3.575427,0.239523,1.105195,0.793017,-0.906446,-0.101897,-0.023043,-0.035559,0.999967,0.005526,0.003965,-0.004532,-0.705521,0.121401,-0.687397,-0.122424,-6.699089,88.529042,13.158531
03448,-10.900371,-0.530383,-2.988294,-2.894523,-1.511962,1.020756,0.844071,0.579353,-0.851787,-0.109111,-0.004714,-0.029588,0.999978,0.004220,0.002897,-0.004259,-0.704563,0.121669,-0.689408,-0.116205,-29.510547,88.694604,-10.142695
03449,-9.939440,-0.372425,-1.008759,-1.043503,-0.600106,0.111980,0.396494,0.463468,-0.775871,-0.099431,-0.003319,-0.009864,0.999988,0.001982,0.002317,-0.003879,-0.703669,0.123200,-0.690768,-0.111860,-50.884357,88.608165,-31.747631
03450,-9.916689,-0.874904,0.451115,0.515650,-0.510542,0.126253,0.132409,0.431717,-0.739974,-0.099188,-0.008385,0.004720,0.999991,0.000662,0.002159,-0.003700,-0.702682,0.125496,-0.691882,-0.108573,-66.981338,88.373223,-47.925500
03451,-10.721123,-1.094030,1.074635,1.176190,-0.414016,0.945508,-0.074508,0.389067,-0.693920,-0.107227,-0.010564,0.010959,0.999992,-0.000373,0.001945,-0.003470,-0.701680,0.128354,-0.692744,-0.106185,-77.593280,88.063164,-58.497927
03452,-10.374028,-1.129508,1.066479,1.195845,-0.381160,0.601621,-0.444617,0.229746,-0.626259,-0.103763,-0.010946,0.010809,0.999992,-0.002223,0.001149,-0.003131,-0.700942,0.132170,-0.692891,-0.105421,-82.921050,87.736353,-63.573852
03453,-9.580188,-1.461324,0.643885,0.928477,-0.793523,-0.177441,-0.737550,0.225636,-0.531169,-0.095833,-0.014335,0.006600,0.999989,-0.003688,0.001128,-0.002656,-0.699966,0.136699,-0.692911,-0.106002,-86.940512,87.447652,-67.171997
03454,-9.366866,-2.005510,0.591209,1.081174,-1.271110,-0.361508,-0.744007,0.241472,-0.484203,-0.093710,-0.019806,0.006099,0.999989,-0.003720,0.001207,-0.002421,-0.698886,0.141073,-0.693007,-0.106761,-90.374060,87.178934,-70.182076
03455,-9.041898,-2.281124,0.279160,0.906433,-1.595660,-0.665593,-0.704830,0.219514,-0.471001,-0.090469,-0.022588,0.002971,0.999990,-0.003524,0.001098,-0.002355,-0.697893,0.145271,-0.693036,-0.107439,-92.981425,86.909028,-72.386590
03456,-8.737131,-2.145687,-0.224014,0.411134,-1.611292,-0.968136,-0.653239,0.238940,-0.448285,-0.087422,-0.021268,-0.002066,0.999991,-0.003266,0.001195,-0.002241,-0.696841,0.149197,-0.693172,-0.108005,-95.392476,86.648646,-74.426095
