PacketCounter,Acc_X,Acc_Y,Acc_Z,FreeAcc_E,FreeAcc_N,FreeAcc_U,Gyr_X,Gyr_Y,Gyr_Z,VelInc_X,VelInc_Y,VelInc_Z,OriInc_q0,OriInc_q1,OriInc_q2,OriInc_q3,Quat_q0,Quat_q1,Quat_q2,Quat_q3,Roll,Pitch,Yaw
29214,-7.091067,-7.298215,-6.961751,-4.738153,-7.480112,-1.233029,-0.737684,-0.183994,-0.962677,-0.071198,-0.072896,-0.069414,0.999981,-0.003688,-0.000920,-0.004813,0.640477,-0.063356,0.765147,0.018036,-163.336680,79.235635,-156.708738
29215,-6.219649,-6.393431,-5.002562,-3.087252,-6.412165,-2.468417,0.923059,0.069061,0.267576,-0.062128,-0.063786,-0.050299,0.999988,0.004615,0.000345,0.001338,0.640524,-0.059314,0.765489,0.015409,-163.684153,79.251746,-157.599891
29216,-8.035512,-3.317572,-3.237707,-1.422414,-3.059995,-1.171417,1.577492,0.506873,1.008665,-0.080269,-0.033325,-0.032436,0.999953,0.007887,0.002534,0.005043,0.638965,-0.050398,0.767482,0.012484,-166.123174,79.126430,-161.003251
29217,-10.286136,-1.014640,-3.109378,-1.111113,-0.665830,0.902916,1.761039,0.246495,1.076870,-0.102844,-0.010427,-0.031058,0.999946,0.008805,0.001232,0.005384,0.638405,-0.040592,0.768575,0.009164,-168.451620,79.133138,-164.400983
29218,-10.742843,0.405899,-1.861903,0.102522,0.811582,1.067149,2.164761,0.037627,0.660122,-0.107445,0.003905,-0.018556,0.999936,0.010824,0.000188,0.003301,0.638650,-0.031105,0.768863,0.002976,-169.197027,79.189588,-166.422900
29219,-10.323626,1.055760,0.723563,2.548877,1.516704,0.158173,1.948558,-0.003689,0.316707,-0.103253,0.010323,0.007335,0.999951,0.009743,-0.000018,0.001584,0.638974,-0.023604,0.768859,-0.003443,-169.057407,79.234017,-167.416573
29220,-10.339974,0.750849,2.757123,4.568399,1.223276,-0.183887,0.406965,-0.090371,0.202981,-0.103420,0.007347,0.027540,0.999997,0.002035,-0.000452,0.001015,0.639393,-0.021486,0.768568,-0.004317,-169.402490,79.310869,-168.005243
29221,-9.959164,-0.618371,1.954968,3.762940,-0.178054,-0.368239,-1.368692,0.302203,-0.041502,-0.099563,-0.006028,0.019742,0.999975,-0.006843,0.001511,-0.000208,0.638118,-0.025952,0.769500,0.000840,-170.269548,79.145366,-168.088780
29222,-10.475786,-1.141024,-0.767354,1.261567,-0.748547,0.650604,-2.527816,0.459114,-0.345370,-0.104794,-0.011323,-0.007290,0.999916,-0.012639,0.002296,-0.001727,0.635994,-0.035306,0.770829,0.009435,-170.960192,78.857696,-167.317042
29223,-10.671398,-2.511582,-4.467540,-2.175295,-2.334026,1.587569,-2.214634,-0.100082,-0.604093,-0.106768,-0.025286,-0.044449,0.999934,-0.011073,-0.000500,-0.003020,0.636030,-0.044609,0.770205,0.016127,-170.488456,78.868320,-165.542270
29224,-7.910061,-3.178590,-4.655158,-2.794629,-3.142055,-1.057097,0.015453,-0.053402,-0.514227,-0.079170,-0.031579,-0.046575,0.999997,0.000077,-0.000267,-0.002571,0.636300,-0.046496,0.769903,0.014476,-169.005136,78.850189,-164.039617
29225,-6.698688,-1.244536,-2.309422,-0.904179,-1.076222,-2.757270,1.276698,0.186063,0.590531,-0.066972,-0.012496,-0.023112,0.999975,0.006383,0.000930,0.002953,0.635871,-0.040117,0.770667,0.011451,-170.094093,78.815698,-165.894666
29226,-9.330534,0.451595,-2.824349,-1.024008,0.666368,-0.130402,1.801628,0.289741,1.236884,-0.093373,0.004192,-0.028070,0.999939,0.009008,0.001449,0.006184,0.635028,-0.029598,0.771876,0.008415,-172.748623,78.761286,-169.653271
29227,-11.224955,2.105736,-2.238400,-0.133017,2.363487,1.582050,2.298296,0.023219,0.791612,-0.112335,0.020868,-0.022130,0.999926,0.011491,0.000116,0.003958,0.635245,-0.019188,0.772070,0.002109,-173.751811,78.809437,-172.017833
29228,-9.989029,3.239097,0.281430,2.112062,3.500232,-0.135962,1.797180,-0.180047,0.229263,-0.099930,0.032250,0.003015,0.999959,0.008986,-0.000900,0.001146,0.636105,-0.012553,0.771490,-0.004052,-173.353520,78.930557,-172.661483
29229,-9.054112,3.115689,1.601870,3.249264,3.348359,-1.299097,-0.019748,-0.054727,0.075572,-0.090557,0.031124,0.015991,1.000000,-0.000099,-0.000274,0.000378,0.636365,-0.012265,0.771282,-0.003672,-173.613040,78.974934,-172.913543
29230,-9.523144,1.412587,0.458965,2.248461,1.653488,-0.587362,-1.729924,0.500933,-0.168723,-0.095208,0.014247,0.004705,0.999959,-0.008650,0.002505,-0.000844,0.634320,-0.018371,0.772848,0.002463,-174.297339,78.683164,-172.600868
29231,-10.854248,-0.210456,-1.403119,0.771663,0.037557,1.106585,-2.723024,0.491733,-0.561678,-0.108582,-0.001988,-0.013737,0.999900,-0.013615,0.002459,-0.002808,0.632169,-0.029118,0.774202,0.011223,-174.462262,78.380437,-171.176175
29232,-10.710979,-2.513883,-4.061717,-1.661778,-2.404629,1.545048,-2.791339,-0.116103,-0.897724,-0.107199,-0.025222,-0.040328,0.999892,-0.013956,-0.000580,-0.004488,0.632216,-0.041366,0.773448,0.019238,-173.563958,78.396772,-168.626506
29233,-8.589662,-4.789927,-5.699865,-3.429208,-4.886960,-0.139421,-1.080364,-0.184184,-0.918075,-0.086064,-0.047812,-0.056819,0.999974,-0.005402,-0.000921,-0.004590,0.632831,-0.048251,0.772510,0.020613,-171.612988,78.442982,-166.002309
29234,-6.764703,-4.047794,-3.622399,-1.824423,-4.026602,-2.347735,0.669143,0.060613,0.098035,-0.067638,-0.040390,-0.036339,0.999994,0.003346,0.000303,0.000490,0.632765,-0.045721,0.772775,0.018356,-171.551021,78.420893,-166.330525
29235,-8.405868,-1.387643,-3.229810,-1.372328,-1.287308,-0.897806,1.309932,0.447493,1.146076,-0.084050,-0.014147,-0.032202,0.999960,0.006550,0.002237,0.005730,0.631252,-0.037133,0.774505,0.016870,-174.148930,78.256353,-169.748972
29236,-11.316685,0.418133,-3.126814,-0.803543,0.566270,1.894250,1.891954,0.165486,1.109791,-0.113215,0.003848,-0.031137,0.999940,0.009460,0.000827,0.005549,0.630852,-0.026836,0.775330,0.013046,-176.172432,78.219215,-172.923242
29237,-10.882134,2.280222,-1.019542,1.093806,2.480926,1.018201,1.965977,-0.092674,0.445448,-0.108867,0.022659,-0.010023,0.999949,0.009830,-0.000463,0.002227,0.631458,-0.018846,0.775151,0.006893,-176.293153,78.296231,-174.196455
29238,-9.971333,2.073516,1.798716,3.692316,2.334687,-0.438341,0.535955,-0.155208,-0.022867,-0.099725,0.020698,0.017965,0.999996,0.002680,-0.000776,-0.000114,0.632130,-0.017198,0.774657,0.004790,-175.919849,78.387685,-174.128964
29239,-8.983951,1.170720,1.220591,2.960308,1.409034,-1.279056,-1.708434,0.370851,-0.188060,-0.089806,0.011896,0.012271,0.999961,-0.008542,0.001854,-0.000940,0.630576,-0.023277,0.775702,0.010837,-176.490210,78.176567,-173.711003
29240,-10.829960,-0.252389,-1.448971,0.841779,-0.069317,1.083977,-3.215877,0.670704,-0.506663,-0.108354,-0.002478,-0.014086,0.999862,-0.016079,0.003353,-0.002533,0.627563,-0.035374,0.777460,0.021663,-177.098415,77.780200,-172.449096
29241,-11.606226,-2.919313,-5.335879,-2.479994,-3.018617,2.694723,-3.012648,-0.055049,-1.061251,-0.116203,-0.029376,-0.052949,0.999872,-0.015063,-0.000275,-0.005306,0.627333,-0.048884,0.776632,0.030108,-176.052288,77.784080,-169.611827
29242,-8.348718,-5.337592,-5.913466,-3.392716,-5.599198,-0.310150,-0.789686,-0.350720,-1.099651,-0.083676,-0.053150,-0.059071,0.999976,-0.003948,-0.001754,-0.005498,0.628673,-0.055536,0.775110,0.029842,-173.528272,77.930786,-166.567397
29243,-5.598526,-3.464526,-2.856650,-1.225191,-3.488841,-3.661781,1.032567,0.069081,0.167284,-0.055966,-0.034544,-0.028726,0.999986,0.005163,0.000345,0.000836,0.628704,-0.051600,0.775482,0.026394,-173.434677,77.910316,-167.076315
29244,-7.699925,-1.054616,-2.285252,-0.516456,-0.964904,-1.786159,1.654448,0.514845,1.464857,-0.076979,-0.010922,-0.022744,0.999936,0.008272,0.002574,0.007324,0.626921,-0.040745,0.777631,0.024481,-176.499753,77.693693,-171.182077
29245,-11.532780,0.938175,-2.775021,-0.339864,1.010421,2.038406,2.226857,0.067118,1.474580,-0.115404,0.008839,-0.027611,0.999911,0.011134,0.000336,0.007373,0.626921,-0.027988,0.778310,0.020473,-179.133137,77.694431,-175.182936
29246,-11.235334,2.351134,-0.054269,2.180545,2.515466,1.172797,2.405265,-0.372148,0.510798,-0.112412,0.023230,-0.000471,0.999923,0.012026,-0.001861,0.002554,0.628626,-0.018380,0.777385,0.012795,-179.120062,77.915432,-176.579619
29247,-9.184993,2.815515,2.448487,4.185954,3.021336,-1.348907,0.809713,-0.256520,0.025559,-0.091885,0.028044,0.024481,0.999991,0.004049,-0.001283,0.000128,0.629736,-0.015669,0.776589,0.009799,-178.748354,78.069717,-176.673429
29248,-8.539459,1.782882,1.461727,3.126080,1.941950,-1.769423,-1.382126,0.300311,0.078180,-0.085380,0.017896,0.014622,0.999975,-0.006911,0.001502,0.000391,0.628464,-0.019692,0.777437,0.015419,-179.787529,77.901553,-176.926370
29249,-10.326044,1.160282,-1.470317,0.688573,1.192627,0.591090,-2.370073,0.675466,-0.118028,-0.103303,0.011491,-0.014491,0.999924,-0.011850,0.003377,-0.000590,0.625620,-0.027595,0.779263,0.024244,179.136060,77.522996,-176.637531
29250,-11.001213,-0.086603,-4.194068,-1.697892,-0.264743,1.835119,-2.229161,0.080030,-0.577153,-0.110032,-0.001016,-0.041886,0.999934,-0.011146,0.000400,-0.002886,0.625050,-0.036784,0.779095,0.031143,179.327782,77.484742,-175.133080
29251,-8.306438,-1.583650,-4.689265,-2.610408,-1.860655,-0.690309,-0.844814,-0.136900,-0.633644,-0.083082,-0.015771,-0.046883,0.999986,-0.004224,-0.000684,-0.003168,0.625570,-0.041816,0.778367,0.032530,-179.553469,77.571903,-173.490872
29252,-7.055950,-1.176847,-3.114458,-1.390721,-1.319151,-2.249819,0.335813,0.069859,0.160971,-0.070561,-0.011773,-0.031140,0.999998,0.001679,0.000349,0.000805,0.625362,-0.040110,0.778657,0.031743,-179.805588,77.535667,-173.946225
29253,-9.098853,0.054071,-3.195110,-1.149064,-0.084238,-0.238081,0.748912,0.101286,0.858594,-0.091006,0.000270,-0.031904,0.999984,0.003745,0.000506,0.004293,0.625018,-0.034389,0.779214,0.031540,178.370258,77.478659,-176.253544
29254,-10.849426,0.906522,-2.420294,-0.080369,0.817484,1.310028,1.126774,0.036830,0.555650,-0.108524,0.008900,-0.024133,0.999980,0.005634,0.000184,0.002778,0.624989,-0.028668,0.779571,0.028911,177.562267,77.449308,-177.742756
29255,-10.420596,1.191773,-0.527754,1.657745,1.234220,0.483732,0.713032,0.024674,0.037050,-0.104209,0.011917,-0.005222,0.999994,0.003565,0.000123,0.000185,0.625031,-0.026246,0.779715,0.026294,177.840356,77.441026,-177.875775
29256,-9.395894,0.569120,-0.224544,1.778958,0.630457,-0.587994,-0.460431,-0.011847,-0.094165,-0.093956,0.005730,-0.002264,0.999997,-0.002302,-0.000059,-0.000471,0.625048,-0.028010,0.779587,0.027827,177.791481,77.452887,-177.655707
29257,-9.405109,-0.272567,-1.835558,0.279968,-0.332899,-0.236131,-0.865245,0.053159,-0.154780,-0.094058,-0.002732,-0.018319,0.999990,-0.004326,0.000266,-0.000774,0.624784,-0.031271,0.779564,0.030759,177.660253,77.433191,-177.281556
29258,-9.255213,-0.428129,-3.037035,-0.901197,-0.593961,-0.122440,-0.361447,0.038967,-0.142385,-0.092561,-0.004270,-0.030345,0.999998,-0.001807,0.000195,-0.000712,0.624617,-0.032920,0.779591,0.031748,177.796558,77.417129,-176.929847
29259,-8.897897,-0.043206,-2.855124,-0.835579,-0.197827,-0.507375,0.416456,0.005358,0.120842,-0.088979,-0.000426,-0.028550,0.999998,0.002082,0.000027,0.000604,0.624692,-0.031096,0.779653,0.030551,177.687985,77.418425,-177.284929
29260,-9.432599,0.585329,-1.726635,0.328286,0.526033,-0.225544,0.715963,0.053923,0.247368,-0.094338,0.005798,-0.017220,0.999993,0.003580,0.000270,0.001237,0.624572,-0.027863,0.779948,0.028555,177.444501,77.384535,-177.954886
29261,-9.926491,0.957395,-0.678579,1.434167,0.973722,0.031464,0.316121,0.042973,0.101747,-0.099271,0.009534,-0.006749,0.999999,0.001581,0.000215,0.000509,0.624480,-0.026432,0.780102,0.027685,177.332491,77.364173,-178.254616
29262,-9.866907,0.550522,-0.772624,1.364422,0.558400,-0.010524,-0.472013,0.039121,-0.089436,-0.098668,0.005531,-0.007720,0.999997,-0.002360,0.000196,-0.000447,0.624296,-0.028220,0.780129,0.029272,177.268961,77.347166,-178.042689
29263,-9.551419,-0.045055,-1.806098,0.340284,-0.117637,-0.098574,-0.780436,0.055566,-0.193885,-0.095520,-0.000428,-0.018033,0.999992,-0.003902,0.000278,-0.000969,0.624043,-0.031366,0.780114,0.031755,177.283575,77.327937,-177.568681
29264,-9.220880,-0.286884,-2.778515,-0.652027,-0.444864,-0.210394,-0.463498,0.016416,-0.169406,-0.092214,-0.002855,-0.027771,0.999997,-0.002317,0.000082,-0.000847,0.623952,-0.033435,0.780047,0.033062,177.425244,77.325997,-177.151407
29265,-8.973994,-0.105512,-2.726527,-0.670739,-0.259538,-0.460661,0.196162,0.041664,0.006849,-0.089746,-0.001031,-0.027248,0.999999,0.000981,0.000208,0.000034,0.623870,-0.032750,0.780171,0.032362,177.486914,77.309218,-177.202713
29266,-9.393087,0.555512,-1.873175,0.194794,0.483508,-0.232722,0.617979,0.047880,0.114366,-0.093939,0.005559,-0.018692,0.999995,0.003090,0.000239,0.000572,0.623783,-0.030343,0.780419,0.030332,177.530111,77.281953,-177.521524
29267,-9.625958,0.659036,-0.881681,1.205536,0.672887,-0.222866,0.459226,0.009672,0.040747,-0.096261,0.006591,-0.008797,0.999997,0.002296,0.000048,0.000204,0.623856,-0.028700,0.780484,0.028716,177.652853,77.282555,-177.664735
29268,-9.088676,0.584337,-0.786033,1.187487,0.602818,-0.768915,-0.171745,0.007248,-0.065141,-0.090885,0.005866,-0.007862,1.000000,-0.000859,0.000036,-0.000326,0.623833,-0.029450,0.780456,0.029213,177.694729,77.282928,-177.521058
29269,-9.207057,0.072366,-1.829741,0.241021,0.005202,-0.428394,-0.753629,0.028012,-0.073389,-0.092073,0.000689,-0.018287,0.999993,-0.003768,0.000140,-0.000367,0.623670,-0.032037,0.780377,0.031972,177.413380,77.276145,-177.366083
29270,-9.864744,-1.148001,-2.398246,-0.047870,-1.258250,0.326206,-0.588531,0.090422,-0.142522,-0.098666,-0.011480,-0.023904,0.999995,-0.002943,0.000452,-0.000713,0.623263,-0.034402,0.780522,0.033841,177.421403,77.231051,-177.012264
29271,-9.734467,-0.711619,-3.051934,-0.736118,-0.885242,0.348759,-0.271636,0.183117,-0.137440,-0.097377,-0.007091,-0.030421,0.999998,-0.001358,0.000916,-0.000687,0.622575,-0.035763,0.780982,0.034491,177.594475,77.137109,-176.674482
29272,-9.652190,-0.794243,-3.110673,-0.793632,-0.967699,0.282142,0.017318,0.008235,-0.078587,-0.096526,-0.007902,-0.031103,1.000000,0.000087,0.000041,-0.000393,0.622579,-0.035977,0.780980,0.034209,177.776847,77.137221,-176.497723
29273,-8.784643,-0.465136,-2.205569,-0.144861,-0.557131,-0.761751,0.414793,-0.032734,0.023279,-0.087842,-0.004616,-0.022080,0.999998,0.002074,-0.000164,0.000116,0.622825,-0.034537,0.780913,0.032715,177.917437,77.162661,-176.596700
29274,-8.902132,0.317590,-1.928521,0.074814,0.249377,-0.702241,0.454574,0.022964,0.162849,-0.089026,0.003147,-0.019268,0.999997,0.002273,0.000115,0.000814,0.622806,-0.032449,0.781069,0.031475,177.745722,77.149007,-177.040086
29275,-8.916449,1.300015,-2.069527,-0.144945,1.205746,-0.647470,0.351718,-0.038266,0.208421,-0.089174,0.012944,-0.020690,0.999998,0.001759,-0.000191,0.001042,0.623027,-0.030483,0.780999,0.030804,177.384085,77.172920,-177.617105
29276,-9.694425,0.822808,-1.284417,0.834872,0.790451,-0.066572,0.257120,0.017545,0.206659,-0.096954,0.008144,-0.012825,0.999999,0.001286,0.000088,0.001033,0.622985,-0.028837,0.781108,0.030472,176.988849,77.160025,-178.173690
29277,-11.043948,0.113608,-0.370053,2.094724,0.160983,1.036497,-0.097851,0.211600,-0.003236,-0.110443,0.001136,-0.003584,0.999999,-0.000489,0.001058,-0.000016,0.622193,-0.029134,0.781712,0.030863,176.931876,77.046114,-178.173951
29278,-10.944721,-0.198978,-1.373840,1.140867,-0.224140,1.158277,-0.954713,0.108073,-0.329514,-0.109458,-0.001875,-0.013670,0.999987,-0.004774,0.000540,-0.001648,0.621696,-0.033368,0.781827,0.033584,177.191423,76.996896,-177.346379
29279,-9.211826,-1.214404,-2.458935,-0.199023,-1.335131,-0.296560,-1.224949,-0.105265,-0.527352,-0.092137,-0.012052,-0.024564,0.999978,-0.006125,-0.000526,-0.002637,0.622029,-0.039166,0.781147,0.036799,177.753448,77.078106,-176.048817
29280,-8.091967,-2.213833,-2.567702,-0.436963,-2.342962,-1.369132,-0.748392,0.011702,-0.364397,-0.080961,-0.022087,-0.025590,0.999991,-0.003742,0.000059,-0.001822,0.621919,-0.042878,0.780952,0.038617,178.210033,77.081797,-175.140566
29281,-8.733015,-2.032850,-2.871699,-0.592737,-2.189279,-0.674835,-0.154811,0.144563,0.169452,-0.087334,-0.020425,-0.028638,0.999999,-0.000774,0.000723,0.000847,0.621339,-0.042677,0.781368,0.039763,177.679726,77.003073,-175.593249
29282,-10.172192,-1.028868,-3.106099,-0.598114,-1.215341,0.786608,0.317076,0.142017,0.337555,-0.101726,-0.010411,-0.031005,0.999997,0.001585,0.000710,0.001688,0.620803,-0.040360,0.781926,0.039574,177.018374,76.915818,-176.458717
29283,-10.218580,-0.185711,-2.452551,-0.038517,-0.316487,0.692893,0.392423,0.115420,0.104354,-0.102199,-0.001862,-0.024470,0.999998,0.001962,0.000577,0.000522,0.620457,-0.038711,0.782343,0.038381,176.971114,76.853778,-176.737764
29284,-9.440079,0.219101,-2.075362,0.111888,0.117852,-0.146054,0.142372,0.016028,-0.013513,-0.094402,0.002212,-0.020744,1.000000,0.000712,0.000080,-0.000068,0.620445,-0.038284,0.782402,0.037810,177.062846,76.847951,-176.727461
29285,-8.825565,0.241835,-2.172322,-0.123477,0.122810,-0.722157,0.061163,0.017449,0.023964,-0.088258,0.002414,-0.021715,1.000000,0.000306,0.000087,0.000120,0.620432,-0.037958,0.782434,0.037683,177.010965,76.844356,-176.816394
29286,-9.208735,0.555252,-2.278846,-0.166473,0.423645,-0.320847,0.006617,0.113691,0.082195,-0.092103,0.005515,-0.022736,1.000000,0.000033,0.000568,0.000411,0.619993,-0.037596,0.782788,0.037921,176.804137,76.779699,-177.032848
29287,-10.038772,-0.122698,-2.138999,0.239861,-0.228989,0.446812,-0.037450,0.097800,-0.020370,-0.100398,-0.001221,-0.021341,1.000000,-0.000187,0.000489,-0.000102,0.619655,-0.037764,0.783042,0.038028,176.814753,76.731384,-176.999542
29288,-9.704854,-0.348580,-2.118022,0.214529,-0.452776,0.114079,-0.105305,0.049772,-0.068352,-0.097055,-0.003464,-0.021154,1.000000,-0.000527,0.000249,-0.000342,0.619474,-0.038327,0.783148,0.038250,176.901954,76.707980,-176.848080
29289,-9.366208,-0.713179,-2.359480,-0.056522,-0.842862,-0.164475,-0.083714,-0.007730,-0.050628,-0.093663,-0.007118,-0.023595,1.000000,-0.000419,-0.000039,-0.000253,0.619546,-0.038737,0.783060,0.038463,176.945692,76.720978,-176.753533
29290,-9.084174,-0.420875,-2.213416,-0.009930,-0.538928,-0.468811,0.154970,0.057840,0.024725,-0.090848,-0.004203,-0.022111,1.000000,0.000775,0.000289,0.000124,0.619365,-0.038130,0.783258,0.037952,176.957359,76.690066,-176.832910
29291,-9.563467,0.254985,-2.381176,-0.130652,0.119493,0.044471,0.228725,0.038200,0.091473,-0.095640,0.002533,-0.023791,0.999999,0.001144,0.000191,0.000457,0.619289,-0.037026,0.783399,0.037371,176.843379,76.672321,-177.084447
29292,-9.602398,0.661367,-2.250347,-0.033469,0.538338,0.057297,0.321035,0.027797,0.017505,-0.096028,0.006641,-0.022479,0.999999,0.001605,0.000139,0.000088,0.619255,-0.035928,0.783532,0.036194,176.964049,76.658806,-177.149599
29293,-9.526605,0.698903,-1.899105,0.287317,0.614643,-0.097189,0.235609,0.011131,-0.002824,-0.095267,0.007013,-0.018977,0.999999,0.001178,0.000056,-0.000014,0.619302,-0.035166,0.783571,0.035300,177.077912,76.659409,-177.171024
29294,-9.461052,0.470233,-1.640046,0.547306,0.417847,-0.223724,0.078623,0.027950,-0.075962,-0.094611,0.004745,-0.016385,1.000000,0.000393,0.000140,-0.000380,0.619240,-0.035185,0.783642,0.034782,177.284950,76.648512,-177.004666
29295,-9.348424,0.091084,-1.963158,0.246690,0.013329,-0.263118,-0.165054,0.027255,-0.089825,-0.093486,0.000937,-0.019620,1.000000,-0.000825,0.000136,-0.000449,0.619167,-0.036006,0.783644,0.035187,177.380233,76.642324,-176.809209
29296,-9.490883,-0.352096,-2.433353,-0.129092,-0.467241,-0.020494,-0.208437,0.032098,-0.127940,-0.094915,-0.003486,-0.024315,0.999999,-0.001042,0.000160,-0.000640,0.619046,-0.037118,0.783667,0.035632,177.548028,76.630181,-176.514124
29297,-9.416875,-0.604638,-2.824807,-0.498226,-0.752493,-0.004111,-0.066711,0.011923,-0.111099,-0.094174,-0.006003,-0.028240,1.000000,-0.000334,0.000060,-0.000555,0.619055,-0.037716,0.783634,0.035588,177.749462,76.632992,-176.267494
29298,-9.153958,-0.453272,-3.012513,-0.758144,-0.618361,-0.214850,0.122319,-0.028431,-0.038197,-0.091536,-0.004497,-0.030141,1.000000,0.000612,-0.000142,-0.000191,0.619216,-0.037441,0.783545,0.035026,177.884634,76.653126,-176.200725
29299,-9.236887,-0.516780,-2.388416,-0.132919,-0.609919,-0.278433,0.439946,0.006952,0.005602,-0.092370,-0.005118,-0.023892,0.999998,0.002200,0.000035,0.000028,0.619315,-0.036014,0.783606,0.033357,178.095603,76.655845,-176.242736
29300,-9.577920,0.126401,-1.988480,0.269119,0.079951,-0.033742,0.523706,0.015073,0.069854,-0.095781,0.001283,-0.019874,0.999997,0.002619,0.000075,0.000349,0.619357,-0.034080,0.783735,0.031550,178.203897,76.648978,-176.439957
29301,-9.784908,0.396007,-1.719832,0.551784,0.380241,0.107495,0.449556,-0.013698,0.008134,-0.097848,0.003995,-0.017196,0.999997,0.002248,-0.000068,0.000041,0.619531,-0.032610,0.783726,0.029853,178.413086,76.663498,-176.489477
29302,-9.474692,0.506438,-1.411379,0.768481,0.519436,-0.265024,0.181121,-0.011318,-0.062783,-0.094745,0.005107,-0.014115,1.000000,0.000906,-0.000057,-0.000314,0.619634,-0.032253,0.783692,0.028982,178.643616,76.673999,-176.359340
29303,-9.513998,0.212887,-1.955725,0.272966,0.188045,-0.103080,-0.108410,-0.004301,-0.105549,-0.095138,0.002168,-0.019560,1.000000,-0.000542,-0.000022,-0.000528,0.619696,-0.032957,0.783609,0.029119,178.808466,76.684832,-176.125857
29304,-9.390894,-0.107440,-2.436180,-0.195202,-0.166571,-0.113741,-0.089209,-0.015613,-0.131554,-0.093908,-0.001023,-0.024369,1.000000,-0.000446,-0.000078,-0.000658,0.619782,-0.033706,0.783510,0.029094,179.050996,76.698319,-175.824240
29305,-9.347275,-0.231961,-2.556561,-0.313924,-0.293212,-0.128843,0.075249,-0.007373,-0.083218,-0.093473,-0.002271,-0.025570,1.000000,0.000376,-0.000037,-0.000416,0.619883,-0.033753,0.783447,0.028581,179.267667,76.710285,-175.645669
29306,-9.447083,-0.353033,-2.289808,-0.024948,-0.379783,-0.093101,0.229618,-0.020809,-0.060687,-0.094470,-0.003475,-0.022912,0.999999,0.001148,-0.000104,-0.000303,0.620032,-0.033235,0.783388,0.027528,179.521801,76.725756,-175.519857
29307,-9.397993,-0.709264,-1.690193,0.570721,-0.675760,-0.278554,0.282749,-0.018753,-0.059907,-0.093980,-0.007041,-0.016921,0.999999,0.001414,-0.000094,-0.000300,0.620207,-0.032547,0.783322,0.026276,179.801800,76.743695,-175.398430
29308,-9.516539,-0.803290,-1.906232,0.392396,-0.777026,-0.112906,0.126618,-0.005009,-0.056175,-0.095167,-0.007994,-0.019070,1.000000,0.000633,-0.000025,-0.000281,0.620275,-0.032333,0.783298,0.025637,179.986857,76.749856,-175.282972
29309,-9.534657,-1.020603,-2.314101,0.014086,-1.017695,-0.000936,0.149606,-0.029578,-0.085535,-0.095347,-0.010148,-0.023163,1.000000,0.000748,-0.000148,-0.000428,0.620473,-0.032157,0.783175,0.024827,-179.745102,76.773824,-175.095538
29310,-9.243369,-0.744024,-2.433085,-0.196042,-0.748451,-0.256813,0.341046,-0.025116,-0.001727,-0.092431,-0.007398,-0.024355,0.999999,0.001705,-0.000126,-0.000009,0.620647,-0.031063,0.783122,0.023521,-179.569200,76.791484,-175.115700
29311,-9.451879,-0.255091,-2.135289,0.096778,-0.228886,-0.122445,0.521444,-0.018341,0.059564,-0.094516,-0.002523,-0.021368,0.999997,0.002607,-0.000092,0.000298,0.620837,-0.029167,0.783096,0.021701,-179.440514,76.809353,-175.290335
29312,-9.599131,0.124198,-1.648137,0.572707,0.189144,-0.090994,0.443231,-0.021279,0.051356,-0.095990,0.001254,-0.016489,0.999998,0.002216,-0.000106,0.000257,0.620999,-0.027548,0.783068,0.020159,-179.335702,76.825162,-175.443641
29313,-9.614997,0.181109,-1.882369,0.341775,0.233659,-0.022240,0.139235,-0.021725,-0.032496,-0.096148,0.001840,-0.018833,1.000000,0.000696,-0.000109,-0.000162,0.621153,-0.027199,0.782973,0.019550,-179.200615,76.844515,-175.386776
29314,-9.436434,-0.224586,-2.468417,-0.245027,-0.205880,-0.061411,0.028605,-0.042498,-0.089845,-0.094360,-0.002200,-0.024705,1.000000,0.000143,-0.000212,-0.000449,0.621354,-0.027418,0.782815,0.019196,-178.986211,76.871379,-175.183565
29315,-9.339726,-0.640330,-2.790438,-0.559461,-0.633103,-0.080616,0.274837,-0.053656,-0.066431,-0.093392,-0.006334,-0.027938,0.999999,0.001374,-0.000268,-0.000332,0.621654,-0.026777,0.782628,0.017955,-178.687540,76.908501,-175.038527
29316,-9.368266,-0.362120,-2.697262,-0.488742,-0.335613,-0.075171,0.640501,-0.049880,0.012044,-0.093676,-0.003540,-0.027007,0.999995,0.003202,-0.000249,0.000060,0.621952,-0.024695,0.782512,0.015524,-178.371175,76.940635,-175.090619
29317,-9.336363,0.161602,-2.147624,0.000562,0.230317,-0.233908,0.853411,-0.060724,0.050957,-0.093358,0.001684,-0.021497,0.999991,0.004267,-0.000304,0.000255,0.622331,-0.021796,0.782353,0.012384,-178.027782,76.983333,-175.240030
29318,-9.475595,0.593650,-1.577936,0.561412,0.700453,-0.230236,0.771049,-0.051244,0.047229,-0.094753,0.005975,-0.015781,0.999993,0.003855,-0.000256,0.000236,0.622630,-0.019168,0.782224,0.009551,-177.722467,77.017129,-175.380213
29319,-9.779411,0.634066,-1.479310,0.720800,0.757790,0.042944,0.458664,-0.054952,-0.030927,-0.097789,0.006390,-0.014805,0.999997,0.002293,-0.000275,-0.000155,0.622935,-0.017817,0.782033,0.007700,-177.401845,77.054953,-175.320818
29320,-9.671606,0.243555,-1.752976,0.439509,0.369240,0.002743,0.197553,-0.063840,-0.155817,-0.096709,0.002528,-0.017558,0.999999,0.000988,-0.000319,-0.000779,0.623229,-0.017769,0.781811,0.006479,-176.916279,77.090582,-174.938887
29321,-9.419248,-0.262245,-2.278173,-0.119063,-0.139509,-0.120041,0.155085,-0.081010,-0.189730,-0.094186,-0.002515,-0.022822,0.999999,0.000775,-0.000405,-0.000949,0.623613,-0.017983,0.781508,0.005324,-176.366460,77.137906,-174.465927
29322,-9.151876,-0.522692,-2.642148,-0.533807,-0.395664,-0.295890,0.315611,-0.079640,-0.162192,-0.091512,-0.005111,-0.026466,0.999998,0.001578,-0.000398,-0.000811,0.623977,-0.017591,0.781236,0.003623,-175.789071,77.180698,-174.059327
29323,-9.105337,-0.533008,-2.788158,-0.698046,-0.389439,-0.308683,0.532858,-0.090461,-0.086957,-0.091043,-0.005216,-0.027937,0.999996,0.002664,-0.000452,-0.000435,0.624423,-0.016224,0.780916,0.001313,-175.271827,77.235804,-173.841939
29324,-9.132779,-0.413025,-2.610487,-0.533796,-0.243680,-0.323298,0.745293,-0.075329,-0.028850,-0.091319,-0.004020,-0.026154,0.999993,0.003726,-0.000377,-0.000144,0.624796,-0.013970,0.780661,-0.001651,-174.779195,77.281093,-173.774801
29325,-9.121480,-0.754299,-1.688403,0.358987,-0.553989,-0.529085,0.783798,-0.035722,-0.019439,-0.091213,-0.007468,-0.016930,0.999992,0.003919,-0.000179,-0.000097,0.625030,-0.011556,0.780501,-0.004734,-174.296407,77.307580,-173.740224
29326,-9.174823,-1.047136,-1.334357,0.712890,-0.832949,-0.547033,0.546098,0.026453,0.003604,-0.091750,-0.010437,-0.013360,0.999996,0.002730,0.000132,0.000018,0.624979,-0.009795,0.780550,-0.006825,-174.023076,77.296518,-173.780905
29327,-9.641046,-1.211077,-2.053170,0.108937,-0.981788,0.069428,0.372347,-0.011837,0.025706,-0.096408,-0.012085,-0.020560,0.999998,0.001862,-0.000059,0.000129,0.625089,-0.008492,0.780464,-0.008165,-173.894543,77.312136,-173.867861
29328,-9.421054,-1.105877,-1.942864,0.161036,-0.878666,-0.171321,0.561307,-0.013422,0.079054,-0.094205,-0.011041,-0.019466,0.999996,0.002807,-0.000067,0.000395,0.625189,-0.006390,0.780383,-0.010077,-173.792971,77.328474,-174.093524
29329,-9.599866,-0.230128,-1.585723,0.547298,-0.006984,-0.095419,0.553546,0.042114,0.214125,-0.095999,-0.002360,-0.015843,0.999996,0.002768,0.000211,0.001071,0.625096,-0.003784,0.780453,-0.011538,-174.051561,77.324768,-174.683736
29330,-9.903363,-0.141685,-0.816367,1.365887,0.063413,0.030759,0.522281,0.009743,0.186905,-0.099033,-0.001488,-0.008163,0.999996,0.002611,0.000049,0.000935,0.625099,-0.001382,0.780436,-0.012961,-174.252343,77.333933,-175.196373
29331,-9.716191,0.021690,-0.230284,1.899688,0.198653,-0.283281,0.123223,0.037714,0.119702,-0.097162,0.000160,-0.002284,1.000000,0.000616,0.000189,0.000599,0.625009,-0.000489,0.780509,-0.013038,-174.517007,77.326643,-175.540072
29332,-9.922078,-0.428536,-0.626356,1.556268,-0.249735,0.012751,-0.576693,0.053835,0.022395,-0.099222,-0.004314,-0.006224,0.999996,-0.002883,0.000269,0.000112,0.624819,-0.002161,0.780694,-0.010687,-174.940562,77.300859,-175.635666
29333,-9.759972,-1.130885,-1.529450,0.639033,-0.947657,0.065002,-0.854320,-0.018963,-0.099530,-0.097604,-0.011325,-0.015255,0.999991,-0.004272,-0.000095,-0.000498,0.624924,-0.005181,0.780631,-0.007632,-175.195878,77.314688,-175.395682
29334,-9.288311,-1.595326,-2.279350,-0.189639,-1.423813,-0.223631,-0.819757,-0.060695,-0.096020,-0.092884,-0.016002,-0.022756,0.999991,-0.004099,-0.000303,-0.000480,0.625153,-0.008080,0.780447,-0.004700,-175.432982,77.348550,-175.157426
29335,-9.114030,-1.868069,-3.136754,-1.057047,-1.717385,-0.203959,-0.503098,-0.030735,0.036193,-0.091132,-0.018776,-0.031334,0.999997,-0.002515,-0.000154,0.000181,0.625302,-0.009476,0.780321,-0.002594,-175.828265,77.375526,-175.267258
29336,-9.148555,-1.543089,-3.500204,-1.406719,-1.413321,-0.099178,0.145525,0.002093,0.234102,-0.091468,-0.015512,-0.035012,0.999999,0.000728,0.000010,0.001171,0.625325,-0.008068,0.780319,-0.002400,-176.367323,77.387081,-175.905232
29337,-9.337444,-0.690618,-2.716978,-0.613685,-0.571320,-0.099617,0.649293,0.012770,0.387553,-0.093363,-0.006999,-0.027186,0.999993,0.003246,0.000064,0.001938,0.625350,-0.004491,0.780323,-0.003696,-177.007999,77.399914,-176.943191
29338,-9.481408,-0.017830,-1.899163,0.211655,0.080150,-0.145580,0.787082,-0.002687,0.423547,-0.094813,-0.000304,-0.018994,0.999990,0.003935,-0.000013,0.002118,0.625402,-0.000339,0.780284,-0.005413,-177.666649,77.416230,-178.080281
29339,-9.436761,0.801254,-1.415125,0.678382,0.867631,-0.300380,0.593535,-0.046296,0.384885,-0.094380,0.007873,-0.014150,0.999994,0.002968,-0.000231,0.001924,0.625638,0.003052,0.780081,-0.006500,-178.331776,77.457551,-179.110369
29340,-9.377544,0.833255,-0.739784,1.322232,0.862720,-0.502086,0.058104,-0.063667,0.269824,-0.093784,0.008208,-0.007425,0.999999,0.000291,-0.000318,0.001349,0.625915,0.004323,0.779857,-0.005853,-179.015872,77.500972,-179.845362
29341,-9.757280,0.532522,-0.792858,1.345384,0.538179,-0.116453,-0.438788,0.041807,0.202417,-0.097580,0.005209,-0.007920,0.999997,-0.002194,0.000209,0.001012,0.625815,0.003775,0.779954,-0.003481,-179.813746,77.485450,179.594754
29342,-9.905887,1.042732,-2.301650,-0.095640,1.035350,0.357381,-0.817160,-0.034813,0.124361,-0.099061,0.010272,-0.023076,0.999991,-0.004086,-0.000174,0.000622,0.625985,0.001742,0.779833,0.000125,179.370731,77.508341,179.238863
29343,-9.235862,-0.258873,-2.032099,0.009988,-0.287979,-0.356761,-0.708769,-0.065449,-0.011418,-0.092352,-0.002656,-0.020342,0.999994,-0.003544,-0.000327,-0.000057,0.626293,-0.000484,0.779583,0.002880,178.967461,77.553175,179.241698
29344,-9.132603,-0.475990,-1.840880,0.174878,-0.521094,-0.500455,-0.517790,0.021237,0.107916,-0.091325,-0.004857,-0.018387,0.999996,-0.002589,0.000106,0.000540,0.626227,-0.001646,0.779621,0.005267,178.366093,77.542680,178.929532
29345,-9.681787,-0.590919,-2.425446,-0.276556,-0.668401,0.159558,-0.520196,-0.053579,0.151954,-0.096807,-0.006046,-0.024265,0.999996,-0.002601,-0.000268,0.000760,0.626474,-0.002645,0.779399,0.007798,177.644478,77.577440,178.495707
29346,-9.334030,-0.926306,-1.973688,0.093214,-1.017908,-0.282065,-0.314399,-0.021294,0.115564,-0.093333,-0.009348,-0.019732,0.999999,-0.001572,-0.000106,0.000578,0.626569,-0.003139,0.779302,0.009416,177.134958,77.589591,178.158306
29347,-9.456234,-0.301755,-2.687866,-0.590773,-0.431991,-0.004511,-0.386875,-0.048412,0.208668,-0.094553,-0.003168,-0.026896,0.999998,-0.001934,-0.000242,0.001043,0.626789,-0.003502,0.779095,0.011604,176.339231,77.617397,177.570414
29348,-9.246316,-0.535660,-2.483635,-0.436220,-0.684139,-0.258036,-0.147833,-0.061576,0.149173,-0.092451,-0.005444,-0.024861,0.999999,-0.000739,-0.000308,0.000746,0.627039,-0.003340,0.778878,0.012679,175.827778,77.649603,177.133397
29349,-9.200214,0.058845,-1.780440,0.225550,-0.094303,-0.444788,0.053672,0.014725,0.276865,-0.092004,0.000466,-0.017797,0.999999,0.000268,0.000074,0.001384,0.627011,-0.002061,0.778893,0.013363,175.115989,77.635277,176.373090
29350,-9.870343,0.421348,-1.614743,0.522421,0.234979,0.181330,-0.091881,-0.032645,0.282493,-0.098707,0.004067,-0.016165,0.999999,-0.000459,-0.000163,0.001412,0.627139,-0.001207,0.778769,0.014637,174.292924,77.641665,175.584256
29351,-9.858091,0.167774,-0.492862,1.619703,-0.013069,-0.074649,-0.106108,0.030270,0.127153,-0.098583,0.001612,-0.004915,1.000000,-0.000531,0.000151,0.000636,0.627059,-0.001013,0.778818,0.015474,173.885136,77.623450,175.228898
29352,-10.145680,0.529406,-0.908213,1.267517,0.315242,0.303336,-0.730445,0.004218,0.130661,-0.101460,0.005195,-0.009099,0.999993,-0.003652,0.000021,0.000653,0.627045,-0.002755,0.778752,0.018758,173.101653,77.615140,174.855110
29353,-9.854795,-0.051510,-1.882465,0.265827,-0.308978,0.212140,-0.950660,-0.043052,-0.048559,-0.098544,-0.000581,-0.018843,0.999989,-0.004753,-0.000215,-0.000243,0.627247,-0.005887,0.778478,0.022333,172.643444,77.649851,174.943565
29354,-9.088487,-0.354317,-2.450863,-0.443905,-0.636895,-0.424921,-0.880028,-0.051680,-0.054872,-0.090880,-0.003626,-0.024516,0.999990,-0.004400,-0.000258,-0.000274,0.627443,-0.008814,0.778191,0.025618,172.236270,77.685803,175.042773
29355,-8.884777,-0.648990,-3.130653,-1.138875,-0.981390,-0.490604,-0.558948,-0.047172,0.035505,-0.088839,-0.006593,-0.031309,0.999996,-0.002795,-0.000236,0.000178,0.627644,-0.010391,0.777930,0.027931,171.781246,77.716364,174.904724
29356,-8.889146,-0.546282,-2.946320,-0.964190,-0.885640,-0.523871,0.100259,-0.007904,0.165689,-0.088886,-0.005522,-0.029469,1.000000,0.000501,-0.000040,0.000828,0.627677,-0.009390,0.777910,0.028092,171.376509,77.709312,174.431579
29357,-9.351604,0.114756,-2.237853,-0.207814,-0.212317,-0.200957,0.486352,0.013856,0.325512,-0.093519,0.001050,-0.022369,0.999996,0.002432,0.000069,0.001628,0.627644,-0.006568,0.777996,0.027244,170.791922,77.678770,173.547851
29358,-10.118140,0.365864,-1.067760,1.089533,0.057162,0.309582,0.619076,0.020219,0.293369,-0.101188,0.003543,-0.010656,0.999994,0.003095,0.000101,0.001467,0.627562,-0.003446,0.778132,0.025786,170.369251,77.642096,172.751964
29359,-10.251884,0.988166,-0.470470,1.681097,0.680830,0.336663,0.280260,0.001217,0.179366,-0.102528,0.009796,-0.004690,0.999999,0.001401,0.000006,0.000897,0.627585,-0.001838,0.778135,0.025282,170.043592,77.630141,172.254029
29360,-9.869009,0.997023,-0.409707,1.657643,0.694407,-0.049016,-0.306066,-0.021854,-0.028620,-0.098688,0.009978,-0.004123,0.999999,-0.001530,-0.000109,-0.000143,0.627691,-0.002866,0.778009,0.026413,169.903879,77.647525,172.290397
29361,-9.190071,0.698265,-0.957759,0.986168,0.392000,-0.607467,-0.633101,0.053977,-0.089848,-0.091900,0.006994,-0.009575,0.999995,-0.003166,0.000270,-0.000449,0.627530,-0.005177,0.778049,0.028618,169.771143,77.632742,172.525788
29362,-9.088841,0.292245,-1.439419,0.514091,-0.035004,-0.620362,-0.580422,0.062553,-0.087908,-0.090892,0.002921,-0.014374,0.999996,-0.002902,0.000313,-0.000440,0.627303,-0.007309,0.778139,0.030628,169.665442,77.608639,172.757916
29363,-8.857006,-0.303357,-1.188078,0.745254,-0.609640,-0.923197,-0.391057,0.092753,-0.048669,-0.088576,-0.003035,-0.011834,0.999998,-0.001955,0.000464,-0.000243,0.626984,-0.008707,0.778325,0.032019,169.583208,77.568089,172.903085
29364,-9.493747,-0.629772,-1.293839,0.809103,-0.962799,-0.293223,-0.314830,0.168664,0.037812,-0.094947,-0.006336,-0.012848,0.999998,-0.001574,0.000843,0.000189,0.626328,-0.009533,0.778786,0.033386,169.358482,77.471265,172.857541
29365,-9.843892,-0.800462,-1.516057,0.694795,-1.159465,0.087528,-0.172155,0.176035,-0.041900,-0.098454,-0.007997,-0.015067,0.999999,-0.000861,0.000880,-0.000209,0.625692,-0.010233,0.779264,0.033940,169.423838,77.383416,173.025472
29366,-9.094416,-0.769697,-0.968412,1.078128,-1.072035,-0.761332,0.199163,0.129298,0.015745,-0.090950,-0.007695,-0.009633,0.999999,0.000996,0.000646,0.000079,0.625216,-0.009530,0.779686,0.033237,169.531209,77.311078,173.018434
29367,-9.309569,0.094895,-0.650566,1.398588,-0.203116,-0.587561,0.215209,0.178511,0.198169,-0.093102,0.000864,-0.006422,0.999999,0.001076,0.000893,0.000991,0.624549,-0.008084,0.780245,0.033030,169.221027,77.196720,172.573843
29368,-10.227196,0.310532,-1.201285,1.069056,-0.062308,0.433690,-0.113228,0.163740,0.096889,-0.102283,0.003049,-0.011931,0.999999,-0.000566,0.000819,0.000484,0.623910,-0.008047,0.780724,0.033798,168.967930,77.096199,172.380654
29369,-9.814134,0.139507,-2.443467,-0.207952,-0.307160,0.295211,-0.324148,0.147742,-0.021282,-0.098159,0.001366,-0.024364,0.999998,-0.001621,0.000739,-0.000106,0.623378,-0.009136,0.781083,0.035012,168.881622,77.022818,172.482530
29370,-9.595557,0.586152,-4.321006,-2.094241,0.016814,0.517038,-0.182150,0.175906,-0.066115,-0.095992,0.005854,-0.043131,0.999999,-0.000911,0.000880,-0.000331,0.622714,-0.009952,0.781579,0.035540,168.994851,76.933259,172.705737
29371,-8.934464,1.041225,-4.547747,-2.476983,0.483432,-0.054532,0.424643,0.092601,-0.006311,-0.089365,0.010512,-0.045414,0.999998,0.002123,0.000463,-0.000032,0.622425,-0.008641,0.781898,0.033877,169.273759,76.888818,172.742123
29372,-8.857611,2.168392,-3.909613,-1.919603,1.665538,-0.221789,0.718062,0.068900,0.206001,-0.088612,0.021733,-0.038988,0.999993,0.003590,0.000344,0.001030,0.622168,-0.005572,0.782220,0.031738,169.193609,76.830106,172.237206
29373,-9.417724,2.700600,-3.014024,-0.926732,2.238242,0.147358,0.735131,0.013692,0.172836,-0.094203,0.027035,-0.030034,0.999993,0.003676,0.000068,0.000864,0.622151,-0.002579,0.782340,0.029422,169.181958,76.810099,171.792520
29374,-9.502442,2.915678,-1.930899,0.154089,2.507096,-0.003677,0.352568,0.016109,0.053133,-0.095034,0.029165,-0.019250,0.999998,0.001763,0.000081,0.000266,0.622105,-0.001237,0.782424,0.028239,169.237434,76.797449,171.641887
29375,-9.894557,2.034227,-1.100189,1.088099,1.658429,0.153074,-0.218311,0.040896,-0.148483,-0.098933,0.020404,-0.011004,0.999999,-0.001092,0.000204,-0.000742,0.622011,-0.002467,0.782480,0.028658,169.460548,76.796183,171.999579
29376,-9.367947,0.671729,-0.930888,1.186768,0.340383,-0.455771,-0.645472,0.069221,-0.323133,-0.093672,0.006839,-0.009298,0.999993,-0.003227,0.000346,-0.001616,0.621795,-0.005708,0.782576,0.030208,169.870983,76.792544,172.800906
29377,-9.621480,-0.046255,-1.723559,0.511728,-0.408017,-0.059877,-0.823744,0.128130,-0.293229,-0.096226,-0.000392,-0.017172,0.999990,-0.004119,0.000641,-0.001466,0.621357,-0.009398,0.782795,0.032545,170.129769,76.755764,173.551688
29378,-9.555386,-0.086459,-2.846979,-0.587149,-0.505790,0.128017,-0.496913,0.011484,-0.244485,-0.095557,-0.000819,-0.028462,0.999996,-0.002485,0.000057,-0.001222,0.621347,-0.011860,0.782718,0.033760,170.410728,76.775184,174.132661
29379,-9.146914,0.600179,-3.170481,-1.033119,0.175219,-0.170066,-0.157847,0.092670,-0.153167,-0.091479,0.006047,-0.031667,0.999999,-0.000789,0.000463,-0.000766,0.621049,-0.012929,0.782931,0.033925,170.698815,76.743570,174.521583
29380,-10.362608,0.786126,-3.023241,-0.616333,0.355828,0.987087,-0.106523,0.106491,-0.175286,-0.103635,0.007936,-0.030181,0.999999,-0.000533,0.000532,-0.000876,0.620675,-0.013924,0.783214,0.033821,171.073050,76.701531,174.968676
29381,-9.737842,0.248858,-2.295355,-0.017107,-0.094466,0.194653,-0.216026,-0.020928,-0.361853,-0.097371,0.002640,-0.022967,0.999998,-0.001080,-0.000105,-0.001809,0.620848,-0.015970,0.783049,0.033574,171.784618,76.750454,175.826992
29382,-9.072183,-0.304871,-2.629258,-0.458074,-0.635660,-0.394805,-0.505131,0.026869,-0.365916,-0.090731,-0.002949,-0.026273,0.999995,-0.002526,0.000134,-0.001830,0.620782,-0.018935,0.782998,0.034444,172.360891,76.766545,176.716199
29383,-9.386037,-0.505005,-3.699902,-1.408594,-0.902337,0.149421,-0.409155,0.038379,-0.385304,-0.093877,-0.004945,-0.036971,0.999996,-0.002046,0.000192,-0.001927,0.620702,-0.021683,0.782970,0.034875,173.044972,76.778965,177.659724
29384,-8.956447,-0.433018,-3.654305,-1.471326,-0.797225,-0.275448,0.256527,-0.072007,-0.258536,-0.089557,-0.004168,-0.036581,0.999998,0.001283,-0.000360,-0.001293,0.621076,-0.021846,0.782746,0.033107,173.773947,76.839517,178.257362
29385,-8.938949,0.382929,-2.528834,-0.450540,0.132066,-0.526893,0.851636,-0.022881,-0.023429,-0.089386,0.003947,-0.025282,0.999991,0.004258,-0.000114,-0.000117,0.621300,-0.019253,0.782772,0.029730,174.289709,76.859836,178.285810
29386,-9.701361,1.004223,-1.349413,0.828516,0.847795,-0.038202,1.019492,-0.043453,-0.001832,-0.097011,0.010112,-0.013464,0.999987,0.005097,-0.000217,-0.000009,0.621581,-0.016046,0.782762,0.025769,174.842661,76.887407,178.253671
29387,-9.820062,1.327638,-0.199977,1.954689,1.253134,-0.177074,0.752267,-0.113671,-0.144641,-0.098190,0.013355,-0.002005,0.999993,0.003761,-0.000568,-0.000723,0.622143,-0.014223,0.782454,0.022412,175.581886,76.965239,178.570005
29388,-9.096275,1.662955,-0.081380,1.885740,1.619851,-0.905709,-0.054313,-0.019123,-0.326124,-0.090935,0.016778,-0.000827,0.999999,-0.000272,-0.000096,-0.001631,0.622271,-0.015626,0.782347,0.021642,176.327937,76.992182,179.367558
29389,-9.267427,1.137566,-1.225474,0.833662,1.061120,-0.492815,-0.870502,0.115123,-0.406893,-0.092658,0.011511,-0.012251,0.999988,-0.004352,0.000576,-0.002034,0.621836,-0.019900,0.782533,0.023802,176.826532,76.946894,-179.608697
29390,-10.132969,0.177016,-2.370687,-0.024171,0.061822,0.595197,-0.829890,0.093562,-0.515371,-0.101336,0.001933,-0.023667,0.999988,-0.004149,0.000468,-0.002577,0.621462,-0.024467,0.782648,0.025468,177.607487,76.910647,-178.318960
29391,-9.182202,-0.297752,-3.116598,-0.931842,-0.436008,-0.166128,-0.563221,-0.050083,-0.609327,-0.091823,-0.002786,-0.031181,0.999991,-0.002816,-0.000250,-0.003047,0.621708,-0.028556,0.782302,0.025816,178.759694,76.957267,-176.804820
29392,-8.359316,-0.591105,-3.281928,-1.258146,-0.717442,-0.930070,-0.182749,0.019773,-0.449195,-0.083609,-0.005753,-0.032806,0.999997,-0.000914,0.000099,-0.002246,0.621682,-0.030843,0.782258,0.025163,179.741670,76.952472,-175.689480
29393,-9.194974,-0.332476,-2.992528,-0.809669,-0.395349,-0.179339,0.293352,0.038768,-0.177275,-0.091958,-0.003199,-0.029912,0.999999,0.001467,0.000194,-0.000886,0.621641,-0.030591,0.782352,0.023489,-179.675408,76.936888,-175.263676
29394,-9.813907,0.120816,-2.036143,0.222068,0.166168,0.207105,0.545254,-0.015940,-0.190789,-0.098136,0.001357,-0.020366,0.999996,0.002726,-0.000080,-0.000954,0.621828,-0.029600,0.782318,0.020796,-178.915519,76.947988,-174.804446
29395,-9.824437,0.090609,-0.920783,1.305250,0.244838,-0.034554,0.335553,-0.028055,-0.325393,-0.098241,0.001081,-0.009220,0.999997,0.001678,-0.000140,-0.001627,0.622063,-0.029789,0.782181,0.018506,-177.939272,76.965645,-173.999766
29396,-9.702499,-0.326513,-1.226590,1.004666,-0.158334,-0.080520,-0.164530,-0.022290,-0.426700,-0.097030,-0.003068,-0.012274,0.999997,-0.000823,-0.000111,-0.002134,0.622185,-0.031927,0.782015,0.017857,-176.999695,76.971101,-172.938720
29397,-9.749087,-1.209263,-2.215284,0.115084,-1.062586,0.200903,-0.288559,-0.005230,-0.537314,-0.097522,-0.011863,-0.022138,0.999995,-0.001443,-0.000026,-0.002687,0.622251,-0.034887,0.781848,0.017345,-175.858058,76.962072,-171.597290
29398,-9.647134,-1.668212,-3.659144,-1.278669,-1.576490,0.440064,-0.093354,-0.049321,-0.590914,-0.096511,-0.016414,-0.036608,0.999995,-0.000467,-0.000247,-0.002955,0.622497,-0.037443,0.781564,0.015911,-174.467386,76.965392,-170.115060
29399,-8.778381,-1.842568,-3.951585,-1.760370,-1.743922,-0.329576,0.745303,-0.124355,-0.484003,-0.087803,-0.018066,-0.039638,0.999990,0.003727,-0.000622,-0.002420,0.623199,-0.036967,0.781104,0.011543,-172.831785,77.012655,-168.874863
29400,-8.142394,-0.499647,-3.047858,-1.142853,-0.312563,-1.185198,1.663364,-0.088494,-0.076961,-0.081412,-0.004711,-0.030555,0.999965,0.008317,-0.000442,-0.000385,0.623856,-0.032039,0.780867,0.004854,-171.681793,77.060936,-168.672887
29401,-9.595304,0.786115,-2.137553,-0.016229,1.118855,-0.014483,2.333535,-0.098384,0.232436,-0.095952,0.007999,-0.021330,0.999931,0.011667,-0.000492,0.001162,0.624608,-0.023813,0.780568,-0.003489,-170.899216,77.143656,-169.241984
29402,-11.208696,2.327443,-0.544187,1.868311,2.781557,1.147246,2.720998,-0.103387,0.059128,-0.112091,0.023313,-0.005183,0.999907,0.013605,-0.000517,0.000296,0.625300,-0.015044,0.780116,-0.013880,-169.464626,77.211967,-169.369722
29403,-11.808333,4.852399,0.066000,2.621713,5.351380,1.477834,1.216594,-0.139970,-0.372404,-0.117993,0.048739,0.000873,0.999980,0.006083,-0.000700,-0.001862,0.625944,-0.012665,0.779515,-0.019749,-167.792723,77.255902,-168.370344
29404,-11.183855,4.099380,-0.884569,1.543438,4.651792,1.079674,-0.889346,-0.144481,-0.911541,-0.111644,0.041463,-0.009110,0.999979,-0.004447,-0.000722,-0.004558,0.626371,-0.018976,0.779060,-0.019096,-165.994363,77.222540,-166.004120
29405,-9.448208,2.708708,-3.061101,-1.008080,3.263921,-0.101567,-1.987915,0.018783,-1.424101,-0.094290,0.027453,-0.030874,0.999925,-0.009939,0.000094,-0.007120,0.625975,-0.030701,0.779079,-0.015773,-163.723064,77.007463,-162.505630
29406,-9.080732,1.207650,-6.074999,-4.046600,1.741515,0.257841,-2.216342,-0.255994,-1.682903,-0.090627,0.012165,-0.061001,0.999902,-0.011081,-0.001280,-0.008414,0.626461,-0.044171,0.778102,-0.012335,-160.861323,76.858630,-158.264394
29407,-8.393550,-0.751101,-7.593628,-5.615412,-0.266278,0.039943,-0.275971,-0.318583,-1.466891,-0.083867,-0.007001,-0.076060,0.999971,-0.001380,-0.001593,-0.007334,0.627575,-0.050713,0.776743,-0.015741,-157.413636,76.738360,-154.560587
29408,-8.662768,0.831710,-5.377440,-3.506774,1.544161,-0.327522,1.979778,-0.097184,-0.504012,-0.086579,0.009067,-0.053729,0.999948,0.009899,-0.000486,-0.002520,0.628405,-0.046424,0.776099,-0.024954,-155.081945,76.678274,-153.330403
29409,-11.915495,3.102864,-4.444937,-1.987675,4.310953,2.386755,3.238659,-0.234636,-0.160312,-0.119078,0.031840,-0.044078,0.999868,0.016193,-0.001173,-0.000802,0.629999,-0.036844,0.774794,-0.037922,-152.646035,76.766320,-152.734014
29410,-13.202648,4.433802,-0.516997,2.177620,5.871519,2.637867,3.705904,-0.577940,-1.000237,-0.131788,0.045088,-0.004720,0.999812,0.018528,-0.002890,-0.005001,0.632636,-0.029110,0.771925,-0.055283,-147.721241,76.774317,-149.856355
29411,-12.022943,5.409382,2.667025,5.142232,6.672788,0.673269,1.810313,-0.483963,-1.394142,-0.119914,0.054688,0.026873,0.999932,0.009051,-0.002420,-0.006971,0.634376,-0.028840,0.769614,-0.066551,-143.263937,76.559396,-146.341107
29412,-12.085264,3.315478,1.204805,3.660603,4.849777,1.213362,-0.500044,0.312876,-1.556492,-0.120571,0.034124,0.012152,0.999965,-0.002500,0.001564,-0.007782,0.632586,-0.036273,0.770505,-0.069575,-141.135502,75.877054,-143.854770
29413,-12.951551,1.430217,-1.789922,0.882791,3.489022,2.837806,-1.492911,0.762794,-1.878992,-0.129442,0.015387,-0.017518,0.999921,-0.007464,0.003814,-0.009395,0.628720,-0.047901,0.773007,-0.069835,-139.889686,74.866371,-141.682596
29414,-12.053465,-0.669916,-4.395636,-1.826433,1.590802,2.804249,-1.126478,0.158094,-1.912819,-0.120628,-0.005793,-0.043827,0.999938,-0.005632,0.000790,-0.009564,0.627158,-0.058740,0.773376,-0.071496,-137.786956,74.082790,-138.830587
29415,-8.439986,-2.175692,-4.652133,-2.820626,-0.357266,-0.351017,1.265381,-0.062689,-1.320765,-0.084525,-0.020904,-0.046682,0.999958,0.006327,-0.000313,-0.006604,0.627321,-0.059831,0.772281,-0.080440,-135.098370,73.599278,-136.785556
29416,-5.639559,0.582865,-1.993343,-0.770274,1.787212,-4.126741,3.656240,0.124695,0.271917,-0.056416,0.006115,-0.019788,0.999832,0.018280,0.000623,0.001360,0.627963,-0.047217,0.771139,-0.093696,-133.553723,73.667153,-137.359151
29417,-7.406550,4.582796,-0.914984,0.956076,5.921944,-3.432452,5.078778,-0.180699,1.864833,-0.074482,0.045349,-0.008061,0.999634,0.025391,-0.000903,0.009323,0.630544,-0.024082,0.768327,-0.107274,-132.964605,74.528067,-139.771459
29418,-11.447968,9.210340,5.097087,8.329305,10.062162,-1.373727,4.659544,-1.425443,1.726426,-0.115632,0.089901,0.052261,0.999666,0.023295,-0.007126,0.008631,0.637322,-0.003482,0.761269,-0.119491,-130.484089,75.816205,-139.967416
29419,-6.684106,10.294345,12.468908,14.895105,8.794882,-7.184226,0.449865,-0.144989,0.662652,-0.067272,0.102440,0.124871,0.999992,0.002249,-0.000725,0.003313,0.638323,0.000467,0.760514,-0.119005,-130.987814,76.172081,-140.751143
29420,-8.875774,3.962111,3.886577,6.003942,4.525123,-2.528562,-3.785553,1.213164,0.815855,-0.088685,0.039992,0.038649,0.999794,-0.018926,0.006065,0.004079,0.634100,-0.007755,0.766462,-0.101949,-136.499624,76.035486,-144.194805
29421,-11.469027,1.097134,-1.812015,0.652384,2.884105,1.469134,-4.475644,1.298374,0.505099,-0.114832,0.010284,-0.017610,0.999725,-0.022376,0.006491,0.002525,0.629105,-0.019256,0.772623,-0.083124,-141.888836,75.677986,-147.106503
29422,-11.570205,-3.317033,-5.420714,-3.092188,-1.268991,2.957561,-3.878410,-0.246707,0.174984,-0.115606,-0.034316,-0.053692,0.999811,-0.019391,-0.001233,0.000875,0.629664,-0.030841,0.773313,-0.067522,-144.101382,75.857223,-147.096706
29423,-7.350691,-6.120834,-7.865260,-6.394569,-4.592538,-0.253542,-0.433170,0.208991,0.296601,-0.073498,-0.061487,-0.078443,0.999996,-0.002166,0.001045,0.001483,0.628954,-0.030897,0.774117,-0.064849,-145.206169,75.873741,-147.978539
29424,-6.493792,-4.825091,-3.805826,-2.599193,-3.727434,-2.113087,2.053881,0.009285,1.958580,-0.064466,-0.048490,-0.038552,0.999899,0.010269,0.000046,0.009793,0.629831,-0.016814,0.773688,-0.066603,-147.860676,76.494332,-151.924005
29425,-8.367685,-0.812764,-2.916519,-1.190834,0.258668,-0.998109,3.587870,0.125678,3.497975,-0.083542,-0.009065,-0.029270,0.999686,0.017937,0.000628,0.017488,0.630668,0.008144,0.772903,-0.069367,-153.550429,77.427407,-159.872247
29426,-11.840852,2.474683,-1.441073,1.291949,3.331856,1.833123,5.163978,-0.386396,3.567640,-0.118802,0.022995,-0.014031,0.999506,0.025816,-0.001932,0.017835,0.632901,0.038109,0.769348,-0.078023,-158.960387,78.461125,-168.429097
29427,-12.560594,7.117604,5.139045,8.599250,6.369565,1.154905,4.581321,-1.477001,2.493280,-0.126853,0.068412,0.052045,0.999633,0.022904,-0.007384,0.012465,0.638499,0.061691,0.762091,-0.087916,-161.922886,79.748889,-174.117022
29428,-7.825214,9.202978,11.936979,14.760503,6.535240,-4.536919,0.012940,-0.406182,1.622435,-0.079237,0.091382,0.119215,0.999965,0.000065,-0.002031,0.008112,0.640760,0.067770,0.760240,-0.082879,-166.655402,80.229721,-178.930232
29429,-9.846469,4.470260,4.491257,6.888579,3.488533,-1.010200,-4.606147,1.039640,1.337082,-0.098534,0.045070,0.044389,0.999699,-0.023028,0.005198,0.006685,0.638800,0.058601,0.764740,-0.060608,-174.232268,79.780454,176.058323
29430,-11.668734,1.024892,-0.821970,1.468244,0.934589,1.799988,-5.686073,1.155632,0.732061,-0.116769,0.009595,-0.007824,0.999572,-0.028426,0.005777,0.003660,0.636021,0.043603,0.769591,-0.036137,-179.952165,79.143919,173.554047
29431,-12.874835,-2.618632,-3.773484,-1.528595,-2.578512,3.523987,-5.705828,-0.294800,0.140279,-0.128674,-0.027342,-0.037155,0.999592,-0.028525,-0.001474,0.000701,0.638243,0.026024,0.769274,-0.013682,176.235056,79.320319,173.003337
29432,-9.486951,-6.588748,-6.551886,-4.983250,-6.541164,0.613979,-3.445788,-0.542744,-0.233778,-0.094771,-0.066895,-0.064629,0.999847,-0.017228,-0.002714,-0.001169,0.640687,0.014126,0.767671,-0.001213,174.817458,79.643563,173.569419
29433,-6.301733,-6.429756,-4.453105,-3.399673,-6.495558,-2.947326,-0.843481,-0.543580,0.343062,-0.062786,-0.064593,-0.044430,0.999986,-0.004217,-0.002718,0.001715,0.642897,0.012825,0.765838,0.003182,172.973980,79.941263,172.189532
29434,-5.245349,-5.129692,-1.853833,-1.038390,-5.281732,-4.494169,0.549317,-0.582805,2.224116,-0.051825,-0.051824,-0.018832,0.999930,0.002747,-0.002914,0.011120,0.645034,0.023155,0.763758,0.008221,165.804069,80.037167,164.589367
29435,-7.241487,-2.518185,-0.900479,0.234006,-2.931561,-2.675562,1.336970,0.078416,2.946516,-0.072038,-0.026184,-0.009149,0.999869,0.006685,0.000392,0.014732,0.644438,0.038791,0.763566,0.012712,157.680696,79.468940,155.558539
29436,-10.602308,-0.623034,-1.362738,0.371236,-1.528904,0.778403,1.345791,-0.200520,3.001226,-0.105901,-0.007728,-0.013782,0.999864,0.006729,-0.001003,0.015005,0.644685,0.054631,0.762299,0.017234,150.096625,78.813912,147.051567
29437,-11.529288,-0.502046,0.835225,2.626311,-1.869432,1.299323,1.325492,-0.519727,1.964927,-0.115257,-0.006207,0.008014,0.999926,0.006627,-0.002599,0.009824,0.646148,0.066508,0.760085,0.018455,145.245007,78.464157,141.330757
29438,-9.107729,0.155461,2.636144,4.013219,-1.189102,-1.303677,-0.122758,-0.294950,1.202012,-0.091123,0.001023,0.026226,0.999981,-0.000614,-0.001475,0.006010,0.647207,0.070745,0.758684,0.022736,141.973919,78.190713,138.062332
29439,-8.769264,-1.334731,2.079096,3.292192,-2.671152,-1.748566,-2.230606,0.065791,1.281029,-0.087599,-0.013675,0.020971,0.999917,-0.011153,0.000329,0.006405,0.647613,0.068443,0.758061,0.035443,138.098164,77.690151,135.408496
29440,-9.811956,-2.759933,-0.296666,1.081952,-4.236547,-0.600795,-3.236709,0.105414,0.974675,-0.097985,-0.028120,-0.002463,0.999857,-0.016183,0.000527,0.004873,0.648076,0.061668,0.757365,0.050927,134.584209,77.259303,133.708486
29441,-9.284182,-3.742713,-4.896169,-3.476873,-5.259735,-0.624732,-3.364767,-0.204728,0.409140,-0.092714,-0.038435,-0.048416,0.999856,-0.016823,-0.001024,0.002046,0.649760,0.052422,0.755539,0.064996,131.502467,77.167563,132.527791
29442,-7.414717,-5.767547,-6.944166,-5.695426,-7.173904,-2.562923,-1.503586,-0.357023,0.498995,-0.073878,-0.058381,-0.069137,0.999967,-0.007518,-0.001785,0.002495,0.651337,0.049576,0.753714,0.072232,129.122622,77.079635,130.970150
29443,-5.872878,-4.339590,-4.826961,-3.847762,-5.511317,-4.205434,0.612421,0.004401,1.855750,-0.058325,-0.043790,-0.048402,0.999952,0.003062,0.000022,0.009279,0.650527,0.058615,0.753392,0.076026,126.669007,76.237604,128.090017
29444,-9.103447,-2.557509,-3.939000,-2.535082,-4.459692,-0.946451,1.426133,0.436670,2.848646,-0.090747,-0.026588,-0.039379,0.999871,0.007130,0.002183,0.014243,0.647314,0.073851,0.754400,0.080067,124.573510,74.761897,125.081682
29445,-12.724718,-1.829484,-3.376376,-1.437757,-4.715035,2.530826,1.907757,0.231596,2.283099,-0.127069,-0.019424,-0.033798,0.999889,0.009538,0.001158,0.011415,0.644804,0.088584,0.754930,0.080389,123.429141,73.601285,122.758233
29446,-11.127055,-0.793201,-1.398857,0.278735,-3.469526,0.877547,1.833931,-0.101760,1.128640,-0.111217,-0.008431,-0.014121,0.999942,0.009169,-0.000509,0.005643,0.643901,0.098833,0.754772,0.077084,123.111669,73.089579,121.329962
29447,-8.616882,-0.329382,-0.143756,1.136259,-2.489616,-1.634046,1.348157,-0.086545,0.775694,-0.086155,-0.003618,-0.001499,0.999970,0.006741,-0.000433,0.003878,0.643296,0.106174,0.754551,0.074494,122.923041,72.742572,120.326409
29448,-8.851208,1.126444,-1.214275,0.210623,-1.184669,-0.888621,1.182648,0.119280,0.960907,-0.088572,0.010910,-0.012025,0.999971,0.005913,0.000596,0.004804,0.641859,0.113596,0.754820,0.073212,122.817087,72.240022,119.504653
29449,-10.991631,2.307862,-1.239895,0.614168,-0.684904,1.449320,1.711419,-0.196646,0.790310,-0.109995,0.022750,-0.012311,0.999955,0.008557,-0.000983,0.003951,0.641365,0.122178,0.754276,0.069216,122.711255,71.919128,118.364790
29450,-10.782572,3.007609,1.758942,3.593125,-0.158705,0.932896,1.608129,-0.737515,-0.061544,-0.107881,0.029969,0.017433,0.999961,0.008041,-0.003688,-0.000308,0.643178,0.127394,0.752451,0.062528,122.575422,72.173709,117.253322
29451,-8.018564,2.945847,4.531457,5.890322,0.382115,-2.153284,-0.528871,-0.413519,-1.006538,-0.080129,0.029981,0.045070,0.999982,-0.002644,-0.002068,-0.005033,0.645431,0.122072,0.751524,0.061058,122.585917,72.786318,117.584130
29452,-6.576568,3.999879,1.072480,2.333370,2.130198,-2.712291,-4.785836,1.551969,-1.242612,-0.065434,0.040655,0.010266,0.999664,-0.023927,0.007759,-0.006212,0.642702,0.101486,0.755553,0.075984,123.496718,72.895338,121.407018
29453,-12.279328,6.262952,-8.808705,-6.575293,2.766635,4.906884,-9.348561,2.800600,-1.211385,-0.123672,0.059224,-0.089181,0.998791,-0.046724,0.013997,-0.006054,0.636616,0.065733,0.760637,0.108766,123.638394,72.586323,127.166519
29454,-24.136288,-9.746601,-18.156416,-12.710977,-16.982473,13.791444,-6.510180,0.318311,-2.197320,-0.242742,-0.100636,-0.177937,0.999409,-0.032544,0.001591,-0.010984,0.638380,0.036489,0.758362,0.126597,122.650697,73.537853,130.033114
29455,-13.295860,-17.805109,-11.010323,-6.810730,-21.390706,0.721521,3.263265,-1.212396,-3.135589,-0.135027,-0.174108,-0.113780,0.999726,0.016315,-0.006061,-0.015677,0.644237,0.035805,0.756877,0.103989,126.074413,75.413738,131.646495
29456,-0.392137,-6.157583,-2.931729,-2.506811,-6.342993,-10.176711,5.975267,-0.666449,-1.309074,-0.004219,-0.060636,-0.031152,0.999527,0.029872,-0.003332,-0.006544,0.646081,0.050467,0.757694,0.077026,130.116459,76.237001,132.284177
29457,-0.538252,0.641586,-1.648910,-1.535467,0.491006,-8.906723,5.292037,0.878775,0.735697,-0.005479,0.006829,-0.016288,0.999634,0.026457,0.004393,0.003678,0.640939,0.070005,0.762069,0.059554,133.501115,75.590529,132.647533
29458,-5.593499,4.186429,-2.809026,-1.496291,3.069126,-3.102176,6.945337,1.526671,3.412053,-0.056854,0.041831,-0.026205,0.999222,0.034718,0.007631,0.017056,0.631197,0.104786,0.767220,0.044545,134.796317,73.576503,129.863021
29459,-21.834266,14.392996,1.458406,7.516991,8.587891,13.756570,9.601318,-0.231439,3.846923,-0.221068,0.138786,0.021076,0.998662,0.047985,-0.001157,0.019226,0.625399,0.149754,0.765547,0.019692,134.935898,72.109707,124.251923
29460,-13.264744,26.221801,27.162693,33.907604,17.315949,2.506909,1.203230,-0.705153,-1.307640,-0.131897,0.261443,0.272735,0.999954,0.006016,-0.003526,-0.006538,0.627318,0.148614,0.764380,0.010495,136.410548,72.920599,125.075045
29461,-8.568557,6.867937,1.198477,3.802328,4.490593,-0.465702,-9.626084,0.998656,-1.916108,-0.084969,0.069979,0.009062,0.998784,-0.048111,0.004991,-0.009577,0.630066,0.110911,0.767430,0.042025,134.751584,73.283939,129.107686
29462,-7.061467,-5.573436,-21.085751,-19.682732,-6.104269,0.220736,-6.925259,2.418739,-2.894991,-0.074008,-0.061914,-0.207903,0.999223,-0.034617,0.012091,-0.014471,0.624766,0.077440,0.774579,0.060809,137.979938,73.424197,136.618153
29463,-8.895577,-14.105185,-15.998660,-14.363520,-15.535198,-0.518118,-0.596754,-0.225728,-1.393514,-0.089758,-0.140905,-0.159667,0.999971,-0.002984,-0.001129,-0.006967,0.626336,0.070277,0.774156,0.058708,139.365857,74.052170,138.419206
29464,-6.756396,-4.134513,-5.480201,-4.122036,-5.281991,-2.892816,1.481631,0.628128,0.199052,-0.067695,-0.041006,-0.054894,0.999967,0.007408,0.003141,0.000995,0.623324,0.075542,0.776441,0.053843,140.690016,73.701918,138.913775
29465,-13.079969,-3.500510,-6.346587,-3.582087,-5.787132,3.502564,0.160601,0.362722,0.080897,-0.130900,-0.035007,-0.063257,0.999998,0.000803,0.001814,0.000404,0.621879,0.076279,0.777543,0.053618,141.083700,73.515200,139.228255
29466,-10.281312,-5.320716,-6.636585,-4.595943,-6.956142,0.605756,2.091471,-0.213911,-0.663063,-0.102916,-0.052167,-0.067025,0.999939,0.010457,-0.001070,-0.003315,0.622072,0.080298,0.777623,0.043369,143.025785,73.844510,140.003102
29467,-7.290125,0.426979,-2.088723,-0.448653,-0.788410,-2.271609,2.875514,-0.143676,0.073598,-0.072888,0.004543,-0.020876,0.999896,0.014377,-0.000718,0.000368,0.621436,0.089564,0.777656,0.032354,144.372067,73.890166,139.688895
29468,-9.578216,5.060875,-1.567430,1.045835,3.319549,0.565054,2.301504,-0.351225,0.796548,-0.095956,0.050404,-0.015262,0.999924,0.011507,-0.001756,0.003983,0.621616,0.099903,0.776499,0.025748,143.985031,73.785512,137.912879
29469,-11.310698,8.399128,-0.033051,3.408737,6.097556,2.421577,2.308281,-0.562933,0.063305,-0.113134,0.083954,0.000320,0.999929,0.011541,-0.002815,0.000317,0.622638,0.107403,0.774924,0.016701,144.535273,74.030319,137.108643
29470,-8.455230,9.484879,4.812088,7.731207,7.198415,-1.267481,-0.137731,-0.202131,-0.719597,-0.084259,0.095185,0.047970,0.999993,-0.000689,-0.001011,-0.003598,0.623572,0.104242,0.774641,0.014913,145.391182,74.361237,138.080057
29471,-7.907481,5.433045,1.469594,3.716488,3.800128,-1.691758,-3.769547,0.712974,-0.765832,-0.078815,0.054900,0.013946,0.999809,-0.018847,0.003565,-0.003829,0.622764,0.089474,0.776790,0.027506,145.319338,74.278784,140.248942
29472,-10.028569,1.431071,-4.305372,-1.929070,-0.087091,1.023663,-5.269367,1.151277,-1.296321,-0.100442,0.013831,-0.042844,0.999615,-0.026343,0.005756,-0.006481,0.620609,0.067881,0.779910,0.044466,145.764392,74.154534,143.848705
29473,-10.738276,-7.038803,-12.698867,-10.299612,-8.667431,2.224589,-3.877382,-1.119585,-1.071131,-0.107058,-0.072266,-0.126200,0.999782,-0.019386,-0.005598,-0.005355,0.626443,0.051933,0.775725,0.055888,143.999258,75.036252,144.322457
29474,-5.229179,-6.252355,-9.760650,-8.574248,-7.075970,-3.639005,1.784029,-0.382560,-0.682096,-0.052315,-0.061471,-0.098258,0.999953,0.008920,-0.001913,-0.003410,0.627643,0.055021,0.775145,0.046759,145.730969,75.439791,145.056075
29475,-6.044894,0.030515,-1.725268,-0.393464,-0.823232,-3.592980,3.982184,1.475444,0.309902,-0.060575,0.000549,-0.016797,0.999773,0.019909,0.007377,0.001549,0.620649,0.068378,0.780417,0.032696,149.140137,74.635199,146.222425
29476,-12.962755,4.639615,0.669015,3.898662,2.580584,3.154323,2.713172,0.402958,0.903090,-0.129820,0.045711,0.007575,0.999896,0.013565,0.002015,0.004515,0.617957,0.080288,0.781699,0.025074,149.499106,74.172483,144.981027
29477,-11.732352,5.301982,1.302141,4.339520,3.313404,1.919482,0.767160,-1.159201,-0.051131,-0.117384,0.053001,0.012544,0.999976,0.003836,-0.005796,-0.000256,0.622209,0.082621,0.778183,0.021456,148.786948,74.761556,143.785135
29478,-7.183365,3.875583,2.591052,4.433144,2.558514,-2.947178,-0.600546,0.235561,-0.688460,-0.071669,0.039080,0.025878,0.999989,-0.003003,0.001178,-0.003442,0.621629,0.078087,0.779106,0.021776,149.921580,74.846395,145.317295
29479,-9.154073,2.353954,0.722638,2.904322,0.947482,-0.838995,-2.461847,0.885157,-0.482572,-0.091451,0.023850,0.007339,0.999912,-0.012309,0.004426,-0.002413,0.619184,0.068474,0.781670,0.030219,150.289952,74.548846,147.161415
29480,-10.242182,-0.179936,-4.280788,-1.872095,-1.529701,1.023119,-3.022383,0.154441,-0.631697,-0.102461,-0.002122,-0.042698,0.999881,-0.015111,0.000772,-0.003158,0.619658,0.056658,0.781794,0.040153,149.833596,74.652761,148.484120
29481,-8.183629,-2.601550,-7.649000,-5.711668,-3.680477,-0.534889,-1.174305,-0.526108,-0.323886,-0.081677,-0.026332,-0.076551,0.999978,-0.005871,-0.002631,-0.001619,0.622142,0.051879,0.779966,0.043599,149.165614,75.011017,148.488941
29482,-7.306324,-0.241743,-5.171828,-3.418432,-1.205946,-1.624407,1.498462,0.486400,-0.067954,-0.073189,-0.002006,-0.051556,0.999969,0.007492,0.002432,-0.000340,0.619872,0.056208,0.781779,0.037698,150.642758,74.789367,149.129517
29483,-10.005217,2.117151,-1.647790,0.788428,0.786434,0.485894,1.825414,0.654467,-0.076734,-0.100097,0.021357,-0.015956,0.999953,0.009127,0.003272,-0.000384,0.616823,0.061460,0.784105,0.030512,152.463490,74.484446,149.932485
29484,-10.253329,2.616997,-0.686083,1.858380,1.245310,0.552917,0.333850,-0.140746,-0.126875,-0.102512,0.026246,-0.006889,0.999998,0.001669,-0.000704,-0.000634,0.617311,0.062054,0.783739,0.028797,152.730326,74.589748,150.010747
29485,-8.984355,1.642412,-2.468116,-0.226797,0.522843,-0.369018,-0.238805,0.071564,-0.306042,-0.089827,0.016532,-0.024669,0.999998,-0.001194,0.000358,-0.001530,0.617187,0.060128,0.783986,0.028817,153.211556,74.637002,150.651308
29486,-9.149086,1.259570,-3.126281,-0.840686,0.165933,-0.100245,0.257888,0.139068,-0.245284,-0.091497,0.012748,-0.031183,0.999998,0.001289,0.000695,-0.001226,0.616619,0.059983,0.784505,0.027119,153.922566,74.628576,151.235313
29487,-9.228189,2.404159,-1.552954,0.794916,1.269528,-0.267667,0.577310,0.120229,-0.213319,-0.092265,0.024185,-0.015404,0.999995,0.002887,0.000601,-0.001067,0.616038,0.060931,0.784982,0.024241,154.745444,74.623436,151.745191
29488,-9.595314,2.922307,-0.430321,2.022854,1.721257,-0.130726,0.099186,0.117662,-0.257118,-0.095918,0.029349,-0.004232,0.999999,0.000496,0.000588,-0.001286,0.615598,0.060253,0.785413,0.023123,155.367756,74.624969,152.331535
29489,-9.768353,2.167439,-0.502233,1.950803,0.984160,-0.035344,-0.567001,0.144215,-0.390087,-0.097645,0.021851,-0.005014,0.999994,-0.002835,0.000721,-0.001950,0.615284,0.056983,0.785871,0.024203,155.889256,74.646147,153.208921
29490,-9.393302,0.435011,-1.742377,0.561555,-0.619981,-0.285913,-0.941155,0.139230,-0.467514,-0.093935,0.004488,-0.017379,0.999986,-0.004706,0.000696,-0.002338,0.615074,0.052273,0.786287,0.026531,156.337226,74.682329,154.232453
29491,-9.237202,-1.195923,-3.331552,-1.088720,-2.165060,-0.221935,-0.608149,0.013985,-0.396766,-0.092398,-0.011877,-0.033273,0.999993,-0.003041,0.000070,-0.001984,0.615268,0.048865,0.786313,0.027716,156.745136,74.769965,155.016188
29492,-8.969253,-1.763659,-2.814527,-0.668615,-2.682469,-0.656447,0.430232,0.089760,-0.293251,-0.089731,-0.017444,-0.028143,0.999997,0.002151,0.000449,-0.001466,0.614870,0.049064,0.786698,0.025173,157.610328,74.788509,155.657236
29493,-9.654962,-0.616572,-1.317472,1.013483,-1.614074,-0.236588,0.860048,0.285701,-0.208318,-0.096575,-0.006009,-0.013063,0.999989,0.004300,0.001428,-0.001042,0.613595,0.050873,0.787694,0.021227,158.715979,74.685595,156.292010
29494,-10.393389,0.216985,-0.971502,1.593067,-0.844473,0.471394,0.571520,0.149922,-0.250983,-0.103938,0.002328,-0.009631,0.999995,0.002858,0.000750,-0.001255,0.612904,0.051662,0.788255,0.018272,159.621686,74.657450,156.891458
29495,-9.686106,0.565627,-0.790532,1.631285,-0.400042,-0.223928,0.430827,0.095596,-0.294015,-0.096856,0.005816,-0.007847,0.999996,0.002154,0.000478,-0.001470,0.612484,0.051835,0.788626,0.015704,160.498751,74.668582,157.544395
29496,-9.606401,1.053375,-1.005283,1.450700,0.130062,-0.206357,0.247487,0.176976,-0.276590,-0.096058,0.010679,-0.009955,0.999998,0.001237,0.000885,-0.001383,0.611764,0.051528,0.789237,0.013955,161.283475,74.625843,158.210980
29497,-9.610885,0.721373,-1.836170,0.643374,-0.136069,-0.023486,0.165954,0.121532,-0.320196,-0.096108,0.007383,-0.018297,0.999998,0.000830,0.000608,-0.001601,0.611308,0.050784,0.789665,0.012358,162.076229,74.623017,158.934022
29498,-9.297160,0.692318,-2.292271,0.139956,-0.081130,-0.213486,0.431813,0.164075,-0.312402,-0.092979,0.007118,-0.022831,0.999996,0.002159,0.000820,-0.001562,0.610589,0.050900,0.790250,0.009768,163.023026,74.588393,159.659305
29499,-9.308772,1.379876,-2.154923,0.344088,0.633707,-0.185599,0.479360,0.172220,-0.329315,-0.093083,0.014003,-0.021436,0.999995,0.002397,0.000861,-0.001647,0.609846,0.051073,0.790842,0.006918,164.039876,74.553062,160.428707
29500,-9.332965,0.909294,-1.899660,0.584765,0.187420,-0.264779,0.261172,0.177459,-0.347547,-0.093330,0.009280,-0.018902,0.999997,0.001306,0.000887,-0.001738,0.609110,0.050530,0.791459,0.004899,164.958247,74.509901,161.226199
29501,-9.710045,-0.201563,-2.652632,-0.107479,-0.871089,0.216845,0.090474,0.199390,-0.420508,-0.097131,-0.001799,-0.026430,0.999997,0.000452,0.000997,-0.002103,0.608354,0.049157,0.792135,0.003318,165.939122,74.465832,162.189824
29502,-9.155230,-1.231181,-2.968348,-0.614957,-1.789895,-0.296226,0.333497,0.062339,-0.410913,-0.091587,-0.012074,-0.029675,0.999996,0.001667,0.000312,-0.002055,0.608052,0.048583,0.792409,0.000791,166.961800,74.488084,163.052774
29503,-8.626226,-0.752638,-2.388675,-0.146695,-1.260260,-0.920328,0.884306,0.165055,-0.292199,-0.086293,-0.007295,-0.023848,0.999989,0.004422,0.000825,-0.001461,0.607224,0.050132,0.792940,-0.003556,168.117112,74.437962,163.725361
29504,-9.507845,0.549562,-1.977098,0.607379,-0.017940,-0.104926,0.992244,0.243477,-0.210717,-0.095096,0.005693,-0.019627,0.999986,0.004961,0.001217,-0.001054,0.606021,0.052352,0.793684,-0.008041,169.185124,74.327001,164.243877
29505,-9.961686,1.331311,-1.992525,0.813300,0.767876,0.371928,0.883225,0.158217,-0.294054,-0.099613,0.013547,-0.019787,0.999989,0.004416,0.000791,-0.001470,0.605190,0.053886,0.794158,-0.012391,170.326754,74.274084,164.903374
29506,-9.338487,1.775741,-2.081583,0.640233,1.306386,-0.191006,0.726126,0.170770,-0.379628,-0.093369,0.018010,-0.020671,0.999991,0.003631,0.000854,-0.001898,0.604311,0.054626,0.794706,-0.016349,171.537099,74.214045,165.728556
29507,-9.016064,1.757057,-2.249915,0.419232,1.370946,-0.464783,0.472946,0.149233,-0.401714,-0.090142,0.017805,-0.022390,0.999995,0.002365,0.000746,-0.002009,0.603601,0.054492,0.795185,-0.019395,172.642838,74.167586,166.595482
29508,-8.914476,1.481656,-2.689015,-0.033772,1.189812,-0.459774,0.376146,0.183651,-0.408124,-0.089139,0.015049,-0.026780,0.999996,0.001881,0.000918,-0.002041,0.602750,0.054061,0.795791,-0.022045,173.697944,74.093454,167.468208
29509,-9.414196,1.442607,-3.115481,-0.287177,1.210123,0.130516,0.330850,0.188534,-0.434444,-0.094140,0.014682,-0.031042,0.999996,0.001654,0.000943,-0.002172,0.601909,0.053373,0.796399,-0.024611,174.780043,74.017596,168.395858
29510,-8.996824,1.021712,-3.215202,-0.520613,0.874063,-0.258160,0.223920,0.133566,-0.497543,-0.089964,0.010477,-0.032080,0.999996,0.001120,0.000668,-0.002488,0.601277,0.052121,0.796884,-0.026937,175.899796,73.967247,169.427175
29511,-9.118656,0.337776,-3.737873,-1.046587,0.292794,-0.011954,0.133153,0.161708,-0.500036,-0.091208,0.003631,-0.037303,0.999996,0.000666,0.000809,-0.002500,0.600577,0.050575,0.797442,-0.028918,176.976681,73.899162,170.467865
29512,-9.435631,-0.164537,-3.793752,-1.052268,-0.160184,0.302524,0.417913,0.105960,-0.509608,-0.094380,-0.001326,-0.037891,0.999994,0.002090,0.000530,-0.002548,0.599996,0.049853,0.797805,-0.032060,178.214048,73.853753,171.506512
29513,-9.507074,0.538006,-2.697188,0.117015,0.476748,0.072015,0.745064,0.144692,-0.513824,-0.095076,0.005725,-0.026882,0.999989,0.003725,0.000723,-0.002569,0.599190,0.050085,0.798203,-0.036527,179.649381,73.782820,172.555923
29514,-9.523428,1.829051,-2.273519,0.712167,1.771999,-0.037086,0.580777,0.147117,-0.579222,-0.095197,0.018632,-0.022611,0.999991,0.002904,0.000736,-0.002896,0.598371,0.049579,0.798657,-0.040516,-178.901165,73.699638,173.719000
29515,-9.113194,1.453476,-1.776523,1.044591,1.413355,-0.580686,0.179869,0.085687,-0.659432,-0.091091,0.014851,-0.017713,0.999994,0.000899,0.000428,-0.003297,0.597894,0.047527,0.798999,-0.043173,-177.525349,73.645467,175.044658
29516,-9.289201,0.039737,-2.358651,0.379420,0.139179,-0.237177,-0.139450,0.180315,-0.687185,-0.092911,0.000700,-0.023503,0.999993,-0.000697,0.000902,-0.003436,0.597079,0.044443,0.799707,-0.044600,-176.308145,73.524662,176.396741
29517,-9.724916,-1.695355,-3.577365,-0.850816,-1.376792,0.561603,-0.112660,0.063487,-0.738256,-0.097322,-0.016615,-0.035733,0.999993,-0.000563,0.000317,-0.003691,0.596730,0.041196,0.800044,-0.046325,-174.969440,73.463163,177.859741
29518,-9.426998,-2.397594,-3.863714,-1.278398,-1.960663,0.388582,0.531316,0.075377,-0.682212,-0.094365,-0.023551,-0.038665,0.999991,0.002657,0.000377,-0.003411,0.596180,0.040108,0.800260,-0.050442,-173.391138,73.384362,179.188721
29519,-11.594069,-0.825726,-4.447622,-0.995369,-0.237666,2.590426,1.126679,0.248493,-0.561670,-0.116018,-0.007681,-0.044376,0.999979,0.005633,0.001242,-0.002808,0.594852,0.041307,0.800778,-0.056562,-171.751668,73.208410,-179.774304
29520,-11.824826,0.537651,-3.766024,-0.076304,1.155473,2.554819,1.731614,-0.149088,-0.864502,-0.118195,0.006214,-0.037697,0.999953,0.008658,-0.000745,-0.004322,0.594845,0.042990,0.799967,-0.066067,-169.110211,73.214447,-178.051709
29521,-7.681655,2.449291,-3.070958,-0.311173,3.038805,-1.743926,1.680599,-0.230403,-1.033435,-0.076652,0.025147,-0.030588,0.999951,0.008403,-0.001152,-0.005167,0.595080,0.043803,0.798874,-0.075897,-166.142337,73.223479,-175.958350
29522,-9.410702,4.093592,-3.617715,-0.007137,4.908109,-0.101094,1.668422,0.081752,-0.779546,-0.093960,0.041602,-0.035794,0.999958,0.008342,0.000409,-0.003898,0.594094,0.045721,0.798602,-0.084832,-163.817820,73.067088,-174.528484
29523,-12.446861,5.577796,-3.936437,0.927315,6.660359,2.689576,1.918028,-0.092046,-1.087357,-0.124144,0.056828,-0.038880,0.999939,0.009590,-0.000460,-0.005437,0.593571,0.047066,0.797682,-0.095718,-160.733205,72.934910,-172.452660
29524,-11.677548,5.340229,-2.396252,2.194475,6.268730,1.434863,1.897245,-0.345825,-1.516977,-0.116324,0.054511,-0.023650,0.999925,0.009486,-0.001729,-0.007585,0.593761,0.046515,0.796025,-0.107834,-156.797347,72.809847,-169.471853
29525,-12.629272,3.884271,-1.198368,3.362128,4.836976,2.074997,1.636880,-0.248533,-1.666075,-0.125948,0.039990,-0.011816,0.999931,0.008184,-0.001243,-0.008330,0.593479,0.044645,0.794703,-0.119316,-152.904778,72.541243,-166.376991
29526,-14.121140,2.180271,-0.004380,4.590710,3.229716,3.326916,1.951799,-0.417078,-1.770594,-0.141011,0.023053,-0.000117,0.999911,0.009759,-0.002085,-0.008853,0.593620,0.043185,0.792607,-0.132380,-148.637787,72.259925,-163.073940
29527,-14.261591,2.569093,1.563410,6.193077,3.425290,2.928864,2.606109,-0.693810,-1.695557,-0.142446,0.026697,0.015483,0.999873,0.013030,-0.003469,-0.008477,0.594665,0.043781,0.789051,-0.147837,-143.955241,72.061299,-159.723663
29528,-12.340859,5.621916,2.645545,7.407603,5.970113,0.206551,2.400558,-0.919748,-1.536292,-0.123096,0.056847,0.026569,0.999888,0.012002,-0.004599,-0.007681,0.596596,0.044208,0.784770,-0.162033,-139.455910,71.935440,-156.439214
29529,-11.068857,6.898860,4.066920,8.712224,6.686108,-1.685877,1.090869,-0.702159,-1.514961,-0.110306,0.069603,0.040660,0.999950,0.005454,-0.003511,-0.007575,0.597920,0.040998,0.782044,-0.170934,-136.058288,71.661603,-153.520656
29530,-10.987235,4.362385,3.624413,7.606115,4.580681,-1.207647,-0.729841,-0.006059,-1.565215,-0.109527,0.044614,0.036079,0.999963,-0.003649,-0.000030,-0.007826,0.596764,0.032724,0.782922,-0.172727,-134.584796,71.039732,-151.524341
29531,-11.148086,1.303141,0.898406,4.366801,2.759335,0.192270,-1.880596,0.193755,-1.561553,-0.111365,0.013986,0.008963,0.999925,-0.009403,0.000969,-0.007808,0.595000,0.021225,0.785270,-0.169927,-134.106748,70.336470,-149.876047
29532,-9.817139,-1.989258,-3.139767,-0.518783,0.736911,0.645751,-1.717899,-0.464689,-1.238162,-0.098220,-0.019555,-0.031457,0.999941,-0.008589,-0.002323,-0.006191,0.595951,0.010892,0.785415,-0.166876,-133.202552,70.013313,-147.868740
29533,-7.723579,-4.102530,-5.325039,-3.651481,-0.977399,-0.296849,0.307921,-0.791584,-0.327812,-0.077091,-0.040817,-0.053619,0.999990,0.001540,-0.003958,-0.001639,0.598845,0.009924,0.782757,-0.169048,-131.752143,70.195794,-146.514009
29534,-8.974889,-3.121129,-4.509281,-2.364161,0.038153,0.435821,2.565698,0.393033,0.150533,-0.089815,-0.030699,-0.045312,0.999916,0.012828,0.001965,0.000753,0.597287,0.018561,0.781674,-0.178576,-130.912078,70.118262,-147.183880
29535,-12.916610,-1.388258,-3.160653,0.408689,2.058141,3.391575,3.691461,0.079715,0.591583,-0.129138,-0.013679,-0.031809,0.999825,0.018456,0.000399,0.002958,0.597133,0.032026,0.778377,-0.191142,-129.504346,70.361661,-147.935483
29536,-11.547236,2.930802,-1.739121,2.535922,5.348186,0.671517,4.580294,-0.677772,0.643350,-0.115508,0.029331,-0.017111,0.999727,0.022899,-0.003389,0.003216,0.599520,0.047581,0.771642,-0.207074,-126.659904,70.897771,-147.702305
29537,-9.247084,6.660336,1.104743,5.781907,7.159776,-3.001646,5.070089,-1.362950,0.950315,-0.092865,0.065865,0.012091,0.999644,0.025347,-0.006814,0.004751,0.604419,0.065083,0.761759,-0.223973,-122.772725,71.804777,-146.665590
29538,-8.224966,11.888089,7.836557,13.630024,8.499528,-6.299433,3.755326,-1.597713,1.079647,-0.083519,0.116941,0.079910,0.999777,0.018775,-0.007988,0.005398,0.610389,0.078771,0.752184,-0.235455,-119.158317,72.812799,-145.130486
29539,-8.152501,12.940099,10.579117,16.498464,8.042051,-6.821252,-1.294837,-0.223791,0.754508,-0.082132,0.129773,0.104860,0.999971,-0.006474,-0.001119,0.003773,0.612701,0.077470,0.752649,-0.228288,-120.236251,73.269364,-145.481547
29540,-9.850461,5.498281,2.099279,6.289003,5.608638,-2.024421,-4.381141,0.211883,0.613307,-0.098652,0.055124,0.019891,0.999755,-0.021904,0.001059,0.003066,0.614183,0.066612,0.757854,-0.209758,-123.716206,73.509701,-146.493639
29541,-10.847456,2.189959,-0.946523,2.461121,4.028402,0.240831,-4.756252,0.505105,0.328864,-0.108534,0.021492,-0.009706,0.999713,-0.023779,0.002525,0.001644,0.614129,0.053852,0.763995,-0.190412,-127.608898,73.514446,-147.710801
29542,-11.136391,-1.654658,-2.942210,-0.579829,1.129077,1.754508,-4.868374,-0.684417,0.301803,-0.111237,-0.017430,-0.029386,0.999697,-0.024339,-0.003422,0.001509,0.618186,0.039423,0.766195,-0.170989,-129.723809,73.900915,-147.008243
29543,-8.334208,-5.158608,-5.667157,-4.780458,-1.968599,0.259603,-3.377235,-1.388319,0.949994,-0.082701,-0.052933,-0.056361,0.999822,-0.016885,-0.006941,0.004750,0.624979,0.031519,0.764395,-0.155270,-130.749726,74.850871,-146.063732
29544,-6.916129,-4.467924,-4.582592,-3.944877,-2.037861,-1.501363,-0.769399,-0.555090,1.485988,-0.068699,-0.045367,-0.045843,0.999961,-0.003847,-0.002775,0.007430,0.628380,0.034397,0.762974,-0.147738,-132.441615,75.705204,-147.357335
29545,-8.742544,-1.905822,-1.760939,-0.353368,-0.264420,-0.704043,0.059897,-0.438742,2.046756,-0.087185,-0.019946,-0.017807,0.999945,0.000299,-0.002194,0.010234,0.631617,0.042152,0.761088,-0.141517,-134.982027,76.746131,-150.007564
29546,-9.404589,1.085634,-1.914177,0.253211,2.540971,-0.497957,-0.484555,-0.748117,2.121686,-0.094081,0.009811,-0.019518,0.999934,-0.002423,-0.003741,0.010608,0.636054,0.048198,0.758551,-0.133092,-137.870314,77.901189,-152.683402
29547,-8.878902,1.426956,-1.389720,0.611492,2.506714,-1.086803,-1.081707,-0.801693,2.027903,-0.088870,0.013292,-0.014327,0.999926,-0.005408,-0.004008,0.010139,0.640751,0.051997,0.756105,-0.122636,-141.391879,79.022979,-155.643995
29548,-9.574841,3.066670,-2.773817,-0.340124,4.298399,-0.316498,-1.950177,-0.394271,2.125748,-0.096010,0.029374,-0.028218,0.999894,-0.009751,-0.001971,0.010628,0.644011,0.053573,0.755384,-0.108513,-147.135793,79.924403,-160.349581
29549,-11.299528,0.386619,-2.819830,-0.830415,1.568261,1.703579,-2.825766,-0.536259,1.745804,-0.112945,0.002478,-0.028543,0.999858,-0.014128,-0.002681,0.008729,0.647741,0.050856,0.754542,-0.092256,-152.984633,80.708426,-164.639128
29550,-9.938227,-3.283469,-3.558171,-2.552729,-2.189307,0.717951,-3.369034,-0.718884,1.429433,-0.099014,-0.034140,-0.035370,0.999826,-0.016844,-0.003594,0.007147,0.651882,0.045033,0.753252,-0.075054,-158.618530,81.425474,-168.388165
29551,-8.769136,-6.525128,-6.907232,-6.527246,-5.150844,0.088647,-2.731373,-0.875307,1.631295,-0.086849,-0.066901,-0.068547,0.999864,-0.013656,-0.004376,0.008156,0.656403,0.042025,0.750881,-0.059548,-165.364378,82.208012,-173.620838
29552,-7.407775,-6.562903,-6.431310,-6.266498,-5.536702,-1.483237,-0.410689,-0.550713,1.971150,-0.073248,-0.066486,-0.064380,0.999946,-0.002053,-0.002754,0.009856,0.659132,0.047947,0.748720,-0.051618,-173.608118,82.729847,178.301243
29553,-7.553615,-3.709025,-2.368594,-1.932301,-3.447174,-2.014989,0.680030,-0.310791,2.421028,-0.075043,-0.037920,-0.023931,0.999920,0.003400,-0.001554,0.012105,0.660778,0.059244,0.746813,-0.046174,175.645087,82.944274,167.079019
29554,-8.374266,-1.094061,-1.331788,-0.494635,-1.211825,-1.363878,0.302878,-0.198159,2.421393,-0.083589,-0.011933,-0.013418,0.999925,0.001514,-0.000991,0.012107,0.661961,0.069272,0.745293,-0.039330,164.648966,82.820355,155.823043
29555,-8.213782,-0.534824,-0.871549,-0.033450,-0.905314,-1.585399,-0.587832,-0.426997,2.152237,-0.082055,-0.006257,-0.008873,0.999936,-0.002939,-0.002135,0.010761,0.664206,0.075331,0.743135,-0.030084,154.459637,82.623040,145.892345
29556,-6.760476,-1.803060,-0.605991,-0.161281,-2.247745,-3.161215,-1.330839,-0.294831,1.997007,-0.067411,-0.018745,-0.006036,0.999927,-0.006654,-0.001474,0.009985,0.666077,0.078318,0.741527,-0.018586,145.570168,82.196388,137.693752
29557,-7.124295,-2.026653,-3.017666,-2.542796,-2.364605,-2.607997,-1.894939,-0.024894,2.339197,-0.070993,-0.021383,-0.029986,0.999887,-0.009474,-0.000124,0.011696,0.667121,0.080738,0.740552,-0.003702,137.060712,81.368285,130.195102
29558,-10.075561,-3.116314,-5.121632,-4.474298,-3.807310,0.333009,-1.478131,-0.083114,2.455173,-0.100339,-0.032774,-0.051020,0.999897,-0.007390,-0.000416,0.012275,0.668023,0.084926,0.739212,0.009957,129.929877,80.377178,123.830907
29559,-10.244870,-2.944008,-3.452250,-2.814293,-4.100758,0.227256,-0.452117,-0.197194,2.286097,-0.102069,-0.030686,-0.034555,0.999932,-0.002261,-0.000986,0.011430,0.668845,0.091933,0.737445,0.019249,124.633664,79.399184,118.716288
29560,-9.987477,-1.199000,-2.848947,-2.094924,-2.640932,0.083524,-0.605390,-0.276944,2.382777,-0.099682,-0.013265,-0.028589,0.999923,-0.003027,-0.001385,0.011914,0.669883,0.098751,0.735285,0.029350,119.873892,78.325391,114.218843
29561,-10.311706,-1.727985,-1.904429,-1.228627,-3.527156,0.136670,-0.682505,-0.128004,1.965880,-0.102928,-0.018357,-0.019049,0.999946,-0.003412,-0.000640,0.009829,0.670421,0.103765,0.733683,0.038443,116.645679,77.362757,111.318527
29562,-10.608380,-0.602032,-2.544722,-1.740303,-2.642115,0.644969,-0.825690,0.160930,1.796321,-0.106044,-0.007078,-0.025334,0.999951,-0.004128,0.000805,0.008981,0.669899,0.107589,0.733071,0.047605,114.597093,76.391037,109.700725
29563,-11.902521,-1.690794,-1.304357,-0.505501,-4.267867,1.490288,-0.738434,0.128177,1.388870,-0.118912,-0.017782,-0.012903,0.999969,-0.003692,0.000641,0.006944,0.669527,0.110226,0.732494,0.055090,113.103277,75.628233,108.599140
29564,-10.307280,-1.525585,-0.240156,0.448657,-3.938637,-0.173707,-1.244860,0.012045,1.009459,-0.102994,-0.015790,-0.002298,0.999968,-0.006224,0.000060,0.005047,0.669888,0.109788,0.731588,0.063063,111.553784,75.086543,107.734715
29565,-9.813617,-1.279957,-1.910924,-1.215250,-3.601803,-0.477501,-2.400752,0.056737,0.837336,-0.098086,-0.013438,-0.018923,0.999919,-0.012003,0.000284,0.004187,0.670732,0.104831,0.730442,0.074728,109.624711,74.621128,107.163151
29566,-10.539349,-2.485070,-2.935066,-2.203782,-5.039274,-0.034365,-2.241741,0.007655,0.540674,-0.105326,-0.025462,-0.029064,0.999934,-0.011208,0.000038,0.002703,0.671649,0.099317,0.729274,0.084757,107.978376,74.322110,106.787402
29567,-10.050168,-2.257982,-1.546197,-0.812602,-4.791207,-0.599720,-1.388834,-0.000963,0.318932,-0.100465,-0.022847,-0.015304,0.999975,-0.006944,-0.000005,0.001595,0.672239,0.095857,0.728449,0.090935,106.949052,74.143549,106.546438
29568,-9.523955,-2.086317,-0.521209,0.210389,-4.515198,-1.158289,-2.160766,0.057225,0.004326,-0.095241,-0.020920,-0.004959,0.999942,-0.010804,0.000286,0.000022,0.673041,0.088618,0.727590,0.098872,105.802778,74.127368,106.641694
29569,-9.491005,-5.423888,-2.160476,-1.295124,-7.782716,-1.944116,-3.494461,-0.048338,-0.598482,-0.095067,-0.054321,-0.020679,0.999843,-0.017471,-0.000242,-0.002992,0.675003,0.074727,0.725797,0.109572,103.983484,74.462195,106.833311
29570,-8.752028,-8.095154,-7.744349,-6.585846,-10.582815,-2.976947,-3.011861,0.061540,-0.835627,-0.087884,-0.081739,-0.076189,0.999878,-0.015059,0.000308,-0.004178,0.676296,0.061527,0.724555,0.117721,102.771470,74.915014,107.365745
29571,-8.476228,-8.961424,-8.557743,-7.202205,-11.490167,-3.371250,-0.216402,0.265531,-0.598420,-0.085144,-0.089452,-0.085368,0.999994,-0.001082,0.001328,-0.002992,0.675791,0.058496,0.725460,0.116588,103.463894,75.212351,108.211844
29572,-8.086597,-5.068523,-3.847072,-2.828487,-7.171994,-2.997671,1.431878,0.494795,-0.253294,-0.081025,-0.050306,-0.038631,0.999971,0.007159,0.002474,-0.001266,0.673720,0.062166,0.727997,0.110711,105.446995,75.277404,109.414054
29573,-8.871398,-1.760514,-3.446383,-2.554753,-4.073059,-1.412589,0.711254,0.626393,-0.306027,-0.088848,-0.017347,-0.034248,0.999988,0.003556,0.003132,-0.001530,0.671417,0.063115,0.730550,0.107296,107.331927,75.344208,110.941981
29574,-9.293499,-0.012485,-6.927857,-6.016880,-2.686969,-0.276382,-0.020019,0.675949,-0.532508,-0.093168,0.000116,-0.068964,0.999991,-0.000100,0.003380,-0.002663,0.669249,0.060779,0.732948,0.105825,109.083709,75.508636,112.763710
29575,-11.675541,2.441065,-10.622015,-9.463510,-1.061340,3.009734,1.408191,1.223261,0.280235,-0.117436,0.024990,-0.105329,0.999956,0.007041,0.006116,0.001401,0.664192,0.065881,0.737638,0.101975,112.157002,75.112009,115.106886
29576,-19.206908,1.976383,-6.112509,-3.921001,-2.867860,9.848633,5.891020,0.754418,1.129029,-0.192411,0.020453,-0.059804,0.999543,0.029451,0.003772,0.005644,0.658606,0.089231,0.742415,0.084233,115.991958,74.341286,115.583170
29577,-17.526330,5.979009,4.682100,6.978942,1.312837,7.918157,9.312082,-1.253893,0.365705,-0.175670,0.057239,0.048426,0.998895,0.046543,-0.006267,0.001828,0.658250,0.121683,0.741200,0.050231,118.680348,74.485964,112.834706
29578,-5.662548,16.933909,19.296052,21.804138,12.956184,-2.897386,3.425406,-1.337970,-0.717384,-0.057328,0.166211,0.195443,0.999825,0.017126,-0.006689,-0.003587,0.661207,0.130651,0.737938,0.034382,118.871708,75.211884,110.999546
29579,-3.440560,11.333825,6.631966,8.243751,9.547883,-4.801947,-5.521096,1.258654,-1.331851,-0.033237,0.115339,0.063365,0.999577,-0.027602,0.006292,-0.006658,0.660166,0.107234,0.741662,0.051170,119.515340,75.527299,114.934880
29580,-8.470270,4.353358,-4.664859,-3.374842,2.541707,-0.086144,-5.704925,1.915882,-1.344714,-0.084863,0.042765,-0.047063,0.999525,-0.028520,0.009578,-0.006723,0.656170,0.082918,0.746871,0.068916,121.424599,75.631544,120.281046
29581,-14.948017,-3.036792,-2.824208,-0.926026,-6.115385,4.413401,-2.779418,0.809079,-1.109869,-0.149759,-0.029920,-0.027219,0.999880,-0.013897,0.004045,-0.005549,0.654652,0.069392,0.748892,0.076004,122.680119,75.925152,123.219963
29582,-11.666171,-2.204496,-0.576675,1.018576,-4.483434,1.148661,-1.845508,0.408392,-1.186958,-0.116801,-0.021403,-0.005329,0.999938,-0.009227,0.002042,-0.005935,0.654191,0.058787,0.749871,0.079196,123.905641,76.362265,125.571158
29583,-8.548754,-4.261409,-2.900690,-1.555182,-5.926990,-1.932040,-3.339644,0.125197,-1.472440,-0.085818,-0.042459,-0.028243,0.999833,-0.016697,0.000626,-0.007362,0.655223,0.042303,0.749223,0.086940,124.208554,77.023009,127.849305
29584,-6.529038,-9.284568,-9.345810,-7.726464,-11.061939,-3.973129,-3.034405,-0.119392,-1.364607,-0.065873,-0.093802,-0.092079,0.999861,-0.015171,-0.000597,-0.006823,0.656831,0.027337,0.747677,0.093829,124.150701,77.705410,129.571617
29585,-5.312934,-11.026248,-11.357573,-9.652776,-12.790543,-5.120192,1.551281,0.602981,-0.496288,-0.053745,-0.109245,-0.114264,0.999962,0.007756,0.003015,-0.002481,0.654612,0.030303,0.750390,0.086483,127.066219,77.738269,131.645817
29586,-8.215674,-1.861271,-4.350880,-2.977661,-3.479795,-1.511186,4.261239,1.764376,1.062954,-0.082441,-0.018128,-0.043172,0.999720,0.021304,0.008821,0.005314,0.646721,0.047506,0.757616,0.074249,131.236531,76.625294,133.418497
29587,-14.832873,6.362448,-1.753267,0.708968,3.619772,5.996921,3.979663,1.370224,1.337255,-0.148861,0.062949,-0.015257,0.999756,0.019897,0.006851,0.006686,0.639965,0.064921,0.762994,0.063797,133.751518,75.533875,133.659730
29588,-14.587824,8.080022,1.901366,4.521116,5.352703,5.439019,1.805487,-1.098877,-0.438402,-0.145805,0.080949,0.018943,0.999942,0.009027,-0.005494,-0.002192,0.643692,0.069413,0.760131,0.055175,133.644675,76.148591,132.482539
29589,-5.927336,4.956019,3.885646,4.936884,3.863092,-3.854819,-0.755107,-0.109345,-1.137987,-0.059011,0.050043,0.038636,0.999977,-0.003776,-0.000547,-0.005690,0.644706,0.062693,0.759915,0.054341,134.890666,76.662893,134.209244
29590,-7.920290,2.579974,1.569957,2.900582,1.289536,-1.952997,-3.468403,1.515165,-0.557298,-0.079010,0.026294,0.015845,0.999817,-0.017341,0.007575,-0.002786,0.640088,0.049013,0.763872,0.066217,136.347500,76.263931,137.751566
29591,-12.098468,1.737180,-2.962730,-0.769202,-0.369666,2.734789,-5.423070,1.365633,-0.678668,-0.121127,0.016986,-0.029265,0.999603,-0.027112,0.006827,-0.003393,0.636214,0.028606,0.766275,0.085064,136.542126,75.968569,141.152580
29592,-12.196630,-1.739089,-9.881861,-7.216987,-4.629127,3.450519,-4.629653,-0.027003,-1.462611,-0.122087,-0.018780,-0.098411,0.999705,-0.023146,-0.000135,-0.007312,0.637431,0.008322,0.764185,0.098149,136.303239,76.555948,143.637235
29593,-7.271622,-4.042055,-9.703516,-7.638756,-6.266334,-1.703838,-0.274495,0.199181,-1.943251,-0.073202,-0.039844,-0.096907,0.999951,-0.001372,0.000996,-0.009716,0.637636,-0.000067,0.764702,0.093007,140.019955,77.217372,147.614286
29594,-5.212500,-1.458008,-3.826528,-2.589426,-2.553243,-4.270721,1.890763,0.454579,-0.306097,-0.052234,-0.014138,-0.038282,0.999952,0.009454,0.002273,-0.001530,0.636028,0.004621,0.766976,0.084828,142.391715,77.123201,148.935575
29595,-7.467789,0.551438,-3.062234,-1.594012,-0.714108,-1.913443,2.101298,0.452648,1.420287,-0.074785,0.005304,-0.030397,0.999917,0.010506,0.002263,0.007101,0.633614,0.016563,0.769189,0.081282,141.540576,76.420655,146.823567
29596,-12.139049,3.049605,-3.645724,-1.355997,1.044521,3.110811,2.705078,0.197198,1.249571,-0.121615,0.030225,-0.035927,0.999889,0.013525,0.000986,0.006248,0.632071,0.029897,0.770705,0.074875,141.083719,75.883833,144.756627
29597,-12.305641,4.224440,-0.649402,1.642140,2.423887,2.880766,3.017856,-0.454357,-0.361025,-0.122966,0.042561,-0.006133,0.999882,0.015089,-0.002272,-0.001805,0.633456,0.038216,0.770342,0.062020,142.814527,76.219436,144.757401
29598,-8.018467,4.205339,2.843004,4.272227,3.208708,-1.969507,1.224569,-0.405312,-0.793924,-0.080075,0.042197,0.028526,0.999971,0.006123,-0.002027,-0.003970,0.635030,0.039202,0.769547,0.054739,144.437340,76.675427,145.704829
29599,-7.647508,2.746369,1.868845,3.260021,1.818614,-2.357207,-1.498745,0.449331,-0.273872,-0.076395,0.027708,0.018653,0.999968,-0.007494,0.002247,-0.001369,0.633680,0.033275,0.770568,0.059719,144.731203,76.559993,146.888858
29600,-9.886919,1.980147,-1.217705,0.704738,0.652237,0.298332,-2.830604,1.023908,-0.460769,-0.098885,0.019859,-0.011952,0.999884,-0.014152,0.005119,-0.002304,0.630290,0.022263,0.772935,0.069358,145.365345,76.229725,149.209808
29601,-10.424891,0.985241,-4.236569,-2.053809,-0.647421,1.276053,-2.813894,0.385686,-0.801734,-0.104292,0.009675,-0.042302,0.999891,-0.014069,0.001928,-0.004009,0.629353,0.010172,0.773154,0.077739,145.802732,76.310562,151.319051
29602,-8.257014,-0.262468,-6.586294,-4.683789,-1.891634,-0.533128,-0.767764,0.004701,-0.927890,-0.082583,-0.002494,-0.065851,0.999982,-0.003839,0.000024,-0.004639,0.629741,0.004208,0.772886,0.077817,147.182248,76.601399,153.190367
29603,-6.793406,0.840588,-4.113444,-2.669577,-0.318872,-2.292804,1.350886,0.181797,-0.138272,-0.067965,0.008730,-0.041014,0.999977,0.006754,0.000909,-0.000691,0.629075,0.007868,0.773948,0.072160,148.459922,76.558431,153.707312
29604,-9.593502,1.863314,-2.511547,-0.569947,0.595575,0.243918,1.998231,0.116991,0.652357,-0.096010,0.018569,-0.024874,0.999945,0.009991,0.000585,0.003262,0.628292,0.016676,0.774950,0.066510,148.403605,76.305409,152.471479
29605,-11.785787,2.988945,-1.274560,1.081588,1.581585,2.261731,1.777445,-0.022178,-0.013663,-0.117854,0.030009,-0.012492,0.999961,0.008887,-0.000111,-0.000068,0.628234,0.022225,0.775422,0.059573,149.413067,76.323173,152.461363
29606,-9.426753,2.178730,0.502341,2.378536,1.199872,-0.497899,0.620689,-0.087600,-0.799245,-0.094182,0.022148,0.005051,0.999987,0.003103,-0.000438,-0.003996,0.628754,0.021143,0.775392,0.054675,151.290955,76.593340,154.027011
29607,-7.430833,1.851414,-0.511630,0.984997,1.072783,-2.277066,-0.653316,0.283537,-0.509279,-0.074268,0.018687,-0.005072,0.999990,-0.003267,0.001418,-0.002546,0.627884,0.017050,0.776128,0.055636,152.306249,76.591241,155.454763
29608,-10.037623,1.679477,-2.186792,-0.074246,0.559560,0.581439,-1.063895,0.504436,-0.225010,-0.100412,0.016792,-0.021704,0.999982,-0.005319,0.002522,-0.001125,0.626088,0.012737,0.777403,0.059131,152.701106,76.394625,156.487629
29609,-10.874919,1.149453,-3.167316,-0.800701,-0.099452,1.543626,-0.668676,0.171167,-0.554091,-0.108744,0.011690,-0.031619,0.999990,-0.003343,0.000856,-0.002770,0.625651,0.008454,0.777746,0.060007,153.662949,76.453498,157.870471
29610,-9.079950,0.485668,-2.395589,-0.391885,-0.487352,-0.430319,-0.141750,0.094291,-0.694468,-0.090793,0.005155,-0.023917,0.999994,-0.000709,0.000471,-0.003472,0.625513,0.005323,0.778005,0.058419,155.148455,76.577137,159.481474
29611,-8.928283,-0.141410,-1.699607,0.299020,-0.990362,-0.782043,-0.074307,0.117744,-0.435096,-0.089296,-0.001226,-0.016943,0.999997,-0.000372,0.000589,-0.002175,0.625209,0.003378,0.778340,0.057351,156.165126,76.621568,160.569546
29612,-9.508368,0.254315,-2.110299,0.010431,-0.639552,-0.090660,0.114416,0.173684,-0.367753,-0.095097,0.002730,-0.021019,0.999998,0.000572,0.000868,-0.001839,0.624655,0.002296,0.778902,0.055789,157.182330,76.614339,161.547624
29613,-9.572788,0.892010,-2.051485,0.052804,0.034694,0.017795,0.159796,0.156395,-0.399157,-0.095726,0.009127,-0.020433,0.999997,0.000799,0.000782,-0.001996,0.624180,0.001211,0.779416,0.053922,158.296360,76.621335,162.597777
29614,-9.761771,1.174399,-1.645124,0.486984,0.377394,0.137089,0.262777,0.196321,-0.372193,-0.097612,0.011947,-0.016340,0.999997,0.001314,0.000982,-0.001861,0.623532,0.000569,0.780082,0.051768,159.425584,76.594292,163.603667
29615,-10.300248,1.670945,-1.184035,1.042463,0.919013,0.596806,0.116846,0.222947,-0.454024,-0.102977,0.016950,-0.011716,0.999997,0.000584,0.001115,-0.002270,0.622804,-0.000881,0.780784,0.049898,160.690301,76.566351,164.834203
29616,-9.637554,1.101040,-0.858931,1.255890,0.472364,-0.167388,-0.521090,0.119405,-0.672290,-0.096343,0.011312,-0.008561,0.999991,-0.002605,0.000597,-0.003361,0.622518,-0.005117,0.780999,0.049868,161.988169,76.626034,166.475203
29617,-8.789205,0.288544,-1.539916,0.466719,-0.294241,-0.902013,-1.041353,0.235784,-0.696471,-0.087900,0.003112,-0.015311,0.999980,-0.005207,0.001179,-0.003482,0.621760,-0.011121,0.781417,0.051762,163.152659,76.620321,168.284641
29618,-9.443043,-0.845379,-2.050961,0.234014,-1.454424,-0.225103,-0.827161,0.285977,-0.665043,-0.094487,-0.008224,-0.020340,0.999985,-0.004136,0.001430,-0.003325,0.620779,-0.016324,0.782026,0.052940,164.379504,76.571037,170.032910
29619,-9.307164,-0.767130,-2.618600,-0.327938,-1.383604,-0.218588,-0.414632,0.234779,-0.570403,-0.093124,-0.007460,-0.026061,0.999993,-0.002073,0.001174,-0.002852,0.620002,-0.019888,0.782571,0.052773,165.598922,76.529515,171.530112
29620,-9.413768,-0.908145,-2.359405,-0.021792,-1.458063,-0.175054,-0.006893,0.157026,-0.422675,-0.094175,-0.008883,-0.023520,0.999997,-0.000034,0.000785,-0.002113,0.619517,-0.021564,0.782995,0.051504,166.639252,76.502049,172.603864
29621,-9.432207,-0.552800,-1.647087,0.649338,-0.989552,-0.295124,-0.027820,0.170847,-0.399222,-0.094347,-0.005342,-0.016390,0.999998,-0.000139,0.000854,-0.001996,0.618974,-0.023243,0.783451,0.050358,167.634572,76.461345,173.642996
29622,-9.615921,-0.941489,-2.059190,0.347496,-1.389283,-0.038148,-0.453409,0.177693,-0.438781,-0.096198,-0.009250,-0.020485,0.999995,-0.002267,0.000888,-0.002194,0.618352,-0.026369,0.783815,0.050786,168.456080,76.415805,174.755170
29623,-9.639374,-1.615152,-2.907622,-0.376046,-2.116012,0.155331,-0.441805,0.195246,-0.543738,-0.096466,-0.015953,-0.028947,0.999993,-0.002209,0.000976,-0.002719,0.617691,-0.029903,0.784208,0.050809,169.548998,76.369349,176.139101
29624,-9.331980,-1.850745,-3.831523,-1.296092,-2.409754,0.071881,-0.164577,0.138729,-0.547799,-0.093397,-0.018283,-0.038235,0.999996,-0.000823,0.000694,-0.002739,0.617279,-0.032553,0.784493,0.049772,170.759604,76.346921,177.481752
29625,-8.916804,-1.728915,-4.098130,-1.661731,-2.268549,-0.253120,0.578355,0.082975,-0.291168,-0.089210,-0.017041,-0.040994,0.999995,0.002892,0.000415,-0.001456,0.617143,-0.031920,0.784821,0.046587,171.795969,76.329031,178.206159
29626,-9.226040,-0.447513,-3.358235,-1.015447,-0.869729,-0.075639,1.193280,0.098804,-0.020889,-0.092277,-0.004265,-0.033563,0.999982,0.005966,0.000494,-0.000104,0.616960,-0.028301,0.785371,0.041854,172.535105,76.277015,178.263090
29627,-9.769105,0.630778,-2.713651,-0.365826,0.302082,0.334825,1.202986,-0.005310,-0.007635,-0.097690,0.006475,-0.027100,0.999982,0.006015,-0.000027,-0.000038,0.617167,-0.024610,0.785572,0.037101,173.239022,76.284230,178.276986
29628,-9.591361,0.966367,-2.002080,0.256938,0.739319,0.001772,0.935434,0.017441,-0.269687,-0.095902,0.009886,-0.019967,0.999988,0.004677,0.000087,-0.001348,0.617277,-0.022745,0.785740,0.032622,174.384491,76.293560,178.904239
29629,-9.246823,0.528947,-1.985717,0.228370,0.348856,-0.349464,0.296090,0.050519,-0.368328,-0.092463,0.005489,-0.019826,0.999997,0.001480,0.000253,-0.001842,0.617196,-0.023276,0.785880,0.030312,175.424505,76.287211,179.798972
29630,-9.528474,-0.258671,-3.420205,-1.032165,-0.503554,0.248993,0.101833,0.093776,-0.451224,-0.095306,-0.002354,-0.034159,0.999997,0.000509,0.000469,-0.002256,0.616927,-0.024708,0.786114,0.028538,176.529798,76.254583,-179.123419
29631,-9.346685,-0.743909,-4.118002,-1.716847,-0.979961,0.235372,0.753949,0.021290,-0.469514,-0.093488,-0.007064,-0.041197,0.999990,0.003770,0.000106,-0.002348,0.617023,-0.024221,0.786202,0.024119,178.061438,76.258789,-177.992515
29632,-8.726890,0.140052,-3.478809,-1.313518,0.014576,-0.509231,1.698889,-0.071339,-0.201862,-0.087255,0.001784,-0.034805,0.999963,0.008494,-0.000357,-0.001009,0.617532,-0.019723,0.786117,0.016857,179.481408,76.305253,-177.532953
29633,-9.091169,1.669664,-2.636136,-0.482631,1.656709,-0.357086,2.213367,-0.111398,-0.002961,-0.090897,0.016989,-0.026225,0.999939,0.011067,-0.000557,-0.000015,0.618175,-0.012881,0.785892,0.008153,-179.243540,76.372641,-177.527045
29634,-9.470016,2.781789,-1.892032,0.329042,2.850755,-0.181291,2.368581,-0.181261,-0.115988,-0.094667,0.028095,-0.018674,0.999929,0.011843,-0.000906,-0.000580,0.619023,-0.005967,0.785349,-0.001471,-177.622683,76.478034,-177.255835
29635,-9.763105,2.765717,-0.452811,1.837722,2.898851,-0.252797,2.045025,-0.151514,-0.430741,-0.097568,0.027912,-0.004318,0.999945,0.010225,-0.000758,-0.002154,0.619668,-0.001318,0.784788,-0.010832,-175.403671,76.553505,-176.179909
29636,-9.646376,1.924382,0.817500,3.065033,2.088807,-0.665762,1.059808,0.023439,-0.677404,-0.096397,0.019527,0.008289,0.999980,0.005299,0.000117,-0.003387,0.619557,-0.000652,0.784766,-0.017059,-173.211851,76.505433,-174.550625
29637,-9.736260,0.970488,0.096125,2.384575,1.221289,-0.401652,-0.372535,0.253504,-0.772185,-0.097323,0.010083,0.001066,0.999990,-0.001863,0.001268,-0.003861,0.618519,-0.004799,0.785550,-0.017988,-171.693290,76.307808,-172.769646
29638,-11.237044,1.194105,-2.715388,0.034715,1.612032,1.696884,-1.406586,0.460050,-0.760616,-0.112387,0.012178,-0.026980,0.999965,-0.007033,0.002300,-0.003803,0.616611,-0.012056,0.787036,-0.014796,-170.934449,75.985464,-171.158147
29639,-11.608620,-0.129482,-6.213566,-3.264623,0.399406,2.937499,-0.811617,-0.152477,-1.186401,-0.116045,-0.000859,-0.062220,0.999974,-0.004058,-0.000762,-0.005932,0.617090,-0.019221,0.786510,-0.015246,-168.663073,75.955777,-168.338546
29640,-6.047727,0.578646,-5.848011,-4.256239,0.950331,-2.595455,0.759133,-0.194152,-1.743171,-0.060366,0.006535,-0.058515,0.999954,0.003796,-0.000971,-0.008716,0.617788,-0.023708,0.785634,-0.023560,-164.278054,75.834687,-164.265933
29641,-6.140784,1.277626,-3.469453,-1.923740,1.751476,-3.133648,1.642091,0.076258,-0.451133,-0.061392,0.013199,-0.034564,0.999964,0.008210,0.000381,-0.002256,0.617634,-0.020380,0.785574,-0.031406,-162.412104,75.722893,-163.312470
29642,-11.472911,3.787700,-3.966675,-1.069843,4.701338,1.954252,2.481856,0.002751,0.565749,-0.114837,0.038041,-0.039194,0.999919,0.012409,0.000014,0.002829,0.617939,-0.010453,0.785170,-0.039374,-162.227592,75.824661,-164.589237
29643,-14.175906,6.284325,-2.865573,0.801412,7.421101,4.077643,2.940749,-0.730925,-0.808346,-0.141399,0.063833,-0.028239,0.999877,0.014703,-0.003654,-0.004042,0.620752,-0.004662,0.782175,-0.053363,-158.240442,76.066459,-162.216739
29644,-9.339890,6.318647,0.928176,3.425916,6.977337,-1.590988,1.805100,-0.816659,-2.047654,-0.092784,0.064054,0.009478,0.999899,0.009025,-0.004083,-0.010238,0.623403,-0.007247,0.779015,-0.066723,-152.147550,76.004251,-157.004413
29645,-7.954612,5.537640,0.962560,3.080245,6.211847,-2.972322,-0.585821,-0.093481,-1.610869,-0.079101,0.056043,0.009425,0.999963,-0.002929,-0.000467,-0.008054,0.623215,-0.015349,0.778810,-0.069436,-149.204331,75.604259,-153.622781
29646,-11.354395,4.211097,-1.676094,1.152102,5.651481,0.966721,-2.023266,0.616091,-1.770521,-0.113218,0.042944,-0.016843,0.999905,-0.010116,0.003080,-0.008852,0.620013,-0.028295,0.781206,-0.067084,-147.801007,74.778816,-150.972366
29647,-12.912842,1.797772,-3.306975,-0.183701,3.760877,3.099614,-2.525262,0.329395,-2.345866,-0.128963,0.019073,-0.033093,0.999850,-0.012626,0.001647,-0.011729,0.617522,-0.045136,0.782604,-0.064501,-145.617929,73.889383,-147.202797
29648,-11.893367,-1.395374,-5.684395,-2.748184,0.770053,3.131904,-1.888842,0.005373,-2.625037,-0.119109,-0.012927,-0.056715,0.999869,-0.009444,0.000027,-0.013125,0.616173,-0.061193,0.782520,-0.065177,-142.613583,73.010690,-142.939959
29649,-10.774402,-3.689739,-6.218043,-3.462655,-1.441931,2.608719,-0.051670,0.092480,-2.262441,-0.108181,-0.035691,-0.062121,0.999936,-0.000258,0.000462,-0.011312,0.615050,-0.070132,0.782062,-0.071937,-139.539775,72.161419,-139.687847
29650,-10.621458,-3.668387,-3.596167,-0.961272,-1.294923,1.874931,1.907504,0.111835,-1.168614,-0.106445,-0.035718,-0.036246,0.999937,0.009537,0.000559,-0.005843,0.614848,-0.068753,0.781247,-0.082993,-137.052644,71.674314,-138.221367
29651,-11.168098,-0.517565,-2.479738,0.207224,1.989643,1.463000,2.972295,0.064784,-0.133585,-0.111692,-0.004732,-0.024834,0.999889,0.014861,0.000324,-0.000668,0.615521,-0.060067,0.780065,-0.094996,-135.265339,71.600887,-138.132746
29652,-11.884483,2.217094,-1.383853,1.520766,4.793663,1.267887,3.864238,-0.371554,-0.046439,-0.118814,0.022463,-0.013627,0.999812,0.019320,-0.001858,-0.000232,0.618020,-0.048485,0.776911,-0.110049,-132.537448,71.735685,-137.591565
29653,-11.018920,4.177762,1.673047,4.462275,6.187968,-0.676710,4.008732,-0.851928,-0.479932,-0.110161,0.041702,0.017098,0.999787,0.020042,-0.004259,-0.002399,0.621936,-0.038381,0.771774,-0.126838,-128.573410,71.851222,-135.836633
29654,-8.964868,4.480255,5.684335,7.965525,5.392134,-3.470136,2.102153,-0.822053,-0.503228,-0.089770,0.044430,0.056943,0.999933,0.010511,-0.004110,-0.002516,0.625179,-0.034270,0.767721,-0.136317,-125.691866,71.912191,-134.072195
29655,-7.936056,2.113895,5.462850,7.260404,2.911483,-3.804204,-0.451187,0.161801,-0.273880,-0.079287,0.021371,0.054645,0.999996,-0.002256,0.000809,-0.001369,0.624331,-0.036575,0.768461,-0.135427,-125.901722,71.739535,-134.021101
29656,-8.958923,0.030020,2.497285,4.410213,1.664682,-1.795349,-1.734972,0.784085,-0.229234,-0.089490,0.000621,0.025319,0.999954,-0.008675,0.003920,-0.001146,0.620846,-0.042304,0.771990,-0.129582,-127.740413,71.371656,-134.911584
29657,-9.448854,-0.421617,-0.040192,2.075652,1.733984,-0.749300,-2.068195,0.439963,-0.016457,-0.094489,-0.004211,-0.000150,0.999944,-0.010341,0.002200,-0.000082,0.618713,-0.048451,0.774621,-0.121692,-129.491108,71.216882,-135.509052
29658,-9.141699,-1.029237,-2.813040,-0.716700,1.396738,-0.321732,-1.192936,-0.256519,0.385928,-0.091361,-0.010637,-0.028185,0.999980,-0.005965,-0.001283,0.001930,0.619668,-0.050766,0.774616,-0.115781,-130.263826,71.487261,-135.603342
29659,-7.742139,-1.316038,-2.672159,-0.945012,0.748408,-1.605386,0.968121,-0.279484,0.566890,-0.077346,-0.013250,-0.026894,0.999983,0.004841,-0.001397,0.002834,0.621362,-0.045681,0.773292,-0.117655,-129.973679,71.848989,-135.882199
29660,-8.153306,0.073562,-0.865274,0.982429,1.905585,-1.898558,1.764096,-0.071243,1.262165,-0.081533,0.000298,-0.008678,0.999941,0.008820,-0.000356,0.006311,0.622774,-0.035324,0.772260,-0.120500,-130.316829,72.434591,-137.304757
29661,-11.306321,0.285825,-0.183934,2.346952,2.536658,0.957796,1.348972,-0.057383,1.486516,-0.113080,0.002030,-0.001856,0.999950,0.006745,-0.000287,0.007432,0.624145,-0.025364,0.771463,-0.121015,-131.262255,73.111281,-139.103829
29662,-11.678162,-0.155712,0.144929,2.674302,1.995731,1.380564,0.615801,-0.112563,0.928043,-0.116773,-0.002103,0.001378,0.999984,0.003079,-0.000563,0.004640,0.625237,-0.019894,0.770828,-0.120447,-131.931993,73.558178,-140.171353
29663,-10.219026,-0.955193,-0.703096,1.415738,0.996336,0.328200,-0.077166,-0.071439,0.837726,-0.102147,-0.009983,-0.007064,0.999991,-0.000386,-0.000357,0.004189,0.626054,-0.016895,0.770695,-0.117472,-132.990315,73.950794,-141.227628
29664,-9.491172,-1.223525,-2.426783,-0.468497,0.797363,0.016485,0.146325,-0.141123,1.006908,-0.094831,-0.012695,-0.024344,0.999987,0.000732,-0.000706,0.005035,0.627221,-0.012603,0.770225,-0.114840,-134.108822,74.431036,-142.477356
29665,-8.508659,-1.249158,-2.204106,-0.504807,0.497529,-0.963232,1.245034,-0.237196,1.133719,-0.084988,-0.012836,-0.022221,0.999964,0.006225,-0.001186,0.005669,0.628891,-0.004412,0.768777,-0.116008,-134.711580,75.001127,-143.841643
29666,-8.235787,-0.418683,-0.789157,0.877496,0.935333,-1.628534,1.804060,-0.221553,1.494557,-0.082315,-0.004730,-0.008024,0.999931,0.009020,-0.001108,0.007473,0.630633,0.006912,0.766996,-0.118199,-135.666485,75.701111,-145.897110
29667,-9.328787,0.847133,-0.134869,1.898229,2.066968,-0.874877,1.604495,-0.205745,1.674319,-0.093353,0.007701,-0.001381,0.999932,0.008022,-0.001029,0.008371,0.632363,0.018327,0.765255,-0.119019,-137.236361,76.458542,-148.461403
29668,-9.943919,1.449512,0.749697,2.939749,2.399647,-0.477697,1.121376,-0.454296,1.495850,-0.099560,0.013709,0.007349,0.999954,0.005607,-0.002271,0.007479,0.634887,0.027360,0.762960,-0.118586,-138.577347,77.232558,-150.498424
29669,-9.577105,2.505592,1.159064,3.414924,3.163592,-0.999592,0.047232,-0.328810,1.387317,-0.095961,0.024388,0.011439,0.999975,0.000236,-0.001644,0.006937,0.636992,0.032666,0.761642,-0.114349,-140.762589,77.901984,-152.763564
29670,-10.360861,2.291037,0.671495,2.989923,3.021376,-0.067062,-1.518571,-0.185027,1.305869,-0.103762,0.022283,0.006448,0.999949,-0.007593,-0.000925,0.006529,0.638686,0.032730,0.761649,-0.104401,-144.170385,78.448058,-155.356373
29671,-10.021776,1.156202,-0.411917,1.610069,1.995066,-0.047002,-2.618807,-0.072359,1.042807,-0.100274,0.010984,-0.004302,0.999901,-0.013094,-0.000362,0.005214,0.639926,0.028360,0.762497,-0.091040,-148.049310,78.827273,-157.781977
29672,-9.781342,0.020293,-1.616661,0.176831,0.947830,0.054289,-3.812325,-0.009756,0.866665,-0.097811,-0.000529,-0.016166,0.999809,-0.019060,-0.000049,0.004333,0.640802,0.019493,0.763913,-0.073688,-152.445159,79.084228,-160.035353
29673,-10.094552,-2.559275,-4.015917,-2.404806,-1.440954,0.990695,-4.304887,-0.060779,0.464828,-0.100872,-0.026684,-0.039623,0.999766,-0.021523,-0.000304,0.002324,0.641530,0.007513,0.765037,-0.055685,-156.119910,79.242289,-161.265071
29674,-9.095553,-5.190208,-6.740636,-5.363986,-4.090622,0.655919,-3.343201,-0.151649,-0.027639,-0.090912,-0.053007,-0.066595,0.999860,-0.016715,-0.000758,-0.000138,0.642162,-0.003323,0.765357,-0.042953,-157.799689,79.321261,-161.025279
29675,-7.024984,-6.814366,-7.715941,-6.673009,-5.980135,-1.150856,-1.723993,-0.645077,0.496109,-0.069831,-0.068980,-0.076793,0.999955,-0.008620,-0.003225,0.002481,0.644728,-0.007038,0.763592,-0.034693,-159.529920,79.778791,-161.779883
29676,-5.672910,-5.706714,-6.011516,-5.193993,-5.160898,-2.937223,0.127214,-0.635222,1.716047,-0.056046,-0.057512,-0.060330,0.999958,0.000636,-0.003176,0.008580,0.647451,-0.000148,0.761532,-0.029592,-164.191721,80.436191,-166.585998
29677,-6.633875,-3.301536,-3.001716,-2.047930,-2.971760,-2.678889,0.904056,-0.286600,2.398886,-0.065894,-0.033671,-0.030263,0.999917,0.004520,-0.001433,0.011994,0.648883,0.011924,0.760376,-0.025216,-171.691979,80.892334,-174.711212
29678,-7.779669,-1.010409,-2.674679,-1.473411,-0.846961,-1.700556,0.434502,-0.027310,2.613173,-0.077653,-0.011061,-0.026781,0.999912,0.002172,-0.000137,0.013065,0.649256,0.023302,0.759991,-0.018358,179.136888,81.009161,175.750388
29679,-9.563330,-0.343117,-3.003055,-1.502532,-0.387308,0.095985,0.000881,-0.081642,2.276330,-0.095574,-0.004519,-0.030070,0.999935,0.000004,-0.000408,0.011381,0.649769,0.031997,0.759380,-0.010933,170.867087,80.946481,167.377146
29680,-9.503992,-0.170030,-1.949030,-0.477460,-0.460193,-0.132204,-0.240322,0.015078,1.577842,-0.095024,-0.002473,-0.019480,0.999968,-0.001202,0.000075,0.007889,0.649837,0.037245,0.759145,-0.004861,165.209058,80.752417,161.785649
29681,-8.885322,0.129592,-2.041808,-0.649680,-0.287136,-0.722701,-1.377533,0.123384,1.562378,-0.088872,0.000461,-0.020368,0.999946,-0.006888,0.000617,0.007812,0.649662,0.038751,0.759215,0.005513,159.350620,80.414646,156.647706
29682,-9.968783,-0.843541,-4.078214,-2.533986,-1.443894,0.589693,-1.984773,0.161053,1.518562,-0.099651,-0.009596,-0.040610,0.999922,-0.009924,0.000805,0.007593,0.649363,0.038100,0.759309,0.018041,153.765980,79.984239,152.134385
29683,-10.073457,-2.121535,-4.662362,-3.114783,-2.921327,0.650299,-1.411289,0.070958,1.173335,-0.100623,-0.022134,-0.046434,0.999958,-0.007056,0.000355,0.005867,0.649259,0.038015,0.759127,0.027266,149.719555,79.630557,148.845030
29684,-8.813428,-2.395031,-4.480439,-3.121727,-3.243148,-0.690089,-0.891860,-0.143392,1.264445,-0.087948,-0.024706,-0.044758,0.999970,-0.004459,-0.000717,0.006322,0.649801,0.039976,0.758256,0.034758,145.642293,79.312193,145.217630
29685,-8.109224,-2.434030,-4.067856,-2.826145,-3.347156,-1.503703,-0.476168,-0.133386,1.444015,-0.080886,-0.025022,-0.040674,0.999971,-0.002381,-0.000667,0.007220,0.650158,0.043973,0.757402,0.041267,141.631691,78.882127,141.411414
29686,-7.905684,-2.659004,-2.584120,-1.395086,-3.653089,-2.005285,-0.163556,0.077207,1.241105,-0.078900,-0.027101,-0.025789,0.999980,-0.000818,0.000386,0.006205,0.649651,0.048164,0.757311,0.045968,138.924685,78.392384,138.745790
29687,-7.928771,-1.130909,-3.674143,-2.428250,-2.261717,-1.649940,-0.605943,0.416506,1.324708,-0.079286,-0.011945,-0.036541,0.999971,-0.003030,0.002083,0.006623,0.647920,0.051159,0.758160,0.052700,136.644570,77.704044,136.770140
29688,-9.894973,-0.945638,-5.011462,-3.396763,-2.519201,0.484550,-0.343976,0.514979,1.289851,-0.099014,-0.010181,-0.049843,0.999974,-0.001720,0.002575,0.006449,0.645717,0.054837,0.759367,0.058342,134.975824,76.975630,135.261716
29689,-10.107023,-0.115519,-4.448935,-2.762695,-1.855207,0.717402,0.144413,0.232085,1.231010,-0.101112,-0.001745,-0.044373,0.999980,0.000722,0.001160,0.006155,0.644443,0.059950,0.759784,0.061862,133.358886,76.374955,133.514951
29690,-9.369567,-0.298978,-3.007495,-1.447082,-1.989814,-0.280158,0.325129,0.110700,1.066584,-0.093695,-0.003441,-0.030028,0.999984,0.001626,0.000553,0.005333,0.643603,0.065055,0.759889,0.064126,132.030731,75.880758,131.954901
29691,-8.573995,-0.931571,-1.806628,-0.388292,-2.533466,-1.382067,-0.004819,0.275788,0.894267,-0.085722,-0.009699,-0.017948,0.999989,-0.000024,0.001379,0.004471,0.642279,0.068388,0.760456,0.067139,131.138766,75.390310,131.036775
29692,-8.773514,-2.305017,-2.531816,-1.064178,-4.004914,-1.355426,-0.259129,0.432138,0.807765,-0.087695,-0.023437,-0.025098,0.999989,-0.001296,0.002161,0.004039,0.640464,0.070522,0.761450,0.070895,130.532773,74.876049,130.563283
29693,-8.604307,-2.681893,-3.874838,-2.386280,-4.429548,-1.390965,0.256486,0.483461,0.783393,-0.086031,-0.027106,-0.038575,0.999989,0.001282,0.002417,0.003917,0.638263,0.074190,0.762786,0.072621,130.368366,74.352730,130.239996
29694,-8.287005,-2.498198,-3.903728,-2.454514,-4.229633,-1.673893,1.387674,0.359239,1.090267,-0.082803,-0.025163,-0.039063,0.999959,0.006938,0.001796,0.005451,0.635974,0.082684,0.763979,0.070967,130.276913,73.741013,129.317829
29695,-8.129558,-0.867178,-2.309018,-0.854353,-2.647334,-1.785572,2.403057,0.437600,1.510690,-0.081279,-0.009009,-0.023019,0.999897,0.012015,0.002188,0.007553,0.632720,0.095965,0.765504,0.066783,130.406302,72.917271,128.015032
29696,-8.929703,1.073039,-1.803863,-0.056693,-1.051039,-0.700312,2.621995,0.441949,1.878523,-0.089433,0.010124,-0.017706,0.999868,0.013109,0.002210,0.009392,0.629077,0.111330,0.766752,0.062921,130.298359,71.930757,126.325838
29697,-10.213203,2.642922,-1.254281,0.934619,-0.021482,0.769893,2.699316,0.231370,1.790208,-0.102378,0.025679,-0.012075,0.999868,0.013496,0.001157,0.008951,0.626055,0.126626,0.767214,0.058338,130.155830,71.060581,124.543918
29698,-10.719246,4.043037,0.445739,2.940500,0.899099,1.232168,2.530236,-0.033473,1.423896,-0.107477,0.039605,0.004944,0.999895,0.012651,-0.000167,0.007119,0.624118,0.140045,0.766841,0.053089,130.040978,70.446551,122.886604
29699,-10.740931,4.608569,3.131596,5.702224,0.999828,0.812540,1.664839,-0.144803,1.083477,-0.107679,0.045240,0.031617,0.999950,0.008324,-0.000724,0.005417,0.623206,0.149456,0.766014,0.049997,129.697645,70.022067,121.507578
29700,-10.288057,4.544195,4.376403,6.845018,0.808432,0.093800,-0.383921,0.377416,0.764672,-0.102971,0.045133,0.043871,0.999989,-0.001920,0.001887,0.003823,0.621868,0.151133,0.766489,0.054157,129.159125,69.543964,121.167986
29701,-11.343821,2.542122,2.301215,4.732225,-1.223254,0.983125,-2.197701,1.083320,0.439872,-0.113368,0.025427,0.023347,0.999923,-0.010988,0.005416,0.002199,0.619234,0.145711,0.768844,0.064779,128.740905,68.956955,122.067141
29702,-12.752324,1.522588,-0.433913,2.273801,-2.416614,2.601712,-2.898920,1.092548,0.102707,-0.127553,0.015102,-0.003862,0.999880,-0.014494,0.005463,0.000514,0.617057,0.136800,0.771096,0.077054,128.229537,68.518877,123.300566
29703,-13.128060,0.644013,-2.862158,-0.060816,-3.277139,3.233738,-2.087538,0.264419,-0.239165,-0.131311,0.006299,-0.028514,0.999944,-0.010437,0.001322,-0.001196,0.617551,0.129357,0.771199,0.084557,127.536207,68.533699,123.840841
29704,-11.111932,1.352542,-2.845104,-0.386107,-1.979709,1.559667,0.105766,-0.168140,-0.436334,-0.111065,0.013783,-0.028537,0.999997,0.000529,-0.000841,-0.002182,0.618331,0.128113,0.770981,0.082719,127.777166,68.787941,124.034341
29705,-10.778609,2.765364,0.782944,3.197997,-0.594956,0.857704,1.295743,-0.566893,-0.521509,-0.107736,0.027884,0.007704,0.999972,0.006479,-0.002834,-0.002608,0.619912,0.130366,0.770048,0.075760,128.318306,69.223501,123.818698
29706,-10.008178,4.833124,5.454540,7.767871,1.462094,-0.284004,-0.017424,-0.918246,-0.877350,-0.100117,0.048775,0.054082,0.999980,-0.000087,-0.004591,-0.004387,0.623797,0.127321,0.767728,0.072533,128.015416,69.941356,123.506028
29707,-8.399107,4.627011,6.005828,7.866834,1.913165,-1.909206,-3.935620,0.183854,-1.152212,-0.083663,0.047923,0.059203,0.999789,-0.019677,0.000919,-0.005761,0.625917,0.110556,0.767412,0.084163,127.089745,70.401032,124.919411
29708,-9.978485,0.181893,2.232296,4.170829,-2.444145,-0.801113,-6.142331,1.210452,-1.570032,-0.099626,0.003298,0.022840,0.999479,-0.030706,0.006051,-0.007849,0.625020,0.084787,0.769061,0.103467,126.653249,70.701981,128.188635
29709,-10.841143,0.692691,-2.867284,-0.527389,-2.307839,1.170293,-7.835199,1.641213,-1.911666,-0.108578,0.006857,-0.028052,0.999153,-0.039165,0.008204,-0.009556,0.622531,0.052063,0.770259,0.128239,126.198556,71.026208,132.459733
29710,-10.740262,-1.114489,-13.758176,-10.768004,-5.885790,2.646210,-8.033519,1.073722,-2.378193,-0.108303,-0.015357,-0.136441,0.999108,-0.040156,0.005367,-0.011887,0.621473,0.017216,0.768364,0.151963,125.428767,71.768712,136.503998
29711,-8.566465,-6.166172,-17.972352,-14.151029,-11.688884,0.062143,-3.057514,0.404614,-2.614553,-0.086847,-0.063268,-0.178590,0.999796,-0.015287,0.002023,-0.013072,0.622069,-0.002617,0.767341,0.155600,127.022395,72.841514,140.015381
29712,-6.795705,-6.341545,-10.333602,-7.185466,-9.697579,-2.921015,2.671403,-0.252490,-0.529081,-0.067991,-0.061847,-0.104255,0.999907,0.013357,-0.001262,-0.002645,0.623440,0.003902,0.768538,0.143724,128.768970,73.167070,140.241082
29713,-6.232699,-0.610023,-4.456594,-2.801933,-2.638314,-3.159357,4.951396,0.188431,1.371865,-0.062330,-0.005423,-0.044647,0.999670,0.024754,0.000942,0.006859,0.621444,0.024483,0.772389,0.128931,130.249877,72.492948,138.820841
29714,-10.380035,3.220371,-3.610745,-1.431371,0.442420,1.540961,4.802602,0.351874,1.852159,-0.104160,0.032092,-0.035153,0.999667,0.024010,0.001759,0.009260,0.618112,0.046364,0.776075,0.116169,131.316807,71.555505,137.049479
29715,-15.328756,5.175369,-0.800681,2.459832,1.614271,6.116484,4.955956,-0.914676,0.298145,-0.153330,0.051714,-0.007426,0.999681,0.024777,-0.004573,0.001491,0.620159,0.063365,0.775797,0.097608,132.629371,71.780258,135.439749
29716,-10.697330,6.038172,8.012109,10.093094,4.026437,0.036202,3.819700,-1.526244,-1.282589,-0.107203,0.059534,0.080446,0.999768,0.019097,-0.007631,-0.006412,0.625368,0.071006,0.773134,0.078338,134.395463,72.913324,134.996252
29717,-6.784583,5.987307,11.667263,12.852542,4.934624,-4.477871,-1.443586,0.314822,-0.719888,-0.067444,0.060957,0.116342,0.999966,-0.007218,0.001574,-0.003599,0.624950,0.063597,0.773760,0.081777,134.924480,73.081955,136.413791
29718,-11.082466,0.214417,4.310622,6.612144,-1.647988,-0.065794,-4.759382,1.445769,-0.947541,-0.110494,0.003706,0.043830,0.999680,-0.023794,0.007228,-0.004737,0.621076,0.044492,0.776365,0.097689,135.342934,72.876050,139.703113
29719,-11.999390,-2.167248,0.141886,3.075920,-4.269946,1.187240,-5.771525,1.259647,-1.727560,-0.120160,-0.020568,0.002780,0.999527,-0.028853,0.006297,-0.008636,0.618056,0.019244,0.777444,0.114963,135.978128,73.054766,143.825824
29720,-11.637296,-5.952919,-8.188140,-4.338246,-9.140490,1.829043,-5.164066,-0.202903,-1.960589,-0.116881,-0.060475,-0.080446,0.999618,-0.025817,-0.001014,-0.009802,0.620249,-0.004181,0.773723,0.128943,135.436440,73.920876,146.346761
29721,-6.303822,-6.126039,-12.546629,-9.521755,-9.384310,-2.332921,0.270517,0.913481,-2.339248,-0.064320,-0.060344,-0.125256,0.999920,0.001353,0.004567,-0.011696,0.618212,-0.012972,0.776595,0.120609,140.329475,74.435493,151.270557
29722,-3.794755,-0.696717,-8.310205,-6.977664,-2.731624,-4.541077,3.180757,-0.132209,0.143521,-0.037888,-0.005671,-0.083224,0.999873,0.015903,-0.000661,0.000718,0.618782,-0.002459,0.777998,0.108726,141.728159,74.441601,150.830547
29723,-4.594566,4.185915,-7.068668,-6.204773,2.375437,-3.145763,4.571518,0.251855,2.634150,-0.046594,0.042848,-0.069656,0.999651,0.022855,0.001259,0.013169,0.616235,0.021797,0.781006,0.099042,140.580398,73.385177,146.909044
29724,-12.395019,11.202997,-8.100088,-5.533968,8.054873,5.973791,5.225097,-0.021763,2.671921,-0.125442,0.112426,-0.078080,0.999570,0.026122,-0.000109,0.013358,0.614179,0.048370,0.782880,0.086856,139.707257,72.412008,142.863234
29725,-16.949449,9.033777,1.104373,4.958960,5.918829,7.807871,4.470241,-1.238696,-0.973733,-0.169125,0.090900,0.012023,0.999719,0.022349,-0.006193,-0.004868,0.618216,0.058820,0.781017,0.066039,142.218150,73.316698,142.809367
29726,-6.194144,6.262521,6.243366,7.520140,5.349365,-4.209489,-0.321170,-0.692536,-1.801400,-0.061589,0.063281,0.062119,0.999952,-0.001606,-0.003463,-0.009007,0.621599,0.051060,0.779243,0.061547,144.032370,74.252780,144.890177
29727,-6.528775,0.971613,2.219504,3.626444,0.088779,-3.868432,-4.105813,1.064651,-0.871524,-0.065125,0.010458,0.022332,0.999766,-0.020527,0.005323,-0.004357,0.618650,0.034580,0.781305,0.075093,144.351946,74.052748,147.667155
29728,-11.212553,-0.190344,-1.478053,1.270044,-1.925818,1.260578,-5.079862,1.638765,-0.900265,-0.112250,-0.001757,-0.013815,0.999634,-0.025396,0.008193,-0.004501,0.613257,0.014766,0.784317,0.092436,144.744191,73.586243,151.106019
29729,-12.859691,-1.765147,-7.536715,-3.859925,-4.492060,3.978957,-3.873279,0.405306,-1.454113,-0.128880,-0.018167,-0.074758,0.999784,-0.019365,0.002026,-0.007270,0.612521,-0.002988,0.783686,0.103177,145.309868,73.876327,154.006396
29730,-8.445726,-2.567657,-7.471630,-4.731025,-4.714857,-0.371586,-0.304901,-0.162601,-1.821421,-0.084626,-0.025020,-0.074747,0.999957,-0.001524,-0.000813,-0.009107,0.614084,-0.010932,0.782953,0.098821,148.013053,74.527495,156.997026
29731,-5.246070,-0.768797,-3.065499,-1.562186,-1.785873,-4.166499,1.201531,-0.256528,-0.514793,-0.052441,-0.007368,-0.030767,0.999978,0.006008,-0.001283,-0.002574,0.615416,-0.009120,0.782698,0.092545,149.335129,74.808856,157.653087
29732,-6.589670,0.830849,-2.514654,-0.915144,-0.243579,-2.774177,1.148284,0.162876,0.808409,-0.065950,0.008186,-0.025046,0.999975,0.005741,0.000814,0.004042,0.614459,-0.002456,0.783731,0.090559,148.697729,74.490230,156.309725
29733,-11.613813,1.859179,-3.068363,-0.299990,0.108447,2.338437,0.960387,0.173969,0.785030,-0.116237,0.018282,-0.030494,0.999980,0.004802,0.000870,0.003925,0.613442,0.003503,0.784678,0.089199,148.062867,74.171911,155.077828
