PacketCounter,Acc_X,Acc_Y,Acc_Z,FreeAcc_E,FreeAcc_N,FreeAcc_U,Gyr_X,Gyr_Y,Gyr_Z,VelInc_X,VelInc_Y,VelInc_Z,OriInc_q0,OriInc_q1,OriInc_q2,OriInc_q3,Quat_q0,Quat_q1,Quat_q2,Quat_q3,Roll,Pitch,Yaw
29214,-5.270944,3.456002,7.569208,-0.442129,-2.950372,-0.425489,0.040380,0.235467,-0.009728,-0.052619,0.034547,0.075761,0.999999,0.000202,0.001177,-0.000049,-0.483026,0.105584,-0.163376,-0.853725,10.837900,19.761723,122.892006
29215,-6.256211,1.683506,7.093697,1.588715,-3.035760,-0.837446,0.006629,0.345846,0.087779,-0.062447,0.016805,0.071046,0.999998,0.000033,0.001729,0.000439,-0.482329,0.106914,-0.164228,-0.853790,10.871082,19.937107,122.989713
29216,-5.805149,1.763814,8.179510,1.258355,-2.269397,0.035228,0.067750,0.366281,0.157297,-0.057915,0.017565,0.081907,0.999998,0.000339,0.001831,0.000786,-0.481350,0.108183,-0.165448,-0.853947,10.953909,20.123292,123.131483
29217,-4.799270,1.891630,9.582601,0.592901,-0.964190,1.011185,0.024862,0.317751,0.127046,-0.047852,0.018874,0.095904,0.999999,0.000124,0.001589,0.000635,-0.480514,0.109323,-0.166333,-0.854101,11.005357,20.279239,123.250138
29218,-3.678344,2.380349,11.228294,-0.455765,0.342907,2.226645,-0.027137,0.170233,0.050406,-0.036694,0.023809,0.112311,1.000000,-0.000136,0.000851,0.000252,-0.480100,0.110070,-0.166617,-0.854182,11.004494,20.366639,123.305521
29219,-3.279247,1.802210,11.102455,-0.167456,0.889085,1.868383,-0.035649,-0.038085,-0.001886,-0.032813,0.018042,0.111015,1.000000,-0.000178,-0.000190,-0.000009,-0.480077,0.109944,-0.166319,-0.854269,10.980309,20.336638,123.305531
29220,-2.981227,0.450256,9.697110,0.876655,1.220618,0.230517,-0.022072,-0.084235,-0.054505,-0.029852,0.004521,0.096958,1.000000,-0.000110,-0.000421,-0.000273,-0.480326,0.109680,-0.165956,-0.854234,10.950204,20.292369,123.268347
29221,-3.905847,0.317050,9.317881,1.485569,0.406511,0.177652,0.166044,-0.076792,-0.055952,-0.039093,0.003104,0.093166,1.000000,0.000830,-0.000384,-0.000280,-0.480677,0.108949,-0.166394,-0.854045,11.028540,20.246372,123.231325
29222,-3.532306,0.796652,8.956735,0.907373,0.328578,-0.200007,0.203736,-0.071467,-0.073823,-0.035352,0.007888,0.089563,0.999999,0.001019,-0.000357,-0.000369,-0.481120,0.108213,-0.167016,-0.853768,11.124357,20.211477,123.183991
29223,-2.954885,0.587931,8.773734,0.808652,0.814365,-0.607347,0.192219,-0.014773,-0.123922,-0.029552,0.005813,0.087741,0.999999,0.000961,-0.000074,-0.000620,-0.481723,0.107742,-0.167676,-0.853358,11.205819,20.208135,123.113331
29224,-2.325246,1.292872,8.716014,-0.106016,0.959004,-0.750887,0.257434,0.047864,-0.169216,-0.023221,0.012836,0.087182,0.999999,0.001287,0.000239,-0.000846,-0.482501,0.107465,-0.168762,-0.852739,11.317526,20.251114,123.022980
29225,-2.252800,1.811328,8.507942,-0.574350,0.704673,-0.873190,0.248736,0.131751,-0.199961,-0.022454,0.018030,0.085117,0.999999,0.001244,0.000659,-0.001000,-0.483334,0.107547,-0.169973,-0.852016,11.421383,20.338806,122.924309
29226,-2.069351,2.592657,8.276236,-1.330401,0.413249,-1.005909,0.272454,0.222992,-0.187136,-0.020577,0.025833,0.082821,0.999998,0.001362,0.001115,-0.000936,-0.484046,0.107995,-0.171535,-0.851242,11.545143,20.482489,122.844608
29227,-2.308588,3.535547,8.850830,-2.031496,0.041533,-0.219042,0.197200,0.334245,-0.148973,-0.022912,0.035285,0.088582,0.999998,0.000986,0.001671,-0.000745,-0.484457,0.109017,-0.173043,-0.850572,11.638741,20.678113,122.801679
29228,-3.764581,3.985560,9.205018,-1.695678,-1.137098,0.704950,0.106685,0.316586,-0.062855,-0.037487,0.039818,0.092131,0.999999,0.000533,0.001583,-0.000314,-0.484466,0.110157,-0.174193,-0.850185,11.697726,20.860152,122.808469
29229,-3.260466,2.727714,8.983244,-0.877631,-0.213195,0.084483,-0.088737,0.307075,-0.026373,-0.032463,0.027321,0.089870,0.999999,-0.000444,0.001535,-0.000132,-0.484218,0.111646,-0.174489,-0.850071,11.652968,21.026282,122.836266
29230,-4.001389,2.038819,9.241489,0.064395,-0.345778,0.456160,-0.083776,0.280931,-0.019760,-0.039882,0.020431,0.092462,0.999999,-0.000419,0.001405,-0.000099,-0.483968,0.113058,-0.174766,-0.849970,11.610569,21.183337,122.864456
29231,-3.326595,1.344090,8.971565,0.307886,0.417168,-0.164220,-0.089199,0.258679,-0.061197,-0.033146,0.013491,0.089753,0.999999,-0.000446,0.001293,-0.000306,-0.483908,0.114373,-0.174924,-0.849796,11.555962,21.326410,122.865130
29232,-4.103631,1.529918,9.556341,0.509420,-0.020248,0.687032,0.025434,0.239178,-0.038874,-0.040919,0.015295,0.095614,0.999999,0.000127,0.001196,-0.000194,-0.483836,0.115359,-0.175552,-0.849574,11.570133,21.462255,122.876500
29233,-4.590693,1.629135,9.497608,0.663739,-0.453424,0.830947,0.039535,0.158299,-0.015161,-0.045831,0.016276,0.095016,1.000000,0.000198,0.000791,-0.000076,-0.483742,0.115896,-0.176039,-0.849454,11.594778,21.543760,122.892477
29234,-4.208854,1.427462,9.540231,0.641235,-0.027711,0.692365,0.069047,0.122964,0.019386,-0.042031,0.014238,0.095433,1.000000,0.000345,0.000615,0.000097,-0.483549,0.116232,-0.176605,-0.849401,11.641654,21.607650,122.924741
29235,-6.099978,1.650876,10.592751,1.385107,-1.161239,2.388725,0.156588,0.044112,0.069804,-0.060982,0.016405,0.105954,1.000000,0.000783,0.000221,0.000349,-0.483262,0.115928,-0.177362,-0.849448,11.746963,21.615396,122.977873
29236,-4.913819,1.423744,10.093457,1.016212,-0.334874,1.452552,0.176735,-0.218547,0.054521,-0.049252,0.014135,0.100893,0.999999,0.000884,-0.001093,0.000273,-0.483284,0.114521,-0.177580,-0.849580,11.847587,21.483538,122.988521
29237,-5.851894,2.956674,11.042794,0.190593,-1.409194,2.950834,0.324714,-0.302231,0.080340,-0.058698,0.029364,0.110387,0.999997,0.001624,-0.001511,0.000402,-0.483353,0.112334,-0.178220,-0.849699,12.035076,21.296073,123.003806
29238,-5.246339,2.880114,9.978938,0.018955,-1.370972,1.742311,0.137768,-0.608649,0.056071,-0.052775,0.028718,0.099649,0.999995,0.000689,-0.003043,0.000280,-0.483691,0.109362,-0.177329,-0.850081,12.095337,20.945410,122.964610
29239,-3.124670,2.521734,9.655172,-0.708798,0.271380,0.616535,-0.046806,-0.620294,-0.009164,-0.031545,0.025241,0.096448,0.999995,-0.000234,-0.003101,-0.000046,-0.484209,0.106802,-0.175572,-0.850476,12.036363,20.590803,122.885116
29240,-5.060075,1.400158,9.700614,1.263377,-0.772758,1.117679,-0.131849,-0.706260,-0.079382,-0.050937,0.014086,0.096817,0.999993,-0.000659,-0.003531,-0.000397,-0.485051,0.104184,-0.173221,-0.850803,11.910340,20.201471,122.753330
29241,-3.133651,0.890891,8.971773,0.751297,0.623002,-0.317788,-0.136236,-0.776876,-0.158839,-0.031678,0.008995,0.089589,0.999992,-0.000681,-0.003884,-0.000794,-0.486282,0.101303,-0.170621,-0.850973,11.764548,19.776501,122.566811
29242,-3.360044,1.994532,8.804042,-0.054601,-0.204501,-0.182838,0.127532,-0.767060,-0.098155,-0.033928,0.019906,0.087923,0.999992,0.000638,-0.003835,-0.000491,-0.487374,0.097810,-0.169211,-0.851039,11.783381,19.354834,122.418437
29243,-1.142421,2.158005,8.002401,-1.282566,1.125177,-1.621882,-0.002511,-0.678491,-0.053548,-0.011690,0.021584,0.079984,0.999994,-0.000013,-0.003392,-0.000268,-0.488129,0.094931,-0.167467,-0.851277,11.741668,18.972576,122.308098
29244,-1.416609,1.605860,7.943726,-0.640726,1.104988,-1.685160,0.130553,-0.467538,0.022441,-0.014354,0.016005,0.079414,0.999997,0.000653,-0.002338,0.000112,-0.488444,0.092601,-0.166854,-0.851473,11.799252,18.704811,122.268866
29245,-1.663975,1.874311,8.367220,-0.719289,0.915710,-1.156114,0.104494,-0.327282,0.053674,-0.016782,0.018695,0.083655,0.999998,0.000522,-0.001636,0.000268,-0.488494,0.090862,-0.166470,-0.851707,11.854032,18.506692,122.265424
29246,-1.334328,1.420263,7.961935,-0.475388,1.227226,-1.722085,0.181586,-0.211860,0.085272,-0.013434,0.014125,0.079618,0.999999,0.000908,-0.001059,0.000426,-0.488348,0.089443,-0.166727,-0.851891,11.962753,18.374929,122.294601
29247,-2.496085,1.882124,9.466802,-0.246498,0.636646,0.133520,0.199626,-0.036980,0.094350,-0.024987,0.018715,0.094682,0.999999,0.000998,-0.000185,0.000472,-0.488023,0.088673,-0.167473,-0.852011,12.090864,18.334368,122.350969
29248,-4.336828,2.353335,9.605123,0.310417,-1.009170,0.933930,0.210728,-0.198094,0.090853,-0.043474,0.023412,0.096033,0.999999,0.001054,-0.000990,0.000454,-0.487854,0.087236,-0.167890,-0.852174,12.217585,18.209525,122.384563
29249,-1.431988,1.879056,8.104032,-0.758576,0.978037,-1.462552,0.108657,-0.138423,0.047404,-0.014380,0.018743,0.081041,1.000000,0.000543,-0.000692,0.000237,-0.487773,0.086295,-0.167981,-0.852299,12.280670,18.117763,122.400087
29250,-1.348068,2.903558,8.182895,-1.669453,0.595439,-1.206523,0.134711,0.010346,0.042614,-0.013483,0.028978,0.081849,1.000000,0.000674,0.000052,0.000213,-0.487600,0.085972,-0.168561,-0.852316,12.363126,18.115400,122.431672
29251,-1.384114,2.660605,8.111592,-1.439764,0.660813,-1.310752,0.011111,0.159584,0.078741,-0.013787,0.026596,0.081128,1.000000,0.000056,0.000798,0.000394,-0.487091,0.086510,-0.168975,-0.852470,12.388157,18.186235,122.504016
29252,-2.672855,2.514925,9.070600,-0.641944,0.071490,-0.049106,0.096824,0.277914,0.161750,-0.026623,0.025084,0.090755,0.999999,0.000484,0.001390,0.000809,-0.486167,0.087319,-0.170097,-0.852692,12.481853,18.318824,122.640571
29253,-4.858770,2.406560,10.180325,0.590255,-1.186699,1.645127,0.023597,0.191829,0.167130,-0.048510,0.024013,0.101853,0.999999,0.000118,0.000959,0.000836,-0.485258,0.087886,-0.170682,-0.853035,12.532266,18.396389,122.769557
29254,-3.034436,1.388742,9.146194,0.507121,0.369753,-0.096959,-0.079324,0.071897,0.067515,-0.030316,0.013913,0.091467,1.000000,-0.000397,0.000359,0.000338,-0.484833,0.088325,-0.170510,-0.853265,12.499436,18.425262,122.823921
29255,-2.587017,1.440172,9.044969,0.223973,0.668729,-0.321595,-0.023982,0.131308,-0.020566,-0.025809,0.014415,0.090465,1.000000,-0.000120,0.000657,-0.000103,-0.484755,0.088911,-0.170662,-0.853218,12.485180,18.492492,122.834334
29256,-2.634756,2.114780,8.939586,-0.342650,0.281618,-0.266291,-0.058126,0.151010,-0.064281,-0.026273,0.021182,0.089410,1.000000,-0.000291,0.000755,-0.000321,-0.484833,0.089749,-0.170714,-0.853076,12.443170,18.581969,122.821260
29257,-2.567103,1.938689,8.792083,-0.239928,0.373895,-0.461117,-0.016314,0.204298,-0.016261,-0.025580,0.019396,0.087945,0.999999,-0.000082,0.001021,-0.000081,-0.484678,0.090624,-0.171077,-0.852999,12.437103,18.689455,122.843640
29258,-2.577630,2.269043,9.144041,-0.524390,0.360490,-0.065830,0.009894,0.238695,0.022385,-0.025670,0.022683,0.091472,0.999999,0.000049,0.001193,0.000112,-0.484341,0.091596,-0.171671,-0.852967,12.454143,18.817285,122.893161
29259,-3.091409,2.069681,9.386207,-0.096012,0.158086,0.282213,0.010597,0.248314,0.035689,-0.030801,0.020686,0.093901,0.999999,0.000053,0.001242,0.000178,-0.483937,0.092548,-0.172278,-0.852971,12.475430,18.942879,122.952103
29260,-3.614098,2.205645,9.251134,0.045037,-0.353370,0.355062,-0.014191,0.218068,0.030302,-0.036043,0.022058,0.092549,0.999999,-0.000071,0.001090,0.000152,-0.483572,0.093484,-0.172722,-0.852987,12.479567,19.058164,123.003755
29261,-3.127447,2.048055,8.867352,-0.083455,-0.024729,-0.189914,-0.033357,0.227694,0.044476,-0.031178,0.020488,0.088706,0.999999,-0.000167,0.001138,0.000222,-0.483127,0.094447,-0.173096,-0.853057,12.476757,19.171196,123.065320
29262,-2.879630,2.265146,8.842770,-0.408749,0.076808,-0.250014,-0.034039,0.267358,0.093164,-0.028689,0.022653,0.088462,0.999999,-0.000170,0.001337,0.000466,-0.482440,0.095586,-0.173603,-0.853216,12.484154,19.306268,123.160763
29263,-2.693672,1.863610,8.709970,-0.172572,0.382740,-0.516658,-0.024445,0.316809,0.125955,-0.026810,0.018630,0.087140,0.999999,-0.000122,0.001584,0.000630,-0.481572,0.096837,-0.174269,-0.853429,12.506717,19.459044,123.282509
29264,-2.906143,1.908834,9.154969,-0.114726,0.392874,-0.028252,-0.039205,0.362326,0.097548,-0.028905,0.019092,0.091598,0.999998,-0.000196,0.001812,0.000488,-0.480779,0.098389,-0.174984,-0.853552,12.516793,19.646644,123.393327
29265,-2.359604,1.583935,8.711678,-0.139589,0.827591,-0.687697,-0.091413,0.361838,0.017782,-0.023440,0.015877,0.087152,0.999998,-0.000457,0.001809,0.000089,-0.480297,0.100087,-0.175417,-0.853537,12.482034,19.837960,123.456984
29266,-1.741908,2.359907,8.206906,-1.147244,0.768103,-1.207431,-0.091384,0.461423,-0.036512,-0.017225,0.023640,0.082098,0.999997,-0.000457,0.002307,-0.000183,-0.479960,0.102305,-0.176080,-0.853328,12.440208,20.097666,123.501151
29267,-1.041227,2.925444,7.610618,-2.024914,0.837220,-1.890412,-0.236538,0.627902,-0.079667,-0.010162,0.029349,0.076104,0.999994,-0.001183,0.003140,-0.000398,-0.479580,0.105569,-0.176480,-0.853061,12.314707,20.449760,123.541281
29268,-3.547738,1.880883,9.711588,0.088805,0.266798,0.692521,-0.300015,0.812732,-0.026858,-0.035080,0.018959,0.097231,0.999991,-0.001500,0.004064,-0.000134,-0.478773,0.109774,-0.177097,-0.852855,12.171705,20.905157,123.635996
29269,-7.060033,1.831035,10.662807,1.877932,-2.001293,2.811100,-0.168852,0.542119,0.046752,-0.070315,0.018384,0.106803,0.999996,-0.000844,0.002711,0.000234,-0.477956,0.112394,-0.177645,-0.852859,12.108390,21.193910,123.739599
29270,-4.892198,0.594757,9.420978,1.798543,-0.203463,0.664232,-0.269688,0.323742,-0.045551,-0.048768,0.006086,0.094281,0.999998,-0.001348,0.001619,-0.000228,-0.477668,0.114456,-0.177207,-0.852837,11.956355,21.377847,123.758978
29271,-2.681204,1.272337,8.667930,0.063896,0.890816,-0.694410,-0.052134,0.326605,-0.117330,-0.026663,0.012762,0.086720,0.999998,-0.000261,0.001633,-0.000587,-0.477805,0.116028,-0.177643,-0.852457,11.913816,21.566154,123.735359
29272,-2.970556,2.548174,8.377722,-0.900010,-0.042560,-0.609882,-0.154714,0.412120,-0.194519,-0.029508,0.025575,0.083818,0.999997,-0.000774,0.002061,-0.000973,-0.478135,0.118324,-0.177819,-0.851920,11.798491,21.817239,123.675482
29273,-1.537378,3.030890,7.365931,-2.062383,0.434070,-1.979127,-0.348656,0.530736,-0.285074,-0.015135,0.030459,0.073647,0.999994,-0.001743,0.002654,-0.001425,-0.478626,0.121621,-0.177379,-0.851271,11.557088,22.139337,123.574892
29274,-0.945067,3.154954,8.081918,-2.570747,1.155162,-1.553131,-0.700857,0.833272,-0.445009,-0.009044,0.031853,0.080746,0.999983,-0.003504,0.004166,-0.002225,-0.479304,0.127234,-0.176080,-0.850338,11.088613,22.654677,123.411226
29275,-7.064488,1.274165,11.936155,1.849736,-0.996182,3.956340,-0.715263,0.877836,-0.379312,-0.070095,0.013302,0.119623,0.999982,-0.003576,0.004389,-0.001897,-0.479637,0.132958,-0.174846,-0.849529,10.627266,23.180429,123.288176
29276,-8.127003,0.928026,10.273242,2.681851,-2.324542,2.830609,-0.237628,0.198522,-0.144418,-0.081161,0.009461,0.102802,0.999999,-0.001188,0.000993,-0.000722,-0.479875,0.134494,-0.174181,-0.849289,10.462710,23.304606,123.227727
29277,-2.607569,1.767091,9.005835,-0.776114,0.979032,-0.354032,-0.220691,0.189758,-0.069987,-0.025984,0.017779,0.090063,0.999999,-0.001103,0.000949,-0.000350,-0.479815,0.135842,-0.173601,-0.849227,10.326131,23.410445,123.211879
29278,-3.633375,1.955213,9.049164,-0.458113,0.125252,0.121394,-0.272691,0.266345,-0.081083,-0.036205,0.019690,0.090513,0.999998,-0.001363,0.001332,-0.000405,-0.479700,0.137695,-0.172992,-0.849118,10.159441,23.566115,123.197075
29279,-4.358834,1.468040,9.185424,0.278208,-0.133222,0.455287,-0.326138,0.267683,-0.061417,-0.043461,0.014844,0.091888,0.999998,-0.001631,0.001338,-0.000307,-0.479460,0.139617,-0.172156,-0.849110,9.967666,23.714810,123.194313
29280,-4.583186,0.406864,9.505254,1.244898,0.347680,0.668259,-0.271046,0.215292,-0.023383,-0.045729,0.004203,0.095096,0.999998,-0.001355,0.001076,-0.000117,-0.479141,0.141198,-0.171470,-0.849167,9.813550,23.835899,123.208529
29281,-5.126531,-0.231881,9.544559,2.044407,0.264484,0.826115,-0.024670,0.131849,0.021992,-0.051202,-0.002313,0.095480,1.000000,-0.000123,0.000659,0.000110,-0.478874,0.141751,-0.171644,-0.849190,9.808944,23.899893,123.241919
29282,-4.268707,0.544972,9.196312,0.972138,0.407511,0.285822,0.139086,0.039646,0.010880,-0.042669,0.005383,0.091975,1.000000,0.000695,0.000198,0.000054,-0.478850,0.141575,-0.172303,-0.849100,9.890757,23.918478,123.258382
29283,-3.608276,1.702411,8.928784,-0.327517,0.249640,-0.041739,0.149646,0.053234,-0.031462,-0.036056,0.016963,0.089310,1.000000,0.000748,0.000266,-0.000157,-0.479001,0.141425,-0.172989,-0.848900,9.968864,23.943523,123.250251
29284,-4.070605,2.649625,9.161521,-0.927768,-0.449067,0.505325,0.048400,0.090875,-0.053499,-0.040657,0.026485,0.091640,1.000000,0.000242,0.000454,-0.000267,-0.479141,0.141739,-0.173340,-0.848698,9.984864,23.997374,123.232574
29285,-4.918496,1.806380,9.453912,0.198832,-0.559981,0.979808,-0.009743,0.052350,-0.023804,-0.049158,0.018074,0.094551,1.000000,-0.000049,0.000262,-0.000119,-0.479147,0.141960,-0.173354,-0.848654,9.973702,24.021151,123.229178
29286,-4.813279,1.351684,9.117005,0.565866,-0.404377,0.561837,0.088327,-0.045785,0.003928,-0.048154,0.013476,0.091165,1.000000,0.000442,-0.000229,0.000020,-0.479190,0.141548,-0.173588,-0.848651,10.020953,23.992184,123.232109
29287,-3.665747,1.635210,8.904382,-0.226519,0.244373,-0.051100,0.119466,-0.055263,-0.000701,-0.036682,0.016299,0.089043,1.000000,0.000597,-0.000276,-0.000004,-0.479283,0.140984,-0.173909,-0.848626,10.084831,23.953162,123.231234
29288,-3.857976,1.695364,8.907876,-0.172662,0.070730,0.039910,0.082656,-0.033985,0.002627,-0.038595,0.016916,0.089079,1.000000,0.000413,-0.000170,0.000013,-0.479317,0.140637,-0.174146,-0.848617,10.129005,23.930976,123.234598
29289,-3.973500,1.481682,8.894486,0.077820,0.078720,0.040419,0.060591,-0.029122,-0.005001,-0.039748,0.014791,0.088944,1.000000,0.000303,-0.000146,-0.000025,-0.479363,0.140329,-0.174278,-0.848614,10.159241,23.907121,123.233906
29290,-3.579064,1.400737,8.801061,-0.037875,0.378888,-0.216571,0.058702,-0.026613,-0.008818,-0.035802,0.013983,0.088010,1.000000,0.000294,-0.000133,-0.000044,-0.479422,0.140081,-0.174422,-0.848592,10.187147,23.890248,123.230997
29291,-3.966161,1.297038,9.057429,0.233900,0.243662,0.154041,0.087775,-0.006900,-0.010607,-0.039664,0.012933,0.090579,1.000000,0.000439,-0.000034,-0.000053,-0.479492,0.139807,-0.174718,-0.848537,10.232503,23.879499,123.229273
29292,-4.165577,1.663798,9.089275,0.025815,-0.067257,0.322892,0.161234,-0.039198,0.005992,-0.041674,0.016563,0.090898,1.000000,0.000806,-0.000196,0.000030,-0.479571,0.139246,-0.175277,-0.848469,10.322269,23.854022,123.234055
29293,-3.775968,1.966369,8.940118,-0.405895,0.024146,0.080993,0.133899,-0.049108,0.017916,-0.037783,0.019600,0.089405,1.000000,0.000669,-0.000246,0.000090,-0.479589,0.138658,-0.175688,-0.848471,10.399178,23.816601,123.245114
29294,-3.502873,1.910725,8.836239,-0.477229,0.216844,-0.131503,0.091562,-0.027126,0.003444,-0.035041,0.019066,0.088366,1.000000,0.000458,-0.000136,0.000017,-0.479619,0.138318,-0.175979,-0.848449,10.448909,23.798179,123.249621
29295,-3.838726,1.639285,8.820877,-0.066609,0.084355,-0.054645,0.067519,-0.002443,-0.009380,-0.038388,0.016365,0.088214,1.000000,0.000338,-0.000012,-0.000047,-0.479665,0.138110,-0.176200,-0.848411,10.483195,23.789835,123.249149
29296,-3.691248,1.556144,8.672416,-0.055443,0.174953,-0.261561,0.050952,-0.000145,-0.024187,-0.036911,0.015544,0.086728,1.000000,0.000255,-0.000001,-0.000121,-0.479760,0.138006,-0.176365,-0.848340,10.504025,23.789492,123.239695
29297,-3.691837,1.533412,8.921505,-0.050454,0.294265,-0.041038,0.026807,0.024412,-0.053530,-0.036903,0.015332,0.089222,1.000000,0.000134,0.000122,-0.000268,-0.479942,0.138049,-0.176448,-0.848212,10.505246,23.800904,123.215101
29298,-4.494546,1.280295,9.106131,0.558095,-0.117907,0.406723,0.048829,0.000850,-0.061853,-0.044941,0.012795,0.091065,1.000000,0.000244,0.000004,-0.000309,-0.480194,0.137987,-0.176580,-0.848052,10.515543,23.805061,123.182569
29299,-3.789656,1.488877,8.994331,0.036266,0.274065,0.056447,0.089257,-0.039439,-0.066684,-0.037909,0.014861,0.089942,1.000000,0.000446,-0.000197,-0.000333,-0.480531,0.137622,-0.176765,-0.847882,10.546260,23.781965,123.142546
29300,-3.841349,1.743671,9.018565,-0.153744,0.124437,0.141796,0.096325,-0.028452,-0.077784,-0.038420,0.017408,0.090189,1.000000,0.000482,-0.000142,-0.000389,-0.480910,0.137336,-0.177016,-0.847661,10.578480,23.771318,123.096856
29301,-3.821437,1.997659,8.856129,-0.368121,-0.050824,0.030429,0.070736,-0.026156,-0.076073,-0.038218,0.019960,0.088563,1.000000,0.000354,-0.000131,-0.000380,-0.481261,0.137080,-0.177149,-0.847476,10.596875,23.756728,123.052568
29302,-3.720866,1.842875,8.738064,-0.276360,0.048591,-0.142317,0.015870,-0.006785,-0.070226,-0.037205,0.018435,0.087381,1.000000,0.000079,-0.000034,-0.000351,-0.481533,0.137073,-0.177116,-0.847329,10.585890,23.757509,123.014023
29303,-3.815282,1.633588,8.880790,-0.060185,0.135463,-0.011083,-0.020926,0.014730,-0.081356,-0.038140,0.016361,0.088809,1.000000,-0.000105,0.000074,-0.000407,-0.481808,0.137215,-0.176955,-0.847183,10.552434,23.766496,122.971220
29304,-3.864915,1.551353,8.887563,0.030188,0.138665,0.001226,-0.002740,0.012774,-0.086447,-0.038637,0.015531,0.088878,1.000000,-0.000014,0.000064,-0.000432,-0.482119,0.137350,-0.176880,-0.847001,10.527652,23.779963,122.924925
29305,-3.652333,1.737017,9.125241,-0.255609,0.316894,0.160327,-0.004901,0.032550,-0.097194,-0.036500,0.017390,0.091258,1.000000,-0.000025,0.000163,-0.000486,-0.482456,0.137543,-0.176819,-0.846790,10.500225,23.800628,122.874377
29306,-3.957195,2.024862,9.074551,-0.355118,-0.072912,0.285605,0.017118,0.033398,-0.078608,-0.039549,0.020256,0.090754,1.000000,0.000086,0.000167,-0.000393,-0.482728,0.137710,-0.176884,-0.846594,10.489680,23.824863,122.835236
29307,-3.918932,1.280984,9.023878,0.268168,0.286118,0.100715,-0.035797,0.038286,-0.073088,-0.039167,0.012840,0.090244,1.000000,-0.000179,0.000191,-0.000365,-0.482937,0.137981,-0.176722,-0.846465,10.450821,23.846197,122.800177
29308,-4.229184,0.870512,8.958794,0.778764,0.214538,0.099491,0.070312,0.014740,-0.065796,-0.042282,0.008688,0.089594,1.000000,0.000352,0.000074,-0.000329,-0.483208,0.137929,-0.176975,-0.846266,10.473052,23.858565,122.766779
29309,-4.016469,1.105668,8.859444,0.480812,0.227124,-0.037131,0.123405,-0.011283,-0.072388,-0.040166,0.011017,0.088599,1.000000,0.000617,-0.000056,-0.000362,-0.483567,0.137605,-0.177368,-0.846031,10.523123,23.851990,122.726432
29310,-3.829791,1.442092,8.983026,0.097317,0.271047,0.054366,0.156047,-0.007061,-0.075423,-0.038296,0.014365,0.089840,1.000000,0.000780,-0.000035,-0.000377,-0.483957,0.137262,-0.177924,-0.845747,10.591076,23.853140,122.684625
29311,-3.884873,1.652569,8.892439,-0.043174,0.095851,0.030464,0.154104,-0.009256,-0.080480,-0.038846,0.016473,0.088935,1.000000,0.000771,-0.000046,-0.000402,-0.484369,0.136881,-0.178445,-0.845463,10.656715,23.848681,122.639482
29312,-3.841413,1.818058,8.875254,-0.198824,0.050593,0.025495,0.150274,-0.001251,-0.078873,-0.038408,0.018129,0.088766,1.000000,0.000751,-0.000006,-0.000394,-0.484764,0.136580,-0.178988,-0.845170,10.720776,23.853557,122.596231
29313,-3.987193,1.760783,9.034244,-0.079074,0.039251,0.217658,0.120960,0.004204,-0.082294,-0.039863,0.017570,0.090354,1.000000,0.000605,0.000021,-0.000411,-0.485149,0.136337,-0.179400,-0.844901,10.767631,23.856975,122.551555
29314,-4.084025,1.698736,8.821975,0.040907,-0.094474,0.055524,0.135753,-0.020590,-0.085815,-0.040842,0.016945,0.088227,1.000000,0.000679,-0.000103,-0.000429,-0.485580,0.135995,-0.179831,-0.844617,10.820728,23.851784,122.501770
29315,-3.768242,1.771064,8.822011,-0.169766,0.118424,-0.059671,0.124656,-0.020455,-0.094695,-0.037683,0.017673,0.088227,1.000000,0.000623,-0.000102,-0.000473,-0.486041,0.135651,-0.180190,-0.844331,10.865470,23.842789,122.446585
29316,-3.680977,2.086021,8.843587,-0.482050,0.053389,-0.021115,0.113462,-0.006239,-0.094453,-0.036803,0.020827,0.088447,1.000000,0.000567,-0.000031,-0.000472,-0.486480,0.135431,-0.180555,-0.844035,10.904340,23.846679,122.393179
29317,-3.662166,2.179267,8.801547,-0.568092,0.009559,-0.050255,0.043964,0.017561,-0.096396,-0.036603,0.021791,0.088023,1.000000,0.000220,0.000088,-0.000482,-0.486858,0.135445,-0.180666,-0.843791,10.904313,23.859299,122.341478
29318,-3.781537,1.975214,8.836305,-0.337718,0.028791,-0.006216,-0.007148,0.032825,-0.093169,-0.037792,0.019773,0.088369,1.000000,-0.000036,0.000164,-0.000466,-0.487175,0.135682,-0.180618,-0.843581,10.876241,23.885034,122.293476
29319,-3.755799,1.785590,8.784480,-0.190388,0.112912,-0.096081,-0.061968,0.035853,-0.110513,-0.037532,0.017904,0.087846,1.000000,-0.000310,0.000179,-0.000553,-0.487524,0.136043,-0.180317,-0.843385,10.812935,23.909404,122.235254
29320,-3.624212,2.022266,8.728434,-0.470435,0.080318,-0.159592,-0.091548,0.048203,-0.127597,-0.036208,0.020286,0.087284,1.000000,-0.000458,0.000241,-0.000638,-0.487914,0.136582,-0.179927,-0.843156,10.728563,23.947389,122.167774
29321,-3.617694,2.257826,8.696202,-0.696436,-0.040312,-0.152319,-0.205191,0.077141,-0.147402,-0.036127,0.022694,0.086953,0.999999,-0.001026,0.000386,-0.000737,-0.488283,0.137499,-0.179098,-0.842969,10.575851,23.998721,122.091496
29322,-3.749118,2.195903,8.631962,-0.603859,-0.147799,-0.168929,-0.293225,0.085783,-0.166132,-0.037436,0.022117,0.086303,0.999998,-0.001466,0.000429,-0.000831,-0.488662,0.138723,-0.177922,-0.842798,10.367771,24.061570,122.004259
29323,-3.746113,2.400485,8.690773,-0.822204,-0.223381,-0.086476,-0.350379,0.097745,-0.166720,-0.037399,0.024188,0.086884,0.999998,-0.001752,0.000489,-0.000834,-0.488991,0.140097,-0.176519,-0.842675,10.127771,24.125979,121.917927
29324,-3.717798,2.513354,8.736507,-0.978860,-0.243933,-0.042955,-0.433646,0.135946,-0.149814,-0.037100,0.025351,0.087335,0.999997,-0.002168,0.000680,-0.000749,-0.489155,0.141859,-0.174884,-0.842626,9.845133,24.214835,121.845570
29325,-4.000670,1.837493,8.848008,-0.306638,-0.114573,0.064641,-0.477110,0.175355,-0.130722,-0.039917,0.018612,0.088471,0.999997,-0.002386,0.000877,-0.000654,-0.489169,0.143836,-0.173161,-0.842639,9.544739,24.318820,121.789021
29326,-4.344925,1.508906,9.017409,0.090909,-0.165373,0.308237,-0.329396,0.097912,-0.110525,-0.043397,0.015262,0.090170,0.999998,-0.001647,0.000490,-0.000553,-0.489270,0.145147,-0.171899,-0.842614,9.329632,24.381852,121.736083
29327,-4.651248,1.094082,9.069545,0.571874,-0.196991,0.420685,-0.143970,0.012561,-0.068634,-0.046503,0.011022,0.090690,1.000000,-0.000720,0.000063,-0.000343,-0.489400,0.145569,-0.171225,-0.842602,9.228772,24.387739,121.700672
29328,-4.052195,1.277192,9.293701,0.092126,0.271035,0.402126,-0.162023,-0.002682,-0.071195,-0.040519,0.012862,0.092926,1.000000,-0.000810,-0.000013,-0.000356,-0.489542,0.146013,-0.170450,-0.842601,9.115312,24.390055,121.661737
29329,-3.820171,1.446101,9.407383,-0.194755,0.411856,0.433100,-0.229264,0.038900,-0.075714,-0.038178,0.014583,0.094065,0.999999,-0.001146,0.000195,-0.000379,-0.489617,0.146762,-0.169476,-0.842623,8.964719,24.411439,121.624438
29330,-4.411495,0.898393,9.239082,0.553886,0.126533,0.449192,-0.281876,0.080821,-0.069149,-0.044074,0.009129,0.092396,0.999999,-0.001409,0.000404,-0.000346,-0.489589,0.147848,-0.168401,-0.842665,8.786428,24.460661,121.594856
29331,-4.283159,0.629777,9.078686,0.717648,0.275842,0.215945,-0.176674,0.063043,-0.043797,-0.042802,0.006387,0.090795,1.000000,-0.000883,0.000315,-0.000219,-0.489547,0.148543,-0.167731,-0.842701,8.674944,24.492775,121.579509
29332,-4.185382,0.993164,9.083107,0.337489,0.182973,0.230183,-0.099303,0.059833,-0.024860,-0.041825,0.009982,0.090839,1.000000,-0.000497,0.000299,-0.000124,-0.489485,0.149057,-0.167406,-0.842711,8.611741,24.526185,121.575276
29333,-4.079162,1.185705,9.107779,0.106400,0.186498,0.234750,-0.069907,0.064339,-0.011175,-0.040762,0.011891,0.091087,1.000000,-0.000350,0.000322,-0.000056,-0.489384,0.149469,-0.167211,-0.842735,8.569688,24.556279,121.580189
29334,-4.210137,1.259053,8.990490,0.106951,0.002955,0.193707,-0.047818,0.065289,-0.003448,-0.042072,0.012613,0.089916,1.000000,-0.000239,0.000326,-0.000017,-0.489265,0.149862,-0.167133,-0.842750,8.541716,24.590950,121.589749
29335,-4.201138,1.455371,8.959607,-0.072241,-0.092249,0.188737,-0.036741,0.063863,-0.000856,-0.041983,0.014570,0.089607,1.000000,-0.000184,0.000319,-0.000004,-0.489145,0.150183,-0.167085,-0.842772,8.521266,24.619947,121.600991
29336,-4.154601,1.385996,8.986115,-0.042415,-0.010176,0.183815,-0.053018,0.053304,-0.002246,-0.041522,0.013884,0.089869,1.000000,-0.000265,0.000267,-0.000011,-0.489027,0.150537,-0.166956,-0.842803,8.490159,24.647732,121.610154
29337,-4.191903,1.052971,8.959290,0.263096,0.105969,0.130613,-0.038512,0.056234,-0.011469,-0.041893,0.010549,0.089603,1.000000,-0.000193,0.000281,-0.000057,-0.488957,0.150839,-0.166874,-0.842806,8.465649,24.673366,121.614047
29338,-4.054932,1.607846,9.077499,-0.302869,0.007092,0.253933,-0.001637,0.050813,-0.015501,-0.040525,0.016082,0.090785,1.000000,-0.000008,0.000254,-0.000078,-0.488936,0.151069,-0.166945,-0.842763,8.460430,24.700864,121.614693
29339,-4.087903,0.673337,9.058540,0.526861,0.412641,0.125804,-0.021343,0.080941,-0.055739,-0.040840,0.006754,0.090601,1.000000,-0.000107,0.000405,-0.000279,-0.489044,0.151470,-0.166962,-0.842625,8.435151,24.744263,121.593235
29340,-4.259884,1.541960,8.932846,-0.142231,-0.171108,0.200827,0.111140,0.076655,-0.054453,-0.042560,0.015382,0.089353,1.000000,0.000556,0.000383,-0.000272,-0.489251,0.151565,-0.167542,-0.842372,8.485370,24.789690,121.571967
29341,-4.253504,1.709341,9.072909,-0.306321,-0.176463,0.346389,-0.013786,0.072208,-0.056190,-0.042497,0.017112,0.090743,1.000000,-0.000069,0.000361,-0.000281,-0.489374,0.151912,-0.167570,-0.842233,8.463868,24.828238,121.549398
29342,-4.488797,0.976562,8.858944,0.461008,-0.104659,0.155280,0.037555,0.067675,-0.079958,-0.044854,0.009767,0.088606,1.000000,0.000188,0.000338,-0.000400,-0.489639,0.152170,-0.167799,-0.841986,8.464849,24.870728,121.511356
29343,-4.175820,1.892790,8.862577,-0.492031,-0.281405,0.149446,0.044079,0.041533,-0.057121,-0.041734,0.018920,0.088639,1.000000,0.000220,0.000208,-0.000286,-0.489836,0.152248,-0.167994,-0.841819,8.475025,24.892061,121.485336
29344,-3.899407,1.634217,8.976642,-0.410994,0.103994,0.100759,-0.041975,0.033309,-0.048933,-0.038975,0.016371,0.089769,1.000000,-0.000210,0.000167,-0.000245,-0.489939,0.152531,-0.167827,-0.841741,8.437216,24.912456,121.463464
29345,-4.049562,1.187830,8.886382,0.052267,0.154946,0.023518,-0.058742,0.039216,-0.050323,-0.040475,0.011915,0.088868,1.000000,-0.000294,0.000196,-0.000252,-0.490031,0.152845,-0.167590,-0.841678,8.390269,24.931891,121.441496
29346,-4.233045,1.332180,8.949444,0.000332,-0.026985,0.176567,-0.024882,0.020597,-0.031895,-0.042319,0.013340,0.089497,1.000000,-0.000124,0.000103,-0.000159,-0.490085,0.153017,-0.167478,-0.841637,8.366223,24.943631,121.429068
29347,-4.810982,1.036224,9.203802,0.505102,-0.227629,0.609517,-0.010565,0.024875,-0.056741,-0.048095,0.010381,0.092043,1.000000,-0.000053,0.000124,-0.000284,-0.490253,0.153158,-0.167403,-0.841529,8.344588,24.955490,121.401731
29348,-4.667217,1.611286,8.975068,-0.044074,-0.481287,0.419488,0.105662,-0.043911,-0.058095,-0.046687,0.016079,0.089749,1.000000,0.000528,-0.000220,-0.000290,-0.490572,0.152761,-0.167662,-0.841364,8.385927,24.932843,121.366989
29349,-4.669525,1.134937,9.542937,0.329161,-0.021106,0.866797,0.049895,-0.078507,-0.047645,-0.046730,0.011337,0.095414,1.000000,0.000249,-0.000393,-0.000238,-0.490833,0.152313,-0.167596,-0.841306,8.397335,24.885516,121.335824
29350,-4.934906,1.033591,8.923255,0.615741,-0.454197,0.407910,0.230156,-0.190813,-0.021958,-0.049433,0.010239,0.089197,0.999999,0.001151,-0.000954,-0.000110,-0.491217,0.150962,-0.168044,-0.841235,8.513811,24.776621,121.310003
29351,-3.814868,1.418099,8.790516,-0.217213,0.173341,-0.129705,0.096387,-0.112566,0.079678,-0.038204,0.014123,0.087890,1.000000,0.000482,-0.000563,0.000398,-0.491007,0.150151,-0.168187,-0.841475,8.583723,24.699393,121.354950
29352,-4.339278,0.890663,9.024646,0.488895,0.105523,0.228063,0.082136,-0.110887,0.128697,-0.043449,0.008842,0.090226,1.000000,0.000411,-0.000554,0.000643,-0.490577,0.149372,-0.168322,-0.841837,8.657666,24.622905,121.430282
29353,-3.890566,1.052671,8.692062,0.183573,0.230535,-0.236171,0.158327,-0.145663,0.132073,-0.038976,0.010432,0.086901,0.999999,0.000792,-0.000728,0.000660,-0.490219,0.148226,-0.168682,-0.842176,8.775011,24.522297,121.504372
29354,-3.972757,1.430810,9.124959,-0.122065,0.172777,0.239680,0.125097,-0.139336,0.145868,-0.039802,0.014222,0.091231,0.999999,0.000625,-0.000697,0.000729,-0.489772,0.147207,-0.168941,-0.842563,8.876463,24.427947,121.587225
29355,-4.458223,1.242386,9.069538,0.305009,-0.147308,0.363805,0.179292,-0.186637,0.139359,-0.044675,0.012311,0.090665,0.999999,0.000896,-0.000933,0.000697,-0.489432,0.145831,-0.169294,-0.842929,9.005516,24.303241,121.661275
29356,-4.019929,1.694319,9.357092,-0.292818,0.096523,0.506739,0.180169,-0.239987,0.120393,-0.040322,0.016835,0.093538,0.999999,0.000901,-0.001200,0.000602,-0.489215,0.144274,-0.169520,-0.843277,9.127375,24.153927,121.717760
29357,-5.244135,0.771095,9.842009,1.097766,-0.234588,1.309382,0.163117,-0.291988,0.142916,-0.052590,0.007593,0.098350,0.999998,0.000816,-0.001460,0.000715,-0.488935,0.142490,-0.169548,-0.843738,9.243085,23.969074,121.782714
29358,-4.848021,0.984445,9.125818,0.819930,-0.353377,0.529243,0.324284,-0.475251,0.154617,-0.048704,0.009659,0.091158,0.999996,0.001621,-0.002376,0.000773,-0.488871,0.139558,-0.169829,-0.844208,9.445642,23.683321,121.835455
29359,-3.938462,1.310446,8.978880,0.160283,0.115446,0.077194,0.301311,-0.441674,0.202711,-0.039596,0.012929,0.089721,0.999996,0.001507,-0.002208,0.001014,-0.488557,0.136754,-0.170114,-0.844791,9.647722,23.408076,121.920162
29360,-4.240754,1.396592,8.966908,0.283549,-0.188880,0.198485,0.265663,-0.439872,0.210005,-0.042619,0.013802,0.089594,0.999996,0.001328,-0.002199,0.001050,-0.488181,0.134066,-0.170269,-0.845408,9.830218,23.136607,122.008319
29361,-2.992047,1.045761,8.591460,0.048073,0.765630,-0.687422,0.205239,-0.431348,0.162032,-0.030114,0.010345,0.085860,0.999997,0.001026,-0.002157,0.000810,-0.487957,0.131573,-0.170143,-0.845954,9.966298,22.870806,122.067007
29362,-3.396869,0.813386,9.275211,0.452566,0.821128,0.053952,0.301774,-0.377499,0.145906,-0.034150,0.007969,0.092700,0.999997,0.001509,-0.001887,0.000730,-0.487816,0.129113,-0.170559,-0.846330,10.155431,22.640490,122.120728
29363,-3.555187,1.043731,8.480238,0.420011,0.241399,-0.571029,0.382007,-0.444402,0.076720,-0.035744,0.010262,0.084743,0.999996,0.001910,-0.002222,0.000384,-0.488073,0.126205,-0.171090,-0.846514,10.370886,22.375604,122.123816
29364,-2.490836,0.656026,8.103633,0.291490,1.083026,-1.383838,0.257048,-0.323632,-0.032820,-0.025038,0.006460,0.081004,0.999998,0.001285,-0.001618,-0.000164,-0.488608,0.124233,-0.171331,-0.846448,10.494321,22.193868,122.072940
29365,-4.142782,0.116564,9.375422,1.552495,0.547254,0.304867,0.352209,-0.264757,-0.102716,-0.041551,0.001022,0.093701,0.999997,0.001761,-0.001324,-0.000514,-0.489445,0.122310,-0.172059,-0.846096,10.658526,22.048968,121.985715
29366,-2.486218,-0.268831,8.583219,1.141073,1.686419,-1.107574,0.323995,-0.367305,-0.267998,-0.025023,-0.002794,0.085782,0.999996,0.001620,-0.001837,-0.001340,-0.491049,0.120191,-0.172330,-0.845415,10.765018,21.867922,121.786233
29367,-1.807807,-1.580441,8.872306,1.980809,2.928168,-1.328240,0.481889,-0.158357,-0.401718,-0.018180,-0.015982,0.088670,0.999995,0.002409,-0.000792,-0.002009,-0.493131,0.118656,-0.173680,-0.844143,10.940429,21.815522,121.529385
29368,-3.871263,0.923469,9.819499,0.814595,0.552480,0.736861,0.756839,-0.200299,-0.530103,-0.038787,0.008966,0.098190,0.999989,0.003784,-0.001001,-0.002651,-0.495944,0.116401,-0.176029,-0.842321,11.243541,21.758499,121.189972
29369,-3.504942,2.030730,9.039380,-0.272582,0.038757,0.088978,0.595791,-0.203850,-0.613413,-0.035080,0.020146,0.090418,0.999990,0.002979,-0.001019,-0.003067,-0.499010,0.114577,-0.177614,-0.840426,11.434619,21.706255,120.799156
29370,-4.987981,4.417376,9.412877,-1.638136,-2.019793,1.422623,0.709775,-0.236895,-0.506974,-0.049880,0.043966,0.094226,0.999990,0.003549,-0.001184,-0.002535,-0.501711,0.112257,-0.179677,-0.838690,11.714827,21.628689,120.468962
29371,-3.393416,5.275045,8.372072,-3.112033,-1.529055,0.056972,0.325204,-0.286190,-0.377825,-0.033954,0.052678,0.083758,0.999996,0.001626,-0.001431,-0.001889,-0.503693,0.110553,-0.180053,-0.837647,11.800801,21.505530,120.210145
29372,-3.241371,5.372446,8.511853,-3.257081,-1.386518,0.151764,0.203999,-0.167143,-0.208422,-0.032429,0.053671,0.085146,0.999999,0.001020,-0.000836,-0.001042,-0.504787,0.109525,-0.180335,-0.837062,11.861380,21.433382,120.068744
29373,-3.774049,4.855973,8.779258,-2.546067,-1.492822,0.492084,-0.039361,-0.169831,-0.060572,-0.037800,0.048588,0.087751,1.000000,-0.000197,-0.000849,-0.000303,-0.505131,0.108936,-0.179657,-0.837078,11.815288,21.338478,120.016178
29374,-3.332226,3.519037,8.728935,-1.571002,-0.607665,0.028263,-0.164148,-0.131807,0.056988,-0.033390,0.035252,0.087238,0.999999,-0.000821,-0.000659,0.000285,-0.504880,0.108746,-0.178632,-0.837473,11.725064,21.254990,120.039240
29375,-2.922035,2.344541,8.756519,-0.733388,0.210503,-0.319029,-0.309527,-0.141987,0.066482,-0.029290,0.023571,0.087508,0.999998,-0.001548,-0.000710,0.000332,-0.504517,0.108839,-0.176967,-0.838033,11.554010,21.160868,120.067232
29376,-2.045267,-0.225235,8.573538,1.111545,1.924374,-1.280360,-0.285142,-0.024313,0.019989,-0.020463,-0.002132,0.085736,0.999999,-0.001426,-0.000122,0.000100,-0.504258,0.109437,-0.175686,-0.838380,11.391268,21.142069,120.081596
29377,-3.006800,0.632002,9.094455,0.787680,0.985328,-0.296487,-0.014071,0.042512,-0.053793,-0.030047,0.006335,0.090950,1.000000,-0.000070,0.000213,-0.000269,-0.504397,0.109664,-0.175656,-0.838274,11.371359,21.165132,120.059871
29378,-5.218365,1.792412,10.451310,0.786215,-0.746052,1.955882,0.079693,-0.008799,-0.032749,-0.052185,0.017891,0.104518,1.000000,0.000398,-0.000044,-0.000164,-0.504544,0.109453,-0.175914,-0.838158,11.406878,21.161033,120.044383
29379,-5.511224,2.241584,10.303911,0.540711,-1.247140,2.007679,0.068990,-0.271333,0.032171,-0.055256,0.022371,0.102972,0.999999,0.000345,-0.001357,0.000161,-0.504644,0.108081,-0.175486,-0.838366,11.439275,20.998218,120.036189
29380,-4.377709,1.870026,9.825009,0.365003,-0.394237,1.091594,0.069406,-0.375450,0.051650,-0.043966,0.018655,0.098174,0.999998,0.000347,-0.001877,0.000258,-0.504752,0.106285,-0.174821,-0.838669,11.471143,20.778641,120.026797
29381,-4.267423,2.676094,9.397055,-0.370781,-0.861864,0.807882,0.048980,-0.493049,0.054767,-0.042913,0.026726,0.093871,0.999997,0.000245,-0.002465,0.000274,-0.504936,0.104015,-0.173762,-0.839063,11.487345,20.489043,120.005002
29382,-3.127798,1.973424,8.581090,-0.260547,-0.001264,-0.472207,-0.016752,-0.467224,0.058177,-0.031484,0.019732,0.085736,0.999997,-0.000084,-0.002336,0.000291,-0.505047,0.102045,-0.172506,-0.839498,11.467388,20.217194,119.988302
29383,-2.957896,2.524484,8.864505,-0.807938,-0.028278,-0.166552,-0.036639,-0.417861,0.045101,-0.029770,0.025254,0.088578,0.999998,-0.000183,-0.002089,0.000226,-0.505157,0.100314,-0.171272,-0.839893,11.436072,19.971005,119.970097
29384,-3.315958,1.890488,8.957454,-0.067714,-0.049605,-0.076245,-0.118451,-0.400744,0.013624,-0.033340,0.018956,0.089497,0.999998,-0.000592,-0.002004,0.000068,-0.505341,0.098917,-0.169732,-0.840260,11.351824,19.741516,119.935265
29385,-2.400021,1.784321,8.867341,-0.397488,0.669836,-0.487085,-0.113931,-0.372728,-0.019577,-0.024164,0.017896,0.088618,0.999998,-0.000570,-0.001864,-0.000098,-0.505640,0.097625,-0.168255,-0.840528,11.265543,19.527904,119.884589
29386,-2.820298,1.543946,9.175795,0.019758,0.513300,-0.103460,-0.088318,-0.332387,-0.031901,-0.028353,0.015484,0.091704,0.999999,-0.000442,-0.001662,-0.000160,-0.505969,0.096477,-0.166991,-0.840715,11.192728,19.341817,119.831506
29387,-2.713524,1.364894,8.530968,0.128401,0.401236,-0.766915,-0.112132,-0.327679,-0.031057,-0.027273,0.013701,0.085257,0.999998,-0.000561,-0.001638,-0.000155,-0.506277,0.095378,-0.165627,-0.840925,11.107497,19.154561,119.780002
29388,-2.018147,0.961239,8.637288,0.163185,1.161386,-0.968244,-0.021557,-0.201269,-0.096391,-0.020264,0.009631,0.086351,0.999999,-0.000108,-0.001006,-0.000482,-0.506797,0.094665,-0.164944,-0.840826,11.065866,19.049179,119.704431
29389,-3.259821,1.527765,9.281132,0.251019,0.117906,0.138341,-0.057479,-0.199556,-0.145315,-0.032680,0.015328,0.092774,0.999999,-0.000287,-0.000998,-0.000727,-0.507504,0.094060,-0.164078,-0.840637,10.994901,18.946293,119.600264
29390,-2.161017,2.275377,8.559729,-0.929317,0.415032,-0.752863,-0.006137,-0.152369,-0.128085,-0.021661,0.022770,0.085580,1.000000,-0.000031,-0.000762,-0.000640,-0.508123,0.093539,-0.163569,-0.840421,10.958163,18.871736,119.511789
29391,-2.849216,3.070929,8.816462,-1.311763,-0.410275,-0.148859,-0.070805,-0.084587,-0.089980,-0.028516,0.030753,0.088142,1.000000,-0.000354,-0.000423,-0.000450,-0.508496,0.093406,-0.162965,-0.840327,10.894848,18.827286,119.454008
29392,-3.156557,2.767620,8.682919,-0.909302,-0.594057,-0.229531,-0.153947,-0.060106,-0.009153,-0.031590,0.027744,0.086798,1.000000,-0.000770,-0.000301,-0.000046,-0.508470,0.093551,-0.162124,-0.840489,10.799825,18.791635,119.446975
29393,-2.465450,1.830224,8.518626,-0.413535,0.307424,-0.772244,-0.179101,-0.000394,0.024888,-0.024657,0.018375,0.085170,1.000000,-0.000896,-0.000002,0.000124,-0.508240,0.093952,-0.161334,-0.840736,10.699939,18.782151,119.467246
29394,-2.341973,0.845718,8.622073,0.384318,0.866628,-0.888482,-0.206123,0.090917,-0.016745,-0.023380,0.008548,0.086223,0.999999,-0.001031,0.000455,-0.000084,-0.508099,0.094871,-0.160654,-0.840848,10.579051,18.832322,119.472710
29395,-1.830137,0.457488,8.683845,0.468922,1.480742,-1.063097,-0.169258,0.181059,-0.101501,-0.018220,0.004658,0.086851,0.999999,-0.000846,0.000905,-0.000508,-0.508257,0.096110,-0.160306,-0.840678,10.466907,18.938272,119.437813
29396,-2.474857,0.651613,8.995409,0.573383,0.990116,-0.530568,-0.124069,0.239098,-0.198118,-0.024635,0.006596,0.089980,0.999999,-0.000620,0.001195,-0.000991,-0.508797,0.097589,-0.160260,-0.840190,10.363053,19.090751,119.351204
29397,-2.174990,0.365491,8.558877,0.662993,1.215184,-1.083300,-0.104485,0.323593,-0.265269,-0.021606,0.003728,0.085622,0.999998,-0.000522,0.001618,-0.001326,-0.509559,0.099393,-0.160464,-0.839477,10.260364,19.293565,119.233460
29398,-2.673802,1.458837,8.727247,-0.109598,0.421860,-0.579482,-0.102002,0.416851,-0.389078,-0.026528,0.014685,0.087320,0.999996,-0.000510,0.002084,-0.001945,-0.510764,0.101714,-0.160867,-0.838389,10.136662,19.565342,119.050958
29399,-1.884946,1.387484,8.056555,-0.446299,0.879529,-1.481230,-0.273540,0.508150,-0.527931,-0.018608,0.014034,0.080594,0.999992,-0.001368,0.002541,-0.002640,-0.512384,0.104934,-0.160697,-0.837035,9.888840,19.897781,118.793721
29400,-4.944516,0.531640,10.555778,1.624950,-0.298275,1.738306,-0.009513,0.573517,-0.438299,-0.049130,0.005429,0.105699,0.999993,-0.000048,0.002868,-0.002191,-0.513708,0.107709,-0.161859,-0.835646,9.810778,20.261769,118.595481
29401,-6.107592,2.417520,11.456427,0.406325,-1.670136,3.280906,-0.003989,0.183121,-0.443171,-0.060917,0.024313,0.114620,0.999997,-0.000020,0.000916,-0.002216,-0.515367,0.108811,-0.162021,-0.834450,9.719876,20.401448,118.353025
29402,-1.978604,-0.713354,9.614562,1.368512,2.345995,-0.352931,-0.083947,0.175530,-0.437427,-0.019717,-0.007050,0.096166,0.999997,-0.000420,0.000878,-0.002187,-0.516962,0.110114,-0.161848,-0.833325,9.583165,20.539905,118.112659
29403,-5.565465,3.485705,11.793210,-0.861895,-1.496609,3.574678,0.259299,0.139528,-0.297849,-0.055520,0.034787,0.118016,0.999998,0.001296,0.000698,-0.001489,-0.518191,0.110236,-0.163072,-0.832306,9.670874,20.640563,117.952584
29404,-3.622445,4.354748,8.568532,-2.462917,-1.480361,0.048761,-0.264746,-0.040186,-0.211242,-0.036196,0.043699,0.085620,0.999999,-0.001324,-0.000201,-0.001056,-0.518915,0.110926,-0.161713,-0.832028,9.470139,20.635278,117.826341
29405,-2.915010,4.850781,7.973952,-3.235077,-1.334510,-0.682267,-0.262209,0.151910,-0.023427,-0.029084,0.048616,0.079698,0.999999,-0.001311,0.000760,-0.000117,-0.518702,0.112226,-0.160955,-0.832134,9.318187,20.716840,117.832959
29406,-3.506073,3.889947,9.388954,-2.182538,-0.893808,0.676070,-0.619489,0.227310,0.059211,-0.034966,0.039180,0.093808,0.999995,-0.003097,0.001137,0.000296,-0.517881,0.114730,-0.158963,-0.832686,8.981179,20.837361,117.896339
29407,-3.635238,1.869571,9.435276,-0.365376,-0.159470,0.462308,-0.524858,0.196688,0.035124,-0.036263,0.018937,0.094339,0.999996,-0.002624,0.000983,0.000176,-0.517233,0.116846,-0.157263,-0.833118,8.693349,20.939150,117.942032
29408,-1.893477,1.512198,9.709878,-0.884404,1.524105,0.038608,-0.774576,0.319346,-0.248556,-0.018761,0.015521,0.097069,0.999990,-0.003873,0.001597,-0.001243,-0.517519,0.120373,-0.154680,-0.832922,8.203112,21.138453,117.825356
29409,-2.920582,0.588590,11.174255,0.233391,1.616358,1.635982,-0.778761,0.402786,-0.597544,-0.028962,0.006408,0.111777,0.999986,-0.003894,0.002014,-0.002988,-0.519177,0.124491,-0.152074,-0.831763,7.636085,21.407644,117.501551
29410,-1.667480,1.681179,11.560840,-1.431082,2.346789,1.663509,-0.825063,0.408213,-0.964902,-0.016356,0.017368,0.115571,0.999978,-0.004125,0.002041,-0.004824,-0.522313,0.129062,-0.149063,-0.829646,6.955922,21.707348,116.949398
29411,-1.698332,2.173085,12.239457,-2.044711,2.395309,2.331874,-0.833722,0.602793,-1.380934,-0.016462,0.022356,0.122352,0.999963,-0.004169,0.003014,-0.006905,-0.526993,0.134726,-0.146237,-0.826282,6.176693,22.134082,116.150757
29412,-1.178214,3.470576,13.557729,-3.682679,2.863271,3.434277,-0.620541,0.616257,-1.686947,-0.011069,0.035222,0.135503,0.999955,-0.003103,0.003081,-0.008435,-0.533028,0.140136,-0.144119,-0.821872,5.437911,22.580802,115.155267
29413,1.896476,6.103385,13.416595,-7.389529,4.463727,2.283597,-0.068836,0.513185,-1.856020,0.019874,0.060898,0.134095,0.999954,-0.000344,0.002566,-0.009280,-0.540171,0.143715,-0.143852,-0.816620,4.964632,22.962539,114.041996
29414,5.701034,8.876387,14.896971,-11.525400,7.367085,2.274457,-0.218101,0.379156,-1.659886,0.058027,0.088447,0.148764,0.999963,-0.001090,0.001896,-0.008299,-0.546457,0.147042,-0.142753,-0.812025,4.440487,23.254759,113.036532
29415,6.860201,6.080554,13.918953,-9.253771,9.102950,0.640827,-0.126038,0.044189,-1.150372,0.068981,0.060497,0.139136,0.999983,-0.000630,0.000221,-0.005752,-0.550952,0.148318,-0.141471,-0.808974,4.087662,23.319528,112.330173
29416,8.202980,6.165050,13.485304,-9.716302,10.105505,-0.293139,0.159183,-0.270804,-0.686465,0.082058,0.061261,0.135013,0.999993,0.000796,-0.001354,-0.003432,-0.553993,0.147271,-0.140825,-0.807200,4.003278,23.190296,111.896969
29417,7.434099,4.258716,12.863718,-7.548090,9.883711,-0.635785,0.204864,-0.588691,-0.458989,0.074059,0.042285,0.128899,0.999993,0.001024,-0.002943,-0.002295,-0.556365,0.144558,-0.139634,-0.806265,4.002062,22.859872,111.594050
29418,7.182091,3.245921,11.873137,-6.359016,9.616782,-1.435998,0.334909,-0.780834,-0.383659,0.071418,0.032123,0.119065,0.999989,0.001675,-0.003904,-0.001918,-0.558651,0.140747,-0.138499,-0.805554,4.086968,22.426898,111.327987
29419,6.330222,3.257420,10.702302,-5.914517,8.410637,-2.099051,0.387487,-0.861217,-0.383825,0.062902,0.032245,0.107357,0.999987,0.001937,-0.004306,-0.001919,-0.561018,0.136346,-0.137327,-0.804866,4.208590,21.935718,111.060468
29420,5.065247,2.712298,10.228860,-4.870409,7.299585,-2.025698,0.405710,-0.725980,-0.393418,0.050334,0.026816,0.102526,0.999989,0.002029,-0.003630,-0.001967,-0.563329,0.132558,-0.136619,-0.804005,4.336625,21.535484,110.790783
29421,0.992735,1.989606,11.372237,-2.823132,4.391209,0.532263,0.697092,-0.707781,-0.402610,0.009564,0.019480,0.113825,0.999986,0.003485,-0.003539,-0.002013,-0.565844,0.127891,-0.137097,-0.802912,4.637916,21.132270,110.517817
29422,-0.074967,1.813665,11.988273,-2.220775,3.705417,1.516475,0.951207,-0.853553,-0.534891,-0.001214,0.017569,0.119963,0.999976,0.004756,-0.004268,-0.002674,-0.569131,0.122140,-0.138121,-0.801308,5.047992,20.668560,110.152349
29423,-1.236961,1.245073,12.883207,-1.187292,3.123977,2.752557,1.096827,-1.103873,-0.538640,-0.013048,0.011779,0.128827,0.999966,0.005484,-0.005519,-0.002693,-0.572660,0.114826,-0.138975,-0.799726,5.545035,20.049362,109.770224
29424,0.725681,1.998872,11.525202,-2.331710,4.062178,0.930274,0.922662,-1.397121,-0.393696,0.006490,0.019443,0.115390,0.999963,0.004613,-0.006986,-0.001968,-0.575674,0.106870,-0.138398,-0.798764,5.962138,19.273155,109.452206
29425,0.163922,0.816610,10.016862,-0.882649,3.299306,-0.359392,0.734809,-1.355646,-0.167874,0.000967,0.007797,0.100206,0.999970,0.003674,-0.006778,-0.000839,-0.577616,0.099310,-0.137268,-0.798533,6.326292,18.492501,109.270989
29426,-1.409190,1.817763,9.950188,-1.231302,1.474829,0.217427,0.687327,-1.308764,0.152953,-0.014757,0.017825,0.099468,0.999972,0.003437,-0.006544,0.000765,-0.578189,0.091995,-0.136269,-0.799165,6.717868,17.735103,109.278423
29427,-1.543408,2.210680,8.861075,-1.477540,0.786242,-0.703062,0.452357,-1.187698,0.431064,-0.016007,0.021872,0.088566,0.999977,0.002262,-0.005938,0.002155,-0.577428,0.085499,-0.134766,-0.800690,7.032307,17.010755,109.457430
29428,-1.418802,1.786740,8.465516,-1.057265,0.816976,-1.147558,0.192393,-0.876469,0.642947,-0.014616,0.017739,0.084609,0.999985,0.000962,-0.004382,0.003215,-0.575479,0.081004,-0.133241,-0.802813,7.230716,16.464239,109.779403
29429,-3.934488,0.752875,9.879671,0.834646,-0.775631,0.787119,0.196587,-0.696901,0.870732,-0.039721,0.007259,0.098666,0.999984,0.000983,-0.003484,0.004354,-0.572475,0.076911,-0.132303,-0.805514,7.476275,15.984998,110.248707
29430,-3.172307,0.945249,10.067498,0.479493,-0.157389,0.772962,0.168728,-0.789189,0.994746,-0.032166,0.009208,0.100556,0.999979,0.000844,-0.003946,0.004974,-0.569005,0.072593,-0.131066,-0.808570,7.712057,15.458938,110.778856
29431,-4.415914,-1.680093,10.973922,3.484920,-0.241076,1.612993,0.217823,-0.821778,1.128408,-0.044513,-0.017171,0.109538,0.999975,0.001089,-0.004109,0.005642,-0.565002,0.067765,-0.129940,-0.811970,7.996247,14.884979,111.382689
29432,-3.533879,0.305289,9.810733,1.391237,-0.499017,0.514228,0.639712,-1.152335,1.289397,-0.035921,0.002509,0.097910,0.999958,0.003199,-0.005762,0.006447,-0.560670,0.060442,-0.129675,-0.815586,8.524149,14.122856,112.045141
29433,-2.616297,-0.595694,7.945186,1.916768,0.040158,-1.648771,0.236366,-0.985957,1.296092,-0.026514,-0.006222,0.079314,0.999966,0.001182,-0.004930,0.006480,-0.556031,0.054778,-0.128184,-0.819388,8.820716,13.433535,112.719758
29434,-4.460382,-1.042167,8.218853,3.123673,-1.428616,-1.053046,0.367497,-0.889955,1.257703,-0.044902,-0.010854,0.081969,0.999969,0.001837,-0.004450,0.006288,-0.551493,0.049305,-0.127517,-0.822900,9.175262,12.814541,113.373895
29435,-3.089353,-0.130215,7.130031,1.769449,-0.854354,-2.293571,0.129403,-0.742678,1.080040,-0.031150,-0.001516,0.071184,0.999978,0.000647,-0.003713,0.005400,-0.547498,0.045071,-0.126182,-0.826010,9.370988,12.276390,113.935418
29436,-3.966386,-1.349708,8.101886,3.340650,-0.962494,-1.380129,-0.111801,-0.411660,0.900545,-0.039769,-0.013631,0.080945,0.999988,-0.000559,-0.002058,0.004503,-0.543967,0.043111,-0.124756,-0.828660,9.404492,11.956834,114.421889
29437,-5.287893,-0.638382,8.498931,3.302989,-2.321023,-0.630975,0.207315,-0.434167,0.842130,-0.053035,-0.006695,0.084867,0.999988,0.001037,-0.002171,0.004211,-0.540742,0.040097,-0.124529,-0.830953,9.614046,11.613850,114.871898
29438,-3.041233,0.649494,8.105801,1.228413,-0.933572,-1.269018,-0.039144,-0.299894,0.717621,-0.030557,0.006401,0.081011,0.999992,-0.000196,-0.001499,0.003588,-0.537897,0.038512,-0.123659,-0.833002,9.664664,11.372891,115.261328
29439,-4.767064,-0.946938,9.280295,3.516259,-1.558635,-0.068364,0.144093,-0.187831,0.729233,-0.047723,-0.009710,0.092751,0.999993,0.000720,-0.000939,0.003646,-0.534954,0.036774,-0.123809,-0.834951,9.825113,11.178861,115.668360
29440,-6.187062,-1.264204,10.372991,4.576603,-2.405728,1.175587,0.809223,-0.414271,0.948644,-0.062023,-0.013355,0.103548,0.999978,0.004046,-0.002071,0.004743,-0.531349,0.032294,-0.126211,-0.837076,10.381229,10.847084,116.176187
29441,-7.256317,1.375861,10.571876,2.870668,-4.358535,1.980087,1.291116,-0.737471,1.052797,-0.073021,0.012693,0.105534,0.999959,0.006455,-0.003687,0.005264,-0.527549,0.025004,-0.129733,-0.839188,11.215238,10.302640,116.703873
29442,-6.421001,0.134038,8.351417,3.588265,-3.672549,-0.613354,0.988583,-0.920022,0.873817,-0.064597,0.000647,0.083222,0.999968,0.004943,-0.004600,0.004369,-0.524547,0.017970,-0.131519,-0.840970,11.845853,9.683194,117.100006
29443,-5.743695,-0.962946,6.134914,4.151908,-3.167840,-3.158408,1.282289,-0.715078,0.644480,-0.057623,-0.010207,0.061079,0.999968,0.006411,-0.003575,0.003222,-0.522360,0.011079,-0.135005,-0.841897,12.623926,9.189352,117.383063
29444,-6.123048,0.625138,5.421567,2.935839,-4.325604,-3.492469,1.230647,-0.359154,0.387652,-0.061339,0.005799,0.054142,0.999978,0.006153,-0.001796,0.001938,-0.520989,0.006092,-0.139225,-0.842110,13.352406,8.935920,117.560316
29445,-6.180144,0.368236,5.659014,3.296608,-4.185947,-3.334727,1.036465,0.096762,0.245152,-0.061778,0.003313,0.056638,0.999986,0.005182,0.000484,0.001226,-0.519868,0.003543,-0.143765,-0.842055,13.967119,8.942602,117.716834
29446,-10.421467,0.865939,7.398979,5.139738,-7.622817,-0.892134,1.041328,0.234457,0.349280,-0.104142,0.008092,0.074155,0.999984,0.005207,0.001172,0.001746,-0.518202,0.001573,-0.148721,-0.842227,14.595855,9.020309,117.951583
29447,-8.497926,1.471743,6.089425,3.609743,-6.477659,-2.297971,0.572220,0.082756,0.564270,-0.084995,0.014303,0.060971,0.999992,0.002861,0.000414,0.002821,-0.515720,-0.000052,-0.151272,-0.843297,14.972120,8.971330,118.285311
29448,-8.707940,-0.250881,4.082688,4.964302,-6.398740,-4.619356,0.185541,0.368455,0.822428,-0.086993,-0.002905,0.040985,0.999989,0.000928,0.001842,0.004112,-0.511931,0.000401,-0.152961,-0.845299,15.155486,9.049546,118.806385
29449,-11.324207,-1.433831,4.206499,7.331856,-8.041590,-4.375488,-0.031426,0.670166,1.037388,-0.113024,-0.014918,0.042446,0.999981,-0.000157,0.003351,0.005187,-0.506981,0.002463,-0.154473,-0.847999,15.242801,9.253781,119.494247
29450,-14.036689,-1.257318,4.342335,8.630600,-10.290506,-3.723319,0.061513,0.725088,1.130163,-0.140134,-0.013379,0.043928,0.999977,0.000308,0.003625,0.005651,-0.501580,0.004508,-0.156541,-0.850818,15.395404,9.480199,120.243260
29451,-11.280197,-3.577517,1.196389,8.865090,-7.647346,-7.715092,-0.124358,0.876524,0.497291,-0.112659,-0.036048,0.012480,0.999987,-0.000622,0.004383,0.002486,-0.498729,0.008126,-0.158157,-0.852168,15.389799,9.881103,120.661966
29452,-2.325617,-0.164228,4.824555,2.011743,-0.507859,-4.872451,1.508789,1.543556,-0.606535,-0.022889,-0.001937,0.048409,0.999937,0.007544,0.007718,-0.003033,-0.500085,0.011418,-0.168359,-0.849376,16.233541,10.823479,120.571818
29453,-3.132826,11.649856,20.405603,-5.348708,-1.444751,13.235011,1.355638,1.673771,-1.467882,-0.028765,0.115328,0.205088,0.999915,0.006778,0.008369,-0.007339,-0.504906,0.016351,-0.178143,-0.844433,16.898459,11.976198,120.033073
29454,-3.822790,2.937350,13.560205,1.289322,-0.161651,4.520035,-1.138989,0.917563,-1.218310,-0.037423,0.030375,0.135604,0.999955,-0.005695,0.004588,-0.006091,-0.509079,0.024183,-0.175502,-0.842290,16.128740,12.675361,119.505782
29455,-3.095303,-4.060001,4.890943,5.675691,0.666897,-5.650064,0.608442,1.262236,-0.479825,-0.030742,-0.040675,0.048980,0.999973,0.003042,0.006311,-0.002399,-0.510012,0.028347,-0.181160,-0.840396,16.459494,13.440361,119.447981
29456,-1.708552,1.160856,8.885530,1.047260,1.126015,-0.820926,1.323059,1.589419,-0.135410,-0.016371,0.011031,0.089062,0.999946,0.006615,0.007947,-0.000677,-0.509264,0.031771,-0.190703,-0.838614,17.261107,14.331062,119.648365
29457,-2.358045,-0.134278,10.869906,2.802561,2.010920,0.762300,1.413334,1.675903,-0.163812,-0.022670,-0.002093,0.108879,0.999940,0.007067,0.008379,-0.000819,-0.508508,0.035335,-0.200800,-0.836570,18.119972,15.268226,119.862234
29458,-4.298562,2.240833,10.484345,1.677189,-0.487369,1.605087,1.468412,1.420550,-0.344064,-0.042201,0.021709,0.105306,0.999946,0.007342,0.007103,-0.001720,-0.508716,0.037885,-0.210443,-0.833958,18.978277,16.099108,119.941773
29459,-0.960079,-0.359897,7.501320,1.924955,2.337784,-2.873803,1.539717,1.595061,-0.183075,-0.009006,-0.004168,0.075056,0.999938,0.007698,0.007975,-0.000915,-0.508024,0.040793,-0.220811,-0.831559,19.916649,16.989626,120.160332
29460,-4.025733,4.629628,9.806247,-0.439760,-0.957352,1.706091,2.429372,1.795344,0.393119,-0.039461,0.045020,0.098971,0.999884,0.012146,0.008976,0.001966,-0.504807,0.041645,-0.235487,-0.829446,21.485756,17.868610,120.766902
29461,-11.287970,14.363888,12.835830,-4.458180,-8.896209,10.173374,2.480890,1.554104,0.697963,-0.112365,0.141632,0.130998,0.999887,0.012404,0.007770,0.003490,-0.500506,0.040985,-0.249753,-0.827911,23.134984,18.534202,121.516225
29462,-6.276711,9.913860,8.616706,-3.717985,-4.825439,3.409272,0.218871,0.951002,0.501531,-0.062604,0.098887,0.086573,0.999985,0.001094,0.004755,0.002508,-0.497243,0.043742,-0.253099,-0.828720,23.419754,18.917359,122.026797
29463,-11.110430,8.420876,11.471445,0.540262,-6.717855,6.936150,0.249425,0.789507,0.558447,-0.110884,0.083755,0.115257,0.999988,0.001247,0.003948,0.002792,-0.493940,0.045669,-0.256168,-0.829648,23.723134,19.198447,122.532874
29464,-4.896745,3.587350,9.069083,1.068248,-1.006534,1.001247,-0.345578,0.115309,0.472513,-0.049000,0.035914,0.090657,0.999996,-0.001728,0.000577,0.002363,-0.491714,0.046389,-0.255087,-0.831261,23.617486,19.146417,122.827943
29465,-4.739373,4.394711,9.557734,0.414415,-0.958565,1.677944,0.164471,0.264844,0.686460,-0.047417,0.043706,0.095676,0.999993,0.000822,0.001324,0.003432,-0.488520,0.046197,-0.256538,-0.832708,23.854820,19.122278,123.278184
29466,-4.521604,3.387099,8.922259,1.080931,-0.683537,0.670071,0.031584,0.014516,0.790887,-0.045343,0.033678,0.089231,0.999992,0.000158,0.000073,0.003954,-0.485175,0.045160,-0.256847,-0.834623,24.013857,18.942176,123.724334
29467,-3.748361,3.771576,8.694981,0.376081,-0.332973,0.366943,0.388764,0.042843,0.922087,-0.037638,0.037373,0.087031,0.999987,0.001944,0.000214,0.004610,-0.481316,0.043200,-0.258737,-0.836376,24.401380,18.743424,124.248548
29468,-4.253786,4.648894,8.750256,0.013687,-1.051187,0.918947,0.397810,-0.045738,0.983902,-0.042785,0.046105,0.087585,0.999986,0.001989,-0.000229,0.004919,-0.477302,0.040771,-0.260460,-0.838260,24.795111,18.481023,124.782291
29469,-2.434552,3.837711,8.171795,-0.325835,0.421223,-0.477310,0.408379,-0.021930,1.010697,-0.024547,0.038086,0.081793,0.999985,0.002042,-0.000110,0.005053,-0.473133,0.038377,-0.262282,-0.840167,25.198315,18.220527,125.334036
29470,-3.209492,4.229950,8.912451,-0.006412,0.013103,0.561527,0.422794,0.003992,0.987461,-0.032301,0.041952,0.089214,0.999986,0.002114,0.000020,0.004937,-0.469017,0.036092,-0.264214,-0.841969,25.604702,17.975924,125.877066
29471,-3.360053,4.704289,8.625736,-0.276531,-0.439724,0.558098,0.402424,-0.093107,0.905540,-0.033853,0.046716,0.086336,0.999988,0.002012,-0.000466,0.004528,-0.465357,0.033548,-0.265809,-0.843601,25.974947,17.697642,126.347733
29472,-3.500425,5.320781,8.566980,-0.623083,-0.847480,0.810395,0.307591,-0.142774,0.802576,-0.035278,0.052935,0.085726,0.999991,0.001538,-0.000714,0.004013,-0.462172,0.031155,-0.266867,-0.845109,26.267160,17.417713,126.747262
29473,-2.827760,4.519575,8.059892,-0.402106,-0.251475,-0.160773,0.137585,-0.230883,0.653924,-0.028518,0.045047,0.080597,0.999994,0.000688,-0.001154,0.003270,-0.459697,0.028977,-0.266976,-0.846500,26.429065,17.128385,127.041668
29474,-2.498204,4.418393,8.376080,-0.404792,0.170247,-0.028572,0.070226,-0.215186,0.518948,-0.025187,0.044089,0.083749,0.999996,0.000351,-0.001076,0.002595,-0.457759,0.027204,-0.266813,-0.847660,26.530564,16.881400,127.266705
29475,-3.326531,4.336700,8.988986,0.294620,-0.160656,0.702154,-0.050657,-0.238393,0.422314,-0.033464,0.043319,0.089839,0.999997,-0.000253,-0.001192,0.002112,-0.456241,0.025733,-0.266070,-0.848757,26.545326,16.646539,127.433326
29476,-3.784508,3.440525,9.480287,1.385771,0.079503,0.869478,-0.233344,-0.369233,0.268598,-0.038066,0.034465,0.094693,0.999997,-0.001167,-0.001846,0.001343,-0.455524,0.024333,-0.264231,-0.849757,26.421145,16.384506,127.482805
29477,-3.200020,2.222794,9.185175,1.953034,0.873698,-0.067411,-0.265807,-0.507299,0.058890,-0.032240,0.022340,0.091741,0.999996,-0.001329,-0.002536,0.000294,-0.455872,0.022694,-0.261912,-0.850334,26.236868,16.104620,127.384269
29478,-2.518869,2.056197,8.999605,1.652361,1.323523,-0.480847,-0.276158,-0.559761,-0.190055,-0.025421,0.020710,0.089897,0.999995,-0.001381,-0.002799,-0.000950,-0.457343,0.021185,-0.259399,-0.850353,26.006804,15.860577,127.139901
29479,-3.196477,3.008737,9.361926,1.362245,0.480908,0.425879,-0.277349,-0.658254,-0.446376,-0.032205,0.030289,0.093472,0.999991,-0.001387,-0.003291,-0.002232,-0.460024,0.019590,-0.256621,-0.849788,25.732878,15.628485,126.733992
29480,-2.501015,2.788655,8.858396,1.015808,0.811432,-0.283157,-0.470853,-0.806161,-0.754507,-0.025261,0.028190,0.088416,0.999982,-0.002354,-0.004031,-0.003773,-0.464173,0.018208,-0.252648,-0.848753,25.296187,15.393860,126.126882
29481,-1.992147,2.626320,8.673164,0.787752,1.116975,-0.635477,-0.522529,-0.829890,-1.062956,-0.020140,0.026596,0.086579,0.999974,-0.002613,-0.004149,-0.005315,-0.469636,0.017234,-0.248355,-0.847033,24.786651,15.216612,125.350306
29482,-2.628791,3.927712,8.248135,-0.042194,-0.210919,-0.308892,-0.616886,-0.830684,-1.318925,-0.026369,0.039705,0.082250,0.999965,-0.003084,-0.004153,-0.006595,-0.476147,0.016795,-0.243629,-0.844776,24.190072,15.092807,124.437746
29483,-1.913699,4.822487,8.111391,-1.258684,-0.143301,-0.267646,-0.622267,-0.759016,-1.330291,-0.019122,0.048604,0.080890,0.999966,-0.003111,-0.003795,-0.006651,-0.482586,0.016685,-0.239027,-0.842436,23.594679,14.999692,123.537949
29484,-2.290403,5.781781,8.322469,-1.885653,-0.810888,0.371822,-0.738689,-0.662219,-1.219885,-0.022824,0.058264,0.082934,0.999969,-0.003693,-0.003311,-0.006099,-0.488403,0.017130,-0.234168,-0.840437,22.956373,14.923517,122.722569
29485,-2.850033,5.621963,8.362504,-1.550581,-1.238113,0.469443,-0.819970,-0.623518,-1.117539,-0.028444,0.056721,0.083304,0.999971,-0.004100,-0.003118,-0.005588,-0.493708,0.017813,-0.229052,-0.838731,22.289229,14.835833,121.973218
29486,-2.175065,4.644844,8.205766,-1.210059,-0.411764,-0.220758,-0.989418,-0.573123,-1.036315,-0.021743,0.046966,0.081764,0.999970,-0.004947,-0.002866,-0.005182,-0.498571,0.019033,-0.223349,-0.837365,21.541092,14.749082,121.281207
29487,-2.246301,3.838768,8.387437,-0.557837,-0.140092,-0.336445,-1.004531,-0.493188,-0.971513,-0.022481,0.038917,0.083624,0.999973,-0.005023,-0.002466,-0.004858,-0.503043,0.020550,-0.217773,-0.836122,20.799017,14.682484,120.643571
29488,-1.112059,2.891599,8.117210,-0.451789,1.017506,-1.196025,-1.012559,-0.395322,-0.935411,-0.011144,0.029378,0.081002,0.999974,-0.005063,-0.001977,-0.004677,-0.507230,0.022458,-0.212404,-0.834924,20.063312,14.653717,120.047271
29489,-0.600321,2.827021,8.118880,-0.726679,1.426801,-1.344856,-0.968780,-0.194549,-0.913533,-0.005952,0.028690,0.081045,0.999977,-0.004844,-0.000973,-0.004568,-0.511092,0.025065,-0.207717,-0.833673,19.365926,14.721215,119.503672
29490,-1.057045,2.275021,8.346905,-0.080569,1.311159,-1.196568,-0.959875,-0.019303,-0.902913,-0.010474,0.023198,0.083357,0.999978,-0.004799,-0.000097,-0.004515,-0.514707,0.028371,-0.203509,-0.832379,18.682441,14.875899,118.998769
29491,-2.402565,2.120723,9.619893,0.801544,0.677498,0.272449,-0.693272,0.042208,-0.810399,-0.023918,0.021638,0.096129,0.999986,-0.003466,0.000211,-0.004052,-0.517894,0.031146,-0.200571,-0.831016,18.166249,15.041265,118.555439
29492,-3.468457,2.604392,9.650195,0.792320,-0.425125,0.729144,-0.577494,-0.070833,-0.739915,-0.034621,0.026451,0.096414,0.999989,-0.002887,-0.000354,-0.003700,-0.520906,0.033087,-0.197830,-0.829714,17.719968,15.129852,118.129526
29493,-2.646914,0.769853,8.967001,1.859450,0.696560,-0.644104,-0.434421,-0.043542,-0.668061,-0.026462,0.007982,0.089647,0.999992,-0.002172,-0.000218,-0.003340,-0.523607,0.034691,-0.195758,-0.828439,17.366598,15.217251,117.748346
29494,-2.622011,1.886223,9.552919,0.904555,0.494088,0.218691,-0.264508,-0.027243,-0.613850,-0.026175,0.019069,0.095500,0.999994,-0.001323,-0.000136,-0.003069,-0.526090,0.035870,-0.194444,-0.827124,17.118853,15.303246,117.400168
29495,-2.342875,0.826337,8.963733,1.595868,0.905015,-0.693780,-0.197747,0.008272,-0.599710,-0.023400,0.008422,0.089630,0.999995,-0.000989,0.000041,-0.002999,-0.528487,0.037002,-0.193493,-0.825768,16.911967,15.404210,117.065615
29496,-2.419667,1.437752,9.667793,1.161005,0.867313,0.151646,-0.034576,0.079413,-0.599138,-0.024115,0.014467,0.096685,0.999995,-0.000173,0.000397,-0.002996,-0.530838,0.037999,-0.193409,-0.824233,16.801596,15.543981,116.743245
29497,-2.714861,2.435360,9.325468,0.328126,0.136013,0.194289,-0.032692,0.006721,-0.639078,-0.027067,0.024455,0.093252,0.999995,-0.000163,0.000034,-0.003195,-0.533419,0.038728,-0.193121,-0.822599,16.681220,15.649014,116.385037
29498,-1.645970,2.426072,8.836170,-0.211509,0.896831,-0.548571,0.026784,0.085798,-0.607626,-0.016348,0.024299,0.088372,0.999995,0.000134,0.000429,-0.003038,-0.535801,0.039595,-0.193302,-0.820965,16.603400,15.792518,116.057985
29499,-2.865252,3.713874,9.237779,-0.807384,-0.445569,0.506645,0.109778,0.069943,-0.529408,-0.028522,0.037164,0.092408,0.999996,0.000549,0.000350,-0.002647,-0.537889,0.040095,-0.193785,-0.819460,16.582905,15.913336,115.772389
29500,-2.450367,2.733784,8.339108,-0.246224,-0.052270,-0.704714,0.017403,0.104629,-0.470527,-0.024396,0.027388,0.083406,0.999997,0.000087,0.000523,-0.002353,-0.539681,0.040932,-0.194004,-0.818188,16.520555,16.044307,115.526203
29501,-2.473736,2.302763,8.641096,0.177342,0.202982,-0.538103,0.068167,0.179374,-0.468728,-0.024606,0.023056,0.086441,0.999997,0.000341,0.000897,-0.002344,-0.541400,0.041932,-0.194622,-0.816854,16.489669,16.214943,115.293288
29502,-2.006282,1.250037,8.579951,0.907221,0.964128,-1.012082,0.008217,0.232444,-0.581516,-0.019927,0.012555,0.085823,0.999995,0.000041,0.001162,-0.002908,-0.543511,0.043424,-0.195123,-0.815253,16.408651,16.433733,115.004485
29503,-2.334588,1.701414,9.114767,0.692702,0.751160,-0.305852,0.196554,0.259711,-0.643919,-0.023173,0.016999,0.091195,0.999993,0.000983,0.001299,-0.003220,-0.545884,0.044573,-0.196439,-0.813287,16.424539,16.676485,114.683875
29504,-3.280386,1.833997,9.780149,1.032959,0.164520,0.612359,0.208383,0.257545,-0.665692,-0.032617,0.018347,0.097863,0.999993,0.001042,0.001288,-0.003328,-0.548344,0.045704,-0.197801,-0.811236,16.442951,16.922639,114.350227
29505,-3.180181,2.643994,9.456913,0.198376,-0.093232,0.506678,0.226370,0.169269,-0.685840,-0.031631,0.026442,0.094626,0.999993,0.001132,0.000846,-0.003429,-0.550971,0.046445,-0.198975,-0.809125,16.461489,17.122675,113.989500
29506,-2.800371,2.988225,8.900464,-0.353797,-0.042413,-0.021736,0.241975,0.183418,-0.669660,-0.027822,0.029868,0.089066,0.999993,0.001210,0.000917,-0.003348,-0.553513,0.047186,-0.200263,-0.807026,16.492196,17.328986,113.640390
29507,-2.727375,4.004608,8.525018,-1.376006,-0.393248,-0.112007,0.191992,0.200687,-0.618142,-0.027064,0.040048,0.085316,0.999994,0.000960,0.001003,-0.003091,-0.555812,0.048081,-0.201396,-0.805109,16.501713,17.535543,113.323371
29508,-2.205891,4.076194,8.352951,-1.677976,0.018562,-0.408594,0.148530,0.276265,-0.522313,-0.021837,0.040757,0.083590,0.999995,0.000743,0.001381,-0.002612,-0.557633,0.049305,-0.202597,-0.803473,16.506751,17.769035,113.074352
29509,-2.841174,4.096685,8.610429,-1.440422,-0.403497,0.023813,0.060217,0.334991,-0.444273,-0.028176,0.041004,0.086164,0.999996,0.000301,0.001675,-0.002221,-0.559055,0.050928,-0.203615,-0.802125,16.476319,18.020982,112.879905
29510,-2.731707,3.509930,8.306952,-1.012926,-0.211605,-0.446990,-0.037779,0.384589,-0.422238,-0.027083,0.035172,0.083115,0.999996,-0.000189,0.001923,-0.002111,-0.560308,0.053006,-0.204392,-0.800918,16.395999,18.297497,112.706241
29511,-2.750738,3.131170,8.600375,-0.648770,0.035463,-0.277762,-0.103553,0.454529,-0.426235,-0.027245,0.031414,0.086050,0.999995,-0.000518,0.002273,-0.002131,-0.561484,0.055545,-0.205090,-0.799743,16.279538,18.611733,112.541286
29512,-3.841256,3.201273,9.366087,-0.245875,-0.595471,0.785032,-0.073482,0.451433,-0.368799,-0.038142,0.032118,0.093735,0.999996,-0.000367,0.002257,-0.001844,-0.562436,0.057934,-0.205923,-0.798690,16.190121,18.915878,112.408341
29513,-3.466604,2.997897,9.090503,-0.267694,-0.277303,0.360473,-0.119754,0.402938,-0.302521,-0.034437,0.030086,0.090957,0.999997,-0.000599,0.002015,-0.001513,-0.563156,0.060185,-0.206445,-0.797881,16.082986,19.181497,112.305004
29514,-3.649443,3.059712,9.701762,-0.207886,-0.172318,0.991540,-0.053973,0.399729,-0.269889,-0.036259,0.030672,0.097082,0.999997,-0.000270,0.001999,-0.001349,-0.563766,0.062210,-0.207235,-0.797090,16.019274,19.441099,112.219617
29515,-3.780633,2.816714,9.222910,-0.035233,-0.379474,0.538337,-0.209325,0.277372,-0.290189,-0.037637,0.028318,0.092252,0.999997,-0.001047,0.001387,-0.001451,-0.564531,0.064199,-0.207048,-0.796438,15.855029,19.635295,112.101251
29516,-3.205266,1.227164,9.063710,1.177093,0.522707,-0.206877,-0.117776,0.321787,-0.297462,-0.031888,0.012373,0.090681,0.999997,-0.000589,0.001609,-0.001487,-0.565306,0.066121,-0.207354,-0.795651,15.743842,19.855870,111.985353
29517,-3.075957,0.324215,9.381485,1.980632,1.036787,-0.190789,-0.087052,0.301463,-0.405745,-0.030611,0.003345,0.093860,0.999997,-0.000435,0.001507,-0.002029,-0.566541,0.067981,-0.207681,-0.794531,15.626473,20.080805,111.801874
29518,-3.570764,-1.466116,11.189109,4.022710,1.850610,1.164061,0.082465,0.294738,-0.540992,-0.035582,-0.014611,0.111938,0.999995,0.000412,0.001474,-0.002705,-0.568372,0.069480,-0.208621,-0.792845,15.577767,20.323605,111.537189
29519,-4.697686,0.426252,11.035477,2.626502,0.321169,1.893293,0.404389,0.122988,-0.629369,-0.046896,0.004187,0.110392,0.999993,0.002022,0.000615,-0.003147,-0.570839,0.069471,-0.210305,-0.790625,15.683526,20.484377,111.191729
29520,-1.605309,1.054608,8.327364,0.637034,1.760788,-1.474343,0.035414,0.112142,-0.908102,-0.015958,0.010604,0.083284,0.999990,0.000177,0.000561,-0.004540,-0.574281,0.070768,-0.210410,-0.787985,15.519328,20.682979,110.679924
29521,-3.209436,2.199025,9.184137,0.181814,0.448748,0.149737,0.116964,0.259706,-1.060311,-0.031858,0.022106,0.091896,0.999985,0.000585,0.001299,-0.005302,-0.578183,0.072568,-0.211186,-0.784754,15.374415,20.983893,110.100509
29522,-2.724138,2.114189,9.619123,0.113693,1.115774,0.344080,-0.143625,0.332806,-1.199872,-0.026954,0.021373,0.096221,0.999980,-0.000718,0.001664,-0.005999,-0.582440,0.075556,-0.211108,-0.781338,15.051942,21.345115,109.447887
29523,-3.861618,2.151651,10.975432,0.516217,0.715175,1.986576,-0.394069,0.350336,-1.457104,-0.038265,0.022012,0.109779,0.999970,-0.001970,0.001752,-0.007285,-0.587561,0.079606,-0.209980,-0.777395,14.523504,21.747859,108.639872
29524,-1.811897,2.007085,11.125689,-0.069822,2.653582,1.324813,-0.884854,0.399246,-1.867447,-0.017705,0.020730,0.111202,0.999945,-0.004424,0.001996,-0.009337,-0.593980,0.085715,-0.206922,-0.772674,13.617280,22.226795,107.585760
29525,-1.555414,3.452546,12.559860,-1.547647,3.233745,2.806039,-1.303220,0.503754,-2.117966,-0.014866,0.035503,0.125407,0.999920,-0.006516,0.002519,-0.010590,-0.601000,0.093713,-0.202405,-0.767496,12.403557,22.776591,106.381173
29526,0.717522,2.987936,13.283559,-1.876213,5.696887,2.431238,-1.985915,0.603037,-1.934223,0.007872,0.031122,0.132508,0.999899,-0.009929,0.003015,-0.009671,-0.606784,0.103945,-0.195634,-0.763371,10.830799,23.335321,105.282412
29527,1.428165,1.566070,12.674347,-0.962052,6.384695,1.297562,-1.553829,0.732436,-1.616643,0.014877,0.016526,0.126564,0.999930,-0.007769,0.003662,-0.008083,-0.611354,0.113020,-0.191014,-0.759597,9.570557,23.906972,104.373680
29528,3.263693,4.443866,13.079128,-4.323492,7.741909,1.270173,-1.136150,0.824334,-1.271917,0.033460,0.044969,0.130400,0.999955,-0.005681,0.004122,-0.006359,-0.614690,0.120836,-0.188457,-0.756332,8.627519,24.485927,103.672224
29529,5.278569,4.470743,12.924053,-4.928328,9.538493,0.167647,-1.106107,0.914259,-0.964795,0.053592,0.045163,0.128748,0.999963,-0.005530,0.004571,-0.004824,-0.616752,0.128578,-0.186431,-0.753876,7.772351,25.076455,103.157324
29530,5.719804,2.348892,13.715066,-3.048808,10.716168,0.296796,-1.081459,0.968302,-0.765439,0.057952,0.024008,0.136742,0.999966,-0.005407,0.004841,-0.003827,-0.617980,0.136276,-0.184809,-0.751914,6.978058,25.680450,102.760443
29531,3.462636,2.499264,15.504409,-2.821621,9.583612,2.789448,-0.631981,0.693579,-0.759413,0.035259,0.025349,0.154843,0.999982,-0.003160,0.003468,-0.003797,-0.619719,0.141500,-0.183984,-0.749717,6.425964,26.117059,102.337429
29532,4.064486,0.892551,13.487678,-1.460438,9.518666,0.507003,-0.564224,0.254283,-1.144784,0.040868,0.009072,0.134799,0.999979,-0.002821,0.001271,-0.005724,-0.623326,0.145255,-0.181810,-0.746532,5.787074,26.329309,101.633474
29533,3.925770,-0.094544,12.402488,-0.471034,9.084652,-0.512728,-0.166208,0.199096,-1.876392,0.039371,-0.001211,0.123987,0.999955,-0.000831,0.000995,-0.009382,-0.629968,0.148167,-0.180360,-0.740714,5.162892,26.534752,100.456601
29534,3.644451,3.811025,13.139411,-4.212703,8.679375,0.549273,0.049321,0.042931,-2.317788,0.036911,0.037652,0.131396,0.999933,0.000247,0.000215,-0.011589,-0.638470,0.150256,-0.178916,-0.733327,4.527544,26.669159,98.984863
29535,4.980821,4.395011,11.787994,-4.921953,9.259773,-1.262166,-0.317088,-0.069269,-2.180554,0.050244,0.043591,0.117828,0.999939,-0.001585,-0.000346,-0.010903,-0.646220,0.152894,-0.175797,-0.726718,3.716374,26.707022,97.593507
29536,3.760374,5.303568,12.079472,-5.638250,8.287434,-0.447327,-0.243531,-0.141174,-1.626464,0.037949,0.052875,0.120757,0.999966,-0.001218,-0.000706,-0.008132,-0.652008,0.154598,-0.173174,-0.721800,3.104792,26.679570,96.552833
29537,2.653476,5.170533,12.646848,-5.390908,7.594858,0.530151,-0.366482,-0.423904,-0.918456,0.026505,0.051815,0.126430,0.999986,-0.001832,-0.002120,-0.004592,-0.655368,0.154979,-0.169667,-0.719505,2.625736,26.449285,95.958906
29538,3.145575,4.946204,12.187630,-5.235653,7.810221,-0.092305,-0.304266,-0.667664,-0.289991,0.031121,0.049602,0.121905,0.999992,-0.001521,-0.003338,-0.001450,-0.656699,0.153825,-0.166127,-0.719365,2.359376,26.072267,95.761199
29539,1.743512,4.926513,12.160896,-5.117383,6.461296,0.543981,-0.323978,-0.837198,0.221974,0.016871,0.049481,0.121600,0.999989,-0.001620,-0.004186,0.001110,-0.656311,0.151600,-0.162289,-0.721066,2.226752,25.572398,95.888771
29540,2.065760,5.218052,11.244784,-5.468827,6.207936,-0.352663,-0.343903,-0.991751,0.651101,0.019930,0.052440,0.112458,0.999981,-0.001720,-0.004959,0.003255,-0.654457,0.148629,-0.158253,-0.724259,2.193386,24.988165,96.282698
29541,1.564248,5.340390,10.476810,-5.571007,5.272286,-0.763121,-0.338237,-1.028384,1.031421,0.014828,0.053659,0.104755,0.999972,-0.001691,-0.005142,0.005157,-0.651236,0.145087,-0.154329,-0.728714,2.261778,24.359652,96.915268
29542,2.170208,5.266560,9.557022,-5.593362,5.289906,-1.780778,-0.337011,-1.034956,1.369557,0.020845,0.052971,0.095590,0.999962,-0.001685,-0.005175,0.006848,-0.646737,0.141358,-0.150686,-0.734195,2.405587,23.733147,97.753224
29543,1.429402,3.751420,10.040716,-4.037096,4.834603,-1.023007,-0.195252,-0.935236,1.768330,0.013491,0.037734,0.100435,0.999950,-0.000976,-0.004676,0.008842,-0.640748,0.137101,-0.148089,-0.740753,2.723841,23.134543,98.838211
29544,-0.596065,2.845554,9.973073,-2.825208,2.939336,-0.258090,0.419788,-1.125248,2.242119,-0.006839,0.028173,0.099753,0.999919,0.002099,-0.005626,0.011210,-0.633475,0.129924,-0.147531,-0.748374,3.486027,22.419033,100.197331
29545,-0.079091,4.408814,9.973508,-4.356933,2.999828,-0.277057,0.678473,-1.125747,2.551493,-0.001912,0.043730,0.099875,0.999897,0.003392,-0.005629,0.012757,-0.625100,0.121545,-0.148044,-0.756677,4.448413,21.655446,101.730172
29546,-4.228529,5.073104,12.803002,-4.044781,-0.019719,4.013529,0.706936,-0.977811,2.587391,-0.043559,0.049721,0.127996,0.999898,0.003535,-0.004889,0.012937,-0.616362,0.113714,-0.149185,-0.764794,5.408431,20.967583,103.269520
29547,-6.524829,5.094693,12.884766,-3.347607,-2.332267,4.948410,-0.064288,-1.558405,2.188720,-0.066802,0.050263,0.128315,0.999910,-0.000321,-0.007792,0.010943,-0.609027,0.106182,-0.145264,-0.772470,5.805464,19.936847,104.515709
29548,-2.503535,1.358030,8.837222,-0.592780,0.476369,-0.559154,-0.357328,-1.532197,1.621702,-0.025821,0.013531,0.088152,0.999936,-0.001787,-0.007661,0.008108,-0.603609,0.100173,-0.140035,-0.778468,5.892868,18.966451,105.406614
29549,-4.482132,3.000850,9.480104,-1.608004,-1.649770,0.848311,-0.035346,-1.310375,1.211256,-0.045622,0.029751,0.094499,0.999960,-0.000177,-0.006552,0.006056,-0.599732,0.094199,-0.136441,-0.782836,6.078465,18.127980,106.059050
29550,-5.428282,4.624663,9.326593,-2.832616,-3.122725,1.144530,-0.027440,-1.344436,1.114170,-0.055165,0.045954,0.092891,0.999962,-0.000137,-0.006722,0.005571,-0.596213,0.088260,-0.132786,-0.786834,6.236142,17.291242,106.644022
29551,-3.291270,3.835744,8.279014,-2.587869,-1.455470,-0.578518,-0.059794,-1.202719,1.301085,-0.033658,0.038165,0.082578,0.999961,-0.000299,-0.006014,0.006505,-0.591804,0.082712,-0.129436,-0.791311,6.404434,16.505285,107.345904
29552,-6.577160,1.637371,8.635066,0.600506,-3.888826,0.435081,0.546243,-1.182790,1.770445,-0.066421,0.015552,0.086002,0.999940,0.002731,-0.005914,0.008852,-0.585716,0.075270,-0.128785,-0.796672,6.982512,15.711515,108.317701
29553,-3.744083,3.327746,6.708065,-1.730789,-2.440136,-1.993721,1.123457,-1.263935,2.146905,-0.038216,0.032493,0.067025,0.999907,0.005617,-0.006319,0.010734,-0.578304,0.065433,-0.130259,-0.802693,7.933503,14.815240,109.491008
29554,-3.439152,3.382282,6.611640,-1.688144,-2.288785,-2.138746,1.256028,-0.778657,2.325444,-0.035036,0.033002,0.066190,0.999905,0.006280,-0.003893,0.011627,-0.569795,0.057159,-0.133758,-0.808811,8.973733,14.175449,110.789742
29555,-8.064234,4.010950,9.457711,-0.223506,-5.926694,1.822606,1.586034,-0.628789,2.456443,-0.081418,0.038362,0.094631,0.999888,0.007930,-0.003144,0.012282,-0.560627,0.048327,-0.138974,-0.814891,10.210032,13.567336,112.163473
29556,-8.746477,4.661719,10.949354,-0.069586,-6.398039,3.497713,1.331913,-1.059793,2.307847,-0.088569,0.044871,0.109329,0.999897,0.006659,-0.005299,0.011539,-0.552186,0.038670,-0.141934,-0.820640,11.246827,12.721751,113.386632
29557,-4.541374,0.344884,8.734024,2.351912,-1.812718,-0.420924,0.833205,-1.273225,1.929886,-0.045997,0.002644,0.087061,0.999925,0.004166,-0.006366,0.009649,-0.545244,0.029658,-0.142113,-0.825611,11.926812,11.767682,114.350895
29558,-4.948495,0.392709,8.020940,2.579703,-2.433803,-1.072209,1.035264,-1.085168,1.559237,-0.049946,0.003125,0.079957,0.999941,0.005176,-0.005426,0.007796,-0.539663,0.021248,-0.143611,-0.829270,12.665297,10.966986,115.111172
29559,-7.206190,4.235114,9.584121,0.420840,-5.541224,1.625637,0.479326,-0.908758,1.198850,-0.072748,0.041687,0.095612,0.999969,0.002397,-0.004544,0.005994,-0.535331,0.015217,-0.143181,-0.832279,13.042291,10.289809,115.680178
29560,-14.791287,1.906639,10.792198,6.090178,-11.142481,3.515368,0.211640,-1.031597,1.214977,-0.148579,0.018051,0.107176,0.999968,0.001058,-0.005158,0.006075,-0.530975,0.009488,-0.141347,-0.835462,13.254907,9.552872,116.236781
29561,-11.355137,4.842416,6.899360,1.671215,-10.328742,-0.299220,0.368848,-1.640294,1.281928,-0.114419,0.047566,0.068146,0.999944,0.001844,-0.008201,0.006410,-0.526720,0.000656,-0.138506,-0.838679,13.543090,8.453543,116.744978
29562,-6.472013,1.816842,3.271756,1.783605,-5.712108,-5.331409,-0.351007,-0.985866,1.146077,-0.064983,0.017854,0.032366,0.999970,-0.001755,-0.004929,0.005730,-0.522542,-0.003347,-0.134395,-0.841948,13.410268,7.748161,117.261905
29563,-8.321816,0.135114,3.397205,4.204069,-6.616367,-5.412656,0.107700,-0.357179,1.270394,-0.083285,0.000804,0.033824,0.999978,0.000538,-0.001786,0.006352,-0.517375,-0.006069,-0.133819,-0.845209,13.557744,7.366208,117.932942
29564,-7.936213,2.876119,4.854214,1.953351,-7.111931,-3.454800,-0.188047,0.114549,1.457318,-0.079541,0.028228,0.048561,0.999973,-0.000940,0.000573,0.007287,-0.511094,-0.006073,-0.133231,-0.849115,13.552006,7.231263,118.771680
29565,-9.443497,1.197088,4.204371,4.130257,-7.788673,-4.284027,-0.968340,0.546001,1.416733,-0.094402,0.011506,0.042245,0.999959,-0.004842,0.002730,0.007084,-0.504680,-0.002296,-0.130401,-0.853398,13.105348,7.336882,119.645751
29566,-9.231424,-2.094121,3.283698,6.783532,-6.235313,-5.876939,-1.968453,0.945725,0.992696,-0.092053,-0.021071,0.033480,0.999928,-0.009842,0.004729,0.004963,-0.499775,0.006060,-0.124326,-0.857165,12.062662,7.738841,120.329700
29567,-9.398760,-5.403456,3.541035,9.728732,-4.668785,-6.121930,-1.965641,1.453408,0.541825,-0.093578,-0.053932,0.036622,0.999922,-0.009828,0.007267,0.002709,-0.496408,0.016805,-0.119480,-0.859663,11.001112,8.482990,120.810237
29568,-18.310173,-7.751648,9.701109,16.751719,-9.574611,1.011103,-1.235910,1.492392,0.530072,-0.182163,-0.077393,0.098851,0.999950,-0.006179,0.007462,0.002650,-0.493070,0.025970,-0.117869,-0.861577,10.360539,9.264164,121.277732
29569,-16.854251,-2.699003,7.850985,11.552605,-11.066224,0.039371,0.352507,0.176523,0.552275,-0.168398,-0.027594,0.078610,0.999994,0.001763,0.000883,0.002761,-0.490588,0.025505,-0.119834,-0.862736,10.612479,9.299010,121.616781
29570,-8.798880,-0.021160,6.157557,5.011641,-5.955502,-2.413253,-0.558815,0.180650,0.146739,-0.087933,-0.000104,0.061655,0.999995,-0.002794,0.000903,0.000734,-0.489733,0.027567,-0.117844,-0.863432,10.305262,9.382752,121.724672
29571,-10.655958,-3.867141,4.630725,9.119524,-5.970695,-4.233037,-0.437030,0.367649,-0.206467,-0.106514,-0.038460,0.046587,0.999995,-0.002185,0.001838,-0.001032,-0.490305,0.030335,-0.116775,-0.863160,10.037213,9.606315,121.649416
29572,-9.075021,-0.911576,4.330723,5.720756,-6.166489,-4.227959,0.075790,0.457070,-0.522624,-0.090674,-0.008895,0.043511,0.999994,0.000379,0.002285,-0.002613,-0.492262,0.032427,-0.118102,-0.861788,10.034080,9.913628,121.401619
29573,-7.513898,0.113600,3.682272,3.952455,-5.500094,-4.897694,0.504603,0.758446,-0.974624,-0.074992,0.001408,0.037111,0.999978,0.002523,0.003792,-0.004873,-0.496044,0.035032,-0.121931,-0.858979,10.233311,10.436781,120.925843
29574,-0.634652,6.629470,7.445642,-4.925672,-1.784656,-1.307437,1.442571,1.029589,-1.193758,-0.005568,0.065790,0.074962,0.999943,0.007213,0.005148,-0.005969,-0.500728,0.036602,-0.130424,-0.854939,10.948811,11.139563,120.356885
29575,5.748013,12.933643,17.840666,-12.826679,3.747761,8.626836,1.131549,1.687096,-1.120564,0.059706,0.127996,0.178636,0.999933,0.005658,0.008435,-0.005603,-0.504552,0.041716,-0.139226,-0.851060,11.501550,12.210258,119.910975
29576,-7.630478,8.091517,12.784713,-2.480107,-6.460991,5.654907,-0.089314,1.521471,0.084325,-0.075364,0.080941,0.128387,0.999971,-0.000447,0.007607,0.000422,-0.503062,0.048356,-0.142658,-0.851023,11.496487,13.051998,120.142648
29577,-2.799721,3.675814,7.207873,-1.391681,-1.886337,-1.578130,-0.025141,1.326383,0.879550,-0.027680,0.036645,0.072258,0.999968,-0.000126,0.006632,0.004398,-0.498311,0.053430,-0.146060,-0.852935,11.632919,13.692525,120.811855
29578,-3.996230,-3.685413,6.859764,5.542505,0.529122,-3.059441,0.322965,1.745932,1.123763,-0.039153,-0.037187,0.068882,0.999945,0.001615,0.008730,0.005619,-0.492262,0.059247,-0.152040,-0.855016,12.024695,14.536760,121.678181
29579,-5.422299,-1.268616,12.508875,4.505481,0.262120,3.114255,1.485402,1.534182,1.050980,-0.053191,-0.013898,0.125399,0.999929,0.007427,0.007671,0.005255,-0.486968,0.061345,-0.162431,-0.855988,13.080097,15.261145,122.489173
29580,-9.061290,1.058917,14.912494,4.619442,-2.724345,6.825967,0.834282,0.977291,0.410553,-0.089903,0.009781,0.149607,0.999977,0.004171,0.004886,0.002053,-0.484621,0.063160,-0.168465,-0.856021,13.654305,15.748508,122.866042
29581,-3.361232,-2.711875,9.953761,4.602016,2.069325,-0.207030,0.113127,0.527519,-0.227365,-0.033380,-0.027137,0.099611,0.999996,0.000566,0.002638,-0.001137,-0.485144,0.065340,-0.170117,-0.855234,13.699942,16.070801,122.813703
29582,-2.626148,-1.711301,8.450769,3.289589,1.723900,-1.600093,0.932914,0.821665,-0.324323,-0.025942,-0.017465,0.084534,0.999979,0.004665,0.004108,-0.001622,-0.486087,0.066863,-0.175952,-0.853399,14.211766,16.569418,122.749117
29583,-3.980499,4.973261,10.185331,-1.574298,-1.729183,1.970694,1.132998,0.699257,-0.266730,-0.039382,0.049207,0.102271,0.999977,0.005665,0.003496,-0.001334,-0.486938,0.067335,-0.182349,-0.851531,14.842341,16.993422,122.704367
29584,-3.961864,4.291807,9.187004,-1.031433,-1.652290,0.898156,0.681889,0.684851,-0.153464,-0.039271,0.042634,0.092151,0.999988,0.003409,0.003424,-0.000767,-0.487151,0.068727,-0.186828,-0.850327,15.235185,17.392018,122.727032
29585,-6.566191,5.573998,10.065195,-0.694322,-3.879067,2.834911,0.826642,0.597760,0.019591,-0.065366,0.055316,0.101077,0.999987,0.004133,0.002989,0.000098,-0.486749,0.069244,-0.191763,-0.849416,15.737357,17.716961,122.839112
29586,-6.275032,4.162037,10.411560,0.407899,-2.785751,2.724143,0.230796,0.353710,-0.056795,-0.062554,0.041518,0.104274,0.999998,0.001154,0.001769,-0.000284,-0.486690,0.070236,-0.193546,-0.848964,15.874236,17.917590,122.869155
29587,-4.240821,2.536229,9.731270,0.699494,-0.652910,1.059246,0.231979,0.236499,-0.101194,-0.042280,0.025271,0.097392,0.999999,0.001160,0.001182,-0.000506,-0.486932,0.070783,-0.195036,-0.848438,15.997745,18.062163,122.854515
29588,-4.373702,3.479808,10.143123,-0.002147,-0.985126,1.726407,0.247705,0.187201,-0.049214,-0.043633,0.034683,0.101515,0.999999,0.001239,0.000936,-0.000246,-0.487006,0.071019,-0.196486,-0.848042,16.137503,18.169780,122.862182
29589,-5.249436,4.422283,10.011294,-0.348334,-2.135585,2.131225,0.223408,0.027091,0.071610,-0.052497,0.044092,0.100169,0.999999,0.001117,0.000135,0.000358,-0.486716,0.070530,-0.197491,-0.848015,16.276524,18.171718,122.913062
29590,-3.537813,3.255380,8.947273,-0.294686,-0.670844,0.317980,0.058156,-0.042375,0.162909,-0.035424,0.032499,0.089475,1.000000,0.000291,-0.000212,0.000815,-0.486048,0.070045,-0.197654,-0.848401,16.333955,18.118935,123.005092
29591,-3.630886,3.240429,9.483328,-0.177031,-0.522724,0.832152,0.113672,-0.027237,0.221613,-0.036358,0.032310,0.094847,0.999999,0.000568,-0.000136,0.001108,-0.485135,0.069445,-0.198116,-0.848865,16.434317,18.066788,123.133493
29592,-4.201508,3.665740,9.621129,-0.212613,-1.119299,1.248884,0.011713,-0.118480,0.211427,-0.042111,0.036607,0.096189,0.999999,0.000059,-0.000592,0.001057,-0.484319,0.068701,-0.197914,-0.849438,16.469529,17.964089,123.240360
29593,-2.530620,2.785753,8.668266,-0.393875,0.208481,-0.373161,-0.069920,-0.158642,0.209986,-0.025404,0.027861,0.086653,0.999999,-0.000350,-0.000793,0.001050,-0.483521,0.068000,-0.197274,-0.850098,16.455405,17.841547,123.339431
29594,-3.090240,3.304223,9.177555,-0.492111,-0.284632,0.403563,-0.026360,-0.109392,0.227167,-0.030990,0.033019,0.091754,0.999999,-0.000132,-0.000547,0.001136,-0.482615,0.067371,-0.196936,-0.850741,16.471606,17.741265,123.456775
29595,-2.902660,2.819685,8.776834,-0.199279,-0.092687,-0.150363,-0.096280,-0.176766,0.227262,-0.029136,0.028206,0.087729,0.999999,-0.000481,-0.000884,0.001136,-0.481750,0.066638,-0.196147,-0.851471,16.444138,17.605905,123.562620
29596,-1.947137,2.046824,8.482487,-0.063846,0.886370,-0.916414,-0.072154,-0.088935,0.223420,-0.019532,0.020477,0.084809,0.999999,-0.000361,-0.000445,0.001117,-0.480822,0.066210,-0.195661,-0.852140,16.434020,17.517520,123.681179
29597,-2.942120,2.203423,9.045635,0.378761,0.238799,-0.059013,-0.008692,-0.062550,0.180997,-0.029469,0.022012,0.090446,1.000000,-0.000043,-0.000313,0.000905,-0.480070,0.065797,-0.195503,-0.852632,16.454192,17.452353,123.779714
29598,-2.631668,1.843257,8.838141,0.506948,0.561906,-0.439146,-0.060436,-0.048455,0.084197,-0.026346,0.018448,0.088369,1.000000,-0.000302,-0.000242,0.000421,-0.479699,0.065650,-0.195118,-0.852941,16.428543,17.408786,123.824875
29599,-2.672929,2.827141,8.400775,-0.334678,-0.106429,-0.561366,-0.026102,-0.046701,-0.009600,-0.026748,0.028284,0.083998,1.000000,-0.000131,-0.000234,-0.000048,-0.479738,0.065533,-0.194860,-0.852987,16.406460,17.383200,123.816296
29600,-0.855630,2.893458,7.378409,-1.439711,0.896269,-2.023654,-0.140477,0.077525,-0.068765,-0.008518,0.028989,0.073767,1.000000,-0.000702,0.000388,-0.000344,-0.479870,0.066264,-0.194386,-0.852964,16.314959,17.433639,123.794695
29601,-0.824224,3.230253,7.682797,-1.738830,0.891154,-1.668887,-0.179024,0.310007,-0.092414,-0.008108,0.032375,0.076812,0.999998,-0.000895,0.001550,-0.000462,-0.479863,0.068113,-0.194304,-0.852841,16.209052,17.617344,123.798455
29602,-1.377163,2.175986,8.391784,-0.541677,1.239796,-1.139579,-0.305261,0.462743,-0.173424,-0.013559,0.021900,0.083916,0.999996,-0.001526,0.002314,-0.000867,-0.480007,0.070983,-0.194014,-0.852592,16.024102,17.896380,123.780430
29603,-4.304149,2.010195,9.986008,1.206421,-0.334693,1.174542,-0.124448,0.449880,-0.202779,-0.042796,0.020208,0.099944,0.999997,-0.000622,0.002249,-0.001014,-0.480350,0.073402,-0.194459,-0.852092,15.936667,18.174251,123.742547
29604,-2.698765,2.429937,9.176691,-0.093203,0.435606,0.046365,-0.328344,0.284870,-0.320852,-0.026818,0.024493,0.091765,0.999996,-0.001642,0.001424,-0.001604,-0.481278,0.075712,-0.193588,-0.851565,15.701826,18.378167,123.608097
29605,-2.127263,1.796196,8.014262,0.031465,0.728489,-1.359991,-0.185545,0.443091,-0.390565,-0.021060,0.018078,0.080173,0.999995,-0.000928,0.002215,-0.001953,-0.482400,0.078430,-0.193683,-0.850662,15.543277,18.681071,123.457879
29606,-4.012018,3.972182,9.352374,-0.817900,-1.194472,1.015299,-0.296115,0.412341,-0.384452,-0.039851,0.039937,0.093547,0.999995,-0.001481,0.002062,-0.001922,-0.483477,0.081266,-0.193229,-0.849887,15.319728,18.964217,123.304964
29607,-3.411282,4.390161,9.337299,-1.543780,-0.895539,0.906922,-0.253561,0.354814,-0.212969,-0.033900,0.044056,0.093377,0.999997,-0.001268,0.001774,-0.001065,-0.483895,0.083599,-0.192890,-0.849500,15.149425,19.190590,123.241934
29608,-4.045170,2.499430,9.207834,0.339865,-0.571904,0.529067,-0.453963,0.346640,-0.164072,-0.040271,0.025236,0.092091,0.999996,-0.002270,0.001733,-0.000820,-0.484025,0.086324,-0.191694,-0.849424,14.872658,19.403603,123.205274
29609,-3.656788,1.371662,9.178719,1.046515,0.244770,0.104323,-0.396455,0.285708,-0.205403,-0.036422,0.013936,0.091812,0.999996,-0.001982,0.001429,-0.001027,-0.484411,0.088699,-0.190583,-0.849210,14.617404,19.590102,123.133833
29610,-3.500922,1.689392,9.191176,0.645730,0.234395,0.143021,-0.281660,0.287664,-0.242091,-0.034856,0.017066,0.091938,0.999997,-0.001408,0.001438,-0.001210,-0.484998,0.090830,-0.189938,-0.848794,14.419928,19.781304,123.040184
29611,-3.779373,3.094820,9.096237,-0.466350,-0.659701,0.480525,-0.322559,0.239649,-0.229946,-0.037649,0.031138,0.090957,0.999997,-0.001613,0.001198,-0.001150,-0.485558,0.092854,-0.189015,-0.848460,14.198568,19.945223,122.945630
29612,-4.319911,2.920382,10.022846,-0.062634,-0.620424,1.468211,-0.310222,0.252866,-0.114365,-0.043056,0.029384,0.100237,0.999998,-0.001551,0.001264,-0.000572,-0.485618,0.094785,-0.188222,-0.848388,14.007731,20.098612,122.920679
29613,-5.772974,1.864349,10.421947,1.551142,-1.124617,2.093153,-0.390681,0.044615,-0.093208,-0.057698,0.018874,0.104196,0.999998,-0.001953,0.000223,-0.000466,-0.485745,0.096017,-0.186599,-0.848536,13.764599,20.134644,122.877153
29614,-4.376249,1.377265,9.581134,1.212259,-0.163887,0.739567,-0.216184,-0.080333,-0.093762,-0.043794,0.013897,0.095779,0.999999,-0.001081,-0.000402,-0.000469,-0.486073,0.096286,-0.185405,-0.848580,13.614844,20.099580,122.815107
29615,-3.300525,2.291976,9.193753,-0.147607,0.087792,0.219369,-0.232762,-0.089327,-0.105670,-0.033034,0.023044,0.091896,0.999999,-0.001164,-0.000447,-0.000528,-0.486451,0.096580,-0.184119,-0.848609,13.452876,20.062640,122.744817
29616,-3.437736,2.439229,8.919910,-0.227958,-0.219703,0.047960,-0.253583,-0.083202,-0.083453,-0.034404,0.024520,0.089154,0.999999,-0.001268,-0.000416,-0.000417,-0.486718,0.096917,-0.182764,-0.848711,13.283808,20.024286,122.688723
29617,-3.313438,2.698080,9.079976,-0.528885,-0.195233,0.206624,-0.217775,-0.087751,-0.025161,-0.033171,0.027084,0.090756,0.999999,-0.001089,-0.000439,-0.000126,-0.486758,0.097107,-0.181584,-0.848919,13.147064,19.977285,122.666713
29618,-2.878889,1.475895,8.799723,0.285791,0.579195,-0.459388,-0.253422,-0.071588,0.030463,-0.028823,0.014866,0.087968,0.999999,-0.001267,-0.000358,0.000152,-0.486529,0.097390,-0.180312,-0.849289,13.001882,19.930378,122.680100
29619,-3.611553,1.081211,9.383696,0.994340,0.403328,0.242893,-0.079910,-0.037168,0.051889,-0.036136,0.010840,0.093826,1.000000,-0.000400,-0.000186,0.000259,-0.486263,0.097388,-0.179878,-0.849534,12.962179,19.901556,122.710992
29620,-3.191903,0.637619,8.970495,1.157828,0.765600,-0.371402,-0.054881,-0.102180,-0.002649,-0.031965,0.006401,0.089687,1.000000,-0.000274,-0.000511,-0.000013,-0.486298,0.097087,-0.179358,-0.849658,12.922669,19.841844,122.700652
29621,-3.513913,0.029110,9.220561,1.852990,0.886039,-0.161339,0.119744,-0.055484,-0.048849,-0.035165,0.000244,0.092196,1.000000,0.000599,-0.000277,-0.000244,-0.486572,0.096614,-0.179677,-0.849488,12.975945,19.815744,122.669207
29622,-3.662723,1.435384,9.211897,0.732892,0.114540,0.176538,0.252734,-0.128692,-0.121409,-0.036678,0.014260,0.092113,0.999999,0.001264,-0.000643,-0.000607,-0.487284,0.095559,-0.180341,-0.849058,13.087589,19.756592,122.584683
29623,-3.219474,1.411345,9.081558,0.543306,0.424424,-0.098972,0.176346,-0.097718,-0.194207,-0.032225,0.014065,0.090812,0.999999,0.000882,-0.000489,-0.000971,-0.488240,0.094901,-0.180725,-0.848501,13.141973,19.725938,122.461114
29624,-3.946358,1.162110,9.325624,1.140104,0.055640,0.315914,0.197434,-0.123087,-0.285157,-0.039504,0.011585,0.093243,0.999998,0.000987,-0.000615,-0.001426,-0.489613,0.094151,-0.181090,-0.847715,13.189539,19.691469,122.280221
29625,-3.177985,1.328704,9.052574,0.613041,0.477065,-0.158117,0.166578,-0.142162,-0.375447,-0.031819,0.013271,0.090514,0.999998,0.000833,-0.000711,-0.001877,-0.491370,0.093493,-0.181236,-0.846739,13.200062,19.659912,122.043081
29626,-3.299815,1.748059,8.917453,0.313137,0.132775,-0.150919,0.193490,-0.111958,-0.431522,-0.033010,0.017466,0.089173,0.999997,0.000967,-0.000560,-0.002158,-0.493347,0.092932,-0.181541,-0.845586,13.216899,19.650939,121.777075
29627,-3.017385,2.253263,8.776096,-0.268161,0.076348,-0.266802,0.151047,-0.100169,-0.484818,-0.030163,0.022539,0.087763,0.999997,0.000755,-0.000501,-0.002424,-0.495516,0.092588,-0.181671,-0.844326,13.198673,19.657147,121.480994
29628,-3.056351,2.241835,8.613460,-0.249520,-0.012918,-0.405437,0.097703,-0.040371,-0.526652,-0.030522,0.022457,0.086139,0.999996,0.000489,-0.000202,-0.002633,-0.497779,0.092651,-0.181702,-0.842980,13.144877,19.700371,121.168518
29629,-3.075823,1.943631,8.546481,0.004069,0.078364,-0.524278,0.040683,0.000802,-0.570447,-0.030702,0.019507,0.085469,0.999996,0.000203,0.000004,-0.002852,-0.500160,0.093083,-0.181575,-0.841550,13.050548,19.773454,120.835438
29630,-3.089106,1.837993,8.427930,0.081241,0.070187,-0.650852,0.054248,0.034327,-0.620544,-0.030819,0.018453,0.084290,0.999995,0.000271,0.000172,-0.003103,-0.502722,0.093653,-0.181563,-0.839961,12.955558,19.869618,120.477067
29631,-2.433873,1.644922,8.371503,-0.084495,0.670211,-0.966491,0.025204,0.118079,-0.675893,-0.024234,0.016521,0.083731,0.999994,0.000126,0.000590,-0.003379,-0.505423,0.094711,-0.181612,-0.838209,12.835025,20.020543,120.096577
29632,-1.876806,1.886912,8.194368,-0.586113,0.966685,-1.271468,0.073620,0.194601,-0.704185,-0.018622,0.018905,0.081969,0.999993,0.000368,0.000973,-0.003521,-0.508188,0.095977,-0.182041,-0.836298,12.739353,20.215596,119.709022
29633,-2.638849,2.618054,8.733175,-0.892017,0.286887,-0.367696,0.082759,0.319549,-0.731882,-0.026153,0.026240,0.087385,0.999992,0.000414,0.001598,-0.003659,-0.510954,0.097780,-0.182810,-0.834234,12.646496,20.484735,119.320649
29634,-4.135695,2.177412,9.784270,0.167787,-0.296656,1.025235,-0.048923,0.310436,-0.769132,-0.041121,0.021957,0.097901,0.999991,-0.000245,0.001552,-0.003846,-0.513809,0.099900,-0.182985,-0.832188,12.468469,20.751199,118.907614
29635,-4.016323,1.974928,9.118267,0.234074,-0.367314,0.335423,0.029042,0.142847,-0.757543,-0.040023,0.019888,0.091214,0.999993,0.000145,0.000714,-0.003788,-0.516802,0.101123,-0.183057,-0.830169,12.327091,20.922679,118.477907
29636,-2.848199,0.759052,9.138736,0.769215,1.099181,-0.304537,0.013605,0.213211,-0.757722,-0.028356,0.007692,0.091418,0.999992,0.000068,0.001066,-0.003789,-0.519714,0.102665,-0.183244,-0.828117,12.179101,21.131261,118.056418
29637,-4.828901,0.401319,11.698626,1.982566,0.675474,2.675317,0.149380,0.193818,-0.759633,-0.048160,0.004109,0.117036,0.999992,0.000747,0.000969,-0.003798,-0.522715,0.103786,-0.183938,-0.825932,12.105011,21.329711,117.630066
29638,-5.788422,3.075891,9.021138,-0.092846,-2.235140,1.111750,0.393174,-0.030843,-0.761703,-0.057781,0.030802,0.090263,0.999991,0.001966,-0.000154,-0.003809,-0.526048,0.103329,-0.185048,-0.823622,12.159285,21.401231,117.173186
29639,-1.197422,5.171931,6.453478,-4.034290,-0.266859,-2.499472,-0.256352,0.050206,-0.824150,-0.011745,0.051851,0.064471,0.999991,-0.001282,0.000251,-0.004121,-0.529219,0.104985,-0.183660,-0.821690,11.829617,21.526025,116.688351
29640,-4.202261,6.689937,8.990180,-4.155971,-2.252820,1.182303,-0.203277,0.304051,-0.544761,-0.041703,0.067105,0.089897,0.999995,-0.001016,0.001520,-0.002724,-0.531028,0.107271,-0.183307,-0.820305,11.603329,21.757097,116.402916
29641,-3.649386,4.618467,8.987181,-2.565147,-1.014625,0.570366,-0.599063,0.235963,-0.225073,-0.036336,0.046495,0.089776,0.999994,-0.002995,0.001180,-0.001125,-0.531371,0.110044,-0.181323,-0.820157,11.217478,21.913560,116.300809
29642,-3.076806,1.613865,9.083519,-0.128724,0.609580,-0.107375,-0.623371,0.304355,-0.097469,-0.030622,0.016437,0.090831,0.999994,-0.003117,0.001522,-0.000487,-0.531108,0.113036,-0.179485,-0.820324,10.849105,22.092576,116.283039
29643,-3.062839,0.291923,9.060610,1.004834,1.109789,-0.361806,-0.553453,0.387851,-0.178722,-0.030450,0.003197,0.090657,0.999994,-0.002767,0.001939,-0.000894,-0.531137,0.116264,-0.178113,-0.820154,10.505344,22.328325,116.224182
29644,-3.269399,1.688905,9.469104,-0.254315,0.604400,0.325107,-0.487427,0.440168,-0.299783,-0.032460,0.017169,0.094721,0.999993,-0.002437,0.002201,-0.001499,-0.531647,0.119629,-0.177073,-0.819564,10.172427,22.604484,116.095718
29645,-2.378489,3.048141,9.998418,-1.942665,1.083087,0.673920,-0.581959,0.562003,-0.412010,-0.023441,0.030821,0.099961,0.999990,-0.002910,0.002810,-0.002060,-0.532443,0.123850,-0.175903,-0.818672,9.762295,22.960830,115.909390
29646,-2.258756,4.393611,10.914657,-3.344771,1.101176,1.638682,-0.745246,0.662288,-0.594502,-0.022095,0.044409,0.109055,0.999983,-0.003726,0.003311,-0.002972,-0.533783,0.129066,-0.174209,-0.817355,9.215864,23.388560,115.617469
29647,-1.254554,5.017349,11.835716,-4.489974,2.132646,2.108747,-1.043467,0.788854,-0.876093,-0.011858,0.050843,0.118141,0.999969,-0.005217,0.003944,-0.004380,-0.535945,0.135837,-0.171450,-0.815424,8.429154,23.910240,115.157232
29648,-1.284464,4.324969,12.967869,-4.084435,2.892839,2.972642,-1.245570,0.904369,-1.138893,-0.012009,0.044126,0.129461,0.999954,-0.006228,0.004522,-0.005694,-0.538902,0.143832,-0.167979,-0.812822,7.454825,24.511040,114.532736
29649,-0.282756,2.947247,14.338240,-3.484955,4.856840,3.551924,-1.241550,0.789888,-1.225575,-0.002077,0.030376,0.143205,0.999954,-0.006208,0.003949,-0.006128,-0.542260,0.151407,-0.164145,-0.809992,6.445714,25.042775,113.831242
29650,1.735417,2.495640,12.848522,-3.855593,6.100000,1.243882,-0.504570,0.601261,-0.997705,0.017865,0.025192,0.128369,0.999980,-0.002523,0.003006,-0.004988,-0.545372,0.156027,-0.162939,-0.807264,5.904015,25.444364,113.249615
29651,2.800134,6.604370,13.452679,-8.167025,5.867884,1.645913,-0.141891,0.545518,-0.607173,0.028569,0.066053,0.134403,0.999991,-0.000709,0.002728,-0.003036,-0.547222,0.159097,-0.163348,-0.805329,5.670953,25.786909,112.906851
29652,3.370205,3.254430,12.063546,-5.174961,6.953852,-0.203211,-0.311565,0.411034,-0.363778,0.034009,0.032670,0.120515,0.999995,-0.001558,0.002055,-0.001819,-0.548058,0.161902,-0.162895,-0.804292,5.400665,26.039081,112.707257
29653,5.067825,2.296385,11.053007,-4.812974,8.280971,-1.977783,-0.085796,0.409835,-0.321747,0.050941,0.022929,0.110416,0.999997,-0.000429,0.002049,-0.001609,-0.548906,0.164021,-0.163379,-0.803186,5.271931,26.285104,112.533536
29654,5.393373,1.812204,10.624003,-4.446916,8.564276,-2.593287,-0.147432,0.489913,-0.449936,0.054234,0.018079,0.106094,0.999994,-0.000737,0.002450,-0.002250,-0.550146,0.166761,-0.163728,-0.801700,5.070438,26.585589,112.280902
29655,2.921247,0.419095,13.239487,-2.546147,8.202796,0.686086,-0.075520,0.473002,-0.451918,0.029535,0.004174,0.132324,0.999995,-0.000378,0.002365,-0.002260,-0.551464,0.169197,-0.164310,-0.800164,4.909304,26.871584,112.025150
29656,1.125733,0.673568,13.461567,-2.181525,6.759262,1.697644,0.448353,-0.147591,-0.234124,0.011166,0.006421,0.134639,0.999997,0.002242,-0.000738,-0.001171,-0.552857,0.167563,-0.165466,-0.799308,5.092957,26.796744,111.872996
29657,4.406895,0.723024,10.860283,-3.034381,8.288990,-2.068401,0.429569,-0.414264,-0.172504,0.043850,0.006959,0.108709,0.999995,0.002148,-0.002071,-0.000863,-0.554206,0.164816,-0.165846,-0.798866,5.278880,26.561465,111.745521
29658,1.125173,0.294533,11.394452,-1.512329,5.934974,-0.134124,0.663223,-0.374429,-0.209162,0.011041,0.002556,0.113974,0.999992,0.003316,-0.001872,-0.001046,-0.555853,0.161656,-0.167251,-0.798074,5.587440,26.356912,111.595398
29659,-0.476077,1.667996,12.221821,-2.256836,4.494587,1.460575,0.436097,-0.689336,-0.449329,-0.005145,0.016425,0.122237,0.999989,0.002180,-0.003447,-0.002247,-0.558529,0.158014,-0.166658,-0.797059,5.692230,25.980077,111.273379
29660,0.463847,-0.550311,10.889499,-0.316123,5.349734,-0.305909,0.310605,-0.761567,-0.842615,0.004200,-0.005691,0.108903,0.999983,0.001553,-0.003808,-0.004213,-0.562716,0.154812,-0.165067,-0.795070,5.615289,25.591061,110.697861
29661,-1.128442,1.605529,11.599709,-1.828482,3.585952,1.241786,0.447290,-0.782136,-1.093335,-0.011651,0.015859,0.115988,0.999975,0.002236,-0.003911,-0.005467,-0.568001,0.151284,-0.163737,-0.792262,5.554719,25.196172,109.966150
29662,-2.157045,2.365178,11.627955,-2.181233,2.432689,1.796785,0.361561,-0.940392,-1.034940,-0.021995,0.023555,0.116219,0.999974,0.001808,-0.004702,-0.005175,-0.573088,0.147378,-0.161678,-0.789753,5.461014,24.714424,109.263841
29663,-1.176164,2.748068,9.825873,-2.700797,2.331303,-0.181848,0.501583,-1.048497,-0.812321,-0.012166,0.027283,0.098264,0.999975,0.002508,-0.005242,-0.004062,-0.577460,0.142390,-0.159994,-0.787824,5.511866,24.150614,108.698677
29664,-1.000612,2.759666,8.925600,-2.668032,2.054841,-1.041025,0.538022,-0.893546,-0.596680,-0.010323,0.027387,0.089284,0.999982,0.002690,-0.004468,-0.002983,-0.580857,0.137795,-0.159072,-0.786329,5.644967,23.671960,108.277742
29665,-1.175076,2.294626,8.563163,-2.098501,1.841077,-1.316802,0.643632,-0.812370,-0.345252,-0.012059,0.022691,0.085656,0.999985,0.003218,-0.004062,-0.001726,-0.583256,0.132937,-0.158944,-0.785415,5.908430,23.218061,108.018992
29666,0.110535,2.230288,8.290335,-2.325212,2.840032,-2.051047,0.763323,-0.655893,0.017266,0.000831,0.021986,0.082991,0.999987,0.003817,-0.003279,0.000086,-0.584170,0.128123,-0.160004,-0.785321,6.330591,22.840955,107.991788
29667,-1.973875,3.077169,9.600195,-2.465629,1.289078,0.076023,0.973904,-0.495841,0.495232,-0.020052,0.030254,0.096101,0.999982,0.004869,-0.002479,0.002476,-0.583196,0.122862,-0.162635,-0.786344,6.993063,22.514659,108.268313
29668,-3.146639,3.661063,10.232693,-2.553730,0.321715,1.204820,0.938402,-0.642578,0.971576,-0.031971,0.035976,0.102395,0.999972,0.004692,-0.003213,0.004858,-0.580419,0.116809,-0.165009,-0.788823,7.735311,22.075665,108.819544
29669,-3.104608,3.853075,9.793161,-2.597500,0.075312,0.847312,0.889727,-0.652338,1.343403,-0.031622,0.037884,0.097999,0.999962,0.004449,-0.003262,0.006717,-0.576116,0.110467,-0.167344,-0.792391,8.529677,21.585218,109.590081
29670,-5.119477,5.250111,10.498142,-3.125159,-1.883790,2.461898,0.454183,-0.668642,1.420761,-0.051916,0.051896,0.104927,0.999967,0.002271,-0.003343,0.007104,-0.571239,0.105319,-0.167961,-0.796482,9.078609,21.079391,110.396187
29671,-3.584964,2.653042,8.797595,-1.096182,-0.539086,-0.025192,-0.096240,-0.735902,1.245879,-0.036337,0.026347,0.087830,0.999974,-0.000481,-0.003679,0.006229,-0.566788,0.101538,-0.166070,-0.800538,9.266373,20.537702,111.084667
29672,-3.689217,2.882656,8.238196,-1.231867,-0.991538,-0.469958,-0.116249,-0.601915,1.046018,-0.037290,0.028680,0.082253,0.999982,-0.000581,-0.003010,0.005230,-0.562992,0.098590,-0.164391,-0.803925,9.395353,20.097536,111.661052
29673,-4.126553,3.657781,8.065925,-1.761975,-1.752118,-0.363248,-0.235774,-0.512099,0.927599,-0.041641,0.036480,0.080510,0.999985,-0.001179,-0.002560,0.004638,-0.559519,0.096355,-0.162401,-0.807020,9.433259,19.709565,112.173991
29674,-3.816532,3.931418,6.859713,-2.115493,-2.082559,-1.550437,-0.214853,-0.435768,0.963425,-0.038504,0.039203,0.068471,0.999985,-0.001074,-0.002179,0.004817,-0.555834,0.094415,-0.160740,-0.810122,9.486074,19.369864,112.713565
29675,-3.342399,4.038866,6.675577,-2.349298,-1.824917,-1.862996,-0.160851,-0.126884,1.051505,-0.033678,0.040266,0.066702,0.999986,-0.000804,-0.000634,0.005257,-0.551551,0.093425,-0.160177,-0.813269,9.598206,19.186923,113.336497
29676,-6.643897,2.935889,8.020065,0.012789,-3.843365,0.302143,0.148461,-0.002459,1.237074,-0.066620,0.028888,0.080221,0.999981,0.000742,-0.000012,0.006185,-0.546542,0.092015,-0.161312,-0.816581,9.922609,19.062653,114.080902
29677,-6.933474,3.628819,8.704151,-0.360732,-4.087586,1.149192,0.618269,-0.174490,1.443663,-0.069669,0.035517,0.087091,0.999969,0.003091,-0.000872,0.007218,-0.541013,0.088370,-0.163969,-0.820128,10.550774,18.806203,114.928820
29678,-7.106167,3.732753,9.091271,-0.185971,-4.133151,1.587361,0.851175,-0.301263,1.576611,-0.071488,0.036378,0.090961,0.999959,0.004256,-0.001506,0.007883,-0.535109,0.083537,-0.167297,-0.823827,11.323634,18.462507,115.835489
29679,-7.015645,4.519345,8.869635,-0.724154,-4.440791,1.503869,1.039349,-0.511991,1.616569,-0.070743,0.044162,0.088747,0.999951,0.005197,-0.002560,0.008083,-0.529244,0.077218,-0.170829,-0.827500,12.198664,17.975909,116.733089
29680,-5.066645,5.089488,7.910327,-1.913512,-3.383964,0.138762,0.824387,-0.545284,1.545008,-0.051272,0.050174,0.079172,0.999958,0.004122,-0.002726,0.007725,-0.523574,0.071458,-0.173349,-0.831092,12.922490,17.475481,117.573988
29681,-4.538791,3.917964,6.567003,-1.023720,-2.999706,-1.504326,0.635322,-0.344932,1.451470,-0.045783,0.038640,0.065715,0.999967,0.003177,-0.001725,0.007257,-0.518008,0.067030,-0.175557,-0.834479,13.525118,17.082580,118.380179
29682,-4.291802,3.817961,5.159440,-1.029625,-3.274833,-2.896712,0.513506,-0.030973,1.334118,-0.043179,0.037760,0.051685,0.999974,0.002568,-0.000155,0.006671,-0.512588,0.064397,-0.178024,-0.837505,14.041679,16.880158,119.157025
29683,-3.559366,3.729087,3.541201,-1.333300,-3.213927,-4.615771,0.264131,0.470517,1.165124,-0.035726,0.037036,0.035545,0.999979,0.001321,0.002353,0.005826,-0.507322,0.064581,-0.180669,-0.840127,14.411034,16.967429,119.908220
29684,-4.891983,2.255862,6.043609,0.826666,-2.729580,-2.235692,0.103140,1.178646,1.095723,-0.048685,0.022260,0.060735,0.999967,0.000516,0.005893,0.005479,-0.501632,0.068277,-0.184402,-0.842437,14.707919,17.460116,120.727085
29685,-13.074765,0.071459,8.861207,7.030710,-7.266683,2.321205,0.918172,1.108198,1.450557,-0.130253,-0.000640,0.089334,0.999948,0.004591,0.005541,0.007253,-0.494744,0.069233,-0.191499,-0.844845,15.543149,17.846515,121.748434
29686,-12.211118,5.724032,10.690633,2.130547,-8.112368,5.214058,1.529833,0.341215,1.645040,-0.122389,0.055413,0.107544,0.999935,0.007649,0.001706,0.008225,-0.487926,0.065307,-0.199325,-0.847309,16.724945,17.769137,122.761396
29687,-10.503553,4.000050,10.406746,2.977012,-5.996569,3.964116,0.427207,-0.152985,1.433636,-0.105397,0.039024,0.104071,0.999972,0.002136,-0.000765,0.007168,-0.482088,0.062128,-0.201194,-0.850443,17.211706,17.437154,123.564112
29688,-7.545637,0.650300,8.325698,4.225525,-2.946677,0.194180,0.412472,-0.507861,1.062468,-0.075700,0.005930,0.083078,0.999981,0.002062,-0.002539,0.005312,-0.478160,0.057901,-0.202011,-0.852761,17.597842,16.974037,124.085920
29689,-5.668631,1.003342,7.480037,2.941428,-1.970575,-1.063098,0.411138,-0.534714,0.571157,-0.056914,0.009718,0.074669,0.999990,0.002056,-0.002674,0.002856,-0.476337,0.054010,-0.202622,-0.853892,17.899705,16.574953,124.319020
29690,-5.511716,0.799918,6.955064,3.031857,-1.978914,-1.671229,0.391534,-0.440110,0.083599,-0.055273,0.007840,0.069445,0.999996,0.001958,-0.002201,0.000418,-0.476490,0.051109,-0.203228,-0.853841,18.111278,16.316920,124.290024
29691,-5.926774,1.668291,7.206079,2.593581,-2.628628,-1.083371,0.482562,-0.389181,-0.255526,-0.059387,0.016585,0.071985,0.999994,0.002413,-0.001946,-0.001278,-0.478055,0.048512,-0.204267,-0.852869,18.327150,16.143910,124.077588
29692,-4.574040,2.120656,7.524247,1.546656,-1.647440,-1.041879,0.450705,-0.338887,-0.461283,-0.045819,0.021143,0.075213,0.999993,0.002254,-0.001694,-0.002306,-0.480436,0.046456,-0.205226,-0.851414,18.492119,16.039701,123.757518
29693,-5.278318,1.563844,8.748133,2.562003,-1.482279,0.090592,0.630529,-0.308992,-0.432545,-0.052885,0.015477,0.087449,0.999991,0.003153,-0.001545,-0.002163,-0.482695,0.044029,-0.207040,-0.849824,18.769906,15.944658,123.459342
29694,-4.015450,2.402194,9.302533,1.316334,-0.628522,0.497657,0.874036,-0.485188,-0.307300,-0.040344,0.023677,0.093032,0.999986,0.004370,-0.002426,-0.001536,-0.484651,0.040172,-0.209473,-0.848305,19.194532,15.735564,123.196986
29695,-3.299725,1.959479,10.145284,1.516207,0.475792,0.917100,0.956234,-0.530390,-0.142371,-0.033253,0.019133,0.101457,0.999985,0.004781,-0.002652,-0.000712,-0.485954,0.035717,-0.212185,-0.847084,19.692477,15.470018,123.016955
29696,-4.420708,2.338919,10.152802,1.908017,-0.599574,1.326925,1.151636,-0.730573,0.004166,-0.044578,0.022804,0.101498,0.999977,0.005758,-0.003653,0.000021,-0.486868,0.029815,-0.215243,-0.846015,20.310508,15.072294,122.875491
29697,-3.376331,3.474653,9.927690,0.490861,-0.357982,1.217357,0.693795,-0.820489,-0.097254,-0.034154,0.034419,0.099257,0.999985,0.003469,-0.004102,-0.000486,-0.488219,0.024725,-0.216135,-0.845173,20.649981,14.645385,122.656034
29698,-4.222005,0.514259,8.956507,3.304639,-0.206154,-0.466823,0.131984,-0.780621,-0.309544,-0.042561,0.005149,0.089403,0.999991,0.000660,-0.003903,-0.001548,-0.490345,0.021434,-0.214707,-0.844395,20.638697,14.285752,122.326348
29699,-5.446833,-1.353163,7.764870,5.322430,-0.938771,-1.901796,0.285084,-0.750867,-0.407390,-0.054787,-0.013531,0.077424,0.999990,0.001425,-0.003754,-0.002037,-0.492857,0.017971,-0.213993,-0.843194,20.707996,13.959876,121.949189
29700,-5.754543,0.488284,6.813361,3.783713,-2.387067,-2.082209,0.352888,-0.589873,-0.394066,-0.057736,0.004876,0.067972,0.999992,0.001764,-0.002949,-0.001970,-0.495140,0.015032,-0.213950,-0.841924,20.825190,13.720285,121.612893
29701,-6.220268,0.798696,5.975706,3.611269,-3.248006,-2.639971,0.112528,-0.256271,-0.198482,-0.062271,0.008015,0.059682,0.999999,0.000563,-0.001281,-0.000992,-0.496219,0.013863,-0.213743,-0.841361,20.849675,13.618399,121.454349
29702,-7.938324,1.903393,6.639315,3.678048,-4.893152,-1.254100,-0.267471,0.092929,0.211395,-0.079373,0.019039,0.066405,0.999998,-0.001337,0.000465,0.001057,-0.495174,0.014688,-0.212822,-0.842196,20.724960,13.621561,121.594846
29703,-8.739918,1.317498,7.295484,4.688302,-5.065534,-0.663579,-1.056358,0.241267,0.601009,-0.087351,0.013298,0.072990,0.999981,-0.005282,0.001206,0.003005,-0.492262,0.017663,-0.208981,-0.844803,20.207992,13.626465,121.981121
29704,-10.378717,-1.590908,8.932717,8.225467,-4.547156,0.272288,-1.478184,0.302010,0.878436,-0.103583,-0.015703,0.089600,0.999962,-0.007391,0.001510,0.004392,-0.488049,0.021655,-0.203510,-0.848483,19.486528,13.614789,122.533277
29705,-10.644385,-1.460134,9.864059,8.361450,-4.474871,1.268650,-1.492087,-0.152474,0.879373,-0.106456,-0.014333,0.098667,0.999962,-0.007460,-0.000762,0.004397,-0.484257,0.023748,-0.196867,-0.852159,18.736842,13.364385,122.998072
29706,-5.342276,-3.099901,8.896238,6.702964,0.206117,-1.308664,-1.917859,-0.360015,0.602821,-0.053491,-0.030306,0.089159,0.999948,-0.009589,-0.001800,0.003014,-0.481751,0.026260,-0.187845,-0.855535,17.696385,13.057052,123.273525
29707,-8.726443,-3.697351,8.964784,8.938137,-2.298390,-0.592326,-1.364750,-0.317619,0.463377,-0.087322,-0.036564,0.089760,0.999973,-0.006824,-0.001588,0.002317,-0.479838,0.027759,-0.181267,-0.857979,16.957178,12.802445,123.482669
29708,-6.247337,-1.142397,7.004644,5.176725,-2.215253,-2.217110,-1.277322,-0.675927,0.223183,-0.062697,-0.011047,0.069906,0.999973,-0.006387,-0.003380,0.001116,-0.479264,0.027717,-0.174151,-0.859773,16.224490,12.391483,123.499715
29709,2.715816,-2.110210,3.397581,0.697450,4.329505,-7.777713,-0.493749,-0.033748,-0.170803,0.027134,-0.021041,0.034032,0.999997,-0.002469,-0.000169,-0.000854,-0.479921,0.028921,-0.171890,-0.859822,15.915943,12.399194,123.402724
29710,-0.463421,6.577629,8.954202,-4.212418,-0.579145,0.462356,0.667517,0.847414,-0.361887,-0.004135,0.065485,0.089779,0.999984,0.003338,0.004237,-0.001809,-0.480798,0.031270,-0.176698,-0.858273,16.280402,12.919923,123.341342
29711,-1.275739,10.430092,10.960354,-6.828724,-2.310672,3.550364,-0.510730,0.767366,-0.424198,-0.012116,0.104607,0.109384,0.999987,-0.002554,0.003837,-0.002121,-0.481817,0.036179,-0.176249,-0.857601,15.958040,13.408547,123.231697
29712,-2.242998,4.588319,9.766470,-1.657000,-0.688191,1.061468,-0.755846,0.943225,0.056709,-0.021983,0.046246,0.097595,0.999982,-0.003779,0.004716,0.000284,-0.480558,0.041991,-0.175247,-0.858248,15.564850,13.916599,123.419801
29713,-7.615476,4.870931,10.212974,0.991205,-4.968312,2.850602,0.197335,0.611691,0.694478,-0.076010,0.048344,0.102410,0.999989,0.000987,0.003058,0.003472,-0.477039,0.043541,-0.177679,-0.859632,15.794470,14.145093,123.917148
29714,-2.997522,4.802087,8.773559,-1.568947,-1.685113,0.371579,-0.428250,0.405633,0.671611,-0.029959,0.048108,0.087693,0.999990,-0.002141,0.002028,0.003358,-0.473655,0.045706,-0.176910,-0.861548,15.655434,14.261290,124.369069
29715,-2.664599,-1.876928,8.980387,3.780018,1.935039,-1.254843,-0.675821,0.689795,0.532520,-0.026286,-0.018536,0.089958,0.999985,-0.003379,0.003449,0.002663,-0.470551,0.049816,-0.175727,-0.863261,15.368477,14.559517,124.786608
29716,-3.680950,-3.281600,10.314518,5.571474,2.352361,-0.110518,0.167963,0.505254,0.560880,-0.036456,-0.033005,0.103210,0.999993,0.000840,0.002526,0.002804,-0.467684,0.051105,-0.177740,-0.864331,15.562578,14.749625,125.191427
29717,-0.499878,-4.596171,10.306928,4.863284,5.590387,-1.286080,0.053635,0.592549,0.254107,-0.004635,-0.045995,0.103071,0.999995,0.000268,0.002963,0.001271,-0.466032,0.053328,-0.179391,-0.864748,15.651679,15.036549,125.435906
29718,-3.366073,-7.872575,11.431816,9.235831,5.442756,-0.375010,0.378492,0.674971,-0.247306,-0.033372,-0.078901,0.114282,0.999992,0.001892,0.003375,-0.001237,-0.466553,0.055582,-0.182494,-0.863675,15.856727,15.443994,125.408277
29719,-2.747549,-5.286650,10.506186,6.713959,4.341763,-0.760126,0.970897,0.404012,-0.876597,-0.027496,-0.053255,0.104859,0.999977,0.004854,0.002020,-0.004383,-0.470190,0.055880,-0.187340,-0.860641,16.291325,15.804461,124.978511
29720,-1.158016,-1.547620,8.462339,2.624257,3.039511,-2.117138,1.044088,0.512105,-1.370654,-0.011471,-0.015839,0.084571,0.999960,0.005220,0.002560,-0.006853,-0.475842,0.056906,-0.192607,-0.856294,16.693611,16.305464,124.286477
29721,-2.961096,4.609209,8.101543,-1.559527,-1.338264,-0.251165,1.372667,0.647685,-1.391601,-0.029029,0.045738,0.081425,0.999947,0.006863,0.003238,-0.006958,-0.481503,0.057773,-0.199570,-0.851463,17.279517,16.892082,123.608618
29722,-4.254253,10.465567,8.601308,-5.781534,-4.660389,2.289362,1.077340,0.676387,-1.085762,-0.041683,0.104418,0.086718,0.999965,0.005387,0.003382,-0.005429,-0.485706,0.059136,-0.205426,-0.847581,17.746408,17.445490,123.114579
29723,-7.547521,12.920427,9.659536,-6.070217,-7.764357,5.022190,0.724421,0.539289,-0.510445,-0.074884,0.129044,0.097265,0.999987,0.003622,0.002696,-0.002552,-0.487485,0.060205,-0.209609,-0.845457,18.098472,17.828202,122.927027
29724,-5.659252,12.143639,9.018919,-6.476235,-6.090393,3.670687,-0.097136,0.264453,-0.063831,-0.056434,0.121498,0.090205,0.999999,-0.000486,0.001322,-0.000319,-0.487409,0.061622,-0.209785,-0.845355,18.043698,17.980175,122.944696
29725,-4.656372,6.463215,8.753263,-2.219493,-2.915146,1.441213,-0.428017,0.281445,0.283044,-0.046532,0.064754,0.087460,0.999996,-0.002140,0.001407,0.001415,-0.485746,0.063573,-0.208718,-0.846431,17.861655,18.082661,123.163974
29726,-4.235612,4.306732,9.305121,-0.586561,-1.419780,1.174288,-0.615206,0.185442,0.371736,-0.042350,0.043275,0.092958,0.999993,-0.003076,0.000927,0.001859,-0.483741,0.065460,-0.206643,-0.847943,17.583000,18.115645,123.416283
29727,-3.408146,0.882484,9.420646,1.846455,0.792741,0.041484,-0.694468,0.156616,0.275898,-0.034020,0.009105,0.094202,0.999993,-0.003472,0.000783,0.001379,-0.482141,0.067532,-0.204140,-0.849298,17.240521,18.153213,123.608085
29728,-3.482024,0.415200,10.092269,2.290446,1.209886,0.552672,-0.437301,0.115876,0.203712,-0.034766,0.004337,0.100933,0.999997,-0.002187,0.000579,0.001019,-0.480969,0.068866,-0.202593,-0.850225,17.029953,18.178927,123.750939
29729,-3.874974,0.864147,9.986324,2.076661,0.641194,0.711813,-0.359065,0.036423,0.100255,-0.038736,0.008801,0.099855,0.999998,-0.001795,0.000182,0.000501,-0.480343,0.069799,-0.201159,-0.850843,16.841140,18.181465,123.820013
29730,-2.703831,1.531828,8.801363,0.778752,0.759828,-0.542448,-0.317815,-0.014852,0.019139,-0.027046,0.015456,0.087987,0.999999,-0.001589,-0.000074,0.000096,-0.480125,0.070476,-0.199740,-0.851244,16.658666,18.166845,123.833385
29731,-1.963495,2.347660,8.505740,-0.346513,0.837756,-0.818662,-0.240011,0.075130,-0.017722,-0.019601,0.023580,0.085037,0.999999,-0.001200,0.000376,-0.000089,-0.480002,0.071407,-0.198861,-0.851442,16.518614,18.210338,123.840920
29732,-3.254018,3.297925,9.022932,-0.452507,-0.412316,0.311711,-0.195858,0.088765,-0.008405,-0.032499,0.033069,0.090211,0.999999,-0.000979,0.000444,-0.000042,-0.479840,0.072260,-0.198199,-0.851616,16.406612,18.257188,123.856154
29733,-2.855745,3.372388,8.575319,-0.779566,-0.320832,-0.202607,-0.298493,0.100366,0.012933,-0.028517,0.033850,0.085717,0.999999,-0.001492,0.000502,0.000065,-0.479538,0.073407,-0.197143,-0.851933,16.239956,18.309563,123.885530
29734,-3.034816,3.435026,8.652125,-0.760590,-0.466672,-0.062178,-0.320922,0.173008,0.058462,-0.030283,0.034480,0.086492,0.999998,-0.001605,0.000865,0.000292,-0.478960,0.074852,-0.196174,-0.852356,16.072909,18.392192,123.953432
29735,-3.553405,3.106034,8.692862,-0.240637,-0.713420,0.050018,-0.466577,0.174452,0.030031,-0.035463,0.031258,0.086887,0.999997,-0.002333,0.000872,0.000150,-0.478446,0.076699,-0.194584,-0.852845,15.817098,18.482830,124.004719
29736,-2.362063,1.942149,8.448728,0.054565,0.658067,-0.851879,-0.496906,0.227258,-0.015976,-0.023523,0.019633,0.084465,0.999996,-0.002485,0.001136,-0.000080,-0.478060,0.078868,-0.192964,-0.853231,15.538272,18.607445,124.037514
29737,-4.182786,1.994632,9.815955,0.998235,-0.246483,0.993322,-0.377268,0.219755,-0.044224,-0.041716,0.020141,0.098168,0.999998,-0.001886,0.001099,-0.000221,-0.477848,0.080765,-0.191833,-0.853428,15.322079,18.734827,124.052035
29738,-3.114143,2.098103,9.229763,0.270554,0.297271,0.143550,-0.486369,0.098770,-0.145150,-0.031081,0.021228,0.092262,0.999997,-0.002432,0.000494,-0.000726,-0.478134,0.082484,-0.189896,-0.853536,15.018226,18.808027,123.987915
29739,-1.970952,1.676393,8.806004,-0.043902,1.208271,-0.714413,-0.488477,0.156823,-0.233172,-0.019621,0.017002,0.088034,0.999996,-0.002442,0.000784,-0.001166,-0.478737,0.084559,-0.188060,-0.853401,14.698929,18.928475,123.880774
