PacketCounter,Acc_X,Acc_Y,Acc_Z,FreeAcc_E,FreeAcc_N,FreeAcc_U,Gyr_X,Gyr_Y,Gyr_Z,VelInc_X,VelInc_Y,VelInc_Z,OriInc_q0,OriInc_q1,OriInc_q2,OriInc_q3,Quat_q0,Quat_q1,Quat_q2,Quat_q3,Roll,Pitch,Yaw
44928,-8.533016,4.730112,0.349416,0.138867,0.087390,-0.051463,-0.052520,0.018471,-0.001832,-0.085329,0.047303,0.003490,1.000000,-0.000263,0.000092,-0.000009,0.098888,0.640532,-0.256816,-0.716928,84.514474,60.185417,-108.757541
44929,-8.490266,4.762656,0.447851,0.031803,0.063552,-0.067790,-0.032932,0.014740,-0.007408,-0.084901,0.047630,0.004477,1.000000,-0.000165,0.000074,-0.000037,0.099024,0.640543,-0.256696,-0.716942,84.503695,60.183997,-108.746719
44930,-8.514457,4.736005,0.424313,0.063932,0.092014,-0.061112,-0.011368,0.013162,-0.006540,-0.085143,0.047363,0.004246,1.000000,-0.000057,0.000066,-0.000033,0.099081,0.640555,-0.256667,-0.716934,84.504185,60.182097,-108.739056
44931,-8.484682,4.777627,0.371802,0.102315,0.030492,-0.068849,0.002511,0.008016,-0.004673,-0.084846,0.047778,0.003722,1.000000,0.000013,0.000040,-0.000023,0.099105,0.640556,-0.256686,-0.716923,84.507284,60.178748,-108.735645
44932,-8.467252,4.787382,0.469663,0.002847,0.038519,-0.074490,0.005426,0.005957,0.003116,-0.084673,0.047872,0.004700,1.000000,0.000027,0.000030,0.000016,0.099166,0.640552,-0.256717,-0.716907,84.510955,60.171349,-108.729669
44933,-8.433680,4.824290,0.368520,0.088617,-0.031704,-0.090152,-0.004038,0.014947,0.001199,-0.084337,0.048242,0.003691,1.000000,-0.000020,0.000075,0.000006,0.099241,0.640567,-0.256728,-0.716880,84.517753,60.165031,-108.717668
44934,-8.450465,4.943808,0.328182,0.107711,-0.133814,-0.018312,-0.009240,0.021541,-0.000433,-0.084504,0.049438,0.003289,1.000000,-0.000046,0.000108,-0.000002,0.099338,0.640607,-0.256707,-0.716837,84.528059,60.160320,-108.697523
44935,-8.479388,5.003995,0.416973,0.014897,-0.148843,0.040813,-0.011598,0.013377,-0.000073,-0.084794,0.050040,0.004173,1.000000,-0.000058,0.000067,-0.000000,0.099431,0.640614,-0.256688,-0.716825,84.528837,60.154640,-108.687468
44936,-8.422864,4.817558,0.540230,-0.078127,0.012838,-0.094710,-0.026688,0.008089,-0.004664,-0.084227,0.048178,0.005399,1.000000,-0.000133,0.000040,-0.000023,0.099559,0.640607,-0.256588,-0.716849,84.515372,60.151706,-108.681755
44937,-8.456076,4.675477,0.578783,-0.082494,0.158779,-0.134450,-0.034406,0.013046,0.002355,-0.084561,0.046755,0.005785,1.000000,-0.000172,0.000065,0.000012,0.099733,0.640599,-0.256495,-0.716866,84.502984,60.144626,-108.671810
44938,-8.513394,4.732433,0.396822,0.094060,0.094504,-0.065201,-0.052724,0.016479,0.002577,-0.085134,0.047324,0.003963,1.000000,-0.000264,0.000082,0.000013,0.099967,0.640593,-0.256337,-0.716895,84.483891,60.137803,-108.658108
44939,-8.510388,4.909997,0.452492,0.008623,-0.043814,0.022837,-0.048305,0.013932,-0.001448,-0.085103,0.049102,0.004519,1.000000,-0.000242,0.000070,-0.000007,0.100173,0.640586,-0.256182,-0.716928,84.464058,60.132943,-108.647564
44940,-8.413258,4.983594,0.501967,-0.066414,-0.140279,-0.022539,-0.055735,0.014355,-0.004989,-0.084131,0.049839,0.005012,1.000000,-0.000279,0.000072,-0.000025,0.100379,0.640578,-0.255997,-0.716972,84.440370,60.130253,-108.638315
44941,-8.380594,5.046569,0.425907,-0.006512,-0.227903,-0.023324,-0.095537,0.019231,-0.007801,-0.083804,0.050471,0.004243,1.000000,-0.000478,0.000096,-0.000039,0.100721,0.640574,-0.255649,-0.717052,84.398126,60.129316,-108.622407
44942,-8.482950,4.952624,0.431547,0.024929,-0.099229,0.019133,-0.089173,0.020947,-0.003329,-0.084828,0.049530,0.004302,1.000000,-0.000446,0.000105,-0.000017,0.101038,0.640566,-0.255355,-0.717119,84.361640,60.126039,-108.607414
44943,-8.485675,4.903242,0.439062,0.030091,-0.054845,-0.002625,-0.091071,0.025079,-0.007942,-0.084854,0.049038,0.004379,1.000000,-0.000455,0.000125,-0.000040,0.101372,0.640585,-0.255020,-0.717175,84.327746,60.125522,-108.584828
44944,-8.446752,4.862159,0.547130,-0.070519,-0.013486,-0.051417,-0.082803,0.016256,-0.002848,-0.084466,0.048625,0.005458,1.000000,-0.000414,0.000081,-0.000014,0.101682,0.640570,-0.254737,-0.717245,84.290475,60.121841,-108.572126
44945,-8.351878,4.809249,0.562376,-0.087349,-0.009946,-0.159124,-0.104529,0.024226,0.004582,-0.083519,0.048094,0.005609,1.000000,-0.000523,0.000121,0.000023,0.102103,0.640563,-0.254393,-0.717314,84.249265,60.114151,-108.549083
44946,-8.414747,4.823723,0.436185,0.046222,-0.021988,-0.103727,-0.119499,0.033592,0.005708,-0.084148,0.048237,0.004347,1.000000,-0.000597,0.000168,0.000029,0.102568,0.640573,-0.254011,-0.717373,84.208861,60.106478,-108.518215
44947,-8.478820,4.814019,0.312771,0.181973,-0.012263,-0.059241,-0.134480,0.032348,0.000884,-0.084788,0.048142,0.003109,1.000000,-0.000672,0.000162,0.000004,0.103082,0.640584,-0.253544,-0.717455,84.158178,60.101384,-108.486301
44948,-8.508109,4.795009,0.365294,0.143024,0.029238,-0.040679,-0.114905,0.024458,-0.006633,-0.085079,0.047955,0.003636,1.000000,-0.000575,0.000122,-0.000033,0.103522,0.640599,-0.253098,-0.717536,84.110449,60.100643,-108.459234
44949,-8.512228,4.798585,0.417678,0.096465,0.038844,-0.032704,-0.121331,0.016335,-0.012962,-0.085119,0.047994,0.004155,1.000000,-0.000607,0.000082,-0.000065,0.103924,0.640576,-0.252642,-0.717659,84.050019,60.102523,-108.447253
44950,-8.490258,4.720825,0.407288,0.121930,0.090357,-0.090881,-0.132389,0.008734,-0.010847,-0.084900,0.047216,0.004045,1.000000,-0.000662,0.000044,-0.000054,0.104347,0.640514,-0.252167,-0.717820,83.976099,60.102893,-108.445397
44951,-8.538352,4.745514,0.406460,0.131591,0.089947,-0.037046,-0.115029,0.005316,-0.014348,-0.085380,0.047464,0.004040,1.000000,-0.000575,0.000027,-0.000072,0.104709,0.640456,-0.251734,-0.717971,83.908208,60.104911,-108.446188
44952,-8.564424,4.798453,0.453085,0.086169,0.066261,0.014213,-0.102315,0.008792,-0.005379,-0.085643,0.047989,0.004510,1.000000,-0.000512,0.000044,-0.000027,0.105079,0.640412,-0.251360,-0.718086,83.852341,60.102391,-108.439329
44953,-8.583746,4.869058,0.424507,0.109704,0.007815,0.064384,-0.085235,-0.002826,-0.006347,-0.085836,0.048695,0.004223,1.000000,-0.000426,-0.000014,-0.000032,0.105365,0.640331,-0.251065,-0.718221,83.794305,60.099349,-108.448443
44954,-8.511046,4.865219,0.434757,0.093958,-0.021972,-0.000045,-0.076809,-0.011730,-0.005613,-0.085109,0.048656,0.004324,1.000000,-0.000384,-0.000059,-0.000028,0.105602,0.640217,-0.250817,-0.718374,83.732680,60.095436,-108.469258
44955,-8.442998,4.841797,0.495610,0.033020,-0.021301,-0.067365,-0.070372,-0.010042,-0.003284,-0.084429,0.048421,0.004935,1.000000,-0.000352,-0.000050,-0.000016,0.105842,0.640113,-0.250588,-0.718511,83.676363,60.090186,-108.486214
44956,-8.386266,4.931740,0.446927,0.061543,-0.136591,-0.074679,-0.091930,-0.008683,-0.004161,-0.083862,0.049321,0.004443,1.000000,-0.000460,-0.000043,-0.000021,0.106145,0.640003,-0.250278,-0.718673,83.608660,60.085859,-108.502377
44957,-8.462907,4.938563,0.494726,0.031531,-0.096277,-0.002250,-0.098309,0.002186,-0.000568,-0.084629,0.049388,0.004924,1.000000,-0.000492,0.000011,-0.000003,0.106499,0.639924,-0.249951,-0.718804,83.548764,60.079829,-108.504995
44958,-8.384648,4.928228,0.433799,0.086804,-0.139210,-0.078673,-0.150244,-0.002909,-0.002300,-0.083846,0.049286,0.004300,1.000000,-0.000751,-0.000015,-0.000011,0.107015,0.639807,-0.249424,-0.719015,83.454156,60.074785,-108.511705
44959,-8.339233,4.980307,0.514000,0.001208,-0.189163,-0.087737,-0.182281,0.011468,-0.004139,-0.083391,0.049809,0.005099,1.000000,-0.000911,0.000057,-0.000021,0.107637,0.639720,-0.248778,-0.719223,83.354950,60.071393,-108.504168
44960,-8.444082,4.913960,0.569056,-0.016835,-0.073434,-0.026592,-0.203247,0.027036,-0.012084,-0.084437,0.049150,0.005652,0.999999,-0.001016,0.000135,-0.000060,0.108311,0.639688,-0.248025,-0.719410,83.258350,60.073800,-108.480286
44961,-8.547172,4.768009,0.556903,0.042666,0.094439,-0.010267,-0.206597,0.027104,-0.008966,-0.085469,0.047690,0.005531,0.999999,-0.001033,0.000136,-0.000045,0.109013,0.639650,-0.247268,-0.719599,83.160119,60.074227,-108.455549
44962,-8.545238,4.815001,0.561122,0.039109,0.051875,0.011567,-0.207132,0.014567,-0.001981,-0.085452,0.048157,0.005568,0.999999,-0.001036,0.000073,-0.000010,0.109727,0.639560,-0.246534,-0.719822,83.050627,60.070027,-108.443062
44963,-8.478352,4.765986,0.627906,-0.019731,0.074234,-0.066641,-0.206140,0.012247,-0.000765,-0.084783,0.047667,0.006235,0.999999,-0.001031,0.000061,-0.000004,0.110438,0.639457,-0.245812,-0.720052,82.938970,60.064798,-108.434117
44964,-8.467751,4.829954,0.533775,0.069318,-0.007514,-0.049936,-0.214545,0.025052,0.000583,-0.084677,0.048305,0.005297,0.999999,-0.001073,0.000125,0.000003,0.111186,0.639391,-0.245065,-0.720250,82.835586,60.059851,-108.411588
44965,-8.608955,4.855594,0.480192,0.148515,0.024422,0.081697,-0.205969,0.022272,0.001020,-0.086089,0.048560,0.004761,0.999999,-0.001030,0.000111,0.000005,0.111914,0.639320,-0.244343,-0.720445,82.734173,60.054345,-108.390934
44966,-8.569278,4.785197,0.569961,0.073607,0.083089,0.018038,-0.186715,0.014761,0.002039,-0.085693,0.047856,0.005661,1.000000,-0.000934,0.000074,0.000010,0.112576,0.639234,-0.243696,-0.720638,82.636993,60.047946,-108.377934
44967,-8.496824,4.730701,0.562889,0.085781,0.092330,-0.072231,-0.191139,0.006491,0.000009,-0.084968,0.047312,0.005586,1.000000,-0.000956,0.000032,0.000000,0.113234,0.639115,-0.243033,-0.720864,82.528414,60.041884,-108.375355
44968,-8.503894,4.660256,0.624733,0.045608,0.167149,-0.097006,-0.189096,0.008344,0.004349,-0.085040,0.046607,0.006207,1.000000,-0.000945,0.000042,0.000022,0.113891,0.638995,-0.242401,-0.721079,82.424011,60.033515,-108.371382
44969,-8.521315,4.680048,0.555671,0.120828,0.143488,-0.076710,-0.167507,0.015401,0.009263,-0.085215,0.046801,0.005524,1.000000,-0.000838,0.000077,0.000046,0.114518,0.638909,-0.241847,-0.721242,82.339000,60.022879,-108.357227
44970,-8.538358,4.826867,0.551082,0.114250,0.024312,0.010359,-0.159987,0.008600,0.006539,-0.085385,0.048270,0.005476,1.000000,-0.000800,0.000043,0.000033,0.115096,0.638805,-0.241320,-0.721419,82.251503,60.013458,-108.351763
44971,-8.439888,4.922849,0.608097,0.036935,-0.093943,-0.023625,-0.138467,-0.000999,0.003357,-0.084400,0.049231,0.006046,1.000000,-0.000692,-0.000005,0.000017,0.115589,0.638683,-0.240861,-0.721602,82.166252,60.004923,-108.357094
44972,-8.396678,5.001212,0.735753,-0.098240,-0.156867,-0.013535,-0.142842,0.003335,0.007376,-0.083969,0.050014,0.007323,1.000000,-0.000714,0.000017,0.000037,0.116110,0.638570,-0.240399,-0.721772,82.083769,59.994590,-108.357026
44973,-8.355714,5.061778,0.571529,0.056326,-0.261949,-0.030336,-0.196822,0.001813,0.005353,-0.083558,0.050621,0.005666,1.000000,-0.000984,0.000009,0.000027,0.116799,0.638421,-0.239734,-0.722014,81.968171,59.985137,-108.358791
44974,-8.376957,4.927308,0.783242,-0.119532,-0.095784,-0.063750,-0.170019,0.006595,0.013806,-0.083773,0.049274,0.007793,1.000000,-0.000850,0.000033,0.000069,0.117446,0.638299,-0.239184,-0.722199,81.874636,59.971449,-108.351853
44975,-8.389285,5.045648,0.709018,-0.052876,-0.206283,0.000366,-0.176217,0.021341,0.015303,-0.083896,0.050456,0.007055,1.000000,-0.000881,0.000107,0.000077,0.118128,0.638220,-0.238613,-0.722347,81.791457,59.957940,-108.329809
44976,-8.366561,4.996156,0.720538,-0.053425,-0.172211,-0.042960,-0.163551,0.016442,0.020254,-0.083670,0.049959,0.007171,1.000000,-0.000818,0.000082,0.000101,0.118788,0.638128,-0.238101,-0.722488,81.712197,59.941420,-108.310742
44977,-8.397333,4.954054,0.800985,-0.113848,-0.104482,-0.031299,-0.167653,0.016601,0.042785,-0.083983,0.049529,0.007975,1.000000,-0.000838,0.000083,0.000214,0.119537,0.638003,-0.237651,-0.722624,81.633259,59.911968,-108.289459
44978,-8.393653,4.905640,0.761515,-0.061506,-0.068863,-0.061273,-0.164941,0.020540,0.058995,-0.083950,0.049038,0.007583,1.000000,-0.000825,0.000103,0.000295,0.120339,0.637876,-0.237262,-0.722730,81.562947,59.873737,-108.260334
44979,-8.481057,4.935006,0.685156,0.030382,-0.061663,0.023334,-0.150078,0.034284,0.074344,-0.084828,0.049324,0.006829,1.000000,-0.000750,0.000171,0.000372,0.121166,0.637787,-0.236966,-0.722768,81.515974,59.827914,-108.213713
44980,-8.427622,5.174441,0.510026,0.169905,-0.318697,0.083238,-0.153823,0.032250,0.086138,-0.084298,0.051712,0.005074,1.000000,-0.000769,0.000161,0.000431,0.122043,0.637675,-0.236697,-0.722807,81.467330,59.775324,-108.167098
44981,-8.315222,5.134172,0.672681,0.005113,-0.299507,-0.021599,-0.131679,0.026907,0.096858,-0.083176,0.051306,0.006704,1.000000,-0.000658,0.000135,0.000484,0.122884,0.637543,-0.236543,-0.722832,81.426979,59.716154,-108.124965
44982,-8.261426,5.078939,0.952053,-0.264908,-0.216188,-0.074296,-0.093331,0.043666,0.121732,-0.082643,0.050744,0.009515,1.000000,-0.000467,0.000218,0.000609,0.123715,0.637469,-0.236595,-0.722739,81.429423,59.644397,-108.058460
44983,-8.415074,4.889905,0.679849,0.052306,-0.017724,-0.056470,-0.102220,0.068838,0.144573,-0.084184,0.048842,0.006802,1.000000,-0.000511,0.000344,0.000723,0.124684,0.637448,-0.236673,-0.722564,81.453188,59.561771,-107.961502
44984,-8.527503,4.994529,0.394906,0.338277,-0.089985,0.071494,-0.049149,0.055720,0.159941,-0.085314,0.049878,0.003961,1.000000,-0.000246,0.000279,0.000800,0.125520,0.637396,-0.237006,-0.722357,81.497446,59.469284,-107.876965
44985,-8.404289,5.233079,0.635000,0.055277,-0.292084,0.103563,0.037028,0.032652,0.177942,-0.084088,0.052255,0.006373,1.000000,0.000185,0.000163,0.000890,0.126122,0.637291,-0.237716,-0.722111,81.570213,59.364616,-107.815576
44986,-8.150494,5.562144,0.855417,-0.240486,-0.636821,0.068423,0.029097,0.032826,0.187351,-0.081556,0.055544,0.008576,1.000000,0.000145,0.000164,0.000937,0.126800,0.637180,-0.238412,-0.721860,81.640694,59.254773,-107.749150
44987,-8.148210,5.645459,0.701464,-0.098483,-0.716935,0.098562,-0.045620,0.050815,0.204478,-0.081538,0.056373,0.007022,0.999999,-0.000228,0.000254,0.001022,0.127783,0.637056,-0.238897,-0.721637,81.686214,59.136500,-107.664210
44988,-8.206383,5.589008,0.599699,0.020045,-0.637520,0.113767,-0.068382,0.068244,0.219381,-0.082123,0.055802,0.006006,0.999999,-0.000342,0.000341,0.001097,0.128922,0.636967,-0.239326,-0.721370,81.737336,59.011410,-107.556132
44989,-8.271882,5.538507,0.594713,0.043921,-0.540584,0.145152,-0.072867,0.076414,0.229832,-0.082780,0.055292,0.005959,0.999999,-0.000364,0.000382,0.001149,0.130113,0.636885,-0.239775,-0.721079,81.793741,58.880784,-107.440042
44990,-8.364289,5.416675,0.566528,0.103358,-0.372610,0.160932,-0.101358,0.081598,0.243690,-0.083706,0.054068,0.005672,0.999999,-0.000507,0.000408,0.001218,0.131454,0.636790,-0.240160,-0.720792,81.840656,58.742759,-107.315535
44991,-8.411913,5.321314,0.615235,0.078572,-0.233816,0.156980,-0.113498,0.073257,0.269320,-0.084188,0.053103,0.006153,0.999999,-0.000567,0.000366,0.001347,0.132913,0.636621,-0.240590,-0.720531,81.874667,58.589383,-107.198062
44992,-8.418383,5.229029,0.765399,-0.052130,-0.098110,0.126394,-0.082298,0.060521,0.288199,-0.084257,0.052172,0.007658,0.999999,-0.000411,0.000303,0.001441,0.134323,0.636404,-0.241203,-0.720256,81.917252,58.424252,-107.091819
44993,-8.450594,5.357270,0.828846,-0.119724,-0.150207,0.225385,-0.057720,0.064793,0.298886,-0.084583,0.053449,0.008300,0.999999,-0.000289,0.000324,0.001494,0.135701,0.636202,-0.241932,-0.719931,81.977615,58.253329,-106.980521
44994,-8.485654,5.503271,0.670438,0.029123,-0.253046,0.320271,-0.065145,0.054159,0.311781,-0.084940,0.054903,0.006709,0.999999,-0.000326,0.000271,0.001559,0.137142,0.635946,-0.242676,-0.719634,82.025708,58.074298,-106.877497
44995,-8.494719,5.532763,0.692173,0.011818,-0.237389,0.345770,-0.050264,0.031876,0.322613,-0.085035,0.055192,0.006921,0.999999,-0.000251,0.000159,0.001613,0.138540,0.635599,-0.243529,-0.719385,82.061711,57.887202,-106.799536
44996,-8.385890,5.605864,0.821007,-0.132369,-0.299173,0.302440,-0.056239,0.023320,0.327958,-0.083950,0.055923,0.008204,0.999999,-0.000281,0.000117,0.001640,0.139966,0.635210,-0.244382,-0.719163,82.087034,57.696505,-106.729997
44997,-8.280360,5.644835,0.682746,-0.008420,-0.377089,0.224857,-0.099502,0.031409,0.336789,-0.082897,0.056312,0.006812,0.999998,-0.000498,0.000157,0.001684,0.141570,0.634806,-0.245101,-0.718961,82.094957,57.501294,-106.651552
44998,-8.247750,5.624485,0.763137,-0.080032,-0.329943,0.193672,-0.126659,0.034402,0.343167,-0.082573,0.056108,0.007610,0.999998,-0.000633,0.000172,0.001716,0.143286,0.634385,-0.245740,-0.718775,82.090521,57.302842,-106.569226
44999,-8.206902,5.600019,0.748313,-0.056931,-0.300293,0.146224,-0.178808,0.034753,0.349609,-0.082165,0.055863,0.007447,0.999998,-0.000894,0.000174,0.001748,0.145191,0.633916,-0.246211,-0.718645,82.056610,57.100633,-106.486145
45000,-8.081756,5.419445,0.723745,-0.019831,-0.186189,-0.056980,-0.218995,0.057151,0.354007,-0.080911,0.054059,0.007201,0.999998,-0.001095,0.000286,0.001770,0.147265,0.633491,-0.246533,-0.718487,82.019699,56.897871,-106.379075
45001,-8.123912,5.330065,0.728991,0.002693,-0.056166,-0.069191,-0.209255,0.080525,0.356239,-0.081331,0.053163,0.007267,0.999998,-0.001046,0.000403,0.001781,0.149345,0.633150,-0.246880,-0.718239,82.008082,56.695590,-106.248119
45002,-8.220075,5.367662,0.649603,0.102378,-0.016760,0.025633,-0.205879,0.085593,0.359596,-0.082294,0.053535,0.006476,0.999998,-0.001029,0.000428,0.001798,0.151432,0.632825,-0.247245,-0.717963,82.002625,56.491957,-106.111867
45003,-8.199141,5.471743,0.724184,0.025767,-0.067724,0.070884,-0.160663,0.071012,0.371579,-0.082090,0.054571,0.007227,0.999998,-0.000803,0.000355,0.001858,0.153401,0.632462,-0.247819,-0.717667,82.010910,56.280224,-105.989823
45004,-8.164493,5.528094,0.874550,-0.123240,-0.072512,0.084940,-0.136162,0.057577,0.388045,-0.081749,0.055128,0.008731,0.999998,-0.000681,0.000288,0.001940,0.155333,0.632048,-0.248543,-0.717366,82.023188,56.058200,-105.879646
45005,-8.096382,5.503330,0.834249,-0.082107,-0.057600,0.011967,-0.141891,0.060807,0.399699,-0.081071,0.054877,0.008328,0.999998,-0.000709,0.000304,0.001998,0.157329,0.631622,-0.249280,-0.717050,82.035163,55.829673,-105.765497
45006,-8.142332,5.345349,0.788545,-0.005936,0.128702,-0.041536,-0.148263,0.051674,0.409328,-0.081530,0.053293,0.007867,0.999998,-0.000741,0.000258,0.002047,0.159367,0.631145,-0.250030,-0.716759,82.036403,55.595082,-105.659690
45007,-8.196198,5.432916,0.611915,0.178655,0.096958,0.037553,-0.135047,0.054085,0.407784,-0.082071,0.054166,0.006105,0.999998,-0.000675,0.000270,0.002039,0.161360,0.630684,-0.250819,-0.716443,82.045980,55.361420,-105.552577
45008,-8.234053,5.571544,0.606088,0.187717,0.042190,0.145823,-0.103062,0.042901,0.402919,-0.082451,0.055553,0.006050,0.999998,-0.000515,0.000215,0.002015,0.163220,0.630214,-0.251715,-0.716121,82.063589,55.129753,-105.457775
45009,-8.168747,5.675142,0.782280,0.005245,-0.011873,0.164654,-0.091544,0.022458,0.405893,-0.081802,0.056589,0.007806,0.999998,-0.000458,0.000112,0.002029,0.165028,0.629672,-0.252678,-0.715844,82.070564,54.894636,-105.383656
45010,-8.005618,5.688837,0.848641,-0.074995,-0.064181,0.044448,-0.118934,0.017507,0.405851,-0.080171,0.056731,0.008460,0.999998,-0.000595,0.000088,0.002029,0.166915,0.629088,-0.253545,-0.715614,82.057603,54.659288,-105.314602
45011,-7.905008,5.560895,0.840671,-0.060340,0.021098,-0.111387,-0.134432,0.028210,0.406184,-0.079162,0.055454,0.008381,0.999998,-0.000672,0.000141,0.002031,0.168865,0.628524,-0.254348,-0.715366,82.043667,54.424474,-105.235557
45012,-7.932439,5.573759,0.816505,-0.022649,0.060015,-0.083719,-0.125141,0.045871,0.396750,-0.079433,0.055585,0.008148,0.999998,-0.000626,0.000229,0.001984,0.170773,0.628042,-0.255138,-0.715055,82.047692,54.196550,-105.140810
45013,-7.951691,5.731612,0.666559,0.126356,-0.042671,0.011119,-0.143279,0.043032,0.386267,-0.079626,0.057167,0.006642,0.999998,-0.000716,0.000215,0.001931,0.172697,0.627544,-0.255832,-0.714783,82.037091,53.974221,-105.050934
45014,-7.836168,5.674392,0.853901,-0.060332,0.002257,-0.100342,-0.146111,0.034190,0.386279,-0.078470,0.056599,0.008511,0.999998,-0.000731,0.000171,0.001931,0.174617,0.627010,-0.256522,-0.714538,82.017730,53.751327,-104.969729
45015,-7.816229,5.580645,0.936089,-0.125678,0.114384,-0.164667,-0.173668,0.043730,0.389344,-0.078269,0.055662,0.009330,0.999998,-0.000868,0.000219,0.001947,0.176646,0.626478,-0.257114,-0.714293,81.989612,53.527343,-104.879471
45016,-7.770917,5.480161,0.726999,0.092933,0.173855,-0.278072,-0.209143,0.058522,0.385517,-0.077813,0.054659,0.007236,0.999998,-0.001046,0.000293,0.001928,0.178791,0.625970,-0.257552,-0.714046,81.951888,53.306875,-104.775694
45017,-7.851466,5.599364,0.648133,0.186390,0.148396,-0.150307,-0.171524,0.065197,0.380785,-0.078619,0.055850,0.006459,0.999998,-0.000858,0.000326,0.001904,0.180809,0.625522,-0.258104,-0.713732,81.939502,53.089524,-104.666806
45018,-7.809818,5.699302,0.824183,0.009477,0.104682,-0.109934,-0.118779,0.045711,0.376905,-0.078204,0.056851,0.008226,0.999998,-0.000594,0.000229,0.001885,0.182621,0.625055,-0.258847,-0.713410,81.941842,52.872950,-104.577104
45019,-7.795220,5.680026,1.072787,-0.227868,0.182498,-0.112497,-0.105817,0.037000,0.385208,-0.078059,0.056656,0.010712,0.999998,-0.000529,0.000185,0.001926,0.184412,0.624554,-0.259670,-0.713089,81.945165,52.650828,-104.495144
45020,-7.803371,5.714350,0.878023,-0.026625,0.169062,-0.102491,-0.131876,0.027666,0.391696,-0.078144,0.056996,0.008753,0.999998,-0.000659,0.000138,0.001958,0.186293,0.623986,-0.260427,-0.712821,81.927069,52.424418,-104.421203
45021,-7.784734,5.918166,0.734094,0.112583,0.012758,-0.006939,-0.150871,0.020443,0.389829,-0.077962,0.059035,0.007304,0.999998,-0.000754,0.000102,0.001949,0.188218,0.623374,-0.261117,-0.712599,81.892020,52.198370,-104.354618
45022,-7.760430,5.995763,1.083586,-0.227862,0.021472,0.051141,-0.142431,0.029301,0.389191,-0.077719,0.059814,0.010805,0.999998,-0.000712,0.000147,0.001946,0.190123,0.622799,-0.261824,-0.712336,81.868143,51.973559,-104.279887
45023,-7.844683,6.168963,0.931661,-0.061929,-0.050003,0.210122,-0.191945,0.048907,0.373883,-0.078560,0.061552,0.009277,0.999998,-0.000960,0.000245,0.001869,0.192154,0.622264,-0.262289,-0.712088,81.827946,51.758911,-104.189524
45024,-7.846210,6.127548,0.792031,0.092686,-0.000005,0.173726,-0.210293,0.039293,0.375293,-0.078575,0.061136,0.007871,0.999998,-0.001051,0.000196,0.001876,0.194233,0.621673,-0.262700,-0.711888,81.770396,51.542860,-104.107703
45025,-7.741535,6.013402,0.958375,-0.066201,0.083794,0.036136,-0.209398,0.029443,0.381946,-0.077529,0.059996,0.009532,0.999998,-0.001047,0.000147,0.001910,0.196320,0.621035,-0.263143,-0.711709,81.706607,51.322145,-104.034180
45026,-7.667422,5.881827,0.877464,0.024854,0.166044,-0.110786,-0.246478,0.038332,0.381383,-0.076785,0.058683,0.008717,0.999997,-0.001232,0.000192,0.001907,0.198529,0.620391,-0.263442,-0.711547,81.627896,51.102680,-103.952409
45027,-7.786785,5.837837,0.898966,0.038450,0.309919,-0.044122,-0.217603,0.060685,0.369853,-0.077973,0.058244,0.008950,0.999998,-0.001088,0.000303,0.001849,0.200638,0.619865,-0.263786,-0.711287,81.579776,50.891541,-103.852224
45028,-7.869708,6.065358,0.602010,0.347796,0.179201,0.133674,-0.207622,0.054502,0.351943,-0.078802,0.060521,0.005979,0.999998,-0.001038,0.000273,0.001760,0.202641,0.619350,-0.264113,-0.711046,81.531096,50.690227,-103.759937
45029,-7.800771,6.076704,0.859806,0.094983,0.192996,0.110582,-0.155926,0.024979,0.341353,-0.078110,0.060640,0.008560,0.999998,-0.000780,0.000125,0.001707,0.204408,0.618793,-0.264621,-0.710837,81.490056,50.492321,-103.695746
45030,-7.684018,6.152353,1.023160,-0.075151,0.113849,0.082955,-0.137957,0.024121,0.327069,-0.076939,0.061405,0.010198,0.999998,-0.000690,0.000121,0.001635,0.206066,0.618268,-0.265148,-0.710618,81.457291,50.302608,-103.634091
45031,-7.587869,5.987204,0.843052,0.106983,0.189746,-0.112916,-0.196831,0.016336,0.313425,-0.075972,0.059761,0.008378,0.999998,-0.000984,0.000082,0.001567,0.207847,0.617670,-0.265432,-0.710513,81.383776,50.119851,-103.581308
45032,-7.601446,5.357048,1.215036,-0.226561,0.757318,-0.467564,-0.115164,0.019964,0.295678,-0.076092,0.053465,0.012127,0.999999,-0.000576,0.000100,0.001478,0.209317,0.617193,-0.265945,-0.710305,81.357837,49.947636,-103.527458
45033,-7.790159,5.361953,0.684248,0.333677,0.834787,-0.373564,-0.108814,0.034330,0.287430,-0.077977,0.053511,0.006827,0.999999,-0.000544,0.000172,0.001437,0.210756,0.616781,-0.266440,-0.710051,81.343951,49.781195,-103.462373
45034,-7.654330,5.610546,0.503155,0.491350,0.563258,-0.338437,-0.057920,0.007530,0.273433,-0.076620,0.056002,0.005018,0.999999,-0.000290,0.000038,0.001367,0.211952,0.616347,-0.267100,-0.709824,81.339857,49.620544,-103.422613
45035,-7.484498,5.952176,1.255358,-0.283089,0.309016,-0.177006,0.032496,-0.005005,0.262503,-0.074923,0.059421,0.012561,0.999999,0.000162,-0.000025,0.001313,0.212815,0.615976,-0.268061,-0.709526,81.377703,49.464831,-103.395639
45036,-7.300805,6.239881,0.953594,-0.016945,-0.038164,-0.161500,-0.046192,0.011492,0.242564,-0.073083,0.062312,0.009526,0.999999,-0.000231,0.000057,0.001213,0.213869,0.615606,-0.268662,-0.709302,81.379407,49.322000,-103.356909
45037,-7.278450,6.079140,0.956079,-0.012897,0.093561,-0.281848,-0.062118,0.020241,0.233194,-0.072854,0.060709,0.009549,0.999999,-0.000311,0.000101,0.001166,0.214952,0.615261,-0.269169,-0.709082,81.376451,49.185053,-103.312119
45038,-7.270769,5.816614,1.103910,-0.148119,0.327820,-0.443255,-0.055325,0.020001,0.227026,-0.072773,0.058087,0.011030,0.999999,-0.000277,0.000100,0.001135,0.215991,0.614931,-0.269680,-0.708859,81.376669,49.051756,-103.268273
45039,-7.418997,5.701365,0.869510,0.114025,0.503099,-0.429885,-0.090478,0.029457,0.212379,-0.074249,0.056939,0.008680,0.999999,-0.000452,0.000147,0.001062,0.217099,0.614614,-0.270011,-0.708669,81.361120,48.927397,-103.218460
45040,-7.487613,5.685938,0.840470,0.159455,0.574123,-0.392201,-0.089009,0.016679,0.194970,-0.074931,0.056790,0.008386,0.999999,-0.000445,0.000083,0.000975,0.218122,0.614277,-0.270307,-0.708534,81.336500,48.811994,-103.181796
45041,-7.480960,5.823093,0.941717,0.060672,0.494868,-0.298938,-0.054547,0.015117,0.175971,-0.074860,0.058168,0.009407,1.000000,-0.000273,0.000076,0.000880,0.218971,0.613996,-0.270669,-0.708378,81.328474,48.707039,-103.149180
45042,-7.386703,5.965064,0.928437,0.061105,0.340741,-0.279193,-0.053038,0.007844,0.148791,-0.073911,0.059598,0.009271,1.000000,-0.000265,0.000039,0.000744,0.219708,0.613729,-0.270959,-0.708270,81.314099,48.617052,-103.126202
45043,-7.317056,6.057054,1.036055,-0.052538,0.251937,-0.261019,-0.061528,0.002621,0.130933,-0.073210,0.060526,0.010343,1.000000,-0.000308,0.000013,0.000655,0.220401,0.613456,-0.271171,-0.708210,81.289535,48.536534,-103.110215
45044,-7.340627,5.970175,1.110051,-0.114510,0.352651,-0.293101,-0.077076,0.002260,0.113861,-0.073440,0.059664,0.011078,1.000000,-0.000385,0.000011,0.000569,0.221080,0.613189,-0.271276,-0.708190,81.254368,48.465862,-103.096548
45045,-7.378534,5.911690,1.133629,-0.125573,0.433354,-0.300990,-0.071021,0.015058,0.089245,-0.073811,0.059088,0.011321,1.000000,-0.000355,0.000075,0.000446,0.221672,0.613006,-0.271312,-0.708149,81.228244,48.410048,-103.075344
45046,-7.435498,5.888810,0.909981,0.109132,0.469183,-0.296347,-0.098330,0.029837,0.061945,-0.074372,0.058870,0.009082,1.000000,-0.000492,0.000149,0.000310,0.222269,0.612882,-0.271151,-0.708130,81.193400,48.371203,-103.044926
45047,-7.360775,6.028998,0.799786,0.209878,0.307896,-0.271690,-0.094032,0.007872,0.051050,-0.073623,0.060275,0.007972,1.000000,-0.000470,0.000039,0.000255,0.222786,0.612699,-0.270997,-0.708185,81.145771,48.336399,-103.034829
45048,-7.235876,6.217881,1.087697,-0.091159,0.120896,-0.211641,-0.051797,-0.006026,0.042067,-0.072372,0.062166,0.010859,1.000000,-0.000259,-0.000030,0.000210,0.223122,0.612528,-0.270979,-0.708235,81.112823,48.305677,-103.037538
45049,-7.262721,6.256757,0.966824,0.037025,0.099057,-0.178494,-0.082714,0.003111,0.029785,-0.072636,0.062561,0.009643,1.000000,-0.000414,0.000016,0.000149,0.223522,0.612369,-0.270805,-0.708312,81.066575,48.282497,-103.034268
45050,-7.269791,6.233676,0.995164,0.016093,0.126050,-0.185498,-0.074951,-0.001900,0.013775,-0.072702,0.062335,0.009928,1.000000,-0.000375,-0.000010,0.000069,0.223835,0.612224,-0.270614,-0.708412,81.020201,48.268155,-103.037190
45051,-7.176282,6.053722,1.129557,-0.123005,0.216311,-0.359617,-0.072862,0.001483,0.001941,-0.071763,0.060541,0.011274,1.000000,-0.000364,0.000007,0.000010,0.224104,0.612109,-0.270392,-0.708512,80.975807,48.260589,-103.038998
45052,-7.172983,6.029969,1.037113,-0.025675,0.221250,-0.387285,-0.132787,0.015290,-0.006224,-0.071727,0.060309,0.010337,1.000000,-0.000664,0.000076,-0.000031,0.224545,0.611987,-0.269915,-0.708659,80.905201,48.259112,-103.029982
45053,-7.205329,5.708358,1.035508,-0.009251,0.482545,-0.574644,-0.114170,0.029185,-0.017116,-0.072047,0.057096,0.010333,1.000000,-0.000571,0.000146,-0.000086,0.224911,0.611948,-0.269457,-0.708751,80.852782,48.264841,-103.010827
45054,-7.387449,5.810737,0.825988,0.227477,0.498815,-0.393517,-0.083837,0.041631,-0.026365,-0.073865,0.058121,0.008251,1.000000,-0.000419,0.000208,-0.000132,0.225166,0.612001,-0.269062,-0.708774,80.824871,48.277178,-102.982181
45055,-7.361779,6.104346,0.809559,0.238111,0.256704,-0.221461,-0.023210,0.019288,-0.032438,-0.073607,0.061056,0.008096,1.000000,-0.000116,0.000096,-0.000162,0.225186,0.612050,-0.268890,-0.708791,80.816722,48.290681,-102.973543
45056,-7.196898,6.374539,1.123590,-0.100575,-0.022754,-0.133746,0.047342,-0.008875,-0.033755,-0.071959,0.063755,0.011248,1.000000,0.000237,-0.000044,-0.000169,0.224946,0.612082,-0.268995,-0.708800,80.831174,48.302597,-102.988837
45057,-7.202961,6.472873,1.171631,-0.149876,-0.089003,-0.059582,0.050927,-0.020678,-0.026118,-0.072022,0.064735,0.011725,1.000000,0.000255,-0.000103,-0.000131,0.224707,0.612064,-0.269150,-0.708832,80.840782,48.308877,-103.013310
45058,-7.246050,6.539562,0.995484,0.029203,-0.130844,-0.002278,0.039169,-0.026155,-0.022404,-0.072454,0.065402,0.009958,1.000000,0.000196,-0.000131,-0.000112,0.224509,0.612010,-0.269280,-0.708892,80.840732,48.312797,-103.041747
45059,-7.248607,6.560864,1.068159,-0.043166,-0.138227,0.021296,0.046638,-0.020220,-0.026318,-0.072479,0.065616,0.010690,1.000000,0.000233,-0.000101,-0.000132,0.224283,0.611989,-0.269418,-0.708929,80.848146,48.319235,-103.065861
45060,-7.240849,6.560236,0.970632,0.052088,-0.154902,0.004747,-0.002846,-0.009739,-0.034016,-0.072398,0.065615,0.009702,1.000000,-0.000014,-0.000049,-0.000170,0.224195,0.611962,-0.269345,-0.709008,80.833254,48.331216,-103.081935
45061,-7.298599,6.499978,0.867739,0.164980,-0.085794,-0.002608,-0.034963,0.002336,-0.036497,-0.072974,0.065015,0.008667,1.000000,-0.000175,0.000012,-0.000182,0.224213,0.611943,-0.269138,-0.709097,80.807190,48.345466,-103.088271
45062,-7.345498,6.276203,1.008871,0.036756,0.125785,-0.099412,-0.000565,-0.009717,-0.036083,-0.073444,0.062775,0.010085,1.000000,-0.000003,-0.000049,-0.000180,0.224110,0.611921,-0.269067,-0.709176,80.793390,48.358608,-103.104629
45063,-7.287748,6.231205,1.063529,-0.024858,0.125875,-0.166247,0.010654,-0.006843,-0.035504,-0.072867,0.062324,0.010636,1.000000,0.000053,-0.000034,-0.000178,0.223980,0.611920,-0.269035,-0.709230,80.787712,48.371452,-103.118656
45064,-7.345011,5.983583,1.249984,-0.198322,0.367868,-0.265947,0.052760,-0.019330,-0.037992,-0.073440,0.059846,0.012509,1.000000,0.000264,-0.000097,-0.000190,0.223694,0.611926,-0.269157,-0.709269,80.798134,48.384793,-103.143475
45065,-7.461887,6.167859,1.090238,-0.028407,0.285839,-0.074702,0.097110,-0.001986,-0.032364,-0.074609,0.061685,0.010932,1.000000,0.000486,-0.000010,-0.000162,0.223317,0.612034,-0.269436,-0.709188,80.845407,48.396311,-103.152929
45066,-7.417388,6.767155,0.876693,0.163660,-0.219423,0.262316,0.078417,-0.019287,-0.028030,-0.074165,0.067679,0.008786,1.000000,0.000392,-0.000096,-0.000140,0.222988,0.612055,-0.269680,-0.709181,80.871572,48.404046,-103.176337
45067,-7.276528,6.990978,1.308067,-0.289018,-0.433361,0.349071,0.036586,-0.024658,-0.032281,-0.072756,0.069919,0.013084,1.000000,0.000183,-0.000123,-0.000161,0.222766,0.612015,-0.269769,-0.709251,80.869733,48.413461,-103.205090
45068,-7.225891,6.899560,1.312728,-0.299201,-0.398898,0.251708,-0.037253,0.010662,-0.035407,-0.072246,0.069011,0.013118,1.000000,-0.000186,0.000053,-0.000177,0.222805,0.612024,-0.269547,-0.709316,80.847951,48.428087,-103.203993
45069,-7.391160,6.654164,0.781767,0.257222,-0.168520,0.158458,-0.090808,0.025120,-0.038890,-0.073898,0.066560,0.007797,1.000000,-0.000454,0.000126,-0.000194,0.223017,0.612027,-0.269109,-0.709413,80.804164,48.445772,-103.191244
45070,-7.458559,6.637524,0.902746,0.153104,-0.102904,0.210673,-0.086312,0.002844,-0.031326,-0.074575,0.066391,0.009000,1.000000,-0.000432,0.000014,-0.000157,0.223210,0.611948,-0.268734,-0.709563,80.749685,48.457366,-103.196280
45071,-7.299481,6.459339,1.142058,-0.099955,-0.048265,0.000440,-0.077495,0.003896,-0.030884,-0.072985,0.064609,0.011397,1.000000,-0.000387,0.000019,-0.000154,0.223380,0.611879,-0.268391,-0.709698,80.700786,48.468579,-103.200555
45072,-7.357637,6.376072,0.992085,0.062282,0.033562,-0.026558,-0.067858,0.015891,-0.019373,-0.073569,0.063771,0.009905,1.000000,-0.000339,0.000079,-0.000097,0.223577,0.611850,-0.268104,-0.709770,80.666440,48.474616,-103.192823
45073,-7.436014,6.355573,0.692189,0.373688,0.066622,-0.013573,-0.025804,-0.000434,-0.007777,-0.074358,0.063560,0.006914,1.000000,-0.000129,-0.000002,-0.000039,0.223665,0.611794,-0.268020,-0.709822,80.646805,48.472360,-103.197569
45074,-7.345562,6.298712,0.921015,0.135060,0.076617,-0.093880,0.052569,-0.022560,0.003304,-0.073458,0.062983,0.009218,1.000000,0.000263,-0.000113,0.000017,0.223522,0.611732,-0.268272,-0.709825,80.659300,48.462003,-103.219439
45075,-7.293167,6.434781,0.999213,0.046641,-0.049229,-0.035647,0.071440,-0.017090,0.009728,-0.072936,0.064341,0.010009,1.000000,0.000357,-0.000085,0.000049,0.223353,0.611702,-0.268606,-0.709779,80.686590,48.448304,-103.235933
45076,-7.193096,6.413380,0.955750,0.071753,-0.099014,-0.129167,0.079208,-0.012754,0.017780,-0.071937,0.064124,0.009578,1.000000,0.000396,-0.000064,0.000089,0.223193,0.611685,-0.268985,-0.709699,80.722121,48.430682,-103.247428
45077,-7.295486,6.538893,1.040173,-0.001919,-0.114346,0.038714,0.091902,0.003891,0.022959,-0.072962,0.065376,0.010433,1.000000,0.000460,0.000019,0.000115,0.223036,0.611734,-0.269409,-0.709546,80.775876,48.411448,-103.244224
45078,-7.398777,6.750966,0.831612,0.213366,-0.226594,0.232816,0.032162,0.012652,0.020203,-0.073994,0.067501,0.008332,1.000000,0.000161,0.000063,0.000101,0.223063,0.611752,-0.269600,-0.709449,80.800871,48.394794,-103.233771
45079,-7.305783,6.719592,1.107945,-0.074607,-0.229327,0.172140,0.021329,-0.004799,0.019472,-0.073065,0.067188,0.011085,1.000000,0.000107,-0.000024,0.000097,0.223098,0.611695,-0.269772,-0.709421,80.808274,48.376735,-103.238478
45080,-7.300179,6.666684,1.180250,-0.146459,-0.182351,0.140984,0.000187,0.015020,0.012163,-0.073005,0.066662,0.011808,1.000000,0.000001,0.000075,0.000061,0.223197,0.611697,-0.269824,-0.709369,80.815615,48.364837,-103.227132
45081,-7.316899,6.559395,0.809986,0.224972,-0.129228,0.043856,-0.052510,0.012100,0.013947,-0.073173,0.065591,0.008087,1.000000,-0.000263,0.000060,0.000070,0.223461,0.611626,-0.269698,-0.709396,80.790896,48.351450,-103.218214
45082,-7.276391,6.391727,1.010061,0.026012,-0.005227,-0.075154,-0.026419,0.003070,0.014005,-0.072768,0.063914,0.010093,1.000000,-0.000132,0.000015,0.000070,0.223632,0.611553,-0.269673,-0.709414,80.775587,48.337413,-103.216778
45083,-7.233189,6.379919,1.064276,-0.032041,-0.016362,-0.109400,-0.028442,0.013520,0.015127,-0.072336,0.063795,0.010639,1.000000,-0.000142,0.000068,0.000076,0.223829,0.611511,-0.269635,-0.709402,80.765685,48.323493,-103.206482
45084,-7.199020,6.330408,0.846941,0.179818,-0.022544,-0.190607,-0.028718,0.012979,0.019462,-0.071996,0.063298,0.008465,1.000000,-0.000144,0.000065,0.000097,0.224040,0.611463,-0.269608,-0.709387,80.755919,48.307281,-103.195859
45085,-7.233131,6.336447,0.965884,0.067977,0.011072,-0.148479,0.006904,0.014190,0.028817,-0.072340,0.063354,0.009666,1.000000,0.000035,0.000071,0.000144,0.224177,0.611446,-0.269736,-0.709310,80.768099,48.285681,-103.183104
45086,-7.290887,6.481851,0.911477,0.128452,-0.062793,-0.015658,0.011018,0.006505,0.036540,-0.072920,0.064805,0.009121,1.000000,0.000055,0.000033,0.000183,0.224319,0.611396,-0.269910,-0.709242,80.778742,48.259215,-103.175637
45087,-7.256911,6.447735,1.011387,0.025170,-0.043487,-0.052747,0.007977,0.000337,0.038493,-0.072582,0.064463,0.010117,1.000000,0.000040,0.000002,0.000192,0.224469,0.611317,-0.270087,-0.709195,80.783731,48.230868,-103.173337
45088,-7.288740,6.432462,1.055592,-0.013685,-0.001567,-0.034324,0.012006,0.016175,0.041066,-0.072900,0.064309,0.010566,1.000000,0.000060,0.000081,0.000205,0.224636,0.611297,-0.270267,-0.709091,80.801507,48.202725,-103.157058
45089,-7.410055,6.396084,0.918607,0.140028,0.094575,0.017577,-0.001710,0.018150,0.037160,-0.074112,0.063947,0.009192,1.000000,-0.000009,0.000091,0.000186,0.224835,0.611272,-0.270385,-0.709004,80.812055,48.176762,-103.139850
45090,-7.424455,6.451330,0.965368,0.094986,0.071742,0.069618,0.014711,0.007053,0.029110,-0.074254,0.064502,0.009661,1.000000,0.000074,0.000035,0.000146,0.224939,0.611239,-0.270549,-0.708938,80.824362,48.154544,-103.132980
45091,-7.335901,6.428321,1.045725,0.001823,0.044011,-0.002980,0.027102,-0.001513,0.020897,-0.073366,0.064274,0.010465,1.000000,0.000136,-0.000008,0.000104,0.224966,0.611199,-0.270741,-0.708890,80.837313,48.135980,-103.134697
45092,-7.251034,6.436038,0.979623,0.054139,-0.021428,-0.068133,0.006616,-0.004113,0.010070,-0.072514,0.064356,0.009797,1.000000,0.000033,-0.000021,0.000050,0.225012,0.611143,-0.270831,-0.708890,80.835983,48.123512,-103.139908
45093,-7.174948,6.465057,1.061226,-0.037439,-0.081841,-0.096982,-0.007122,-0.000615,0.010534,-0.071753,0.064647,0.010610,1.000000,-0.000036,-0.000003,0.000053,0.225108,0.611081,-0.270869,-0.708898,80.828838,48.110892,-103.142281
45094,-7.180374,6.441916,1.061054,-0.034739,-0.059293,-0.108195,-0.038099,0.021434,0.010388,-0.071806,0.064417,0.010606,1.000000,-0.000190,0.000107,0.000052,0.225326,0.611064,-0.270772,-0.708880,80.818035,48.100576,-103.125803
45095,-7.343695,6.461650,0.972568,0.079058,0.023603,0.016954,-0.054193,0.030048,0.005359,-0.073437,0.064617,0.009719,1.000000,-0.000271,0.000150,0.000027,0.225589,0.611066,-0.270594,-0.708863,80.802727,48.093688,-103.102908
45096,-7.355525,6.414380,0.971775,0.083825,0.067741,-0.005509,-0.041738,0.026256,0.008098,-0.073557,0.064143,0.009714,1.000000,-0.000209,0.000131,0.000040,0.225817,0.611065,-0.270471,-0.708838,80.792642,48.085113,-103.082659
45097,-7.307448,6.324817,1.025174,0.026185,0.110789,-0.094656,-0.024105,0.010023,0.006573,-0.073076,0.063247,0.010248,1.000000,-0.000121,0.000050,0.000033,0.225965,0.611027,-0.270426,-0.708841,80.782077,48.075707,-103.076554
45098,-7.301055,6.348834,1.026634,0.024762,0.090177,-0.083436,-0.003704,-0.000586,0.007433,-0.073013,0.063486,0.010265,1.000000,-0.000019,-0.000003,0.000037,0.226039,0.610976,-0.270466,-0.708846,80.776808,48.065050,-103.079117
45099,-7.227123,6.431998,1.011361,0.029350,-0.020623,-0.085228,-0.006095,-0.012318,0.003895,-0.072273,0.064319,0.010107,1.000000,-0.000030,-0.000062,0.000019,0.226092,0.610883,-0.270502,-0.708896,80.762225,48.055107,-103.092282
45100,-7.076661,6.387598,1.174100,-0.152049,-0.066730,-0.208965,-0.012362,-0.002884,0.000447,-0.070767,0.063877,0.011736,1.000000,-0.000062,-0.000014,0.000002,0.226164,0.610822,-0.270493,-0.708928,80.749840,48.048189,-103.097743
45101,-7.183512,6.396395,0.992522,0.044862,-0.022581,-0.143185,-0.041808,0.031399,0.000551,-0.071834,0.063966,0.009923,1.000000,-0.000209,0.000157,0.000003,0.226373,0.610849,-0.270342,-0.708896,80.741963,48.044162,-103.074380
45102,-7.284304,6.250380,0.858077,0.195331,0.138804,-0.179037,-0.034867,0.024817,-0.002463,-0.072841,0.062506,0.008579,1.000000,-0.000174,0.000124,-0.000012,0.226541,0.610865,-0.270213,-0.708878,80.733811,48.041440,-103.056810
45103,-7.288209,6.272460,0.955879,0.099380,0.135971,-0.151058,-0.003526,0.016541,0.003319,-0.072882,0.062724,0.009564,1.000000,-0.000018,0.000083,0.000017,0.226623,0.610878,-0.270223,-0.708837,80.738804,48.034480,-103.045634
45104,-7.310625,6.301701,1.001582,0.056428,0.134775,-0.110188,0.014007,0.016915,0.002009,-0.073106,0.063016,0.010026,1.000000,0.000070,0.000085,0.000010,0.226647,0.610916,-0.270290,-0.708771,80.754143,48.028503,-103.034131
45105,-7.441143,6.230036,1.106618,-0.029872,0.286402,-0.049202,0.060670,0.014412,-0.001168,-0.074410,0.062297,0.011090,1.000000,0.000303,0.000072,-0.000006,0.226514,0.611000,-0.270517,-0.708654,80.794112,48.023880,-103.025380
45106,-7.472281,6.368277,1.002324,0.072296,0.193386,0.054022,0.089670,-0.008615,-0.007661,-0.074721,0.063681,0.010049,1.000000,0.000448,-0.000043,-0.000038,0.226238,0.611046,-0.270851,-0.708575,80.835757,48.021032,-103.036803
45107,-7.267441,6.514131,1.094200,-0.054650,-0.038622,0.007821,0.094482,-0.034845,-0.017554,-0.072671,0.065143,0.010960,1.000000,0.000472,-0.000174,-0.000088,0.225877,0.611016,-0.271203,-0.708582,80.862463,48.021182,-103.071953
45108,-7.149373,6.652770,1.276989,-0.256865,-0.199702,0.030977,0.044488,-0.018519,-0.021990,-0.071488,0.066533,0.012778,1.000000,0.000222,-0.000093,-0.000110,0.225675,0.610995,-0.271344,-0.708610,80.870539,48.025549,-103.093706
45109,-7.109061,6.624265,1.035558,-0.023526,-0.232094,-0.043471,-0.034726,0.007388,-0.027750,-0.071081,0.066254,0.010347,1.000000,-0.000174,0.000037,-0.000139,0.225730,0.610982,-0.271159,-0.708674,80.848737,48.035314,-103.094524
45110,-7.134948,6.527261,1.033746,-0.014674,-0.144865,-0.088488,-0.049337,0.021331,-0.027207,-0.071339,0.065285,0.010329,1.000000,-0.000247,0.000107,-0.000136,0.225850,0.611003,-0.270908,-0.708714,80.827580,48.046253,-103.083290
45111,-7.188317,6.312169,1.002964,0.028102,0.045758,-0.194037,-0.059034,0.030700,-0.027564,-0.071873,0.063135,0.010022,1.000000,-0.000295,0.000153,-0.000138,0.226011,0.611046,-0.270611,-0.708740,80.806532,48.058045,-103.064369
45112,-7.329526,6.145166,0.963540,0.091827,0.256981,-0.203371,-0.037418,0.014949,-0.020164,-0.073288,0.061461,0.009629,1.000000,-0.000187,0.000075,-0.000101,0.226111,0.611048,-0.270430,-0.708775,80.788903,48.064419,-103.057577
45113,-7.410386,6.082963,1.101375,-0.031645,0.370426,-0.169500,0.042717,-0.004469,-0.016454,-0.074099,0.060833,0.011025,1.000000,0.000214,-0.000022,-0.000082,0.225954,0.611066,-0.270567,-0.708757,80.805147,48.066709,-103.066898
45114,-7.379963,6.177994,1.030089,0.031691,0.271808,-0.137066,0.066634,-0.030118,-0.014511,-0.073797,0.061782,0.010310,1.000000,0.000333,-0.000151,-0.000073,0.225694,0.611018,-0.270823,-0.708783,80.819336,48.065769,-103.097472
45115,-7.244840,6.319195,1.042138,-0.005056,0.079651,-0.143168,0.109650,-0.027823,-0.019974,-0.072444,0.063193,0.010446,1.000000,0.000548,-0.000139,-0.000100,0.225288,0.611033,-0.271214,-0.708750,80.858868,48.067924,-103.127040
45116,-7.351362,6.597341,1.029748,0.015450,-0.061039,0.118266,0.113840,-0.031658,-0.026337,-0.073507,0.065977,0.010323,1.000000,0.000569,-0.000158,-0.000132,0.224840,0.611050,-0.271602,-0.708729,80.897931,48.073561,-103.160530
45117,-7.244892,6.798042,0.965450,0.057056,-0.288500,0.164659,0.058754,-0.027915,-0.025732,-0.072442,0.067987,0.009664,1.000000,0.000294,-0.000140,-0.000129,0.224569,0.611015,-0.271794,-0.708772,80.907658,48.078987,-103.190958
45118,-7.156553,6.686508,1.315750,-0.301636,-0.223969,0.062316,0.031378,-0.027580,-0.021627,-0.071560,0.066871,0.013158,1.000000,0.000157,-0.000138,-0.000108,0.224396,0.610946,-0.271901,-0.708845,80.902515,48.082335,-103.220359
45119,-7.304380,6.472776,1.225986,-0.186492,0.021510,0.021874,-0.018862,0.003583,-0.028099,-0.073034,0.064739,0.012255,1.000000,-0.000094,0.000018,-0.000140,0.224396,0.610938,-0.271775,-0.708900,80.887373,48.091954,-103.224440
45120,-7.529714,6.384578,0.959077,0.114730,0.202441,0.103214,-0.022378,-0.008178,-0.030578,-0.075288,0.063858,0.009581,1.000000,-0.000112,-0.000041,-0.000153,0.224381,0.610890,-0.271642,-0.708997,80.862732,48.102114,-103.238644
45121,-7.415025,6.421625,1.169041,-0.108660,0.121536,0.064556,0.024614,-0.040617,-0.027551,-0.074144,0.064225,0.011683,1.000000,0.000123,-0.000203,-0.000138,0.224191,0.610774,-0.271722,-0.709127,80.844677,48.107396,-103.280103
45122,-7.311298,6.567025,1.256354,-0.210555,-0.046711,0.092503,0.025994,-0.055442,-0.026556,-0.073108,0.065678,0.012552,1.000000,0.000130,-0.000277,-0.000133,0.223978,0.610607,-0.271825,-0.709298,80.818340,48.110962,-103.333811
45123,-7.170669,6.537617,1.029024,-0.002437,-0.143086,-0.055775,-0.036016,-0.055051,-0.026289,-0.071701,0.065387,0.010259,1.000000,-0.000180,-0.000275,-0.000131,0.223958,0.610370,-0.271710,-0.709553,80.756557,48.114173,-103.387340
45124,-7.209954,6.384853,1.297552,-0.255252,0.025560,-0.098388,0.008723,-0.028474,-0.028193,-0.072092,0.063858,0.012968,1.000000,0.000044,-0.000142,-0.000141,0.223829,0.610282,-0.271717,-0.709667,80.737142,48.121094,-103.418450
45125,-7.319921,6.421679,0.945801,0.110945,0.027705,-0.030016,-0.025550,-0.007724,-0.031788,-0.073189,0.064230,0.009447,1.000000,-0.000128,-0.000039,-0.000159,0.223821,0.610232,-0.271569,-0.709769,80.710621,48.131746,-103.432666
45126,-7.382864,6.438159,0.844881,0.223465,0.042608,0.016791,-0.019260,-0.034033,-0.026334,-0.073822,0.064392,0.008430,1.000000,-0.000096,-0.000170,-0.000132,0.223776,0.610089,-0.271488,-0.709936,80.671833,48.137079,-103.468250
45127,-7.256698,6.445443,1.129905,-0.074584,-0.013998,-0.041591,0.008932,-0.031836,-0.018431,-0.072563,0.064461,0.011290,1.000000,0.000045,-0.000159,-0.000092,0.223678,0.609974,-0.271531,-0.710050,80.651224,48.137928,-103.501053
45128,-7.290426,6.302556,1.101551,-0.038049,0.111779,-0.113616,0.023401,-0.019228,-0.015425,-0.072900,0.063030,0.011016,1.000000,0.000117,-0.000096,-0.000077,0.223562,0.609917,-0.271618,-0.710102,80.647348,48.138455,-103.522580
45129,-7.417365,6.215248,0.866631,0.214439,0.233333,-0.102011,0.062095,-0.023331,-0.015805,-0.074170,0.062156,0.008677,1.000000,0.000310,-0.000117,-0.000079,0.223322,0.609888,-0.271848,-0.710114,80.662837,48.138607,-103.547812
45130,-7.448829,6.375184,0.813378,0.267460,0.127904,0.021015,0.100154,-0.040261,-0.013086,-0.074486,0.063753,0.008151,1.000000,0.000501,-0.000201,-0.000065,0.222952,0.609839,-0.272238,-0.710123,80.689909,48.135870,-103.586831
45131,-7.307809,6.432175,1.068848,-0.011056,0.023746,-0.018879,0.130310,-0.054969,-0.021593,-0.073074,0.064323,0.010710,1.000000,0.000652,-0.000275,-0.000108,0.222441,0.609781,-0.272727,-0.710145,80.723924,48.136384,-103.639670
45132,-7.282896,6.573200,1.166121,-0.117164,-0.086697,0.065882,0.114430,-0.044390,-0.026583,-0.072823,0.065735,0.011683,1.000000,0.000572,-0.000222,-0.000133,0.221973,0.609751,-0.273132,-0.710162,80.755179,48.140930,-103.684057
45133,-7.293057,6.656385,0.942590,0.101649,-0.169225,0.104250,0.049146,-0.035306,-0.026298,-0.072923,0.066571,0.009429,1.000000,0.000246,-0.000177,-0.000131,0.221719,0.609679,-0.273297,-0.710240,80.754608,48.145944,-103.720887
45134,-7.138324,6.411435,1.054705,-0.028040,-0.073510,-0.160310,0.005186,-0.031961,-0.031590,-0.071375,0.064125,0.010537,1.000000,0.000026,-0.000160,-0.000158,0.221584,0.609579,-0.273284,-0.710373,80.730590,48.154464,-103.755442
45135,-7.208522,6.140837,1.341935,-0.294279,0.207265,-0.255287,0.004784,-0.002028,-0.037880,-0.072074,0.061422,0.013420,1.000000,0.000024,-0.000010,-0.000189,0.221470,0.609592,-0.273219,-0.710423,80.724405,48.169088,-103.765680
45136,-7.385725,6.169697,0.859480,0.209508,0.240451,-0.156027,-0.020444,0.021883,-0.041028,-0.073844,0.061713,0.008597,1.000000,-0.000102,0.000109,-0.000205,0.221453,0.609667,-0.273027,-0.710437,80.718719,48.187911,-103.755910
45137,-7.377591,6.617033,0.862577,0.196706,-0.103752,0.132591,0.018131,-0.006309,-0.031851,-0.073766,0.066181,0.008629,1.000000,0.000091,-0.000032,-0.000159,0.221313,0.609671,-0.273032,-0.710475,80.718087,48.198730,-103.768954
45138,-7.094025,6.987178,1.235717,-0.222280,-0.523377,0.204773,-0.006695,-0.026154,-0.017947,-0.070936,0.069879,0.012346,1.000000,-0.000033,-0.000131,-0.000090,0.221270,0.609560,-0.273013,-0.710592,80.692295,48.200061,-103.796730
45139,-7.003062,6.682907,1.345119,-0.334309,-0.341935,-0.051295,-0.099990,0.002706,-0.018777,-0.070024,0.066842,0.013419,1.000000,-0.000500,0.000014,-0.000094,0.221550,0.609447,-0.272628,-0.710749,80.631029,48.204316,-103.800321
45140,-7.256702,6.303659,0.882460,0.174691,0.051158,-0.161706,-0.112070,0.047359,-0.016748,-0.072560,0.063048,0.008806,1.000000,-0.000560,0.000237,-0.000084,0.221933,0.609478,-0.272156,-0.710784,80.591462,48.211798,-103.765588
45141,-7.506052,6.320979,0.616098,0.479552,0.167323,0.006538,-0.041230,0.024273,-0.009306,-0.075057,0.063215,0.006157,1.000000,-0.000206,0.000121,-0.000047,0.222096,0.609494,-0.271986,-0.710784,80.578490,48.212719,-103.749563
45142,-7.304904,6.584134,1.055311,0.011471,-0.110014,0.077403,-0.004630,-0.011802,-0.001422,-0.073049,0.065842,0.010547,1.000000,-0.000023,-0.000059,-0.000007,0.222125,0.609413,-0.272008,-0.710836,80.564685,48.206004,-103.762847
45143,-7.161027,6.696125,1.170373,-0.123588,-0.273401,0.056362,-0.045868,-0.008273,0.005391,-0.071613,0.066962,0.011685,1.000000,-0.000229,-0.000041,0.000027,0.222310,0.609288,-0.271902,-0.710926,80.530024,48.195563,-103.772349
45144,-7.247800,6.573212,0.967901,0.095698,-0.147123,0.018068,-0.054128,0.014935,0.009596,-0.072480,0.065731,0.009667,1.000000,-0.000271,0.000075,0.000048,0.222566,0.609232,-0.271752,-0.710951,80.505928,48.185132,-103.761395
45145,-7.404920,6.545603,0.684424,0.403032,-0.056306,0.085827,-0.029155,0.019731,-0.000067,-0.074049,0.065457,0.006842,1.000000,-0.000146,0.000099,-0.000000,0.222719,0.609233,-0.271657,-0.710939,80.497968,48.180418,-103.747920
45146,-7.357930,6.579702,0.812616,0.269876,-0.097297,0.087296,-0.011056,-0.004172,-0.007090,-0.073577,0.065800,0.008121,1.000000,-0.000055,-0.000021,-0.000035,0.222759,0.609180,-0.271631,-0.710982,80.484730,48.177610,-103.755516
45147,-7.242602,6.595742,0.972081,0.095681,-0.165669,0.029438,-0.010413,-0.008260,-0.008192,-0.072424,0.065961,0.009714,1.000000,-0.000052,-0.000041,-0.000041,0.222787,0.609113,-0.271609,-0.711038,80.468974,48.174837,-103.766913
45148,-7.233581,6.596311,0.876142,0.190830,-0.182559,0.012479,-0.021559,0.002129,0.001192,-0.072336,0.065964,0.008755,1.000000,-0.000108,0.000011,0.000006,0.222897,0.609059,-0.271564,-0.711067,80.454584,48.167942,-103.767984
45149,-7.174683,6.585832,0.760508,0.297995,-0.225154,-0.051123,-0.027363,0.000284,0.004166,-0.071748,0.065858,0.007596,1.000000,-0.000137,0.000001,0.000021,0.223033,0.608987,-0.271510,-0.711107,80.435826,48.158996,-103.770376
45150,-7.154395,6.323594,0.932456,0.130296,-0.020257,-0.219706,-0.007433,0.000965,-0.001425,-0.071543,0.063237,0.009323,1.000000,-0.000037,0.000005,-0.000007,0.223088,0.608948,-0.271508,-0.711124,80.428532,48.153464,-103.772794
45151,-7.144352,6.169463,0.955964,0.107871,0.093024,-0.325980,0.012460,0.004704,0.001722,-0.071444,0.061693,0.009565,1.000000,0.000062,0.000024,0.000009,0.223100,0.608940,-0.271584,-0.711099,80.435122,48.146319,-103.771789
45152,-7.157980,6.122499,0.976481,0.088933,0.141466,-0.344463,0.056943,-0.002883,0.008071,-0.071582,0.061219,0.009781,1.000000,0.000285,-0.000014,0.000040,0.222988,0.608946,-0.271844,-0.711028,80.463297,48.135057,-103.776111
45153,-7.184854,6.354078,1.070219,-0.005679,-0.001412,-0.161689,0.084015,-0.009103,0.017979,-0.071855,0.063530,0.010726,1.000000,0.000420,-0.000046,0.000090,0.222822,0.608946,-0.272239,-0.710930,80.503891,48.117418,-103.784498
45154,-7.139168,6.545732,1.096920,-0.044879,-0.168096,-0.066545,0.051096,-0.008608,0.025153,-0.071400,0.065446,0.010983,1.000000,0.000255,-0.000043,0.000126,0.222780,0.608902,-0.272537,-0.710866,80.526895,48.095967,-103.791268
45155,-7.163562,6.553441,1.116632,-0.061999,-0.151989,-0.041089,0.028784,0.002743,0.019872,-0.071642,0.065526,0.011177,1.000000,0.000144,0.000014,0.000099,0.222804,0.608880,-0.272727,-0.710805,80.543493,48.078379,-103.789383
45156,-7.241565,6.502172,1.008905,0.056696,-0.072436,-0.028623,-0.005519,0.023489,0.016294,-0.072420,0.065016,0.010096,1.000000,-0.000028,0.000117,0.000081,0.222948,0.608899,-0.272761,-0.710730,80.553320,48.064952,-103.770266
45157,-7.371762,6.461717,0.946042,0.139840,0.037381,0.034683,-0.020002,0.027740,0.011305,-0.073720,0.064614,0.009464,1.000000,-0.000100,0.000139,0.000057,0.223124,0.608923,-0.272725,-0.710668,80.556785,48.054556,-103.748458
45158,-7.356717,6.354947,1.044164,0.042447,0.120987,-0.036161,-0.016825,0.017271,0.009175,-0.073569,0.063547,0.010443,1.000000,-0.000084,0.000086,0.000046,0.223268,0.608917,-0.272704,-0.710636,80.555470,48.044567,-103.735609
45159,-7.349375,6.301300,1.093583,-0.005898,0.163294,-0.071593,-0.025223,0.015432,-0.002121,-0.073492,0.063015,0.010934,1.000000,-0.000126,0.000077,-0.000011,0.223396,0.608910,-0.272622,-0.710634,80.546792,48.040602,-103.726100
45160,-7.380555,6.259691,1.040323,0.051870,0.208980,-0.081694,0.006794,0.025376,-0.009215,-0.073801,0.062600,0.010415,1.000000,0.000034,0.000127,-0.000046,0.223413,0.608984,-0.272620,-0.710565,80.562178,48.041772,-103.708987
45161,-7.441218,6.377876,0.911034,0.185896,0.144197,0.027214,0.012422,0.012130,-0.024318,-0.074404,0.063787,0.009119,1.000000,0.000062,0.000061,-0.000122,0.223343,0.609037,-0.272607,-0.710547,80.570674,48.050040,-103.705389
45162,-7.336871,6.446418,1.043225,0.037013,0.038900,0.009299,0.017001,-0.004718,-0.026447,-0.073360,0.064473,0.010436,1.000000,0.000085,-0.000024,-0.000132,0.223228,0.609040,-0.272623,-0.710575,80.571190,48.058126,-103.716137
45163,-7.206398,6.408412,1.153687,-0.091813,-0.006153,-0.100713,0.001281,-0.010712,-0.031603,-0.072054,0.064095,0.011533,1.000000,0.000006,-0.000054,-0.000158,0.223134,0.609009,-0.272574,-0.710649,80.558172,48.068368,-103.732879
45164,-7.177464,6.300169,1.082555,-0.023908,0.046069,-0.201374,-0.006563,0.004828,-0.032906,-0.071764,0.063014,0.010825,1.000000,-0.000033,0.000024,-0.000165,0.223080,0.609028,-0.272475,-0.710688,80.550508,48.080999,-103.736470
45165,-7.245698,6.315880,1.026407,0.041521,0.070085,-0.146387,0.010028,0.017218,-0.029819,-0.072447,0.063169,0.010273,1.000000,0.000050,0.000086,-0.000149,0.223005,0.609104,-0.272432,-0.710663,80.560262,48.092857,-103.729341
45166,-7.219886,6.409009,0.979533,0.081318,-0.023911,-0.109366,-0.002563,0.012260,-0.029377,-0.072189,0.064101,0.009799,1.000000,-0.000013,0.000061,-0.000147,0.222961,0.609149,-0.272350,-0.710670,80.559939,48.104193,-103.726145
45167,-7.189792,6.417183,1.202843,-0.144279,-0.025455,-0.101935,0.006784,0.000565,-0.026874,-0.071889,0.064181,0.012031,1.000000,0.000034,0.000003,-0.000134,0.222884,0.609158,-0.272322,-0.710697,80.557654,48.112821,-103.732693
45168,-7.186615,6.416108,1.153199,-0.096400,-0.033448,-0.110454,0.002146,0.020471,-0.016014,-0.071860,0.064167,0.011540,1.000000,0.000011,0.000102,-0.000080,0.222884,0.609219,-0.272289,-0.710657,80.566604,48.117374,-103.720666
45169,-7.335362,6.480707,1.015564,0.061275,-0.001650,0.027776,0.002903,0.011271,-0.009541,-0.073350,0.064810,0.010161,1.000000,0.000015,0.000056,-0.000048,0.222895,0.609238,-0.272288,-0.710637,80.570659,48.117211,-103.715712
45170,-7.238220,6.480178,1.049240,0.012896,-0.060385,-0.041217,-0.009038,0.002228,-0.010201,-0.072379,0.064806,0.010490,1.000000,-0.000045,0.000011,-0.000051,0.222925,0.609215,-0.272253,-0.710662,80.562311,48.116764,-103.718311
45171,-7.325511,6.340423,1.333022,-0.251874,0.134018,-0.037227,0.023079,0.013984,-0.015080,-0.073249,0.063408,0.013343,1.000000,0.000115,0.000070,-0.000075,0.222858,0.609273,-0.272304,-0.710613,80.579057,48.119986,-103.711838
45172,-7.429987,6.400561,0.977885,0.112501,0.114828,0.041363,0.003171,0.025578,-0.024618,-0.074291,0.064015,0.009789,1.000000,0.000016,0.000128,-0.000123,0.222832,0.609366,-0.272242,-0.710566,80.590913,48.129877,-103.696694
45173,-7.427760,6.546450,1.050921,0.036097,0.011006,0.143750,0.034756,-0.000759,-0.023369,-0.074270,0.065471,0.010520,1.000000,0.000174,-0.000004,-0.000117,0.222680,0.609396,-0.272327,-0.710555,80.604189,48.136402,-103.703867
45174,-7.311840,6.608937,1.305946,-0.236737,-0.082557,0.126311,0.052481,-0.018528,-0.029222,-0.073110,0.066097,0.013070,1.000000,0.000262,-0.000093,-0.000146,0.222427,0.609393,-0.272475,-0.710580,80.616003,48.144770,-103.726718
45175,-7.249433,6.542974,1.261156,-0.202357,-0.079582,0.031500,0.024848,-0.011853,-0.026125,-0.072487,0.065438,0.012615,1.000000,0.000124,-0.000059,-0.000131,0.222280,0.609377,-0.272528,-0.710619,80.616313,48.151818,-103.743674
45176,-7.264795,6.501508,1.038057,0.020719,-0.065294,-0.008621,0.018506,-0.007809,-0.019861,-0.072642,0.065021,0.010384,1.000000,0.000093,-0.000039,-0.000099,0.222179,0.609361,-0.272572,-0.710648,80.616389,48.155894,-103.756143
45177,-7.363935,6.546796,1.125232,-0.051633,-0.025093,0.104516,0.049210,-0.003473,-0.014003,-0.073635,0.065470,0.011267,1.000000,0.000246,-0.000017,-0.000070,0.222012,0.609385,-0.272739,-0.710615,80.637207,48.156874,-103.764303
45178,-7.336885,6.641768,1.076982,-0.011795,-0.119023,0.141636,0.046449,-0.014486,-0.006618,-0.073367,0.066418,0.010780,1.000000,0.000232,-0.000072,-0.000033,0.221864,0.609359,-0.272930,-0.710611,80.650457,48.152843,-103.780579
45179,-7.326090,6.612107,1.149305,-0.085796,-0.093762,0.121913,0.048433,-0.013445,0.000015,-0.073262,0.066118,0.011504,1.000000,0.000242,-0.000067,0.000000,0.221735,0.609327,-0.273148,-0.710594,80.665994,48.144973,-103.795233
45180,-7.390371,6.731216,1.067420,0.001118,-0.149391,0.239373,0.061640,-0.011054,0.002842,-0.073905,0.067308,0.010691,1.000000,0.000308,-0.000055,0.000014,0.221579,0.609317,-0.273418,-0.710548,80.691094,48.135915,-103.807288
45181,-7.377207,6.810544,0.869853,0.190558,-0.238014,0.260563,0.067566,-0.028126,0.018217,-0.073780,0.068096,0.008711,1.000000,0.000338,-0.000141,0.000091,0.221437,0.609230,-0.273776,-0.710529,80.710216,48.116401,-103.831856
45182,-7.370105,6.759607,0.940128,0.118542,-0.191291,0.229420,0.112286,-0.040627,0.030041,-0.073713,0.067580,0.009424,1.000000,0.000561,-0.000203,0.000150,0.221183,0.609133,-0.274341,-0.710474,80.748500,48.089237,-103.865193
45183,-7.301161,6.799698,0.869650,0.174323,-0.268098,0.197151,0.093623,-0.060171,0.052957,-0.073032,0.067974,0.008706,1.000000,0.000468,-0.000301,0.000265,0.221040,0.608912,-0.274933,-0.710478,80.765952,48.047144,-103.912096
45184,-7.143397,6.770159,0.760990,0.257829,-0.353767,0.048887,0.057194,-0.068311,0.066423,-0.071459,0.067676,0.007605,1.000000,0.000286,-0.000342,0.000332,0.221045,0.608606,-0.275444,-0.710542,80.759047,47.996866,-103.963806
45185,-7.023064,6.361368,1.139292,-0.124257,-0.070312,-0.269730,0.052296,-0.041989,0.076163,-0.070257,0.063584,0.011395,1.000000,0.000261,-0.000210,0.000381,0.221136,0.608372,-0.275939,-0.710521,80.766711,47.943325,-103.992081
45186,-7.269451,5.945065,1.359954,-0.292216,0.437125,-0.338422,0.049418,-0.028800,0.055443,-0.072713,0.059427,0.013604,1.000000,0.000247,-0.000144,0.000277,0.221179,0.608212,-0.276345,-0.710487,80.779111,47.902888,-104.011865
45187,-7.289256,5.106756,0.989288,0.095624,1.036644,-0.918469,0.017905,-0.012727,0.002935,-0.072894,0.051066,0.009893,1.000000,0.000090,-0.000064,0.000015,0.221155,0.608145,-0.276462,-0.710506,80.777980,47.893453,-104.025467
45188,-7.453348,4.810886,1.409548,-0.290929,1.418950,-0.947826,0.232548,0.004691,-0.028312,-0.074526,0.048103,0.014153,0.999999,0.001163,0.000023,-0.000142,0.220390,0.608422,-0.277227,-0.710209,80.907766,47.903479,-104.028456
45189,-7.477871,5.786549,0.705558,0.370991,0.617371,-0.358497,0.250514,0.008814,-0.029594,-0.074770,0.057868,0.007131,0.999999,0.001253,0.000044,-0.000148,0.219572,0.608732,-0.278048,-0.709875,81.050130,47.914419,-104.028284
45190,-7.247691,7.105860,1.146776,-0.151900,-0.460376,0.390367,0.297786,-0.065006,0.001793,-0.072481,0.071041,0.011550,0.999999,0.001489,-0.000325,0.000009,0.218618,0.608789,-0.279211,-0.709664,81.176610,47.901268,-104.086087
45191,-6.923364,7.897066,2.187752,-1.265913,-1.118575,0.781137,0.209611,-0.109035,0.052036,-0.069266,0.078930,0.021923,0.999999,0.001048,-0.000545,0.000260,0.218049,0.608521,-0.280263,-0.709654,81.229702,47.855661,-104.174677
45192,-6.829707,7.834113,1.877901,-0.971913,-1.165161,0.639227,-0.082319,-0.041820,0.047296,-0.068320,0.078333,0.018732,1.000000,-0.000412,-0.000209,0.000236,0.218445,0.608180,-0.280191,-0.709853,81.157368,47.818811,-104.206945
45193,-7.131024,7.143318,0.889450,0.088271,-0.581853,0.302808,-0.299482,0.041985,0.022192,-0.071316,0.071438,0.008803,0.999999,-0.001497,0.000210,0.000111,0.219530,0.607933,-0.279180,-0.710129,81.010418,47.803383,-104.171939
45194,-7.341623,6.570732,0.572551,0.469498,-0.059712,0.045190,-0.339847,0.069284,0.001973,-0.073415,0.065716,0.005639,0.999998,-0.001699,0.000346,0.000010,0.220703,0.607766,-0.277933,-0.710397,80.855560,47.802087,-104.116448
45195,-7.363459,6.314139,0.956233,0.118425,0.191199,-0.068322,-0.348578,0.064812,-0.009256,-0.073629,0.063161,0.009476,0.999998,-0.001743,0.000324,-0.000046,0.221857,0.607586,-0.276625,-0.710702,80.691618,47.806669,-104.066403
45196,-7.368168,6.185311,0.949430,0.146815,0.284264,-0.151063,-0.394132,0.072168,-0.016674,-0.073673,0.061878,0.009399,0.999998,-0.001971,0.000361,-0.000083,0.223131,0.607391,-0.275124,-0.711053,80.505561,47.816402,-104.011055
45197,-7.292998,6.170688,0.657565,0.442617,0.205325,-0.249241,-0.400120,0.057826,-0.019147,-0.072922,0.061727,0.006473,0.999998,-0.002001,0.000289,-0.000096,0.224394,0.607138,-0.273609,-0.711456,80.306678,47.826121,-103.968323
45198,-7.061299,5.742648,1.108796,-0.018446,0.422231,-0.653498,-0.253674,0.039460,-0.034219,-0.070601,0.057453,0.011029,0.999999,-0.001268,0.000197,-0.000171,0.225133,0.607004,-0.272588,-0.711728,80.178798,47.842822,-103.943084
45199,-7.256350,6.025700,0.685661,0.436243,0.282349,-0.370031,-0.218517,0.106550,-0.053533,-0.072544,0.060284,0.006829,0.999999,-0.001093,0.000533,-0.000268,0.225788,0.607172,-0.271559,-0.711770,80.110631,47.876861,-103.864418
45200,-7.536184,6.198255,-0.215670,1.375052,0.228725,-0.152673,-0.187865,0.075139,-0.045933,-0.075348,0.061998,-0.002187,0.999999,-0.000939,0.000376,-0.000230,0.226334,0.607254,-0.270696,-0.711856,80.041442,47.903754,-103.810914
45201,-7.345967,6.716336,0.746170,0.395309,-0.178774,0.159320,0.065343,-0.061178,0.003336,-0.073463,0.067160,0.007461,1.000000,0.000327,-0.000306,0.000017,0.226102,0.607068,-0.271039,-0.711958,80.037416,47.889174,-103.865053
45202,-6.831436,6.918723,1.483408,-0.416857,-0.577739,-0.002989,0.144261,-0.097435,0.059886,-0.068342,0.069156,0.014851,1.000000,0.000721,-0.000487,0.000299,0.225782,0.606768,-0.271875,-0.711997,80.062433,47.839286,-103.941121
45203,-6.872626,6.566797,1.297424,-0.226876,-0.297126,-0.226272,0.140209,-0.038603,0.089832,-0.068758,0.065628,0.013007,1.000000,0.000701,-0.000193,0.000449,0.225661,0.606629,-0.272721,-0.711830,80.124872,47.778146,-103.963523
45204,-7.198840,5.978301,0.540453,0.573254,0.281501,-0.461345,0.135318,-0.005520,0.094365,-0.072017,0.059745,0.005443,1.000000,0.000677,-0.000028,0.000472,0.225615,0.606597,-0.273525,-0.711563,80.205712,47.717879,-103.957388
45205,-7.406627,5.921847,1.022076,0.121592,0.527284,-0.290178,0.292208,0.001565,0.085450,-0.074091,0.059172,0.010308,0.999999,0.001461,0.000008,0.000427,0.225072,0.606778,-0.274853,-0.711069,80.379533,47.663147,-103.946983
45206,-7.421409,6.687817,1.083435,0.038770,-0.015879,0.236007,0.235639,-0.011896,0.072933,-0.074239,0.066838,0.010909,0.999999,0.001178,-0.000059,0.000365,0.224637,0.606864,-0.275955,-0.710706,80.511333,47.614375,-103.949663
45207,-7.216571,7.322959,1.168335,-0.097028,-0.602059,0.516772,0.131274,-0.041734,0.085241,-0.072199,0.073191,0.011716,1.000000,0.000656,-0.000209,0.000426,0.224521,0.606708,-0.276758,-0.710564,80.565854,47.555654,-103.975937
45208,-6.992301,7.508062,0.944784,0.086303,-0.903644,0.450443,-0.070446,-0.034579,0.088959,-0.069958,0.075053,0.009409,1.000000,-0.000352,-0.000173,0.000445,0.225039,0.606347,-0.276847,-0.710674,80.509849,47.495683,-103.995479
45209,-7.098378,7.535953,1.138313,-0.078186,-0.823549,0.569459,-0.110608,0.006438,0.078726,-0.071013,0.075338,0.011344,1.000000,-0.000553,0.000032,0.000394,0.225701,0.606099,-0.276716,-0.710726,80.454925,47.445190,-103.982254
45210,-7.417177,7.166510,1.164753,-0.035634,-0.330618,0.561292,-0.189794,0.026300,0.055648,-0.074190,0.071655,0.011589,1.000000,-0.000949,0.000132,0.000278,0.226546,0.605865,-0.276211,-0.710853,80.364719,47.409799,-103.955422
45211,-7.425567,6.099583,0.823432,0.328017,0.432775,-0.183196,-0.181755,0.011068,0.052634,-0.074271,0.060984,0.008183,1.000000,-0.000909,0.000055,0.000263,0.227337,0.605588,-0.275742,-0.711019,80.269271,47.374515,-103.941853
45212,-7.464767,5.535328,0.819818,0.350825,0.883957,-0.532049,0.037395,-0.040324,0.070983,-0.074669,0.055325,0.008193,1.000000,0.000187,-0.000202,0.000355,0.227457,0.605353,-0.276166,-0.711016,80.270049,47.324057,-103.968269
45213,-7.460918,5.449673,0.572870,0.595471,0.925613,-0.621329,0.176474,-0.094269,0.095382,-0.074638,0.054456,0.005742,0.999999,0.000882,-0.000471,0.000477,0.227169,0.605049,-0.277220,-0.710956,80.319858,47.254460,-104.036324
45214,-7.671334,6.025085,1.211175,-0.011996,0.727077,-0.010180,0.415128,-0.166468,0.105739,-0.076755,0.060185,0.012173,0.999997,0.002076,-0.000832,0.000529,0.226094,0.604745,-0.279235,-0.710770,80.463643,47.172369,-104.162834
45215,-7.430142,6.527219,1.418205,-0.273503,0.238561,0.171859,0.425837,-0.228182,0.081983,-0.074344,0.065211,0.014236,0.999997,0.002129,-0.001141,0.000410,0.224815,0.604261,-0.281284,-0.710778,80.573401,47.097885,-104.344196
45216,-7.195456,6.650502,1.746324,-0.646862,0.051148,0.118694,0.406040,-0.236893,0.061615,-0.071996,0.066447,0.017513,0.999997,0.002030,-0.001184,0.000308,0.223510,0.603751,-0.283209,-0.710859,80.664878,47.034510,-104.535344
45217,-7.252796,6.726653,1.805884,-0.703180,0.055118,0.217997,0.320385,-0.214815,0.042826,-0.072562,0.067222,0.018089,0.999998,0.001602,-0.001074,0.000214,0.222427,0.603246,-0.284747,-0.711013,80.718775,46.983779,-104.710846
45218,-7.253488,6.683095,2.022768,-0.916854,0.128803,0.212841,0.228599,-0.196356,0.029209,-0.072565,0.066797,0.020233,0.999999,0.001143,-0.000982,0.000146,0.221598,0.602724,-0.285896,-0.711254,80.730282,46.942712,-104.872605
45219,-7.282464,6.775198,1.800244,-0.691922,0.057234,0.271777,0.112502,-0.167791,0.028743,-0.072849,0.067731,0.017979,0.999999,0.000563,-0.000839,0.000144,0.221158,0.602172,-0.286599,-0.711575,80.692481,46.904334,-105.010826
45220,-7.360712,7.001833,1.677927,-0.553569,-0.071165,0.468833,-0.011501,-0.188696,0.015000,-0.073628,0.070014,0.016706,1.000000,-0.000058,-0.000943,0.000075,0.221012,0.601430,-0.286841,-0.712150,80.569980,46.871831,-105.167893
45221,-7.400256,7.339066,1.736733,-0.596223,-0.285876,0.732675,-0.095557,-0.176249,-0.021012,-0.074010,0.073407,0.017267,0.999999,-0.000478,-0.000881,-0.000105,0.221009,0.600689,-0.286663,-0.712848,80.403204,46.860397,-105.319627
45222,-7.497056,7.181846,1.851007,-0.664132,-0.095186,0.711609,-0.155756,-0.171510,-0.052726,-0.074967,0.071853,0.018390,0.999999,-0.000779,-0.000858,-0.000264,0.221079,0.599944,-0.286168,-0.713652,80.201713,46.867179,-105.471724
45223,-7.385724,6.470862,1.353288,-0.149886,0.277456,0.094525,-0.188012,-0.201816,-0.049555,-0.073855,0.064740,0.013398,0.999999,-0.000940,-0.001009,-0.000248,0.221214,0.599048,-0.285602,-0.714589,79.963637,46.868601,-105.648566
45224,-7.239878,6.179377,1.144489,0.059188,0.361326,-0.232692,-0.071324,-0.202138,-0.027784,-0.072402,0.061808,0.011350,0.999999,-0.000357,-0.001011,-0.000139,0.221076,0.598249,-0.285517,-0.715334,79.794704,46.857460,-105.822333
45225,-7.387495,6.066049,1.077873,0.172250,0.531266,-0.209463,0.053089,-0.235239,-0.002631,-0.073887,0.060659,0.010708,0.999999,0.000265,-0.001176,-0.000013,0.220609,0.597432,-0.285989,-0.715973,79.679886,46.828286,-106.019650
45226,-7.484258,6.064685,1.427472,-0.137664,0.649207,-0.097145,0.121080,-0.279134,0.010646,-0.074866,0.060634,0.014207,0.999999,0.000605,-0.001396,0.000053,0.219922,0.596514,-0.286791,-0.716629,79.579485,46.787039,-106.250776
45227,-7.265988,6.214670,1.449963,-0.194378,0.403207,-0.152525,0.246909,-0.292334,0.005146,-0.072683,0.062127,0.014470,0.999998,0.001235,-0.001462,0.000026,0.218822,0.595691,-0.288042,-0.717148,79.542835,46.747141,-106.493472
45228,-7.076092,6.298066,1.243866,-0.026858,0.191596,-0.260385,0.286258,-0.264470,0.007546,-0.070780,0.062960,0.012435,0.999998,0.001431,-0.001322,0.000038,0.217652,0.595007,-0.289409,-0.717521,79.546029,46.708942,-106.712590
45229,-7.038262,6.746710,1.314915,-0.114801,-0.147197,0.023439,0.258737,-0.294642,0.000361,-0.070402,0.067450,0.013133,0.999998,0.001294,-0.001473,0.000002,0.216494,0.594192,-0.290688,-0.718030,79.514745,46.671410,-106.957531
45230,-6.981994,6.660167,1.325791,-0.125984,-0.114367,-0.074370,0.178298,-0.305030,-0.009508,-0.069837,0.066593,0.013211,0.999998,0.000891,-0.001525,-0.000048,0.215522,0.593265,-0.291659,-0.718694,79.430438,46.638382,-107.212177
45231,-6.911659,6.897177,1.655045,-0.457769,-0.279712,0.076369,0.074168,-0.288430,-0.023367,-0.069132,0.068974,0.016476,0.999999,0.000371,-0.001442,-0.000117,0.214835,0.592304,-0.292196,-0.719474,79.294964,46.614377,-107.455228
45232,-6.883543,6.660491,1.481424,-0.268308,-0.154507,-0.125374,-0.065224,-0.188729,-0.036425,-0.068837,0.066622,0.014728,0.999999,-0.000326,-0.000944,-0.000182,0.214657,0.591571,-0.292085,-0.720175,79.137755,46.608179,-107.618369
45233,-7.059319,6.523733,1.323143,-0.052887,0.029591,-0.110106,-0.134517,-0.170562,-0.044834,-0.070590,0.065262,0.013127,0.999999,-0.000673,-0.000853,-0.000224,0.214682,0.590839,-0.291681,-0.720932,78.950630,46.608157,-107.768031
45234,-7.281827,6.576808,1.525439,-0.187417,0.163927,0.114263,-0.060742,-0.163309,-0.044093,-0.072816,0.065789,0.015175,1.000000,-0.000304,-0.000817,-0.000220,0.214500,0.590212,-0.291536,-0.721559,78.810258,46.608419,-107.911541
45235,-7.535466,6.763050,1.528080,-0.125168,0.187497,0.424806,-0.029536,-0.228221,-0.051659,-0.075355,0.067652,0.015185,0.999999,-0.000148,-0.001141,-0.000258,0.214106,0.589393,-0.291551,-0.722338,78.648212,46.605210,-108.109469
45236,-7.803977,6.727404,1.732212,-0.245763,0.418413,0.624030,0.016506,-0.278476,-0.056810,-0.078045,0.067295,0.017219,0.999999,0.000083,-0.001392,-0.000284,0.213482,0.588450,-0.291769,-0.723203,78.482187,46.598992,-108.349205
45237,-7.722541,6.929581,1.707078,-0.221530,0.206828,0.698209,0.036042,-0.383604,-0.057891,-0.077238,0.069315,0.016935,0.999998,0.000180,-0.001918,-0.000289,0.212644,0.587146,-0.292168,-0.724348,78.264883,46.580494,-108.674976
45238,-7.486006,6.943826,1.692663,-0.233091,0.037213,0.534600,0.120339,-0.445105,-0.032902,-0.074886,0.069440,0.016802,0.999997,0.000602,-0.002226,-0.000165,0.211557,0.585671,-0.293008,-0.725520,78.062934,46.540138,-109.046276
45239,-7.649891,7.089093,1.856938,-0.334125,0.066227,0.775428,0.149515,-0.489354,-0.025408,-0.076535,0.070887,0.018435,0.999997,0.000748,-0.002447,-0.000127,0.210347,0.584051,-0.294021,-0.726767,77.853031,46.489174,-109.451860
45240,-7.488658,7.430798,2.128115,-0.616759,-0.241204,0.929145,0.111669,-0.534468,-0.049369,-0.074925,0.074315,0.021122,0.999996,0.000558,-0.002672,-0.000247,0.209092,0.582259,-0.294872,-0.728221,77.592540,46.445183,-109.897621
45241,-6.991494,7.379026,2.201136,-0.764648,-0.516262,0.547074,-0.060813,-0.526289,-0.086227,-0.069941,0.073827,0.021805,0.999996,-0.000304,-0.002631,-0.000431,0.208216,0.580365,-0.294978,-0.729939,77.233792,46.420965,-110.342861
45242,-6.725225,7.269610,1.716180,-0.308433,-0.712444,0.208202,-0.266401,-0.458916,-0.113698,-0.067250,0.072757,0.016911,0.999996,-0.001332,-0.002295,-0.000568,0.207933,0.578541,-0.294180,-0.731788,76.793415,46.418805,-110.738255
45243,-6.854639,7.235437,1.569637,-0.085172,-0.650732,0.255602,-0.330513,-0.379672,-0.123327,-0.068531,0.072422,0.015447,0.999997,-0.001653,-0.001898,-0.000617,0.207916,0.576948,-0.293036,-0.733506,76.361334,46.430291,-111.071484
45244,-6.863014,7.195601,1.526293,0.011925,-0.646475,0.226677,-0.471663,-0.351905,-0.127334,-0.068611,0.072035,0.014972,0.999995,-0.002358,-0.001760,-0.000637,0.208330,0.575313,-0.291331,-0.735350,75.863855,46.446127,-111.383263
45245,-6.727646,6.314869,1.617298,-0.029416,-0.086077,-0.445412,-0.587428,-0.302794,-0.125511,-0.067261,0.063238,0.015885,0.999994,-0.002937,-0.001514,-0.000628,0.209154,0.573729,-0.289153,-0.737211,75.328697,46.465847,-111.655443
45246,-6.665006,6.154371,1.725024,-0.089919,-0.012419,-0.578742,-0.703273,-0.236070,-0.114610,-0.066635,0.061642,0.016955,0.999993,-0.003516,-0.001180,-0.000573,0.210444,0.572247,-0.286504,-0.739028,74.767441,46.487759,-111.871968
45247,-7.154549,6.206044,1.342228,0.458749,0.166438,-0.259379,-0.709016,-0.139230,-0.101063,-0.071523,0.062144,0.013152,0.999993,-0.003545,-0.000696,-0.000505,0.211936,0.571089,-0.283768,-0.740551,74.261064,46.515457,-112.008231
45248,-7.684671,6.294796,1.419184,0.569199,0.431614,0.196420,-0.438788,-0.260436,-0.067030,-0.076844,0.063005,0.013954,0.999997,-0.002194,-0.001302,-0.000335,0.212608,0.569715,-0.282254,-0.741994,73.844538,46.504730,-112.234024
45249,-7.588904,6.457333,1.809878,0.212013,0.303074,0.307950,-0.312858,-0.334473,-0.054745,-0.075901,0.064622,0.017871,0.999997,-0.001564,-0.001672,-0.000274,0.212862,0.568179,-0.281320,-0.743452,73.459550,46.474062,-112.515908
45250,-7.637979,6.628673,2.226948,-0.130952,0.265486,0.538615,-0.284713,-0.389132,-0.076950,-0.076397,0.066348,0.022026,0.999997,-0.001424,-0.001946,-0.000385,0.212875,0.566499,-0.280484,-0.745045,73.055744,46.445392,-112.846126
45251,-7.154027,6.654168,1.982426,0.027581,-0.122208,0.155867,-0.433055,-0.400757,-0.113909,-0.071542,0.066625,0.019537,0.999995,-0.002165,-0.002004,-0.000570,0.213153,0.564663,-0.279001,-0.746913,72.554058,46.433014,-113.194251
45252,-7.073381,6.469269,1.884531,0.151755,-0.074237,-0.045045,-0.391732,-0.359912,-0.161414,-0.070715,0.064786,0.018591,0.999996,-0.001959,-0.001800,-0.000807,0.213191,0.563087,-0.277492,-0.748652,72.090920,46.451829,-113.521819
45253,-6.994695,6.608793,1.769689,0.291919,-0.276473,-0.036607,-0.485507,-0.331955,-0.191300,-0.069913,0.066197,0.017420,0.999995,-0.002428,-0.001660,-0.000956,0.213419,0.561551,-0.275517,-0.750468,71.584038,46.489822,-113.835476
45254,-6.614005,6.153491,1.458889,0.530750,-0.256288,-0.680810,-0.587343,-0.270037,-0.219169,-0.066092,0.061650,0.014319,0.999994,-0.002937,-0.001350,-0.001096,0.213911,0.560173,-0.273011,-0.752272,71.048132,46.552510,-114.108452
45255,-6.502336,5.965387,1.088743,0.902338,-0.279951,-0.971948,-0.744359,-0.177845,-0.238723,-0.064962,0.059771,0.010607,0.999992,-0.003722,-0.000889,-0.001194,0.214893,0.558991,-0.269758,-0.754043,70.469899,46.641183,-114.315528
45256,-6.652690,5.544036,1.222974,0.853924,0.124457,-1.109506,-0.665499,-0.153165,-0.234771,-0.066471,0.055559,0.011994,0.999993,-0.003327,-0.000766,-0.001174,0.215698,0.557974,-0.266782,-0.755623,69.950469,46.731317,-114.503588
45257,-6.596498,5.637515,1.638600,0.483015,0.054050,-0.995435,-0.589458,-0.125885,-0.221009,-0.065913,0.056496,0.016178,0.999995,-0.002947,-0.000629,-0.001105,0.216378,0.557117,-0.264100,-0.757002,69.491820,46.818196,-114.667747
45258,-6.553394,5.268509,1.802576,0.337652,0.305939,-1.225158,-0.615811,-0.072051,-0.205740,-0.065486,0.052808,0.017840,0.999995,-0.003079,-0.000360,-0.001029,0.217257,0.556410,-0.261300,-0.758241,69.051148,46.907105,-114.786359
45259,-6.681877,5.211340,1.592443,0.603982,0.369081,-1.219651,-0.567000,0.003321,-0.187805,-0.066770,0.052221,0.015778,0.999996,-0.002835,0.000017,-0.000939,0.218166,0.556011,-0.258650,-0.759180,68.684515,47.001244,-114.841734
45260,-6.873109,5.227117,1.309341,0.955105,0.408405,-1.141030,-0.477828,0.001926,-0.172028,-0.068686,0.052361,0.012969,0.999997,-0.002389,0.000010,-0.000860,0.218882,0.555682,-0.256382,-0.759985,68.371089,47.086644,-114.894159
45261,-7.023275,5.519092,1.673222,0.679564,0.309235,-0.755703,-0.152695,-0.026008,-0.164132,-0.070190,0.055261,0.016681,0.999999,-0.000763,-0.000130,-0.000821,0.218689,0.555588,-0.255401,-0.760439,68.229176,47.161588,-114.966657
45262,-6.958050,6.179380,2.242863,0.152179,-0.171570,-0.243099,0.077692,-0.072747,-0.122630,-0.069551,0.061828,0.022427,1.000000,0.000388,-0.000364,-0.000613,0.217954,0.555517,-0.255462,-0.760682,68.201830,47.204649,-115.062884
45263,-6.671515,6.488390,2.210026,0.116814,-0.598293,-0.266959,0.031565,-0.066867,-0.071512,-0.066699,0.064904,0.022088,1.000000,0.000158,-0.000334,-0.000358,0.217548,0.555351,-0.255484,-0.760912,68.162985,47.221525,-115.138690
45264,-6.436030,6.281530,1.849635,0.389422,-0.641507,-0.661838,-0.138055,-0.011720,-0.050804,-0.064345,0.062844,0.018449,1.000000,-0.000690,-0.000059,-0.000254,0.217763,0.555184,-0.254857,-0.761182,68.063493,47.239308,-115.164738
45265,-6.510673,5.822481,1.384599,0.841670,-0.316192,-1.015025,-0.243998,0.089100,-0.074165,-0.065079,0.058266,0.013804,0.999999,-0.001220,0.000446,-0.000371,0.218311,0.555314,-0.253652,-0.761332,67.955677,47.290900,-115.119427
45266,-6.961301,5.701901,1.490174,0.865510,0.058684,-0.733071,-0.148242,0.178236,-0.103064,-0.069570,0.057066,0.014921,0.999999,-0.000741,0.000891,-0.000515,0.218596,0.555925,-0.252634,-0.761143,67.947508,47.377237,-115.013316
45267,-7.163315,5.829131,1.549102,0.865198,0.080980,-0.488717,-0.074020,0.205318,-0.118625,-0.071583,0.058340,0.015543,0.999999,-0.000370,0.001027,-0.000593,0.218649,0.556738,-0.251825,-0.760802,67.994024,47.477439,-114.890800
45268,-6.533486,6.175329,1.328646,0.903082,-0.615307,-0.790922,-0.072958,0.243022,-0.098650,-0.065288,0.061790,0.013343,0.999999,-0.000365,0.001215,-0.000493,0.218822,0.557670,-0.251034,-0.760331,68.068312,47.575227,-114.731720
45269,-6.580385,6.416207,2.119708,0.155680,-0.671530,-0.405928,-0.022024,0.293656,-0.033396,-0.065762,0.064175,0.021287,0.999999,-0.000110,0.001468,-0.000167,0.219165,0.558766,-0.250563,-0.759582,68.216919,47.648702,-114.511677
45270,-7.265008,5.680236,2.126483,0.279761,0.319781,-0.358229,0.027377,0.316306,-0.010419,-0.072613,0.056803,0.021387,0.999999,0.000137,0.001582,-0.000052,0.219485,0.559974,-0.250318,-0.758680,68.413261,47.714487,-114.265689
45271,-7.636369,5.344624,2.271189,0.194946,0.829648,-0.257008,0.257692,0.299884,-0.031708,-0.076321,0.053429,0.022895,0.999998,0.001288,0.001499,-0.000159,0.219058,0.561396,-0.250905,-0.757558,68.727572,47.787255,-114.038784
45272,-7.757618,5.599712,2.544695,-0.064811,0.747391,0.058984,0.514837,0.251440,-0.071515,-0.077524,0.055959,0.025689,0.999996,0.002574,0.001257,-0.000358,0.217696,0.562964,-0.252405,-0.756288,69.152754,47.870556,-113.861444
45273,-8.031479,5.777346,3.368965,-0.825030,0.898949,0.567259,0.665095,0.145965,-0.114882,-0.080257,0.057707,0.033940,0.999994,0.003325,0.000730,-0.000574,0.215612,0.564345,-0.254464,-0.755165,69.592585,47.954713,-113.780519
45274,-7.644079,5.744451,2.703693,-0.336890,0.601496,0.100191,0.587942,0.084225,-0.132232,-0.076391,0.057415,0.027238,0.999995,0.002940,0.000421,-0.000661,0.213599,0.565426,-0.256246,-0.754325,69.948537,48.035810,-113.753156
45275,-6.750814,6.357598,1.861183,0.215085,-0.541430,-0.372506,0.439377,0.105945,-0.122405,-0.067459,0.063576,0.018787,0.999997,0.002197,0.000530,-0.000612,0.212070,0.566413,-0.257471,-0.753599,70.234915,48.115525,-113.704865
45276,-6.434735,6.999395,1.618995,0.349157,-1.271473,-0.258638,0.216326,0.194720,-0.106982,-0.064294,0.070011,0.016328,0.999999,0.001082,0.000974,-0.000535,0.211344,0.567478,-0.257804,-0.752888,70.450984,48.204107,-113.579533
45277,-6.455265,7.321226,1.567678,0.389861,-1.524759,-0.053000,-0.099600,0.332352,-0.109375,-0.064486,0.073255,0.015748,0.999998,-0.000498,0.001662,-0.000547,0.211682,0.568726,-0.256795,-0.752195,70.569301,48.319826,-113.342760
45278,-6.747527,7.038717,1.619556,0.399134,-1.134304,-0.001997,-0.402263,0.440995,-0.114096,-0.067399,0.070458,0.016203,0.999995,-0.002011,0.002205,-0.000570,0.213001,0.570067,-0.254517,-0.751582,70.580439,48.458812,-113.017955
45279,-6.791592,6.513420,1.512529,0.493236,-0.730847,-0.322658,-0.497762,0.526945,-0.082654,-0.067849,0.065200,0.015142,0.999993,-0.002489,0.002635,-0.000413,0.214818,0.571581,-0.251876,-0.750804,70.597195,48.596930,-112.613233
45280,-6.998870,6.029783,1.328520,0.700113,-0.264770,-0.509615,-0.539234,0.568027,-0.022349,-0.069944,0.060342,0.013321,0.999992,-0.002696,0.002840,-0.000112,0.217028,0.573123,-0.249204,-0.749884,70.630115,48.710323,-112.156221
45281,-7.282986,5.508449,1.594486,0.478935,0.341563,-0.561676,-0.414343,0.570607,0.020436,-0.072790,0.055110,0.016038,0.999994,-0.002072,0.002853,0.000102,0.219042,0.574747,-0.247117,-0.748746,70.746581,48.800506,-111.683866
45282,-7.764488,5.376607,1.873122,0.296839,0.768684,-0.219736,-0.202890,0.493823,0.031425,-0.077607,0.053773,0.018868,0.999996,-0.001014,0.002469,0.000157,0.220391,0.576297,-0.245934,-0.747546,70.940581,48.869635,-111.270149
45283,-7.762801,5.291463,1.640174,0.487867,0.807919,-0.322694,0.010753,0.426374,0.013828,-0.077596,0.052908,0.016570,0.999998,0.000054,0.002132,0.000069,0.220975,0.577848,-0.245572,-0.746295,71.212116,48.934487,-110.916281
45284,-7.640324,5.553884,1.458837,0.614221,0.509366,-0.288425,0.121768,0.340596,-0.010339,-0.076375,0.055534,0.014752,0.999998,0.000609,0.001703,-0.000052,0.221042,0.579230,-0.245649,-0.745177,71.489892,48.995821,-110.638922
45285,-7.406356,5.666319,1.929079,0.073608,0.331986,-0.296024,0.288719,0.271127,-0.035259,-0.074027,0.056648,0.019473,0.999998,0.001444,0.001356,-0.000176,0.220447,0.580565,-0.246351,-0.744082,71.815190,49.057026,-110.425455
45286,-7.341704,5.904093,1.888801,0.072474,0.103860,-0.204859,0.261227,0.254918,-0.051306,-0.073378,0.059035,0.019059,0.999998,0.001306,0.001275,-0.000257,0.219850,0.581829,-0.246921,-0.743082,72.112291,49.123542,-110.228781
45287,-7.249124,5.688675,2.159160,-0.256044,0.247875,-0.355115,0.376970,0.218912,-0.048927,-0.072454,0.056864,0.021778,0.999998,0.001885,0.001095,-0.000245,0.218881,0.583079,-0.247967,-0.742039,72.453925,49.181558,-110.060969
45288,-6.930207,6.253749,1.432218,0.359358,-0.465970,-0.387086,0.395017,0.297634,-0.013245,-0.069276,0.062513,0.014549,0.999997,0.001975,0.001488,-0.000066,0.218087,0.584596,-0.249096,-0.740700,72.863817,49.232988,-109.816908
45289,-6.880750,6.567520,0.766679,0.957892,-0.807057,-0.352472,0.460494,0.368454,0.056466,-0.068812,0.065638,0.007945,0.999996,0.002302,0.001842,0.000282,0.217448,0.586353,-0.250593,-0.738993,73.370171,49.256502,-109.495055
45290,-6.870084,7.777851,1.808226,-0.081838,-1.617321,0.595961,0.392562,0.405339,0.173757,-0.068731,0.077683,0.018374,0.999996,0.001963,0.002027,0.000869,0.217484,0.588022,-0.252140,-0.737127,73.883594,49.219818,-109.112585
45291,-7.118213,8.569555,2.161918,-0.396054,-2.014078,1.348255,-0.050717,0.480010,0.247581,-0.071236,0.085613,0.021768,0.999996,-0.000254,0.002400,0.001238,0.219189,0.589385,-0.252188,-0.735515,74.202967,49.152221,-108.650493
45292,-7.412600,8.039841,2.609744,-0.803929,-1.349952,1.319597,-0.349515,0.546711,0.270238,-0.074163,0.080344,0.026160,0.999994,-0.001748,0.002734,0.001351,0.221940,0.590634,-0.251127,-0.734050,74.396822,49.081260,-108.127651
45293,-8.053673,7.068322,1.382209,0.494530,-0.314126,0.975736,-0.586506,0.540155,0.211235,-0.080574,0.070639,0.013832,0.999991,-0.002933,0.002701,0.001056,0.225162,0.591658,-0.249027,-0.732958,74.438974,49.041006,-107.625285
45294,-8.438617,5.134310,1.025517,0.841624,1.401591,-0.017268,-0.306878,0.444061,0.143020,-0.084400,0.051299,0.010364,0.999996,-0.001534,0.002220,0.000715,0.227185,0.592725,-0.247854,-0.731869,74.568093,49.023334,-107.219868
45295,-8.479807,5.470546,1.704628,0.171392,1.242289,0.344429,0.015713,0.363022,0.112728,-0.084798,0.054656,0.017204,0.999998,0.000079,0.001815,0.000564,0.228040,0.593894,-0.247863,-0.730652,74.824641,49.009133,-106.890232
45296,-8.206724,6.271673,2.927519,-1.074998,0.573478,0.853616,-0.015188,0.274192,0.110703,-0.082062,0.062674,0.029383,0.999999,-0.000076,0.001371,0.000554,0.228867,0.594706,-0.247853,-0.729735,75.006710,48.982132,-106.635881
45297,-7.773023,7.033996,2.972153,-1.182494,-0.276145,1.015799,-0.208278,0.244330,0.140260,-0.077743,0.070316,0.029743,0.999998,-0.001041,0.001222,0.000701,0.230340,0.595148,-0.247261,-0.729112,75.063522,48.933853,-106.400618
45298,-7.720734,7.206891,2.371790,-0.595964,-0.484415,0.984746,-0.227129,0.203206,0.183733,-0.077249,0.072025,0.023715,0.999998,-0.001136,0.001016,0.000919,0.231974,0.595364,-0.246775,-0.728582,75.090655,48.855469,-106.190320
45299,-7.956670,6.863970,1.859405,-0.064383,-0.097842,0.858129,-0.099651,0.138486,0.194347,-0.079620,0.068572,0.018615,0.999999,-0.000498,0.000692,0.000972,0.233189,0.595477,-0.246860,-0.728073,75.150811,48.761437,-106.032782
45300,-8.107071,6.176349,1.962404,-0.173079,0.554090,0.550030,0.050991,0.047264,0.175407,-0.081120,0.061687,0.019659,1.000000,0.000255,0.000236,0.000877,0.233772,0.595456,-0.247543,-0.727671,75.236334,48.664542,-105.956257
45301,-7.839784,6.212071,1.933890,-0.191460,0.372592,0.366530,-0.024412,-0.033368,0.156469,-0.078450,0.062062,0.019318,1.000000,-0.000122,-0.000167,0.000782,0.234412,0.595076,-0.247989,-0.727624,75.224258,48.566194,-105.951981
45302,-7.339482,6.340509,2.524664,-0.851532,0.019895,0.173226,-0.045493,0.003326,0.158286,-0.073445,0.063353,0.025233,1.000000,-0.000227,0.000017,0.000791,0.235165,0.594804,-0.248321,-0.727491,75.223680,48.472346,-105.916361
45303,-7.172071,7.307114,2.637425,-0.939038,-0.806305,0.687626,-0.231403,0.087127,0.142012,-0.071761,0.073051,0.026321,0.999999,-0.001157,0.000436,0.000710,0.236517,0.594635,-0.247829,-0.727358,75.165943,48.399650,-105.814594
45304,-7.086267,7.288615,2.119933,-0.428004,-0.884453,0.524996,-0.531282,0.195396,0.105373,-0.070880,0.072905,0.021075,0.999996,-0.002656,0.000977,0.000527,0.238759,0.594549,-0.246008,-0.727314,74.998038,48.363470,-105.630383
45305,-7.364087,6.932791,1.749876,-0.008333,-0.464317,0.441079,-0.560333,0.186541,0.068224,-0.073648,0.069352,0.017373,0.999996,-0.002802,0.000933,0.000341,0.240940,0.594436,-0.243980,-0.727370,74.801499,48.346779,-105.462032
45306,-7.558450,5.729886,2.093671,-0.364321,0.599014,-0.124877,-0.466093,0.173502,0.037584,-0.075577,0.057333,0.020869,0.999997,-0.002330,0.000868,0.000188,0.242711,0.594423,-0.242217,-0.727381,74.645925,48.345504,-105.311225
45307,-7.138596,4.812548,1.298320,0.296756,0.975166,-1.165909,-0.544971,0.202487,0.020958,-0.071378,0.048153,0.012924,0.999996,-0.002725,0.001012,0.000105,0.244691,0.594434,-0.240081,-0.727417,74.460076,48.358027,-105.140339
45308,-7.869967,3.888128,1.542142,0.121592,2.164159,-1.167818,-0.151771,0.168284,0.049724,-0.078696,0.038873,0.015458,0.999999,-0.000759,0.000841,0.000249,0.245563,0.594765,-0.239501,-0.727043,74.483472,48.349707,-104.991047
45309,-7.635466,4.119752,1.083996,0.540050,1.816321,-1.277053,0.133789,0.057109,0.080134,-0.076368,0.041160,0.010889,1.000000,0.000669,0.000286,0.000401,0.245564,0.595005,-0.240187,-0.726621,74.606369,48.307370,-104.927406
45310,-7.644904,4.861131,1.531260,0.140467,1.294432,-0.717383,0.451251,-0.022487,0.107172,-0.076477,0.048536,0.015414,0.999997,0.002256,-0.000112,0.000536,0.244621,0.595312,-0.242202,-0.726018,74.866379,48.238116,-104.923808
45311,-7.249546,5.700981,1.914594,-0.268996,0.440647,-0.407573,0.488897,-0.057920,0.098327,-0.072529,0.056927,0.019264,0.999997,0.002444,-0.000290,0.000492,0.243491,0.595543,-0.244370,-0.725482,75.123968,48.168316,-104.952288
45312,-7.269812,6.232476,1.831427,-0.175983,0.062610,-0.065223,0.501124,-0.027802,0.093871,-0.072730,0.062244,0.018460,0.999997,0.002506,-0.000139,0.000469,0.242343,0.595901,-0.246530,-0.724841,75.406363,48.105664,-104.956978
45313,-7.421232,7.359893,2.366450,-0.641810,-0.640634,0.865343,0.520140,-0.048389,0.075365,-0.074246,0.073509,0.023838,0.999997,0.002601,-0.000242,0.000377,0.241044,0.596224,-0.248728,-0.724257,75.683432,48.050152,-104.983390
45314,-7.098860,7.679197,2.070441,-0.416019,-1.096061,0.783356,0.304105,-0.036089,0.044455,-0.071009,0.076745,0.020808,0.999999,0.001521,-0.000180,0.000222,0.240291,0.596369,-0.250035,-0.723938,75.839479,48.013794,-105.006193
45315,-7.189055,7.243446,1.915886,-0.284780,-0.707931,0.542908,0.162629,-0.009207,0.040984,-0.071906,0.072404,0.019214,1.000000,0.000813,-0.000046,0.000205,0.239982,0.596443,-0.250788,-0.723719,75.930244,47.982967,-105.007699
45316,-7.261908,6.674092,1.784943,-0.179765,-0.230647,0.206260,0.137234,-0.003217,0.040215,-0.072633,0.066714,0.017894,1.000000,0.000686,-0.000016,0.000201,0.239752,0.596511,-0.251438,-0.723514,76.010185,47.953559,-105.004289
45317,-7.052105,5.937811,1.378653,0.144815,0.166823,-0.493800,0.026369,-0.003321,0.037916,-0.070533,0.059363,0.013793,1.000000,0.000132,-0.000017,0.000190,0.239845,0.596446,-0.251681,-0.723452,76.025957,47.925255,-105.001649
45318,-7.462857,5.174531,1.455110,0.099844,1.023498,-0.673223,0.145709,0.045066,0.047908,-0.074638,0.051717,0.014606,1.000000,0.000729,0.000225,0.000240,0.239678,0.596688,-0.252327,-0.723083,76.141583,47.898220,-104.956675
45319,-7.710208,5.408576,1.804023,-0.201580,1.043000,-0.282420,0.326877,-0.046890,0.040896,-0.077117,0.054040,0.018111,0.999999,0.001634,-0.000234,0.000204,0.238830,0.596821,-0.253718,-0.722767,76.303053,47.862307,-104.989732
45320,-7.498485,5.877153,1.129722,0.436122,0.506161,-0.241999,0.256707,-0.123238,0.052683,-0.075007,0.058737,0.011326,0.999999,0.001284,-0.000616,0.000263,0.238135,0.596580,-0.254979,-0.722751,76.379285,47.809731,-105.083644
45321,-7.024277,6.543585,0.955564,0.542447,-0.309856,-0.185549,0.369961,-0.139312,0.056735,-0.070268,0.065398,0.009628,0.999998,0.001850,-0.000697,0.000284,0.237097,0.596407,-0.256682,-0.722633,76.510980,47.752671,-105.190290
45322,-6.885466,7.567833,2.058807,-0.550020,-1.061397,0.555111,0.528873,-0.156956,0.056064,-0.068892,0.075604,0.020734,0.999996,0.002644,-0.000785,0.000280,0.235558,0.596357,-0.258974,-0.722359,76.722986,47.694051,-105.311623
45323,-7.043416,7.049466,0.842344,0.638277,-0.665180,0.145442,0.313218,-0.108534,0.067702,-0.070463,0.070458,0.008496,0.999999,0.001566,-0.000543,0.000339,0.234766,0.596208,-0.260466,-0.722204,76.842545,47.635329,-105.390903
45324,-7.753966,6.496083,1.247631,0.330931,0.270256,0.370486,0.743599,-0.239018,0.103681,-0.077588,0.064874,0.012625,0.999992,0.003718,-0.001195,0.000518,0.232648,0.596043,-0.263768,-0.721827,77.134172,47.540046,-105.571322
45325,-7.162883,6.188414,1.516196,-0.078451,0.173699,-0.228028,0.975709,-0.292824,0.151892,-0.071698,0.061755,0.015359,0.999987,0.004879,-0.001464,0.000759,0.229937,0.595876,-0.268110,-0.721234,77.532286,47.411623,-105.787918
45326,-7.494002,5.711620,1.118445,0.334987,0.736960,-0.358689,1.031716,-0.342627,0.211262,-0.075020,0.056979,0.011350,0.999985,0.005159,-0.001713,0.001056,0.227199,0.595498,-0.272880,-0.720624,77.940129,47.245100,-106.035544
45327,-7.572810,5.203941,1.338752,0.106038,1.234934,-0.610286,1.227543,-0.475303,0.254231,-0.075826,0.051860,0.013526,0.999978,0.006138,-0.002376,0.001271,0.223845,0.594782,-0.278624,-0.720067,78.385080,47.039974,-106.386249
45328,-7.102433,4.456083,2.632731,-1.269451,1.712406,-1.286945,1.414086,-0.492068,0.270451,-0.071149,0.044278,0.026466,0.999971,0.007070,-0.002460,0.001352,0.219958,0.594163,-0.285091,-0.719244,78.928997,46.826113,-106.749078
45329,-7.420781,4.518919,1.700676,-0.317352,1.789189,-1.147885,1.285030,-0.378812,0.209931,-0.074288,0.045001,0.017156,0.999977,0.006425,-0.001894,0.001050,0.216387,0.593863,-0.290776,-0.718298,79.459224,46.660611,-107.030208
45330,-7.955425,6.603275,2.321073,-0.924530,0.747580,0.716578,1.213980,-0.348814,0.097629,-0.079627,0.065852,0.023472,0.999980,0.006070,-0.001744,0.000488,0.212658,0.593733,-0.295826,-0.717457,79.953954,46.563462,-107.304800
45331,-6.803376,9.364790,1.216582,-0.237365,-2.201897,1.613623,0.398276,-0.333789,-0.048891,-0.068031,0.093640,0.012239,0.999997,0.001991,-0.001669,-0.000244,0.210843,0.592991,-0.297493,-0.717917,79.974640,46.551084,-107.588816
45332,-6.090907,10.280020,3.012384,-2.182700,-3.027098,1.931454,-0.088883,-0.186402,-0.108684,-0.060881,0.102847,0.030021,0.999999,-0.000444,-0.000932,-0.000543,0.210475,0.592352,-0.297077,-0.718724,79.797743,46.587241,-107.760502
45333,-6.029046,9.121651,2.295409,-1.393845,-2.371143,1.015846,-0.820725,0.000678,-0.154653,-0.060220,0.091356,0.022580,0.999991,-0.004104,0.000003,-0.000773,0.212386,0.591677,-0.293696,-0.720106,79.307435,46.667802,-107.786325
45334,-6.966122,6.541053,1.157054,0.085070,-0.089401,-0.187958,-1.061325,0.134230,-0.153410,-0.069603,0.065524,0.011270,0.999985,-0.005307,0.000671,-0.000767,0.215204,0.591212,-0.289303,-0.721428,78.758439,46.762183,-107.703427
45335,-7.781911,4.756846,0.404641,1.091247,1.614543,-0.893507,-0.828864,0.065370,-0.128669,-0.077787,0.047635,0.003875,0.999991,-0.004144,0.000327,-0.000643,0.217320,0.590699,-0.285890,-0.722574,78.303662,46.835195,-107.674038
45336,-7.931801,4.252094,0.453533,1.114188,2.078336,-1.115647,-0.415837,-0.077360,-0.110394,-0.079296,0.042574,0.004416,0.999998,-0.002079,-0.000387,-0.000552,0.218075,0.590087,-0.284174,-0.723523,78.002122,46.881463,-107.759049
45337,-7.936385,5.369214,0.812510,0.760724,1.294736,-0.314278,0.034891,-0.215059,-0.096181,-0.079347,0.053729,0.008049,0.999999,0.000174,-0.001075,-0.000481,0.217356,0.589445,-0.284280,-0.724220,77.877795,46.902904,-107.954951
45338,-7.262509,7.028213,1.705813,-0.280771,-0.242841,0.429959,0.290836,-0.270245,-0.074317,-0.072622,0.070284,0.017062,0.999998,0.001454,-0.001351,-0.000372,0.215882,0.588851,-0.285436,-0.724691,77.869921,46.905519,-108.192177
45339,-7.339509,7.576747,1.328658,0.088619,-0.658338,0.798606,0.382195,-0.307432,-0.033894,-0.073403,0.075754,0.013319,0.999997,0.001911,-0.001537,-0.000169,0.214232,0.588158,-0.287081,-0.725093,77.897275,46.880826,-108.452876
45340,-7.288586,7.369564,0.862733,0.533900,-0.606753,0.556742,0.526986,-0.463021,0.014601,-0.072911,0.073668,0.008653,0.999994,0.002635,-0.002315,0.000073,0.212106,0.586982,-0.289558,-0.725686,77.921229,46.810564,-108.832209
45341,-6.783476,7.056319,0.908660,0.385836,-0.684479,-0.013940,0.490444,-0.469294,0.013035,-0.067861,0.070536,0.009100,0.999994,0.002452,-0.002346,0.000065,0.210071,0.585738,-0.291901,-0.726343,77.920869,46.740289,-109.216562
45342,-6.569348,7.092411,1.475882,-0.216017,-0.741699,-0.063838,0.362066,-0.375964,-0.032346,-0.065710,0.070908,0.014764,0.999997,0.001810,-0.001880,-0.000162,0.208380,0.584761,-0.293543,-0.726955,77.897361,46.706774,-109.532049
45343,-6.383844,7.194688,1.216610,-0.004072,-0.984949,-0.167638,0.018304,-0.217269,-0.068173,-0.063827,0.071968,0.012103,0.999999,0.000092,-0.001086,-0.000341,0.207797,0.584052,-0.293666,-0.727643,77.766675,46.712010,-109.724218
45344,-6.499876,7.438583,1.102823,0.140210,-1.121258,0.062544,-0.233180,-0.084044,-0.086712,-0.064971,0.074427,0.010914,0.999999,-0.001166,-0.000420,-0.000434,0.208076,0.583593,-0.292679,-0.728328,77.568756,46.743719,-109.810816
45345,-6.737195,7.254503,0.831107,0.489561,-0.895183,0.069987,-0.415227,0.052367,-0.079927,-0.067341,0.072589,0.008178,0.999998,-0.002076,0.000262,-0.000400,0.209110,0.583429,-0.290908,-0.728873,77.348209,46.788217,-109.785210
45346,-7.105723,7.104800,0.945055,0.492467,-0.540833,0.253470,-0.428031,0.100634,-0.085778,-0.071022,0.071099,0.009334,0.999997,-0.002140,0.000503,-0.000429,0.210229,0.583434,-0.289021,-0.729298,77.148307,46.842292,-109.721342
45347,-7.416424,7.090956,1.030658,0.501562,-0.329778,0.482306,-0.414154,0.119771,-0.069229,-0.074134,0.070956,0.010204,0.999998,-0.002071,0.000599,-0.000346,0.211395,0.583496,-0.287211,-0.729626,76.969747,46.889585,-109.639083
45348,-7.804589,6.996532,1.403626,0.247703,0.043382,0.759445,-0.227813,-0.004820,-0.049435,-0.078029,0.070001,0.013955,0.999999,-0.001139,-0.000024,-0.000247,0.211910,0.583271,-0.286269,-0.730027,76.826512,46.909949,-109.654787
45349,-7.753968,6.904270,1.522011,0.141556,0.093423,0.679247,-0.120996,-0.157885,-0.013773,-0.077547,0.069057,0.015117,1.000000,-0.000605,-0.000789,-0.000069,0.212024,0.582548,-0.285983,-0.730683,76.658026,46.890142,-109.788818
45350,-7.530927,6.951797,2.084830,-0.438604,0.010412,0.637018,0.012663,-0.238649,0.016666,-0.075340,0.069510,0.020763,0.999999,0.000063,-0.001193,0.000083,0.211744,0.581628,-0.286360,-0.731349,76.522762,46.842537,-109.982428
45351,-7.152358,7.144295,2.035704,-0.467407,-0.380056,0.481890,0.094904,-0.258470,0.030960,-0.071561,0.071422,0.020298,0.999999,0.000475,-0.001292,0.000155,0.211249,0.580700,-0.287099,-0.731940,76.425064,46.783903,-110.189220
45352,-6.760732,7.633363,2.206300,-0.718631,-0.962731,0.550718,-0.107507,-0.205320,0.028201,-0.067641,0.076336,0.021953,0.999999,-0.000538,-0.001027,0.000141,0.211406,0.579757,-0.287033,-0.732667,76.243094,46.733781,-110.352801
45353,-6.646870,7.279352,1.629396,-0.147296,-0.876711,0.138913,-0.411087,-0.098387,0.010288,-0.066480,0.072823,0.016112,0.999998,-0.002055,-0.000492,0.000051,0.212532,0.578908,-0.285689,-0.733538,75.947911,46.707752,-110.432950
45354,-7.144663,7.140851,1.362366,0.271292,-0.507741,0.363878,-0.497137,-0.042139,0.025755,-0.071459,0.071433,0.013431,0.999997,-0.002486,-0.000211,0.000129,0.214042,0.578149,-0.284013,-0.734348,75.639263,46.680858,-110.463980
45355,-7.145530,7.337198,1.427934,0.245715,-0.650300,0.504709,-0.495389,-0.082997,0.032297,-0.071473,0.073395,0.014068,0.999997,-0.002477,-0.000415,0.000161,0.215512,0.577228,-0.282404,-0.735262,75.308599,46.644239,-110.526580
45356,-6.940413,7.030314,1.694567,-0.014186,-0.516994,0.197234,-0.630187,-0.054398,0.045368,-0.069425,0.070340,0.016705,0.999995,-0.003151,-0.000272,0.000227,0.217457,0.576245,-0.280304,-0.736264,74.919993,46.604415,-110.562786
45357,-7.127653,6.453710,2.217594,-0.427275,0.108274,0.045155,-0.707203,-0.015002,0.052831,-0.071295,0.064596,0.021942,0.999994,-0.003536,-0.000075,0.000264,0.219705,0.575305,-0.277896,-0.737243,74.511604,46.566152,-110.565393
45358,-6.883173,6.372060,1.830467,-0.061977,-0.062455,-0.256336,-0.862234,0.053760,0.052607,-0.068844,0.063781,0.018048,0.999991,-0.004311,0.000269,0.000263,0.222490,0.574440,-0.274836,-0.738229,74.054888,46.538761,-110.512315
45359,-6.589304,5.744378,1.085039,0.631433,0.093326,-1.027102,-0.960618,0.121606,0.020751,-0.065892,0.057488,0.010614,0.999988,-0.004803,0.000608,0.000104,0.225529,0.573747,-0.271240,-0.739175,73.575856,46.539943,-110.412215
45360,-6.615942,5.387751,0.648469,1.095475,0.304254,-1.331750,-0.975090,0.219797,-0.013631,-0.066149,0.053913,0.006295,0.999988,-0.004875,0.001099,-0.000068,0.228609,0.573434,-0.267375,-0.739879,73.139727,46.576750,-110.241745
45361,-6.894260,5.052911,0.511052,1.316488,0.706590,-1.381114,-0.883704,0.247624,-0.040810,-0.068926,0.050565,0.004972,0.999989,-0.004419,0.001238,-0.000204,0.231359,0.573351,-0.263732,-0.740397,72.766980,46.633855,-110.056132
45362,-6.992632,4.745741,0.461872,1.394657,0.985899,-1.523224,-0.634691,0.247967,-0.060654,-0.069906,0.047493,0.004555,0.999994,-0.003173,0.001240,-0.000303,0.233318,0.573575,-0.260949,-0.740594,72.533715,46.702656,-109.875218
45363,-7.570769,4.299881,1.766684,0.245744,1.841944,-1.125137,-0.228999,0.176450,-0.052967,-0.075681,0.043039,0.017684,0.999999,-0.001145,0.000882,-0.000265,0.234048,0.573992,-0.259772,-0.740454,72.492661,46.755130,-109.749622
45364,-7.659994,4.333806,2.882528,-0.826297,2.001507,-0.808382,0.260523,0.069642,-0.029139,-0.076584,0.043312,0.028908,0.999999,0.001303,0.000348,-0.000146,0.233321,0.574557,-0.260600,-0.739955,72.674754,46.776305,-109.702911
45365,-7.189973,5.043579,2.407202,-0.462703,1.114025,-0.786459,0.519435,0.033838,-0.033565,-0.071887,0.050385,0.024215,0.999997,0.002597,0.000169,-0.000168,0.231787,0.575292,-0.262414,-0.739224,72.983408,46.793559,-109.685984
45366,-7.079125,5.842223,3.378297,-1.433897,0.571253,-0.154742,0.640515,0.036913,-0.045829,-0.070772,0.058330,0.033983,0.999995,0.003203,0.000185,-0.000229,0.229861,0.576192,-0.264634,-0.738333,73.361387,46.818161,-109.669223
45367,-7.450461,5.952254,2.770364,-0.791300,0.665524,0.063771,0.588549,0.018161,-0.062063,-0.074484,0.059464,0.027885,0.999996,0.002943,0.000091,-0.000310,0.227998,0.576978,-0.266635,-0.737577,73.695767,46.848384,-109.671332
45368,-7.154604,6.002192,2.091524,-0.227872,0.357147,-0.251850,0.432466,-0.017546,-0.071521,-0.071526,0.060002,0.021039,0.999998,0.002162,-0.000088,-0.000358,0.226500,0.577464,-0.268071,-0.737137,73.918446,46.878299,-109.704022
45369,-6.713187,6.048214,1.646244,0.082946,-0.019108,-0.628428,0.298402,0.015000,-0.086674,-0.067104,0.060487,0.016558,0.999999,0.001492,0.000075,-0.000433,0.225378,0.577935,-0.268933,-0.736798,74.080832,46.921588,-109.714006
45370,-6.415766,6.345362,1.237537,0.402520,-0.493538,-0.726899,0.065928,0.118699,-0.099605,-0.064119,0.063481,0.012434,1.000000,0.000330,0.000593,-0.000498,0.225018,0.578544,-0.268782,-0.736485,74.169276,46.988461,-109.642958
45371,-6.376288,6.569134,1.388006,0.243195,-0.677760,-0.581295,-0.214137,0.261842,-0.121229,-0.063705,0.065745,0.013893,0.999998,-0.001071,0.001309,-0.000606,0.225581,0.579391,-0.267377,-0.736158,74.178421,47.089389,-109.461037
45372,-6.580594,6.374348,1.374134,0.297516,-0.418947,-0.562785,-0.462097,0.381717,-0.145103,-0.065733,0.063823,0.013719,0.999995,-0.002310,0.001909,-0.000726,0.226932,0.580430,-0.264853,-0.735837,74.113370,47.222478,-109.186962
45373,-6.831372,5.965425,1.275585,0.439296,0.017485,-0.664587,-0.560941,0.469375,-0.148682,-0.068239,0.059741,0.012749,0.999993,-0.002805,0.002347,-0.000743,0.228672,0.581676,-0.261852,-0.735388,74.044064,47.371357,-108.842162
45374,-7.044731,5.981481,1.440635,0.324277,0.139243,-0.466180,-0.573002,0.479750,-0.143962,-0.070370,0.059907,0.014404,0.999993,-0.002865,0.002399,-0.000720,0.230474,0.582933,-0.258805,-0.734909,73.976201,47.519727,-108.486927
45375,-7.271171,5.567597,2.015286,-0.209451,0.639249,-0.459781,-0.423215,0.437720,-0.154808,-0.072624,0.055775,0.020194,0.999995,-0.002116,0.002189,-0.000774,0.231743,0.584214,-0.256322,-0.734362,73.968003,47.667407,-108.167874
45376,-7.366144,5.747009,1.916130,-0.096877,0.528575,-0.290561,-0.330872,0.403078,-0.179687,-0.073571,0.057568,0.019214,0.999996,-0.001654,0.002015,-0.000898,0.232603,0.585504,-0.254144,-0.733820,73.988850,47.823467,-107.881910
45377,-7.239659,5.886234,1.710026,0.078077,0.295114,-0.331583,-0.412745,0.313550,-0.205494,-0.072309,0.058972,0.017092,0.999996,-0.002064,0.001568,-0.001027,0.233494,0.586396,-0.251692,-0.733670,73.904577,47.979477,-107.675024
45378,-7.045848,5.713062,2.374706,-0.621218,0.340154,-0.462789,-0.260024,0.224297,-0.223170,-0.070368,0.057240,0.023752,0.999998,-0.001300,0.001121,-0.001116,0.233758,0.587160,-0.249850,-0.733605,73.850819,48.131372,-107.545330
45379,-6.669893,6.179086,1.578300,0.104895,-0.355423,-0.591938,-0.359428,0.275642,-0.204217,-0.066614,0.061887,0.015764,0.999997,-0.001797,0.001378,-0.001021,0.234447,0.587967,-0.247639,-0.733488,73.775232,48.280948,-107.368754
45380,-6.465709,5.560129,1.097394,0.493887,-0.071411,-1.229236,-0.184889,0.437231,-0.132523,-0.064596,0.055654,0.011064,0.999997,-0.000924,0.002186,-0.000663,0.235083,0.589481,-0.246088,-0.732590,73.913416,48.416952,-107.040381
45381,-6.916031,6.864365,0.114012,1.591043,-0.874816,-0.238389,-0.070889,0.519306,0.003954,-0.069158,0.068643,0.001295,0.999997,-0.000354,0.002597,0.000020,0.235984,0.591257,-0.245258,-0.731147,74.193462,48.489706,-106.610195
45382,-7.184683,8.901463,0.649887,1.207352,-2.216932,1.363428,-0.212999,0.475714,0.151704,-0.071899,0.088967,0.006575,0.999996,-0.001065,0.002379,0.000759,0.237789,0.592521,-0.244396,-0.729826,74.391700,48.473193,-106.180800
45383,-7.611556,8.736800,1.837824,0.098360,-1.709916,1.793842,-0.203138,0.439929,0.254923,-0.076186,0.087290,0.018457,0.999996,-0.001016,0.002200,0.001275,0.239897,0.593535,-0.243916,-0.728471,74.590301,48.393046,-105.758060
45384,-7.594468,8.047347,0.635252,1.225062,-1.251897,1.131315,-0.256562,0.391849,0.266043,-0.076039,0.080381,0.006398,0.999996,-0.001283,0.001959,0.001330,0.242143,0.594293,-0.243330,-0.727305,74.729360,48.298771,-105.373602
45385,-7.716023,5.373530,1.182696,0.521852,0.930120,-0.396051,0.099034,0.348636,0.201105,-0.077193,0.053652,0.011988,0.999998,0.000495,0.001743,0.001006,0.243042,0.595399,-0.243896,-0.725910,75.032995,48.232841,-105.041018
45386,-8.336420,4.580651,2.050351,-0.311046,2.012866,-0.297773,0.589558,0.214005,0.159919,-0.083379,0.045679,0.020728,0.999995,0.002948,0.001070,0.000800,0.242166,0.596659,-0.246281,-0.724361,75.526753,48.168723,-104.830226
45387,-8.146313,5.344074,3.044855,-1.318357,1.404789,0.211334,0.574472,0.068554,0.164974,-0.081497,0.053286,0.030630,0.999995,0.002872,0.000343,0.000825,0.241172,0.597361,-0.248800,-0.723253,75.921283,48.080033,-104.740677
45388,-7.639699,6.833278,3.434504,-1.744700,0.007845,0.855502,0.416742,0.065687,0.232039,-0.076465,0.068172,0.034512,0.999997,0.002084,0.000328,0.001160,0.240885,0.597776,-0.250951,-0.722262,76.233349,47.953449,-104.640470
45389,-7.374422,8.176654,1.574603,0.076788,-1.283971,1.235593,0.253049,0.125249,0.294643,-0.073855,0.081638,0.015896,0.999998,0.001265,0.000626,0.001473,0.241388,0.598125,-0.252625,-0.721220,76.496314,47.799554,-104.479657
45390,-7.640910,8.002029,1.131623,0.520821,-0.974353,1.254187,0.374311,0.070570,0.290545,-0.076521,0.079888,0.011493,0.999997,0.001872,0.000353,0.001453,0.241442,0.598428,-0.254788,-0.720189,76.793402,47.640328,-104.366338
45391,-7.490874,8.106486,1.861264,-0.241063,-1.062115,1.327615,0.168253,0.036716,0.192912,-0.074983,0.080977,0.018695,0.999999,0.000841,0.000184,0.000965,0.241718,0.598480,-0.255957,-0.719638,76.936528,47.530732,-104.301295
45392,-7.171695,7.639286,2.793118,-1.234671,-0.833206,0.928577,-0.256337,0.176669,0.076028,-0.071721,0.076401,0.027897,0.999999,-0.001282,0.000883,0.000380,0.243023,0.598673,-0.255079,-0.719351,76.905112,47.504603,-104.143067
45393,-7.425368,7.414705,2.496995,-0.897158,-0.527509,0.923499,-0.572235,0.304167,0.024682,-0.074225,0.074209,0.024871,0.999995,-0.002861,0.001521,0.000123,0.245249,0.599000,-0.252755,-0.719143,76.762858,47.523789,-103.889613
45394,-7.515308,6.602200,1.615444,-0.035570,0.070788,0.320045,-0.599915,0.296228,0.036339,-0.075141,0.066057,0.016068,0.999994,-0.003000,0.001481,0.000182,0.247587,0.599245,-0.250373,-0.718971,76.601866,47.535968,-103.640261
45395,-7.787449,5.947017,0.961079,0.630732,0.697859,-0.012167,-0.374994,0.147072,0.046641,-0.077881,0.059470,0.009557,0.999998,-0.001875,0.000735,0.000233,0.249101,0.599213,-0.249013,-0.718947,76.480183,47.522844,-103.512188
45396,-8.164310,4.618747,0.796479,0.778696,1.937895,-0.633288,-0.024901,0.026020,0.057625,-0.081655,0.046165,0.007970,1.000000,-0.000125,0.000130,0.000288,0.249452,0.599169,-0.249095,-0.718834,76.487236,47.487560,-103.481704
45397,-7.718741,5.238738,1.428818,0.117468,1.225724,-0.455944,0.403980,-0.135428,0.053347,-0.077211,0.052338,0.014342,0.999998,0.002020,-0.000677,0.000267,0.248303,0.599081,-0.250906,-0.718674,76.641045,47.433055,-103.585338
45398,-7.154327,5.391865,1.463378,-0.008630,0.754462,-0.766762,0.442420,-0.149778,0.055843,-0.071569,0.053866,0.014699,0.999997,0.002212,-0.000749,0.000279,0.247028,0.598986,-0.252879,-0.718502,76.808755,47.375609,-103.700220
45399,-6.589226,4.814264,1.494670,-0.171639,0.829868,-1.559753,0.373124,-0.094358,0.046096,-0.065910,0.048099,0.015005,0.999998,0.001866,-0.000472,0.000230,0.245994,0.599012,-0.254505,-0.718261,76.968697,47.330886,-103.771660
45400,-7.107683,4.906542,1.330346,0.062889,1.100167,-1.143849,0.440463,-0.010092,0.026635,-0.071084,0.049027,0.013408,0.999998,0.002202,-0.000050,0.000133,0.244795,0.599447,-0.256209,-0.717702,77.215684,47.308154,-103.777314
45401,-7.613641,6.121107,1.205944,0.299998,0.522414,0.012119,0.383513,-0.013464,0.003139,-0.076138,0.061187,0.012172,0.999998,0.001918,-0.000067,0.000016,0.243677,0.599826,-0.257642,-0.717252,77.424459,47.297982,-103.790465
45402,-7.570021,7.190135,1.569530,-0.043201,-0.272575,0.741482,0.352164,-0.059762,-0.022780,-0.075697,0.071882,0.015799,0.999998,0.001761,-0.000299,-0.000114,0.242499,0.600034,-0.258939,-0.717011,77.583894,47.296789,-103.846407
45403,-6.965798,7.956293,1.875109,-0.434036,-1.216205,0.849086,0.333965,-0.097270,-0.073797,-0.069638,0.079557,0.018850,0.999998,0.001670,-0.000486,-0.000369,0.241144,0.600148,-0.260063,-0.716965,77.703146,47.319452,-103.942732
45404,-7.038076,7.898159,0.794149,0.627200,-1.218467,0.707201,0.158980,-0.049111,-0.097114,-0.070344,0.079009,0.007987,1.000000,0.000795,-0.000246,-0.000486,0.240292,0.600254,-0.260431,-0.717029,77.748493,47.361293,-104.003286
45405,-7.090660,7.849210,-0.196601,1.609788,-1.239341,0.569933,-0.045940,-0.048468,-0.087468,-0.070872,0.078523,-0.002001,1.000000,-0.000230,-0.000242,-0.000437,0.240091,0.600102,-0.260093,-0.717346,77.677807,47.397639,-104.061814
45406,-6.754469,7.522120,0.756526,0.604749,-1.138362,0.242952,0.196974,-0.127397,-0.034598,-0.067537,0.075225,0.007596,0.999999,0.000985,-0.000637,-0.000173,0.239248,0.599891,-0.260879,-0.717519,77.705505,47.394889,-104.175817
45407,-6.399065,6.645577,0.667377,0.598528,-0.717859,-0.610321,0.316654,-0.127168,0.056027,-0.064014,0.066427,0.006738,0.999999,0.001583,-0.000636,0.000280,0.238371,0.599703,-0.262366,-0.717426,77.813686,47.341360,-104.273616
45408,-6.661230,5.575230,-0.305193,1.559674,0.180577,-1.263822,0.444473,-0.155693,0.181043,-0.066660,0.055699,-0.002980,0.999997,0.002222,-0.000778,0.000905,0.237520,0.599399,-0.264718,-0.717098,77.994420,47.214655,-104.372659
45409,-7.015669,4.637973,0.680242,0.608501,1.233554,-1.487962,1.024033,-0.292752,0.308488,-0.070238,0.046236,0.006937,0.999985,0.005120,-0.001464,0.001542,0.235204,0.599111,-0.269689,-0.716249,78.439920,47.000683,-104.563658
45410,-6.887016,3.822837,1.078677,0.157244,1.839591,-2.079672,1.473901,-0.365036,0.413680,-0.068969,0.038006,0.010942,0.999969,0.007369,-0.001825,0.002068,0.231808,0.598925,-0.276658,-0.714852,79.111679,46.720958,-104.798764
45411,-7.663260,2.887267,1.922333,-0.557941,3.207933,-2.056751,1.967788,-0.487121,0.496314,-0.076751,0.028493,0.019318,0.999946,0.009839,-0.002436,0.002482,0.227040,0.598708,-0.285758,-0.712982,80.000340,46.384065,-105.125905
45412,-8.185210,2.747727,1.760643,-0.313418,3.710821,-1.826540,2.273273,-0.573898,0.459275,-0.081965,0.027088,0.017681,0.999929,0.011366,-0.002869,0.002296,0.221072,0.598508,-0.295897,-0.710887,81.006340,46.063894,-105.534827
45413,-8.785664,4.218534,2.153651,-0.667421,3.182659,-0.376234,2.352098,-0.623865,0.310012,-0.087989,0.041794,0.021755,0.999925,0.011760,-0.003119,0.001550,0.214232,0.598348,-0.305882,-0.708886,82.012059,45.828868,-106.008802
45414,-8.384045,7.668175,1.665897,-0.538666,0.408559,1.650752,1.932693,-0.713004,0.061876,-0.083925,0.076492,0.017100,0.999947,0.009663,-0.003565,0.000309,0.207603,0.597728,-0.313694,-0.707968,82.704746,45.733140,-106.585744
45415,-6.224702,12.075073,3.298334,-3.022325,-3.818770,3.291291,1.384889,-0.554662,-0.116765,-0.062269,0.120556,0.033646,0.999972,0.006924,-0.002773,-0.000584,0.202211,0.597330,-0.318845,-0.707564,83.162312,45.753921,-107.052948
45416,-5.216479,13.644922,3.192909,-3.332266,-5.619446,3.637516,-0.043710,-0.161289,-0.209701,-0.052047,0.136511,0.031857,0.999999,-0.000219,-0.000806,-0.001049,0.201377,0.597011,-0.318255,-0.708336,83.024369,45.855816,-107.208664
45417,-5.336675,12.273039,2.865993,-2.789547,-4.680449,2.742445,-1.199212,0.063295,-0.243970,-0.053208,0.122964,0.027940,0.999981,-0.005996,0.000316,-0.001220,0.204225,0.596365,-0.313240,-0.710297,82.352264,45.992552,-107.185991
45418,-5.737796,9.466787,2.148112,-1.629060,-2.624319,1.032270,-2.007206,0.341939,-0.215758,-0.057240,0.094940,0.020627,0.999948,-0.010036,0.001710,-0.001079,0.210005,0.595798,-0.305132,-0.712613,81.381768,46.136178,-106.934907
45419,-7.929898,6.504267,0.723733,0.517143,0.649443,0.435366,-1.831904,0.367527,-0.153366,-0.079236,0.065167,0.006786,0.999956,-0.009159,0.001838,-0.000767,0.215503,0.595353,-0.297778,-0.714451,80.530966,46.249460,-106.657637
45420,-8.917295,4.831117,0.470069,1.110474,2.449333,-0.022585,-1.281736,0.025952,-0.102170,-0.089148,0.048386,0.004402,0.999979,-0.006409,0.000130,-0.000511,0.219024,0.594167,-0.292891,-0.716386,79.798037,46.303113,-106.653889
45421,-8.241608,4.075738,0.830751,0.700217,2.592123,-0.980004,-0.861156,-0.126880,-0.087474,-0.082403,0.040829,0.008080,0.999990,-0.004306,-0.000634,-0.000437,0.221119,0.592853,-0.289713,-0.718121,79.216792,46.332505,-106.773558
45422,-7.536837,5.497620,1.098885,0.302139,1.105110,-0.489459,-0.476788,-0.192830,-0.110593,-0.075348,0.055044,0.010785,0.999997,-0.002384,-0.000964,-0.000553,0.221891,0.591755,-0.287915,-0.719511,78.813999,46.367123,-106.950946
45423,-6.812727,6.765439,1.252159,0.020331,-0.300035,-0.134789,-0.412773,-0.237905,-0.103934,-0.068107,0.067715,0.012301,0.999997,-0.002064,-0.001190,-0.000520,0.222433,0.590550,-0.286415,-0.720930,78.421612,46.391919,-107.164490
45424,-6.452594,6.946682,1.047785,0.185093,-0.717385,-0.302631,-0.355593,-0.245493,-0.084592,-0.064509,0.069512,0.010275,0.999998,-0.001778,-0.001227,-0.000423,0.222862,0.589352,-0.285185,-0.722264,78.059730,46.404153,-107.381131
45425,-6.491874,6.902715,0.715691,0.554923,-0.720789,-0.353483,-0.285081,-0.212604,-0.060489,-0.064905,0.069057,0.006989,0.999998,-0.001425,-0.001063,-0.000302,0.223218,0.588314,-0.284244,-0.723371,77.760420,46.405824,-107.567085
45426,-6.933684,6.082339,0.202684,1.185930,0.090781,-0.664071,-0.200158,-0.162364,-0.050092,-0.069323,0.060843,0.001910,0.999999,-0.001001,-0.000812,-0.000250,0.223432,0.587537,-0.283583,-0.724196,77.540755,46.407381,-107.710312
45427,-6.981930,5.982442,0.631727,0.793801,0.254855,-0.634400,0.054842,-0.181204,-0.037467,-0.069814,0.059836,0.006270,1.000000,0.000274,-0.000906,-0.000187,0.222916,0.586957,-0.283903,-0.724699,77.457652,46.399149,-107.866661
45428,-7.523861,6.080751,0.846467,0.698017,0.569683,-0.143730,0.405575,-0.202713,-0.039778,-0.075235,0.060805,0.008512,0.999997,0.002028,-0.001014,-0.000199,0.221330,0.586692,-0.285511,-0.724768,77.562778,46.389705,-108.040691
45429,-7.865969,7.110629,1.449347,0.154629,0.131970,0.887489,0.607220,-0.307782,-0.033402,-0.078670,0.071075,0.014588,0.999994,0.003036,-0.001539,-0.000167,0.219024,0.586255,-0.287982,-0.724845,77.722437,46.363947,-108.298957
45430,-7.689538,7.301435,1.828310,-0.274982,-0.051175,0.943910,0.655874,-0.354790,-0.025329,-0.076919,0.072964,0.018386,0.999993,0.003279,-0.001774,-0.000127,0.216535,0.585683,-0.290700,-0.724970,77.883696,46.328636,-108.593729
45431,-7.423913,8.680637,2.046302,-0.600962,-1.189300,1.714656,0.543672,-0.343969,-0.006077,-0.074272,0.086753,0.020571,0.999995,0.002718,-0.001720,-0.000030,0.214457,0.584992,-0.293053,-0.725198,77.989472,46.284149,-108.876465
45432,-6.671369,9.143526,2.354411,-1.090277,-1.954170,1.529578,0.207880,-0.329449,0.023262,-0.066763,0.091403,0.023529,0.999998,0.001039,-0.001647,0.000116,0.213487,0.583948,-0.294256,-0.725839,77.915509,46.225144,-109.142008
45433,-6.062063,9.429287,2.274272,-1.133769,-2.571915,1.274784,-0.343987,-0.198244,0.072492,-0.060677,0.094310,0.022520,0.999998,-0.001720,-0.000991,0.000362,0.214499,0.582714,-0.293460,-0.726853,77.608672,46.153767,-109.292293
45434,-6.258629,8.312415,1.613647,-0.349484,-1.745994,0.565143,-0.918820,-0.036212,0.097154,-0.062630,0.083167,0.015743,0.999989,-0.004594,-0.000181,0.000486,0.217511,0.581411,-0.290469,-0.728202,77.070859,46.088254,-109.306361
45435,-6.970585,7.367658,1.552814,-0.026124,-0.611478,0.429748,-1.216350,0.081255,0.069055,-0.069725,0.073745,0.015108,0.999981,-0.006082,0.000406,0.000345,0.221450,0.580234,-0.286176,-0.729652,76.427318,46.053673,-109.230449
45436,-7.317598,6.461414,1.226038,0.459528,0.209157,0.013035,-1.385824,0.143533,-0.006784,-0.073165,0.064700,0.011865,0.999976,-0.006929,0.000718,-0.000034,0.225683,0.579182,-0.280964,-0.731215,75.712376,46.070528,-109.118936
45437,-6.744862,6.086666,0.344075,1.263543,-0.043432,-0.809349,-1.517656,0.198154,-0.057388,-0.067428,0.060910,0.003045,0.999971,-0.007588,0.000991,-0.000287,0.230178,0.578219,-0.275047,-0.732823,74.945382,46.124310,-108.974796
45438,-6.502511,5.760989,0.538329,1.083473,0.046363,-1.176426,-1.461223,0.291091,-0.061879,-0.065000,0.057668,0.005057,0.999972,-0.007306,0.001455,-0.000309,0.234608,0.577636,-0.269200,-0.734048,74.263167,46.196056,-108.758149
45439,-7.067736,5.437639,0.849460,0.951325,0.676111,-0.931245,-1.328349,0.314204,-0.061794,-0.070647,0.054454,0.008244,0.999977,-0.006642,0.001571,-0.000309,0.238674,0.577263,-0.263801,-0.734991,73.669764,46.272990,-108.524160
45440,-7.431796,4.212634,0.723239,1.135689,1.798120,-1.507397,-1.134300,0.266311,-0.056306,-0.074297,0.042188,0.007092,0.999983,-0.005671,0.001332,-0.000282,0.242126,0.576916,-0.259177,-0.735779,73.160828,46.340676,-108.327553
45441,-7.606975,3.588667,0.735372,1.142641,2.370043,-1.790055,-0.556803,0.194556,-0.054032,-0.076053,0.035928,0.007328,0.999996,-0.002784,0.000973,-0.000270,0.243824,0.576988,-0.256766,-0.736007,72.941546,46.395948,-108.187957
45442,-7.621534,3.557111,1.611814,0.286194,2.483573,-1.621918,0.211128,0.065532,-0.055692,-0.076200,0.035575,0.016181,0.999999,0.001056,0.000328,-0.000278,0.243132,0.577522,-0.257332,-0.735620,73.088049,46.430716,-108.151045
45443,-7.544326,4.667052,3.195499,-1.231496,1.768340,-0.633054,0.964968,-0.109116,-0.056731,-0.075448,0.046537,0.032139,0.999988,0.004825,-0.000546,-0.000284,0.240032,0.578322,-0.260876,-0.734759,73.565488,46.437085,-108.253383
45444,-7.366962,5.725059,3.647551,-1.698150,0.938682,0.015228,1.135101,-0.236495,-0.069963,-0.073693,0.057068,0.036713,0.999983,0.005675,-0.001182,-0.000350,0.236219,0.578861,-0.265152,-0.734040,74.064744,46.431167,-108.460227
45445,-7.023427,6.245347,2.962393,-1.126768,0.275742,-0.026838,0.917687,-0.246133,-0.077578,-0.070247,0.062344,0.029824,0.999989,0.004588,-0.001231,-0.000388,0.232987,0.579101,-0.268613,-0.733626,74.432386,46.428855,-108.676724
45446,-6.497594,6.502754,1.769301,-0.101331,-0.394969,-0.460220,0.448826,-0.129450,-0.090584,-0.064958,0.065017,0.017797,0.999997,0.002244,-0.000647,-0.000453,0.231219,0.579232,-0.270176,-0.733507,74.597111,46.452448,-108.802535
45447,-6.347334,6.274841,1.534574,0.075485,-0.356253,-0.763678,0.033060,0.028924,-0.125760,-0.063432,0.062786,0.015365,1.000000,0.000165,0.000145,-0.000629,0.230739,0.579509,-0.269929,-0.733531,74.609893,46.519517,-108.809243
45448,-6.483246,5.939650,1.518828,0.113956,-0.036499,-0.890559,-0.389623,0.194357,-0.210971,-0.064755,0.059494,0.015135,0.999997,-0.001948,0.000972,-0.001055,0.231394,0.580018,-0.267692,-0.733741,74.463336,46.659076,-108.701961
45449,-6.627587,5.264333,1.566384,0.086571,0.538529,-1.222341,-0.606299,0.345367,-0.308231,-0.066168,0.052793,0.015618,0.999993,-0.003031,0.001727,-0.001541,0.232520,0.580955,-0.264202,-0.733910,74.265190,46.875670,-108.495348
45450,-6.482831,5.523376,1.505215,0.132701,0.200714,-1.167321,-0.831003,0.450270,-0.380498,-0.064689,0.055419,0.014968,0.999987,-0.004155,0.002251,-0.001902,0.234168,0.582100,-0.259549,-0.734139,73.988644,47.149291,-108.220787
45451,-6.502957,5.184531,2.121810,-0.461871,0.483804,-1.255692,-1.044606,0.428730,-0.412925,-0.064877,0.052090,0.021086,0.999982,-0.005223,0.002144,-0.002065,0.236283,0.582939,-0.254036,-0.734723,73.571298,47.438256,-107.972480
45452,-6.373015,4.862926,2.286798,-0.642615,0.601540,-1.523076,-1.055120,0.350430,-0.426320,-0.063586,0.048885,0.022722,0.999982,-0.005276,0.001752,-0.002132,0.238271,0.583475,-0.248527,-0.735539,73.097989,47.723189,-107.793003
45453,-6.003686,5.163551,0.752623,0.828147,-0.048216,-1.901647,-1.171990,0.394188,-0.365906,-0.059928,0.051789,0.007341,0.999979,-0.005860,0.001971,-0.001830,0.240869,0.583934,-0.242705,-0.736272,72.593926,47.983281,-107.565423
