// General information: 
//  MT Manager version: 2022.0.0 
//  XDA version: 2022.0.0 build 7085 rev 119802 built on 2022-11-08
// Device information: 
//  DeviceId: 00B472EC
//  ProductCode: MTW2-3A7G6
//  Firmware Version: 4.4.0
//  Hardware Version: 2.0.0
// Device settings: 
//  Filter Profile: human(46.1)
//  Option Flags: Orientation Smoother Disabled, Position/Velocity Smoother Disabled, Continuous Zero Rotation Update Disabled, AHS Disabled, ICC Disabled
// Coordinate system: ENU
PacketCounter,Acc_X,Acc_Y,Acc_Z,FreeAcc_E,FreeAcc_N,FreeAcc_U,Gyr_X,Gyr_Y,Gyr_Z,VelInc_X,VelInc_Y,VelInc_Z,OriInc_q0,OriInc_q1,OriInc_q2,OriInc_q3,Quat_q0,Quat_q1,Quat_q2,Quat_q3,Roll,Pitch,Yaw
52996,-8.407873,4.840733,-0.418206,-0.014675,0.094617,-0.102345,0.004632,0.014790,-0.008390,-0.084077,0.048411,-0.004175,1.000000,0.000023,0.000074,-0.000042,0.106785,0.672797,-0.265875,-0.682093,95.268082,59.433348,-98.125892
52997,-8.424129,4.872063,-0.397299,-0.041471,0.081592,-0.073467,0.010077,0.014157,-0.009086,-0.084239,0.048725,-0.003965,1.000000,0.000050,0.000071,-0.000045,0.106775,0.672829,-0.265903,-0.682053,95.280820,59.432015,-98.116380
52998,-8.427190,4.905698,-0.397076,-0.049818,0.055510,-0.053819,0.017139,0.013314,-0.006783,-0.084270,0.049060,-0.003961,1.000000,0.000086,0.000067,-0.000034,0.106746,0.672861,-0.265960,-0.682004,95.296963,59.429840,-98.107566
52999,-8.414418,4.907123,-0.419287,-0.030546,0.043394,-0.063058,0.024952,0.004416,-0.010992,-0.084142,0.049076,-0.004185,1.000000,0.000125,0.000022,-0.000055,0.106666,0.672869,-0.266037,-0.681977,95.308985,59.430108,-98.108784
53000,-8.388621,4.926159,-0.431334,-0.026170,0.012041,-0.075069,0.038192,0.006860,-0.009477,-0.083884,0.049266,-0.004301,1.000000,0.000191,0.000034,-0.000047,0.106541,0.672891,-0.266167,-0.681925,95.331061,59.429790,-98.108315
53001,-8.365563,4.979530,-0.441679,-0.030850,-0.046137,-0.067413,0.029080,0.009187,-0.011319,-0.083653,0.049801,-0.004406,1.000000,0.000145,0.000046,-0.000057,0.106453,0.672918,-0.266255,-0.681878,95.350085,59.429990,-98.104148
53002,-8.365967,4.962976,-0.474715,0.003243,-0.039163,-0.073881,0.030194,0.008292,-0.009660,-0.083657,0.049635,-0.004736,1.000000,0.000151,0.000041,-0.000048,0.106364,0.672944,-0.266349,-0.681830,95.369048,59.429751,-98.100648
53003,-8.379510,4.944221,-0.487266,0.018891,-0.019116,-0.071116,0.020975,0.012879,-0.010488,-0.083793,0.049447,-0.004862,1.000000,0.000105,0.000064,-0.000052,0.106311,0.672978,-0.266410,-0.681780,95.386918,59.429277,-98.092427
53004,-8.379979,4.943251,-0.489045,0.019632,-0.018292,-0.071116,0.007631,0.012690,-0.010990,-0.083797,0.049437,-0.004883,1.000000,0.000038,0.000063,-0.000055,0.106291,0.673005,-0.266429,-0.681749,95.397394,59.429448,-98.085222
53005,-8.364634,4.909995,-0.512739,0.047976,-0.003537,-0.100028,-0.003100,0.015226,-0.015832,-0.083643,0.049106,-0.005122,1.000000,-0.000015,0.000076,-0.000079,0.106304,0.673042,-0.266388,-0.681726,95.404225,59.431894,-98.073803
53006,-8.375808,4.872020,-0.495235,0.039315,0.037152,-0.110467,-0.009551,0.014489,-0.017815,-0.083754,0.048727,-0.004949,1.000000,-0.000048,0.000072,-0.000089,0.106330,0.673079,-0.266314,-0.681715,95.407185,59.435966,-98.062245
53007,-8.415992,4.832682,-0.496096,0.051351,0.089370,-0.095732,-0.031279,0.020543,-0.020259,-0.084156,0.048335,-0.004960,1.000000,-0.000156,0.000103,-0.000101,0.106430,0.673125,-0.266160,-0.681714,95.403414,59.440651,-98.044388
53008,-8.432868,4.863194,-0.473731,0.024534,0.076325,-0.066821,-0.035171,0.018996,-0.021368,-0.084324,0.048640,-0.004738,1.000000,-0.000176,0.000095,-0.000107,0.106529,0.673165,-0.265994,-0.681724,95.396461,59.446394,-98.028738
53009,-8.423187,4.882830,-0.522616,0.068066,0.043480,-0.062882,-0.035119,0.013204,-0.017171,-0.084228,0.048835,-0.005229,1.000000,-0.000176,0.000066,-0.000086,0.106642,0.673180,-0.265840,-0.681751,95.383120,59.449715,-98.019441
53010,-8.437124,4.863567,-0.532640,0.083662,0.063465,-0.060148,-0.021226,0.009859,-0.021141,-0.084366,0.048644,-0.005327,1.000000,-0.000106,0.000049,-0.000106,0.106693,0.673201,-0.265716,-0.681771,95.375403,59.455898,-98.012097
53011,-8.421993,4.829994,-0.555104,0.111995,0.078204,-0.089093,-0.006498,0.006615,-0.016201,-0.084216,0.048307,-0.005550,1.000000,-0.000032,0.000033,-0.000081,0.106704,0.673207,-0.265667,-0.681782,95.372004,59.459020,-98.010297
53012,-8.419824,4.778713,-0.588446,0.155138,0.112047,-0.115307,0.009006,0.003070,-0.017167,-0.084194,0.047795,-0.005881,1.000000,0.000045,0.000015,-0.000086,0.106657,0.673215,-0.265664,-0.681783,95.374669,59.463287,-98.011318
53013,-8.434125,4.805925,-0.507421,0.070755,0.113621,-0.093071,0.028404,0.001069,-0.017025,-0.084337,0.048067,-0.005067,1.000000,0.000142,0.000005,-0.000085,0.106540,0.673222,-0.265735,-0.681767,95.385981,59.467177,-98.015656
53014,-8.405974,4.805676,-0.490308,0.050829,0.102954,-0.118248,0.043470,-0.001197,-0.014531,-0.084056,0.048064,-0.004893,1.000000,0.000217,-0.000006,-0.000073,0.106375,0.673228,-0.265865,-0.681737,95.403820,59.470205,-98.022797
53015,-8.406622,4.804303,-0.492665,0.051609,0.103829,-0.118262,0.050652,0.003459,-0.012641,-0.084063,0.048050,-0.004913,1.000000,0.000253,0.000017,-0.000063,0.106202,0.673249,-0.266025,-0.681680,95.429791,59.471467,-98.024915
53016,-8.468068,4.850239,-0.500074,0.051275,0.094590,-0.041736,0.050875,-0.001066,-0.014674,-0.084677,0.048510,-0.004989,1.000000,0.000254,-0.000005,-0.000073,0.106011,0.673260,-0.266181,-0.681639,95.452281,59.474480,-98.031582
53017,-8.424170,4.849082,-0.444488,-0.007765,0.085531,-0.082814,0.054274,-0.000215,-0.014910,-0.084238,0.048498,-0.004432,1.000000,0.000271,-0.000001,-0.000075,0.105814,0.673273,-0.266347,-0.681591,95.476985,59.477238,-98.037580
53018,-8.401581,4.901883,-0.455010,-0.012501,0.027304,-0.075072,0.046716,-0.000077,-0.018560,-0.084011,0.049028,-0.004539,1.000000,0.000234,-0.000000,-0.000093,0.105626,0.673290,-0.266473,-0.681554,95.498325,59.482457,-98.042640
53019,-8.431555,4.914425,-0.445021,-0.024376,0.033514,-0.043397,0.035930,-0.001083,-0.018192,-0.084311,0.049153,-0.004442,1.000000,0.000180,-0.000005,-0.000091,0.105478,0.673296,-0.266567,-0.681535,95.511987,59.487136,-98.049255
53020,-8.422264,4.964986,-0.433957,-0.047575,-0.011695,-0.026394,0.017132,-0.000656,-0.018006,-0.084218,0.049658,-0.004336,1.000000,0.000086,-0.000003,-0.000090,0.105394,0.673296,-0.266591,-0.681538,95.515742,59.492108,-98.054518
53021,-8.381080,4.966967,-0.436032,-0.049007,-0.035320,-0.060778,-0.001442,0.003005,-0.019255,-0.083806,0.049678,-0.004359,1.000000,-0.000007,0.000015,-0.000096,0.105373,0.673297,-0.266551,-0.681556,95.512047,59.497169,-98.056425
53022,-8.397735,4.966265,-0.475185,-0.009112,-0.036051,-0.044875,-0.017459,0.005863,-0.019627,-0.083973,0.049670,-0.004754,1.000000,-0.000087,0.000029,-0.000098,0.105411,0.673304,-0.266446,-0.681584,95.502376,59.502755,-98.053759
53023,-8.421941,4.894531,-0.497061,0.030482,0.030017,-0.059188,-0.036422,0.006571,-0.023229,-0.084214,0.048954,-0.004977,1.000000,-0.000182,0.000033,-0.000116,0.105500,0.673304,-0.266272,-0.681639,95.482459,59.509886,-98.051233
53024,-8.393907,4.878594,-0.507852,0.043872,0.025477,-0.090871,-0.037975,0.008739,-0.021433,-0.083934,0.048794,-0.005084,1.000000,-0.000190,0.000044,-0.000107,0.105602,0.673311,-0.266092,-0.681686,95.463949,59.516329,-98.045701
53025,-8.430997,4.789141,-0.540247,0.098337,0.110706,-0.102511,-0.030796,0.013402,-0.019547,-0.084306,0.047899,-0.005404,1.000000,-0.000154,0.000067,-0.000098,0.105693,0.673332,-0.265945,-0.681708,95.453527,59.520988,-98.035898
53026,-8.402793,4.773374,-0.551975,0.111719,0.106164,-0.134208,-0.018672,0.009003,-0.020281,-0.084023,0.047742,-0.005520,1.000000,-0.000093,0.000045,-0.000101,0.105730,0.673347,-0.265839,-0.681729,95.446253,59.526712,-98.030826
53027,-8.416865,4.769537,-0.531814,0.094037,0.120062,-0.124980,-0.000210,0.007617,-0.018014,-0.084165,0.047703,-0.005315,1.000000,-0.000001,0.000038,-0.000090,0.105716,0.673363,-0.265805,-0.681729,95.447609,59.530813,-98.027692
53028,-8.446785,4.782200,-0.520810,0.082138,0.126235,-0.093316,0.019809,0.004061,-0.017544,-0.084464,0.047830,-0.005202,1.000000,0.000099,0.000020,-0.000088,0.105625,0.673377,-0.265845,-0.681714,95.457365,59.535212,-98.028855
53029,-8.447949,4.811900,-0.460658,0.016247,0.114830,-0.080217,0.034044,0.000154,-0.013937,-0.084476,0.048126,-0.004598,1.000000,0.000170,0.000001,-0.000070,0.105499,0.673379,-0.265945,-0.681691,95.470735,59.537395,-98.034552
53030,-8.438338,4.847174,-0.480715,0.026391,0.075787,-0.069727,0.036717,-0.002907,-0.014073,-0.084380,0.048479,-0.004799,1.000000,0.000184,-0.000015,-0.000070,0.105352,0.673374,-0.266059,-0.681675,95.483162,59.540173,-98.044019
53031,-8.457892,4.896585,-0.488673,0.023955,0.042167,-0.027549,0.032215,-0.002887,-0.015508,-0.084575,0.048973,-0.004880,1.000000,0.000161,-0.000014,-0.000078,0.105223,0.673367,-0.266149,-0.681666,95.492681,59.543420,-98.052967
53032,-8.400601,4.882418,-0.483058,0.016608,0.026109,-0.084353,0.031883,-0.003863,-0.013061,-0.084003,0.048830,-0.004824,1.000000,0.000159,-0.000019,-0.000065,0.105100,0.673357,-0.266245,-0.681659,95.501327,59.545726,-98.062705
53033,-8.430167,4.879725,-0.503153,0.038104,0.038493,-0.059244,0.022038,0.002274,-0.014226,-0.084298,0.048804,-0.005025,1.000000,0.000110,0.000011,-0.000071,0.105017,0.673361,-0.266302,-0.681645,95.509903,59.547959,-98.065984
53034,-8.404743,4.898429,-0.514412,0.042437,0.007100,-0.071174,0.015812,0.004753,-0.017649,-0.084043,0.048992,-0.005138,1.000000,0.000079,0.000024,-0.000088,0.104935,0.673373,-0.266331,-0.681634,95.517854,59.552410,-98.067252
53035,-8.421520,4.913306,-0.523895,0.049057,0.000319,-0.048742,0.005243,0.006970,-0.018716,-0.084211,0.049141,-0.005235,1.000000,0.000026,0.000035,-0.000094,0.104899,0.673390,-0.266314,-0.681629,95.521784,59.556945,-98.064757
53036,-8.390566,4.878797,-0.507717,0.038111,0.016444,-0.093618,0.001238,0.007679,-0.018810,-0.083901,0.048796,-0.005074,1.000000,0.000006,0.000038,-0.000094,0.104880,0.673413,-0.266275,-0.681626,95.524676,59.561916,-98.060026
53037,-8.401817,4.856428,-0.459259,-0.003848,0.051050,-0.097559,0.000677,0.011228,-0.014337,-0.084015,0.048570,-0.004588,1.000000,0.000003,0.000056,-0.000072,0.104879,0.673436,-0.266254,-0.681610,95.529714,59.563719,-98.053212
53038,-8.454827,4.814870,-0.440141,-0.010238,0.116284,-0.073736,-0.001881,0.012024,-0.015217,-0.084545,0.048155,-0.004397,1.000000,-0.000009,0.000060,-0.000076,0.104877,0.673461,-0.266226,-0.681597,95.534488,59.566351,-98.046241
53039,-8.471513,4.829910,-0.449387,-0.003610,0.109512,-0.051310,-0.004824,0.009871,-0.018448,-0.084711,0.048307,-0.004491,1.000000,-0.000024,0.000049,-0.000092,0.104879,0.673483,-0.266174,-0.681596,95.535444,59.570573,-98.040506
53040,-8.443185,4.814265,-0.461835,0.009759,0.104926,-0.083006,-0.007717,0.009695,-0.016878,-0.084428,0.048150,-0.004616,1.000000,-0.000039,0.000048,-0.000084,0.104887,0.673499,-0.266122,-0.681599,95.534619,59.574335,-98.036185
53041,-8.430495,4.799488,-0.513525,0.062325,0.098883,-0.098864,-0.001651,0.007501,-0.017242,-0.084301,0.048002,-0.005132,1.000000,-0.000008,0.000038,-0.000086,0.104879,0.673512,-0.266086,-0.681601,95.534980,59.578001,-98.033249
53042,-8.431533,4.813691,-0.483372,0.029734,0.093577,-0.092277,0.000295,0.008276,-0.016689,-0.084312,0.048144,-0.004830,1.000000,0.000001,0.000041,-0.000083,0.104861,0.673528,-0.266061,-0.681598,95.537568,59.581670,-98.030035
53043,-8.403384,4.813800,-0.465323,0.009784,0.082925,-0.117375,0.004800,0.008257,-0.015256,-0.084030,0.048145,-0.004649,1.000000,0.000024,0.000041,-0.000076,0.104840,0.673545,-0.266053,-0.681587,95.542172,59.584161,-98.026463
53044,-8.200972,4.776197,-0.426348,-0.034628,0.021407,-0.312786,0.005851,0.003862,-0.008365,-0.082008,0.047766,-0.004260,1.000000,0.000029,0.000019,-0.000042,0.104822,0.673537,-0.266081,-0.681588,95.542760,59.583344,-98.029756
53045,-7.967165,4.551280,-0.388981,-0.039713,0.101590,-0.629590,0.020894,0.015603,0.005339,-0.079673,0.045511,-0.003879,1.000000,0.000104,0.000078,0.000027,0.104826,0.673560,-0.266193,-0.681520,95.561777,59.573683,-98.020165
53046,-8.204994,4.485047,-0.495620,0.093206,0.255148,-0.452697,0.027199,0.032587,0.019534,-0.082055,0.044843,-0.004937,1.000000,0.000136,0.000163,0.000098,0.104880,0.673628,-0.266362,-0.681379,95.599974,59.555402,-97.992294
53047,-8.609556,4.560098,-0.580024,0.184386,0.380749,-0.061974,0.058734,0.032443,0.029572,-0.086103,0.045590,-0.005773,1.000000,0.000294,0.000162,0.000148,0.104862,0.673695,-0.266676,-0.681192,95.654653,59.530970,-97.966481
53048,-8.893431,4.901346,-0.586718,0.132942,0.240377,0.355159,0.079598,0.014587,0.012948,-0.088938,0.049010,-0.005841,1.000000,0.000398,0.000073,0.000065,0.104686,0.673735,-0.267018,-0.681046,95.705862,59.517419,-97.959529
53049,-8.833403,5.198580,-0.549314,0.023567,-0.028402,0.451552,0.087693,0.002221,-0.018106,-0.088329,0.051996,-0.005469,1.000000,0.000438,0.000011,-0.000091,0.104367,0.673778,-0.267285,-0.680947,95.752398,59.521873,-97.962410
53050,-8.669277,5.447586,-0.448285,-0.144933,-0.297399,0.430558,0.072601,0.003975,-0.035451,-0.086683,0.054493,-0.004461,1.000000,0.000363,0.000020,-0.000177,0.104032,0.673841,-0.267450,-0.680871,95.794119,59.536444,-97.962477
53051,-8.534007,5.365123,-0.370492,-0.214920,-0.281417,0.268270,0.019013,0.003382,-0.041301,-0.085329,0.053669,-0.003698,1.000000,0.000095,0.000017,-0.000207,0.103868,0.673884,-0.267405,-0.680872,95.804722,59.554055,-97.961394
53052,-8.470039,5.090573,-0.386217,-0.144245,-0.090816,0.075468,-0.039886,0.010886,-0.042100,-0.084690,0.050923,-0.003868,1.000000,-0.000199,0.000054,-0.000210,0.103904,0.673923,-0.267154,-0.680926,95.789378,59.572065,-97.951803
53053,-8.418837,4.893927,-0.575738,0.081283,0.002505,-0.058088,-0.075635,0.016703,-0.035404,-0.084180,0.048952,-0.005769,1.000000,-0.000378,0.000084,-0.000177,0.104097,0.673954,-0.266800,-0.681005,95.758092,59.585547,-97.936409
53054,-8.267815,4.720480,-0.698182,0.229593,0.041926,-0.269486,-0.066051,0.020845,-0.036436,-0.082670,0.047218,-0.006989,1.000000,-0.000330,0.000104,-0.000182,0.104248,0.674003,-0.266479,-0.681059,95.736687,59.599766,-97.917414
53055,-8.194955,4.673382,-0.712409,0.249629,0.039521,-0.355339,-0.035273,0.014824,-0.031082,-0.081943,0.046745,-0.007126,1.000000,-0.000176,0.000074,-0.000155,0.104317,0.674042,-0.266278,-0.681088,95.726275,59.610898,-97.904634
53056,-8.109770,4.675697,-0.655733,0.188073,0.005650,-0.430518,-0.009894,0.012937,-0.030266,-0.081091,0.046769,-0.006554,1.000000,-0.000049,0.000065,-0.000151,0.104294,0.674087,-0.266168,-0.681090,95.728721,59.622120,-97.894566
53057,-8.013857,4.699394,-0.647877,0.169267,-0.061903,-0.501755,-0.029431,0.000131,-0.020551,-0.080134,0.047001,-0.006486,1.000000,-0.000147,0.000001,-0.000103,0.104359,0.674066,-0.266030,-0.681155,95.706343,59.628089,-97.899539
53058,-8.115724,4.754194,-0.559633,0.080542,-0.037827,-0.390766,-0.032693,-0.002535,-0.006503,-0.081156,0.047544,-0.005605,1.000000,-0.000163,-0.000013,-0.000033,0.104480,0.674018,-0.265924,-0.681226,95.678532,59.626653,-97.908195
53059,-8.247403,4.780253,-0.611157,0.136928,-0.004480,-0.261498,-0.041189,-0.001362,0.006790,-0.082476,0.047798,-0.006122,1.000000,-0.000206,-0.000007,0.000034,0.104676,0.673948,-0.265839,-0.681297,95.645320,59.617115,-97.917918
53060,-8.436676,4.819615,-0.670253,0.201515,0.045830,-0.075505,-0.026246,0.006433,0.010902,-0.084370,0.048191,-0.006706,1.000000,-0.000131,0.000032,0.000055,0.104842,0.673909,-0.265813,-0.681321,95.628203,59.605227,-97.919190
53061,-8.662556,4.817622,-0.672130,0.219907,0.162220,0.118397,0.014586,0.014576,0.007150,-0.086628,0.048174,-0.006711,1.000000,0.000073,0.000073,0.000036,0.104873,0.673923,-0.265910,-0.681264,95.642418,59.594584,-97.910979
53062,-8.815427,4.817243,-0.599206,0.157524,0.256976,0.246427,0.053832,0.015156,-0.000191,-0.088155,0.048174,-0.005972,1.000000,0.000269,0.000076,-0.000001,0.104743,0.673971,-0.266116,-0.681157,95.680899,59.588456,-97.901116
53063,-8.766815,4.906988,-0.589087,0.123053,0.160535,0.249205,0.040830,-0.009345,-0.009715,-0.087665,0.049075,-0.005885,1.000000,0.000204,-0.000047,-0.000049,0.104596,0.673939,-0.266259,-0.681155,95.688527,59.588783,-97.917977
53064,-8.603752,4.751303,-0.354677,-0.083609,0.260484,0.018405,0.042090,-0.010970,-0.019092,-0.086033,0.047522,-0.003541,1.000000,0.000210,-0.000055,-0.000095,0.104410,0.673918,-0.266371,-0.681160,95.696867,59.594908,-97.934626
53065,-8.577266,4.797649,-0.244161,-0.203564,0.231517,0.013375,0.019643,-0.007408,-0.031516,-0.085765,0.047990,-0.002440,1.000000,0.000098,-0.000037,-0.000158,0.104263,0.673911,-0.266367,-0.681191,95.696344,59.607555,-97.946861
53066,-8.650360,4.633819,-0.280204,-0.128737,0.394787,-0.004166,0.039973,-0.004202,-0.037698,-0.086495,0.046355,-0.002795,1.000000,0.000200,-0.000021,-0.000188,0.104032,0.673938,-0.266403,-0.681186,95.711793,59.623942,-97.953420
53067,-8.705717,4.636600,-0.170135,-0.234953,0.441871,0.039523,0.088234,-0.013403,-0.047563,-0.087046,0.046387,-0.001687,1.000000,0.000441,-0.000067,-0.000238,0.103591,0.673968,-0.266582,-0.681154,95.746301,59.646084,-97.970598
53068,-8.607451,4.779114,-0.149645,-0.295766,0.274765,0.025379,0.106898,-0.032535,-0.047449,-0.086063,0.047812,-0.001485,1.000000,0.000534,-0.000163,-0.000237,0.103062,0.673944,-0.266829,-0.681160,95.773281,59.669726,-98.008518
53069,-8.484182,4.989666,-0.045788,-0.452978,0.057213,0.019491,0.076924,-0.045425,-0.039803,-0.084832,0.049914,-0.000458,1.000000,0.000385,-0.000227,-0.000199,0.102642,0.673848,-0.267012,-0.681247,95.769333,59.689296,-98.062731
53070,-8.222249,5.154604,-0.146549,-0.408015,-0.237657,-0.118677,-0.000641,-0.045676,-0.037194,-0.082213,0.051561,-0.001484,1.000000,-0.000003,-0.000228,-0.000186,0.102491,0.673710,-0.266935,-0.681437,95.720710,59.707852,-98.117107
53071,-8.182033,5.219363,-0.370044,-0.202984,-0.365676,-0.109624,-0.082542,-0.017453,-0.030945,-0.081812,0.052205,-0.003729,1.000000,-0.000413,-0.000087,-0.000155,0.102676,0.673615,-0.266590,-0.681638,95.651727,59.720744,-98.140807
53072,-8.200791,5.173301,-0.554750,-0.005437,-0.362687,-0.107422,-0.146159,0.005663,-0.035821,-0.081999,0.051744,-0.005583,1.000000,-0.000731,0.000028,-0.000179,0.103095,0.673579,-0.265989,-0.681845,95.569764,59.735577,-98.135973
53073,-8.223109,5.022583,-0.724032,0.200745,-0.266280,-0.155624,-0.172503,0.023544,-0.033381,-0.082224,0.050233,-0.007274,1.000000,-0.000863,0.000118,-0.000167,0.103630,0.673580,-0.265307,-0.682029,95.489461,59.747562,-98.113098
53074,-8.282689,4.878222,-0.742351,0.260680,-0.122229,-0.175874,-0.181314,0.030943,-0.031926,-0.082820,0.048789,-0.007455,1.000000,-0.000907,0.000155,-0.000160,0.104209,0.673603,-0.264590,-0.682196,95.411515,59.758812,-98.081115
53075,-8.287389,4.616601,-0.740285,0.320951,0.098146,-0.303261,-0.168947,0.035974,-0.023507,-0.082870,0.046169,-0.007427,1.000000,-0.000845,0.000180,-0.000118,0.104782,0.673634,-0.263947,-0.682326,95.344466,59.764527,-98.045262
53076,-8.391653,4.519210,-0.727754,0.340979,0.234016,-0.262729,-0.127702,0.039827,-0.010677,-0.083916,0.045192,-0.007290,1.000000,-0.000639,0.000199,-0.000053,0.105243,0.673677,-0.263503,-0.682385,95.303776,59.763063,-98.009478
53077,-8.465734,4.392823,-0.760820,0.406857,0.370543,-0.260643,-0.056432,0.035438,-0.002378,-0.084658,0.043927,-0.007606,1.000000,-0.000282,0.000177,-0.000012,0.105508,0.673737,-0.263315,-0.682357,95.298735,59.756776,-97.976470
53078,-8.552920,4.419084,-0.757827,0.403378,0.393935,-0.172296,0.033602,0.021046,0.000395,-0.085530,0.044192,-0.007562,1.000000,0.000168,0.000105,0.000002,0.105460,0.673795,-0.263446,-0.682257,95.331315,59.750135,-97.959228
53079,-8.586595,4.513398,-0.655907,0.282704,0.355323,-0.100612,0.126456,0.001333,0.002018,-0.085866,0.045137,-0.006530,1.000000,0.000632,0.000007,0.000010,0.105079,0.673830,-0.263915,-0.682100,95.397274,59.743149,-97.965329
53080,-8.548617,4.737319,-0.582009,0.154538,0.166413,-0.024521,0.178697,-0.009971,0.002281,-0.085486,0.047377,-0.005782,1.000000,0.000893,-0.000050,0.000011,0.104493,0.673849,-0.264579,-0.681914,95.482336,59.737003,-97.986056
53081,-8.446176,4.880278,-0.506497,0.036074,0.013956,-0.044881,0.203677,-0.020311,0.001131,-0.084462,0.048807,-0.005024,0.999999,0.001018,-0.000102,0.000006,0.103820,0.673850,-0.265319,-0.681728,95.571439,59.731726,-98.016588
53082,-8.414994,5.033595,-0.418192,-0.092531,-0.108356,0.000762,0.192504,-0.020169,0.004896,-0.084151,0.050338,-0.004142,1.000000,0.000963,-0.000101,0.000024,0.103191,0.673841,-0.266034,-0.681553,95.654363,59.724712,-98.047496
53083,-8.353131,5.126252,-0.433571,-0.108644,-0.217892,-0.005447,0.159039,-0.014764,0.004848,-0.083532,0.051264,-0.004301,1.000000,0.000795,-0.000074,0.000024,0.102688,0.673832,-0.266631,-0.681405,95.722935,59.717044,-98.072191
53084,-8.356704,5.175965,-0.407036,-0.150218,-0.249869,0.021223,0.104831,-0.006245,-0.000796,-0.083567,0.051762,-0.004046,1.000000,0.000524,-0.000031,-0.000004,0.102353,0.673832,-0.267023,-0.681302,95.769827,59.712464,-98.086901
53085,-8.369632,5.157442,-0.420953,-0.134517,-0.229818,0.023788,0.040771,0.002670,-0.003372,-0.083696,0.051577,-0.004198,1.000000,0.000204,0.000013,-0.000017,0.102244,0.673833,-0.267181,-0.681256,95.788452,59.708496,-98.090968
53086,-8.340252,5.127019,-0.464434,-0.087957,-0.228467,-0.014632,-0.022841,0.010298,-0.009401,-0.083400,0.051274,-0.004646,1.000000,-0.000114,0.000051,-0.000047,0.102333,0.673835,-0.267098,-0.681274,95.778915,59.707976,-98.086017
53087,-8.389726,5.051237,-0.444385,-0.085164,-0.136334,-0.010946,-0.082925,0.016518,-0.016678,-0.083893,0.050518,-0.004458,1.000000,-0.000415,0.000083,-0.000083,0.102613,0.673837,-0.266782,-0.681353,95.741493,59.710796,-98.072914
53088,-8.412269,4.964382,-0.493925,-0.012265,-0.064401,-0.032553,-0.131967,0.027471,-0.010953,-0.084121,0.049645,-0.004960,1.000000,-0.000660,0.000137,-0.000055,0.103081,0.673840,-0.266320,-0.681460,95.686132,59.710191,-98.049650
53089,-8.431990,4.859139,-0.513565,0.036325,0.028258,-0.067364,-0.146422,0.026037,-0.017973,-0.084316,0.048595,-0.005160,1.000000,-0.000732,0.000130,-0.000090,0.103584,0.673843,-0.265778,-0.681592,95.621738,59.713225,-98.025649
53090,-8.450769,4.722597,-0.594816,0.151501,0.132987,-0.115699,-0.141847,0.027971,-0.011762,-0.084506,0.047227,-0.005970,1.000000,-0.000709,0.000140,-0.000059,0.104083,0.673844,-0.265279,-0.681709,95.561619,59.712963,-98.001326
53091,-8.496763,4.612998,-0.574864,0.163286,0.251832,-0.132031,-0.109746,0.022382,-0.010978,-0.084966,0.046131,-0.005764,1.000000,-0.000549,0.000112,-0.000055,0.104481,0.673844,-0.264887,-0.681801,95.513998,59.712234,-97.982237
53092,-8.463984,4.548988,-0.617187,0.218767,0.279870,-0.190471,-0.057116,0.016044,-0.003522,-0.084640,0.045490,-0.006178,1.000000,-0.000286,0.000080,-0.000018,0.104728,0.673846,-0.264690,-0.681837,95.490227,59.708078,-97.968599
53093,-8.457959,4.496005,-0.590062,0.204201,0.328104,-0.223633,0.001292,0.010097,0.000817,-0.084580,0.044960,-0.005896,1.000000,0.000006,0.000050,0.000004,0.104776,0.673846,-0.264723,-0.681817,95.493123,59.701304,-97.964684
53094,-8.519693,4.558123,-0.566354,0.171027,0.313304,-0.140304,0.062848,-0.000186,0.001567,-0.085197,0.045582,-0.005649,1.000000,0.000314,-0.000001,0.000008,0.104596,0.673842,-0.264979,-0.681750,95.521588,59.695020,-97.973303
53095,-8.471267,4.648509,-0.556969,0.136479,0.216856,-0.137174,0.100995,-0.007907,0.002021,-0.084713,0.046487,-0.005550,1.000000,0.000505,-0.000040,0.000010,0.104288,0.673831,-0.265366,-0.681658,95.563918,59.688554,-97.989880
53096,-8.466238,4.781934,-0.455017,0.004420,0.126897,-0.079497,0.123154,-0.010894,0.006861,-0.084664,0.047819,-0.004525,1.000000,0.000616,-0.000054,0.000034,0.103909,0.673814,-0.265850,-0.681544,95.615903,59.679889,-98.011189
53097,-8.449695,4.905188,-0.464310,-0.018257,0.015371,-0.031418,0.114798,-0.012497,0.004289,-0.084498,0.049053,-0.004620,1.000000,0.000574,-0.000062,0.000021,0.103556,0.673791,-0.266294,-0.681447,95.661441,59.672403,-98.033215
53098,-8.440470,4.973150,-0.425511,-0.074729,-0.035730,-0.007181,0.094061,-0.012965,0.003875,-0.084405,0.049732,-0.004237,1.000000,0.000470,-0.000065,0.000019,0.103266,0.673757,-0.266667,-0.681378,95.695247,59.665530,-98.055676
53099,-8.402026,5.027153,-0.397442,-0.118689,-0.092346,-0.014644,0.058934,-0.007319,0.000840,-0.084020,0.050272,-0.003963,1.000000,0.000295,-0.000037,0.000004,0.103097,0.673727,-0.266905,-0.681340,95.714153,59.659728,-98.071477
53100,-8.376052,5.047237,-0.409037,-0.114448,-0.123812,-0.026384,0.017838,-0.001742,-0.002840,-0.083760,0.050474,-0.004087,1.000000,0.000089,-0.000009,-0.000014,0.103048,0.673698,-0.266996,-0.681341,95.715404,59.656152,-98.082095
53101,-8.415603,5.024211,-0.378656,-0.135519,-0.077542,-0.005339,-0.022429,0.005495,-0.007633,-0.084154,0.050245,-0.003790,1.000000,-0.000112,0.000027,-0.000038,0.103141,0.673681,-0.266922,-0.681373,95.701000,59.654450,-98.082477
53102,-8.412243,4.973637,-0.409785,-0.092477,-0.043987,-0.032077,-0.055350,0.009411,-0.007320,-0.084121,0.049738,-0.004108,1.000000,-0.000277,0.000047,-0.000037,0.103347,0.673661,-0.266733,-0.681435,95.671769,59.652826,-98.078322
53103,-8.464210,4.916810,-0.418111,-0.065317,0.027503,-0.015358,-0.082583,0.015927,-0.009147,-0.084640,0.049170,-0.004195,1.000000,-0.000413,0.000080,-0.000046,0.103652,0.673651,-0.266444,-0.681512,95.633206,59.651398,-98.066760
53104,-8.416082,4.851708,-0.420207,-0.049106,0.056946,-0.089497,-0.089012,0.015125,-0.011152,-0.084158,0.048520,-0.004217,1.000000,-0.000445,0.000076,-0.000056,0.103973,0.673641,-0.266118,-0.681600,95.590760,59.651653,-98.054494
53105,-8.454401,4.781392,-0.479099,0.029746,0.121366,-0.088875,-0.084370,0.012843,-0.010732,-0.084542,0.047816,-0.004806,1.000000,-0.000422,0.000064,-0.000054,0.104273,0.673621,-0.265819,-0.681690,95.548324,59.651310,-98.046234
53106,-8.467647,4.762805,-0.486845,0.045429,0.141319,-0.086417,-0.071497,0.012405,-0.011548,-0.084674,0.047631,-0.004880,1.000000,-0.000357,0.000062,-0.000058,0.104524,0.673609,-0.265559,-0.681766,95.513045,59.651985,-98.038270
53107,-8.464374,4.712188,-0.517477,0.088488,0.174930,-0.113219,-0.046822,0.006676,-0.010611,-0.084641,0.047125,-0.005183,1.000000,-0.000234,0.000033,-0.000053,0.104690,0.673587,-0.265391,-0.681827,95.486105,59.651916,-98.036984
53108,-8.452089,4.729456,-0.505893,0.074315,0.156573,-0.115706,-0.021938,0.004182,-0.011109,-0.084518,0.047299,-0.005062,1.000000,-0.000110,0.000021,-0.000056,0.104761,0.673571,-0.265310,-0.681864,95.471367,59.652671,-98.038923
53109,-8.436512,4.712345,-0.497230,0.069142,0.164966,-0.138176,0.003925,0.003079,-0.008924,-0.084363,0.047127,-0.004970,1.000000,0.000020,0.000015,-0.000045,0.104757,0.673561,-0.265324,-0.681869,95.469841,59.651837,-98.041878
53110,-8.455610,4.746721,-0.535455,0.100165,0.137613,-0.102567,0.022048,0.000828,-0.004163,-0.084555,0.047470,-0.005349,1.000000,0.000110,0.000004,-0.000021,0.104705,0.673550,-0.265411,-0.681854,95.476565,59.648826,-98.047077
53111,-8.390995,4.804962,-0.546451,0.092940,0.054743,-0.128503,0.042923,-0.000972,-0.004763,-0.083909,0.048053,-0.005455,1.000000,0.000215,-0.000005,-0.000024,0.104579,0.673541,-0.265574,-0.681818,95.493050,59.645841,-98.055056
53112,-8.421024,4.833929,-0.505996,0.047958,0.055124,-0.089971,0.044251,0.001375,-0.004538,-0.084209,0.048342,-0.005049,1.000000,0.000221,0.000007,-0.000023,0.104444,0.673540,-0.265744,-0.681773,95.512952,59.642967,-98.061077
53113,-8.392441,4.835070,-0.489079,0.027855,0.044347,-0.114882,0.032228,0.003446,-0.004848,-0.083923,0.048354,-0.004882,1.000000,0.000161,0.000017,-0.000024,0.104360,0.673541,-0.265867,-0.681737,95.527616,59.639790,-98.064064
53114,-8.405936,4.832131,-0.470669,0.010230,0.058264,-0.105614,0.030996,0.006577,-0.005509,-0.084058,0.048324,-0.004696,1.000000,0.000155,0.000033,-0.000028,0.104278,0.673554,-0.265980,-0.681693,95.544895,59.637321,-98.063307
53115,-8.409405,4.865916,-0.470939,0.002053,0.032462,-0.085614,0.024795,0.011003,-0.004149,-0.084093,0.048661,-0.004699,1.000000,0.000124,0.000055,-0.000021,0.104231,0.673576,-0.266076,-0.681641,95.562588,59.633328,-98.057848
53116,-8.468200,4.893325,-0.449172,-0.022034,0.044514,-0.022165,0.013511,0.009251,-0.005138,-0.084681,0.048936,-0.004484,1.000000,0.000068,0.000046,-0.000026,0.104217,0.673591,-0.266126,-0.681609,95.572717,59.630407,-98.053211
53117,-8.452983,4.892107,-0.411034,-0.060514,0.046866,-0.037784,0.001951,0.010028,-0.008910,-0.084528,0.048925,-0.004106,1.000000,0.000010,0.000050,-0.000045,0.104229,0.673604,-0.266128,-0.681593,95.576821,59.629182,-98.048332
53118,-8.401935,4.947673,-0.400942,-0.086186,-0.022941,-0.054369,-0.016921,0.016106,-0.012995,-0.084016,0.049482,-0.004007,1.000000,-0.000085,0.000081,-0.000065,0.104298,0.673636,-0.266047,-0.681583,95.576953,59.630335,-98.035419
53119,-8.431277,4.944954,-0.420143,-0.064500,-0.010399,-0.029474,-0.029781,0.016521,-0.012193,-0.084310,0.049454,-0.004202,1.000000,-0.000149,0.000083,-0.000061,0.104415,0.673659,-0.265927,-0.681589,95.569507,59.630621,-98.022855
53120,-8.443409,4.894787,-0.491835,0.017779,0.021638,-0.040726,-0.028887,0.012422,-0.009081,-0.084432,0.048951,-0.004920,1.000000,-0.000144,0.000062,-0.000045,0.104529,0.673665,-0.265822,-0.681606,95.558572,59.629816,-98.015305
53121,-8.424424,4.843620,-0.484671,0.021544,0.056680,-0.083206,-0.020466,0.006250,-0.007099,-0.084243,0.048439,-0.004849,1.000000,-0.000102,0.000031,-0.000035,0.104618,0.673651,-0.265757,-0.681632,95.545985,59.627769,-98.014884
53122,-8.395456,4.829130,-0.495968,0.034685,0.051871,-0.114941,-0.026198,0.009377,-0.009205,-0.083953,0.048295,-0.004962,1.000000,-0.000131,0.000047,-0.000046,0.104709,0.673644,-0.265674,-0.681657,95.533724,59.627047,-98.012546
53123,-8.437374,4.808680,-0.525084,0.071304,0.083577,-0.087651,-0.023422,0.011817,-0.009762,-0.084372,0.048090,-0.005251,1.000000,-0.000117,0.000059,-0.000049,0.104806,0.673651,-0.265587,-0.681670,95.525113,59.626211,-98.005554
53124,-8.411757,4.828379,-0.535000,0.075495,0.052084,-0.099360,-0.015404,0.010437,-0.009553,-0.084116,0.048287,-0.005349,1.000000,-0.000077,0.000052,-0.000048,0.104865,0.673656,-0.265533,-0.681677,95.520000,59.625729,-98.001148
53125,-8.367210,4.813312,-0.507990,0.049383,0.048777,-0.146694,0.002590,0.010456,-0.003769,-0.083671,0.048135,-0.005075,1.000000,0.000013,0.000052,-0.000019,0.104894,0.673664,-0.265555,-0.681656,95.524404,59.621551,-97.996345
53126,-8.393335,4.792593,-0.499294,0.046686,0.081886,-0.135010,0.005854,0.013593,-0.002983,-0.083933,0.047927,-0.004986,1.000000,0.000029,0.000068,-0.000015,0.104913,0.673684,-0.265589,-0.681620,95.534032,59.617166,-97.988029
53127,-8.405453,4.758850,-0.541772,0.095695,0.107944,-0.139477,0.005783,0.010099,0.002254,-0.084055,0.047588,-0.005412,1.000000,0.000029,0.000050,0.000011,0.104951,0.673685,-0.265642,-0.681593,95.539347,59.609573,-97.984290
53128,-8.402043,4.864152,-0.557540,0.087960,0.015649,-0.088636,0.006383,0.006543,-0.002221,-0.084020,0.048643,-0.005571,1.000000,0.000032,0.000033,-0.000011,0.104964,0.673681,-0.265682,-0.681579,95.542322,59.605173,-97.983728
53129,-8.363210,4.902628,-0.557974,0.077240,-0.034949,-0.102734,0.002265,0.011481,0.003488,-0.083633,0.049025,-0.005574,1.000000,0.000011,0.000057,0.000017,0.105019,0.673683,-0.265727,-0.681551,95.546845,59.596799,-97.978570
53130,-8.348084,4.917927,-0.489104,0.005412,-0.038716,-0.111440,0.002972,0.015397,0.003385,-0.083482,0.049178,-0.004884,1.000000,0.000015,0.000077,0.000017,0.105075,0.673700,-0.265768,-0.681510,95.555775,59.588779,-97.968672
53131,-8.402505,5.035872,-0.511721,0.006281,-0.113575,-0.003966,-0.024287,0.010641,0.006184,-0.084027,0.050355,-0.005119,1.000000,-0.000121,0.000053,0.000031,0.105228,0.673681,-0.265732,-0.681519,95.544010,59.578913,-97.964759
53132,-8.310771,5.100213,-0.560145,0.035648,-0.222834,-0.048266,-0.067102,0.007339,0.005086,-0.083109,0.050998,-0.005616,1.000000,-0.000336,0.000037,0.000025,0.105524,0.673636,-0.265537,-0.681593,95.505253,59.570275,-97.962296
53133,-8.321584,5.095637,-0.477136,-0.039578,-0.194200,-0.045259,-0.087382,0.015282,0.006563,-0.083218,0.050952,-0.004787,1.000000,-0.000437,0.000076,0.000033,0.105897,0.673599,-0.265284,-0.681670,95.461825,59.559942,-97.953179
53134,-8.349361,5.079315,-0.523445,0.015381,-0.175665,-0.027282,-0.129182,0.032303,0.004051,-0.083495,0.050788,-0.005254,1.000000,-0.000646,0.000162,0.000020,0.106416,0.673601,-0.264876,-0.681747,95.411624,59.550458,-97.925310
53135,-8.366421,5.084533,-0.618249,0.113104,-0.190850,-0.005421,-0.149025,0.035406,0.007271,-0.083667,0.050838,-0.006206,1.000000,-0.000745,0.000177,0.000036,0.107025,0.673598,-0.264405,-0.681836,95.352359,59.538647,-97.893590
53136,-8.337273,4.947914,-0.582176,0.110285,-0.082033,-0.101250,-0.155407,0.034552,0.005221,-0.083375,0.049472,-0.005846,1.000000,-0.000777,0.000173,0.000026,0.107657,0.673598,-0.263892,-0.681935,95.289347,59.528534,-97.860187
53137,-8.402783,4.921366,-0.507063,0.052571,-0.009384,-0.061746,-0.167646,0.048779,0.007481,-0.084031,0.049206,-0.005091,1.000000,-0.000838,0.000244,0.000037,0.108347,0.673630,-0.263351,-0.682004,95.232377,59.515935,-97.813417
53138,-8.452865,4.851303,-0.545824,0.113072,0.068091,-0.052228,-0.172830,0.062214,0.012087,-0.084533,0.048503,-0.005474,1.000000,-0.000864,0.000311,0.000060,0.109077,0.673697,-0.262806,-0.682032,95.185225,59.500425,-97.753288
53139,-8.531396,4.780115,-0.605164,0.194541,0.157331,-0.017901,-0.147699,0.064912,0.015010,-0.085320,0.047790,-0.006059,1.000000,-0.000738,0.000325,0.000075,0.109748,0.673783,-0.262349,-0.682015,95.154632,59.482735,-97.689153
53140,-8.565495,4.988824,-0.630364,0.180976,-0.003069,0.118107,-0.107461,0.059336,0.009899,-0.085659,0.049881,-0.006305,1.000000,-0.000537,0.000297,0.000049,0.110259,0.673884,-0.262008,-0.681964,95.142645,59.468685,-97.629540
53141,-8.446246,5.241504,-0.577348,0.072176,-0.261677,0.140809,-0.102638,0.039346,0.008058,-0.084466,0.052409,-0.005784,1.000000,-0.000513,0.000197,0.000040,0.110720,0.673917,-0.261695,-0.681977,95.113700,59.456296,-97.593447
53142,-8.459349,5.576981,-0.393336,-0.170975,-0.496418,0.313632,-0.122844,0.047195,0.009491,-0.084597,0.055763,-0.003948,1.000000,-0.000614,0.000236,0.000047,0.111269,0.673969,-0.261304,-0.681987,95.081210,59.443135,-97.546850
53143,-8.543639,5.880334,-0.345256,-0.266275,-0.697076,0.537891,-0.224044,0.050407,0.010787,-0.085440,0.058795,-0.003497,0.999999,-0.001120,0.000252,0.000054,0.112163,0.673967,-0.260580,-0.682118,94.993163,59.428660,-97.498602
53144,-8.434375,5.915141,-0.403759,-0.209676,-0.792836,0.464376,-0.348541,0.050432,0.011936,-0.084348,0.059139,-0.004119,0.999998,-0.001743,0.000252,0.000060,0.113481,0.673897,-0.259430,-0.682408,94.834508,59.413848,-97.449212
53145,-8.282211,5.686111,-0.346872,-0.211873,-0.665561,0.215239,-0.445544,0.072139,0.020193,-0.082829,0.056845,-0.003565,0.999997,-0.002228,0.000361,0.000101,0.115180,0.673829,-0.257968,-0.682745,94.639859,59.393103,-97.377356
53146,-8.358897,5.308421,-0.433747,-0.029166,-0.325045,0.093477,-0.528417,0.101948,0.034727,-0.083600,0.053058,-0.004435,0.999996,-0.002642,0.000510,0.000174,0.117243,0.673793,-0.256253,-0.683075,94.425893,59.363162,-97.273117
53147,-8.459786,5.037893,-0.553351,0.166116,-0.065797,0.047464,-0.589418,0.116020,0.046225,-0.084613,0.050343,-0.005633,0.999995,-0.002947,0.000580,0.000231,0.119571,0.673748,-0.254358,-0.683424,94.189334,59.325930,-97.154110
53148,-8.504315,4.669757,-0.475996,0.179254,0.286207,-0.104830,-0.565219,0.112089,0.053786,-0.085058,0.046661,-0.004844,0.999996,-0.002826,0.000560,0.000269,0.121823,0.673685,-0.252584,-0.683746,93.963021,59.284916,-97.041595
53149,-8.513648,4.396705,-0.276224,0.047745,0.562717,-0.243436,-0.478452,0.094289,0.059874,-0.085151,0.043935,-0.002827,0.999997,-0.002392,0.000471,0.000299,0.123795,0.673605,-0.251124,-0.684009,93.768411,59.241190,-96.947651
53150,-8.413452,4.274956,-0.277040,0.078801,0.620243,-0.392112,-0.453521,0.049506,0.075600,-0.084151,0.042711,-0.002846,0.999997,-0.002268,0.000248,0.000378,0.125691,0.673372,-0.249813,-0.684372,93.545347,59.190571,-96.901356
53151,-8.278666,3.821341,-0.073218,-0.040402,0.975685,-0.746778,-0.334489,0.016851,0.075371,-0.082801,0.038181,-0.000789,0.999999,-0.001672,0.000084,0.000377,0.127132,0.673091,-0.248943,-0.684700,93.358350,59.141001,-96.894514
53152,-8.259132,3.950833,-0.061957,-0.063149,0.864364,-0.698135,-0.191130,0.017086,0.069247,-0.082605,0.039479,-0.000650,0.999999,-0.000956,0.000085,0.000346,0.128073,0.672913,-0.248538,-0.684846,93.255259,59.095169,-96.885130
53153,-8.243091,4.342349,-0.547633,0.358635,0.450245,-0.497479,-0.126890,0.024099,0.053386,-0.082443,0.043398,-0.005494,1.000000,-0.000634,0.000120,0.000267,0.128749,0.672814,-0.248300,-0.684903,93.195617,59.057957,-96.868479
53154,-8.117241,4.847900,-0.555959,0.281611,-0.035543,-0.345890,0.008469,0.021426,0.059871,-0.081188,0.048455,-0.005549,1.000000,0.000042,0.000107,0.000299,0.128986,0.672788,-0.248548,-0.684794,93.211434,59.017396,-96.854611
53155,-8.091309,5.420015,-0.298100,-0.065769,-0.479647,-0.081279,0.053387,0.019972,0.090089,-0.080938,0.054164,-0.002958,1.000000,0.000267,0.000100,0.000450,0.129177,0.672745,-0.249053,-0.684617,93.249130,58.959321,-96.844890
53156,-8.003486,5.800126,-0.122630,-0.304749,-0.803608,0.034831,0.001380,0.015696,0.128404,-0.080072,0.057950,-0.001220,1.000000,0.000007,0.000078,0.000642,0.129663,0.672608,-0.249516,-0.684491,93.252119,58.879476,-96.841852
53157,-7.990549,6.064018,-0.194857,-0.272063,-1.029798,0.163516,-0.088514,0.025345,0.154211,-0.079952,0.060578,-0.001965,1.000000,-0.000443,0.000127,0.000771,0.130557,0.672411,-0.249747,-0.684430,93.210118,58.784546,-96.830238
53158,-7.974217,5.994556,-0.229600,-0.220283,-0.969725,0.116393,-0.145498,0.040545,0.159844,-0.079791,0.059880,-0.002323,0.999999,-0.000727,0.000203,0.000799,0.131691,0.672230,-0.249778,-0.684380,93.150596,58.686239,-96.799079
53159,-8.109491,5.719933,-0.253170,-0.137716,-0.656389,0.091642,-0.173352,0.068866,0.168363,-0.081144,0.057129,-0.002553,0.999999,-0.000867,0.000344,0.000842,0.132972,0.672107,-0.249737,-0.684267,93.100317,58.581864,-96.740208
53160,-8.236010,5.483931,-0.444248,0.102795,-0.406058,0.083132,-0.225733,0.091692,0.176215,-0.082410,0.054762,-0.004467,0.999999,-0.001129,0.000458,0.000881,0.134475,0.672016,-0.249537,-0.684137,93.041731,58.472390,-96.657503
53161,-8.406338,5.301312,-0.358611,0.064328,-0.131532,0.131033,-0.210828,0.087504,0.188782,-0.084115,0.052930,-0.003605,0.999999,-0.001054,0.000438,0.000944,0.135974,0.671903,-0.249423,-0.683992,92.986222,58.355830,-96.579426
53162,-8.360382,5.417835,-0.282603,-0.022036,-0.220691,0.151226,-0.207080,0.061641,0.211159,-0.083662,0.054087,-0.002856,0.999999,-0.001035,0.000308,0.001056,0.137509,0.671681,-0.249407,-0.683909,92.908588,58.227531,-96.529040
53163,-8.260535,5.590208,-0.188851,-0.134826,-0.380486,0.155237,-0.204368,0.044341,0.232658,-0.082671,0.055804,-0.001927,0.999999,-0.001022,0.000222,0.001163,0.139083,0.671367,-0.249491,-0.683868,92.814825,58.087208,-96.500137
53164,-8.178479,5.654165,-0.066392,-0.257640,-0.434200,0.117396,-0.193217,0.033980,0.256631,-0.081857,0.056436,-0.000705,0.999999,-0.000966,0.000170,0.001283,0.140684,0.670996,-0.249701,-0.683829,92.717708,57.933702,-96.483178
53165,-8.292713,5.694651,-0.144024,-0.166900,-0.393652,0.238979,-0.198486,0.034122,0.271867,-0.083005,0.056832,-0.001483,0.999999,-0.000992,0.000171,0.001359,0.142359,0.670599,-0.249943,-0.683783,92.616812,57.771263,-96.466582
53166,-8.314011,5.621348,-0.357228,0.069388,-0.325893,0.224187,-0.208558,0.021538,0.281190,-0.083219,0.056093,-0.003622,0.999998,-0.001043,0.000108,0.001406,0.144079,0.670139,-0.250191,-0.683783,92.499406,57.604001,-96.463246
53167,-8.338993,5.635500,-0.288735,0.015127,-0.285379,0.252067,-0.154278,0.010335,0.295319,-0.083473,0.056230,-0.002926,0.999999,-0.000771,0.000052,0.001477,0.145655,0.669659,-0.250677,-0.683741,92.402333,57.428755,-96.472084
53168,-8.272887,5.980672,-0.428681,0.118306,-0.598175,0.386379,-0.219391,-0.007220,0.313029,-0.082822,0.059672,-0.004355,0.999998,-0.001097,-0.000036,0.001565,0.147485,0.669050,-0.251011,-0.683823,92.252753,57.244048,-96.499083
53169,-8.130597,5.678829,0.153794,-0.406648,-0.307557,0.092831,-0.222698,-0.020561,0.335693,-0.081401,0.056653,0.001466,0.999998,-0.001113,-0.000103,0.001678,0.149388,0.668359,-0.251419,-0.683936,92.089162,57.046336,-96.540476
53170,-8.309663,5.504295,0.414544,-0.612036,0.003444,0.144465,-0.242376,0.015391,0.345083,-0.083191,0.054904,0.004085,0.999998,-0.001212,0.000077,0.001725,0.151429,0.667762,-0.251766,-0.683943,91.947126,56.842672,-96.543484
53171,-8.467679,5.580918,-0.377845,0.191128,-0.053207,0.333815,-0.359446,0.060925,0.343664,-0.084774,0.055657,-0.003853,0.999997,-0.001797,0.000305,0.001718,0.153917,0.667229,-0.251670,-0.683942,91.778262,56.638760,-96.497675
53172,-8.473687,5.544482,-0.635170,0.470142,-0.019261,0.322723,-0.317726,0.065330,0.367171,-0.084841,0.055279,-0.006412,0.999997,-0.001589,0.000327,0.001836,0.156348,0.666711,-0.251790,-0.683852,91.637457,56.421621,-96.447082
53173,-8.268627,5.901186,-0.377560,0.177218,-0.351678,0.345142,-0.274560,0.042667,0.401201,-0.082805,0.058841,-0.003839,0.999997,-0.001373,0.000213,0.002006,0.158725,0.666102,-0.252187,-0.683752,91.501128,56.185172,-96.420393
53174,-7.938885,6.089139,-0.120854,-0.097672,-0.613011,0.173934,-0.348295,0.020484,0.438784,-0.079522,0.060715,-0.001306,0.999996,-0.001741,0.000102,0.002194,0.161443,0.665307,-0.252472,-0.683784,91.304078,55.927819,-96.416193
53175,-7.857812,5.868917,0.221450,-0.392260,-0.389959,-0.018183,-0.357411,0.054383,0.467593,-0.078714,0.058509,0.002131,0.999996,-0.001787,0.000272,0.002338,0.164335,0.664577,-0.252793,-0.683687,91.130672,55.653292,-96.376774
53176,-8.167841,5.823272,-0.438161,0.308622,-0.217268,0.220928,-0.417262,0.117491,0.467454,-0.081817,0.058032,-0.004455,0.999995,-0.002086,0.000587,0.002337,0.167501,0.664008,-0.252855,-0.683448,90.976765,55.378495,-96.272273
53177,-8.330026,5.584851,-0.912284,0.833634,0.058614,0.222927,-0.350427,0.115636,0.460703,-0.083434,0.055640,-0.009172,0.999996,-0.001752,0.000578,0.002304,0.170421,0.663491,-0.253121,-0.683130,90.859427,55.107472,-96.169221
53178,-8.282418,5.356728,-0.212491,0.171871,0.348534,0.045657,-0.156917,0.075954,0.463552,-0.082949,0.053373,-0.002135,0.999997,-0.000785,0.000380,0.002318,0.172654,0.662995,-0.254090,-0.682691,90.820537,54.835485,-96.105729
53179,-8.159060,5.418305,-0.013858,-0.029655,0.297678,-0.022957,-0.154464,0.045607,0.470232,-0.081718,0.053991,-0.000162,0.999997,-0.000772,0.000228,0.002351,0.174864,0.662383,-0.255114,-0.682340,90.757877,54.559688,-96.072566
53180,-7.963985,5.457155,-0.098446,0.051122,0.190027,-0.159896,-0.182032,0.017484,0.479718,-0.079771,0.054379,-0.001027,0.999997,-0.000910,0.000087,0.002399,0.177159,0.661637,-0.256098,-0.682103,90.657432,54.278947,-96.066635
53181,-8.018492,5.161748,0.123456,-0.126735,0.532370,-0.291373,-0.035482,0.018868,0.498713,-0.080313,0.051418,0.001233,0.999997,-0.000177,0.000094,0.002494,0.179037,0.660995,-0.257642,-0.681654,90.641871,53.987054,-96.059241
53182,-8.036739,5.644865,-0.228924,0.182482,0.163949,0.007990,0.017600,0.030172,0.505273,-0.080510,0.056246,-0.002272,0.999997,0.000088,0.000151,0.002526,0.180772,0.660427,-0.259377,-0.681088,90.665778,53.691600,-96.040922
53183,-7.950971,6.256502,-0.609791,0.502398,-0.367775,0.303918,-0.033712,0.000804,0.517490,-0.079671,0.062358,-0.006108,0.999997,-0.000169,0.000004,0.002587,0.182683,0.659691,-0.261002,-0.680671,90.636918,53.389067,-96.051268
53184,-7.720855,6.512161,0.418282,-0.549130,-0.536645,0.267244,0.033107,-0.052525,0.538026,-0.077384,0.064913,0.004173,0.999996,0.000166,-0.000263,0.002690,0.184368,0.658805,-0.262969,-0.680317,90.605940,53.075366,-96.112415
53185,-7.611281,6.892731,0.592138,-0.751953,-0.829151,0.411733,-0.118549,-0.034428,0.549361,-0.076303,0.068721,0.005867,0.999996,-0.000593,-0.000172,0.002747,0.186617,0.657819,-0.264439,-0.680089,90.502401,52.754758,-96.155528
53186,-7.661936,6.661360,0.046751,-0.162486,-0.623800,0.319703,-0.335310,0.020652,0.544587,-0.076800,0.066405,0.000364,0.999995,-0.001677,0.000103,0.002723,0.189631,0.656819,-0.265102,-0.679963,90.317733,52.436845,-96.144911
53187,-7.920965,6.091022,0.091180,-0.113180,0.039918,0.179104,-0.338318,0.056542,0.532516,-0.079371,0.060700,0.000831,0.999995,-0.001692,0.000283,0.002663,0.192663,0.655946,-0.265679,-0.679728,90.158784,52.125534,-96.099254
53188,-8.080923,6.313712,-0.395996,0.387312,-0.037899,0.442524,-0.428316,0.070858,0.511802,-0.080972,0.062921,-0.004066,0.999994,-0.002142,0.000354,0.002559,0.195933,0.655057,-0.265865,-0.679578,89.959935,51.826412,-96.038896
53189,-7.802697,6.124023,-0.197704,0.218676,0.010135,0.105812,-0.515978,0.034344,0.492977,-0.078178,0.061042,-0.002121,0.999994,-0.002580,0.000172,0.002465,0.199378,0.653974,-0.265723,-0.679675,89.685099,51.537926,-96.010829
53190,-7.704017,5.413909,1.005325,-0.903217,0.667418,-0.409945,-0.376583,0.068390,0.477686,-0.077166,0.053974,0.009978,0.999995,-0.001883,0.000342,0.002388,0.202356,0.653159,-0.265969,-0.679482,89.515985,51.258646,-95.949876
53191,-8.038551,5.875843,-0.332592,0.437104,0.430563,0.131045,-0.494098,0.159543,0.458221,-0.080523,0.058566,-0.003407,0.999994,-0.002470,0.000798,0.002291,0.205773,0.652553,-0.265657,-0.679160,89.344430,50.990913,-95.805030
53192,-8.312693,6.061224,-0.729374,0.857707,0.470421,0.454449,-0.402254,0.116270,0.467487,-0.083273,0.060403,-0.007367,0.999995,-0.002011,0.000581,0.002337,0.208859,0.651876,-0.265728,-0.678840,89.195266,50.718061,-95.698919
53193,-8.010524,6.548888,0.079119,0.023521,0.025340,0.534354,-0.257327,0.002829,0.487831,-0.080265,0.065294,0.000708,0.999996,-0.001287,0.000014,0.002439,0.211392,0.650931,-0.266474,-0.678671,89.050042,50.432481,-95.694471
53194,-7.369903,6.378401,0.361066,-0.263644,-0.177229,-0.064421,-0.295897,-0.038525,0.494710,-0.073857,0.063607,0.003502,0.999996,-0.001479,-0.000193,0.002474,0.214014,0.649792,-0.267153,-0.678674,88.855585,50.142795,-95.725604
53195,-7.326787,6.127282,0.311255,-0.179794,0.030029,-0.258168,-0.289781,0.042950,0.503730,-0.073421,0.061092,0.003040,0.999996,-0.001449,0.000215,0.002519,0.216757,0.648917,-0.267792,-0.678389,88.721295,49.848615,-95.682568
53196,-7.726093,5.797930,-0.420506,0.609540,0.525502,-0.177469,-0.304125,0.092910,0.499637,-0.077407,0.057780,-0.004257,0.999996,-0.001521,0.000465,0.002498,0.219595,0.648196,-0.268313,-0.677959,88.613170,49.557759,-95.594588
53197,-7.860194,5.755604,-0.056656,0.269090,0.721712,-0.100871,-0.155249,0.063047,0.488022,-0.078742,0.057364,-0.000586,0.999997,-0.000776,0.000315,0.002440,0.221872,0.647547,-0.269331,-0.677434,88.569652,49.272956,-95.533155
53198,-7.535437,6.350537,-0.109737,0.284219,0.104375,0.037810,-0.191437,0.025663,0.479908,-0.075507,0.063323,-0.001148,0.999997,-0.000957,0.000128,0.002400,0.224183,0.646739,-0.270240,-0.677082,88.480746,48.992566,-95.504403
53199,-7.054688,6.542892,0.169429,-0.017118,-0.285341,-0.193704,-0.208073,0.002566,0.508093,-0.070713,0.065251,0.001627,0.999996,-0.001040,0.000013,0.002540,0.226614,0.645790,-0.271208,-0.676792,88.367714,48.695433,-95.494565
53200,-7.214907,6.658485,0.538354,-0.365941,-0.190655,0.011246,-0.152315,0.056809,0.503550,-0.072315,0.066407,0.005353,0.999997,-0.000762,0.000284,0.002518,0.228919,0.645091,-0.272287,-0.676250,88.322422,48.402075,-95.437275
53201,-7.507650,6.495929,-0.126559,0.334274,0.123642,0.109546,-0.276511,0.108123,0.465448,-0.075228,0.064783,-0.001315,0.999996,-0.001383,0.000541,0.002327,0.231566,0.644468,-0.272762,-0.675751,88.237815,48.131198,-95.336713
53202,-7.692896,6.060942,-0.071188,0.321484,0.619157,-0.043662,-0.287141,0.082016,0.438311,-0.077062,0.060440,-0.000767,0.999996,-0.001436,0.000410,0.002192,0.234115,0.643778,-0.273141,-0.675376,88.130091,47.875763,-95.258996
53203,-7.517630,5.901830,0.176851,0.082617,0.678494,-0.277997,-0.200347,0.029936,0.422919,-0.075301,0.058861,0.001721,0.999997,-0.001002,0.000150,0.002115,0.236264,0.643030,-0.273824,-0.675065,88.038607,47.627972,-95.225860
53204,-7.369765,6.154623,0.095708,0.158073,0.427840,-0.221348,-0.154739,0.019870,0.424824,-0.073828,0.061390,0.000917,0.999997,-0.000774,0.000099,0.002124,0.238254,0.642297,-0.274676,-0.674717,87.967491,47.379201,-95.200775
53205,-7.385420,6.331256,0.185510,0.074408,0.355207,-0.089941,-0.107005,0.002381,0.417062,-0.073986,0.063159,0.001822,0.999998,-0.000535,0.000012,0.002085,0.240042,0.641567,-0.275685,-0.674366,87.912538,47.134252,-95.190455
53206,-7.294363,6.445710,0.254698,0.006240,0.253014,-0.078438,-0.124943,0.011399,0.379019,-0.073065,0.064320,0.002511,0.999998,-0.000625,0.000057,0.001895,0.241768,0.640897,-0.276499,-0.674053,87.852501,46.911574,-95.173373
53207,-7.155652,6.480891,0.166708,0.095559,0.162778,-0.158809,-0.172648,0.024962,0.346987,-0.071669,0.064686,0.001620,0.999998,-0.000863,0.000125,0.001735,0.243560,0.640256,-0.277031,-0.673799,87.772540,46.707257,-95.145693
53208,-7.190574,6.379114,0.054444,0.225281,0.286048,-0.207078,-0.235832,0.051173,0.320893,-0.072008,0.063676,0.000488,0.999998,-0.001179,0.000256,0.001604,0.245498,0.639661,-0.277235,-0.673577,87.672139,46.518799,-95.096615
53209,-7.202679,6.134507,0.002461,0.296796,0.498920,-0.369506,-0.224784,0.051133,0.306701,-0.072121,0.061235,-0.000026,0.999998,-0.001124,0.000256,0.001534,0.247355,0.639095,-0.277429,-0.673355,87.577486,46.338229,-95.047808
53210,-7.188939,5.780033,0.015467,0.301145,0.774786,-0.625804,-0.183351,0.052103,0.286642,-0.071972,0.057697,0.000120,0.999999,-0.000917,0.000261,0.001433,0.249010,0.638611,-0.277696,-0.673094,87.507013,46.169516,-94.998644
53211,-7.174318,5.568057,0.017032,0.309425,0.943330,-0.785576,-0.113117,0.051884,0.260286,-0.071816,0.055587,0.000157,0.999999,-0.000566,0.000259,0.001301,0.250354,0.638246,-0.278115,-0.672768,87.475602,46.015612,-94.950589
53212,-7.212458,5.732795,0.030250,0.298362,0.875229,-0.645882,-0.048473,0.042622,0.237123,-0.072192,0.057242,0.000304,0.999999,-0.000242,0.000213,0.001186,0.251396,0.637964,-0.278689,-0.672409,87.475337,45.875066,-94.911026
53213,-7.116690,5.946025,0.058842,0.261261,0.678981,-0.567329,-0.009539,0.025379,0.215866,-0.071231,0.059383,0.000595,0.999999,-0.000048,0.000127,0.001079,0.252222,0.637700,-0.279347,-0.672077,87.486204,45.745926,-94.886544
53214,-6.990731,6.288743,0.191045,0.116037,0.372272,-0.415718,0.009270,0.013005,0.180139,-0.069964,0.062824,0.001918,1.000000,0.000046,0.000065,0.000901,0.252847,0.637469,-0.279969,-0.671802,87.499904,45.637267,-94.873546
53215,-6.904469,6.232067,0.208219,0.095486,0.370075,-0.517117,-0.041729,0.034785,0.151544,-0.069092,0.062269,0.002081,1.000000,-0.000209,0.000174,0.000758,0.253573,0.637285,-0.280302,-0.671565,87.496008,45.545176,-94.843821
53216,-6.918624,5.974103,0.215865,0.094262,0.578217,-0.687961,-0.066105,0.057549,0.127645,-0.069224,0.059698,0.002159,1.000000,-0.000331,0.000288,0.000638,0.254324,0.637181,-0.280447,-0.671319,87.491076,45.467689,-94.796366
53217,-6.910875,6.077551,0.044545,0.265065,0.501480,-0.626989,-0.102568,0.066316,0.105920,-0.069141,0.060739,0.000437,1.000000,-0.000513,0.000332,0.000530,0.255133,0.637088,-0.280389,-0.671124,87.469393,45.402514,-94.742599
53218,-6.822217,5.991753,0.375338,-0.067710,0.526732,-0.740610,-0.060188,0.066272,0.080592,-0.068245,0.059891,0.003758,1.000000,-0.000301,0.000331,0.000403,0.255719,0.637086,-0.280393,-0.670901,87.471588,45.352207,-94.689799
53219,-6.917135,5.883486,0.157182,0.155735,0.666301,-0.756272,-0.060462,0.100599,0.056537,-0.069187,0.058816,0.001589,1.000000,-0.000302,0.000503,0.000283,0.256277,0.637231,-0.280275,-0.670600,87.492489,45.316162,-94.609984
53220,-7.036416,5.821210,0.048787,0.267189,0.794019,-0.718835,-0.005988,0.100109,0.034421,-0.070374,0.058200,0.000521,1.000000,-0.000030,0.000501,0.000172,0.256583,0.637476,-0.280270,-0.670252,87.544019,45.293107,-94.531409
53221,-6.970006,5.891639,0.162957,0.141323,0.706492,-0.713245,0.048651,0.090120,0.016332,-0.069704,0.058910,0.001675,1.000000,0.000243,0.000451,0.000082,0.256643,0.637782,-0.280403,-0.669883,87.620239,45.279725,-94.461659
53222,-6.977634,6.150323,0.274986,0.016124,0.535484,-0.522776,0.095021,0.093173,0.000726,-0.069775,0.061502,0.002812,1.000000,0.000475,0.000466,0.000004,0.256504,0.638180,-0.280638,-0.669458,87.724731,45.275668,-94.389975
53223,-7.009494,6.531862,0.259712,0.015811,0.286970,-0.232340,0.101341,0.077510,-0.010683,-0.070090,0.065321,0.002657,1.000000,0.000507,0.000388,-0.000053,0.256288,0.638548,-0.280877,-0.669089,87.823181,45.277308,-94.331415
53224,-6.944971,6.726212,0.513125,-0.254719,0.115628,-0.134899,0.100608,0.059351,-0.026901,-0.069439,0.067269,0.005186,1.000000,0.000503,0.000297,-0.000135,0.255990,0.638879,-0.281086,-0.668800,87.910715,45.288185,-94.288112
53225,-6.953022,6.905139,0.646873,-0.401504,-0.000902,-0.000313,0.097090,0.066141,-0.039186,-0.069515,0.069062,0.006525,1.000000,0.000485,0.000331,-0.000196,0.255676,0.639243,-0.281234,-0.668509,87.999597,45.305783,-94.239606
53226,-6.984437,7.099702,0.579772,-0.345375,-0.123067,0.156757,0.049981,0.056503,-0.042689,-0.069828,0.071010,0.005835,1.000000,0.000250,0.000283,-0.000213,0.255484,0.639522,-0.281226,-0.668320,88.056213,45.325559,-94.199006
53227,-6.985807,7.233849,0.748881,-0.522666,-0.211703,0.255723,0.036101,0.040324,-0.033927,-0.069844,0.072349,0.007516,1.000000,0.000181,0.000202,-0.000170,0.255346,0.639714,-0.281221,-0.668191,88.095378,45.339577,-94.171302
53228,-6.858750,7.419850,0.563263,-0.347506,-0.444502,0.291547,-0.057726,0.001293,-0.029241,-0.068577,0.074210,0.005612,1.000000,-0.000289,0.000006,-0.000146,0.255465,0.639651,-0.280966,-0.668312,88.058576,45.350559,-94.175279
53229,-6.750511,7.630733,0.808515,-0.596390,-0.661325,0.368577,-0.104040,0.033730,-0.033040,-0.067491,0.076323,0.008057,1.000000,-0.000520,0.000169,-0.000165,0.255770,0.639641,-0.280504,-0.668400,88.013647,45.363953,-94.152926
53230,-6.840502,7.873453,0.442296,-0.219118,-0.793146,0.594149,-0.271704,0.079205,-0.047947,-0.068384,0.078757,0.004343,0.999999,-0.001359,0.000396,-0.000240,0.256620,0.639591,-0.279374,-0.668596,87.899017,45.387215,-94.093974
53231,-7.005561,7.479243,0.090703,0.162847,-0.418349,0.425654,-0.321719,0.095884,-0.054968,-0.070035,0.074813,0.000820,0.999999,-0.001609,0.000479,-0.000275,0.257633,0.639538,-0.278033,-0.668815,87.764949,45.414568,-94.021666
53232,-6.965846,7.256386,-0.044212,0.316744,-0.298646,0.236719,-0.327298,0.062295,-0.058262,-0.069637,0.072583,-0.000539,0.999999,-0.001636,0.000311,-0.000291,0.258602,0.639371,-0.276706,-0.669152,87.608366,45.443522,-93.976935
53233,-6.903339,6.992562,-0.168495,0.458403,-0.164382,0.002771,-0.304665,0.062755,-0.058536,-0.069013,0.069943,-0.001770,0.999999,-0.001523,0.000314,-0.000293,0.259501,0.639231,-0.275452,-0.669454,87.464669,45.472363,-93.931918
53234,-6.986614,6.724405,-0.131916,0.441656,0.081930,-0.125272,-0.205441,0.033965,-0.052398,-0.069849,0.067261,-0.001376,0.999999,-0.001027,0.000170,-0.000262,0.260060,0.639116,-0.274586,-0.669703,87.361505,45.497371,-93.910236
53235,-6.866995,6.892173,-0.154005,0.468224,-0.127448,-0.094359,-0.195675,0.062315,-0.072516,-0.068645,0.068945,-0.001586,0.999999,-0.000978,0.000312,-0.000363,0.260563,0.639133,-0.273652,-0.669873,87.279571,45.534319,-93.866222
53236,-6.993804,6.780918,-0.506895,0.836968,0.021035,-0.094143,-0.230367,0.070025,-0.114187,-0.069901,0.067843,-0.005123,0.999999,-0.001152,0.000350,-0.000571,0.261043,0.639189,-0.272458,-0.670120,87.181408,45.595734,-93.817575
53237,-7.069124,6.588976,-0.518153,0.860216,0.199860,-0.175485,-0.146687,0.044889,-0.140007,-0.070646,0.065935,-0.005214,0.999999,-0.000733,0.000224,-0.000700,0.261139,0.639303,-0.271494,-0.670365,87.115397,45.670900,-93.790640
53238,-6.948628,6.205978,-0.252325,0.592408,0.386089,-0.519613,-0.052159,0.015882,-0.140197,-0.069443,0.062108,-0.002534,1.000000,-0.000261,0.000079,-0.000701,0.260888,0.639444,-0.270884,-0.670575,87.086874,45.745709,-93.787491
53239,-6.910313,5.559373,-0.382943,0.719250,0.807580,-1.001548,0.036263,-0.003203,-0.138142,-0.069065,0.055642,-0.003820,1.000000,0.000181,-0.000016,-0.000691,0.260339,0.639632,-0.270602,-0.670723,87.097484,45.818429,-93.799972
53240,-6.855204,5.302193,-0.162461,0.488211,0.950134,-1.210807,0.280195,-0.019588,-0.119586,-0.068520,0.053065,-0.001557,0.999999,0.001401,-0.000098,-0.000598,0.259046,0.640059,-0.271218,-0.670567,87.239201,45.880452,-93.824985
53241,-6.931113,5.525562,-0.137886,0.447499,0.835664,-0.998351,0.537328,-0.045416,-0.077083,-0.069290,0.055286,-0.001246,0.999996,0.002687,-0.000227,-0.000385,0.257041,0.640669,-0.272865,-0.670088,87.513958,45.917159,-93.869391
53242,-6.888313,5.939697,0.210412,0.060225,0.519497,-0.729766,0.851685,-0.085370,-0.012599,-0.068880,0.059392,0.002328,0.999991,0.004258,-0.000427,-0.000063,0.254182,0.641455,-0.275819,-0.669217,87.947332,45.916631,-93.944211
53243,-6.980325,6.600871,0.524116,-0.310945,0.131118,-0.197236,1.106688,-0.137709,0.074985,-0.069832,0.065952,0.005558,0.999984,0.005533,-0.000689,0.000375,0.250724,0.642251,-0.279967,-0.668034,88.497144,45.865064,-94.059881
53244,-7.019966,7.484591,0.658502,-0.535082,-0.446487,0.446280,1.230951,-0.175629,0.156560,-0.070264,0.074749,0.006984,0.999980,0.006155,-0.000878,0.000783,0.247074,0.642942,-0.284830,-0.666672,89.096889,45.767528,-94.205852
53245,-7.091275,8.205062,0.934373,-0.914987,-0.861025,0.999480,1.237140,-0.182214,0.222347,-0.071013,0.081912,0.009786,0.999980,0.006186,-0.000911,0.001112,0.243608,0.643497,-0.289922,-0.665216,89.695713,45.632926,-94.357849
53246,-7.177893,8.933850,0.963438,-1.058668,-1.275285,1.567830,1.075643,-0.150368,0.261021,-0.071903,0.089191,0.010060,0.999984,0.005378,-0.000752,0.001305,0.240823,0.643884,-0.294551,-0.663820,90.220192,45.477613,-94.485224
53247,-7.261230,9.311673,0.898214,-1.083416,-1.444698,1.891075,0.793293,-0.102189,0.290178,-0.072752,0.092975,0.009314,0.999991,0.003966,-0.000511,0.001451,0.239114,0.644031,-0.298273,-0.662633,90.609662,45.305723,-94.574885
53248,-7.246453,9.533693,0.761195,-1.008781,-1.579650,2.039259,0.377746,-0.025652,0.307401,-0.072612,0.095211,0.007783,0.999997,0.001889,-0.000128,0.001537,0.238907,0.643902,-0.300577,-0.661791,90.804924,45.124098,-94.603419
53249,-7.610511,9.291380,0.079121,-0.305568,-1.174135,2.136530,0.045301,-0.032317,0.302898,-0.076246,0.092798,0.000800,0.999999,0.000227,-0.000162,0.001514,0.239748,0.643356,-0.301774,-0.661473,90.805421,44.944791,-94.637674
53250,-7.511737,8.705172,-0.024796,-0.151108,-0.806000,1.656149,-0.226122,-0.058043,0.297471,-0.075247,0.086939,-0.000368,0.999998,-0.001131,-0.000290,0.001487,0.241402,0.642407,-0.302086,-0.661651,90.636483,44.769056,-94.692164
53251,-7.418789,8.638186,0.237373,-0.377982,-0.770244,1.544102,-0.389082,-0.072871,0.282768,-0.074311,0.086281,0.002179,0.999997,-0.001945,-0.000364,0.001414,0.243510,0.641231,-0.301828,-0.662137,90.366451,44.601360,-94.757412
53252,-7.282776,8.460531,0.294836,-0.381188,-0.711495,1.325288,-0.595575,-0.079213,0.249633,-0.072934,0.084523,0.002668,0.999995,-0.002978,-0.000396,0.001248,0.246155,0.639828,-0.300785,-0.662991,89.976074,44.452686,-94.826115
53253,-7.279585,8.134770,0.032927,-0.040502,-0.484826,1.092856,-0.605790,-0.146694,0.258037,-0.072901,0.081254,0.000030,0.999994,-0.003029,-0.000733,0.001290,0.248760,0.638167,-0.299814,-0.664057,89.543055,44.298396,-94.947233
53254,-6.950175,7.964430,0.532146,-0.482226,-0.536035,0.746664,-0.643014,-0.256642,0.297289,-0.069627,0.079557,0.004976,0.999993,-0.003215,-0.001283,0.001486,0.251444,0.636029,-0.298979,-0.665473,89.029710,44.120398,-95.153684
53255,-6.705888,7.379928,0.496153,-0.366572,-0.282229,0.160477,-0.594393,-0.286195,0.298583,-0.067176,0.073713,0.004646,0.999993,-0.002972,-0.001431,0.001493,0.253932,0.633842,-0.298342,-0.666899,88.530028,43.939722,-95.380862
53256,-7.059706,6.648971,0.417086,-0.169745,0.497418,-0.120134,-0.589301,-0.324418,0.315908,-0.070708,0.066390,0.003861,0.999993,-0.002947,-0.001622,0.001580,0.256398,0.631501,-0.297821,-0.668408,88.015347,43.747289,-95.635016
53257,-6.689958,5.237240,0.688976,-0.362293,1.251683,-1.388870,-0.408031,-0.399582,0.295621,-0.066990,0.052287,0.006649,0.999995,-0.002040,-0.001998,0.001478,0.258112,0.629162,-0.297935,-0.669902,87.565495,43.563010,-95.946243
53258,-6.676801,5.057322,0.731865,-0.363156,1.392975,-1.529002,0.008412,-0.345214,0.291952,-0.066854,0.050475,0.007205,0.999997,0.000042,-0.001726,0.001460,0.258580,0.627544,-0.299360,-0.670603,87.386230,43.381257,-96.212375
53259,-7.564666,4.623109,1.383819,-0.902776,2.405636,-1.215590,-0.007860,-0.368508,0.210478,-0.075721,0.046152,0.013697,0.999998,-0.000039,-0.001843,0.001052,0.258792,0.625945,-0.300503,-0.671504,87.184343,43.244572,-96.498333
53260,-7.939412,2.724141,0.129041,0.464669,3.887739,-2.386966,-0.309736,-0.316202,-0.002664,-0.079396,0.027244,0.001123,0.999998,-0.001549,-0.001581,-0.000013,0.259307,0.624449,-0.299896,-0.672968,86.832980,43.230739,-96.750750
53261,-7.635117,3.051562,-0.528310,1.111124,3.382226,-2.382205,0.090921,-0.282521,-0.168073,-0.076318,0.030582,-0.005377,0.999999,0.000455,-0.001413,-0.000840,0.258068,0.623830,-0.300076,-0.673938,86.723955,43.311539,-96.984023
53262,-6.635895,4.241124,-1.389892,1.860376,1.754263,-2.235382,0.276026,-0.260244,-0.221187,-0.066294,0.042504,-0.013927,0.999998,0.001380,-0.001301,-0.001106,0.256100,0.623604,-0.300684,-0.674626,86.730983,43.423731,-97.202730
53263,-5.510846,5.163242,-0.114809,0.456931,0.401383,-2.284623,0.443950,-0.184377,-0.201713,-0.055055,0.051690,-0.001084,0.999997,0.002220,-0.000922,-0.001009,0.253792,0.623814,-0.301820,-0.674797,86.875331,43.526985,-97.360854
53264,-5.537482,5.661205,0.603555,-0.284511,0.130908,-1.876748,0.221625,-0.044400,-0.155973,-0.055332,0.056648,0.006086,0.999999,0.001108,-0.000222,-0.000780,0.252537,0.624144,-0.302170,-0.674805,86.969906,43.609076,-97.406548
53265,-6.049478,5.586128,0.980763,-0.616699,0.576999,-1.563466,0.022603,0.044658,-0.098501,-0.060465,0.055890,0.009827,1.000000,0.000113,0.000223,-0.000493,0.252235,0.624435,-0.301915,-0.674763,87.000455,43.660541,-97.379274
53266,-6.151751,6.029455,0.133295,0.216881,0.260947,-1.204494,-0.028397,0.056392,-0.044206,-0.061504,0.060308,0.001342,1.000000,-0.000142,0.000282,-0.000221,0.252289,0.624620,-0.301642,-0.674694,87.010010,43.681754,-97.340543
53267,-6.135524,6.349330,0.615791,-0.289273,0.073540,-0.966858,0.394377,-0.000755,-0.003650,-0.061354,0.063482,0.006283,0.999998,0.001972,-0.000004,-0.000018,0.251078,0.625082,-0.302995,-0.674111,87.231506,43.677588,-97.345239
53268,-6.482221,6.641809,0.936763,-0.615189,0.157189,-0.506394,0.571609,-0.115677,0.002284,-0.064828,0.066390,0.009520,0.999996,0.002858,-0.000578,0.000011,0.249152,0.625368,-0.305105,-0.673609,87.492107,43.667482,-97.440796
53269,-6.780737,6.177410,1.194458,-0.849372,0.728456,-0.630456,0.635375,-0.185095,0.037401,-0.067830,0.061723,0.012078,0.999995,0.003177,-0.000925,0.000187,0.247042,0.625438,-0.307623,-0.673176,87.751911,43.635464,-97.590039
53270,-6.745519,6.018639,0.362612,-0.043802,0.738437,-0.795469,0.706272,-0.198312,0.073916,-0.067481,0.060148,0.003772,0.999993,0.003531,-0.000992,0.000370,0.244804,0.625489,-0.310507,-0.672622,88.046052,43.583263,-97.748924
53271,-6.710835,6.313718,0.096127,0.165075,0.494853,-0.612944,0.943330,-0.223897,0.086360,-0.067137,0.063103,0.001184,0.999988,0.004717,-0.001119,0.000432,0.241828,0.625711,-0.314253,-0.671751,88.462010,43.523723,-97.927884
53272,-7.134681,6.924390,0.049715,0.165588,0.387927,0.120852,1.002318,-0.255046,0.035450,-0.071360,0.069228,0.000753,0.999987,0.005012,-0.001275,0.000177,0.238436,0.625966,-0.318066,-0.670931,88.894149,43.494390,-98.133000
53273,-6.894863,7.705242,0.509907,-0.421316,-0.251304,0.527965,0.741565,-0.236389,-0.049132,-0.068936,0.077050,0.005303,0.999992,0.003708,-0.001182,-0.000246,0.235606,0.626093,-0.320712,-0.670553,89.185926,43.514135,-98.324582
53274,-6.257533,8.032090,0.613142,-0.652554,-0.918867,0.325208,0.408796,-0.087085,-0.132328,-0.062525,0.080350,0.006268,0.999998,0.002044,-0.000435,-0.000662,0.233771,0.626456,-0.321802,-0.670334,89.367826,43.583694,-98.399167
53275,-5.754708,8.477082,-0.247631,0.089734,-1.713218,0.291555,-0.006165,0.084891,-0.165268,-0.057478,0.084818,-0.002455,1.000000,-0.000031,0.000424,-0.000826,0.233406,0.626961,-0.321197,-0.670279,89.405509,43.672786,-98.337662
53276,-5.955806,8.266185,-0.117436,0.000340,-1.422382,0.276516,-0.212193,0.181444,-0.163305,-0.059492,0.082709,-0.001208,0.999999,-0.001061,0.000907,-0.000817,0.233844,0.627546,-0.319793,-0.670250,89.378364,43.761798,-98.199642
53277,-6.425735,8.897016,0.455808,-0.574601,-1.456188,1.059481,-0.069092,0.152843,-0.126933,-0.064197,0.089012,0.004576,0.999999,-0.000345,0.000764,-0.000635,0.233913,0.628142,-0.319017,-0.670037,89.417809,43.829327,-98.083685
53278,-6.951117,7.929366,1.009677,-0.982802,-0.353619,0.728724,-0.236631,0.105115,-0.069064,-0.069478,0.079330,0.010039,0.999999,-0.001183,0.000526,-0.000345,0.234622,0.628291,-0.317917,-0.670174,89.335631,43.863856,-98.005199
53279,-7.206129,6.394638,0.555332,-0.369961,0.820342,-0.204449,-0.040434,0.020526,0.014903,-0.072065,0.063942,0.005548,1.000000,-0.000202,0.000103,0.000075,0.234865,0.628250,-0.317836,-0.670164,89.319662,43.849338,-97.993046
53280,-6.987760,7.138489,-0.514726,0.606847,0.017360,0.171460,-0.009416,0.034540,0.059381,-0.069900,0.071364,-0.005139,1.000000,-0.000047,0.000173,0.000297,0.235178,0.628224,-0.317983,-0.670010,89.329600,43.809856,-97.969491
53281,-6.273894,7.389569,-0.566673,0.568943,-0.665987,-0.142043,-0.128510,0.064968,0.042072,-0.062756,0.073879,-0.005694,1.000000,-0.000643,0.000325,0.000210,0.235859,0.628185,-0.317641,-0.669969,89.287746,43.780084,-97.921810
53282,-5.905427,8.602930,-0.632965,0.503975,-1.766929,0.478527,-0.162311,0.139072,0.028018,-0.059071,0.086016,-0.006358,0.999999,-0.000812,0.000695,0.000140,0.236713,0.628378,-0.317053,-0.669765,89.267254,43.759331,-97.815593
53283,-6.148331,11.097231,-0.004674,-0.277177,-3.223775,2.454377,-0.398775,0.159909,0.035405,-0.061503,0.110961,-0.000219,0.999998,-0.001994,0.000800,0.000177,0.238371,0.628346,-0.315671,-0.669860,89.122563,43.734211,-97.692651
53284,-6.158999,9.625991,0.583322,-0.696983,-2.131875,1.407930,-0.750281,0.180248,0.095381,-0.061631,0.096252,0.005528,0.999992,-0.003751,0.000901,0.000477,0.241360,0.627864,-0.313273,-0.670367,88.788370,43.675665,-97.552732
53285,-6.943541,6.919794,-0.256414,0.447633,0.200073,-0.018732,-0.633404,0.201086,0.163625,-0.069495,0.069133,-0.002713,0.999994,-0.003167,0.001005,0.000818,0.244244,0.627476,-0.311452,-0.670534,88.533230,43.578480,-97.394760
53286,-7.994802,5.211630,-0.939105,1.350575,2.068659,-0.546813,-0.283704,0.157168,0.152033,-0.079995,0.052042,-0.009402,0.999998,-0.001419,0.000786,0.000760,0.245919,0.627382,-0.310818,-0.670304,88.454488,43.487928,-97.271632
53287,-7.879407,4.519285,-1.364114,1.803634,2.429128,-1.139970,0.040226,0.071675,0.111570,-0.078824,0.045152,-0.013604,1.000000,0.000201,0.000358,0.000558,0.246312,0.627460,-0.311248,-0.669887,88.513962,43.418950,-97.216893
53288,-7.212553,7.519053,-0.943512,1.128992,-0.049519,0.587801,0.246472,0.071604,0.080972,-0.072159,0.075173,-0.009317,0.999999,0.001232,0.000358,0.000405,0.245951,0.627841,-0.312271,-0.669187,88.691183,43.367799,-97.163103
53289,-6.364830,10.527279,0.206558,-0.293529,-2.584296,2.212809,-0.017494,0.120402,0.044176,-0.063670,0.105259,0.002095,1.000000,-0.000087,0.000602,0.000221,0.246375,0.628116,-0.312236,-0.668789,88.742723,43.337889,-97.071645
53290,-5.987204,10.027740,0.554752,-0.626229,-2.476862,1.597080,-0.506135,0.243977,0.003971,-0.059867,0.100290,0.005367,0.999996,-0.002531,0.001220,0.000020,0.248388,0.628263,-0.310287,-0.668813,88.580816,43.333076,-96.883613
53291,-6.724426,8.246014,-0.886525,1.013372,-0.876503,0.780011,-0.782367,0.343523,-0.035522,-0.067245,0.082437,-0.009072,0.999991,-0.003912,0.001718,-0.000178,0.251291,0.628452,-0.307163,-0.668993,88.313664,43.352590,-96.617962
53292,-7.622339,5.702540,-0.501854,0.858761,1.549501,-0.446128,-0.548330,0.278861,-0.064312,-0.076212,0.057036,-0.005069,0.999995,-0.002742,0.001394,-0.000322,0.253256,0.628756,-0.304808,-0.669044,88.145519,43.388485,-96.403916
53293,-7.633811,4.099375,0.152041,0.280184,2.711688,-1.586431,-0.093263,0.176498,-0.082151,-0.076320,0.041026,0.001569,0.999999,-0.000466,0.000882,-0.000411,0.253577,0.629315,-0.304047,-0.668742,88.182241,43.432591,-96.270949
53294,-7.195964,3.996888,-0.183790,0.568691,2.431805,-1.967073,0.396356,0.082998,-0.083366,-0.071944,0.040002,-0.001729,0.999998,0.001982,0.000415,-0.000417,0.252207,0.630185,-0.305037,-0.667990,88.449275,43.475922,-96.211522
53295,-6.863310,5.680113,-0.468133,0.713609,1.005294,-0.977086,0.704549,0.033543,-0.098571,-0.068606,0.056851,-0.004470,0.999994,0.003523,0.000168,-0.000493,0.249741,0.631295,-0.307069,-0.666937,88.865838,43.526681,-96.191028
53296,-5.852337,7.449923,0.108540,-0.078794,-0.891147,-0.380696,0.564320,0.006180,-0.135874,-0.058473,0.074536,0.001297,0.999996,0.002822,0.000031,-0.000679,0.247545,0.632190,-0.308546,-0.666226,89.187446,43.598851,-96.192213
53297,-5.639621,8.826294,0.280788,-0.381873,-1.982747,0.468872,0.146724,0.133668,-0.148215,-0.056329,0.088303,0.002910,0.999999,0.000734,0.000668,-0.000741,0.246827,0.633008,-0.308433,-0.665767,89.339328,43.678629,-96.092175
53298,-5.807873,8.634999,-0.215464,0.135104,-1.792482,0.439616,-0.371211,0.223089,-0.147501,-0.058017,0.086389,-0.002250,0.999997,-0.001856,0.001115,-0.000738,0.247884,0.633483,-0.306488,-0.665822,89.243983,43.758960,-95.921051
53299,-6.233135,7.376975,-0.197092,0.246157,-0.633253,-0.176875,-0.654958,0.271640,-0.152547,-0.062278,0.073810,-0.002128,0.999993,-0.003275,0.001358,-0.000763,0.249899,0.633768,-0.303519,-0.666157,89.012512,43.842593,-95.711540
53300,-6.627219,6.364186,-0.543170,0.698524,0.304823,-0.640064,-0.707111,0.319671,-0.171981,-0.066226,0.063679,-0.005551,0.999992,-0.003536,0.001598,-0.000860,0.252080,0.634169,-0.300250,-0.666434,88.777866,43.938835,-95.464269
53301,-7.227627,5.845108,-0.712375,0.951598,1.068617,-0.600530,-0.627577,0.271325,-0.175509,-0.072235,0.058492,-0.007209,0.999994,-0.003138,0.001357,-0.000878,0.253925,0.634505,-0.297292,-0.666741,88.561915,44.036823,-95.255711
53302,-7.312637,5.539206,-0.509917,0.779973,1.344757,-0.757262,-0.408969,0.182660,-0.159714,-0.073087,0.055440,-0.005146,0.999997,-0.002045,0.000913,-0.000799,0.254991,0.634795,-0.295223,-0.666977,88.422793,44.125241,-95.117561
53303,-6.754591,5.725930,-0.075578,0.313365,0.834014,-1.002313,-0.303875,0.126356,-0.148431,-0.067504,0.057308,-0.000800,0.999998,-0.001519,0.000632,-0.000742,0.255681,0.635010,-0.293610,-0.667220,88.312493,44.206146,-95.024227
53304,-6.456365,6.563665,0.414092,-0.214988,0.057820,-0.599206,-0.197881,0.160837,-0.127058,-0.064519,0.065682,0.004128,0.999999,-0.000989,0.000804,-0.000635,0.256151,0.635445,-0.292374,-0.667168,88.282950,44.275855,-94.902793
53305,-6.690229,8.537923,0.098354,0.062104,-1.186236,0.969424,-0.280041,0.189818,-0.126959,-0.066847,0.085423,0.000927,0.999998,-0.001400,0.000949,-0.000635,0.256929,0.635868,-0.290827,-0.667143,88.222324,44.345706,-94.758141
53306,-6.598407,9.087377,0.578772,-0.414239,-1.622781,1.307080,-0.537619,0.187300,-0.139459,-0.065915,0.090935,0.005605,0.999996,-0.002688,0.000937,-0.000697,0.258474,0.635967,-0.288382,-0.667512,88.012941,44.423270,-94.615826
53307,-6.295592,8.303593,0.430843,-0.225781,-1.318231,0.530466,-0.748652,0.242079,-0.162524,-0.062883,0.083103,0.004074,0.999992,-0.003743,0.001210,-0.000813,0.260694,0.636000,-0.285085,-0.668034,87.712540,44.515303,-94.430586
53308,-6.711950,7.490747,-0.194405,0.479486,-0.501191,0.223151,-0.877841,0.282096,-0.159642,-0.067063,0.074952,-0.002178,0.999989,-0.004389,0.001410,-0.000798,0.263382,0.635984,-0.281308,-0.668595,87.361011,44.607739,-94.213461
53309,-7.300598,5.963842,-0.017030,0.379094,0.983889,-0.444945,-0.762417,0.240062,-0.125433,-0.072969,0.059683,-0.000310,0.999992,-0.003812,0.001200,-0.000627,0.265757,0.635918,-0.278076,-0.669070,87.052349,44.679998,-94.029324
53310,-7.472944,5.478591,-0.073684,0.466339,1.437121,-0.670343,-0.469204,0.108191,-0.069976,-0.074711,0.054810,-0.000825,0.999997,-0.002346,0.000541,-0.000350,0.267196,0.635718,-0.276173,-0.669476,86.839004,44.717418,-93.949151
53311,-6.723386,6.262106,0.657947,-0.286040,0.373502,-0.613260,-0.041854,0.022099,0.008908,-0.067236,0.062619,0.006574,1.000000,-0.000209,0.000110,0.000045,0.267424,0.635687,-0.276066,-0.669458,86.823799,44.706776,-93.934943
53312,-6.442727,7.815145,0.714532,-0.345034,-0.913634,0.293845,-0.000030,0.029090,0.064611,-0.064451,0.078131,0.007155,1.000000,-0.000000,0.000145,0.000323,0.267711,0.635662,-0.276266,-0.669285,86.838629,44.664834,-93.912557
53313,-6.473953,8.709813,0.507359,-0.131108,-1.517693,0.944158,-0.025814,0.059637,0.104173,-0.064783,0.087065,0.005082,1.000000,-0.000129,0.000298,0.000521,0.268259,0.635647,-0.276465,-0.668998,86.856749,44.600871,-93.863977
53314,-6.473091,9.566187,0.640113,-0.250606,-2.105551,1.559490,-0.203167,0.094125,0.096002,-0.064774,0.095637,0.006334,0.999999,-0.001016,0.000471,0.000480,0.269387,0.635522,-0.275998,-0.668856,86.792761,44.543002,-93.787988
53315,-6.453975,9.176399,0.112062,0.300834,-1.852434,1.248528,-0.608119,0.209734,0.037717,-0.064556,0.091755,0.000909,0.999995,-0.003041,0.001049,0.000189,0.271768,0.635313,-0.273834,-0.668981,86.559606,44.522143,-93.621882
53316,-6.831239,7.837819,-0.555811,1.010464,-0.656320,0.529177,-0.909968,0.315196,-0.052213,-0.068301,0.078370,-0.005807,0.999988,-0.004550,0.001576,-0.000261,0.274944,0.635160,-0.270227,-0.669294,86.210163,44.557374,-93.375434
53317,-7.223949,5.812158,-1.281002,1.741461,1.037337,-0.674922,-0.954311,0.349473,-0.137877,-0.072222,0.058110,-0.012961,0.999987,-0.004772,0.001747,-0.000689,0.278017,0.635160,-0.266146,-0.669660,85.851054,44.643759,-93.106419
53318,-7.542095,3.984134,-1.512063,1.938159,2.547177,-1.762950,-0.638591,0.315607,-0.180119,-0.075409,0.039861,-0.015129,0.999993,-0.003193,0.001578,-0.000901,0.279892,0.635531,-0.263029,-0.669758,85.652583,44.754032,-92.867123
53319,-7.573385,2.843154,-1.249528,1.626218,3.366393,-2.530943,0.019947,0.154180,-0.151570,-0.075722,0.028490,-0.012434,0.999999,0.000100,0.000771,-0.000758,0.279559,0.636239,-0.262433,-0.669459,85.741106,44.840959,-92.755976
53320,-6.977136,3.102895,-0.142032,0.493879,2.747895,-2.703984,0.723520,-0.002033,-0.093446,-0.069757,0.031066,-0.001309,0.999993,0.003618,-0.000010,-0.000467,0.276971,0.637329,-0.264593,-0.668647,86.147287,44.888333,-92.766646
53321,-6.596812,3.504531,0.317260,0.007422,2.193169,-2.664948,1.147864,-0.084108,-0.018760,-0.065966,0.035033,0.003346,0.999983,0.005739,-0.000421,-0.000094,0.273170,0.638616,-0.268517,-0.667417,86.752395,44.889812,-92.839406
53322,-6.767945,5.235033,0.713739,-0.398257,1.104253,-1.307299,1.563152,-0.143677,0.060836,-0.067701,0.052272,0.007498,0.999969,0.007816,-0.000718,0.000304,0.268211,0.640137,-0.274150,-0.665679,87.564327,44.845093,-92.956885
53323,-6.576608,7.573468,1.366463,-1.134786,-0.644243,0.225863,1.624574,-0.162349,0.097532,-0.065814,0.075589,0.014226,0.999967,0.008123,-0.000812,0.000488,0.263139,0.641585,-0.280112,-0.663825,88.400586,44.779785,-93.089311
53324,-6.431932,9.492841,1.724608,-1.632785,-2.054724,1.481952,1.334173,-0.093860,0.089583,-0.064370,0.094782,0.017848,0.999978,0.006671,-0.000469,0.000448,0.259049,0.642855,-0.284979,-0.662131,89.109056,44.721565,-93.167618
53325,-6.541891,10.204785,1.645520,-1.668604,-2.453925,2.054707,0.854883,0.002740,0.045513,-0.065442,0.101961,0.016892,0.999991,0.004274,0.000014,0.000228,0.256487,0.643865,-0.287984,-0.660847,89.596424,44.689393,-93.169356
53326,-7.052646,9.938820,1.287979,-1.349351,-1.909203,2.216979,0.423597,0.075413,-0.006905,-0.070518,0.099363,0.013117,0.999998,0.002118,0.000377,-0.000035,0.255239,0.644631,-0.289298,-0.660008,89.877931,44.687799,-93.112927
53327,-7.419095,9.030181,1.073634,-1.123355,-1.019642,1.825104,0.166584,0.118988,-0.032484,-0.074170,0.090305,0.010856,0.999999,0.000833,0.000595,-0.000162,0.254801,0.645247,-0.289625,-0.659432,90.036463,44.700381,-93.021494
53328,-7.888085,7.844424,0.730569,-0.736223,0.128551,1.310803,0.098364,0.063575,0.002819,-0.078880,0.078440,0.007369,1.000000,0.000492,0.000318,0.000014,0.254615,0.645543,-0.289912,-0.659088,90.124862,44.692943,-92.974634
53329,-7.693789,7.093271,0.382587,-0.375650,0.503120,0.640112,0.100832,-0.009477,0.029395,-0.076949,0.070919,0.003858,1.000000,0.000504,-0.000047,0.000147,0.254407,0.645561,-0.290385,-0.658942,90.172851,44.670044,-92.986810
53330,-7.610905,6.917202,0.578997,-0.573565,0.584412,0.455627,0.107322,-0.009743,0.050925,-0.076127,0.069150,0.005823,1.000000,0.000537,-0.000049,0.000255,0.254244,0.645557,-0.290949,-0.658760,90.224698,44.635129,-92.999214
53331,-7.643396,7.028233,0.432032,-0.432631,0.527763,0.557390,0.033741,-0.029260,0.039256,-0.076448,0.070267,0.004321,1.000000,0.000169,-0.000146,0.000196,0.254256,0.645410,-0.291259,-0.658763,90.223028,44.606635,-93.027375
53332,-7.424434,7.399298,0.243717,-0.262235,0.104536,0.668321,-0.059784,-0.079670,0.002923,-0.074246,0.073993,0.002385,1.000000,-0.000299,-0.000398,0.000015,0.254373,0.645032,-0.291207,-0.659110,90.139707,44.599360,-93.095926
53333,-6.956367,7.962516,0.161936,-0.208327,-0.628171,0.741028,-0.106174,-0.087096,-0.020926,-0.069556,0.079633,0.001547,1.000000,-0.000531,-0.000435,-0.000105,0.254553,0.644604,-0.290934,-0.659580,90.025323,44.605347,-93.170452
53334,-6.860696,7.876681,-0.059081,0.036825,-0.651357,0.612716,-0.370122,-0.077505,-0.032621,-0.068594,0.078777,-0.000763,0.999998,-0.001851,-0.000388,-0.000163,0.255556,0.643889,-0.289740,-0.660415,89.765390,44.618189,-93.237271
53335,-6.848748,6.994736,0.074318,-0.030997,-0.037677,-0.023166,-0.300007,-0.185712,-0.024972,-0.068479,0.069957,0.000575,0.999998,-0.001500,-0.000929,-0.000125,0.256204,0.642891,-0.288940,-0.661486,89.484090,44.625700,-93.391291
53336,-6.386866,6.632647,0.091694,-0.021836,-0.112601,-0.605124,-0.334832,-0.180510,0.007161,-0.063872,0.066326,0.000748,0.999998,-0.001674,-0.000903,0.000036,0.257073,0.641819,-0.288121,-0.662547,89.186268,44.614590,-93.540822
53337,-6.608938,6.433783,0.046752,0.073978,0.185815,-0.591315,-0.333981,-0.212931,0.086536,-0.066118,0.064310,0.000290,0.999998,-0.001670,-0.001065,0.000433,0.258158,0.640522,-0.287599,-0.663606,88.871267,44.556816,-93.715221
53338,-6.321325,6.111545,0.110199,0.044077,0.220406,-1.022261,-0.365669,-0.267335,0.158497,-0.063263,0.061067,0.000906,0.999997,-0.001828,-0.001337,0.000792,0.259501,0.638898,-0.287271,-0.664788,88.509384,44.456686,-93.931231
53339,-6.226863,6.396986,0.145800,0.028831,-0.028463,-0.884373,-0.125421,-0.200132,0.227218,-0.062343,0.063900,0.001356,0.999999,-0.000627,-0.001001,0.001136,0.260403,0.637707,-0.287874,-0.665319,88.324691,44.317217,-94.090791
53340,-6.615479,6.566480,0.742657,-0.526263,0.183827,-0.478669,-0.100801,-0.281305,0.270766,-0.066254,0.065579,0.007300,0.999998,-0.000504,-0.001407,0.001354,0.261251,0.636214,-0.288801,-0.666013,88.110966,44.151280,-94.313013
53341,-6.920885,6.316730,0.726559,-0.464251,0.600402,-0.445109,0.066670,-0.353309,0.234475,-0.069296,0.063084,0.007164,0.999998,0.000333,-0.001767,0.001172,0.261343,0.634748,-0.290264,-0.666740,87.953648,44.003880,-94.592324
53342,-7.236213,6.466258,1.216099,-0.919553,0.771955,-0.106368,0.241042,-0.389322,0.155847,-0.072436,0.064592,0.012098,0.999997,0.001205,-0.001947,0.000779,0.260562,0.633502,-0.292103,-0.667427,87.876192,43.900662,-94.901528
53343,-7.378210,5.357699,0.893506,-0.544325,1.635057,-0.814270,-0.003493,-0.331427,0.008463,-0.073799,0.053574,0.008812,0.999999,-0.000017,-0.001657,0.000042,0.260151,0.632341,-0.292583,-0.668477,87.687784,43.882271,-95.168639
53344,-7.763896,4.423568,-0.227389,0.647497,2.484357,-1.250774,-0.219486,-0.266364,-0.145157,-0.077604,0.044289,-0.002426,0.999998,-0.001097,-0.001332,-0.000726,0.260000,0.631341,-0.291770,-0.669834,87.408001,43.952980,-95.389311
53345,-7.534790,4.214118,0.171589,0.261396,2.474177,-1.543990,0.115465,-0.285221,-0.237232,-0.075300,0.042230,0.001633,0.999998,0.000577,-0.001426,-0.001186,0.258459,0.630844,-0.291812,-0.670880,87.306373,44.075006,-95.629028
53346,-6.881738,4.726603,0.016128,0.372078,1.618012,-1.630824,0.133174,-0.239407,-0.311640,-0.068744,0.047373,0.000110,0.999998,0.000666,-0.001197,-0.001558,0.256674,0.630632,-0.291617,-0.671850,87.237610,44.241033,-95.835923
53347,-6.583014,5.186107,-0.480745,0.840058,1.023311,-1.523540,0.140361,-0.140127,-0.347042,-0.065737,0.051979,-0.004817,0.999998,0.000702,-0.000701,-0.001735,0.254895,0.630809,-0.291207,-0.672538,87.226269,44.429539,-95.965479
53348,-6.271969,5.887752,-0.169677,0.492442,0.304788,-1.228018,0.010753,-0.113999,-0.314273,-0.062626,0.058976,-0.001729,0.999999,0.000054,-0.000570,-0.001571,0.253668,0.630861,-0.290429,-0.673289,87.155832,44.600421,-96.073431
53349,-6.094142,6.999660,1.581756,-1.305033,-0.497105,-0.502185,0.438773,-0.084168,-0.218243,-0.060872,0.070028,0.015946,0.999997,0.002194,-0.000421,-0.001091,0.251460,0.631413,-0.291357,-0.673199,87.349650,44.716786,-96.153615
53350,-6.592492,6.754483,1.172863,-0.866828,-0.014525,-0.341258,0.150990,-0.119263,-0.156953,-0.065879,0.067588,0.011740,0.999999,0.000755,-0.000596,-0.000785,0.250312,0.631394,-0.291552,-0.673560,87.360525,44.797702,-96.259724
53351,-6.709215,6.048442,0.763351,-0.427313,0.522268,-0.772524,0.049773,-0.106676,-0.150095,-0.067051,0.060533,0.007613,1.000000,0.000249,-0.000533,-0.000750,0.249528,0.631279,-0.291413,-0.674019,87.320282,44.874552,-96.355516
53352,-6.753848,6.293083,0.606452,-0.282006,0.359591,-0.572759,0.404746,-0.121856,-0.118768,-0.067505,0.062959,0.006151,0.999998,0.002024,-0.000609,-0.000594,0.247702,0.631509,-0.292586,-0.673968,87.475707,44.933606,-96.462526
53353,-6.597212,6.331719,0.619693,-0.329757,0.219446,-0.656217,0.589901,-0.196765,-0.083544,-0.065952,0.063326,0.006319,0.999995,0.002949,-0.000984,-0.000418,0.245303,0.631659,-0.294585,-0.673834,87.695108,44.970475,-96.628647
53354,-6.780052,6.044987,0.462331,-0.168002,0.536800,-0.734785,0.569839,-0.213411,-0.041486,-0.067793,0.060451,0.004723,0.999995,0.002849,-0.001067,-0.000207,0.243078,0.631662,-0.296667,-0.673725,87.894648,44.983793,-96.806926
53355,-6.817901,5.767089,0.261088,0.026936,0.743639,-0.910020,0.654580,-0.191809,-0.009444,-0.068179,0.057665,0.002734,0.999994,0.003273,-0.000959,-0.000047,0.240727,0.631785,-0.299106,-0.673375,88.155572,44.979229,-96.966646
53356,-6.994491,6.383380,-0.081659,0.318395,0.402294,-0.356802,0.793203,-0.156546,-0.022022,-0.069937,0.063844,-0.000618,0.999992,0.003966,-0.000783,-0.000110,0.237941,0.632205,-0.301925,-0.672713,88.516059,44.983552,-97.098273
53357,-7.307251,7.054891,0.081029,0.104835,0.164614,0.342891,0.640112,-0.122809,-0.101682,-0.073037,0.070583,0.000991,0.999995,0.003201,-0.000614,-0.000508,0.235423,0.632666,-0.303934,-0.672260,88.806843,45.034001,-97.203975
53358,-6.828249,7.403923,0.640887,-0.558650,-0.363078,0.257551,0.626506,-0.029092,-0.199484,-0.068210,0.074087,0.006631,0.999995,0.003133,-0.000145,-0.000997,0.232754,0.633570,-0.305474,-0.671640,89.142940,45.142337,-97.234939
53359,-6.350343,9.047905,0.064851,-0.194804,-1.936880,1.068766,0.315851,0.177283,-0.208461,-0.063408,0.090544,0.000848,0.999998,0.001579,0.000886,-0.001042,0.231358,0.634812,-0.305700,-0.670846,89.420346,45.256923,-97.097309
53360,-6.562823,9.395865,-0.485635,0.300543,-2.111645,1.458480,0.327211,0.187959,-0.138980,-0.065567,0.094012,-0.004641,0.999998,0.001636,0.000940,-0.000695,0.230169,0.635997,-0.306171,-0.669918,89.711828,45.331721,-96.949636
53361,-7.372877,10.263872,0.637646,-0.843100,-2.035529,2.647601,0.037581,0.072702,-0.062485,-0.073694,0.102661,0.006423,1.000000,0.000188,0.000364,-0.000312,0.229986,0.636342,-0.306047,-0.669710,89.770960,45.361618,-96.895066
53362,-7.198212,7.455648,0.731250,-0.721224,-0.162556,0.550183,-0.161991,0.029538,0.039611,-0.071996,0.074548,0.007263,1.000000,-0.000810,0.000148,0.000198,0.230709,0.636158,-0.305629,-0.669827,89.691172,45.333307,-96.875383
53363,-7.543585,7.383140,-0.012084,0.058269,0.049091,0.742443,-0.182506,0.175688,0.066781,-0.075461,0.073806,-0.000122,0.999999,-0.000913,0.000878,0.000334,0.231815,0.636396,-0.305060,-0.669478,89.684186,45.289498,-96.736409
53364,-7.241429,8.624952,-0.238950,0.164103,-1.058186,1.400630,-0.153945,0.165450,0.037782,-0.072433,0.086234,-0.002396,0.999999,-0.000770,0.000827,0.000189,0.232714,0.636677,-0.304505,-0.669151,89.687604,45.262670,-96.606073
53365,-6.281376,10.137669,-0.163801,-0.098629,-2.784558,1.784353,-0.164717,0.160686,0.028388,-0.062829,0.101366,-0.001671,0.999999,-0.000824,0.000803,0.000142,0.233611,0.636942,-0.303891,-0.668865,89.681814,45.240816,-96.479624
53366,-5.675799,11.106105,0.667525,-1.014224,-3.798919,2.042488,-0.596138,0.220494,0.082580,-0.056797,0.111057,0.006407,0.999995,-0.002981,0.001102,0.000413,0.236150,0.636819,-0.301933,-0.668978,89.463708,45.188684,-96.304274
53367,-6.302416,9.723357,-0.331001,0.183456,-2.479896,1.509405,-0.846007,0.266281,0.130938,-0.063092,0.097177,-0.003637,0.999990,-0.004230,0.001331,0.000655,0.239716,0.636469,-0.299236,-0.669254,89.128930,45.109425,-96.091044
53368,-7.659216,7.502435,-1.462008,1.601842,-0.049908,0.888667,-0.863856,0.260087,0.140535,-0.076664,0.074907,-0.014844,0.999990,-0.004319,0.001300,0.000703,0.243353,0.636051,-0.296511,-0.669552,88.780695,45.025754,-95.882335
53369,-8.163116,5.416712,-1.395668,1.713551,1.802990,-0.234690,-0.577704,0.154400,0.120420,-0.081675,0.054077,-0.014050,0.999995,-0.002889,0.000772,0.000602,0.245855,0.635647,-0.294804,-0.669775,88.535474,44.952698,-95.759278
53370,-7.649373,5.566409,-0.551144,0.844764,1.420261,-0.481515,-0.271999,0.069567,0.113968,-0.076527,0.055613,-0.005560,0.999999,-0.001360,0.000348,0.000570,0.247235,0.635341,-0.294203,-0.669822,88.417120,44.882600,-95.704775
53371,-6.502526,5.321065,-0.046380,0.276322,0.835685,-1.456612,-0.082197,0.109426,0.098704,-0.065052,0.053178,-0.000450,1.000000,-0.000411,0.000547,0.000494,0.248022,0.635424,-0.294139,-0.669480,88.429718,44.821631,-95.618407
53372,-7.226971,6.327810,-1.401899,1.621539,0.542179,-0.256946,0.268266,0.153466,0.100617,-0.072312,0.063260,-0.013879,0.999999,0.001341,0.000767,0.000503,0.247763,0.636086,-0.295199,-0.668480,88.668188,44.760382,-95.496705
53373,-6.954841,8.122613,-1.155293,1.251405,-0.882712,0.833255,0.324432,0.011092,0.063679,-0.069575,0.081223,-0.011417,0.999999,0.001622,0.000055,0.000318,0.246994,0.636394,-0.296505,-0.667894,88.856922,44.717897,-95.490924
53374,-5.915119,8.148013,0.113757,-0.104826,-1.526838,0.139672,0.087424,0.116437,0.013509,-0.059156,0.081476,0.001208,1.000000,0.000437,0.000582,0.000068,0.246964,0.636835,-0.296729,-0.667384,88.969268,44.705595,-95.401085
53375,-5.818711,7.635717,-0.397087,0.417452,-1.274291,-0.298426,-0.245869,0.282311,-0.001583,-0.058192,0.076353,-0.003983,0.999998,-0.001229,0.001412,-0.000008,0.248194,0.637438,-0.295588,-0.666858,88.984199,44.703257,-95.177866
53376,-6.731051,6.002881,-0.598219,0.749768,0.505508,-0.819256,-0.306094,0.374088,0.002627,-0.067322,0.060019,-0.005948,0.999997,-0.001530,0.001870,0.000013,0.249762,0.638265,-0.294144,-0.666120,89.017009,44.699625,-94.880535
53377,-6.745466,3.877511,-0.639824,0.871486,2.008941,-2.319329,-0.142322,0.344025,-0.016225,-0.067462,0.038776,-0.006310,0.999998,-0.000712,0.001720,-0.000081,0.250702,0.639219,-0.293222,-0.665258,89.126110,44.705986,-94.607778
53378,-7.198098,4.511266,-0.702028,0.907031,1.882182,-1.548817,0.317519,0.297044,-0.024102,-0.071986,0.045132,-0.006842,0.999998,0.001588,0.001485,-0.000121,0.250072,0.640604,-0.293862,-0.663879,89.472418,44.716060,-94.372804
53379,-7.560431,6.726483,-0.503919,0.591788,0.597914,0.284429,0.480179,0.138237,-0.023618,-0.075600,0.067286,-0.004825,0.999997,0.002401,0.000691,-0.000118,0.248692,0.641660,-0.295240,-0.662766,89.821571,44.723982,-94.265860
53380,-6.661635,7.200819,0.037086,-0.051020,-0.332514,-0.008742,0.263904,0.058115,-0.025415,-0.066607,0.072016,0.000485,0.999999,0.001320,0.000291,-0.000127,0.247877,0.642183,-0.295994,-0.662228,90.001779,44.732846,-94.223364
53381,-6.398029,6.594504,-0.144390,0.130408,-0.107747,-0.624952,0.059905,0.131957,-0.039032,-0.063968,0.065958,-0.001382,1.000000,0.000300,0.000660,-0.000195,0.247785,0.642715,-0.295938,-0.661772,90.106683,44.749064,-94.121360
53382,-6.841297,7.041020,-0.082353,0.058207,-0.105320,0.004216,-0.076469,0.182987,-0.052045,-0.068395,0.070428,-0.000788,0.999999,-0.000382,0.000915,-0.000260,0.248159,0.643267,-0.295324,-0.661368,90.162926,44.772893,-93.977976
53383,-6.591350,6.925189,0.735396,-0.764171,-0.149700,-0.255566,-0.282828,0.201701,-0.092260,-0.065874,0.069293,0.007322,0.999998,-0.001414,0.001009,-0.000461,0.249095,0.643682,-0.293875,-0.661258,90.111369,44.819407,-93.819427
53384,-7.190845,7.114202,0.480507,-0.483856,0.111268,0.301881,-0.430703,0.309709,-0.131378,-0.071854,0.071200,0.004763,0.999996,-0.002154,0.001549,-0.000657,0.250531,0.644326,-0.291675,-0.661063,90.037240,44.888697,-93.573351
53385,-7.643925,7.288704,0.036375,-0.013233,0.263724,0.746021,-0.565622,0.239620,-0.174920,-0.076375,0.072955,0.000249,0.999995,-0.002828,0.001198,-0.000875,0.252157,0.644625,-0.288975,-0.661339,89.845671,44.982978,-93.384019
53386,-7.384158,6.707318,0.626058,-0.564649,0.502415,0.153981,-0.634057,0.178827,-0.208262,-0.073766,0.067170,0.006114,0.999994,-0.003170,0.000894,-0.001041,0.253800,0.644679,-0.286014,-0.661944,89.580398,45.097046,-93.244201
53387,-6.918451,6.561833,0.334169,-0.258202,0.238183,-0.277973,-0.637522,0.178188,-0.217439,-0.069110,0.065704,0.003194,0.999994,-0.003188,0.000891,-0.001087,0.255422,0.644731,-0.283009,-0.662561,89.312218,45.216502,-93.105545
53388,-7.108197,7.123510,0.490034,-0.393436,-0.043334,0.254796,-0.595496,0.205845,-0.211007,-0.071002,0.071324,0.004761,0.999994,-0.002977,0.001029,-0.001055,0.256964,0.644913,-0.280126,-0.663013,89.084410,45.333246,-92.944661
53389,-7.017345,7.435837,-0.005104,0.127985,-0.372168,0.403953,-0.755125,0.148198,-0.211529,-0.070095,0.074432,-0.000280,0.999992,-0.003776,0.000741,-0.001058,0.258937,0.644690,-0.276782,-0.663866,88.731164,45.449903,-92.831407
53390,-6.547529,7.535501,0.295786,-0.147831,-0.784803,0.142384,-0.682855,0.180404,-0.209299,-0.065394,0.075433,0.002759,0.999993,-0.003414,0.000902,-0.001046,0.260723,0.644656,-0.273639,-0.664503,88.438150,45.566506,-92.692403
53391,-6.867680,7.016087,-0.224822,0.424140,-0.224246,-0.003980,-0.746794,0.236805,-0.193415,-0.068612,0.070218,-0.002429,0.999992,-0.003734,0.001184,-0.000967,0.262844,0.644693,-0.270258,-0.665015,88.141207,45.675155,-92.507493
53392,-7.581240,5.543301,-0.424529,0.672970,1.308981,-0.527364,-0.632617,0.177230,-0.167783,-0.075770,0.055483,-0.004354,0.999994,-0.003163,0.000886,-0.000839,0.264594,0.644640,-0.267413,-0.665522,87.875509,45.768881,-92.371043
53393,-7.450202,4.769322,0.176153,0.077680,1.770739,-1.144273,-0.219380,0.048411,-0.108713,-0.074476,0.047736,0.001727,0.999999,-0.001097,0.000242,-0.000544,0.265039,0.644620,-0.266303,-0.665809,87.771644,45.825984,-92.338890
53394,-6.859579,5.919974,0.660628,-0.412066,0.535004,-0.752869,0.131442,-0.008651,-0.028507,-0.068588,0.059205,0.006642,1.000000,0.000657,-0.000043,-0.000143,0.264540,0.644770,-0.266694,-0.665706,87.837351,45.836268,-92.351016
53395,-6.658139,8.005086,0.908108,-0.660389,-1.095284,0.560406,0.271771,-0.043172,0.037295,-0.066598,0.080026,0.009175,0.999999,0.001359,-0.000216,0.000186,0.263765,0.644900,-0.267810,-0.665439,87.964183,45.807818,-92.389587
53396,-6.304258,9.461943,0.969061,-0.734206,-2.379026,1.323393,0.046117,-0.007586,0.045606,-0.063065,0.094603,0.009710,1.000000,0.000231,-0.000038,0.000228,0.263789,0.644841,-0.268155,-0.665348,87.983193,45.775703,-92.398645
53397,-6.317184,9.153352,0.525645,-0.282596,-2.153789,1.107398,-0.315296,0.110377,-0.011707,-0.063164,0.091545,0.005147,0.999999,-0.001576,0.000552,-0.000059,0.264949,0.644772,-0.266957,-0.665436,87.862984,45.778510,-92.312601
53398,-6.707417,8.104190,-0.150955,0.426377,-1.143805,0.637189,-0.649239,0.215239,-0.092280,-0.067039,0.081068,-0.001701,0.999994,-0.003246,0.001076,-0.000461,0.267053,0.644714,-0.264247,-0.665733,87.611699,45.830287,-92.142920
53399,-7.238899,6.743550,-0.747971,1.054044,0.189428,0.050861,-0.810886,0.264486,-0.166819,-0.072343,0.067465,-0.007658,0.999991,-0.004054,0.001322,-0.000834,0.269493,0.644690,-0.260689,-0.666175,87.294614,45.926294,-91.935722
53400,-7.418881,4.775968,-0.937950,1.228670,1.718037,-1.194793,-0.692147,0.246128,-0.222193,-0.074147,0.047809,-0.009454,0.999993,-0.003461,0.001231,-0.001111,0.271335,0.644829,-0.257368,-0.666584,87.033517,46.054454,-91.746048
53401,-7.559094,3.515496,-0.819131,1.083577,2.709440,-1.960658,-0.357866,0.161771,-0.225921,-0.075558,0.035226,-0.008193,0.999997,-0.001789,0.000809,-0.001130,0.271979,0.645137,-0.255261,-0.666834,86.913437,46.182374,-91.626479
53402,-7.157307,2.994837,-0.226106,0.462285,2.786193,-2.582846,0.229728,0.027507,-0.218584,-0.071541,0.030029,-0.002217,0.999999,0.001149,0.000138,-0.001093,0.270576,0.645786,-0.255319,-0.666754,87.050842,46.302353,-91.617229
53403,-7.219540,3.475137,-0.311860,0.549914,2.467649,-2.203230,0.705515,-0.046899,-0.174739,-0.072164,0.034825,-0.003013,0.999993,0.003528,-0.000234,-0.000874,0.267688,0.646769,-0.257203,-0.666243,87.417645,46.394835,-91.667270
53404,-7.339091,4.509522,0.135059,0.098652,1.788801,-1.386147,1.239915,-0.168111,-0.101086,-0.073369,0.045123,0.001569,0.999980,0.006200,-0.000841,-0.000505,0.263152,0.647953,-0.261261,-0.665320,88.020654,46.443067,-91.814351
53405,-7.118014,6.321947,1.007729,-0.818574,0.331332,-0.280203,1.598714,-0.304393,-0.036476,-0.071184,0.063150,0.010474,0.999967,0.007993,-0.001522,-0.000182,0.257480,0.649035,-0.266887,-0.664251,88.748286,46.452877,-92.072572
53406,-6.663940,8.177114,1.334126,-1.258332,-1.301645,0.664643,1.594739,-0.305439,0.013346,-0.066666,0.081657,0.013891,0.999967,0.007974,-0.001527,0.000067,0.251963,0.650001,-0.272645,-0.663082,89.474056,46.436814,-92.330724
53407,-6.799142,9.564328,1.454805,-1.515246,-2.183292,1.709346,1.393331,-0.247853,0.045967,-0.068032,0.095524,0.015130,0.999975,0.006967,-0.001239,0.000230,0.247278,0.650820,-0.277754,-0.661921,90.118720,46.403884,-92.541150
53408,-6.859117,10.070991,1.428404,-1.609160,-2.482929,2.093510,1.085534,-0.187787,0.051660,-0.068631,0.100613,0.014766,0.999985,0.005428,-0.000939,0.000258,0.243682,0.651425,-0.281777,-0.660958,90.623326,46.369300,-92.701990
53409,-7.193322,9.645056,1.328507,-1.553841,-1.927903,2.036549,0.683578,-0.138998,0.060454,-0.071972,0.096383,0.013565,0.999994,0.003418,-0.000695,0.000302,0.241492,0.651674,-0.284435,-0.660378,90.926396,46.329709,-92.822742
53410,-7.396883,8.747522,0.810314,-1.019456,-1.155060,1.567828,0.310288,-0.103908,0.074984,-0.074006,0.087435,0.008200,0.999999,0.001551,-0.000520,0.000375,0.240612,0.651564,-0.285862,-0.660192,91.036752,46.282061,-92.914661
53411,-7.478461,8.076513,0.611604,-0.789225,-0.615467,1.165920,0.000180,-0.018055,0.092687,-0.074823,0.080730,0.006109,1.000000,0.000001,-0.000090,0.000463,0.240925,0.651336,-0.286221,-0.660147,91.020412,46.223130,-92.935736
53412,-7.967459,7.372587,0.251319,-0.366346,0.216405,1.037084,-0.153176,0.001035,0.083753,-0.079705,0.073694,0.002457,1.000000,-0.000766,0.000005,0.000419,0.241733,0.651000,-0.286020,-0.660270,90.928043,46.169401,-92.940744
53413,-7.868243,7.348002,0.026342,-0.124144,0.158906,0.951250,-0.336357,-0.021022,0.061213,-0.078705,0.073456,0.000132,0.999999,-0.001682,-0.000105,0.000306,0.243034,0.650399,-0.285168,-0.660753,90.717657,46.128475,-92.963553
53414,-7.669390,7.516259,-0.395107,0.313404,-0.120323,0.927750,-0.469251,-0.016813,0.036400,-0.076707,0.075139,-0.004134,0.999997,-0.002346,-0.000084,0.000182,0.244686,0.649685,-0.283790,-0.661439,90.434231,46.101960,-92.982382
53415,-7.574445,7.988617,-0.346807,0.279186,-0.518425,1.185660,-0.451348,-0.039182,0.046391,-0.075762,0.079860,-0.003663,0.999997,-0.002257,-0.000196,0.000232,0.246284,0.648900,-0.282529,-0.662156,90.147629,46.069434,-93.019555
53416,-7.301878,7.847980,-0.326906,0.297933,-0.600476,0.890844,-0.456613,-0.125448,0.043839,-0.073034,0.078456,-0.003494,0.999997,-0.002283,-0.000627,0.000219,0.247764,0.647824,-0.281347,-0.663160,89.807202,46.038488,-93.127632
53417,-7.471924,7.412801,0.015558,0.019163,-0.145897,0.711464,-0.213017,-0.262957,0.081488,-0.074749,0.074098,-0.000022,0.999998,-0.001065,-0.001315,0.000407,0.248388,0.646537,-0.281264,-0.664217,89.524893,45.984826,-93.348680
53418,-6.794116,7.558320,0.016249,0.026515,-0.710092,0.325525,-0.194946,-0.418757,0.142494,-0.067995,0.075535,-0.000053,0.999997,-0.000975,-0.002094,0.000712,0.248933,0.644667,-0.281630,-0.665673,89.162085,45.894596,-93.696735
53419,-6.401977,7.287312,0.512199,-0.432423,-0.744303,-0.137390,-0.257850,-0.397914,0.223452,-0.064111,0.072808,0.004901,0.999997,-0.001289,-0.001990,0.001117,0.249981,0.642669,-0.282021,-0.667046,88.777733,45.756356,-94.024938
53420,-6.360617,6.711200,0.488371,-0.347591,-0.337958,-0.566019,-0.256495,-0.430917,0.306548,-0.063719,0.067020,0.004661,0.999996,-0.001282,-0.002155,0.001533,0.251251,0.640441,-0.282721,-0.668414,88.378575,45.568741,-94.376131
53421,-6.401011,6.472450,0.756468,-0.561470,-0.094725,-0.696036,-0.187060,-0.457970,0.349401,-0.064140,0.064619,0.007357,0.999995,-0.000935,-0.002290,0.001747,0.252404,0.638142,-0.283823,-0.669710,88.007044,45.354199,-94.745296
53422,-6.853814,5.996912,1.098339,-0.824036,0.612462,-0.697330,0.048403,-0.557098,0.315552,-0.068663,0.059858,0.010807,0.999995,0.000242,-0.002785,0.001578,0.252546,0.635852,-0.285727,-0.671024,87.715797,45.155668,-95.192964
53423,-7.454787,4.872719,0.989276,-0.614388,1.850130,-1.066525,0.049370,-0.441127,0.181365,-0.074614,0.048657,0.009740,0.999997,0.000247,-0.002206,0.000907,0.252401,0.634137,-0.287059,-0.672132,87.490936,45.035071,-95.548653
53424,-8.099322,3.827714,-0.421761,0.901484,2.957356,-1.394285,-0.358105,-0.384305,-0.022002,-0.080981,0.038278,-0.004442,0.999997,-0.001791,-0.001922,-0.000110,0.252942,0.632387,-0.286302,-0.673898,87.061045,45.031257,-95.864807
53425,-8.178489,2.410696,-0.421625,0.974714,4.006925,-2.337977,-0.081854,-0.346931,-0.173551,-0.081756,0.024176,-0.004368,0.999998,-0.000409,-0.001735,-0.000868,0.252153,0.631325,-0.285949,-0.675337,86.805753,45.113680,-96.157424
53426,-7.236932,3.994979,-0.716913,1.187070,2.183626,-1.896275,0.220415,-0.317684,-0.247922,-0.072308,0.040047,-0.007240,0.999997,0.001102,-0.001588,-0.001240,0.250197,0.630848,-0.286343,-0.676343,86.737281,45.239387,-96.430628
53427,-6.430010,4.185375,-0.491546,0.903330,1.477573,-2.322378,0.260953,-0.253293,-0.273479,-0.064237,0.041948,-0.004942,0.999997,0.001305,-0.001266,-0.001367,0.248120,0.630671,-0.286713,-0.677116,86.727233,45.381305,-96.653357
53428,-6.257322,6.007865,0.575666,-0.224472,0.120037,-1.122746,0.367243,-0.178523,-0.227655,-0.062510,0.060139,0.005811,0.999997,0.001836,-0.000893,-0.001138,0.245965,0.630812,-0.287491,-0.677441,86.822635,45.499969,-96.813442
53429,-6.013326,6.723295,0.941114,-0.644411,-0.541132,-0.782717,0.401701,-0.158707,-0.108325,-0.060104,0.067246,0.009498,0.999998,0.002009,-0.000794,-0.000542,0.244137,0.630886,-0.288738,-0.677503,86.952777,45.550766,-96.951897
53430,-6.359949,7.424079,1.892849,-1.602851,-0.718978,-0.011530,0.360569,-0.158428,-0.007322,-0.063612,0.074209,0.019012,0.999998,0.001803,-0.000792,-0.000037,0.242777,0.630764,-0.290161,-0.677498,87.062836,45.544410,-97.085782
53431,-6.660845,7.008556,1.357859,-1.038759,-0.251039,-0.107615,0.259685,-0.190020,0.030434,-0.066632,0.070058,0.013606,0.999999,0.001298,-0.000950,0.000152,0.241819,0.630354,-0.291400,-0.677690,87.097641,45.515219,-97.243800
53432,-7.062307,6.840793,0.790063,-0.434895,0.103142,0.041097,0.274773,-0.218664,0.005801,-0.070634,0.068395,0.007917,0.999998,0.001374,-0.001093,0.000029,0.240685,0.629900,-0.292645,-0.677979,87.123911,45.499764,-97.426281
53433,-6.839127,6.493280,-0.302565,0.650490,0.094073,-0.400148,0.088057,-0.224883,-0.030752,-0.068378,0.064945,-0.003074,0.999999,0.000440,-0.001124,-0.000154,0.240009,0.629252,-0.293150,-0.678603,87.038370,45.504570,-97.615232
53434,-6.654806,6.224668,0.199648,0.150239,0.203036,-0.701761,0.234155,-0.211448,-0.035124,-0.066539,0.062256,0.001999,0.999999,0.001171,-0.001057,-0.000176,0.238873,0.628830,-0.294119,-0.678974,87.044353,45.512592,-97.793526
53435,-6.675189,5.959756,-0.153149,0.511358,0.370517,-0.885116,0.344847,-0.191391,-0.008123,-0.066748,0.059603,-0.001493,0.999998,0.001724,-0.000957,-0.000041,0.237514,0.628566,-0.295525,-0.679085,87.126091,45.505434,-97.954212
53436,-6.979394,5.902903,-0.144373,0.528461,0.624427,-0.707312,0.305838,-0.168205,0.015381,-0.069797,0.059026,-0.001412,0.999998,0.001529,-0.000841,0.000077,0.236387,0.628299,-0.296843,-0.679151,87.199861,45.486056,-98.095093
53437,-7.139530,4.983677,-0.073679,0.510648,1.399118,-1.233816,0.564693,-0.154172,-0.020872,-0.071390,0.049846,-0.000651,0.999996,0.002823,-0.000771,-0.000104,0.234346,0.628434,-0.298909,-0.678827,87.428938,45.487644,-98.225859
53438,-7.010051,7.416630,-0.171546,0.419914,-0.434030,0.376115,0.781376,-0.069493,-0.090140,-0.070067,0.074204,-0.001450,0.999992,0.003907,-0.000347,-0.000451,0.231510,0.629208,-0.301389,-0.677987,87.829953,45.531847,-98.289936
53439,-6.358533,8.498947,0.661018,-0.592206,-1.559870,0.690451,0.551652,-0.031241,-0.100822,-0.063544,0.085003,0.006835,0.999996,0.002758,-0.000156,-0.000504,0.229419,0.629853,-0.303009,-0.677376,88.121478,45.582760,-98.322612
53440,-6.171860,9.040471,1.112726,-1.137963,-2.020404,0.942917,0.350342,0.061968,-0.078575,-0.061680,0.090409,0.011305,0.999998,0.001752,0.000310,-0.000393,0.228173,0.630547,-0.303908,-0.676748,88.352954,45.623100,-98.278209
53441,-6.870626,8.933767,1.029090,-1.006416,-1.470540,1.363238,0.224000,0.067243,-0.029483,-0.068690,0.089336,0.010414,0.999999,0.001120,0.000336,-0.000147,0.227504,0.631037,-0.304529,-0.676237,88.515907,45.634879,-98.228086
53442,-7.133062,8.287711,0.345556,-0.266179,-0.909250,1.086328,0.021053,0.043753,0.069788,-0.071359,0.082852,0.003480,1.000000,0.000105,0.000219,0.000349,0.227770,0.631066,-0.304802,-0.675997,88.550463,45.589758,-98.195189
53443,-7.103594,7.551980,-0.676565,0.798078,-0.519525,0.533536,0.027559,0.062044,0.179130,-0.071106,0.075457,-0.006733,1.000000,0.000138,0.000310,0.000896,0.228418,0.630997,-0.305422,-0.675563,88.600770,45.481886,-98.145118
53444,-7.026531,8.772010,-0.976797,0.997009,-1.455407,1.330120,-0.204985,0.180815,0.152336,-0.070341,0.087657,-0.009794,0.999999,-0.001025,0.000904,0.000762,0.229886,0.631104,-0.305036,-0.675140,88.586534,45.391367,-97.998816
53445,-6.121486,8.725829,-0.411234,0.372698,-1.967642,0.664487,-0.548306,0.237350,0.114468,-0.061270,0.087212,-0.004279,0.999995,-0.002742,0.001187,0.000572,0.232397,0.631060,-0.303304,-0.675101,88.407506,45.323213,-97.807183
53446,-5.818535,9.640837,-0.195964,0.109141,-2.789805,1.098058,-0.695123,0.344789,0.138736,-0.058256,0.096361,-0.002194,0.999992,-0.003476,0.001724,0.000694,0.235611,0.631165,-0.301025,-0.674909,88.206989,45.243722,-97.527457
53447,-6.393310,9.698162,-0.020904,0.041995,-2.397094,1.553095,-0.921133,0.410755,0.168805,-0.064016,0.096926,-0.000524,0.999987,-0.004606,0.002054,0.000844,0.239737,0.631166,-0.297994,-0.674800,87.915141,45.148843,-97.193231
53448,-7.008117,7.744439,0.052400,0.181769,-0.561606,0.615359,-0.898830,0.376398,0.205293,-0.070160,0.077374,0.000308,0.999988,-0.004494,0.001882,0.001026,0.243856,0.631009,-0.295187,-0.674704,87.616989,45.033747,-96.885583
53449,-8.062861,4.664827,-0.808840,1.286514,2.297932,-0.841126,-0.508919,0.292135,0.204168,-0.080688,0.046545,-0.008089,0.999995,-0.002545,0.001461,0.001021,0.246615,0.631033,-0.293790,-0.674289,87.493352,44.917807,-96.646239
53450,-8.818656,4.304458,-1.774592,2.317894,3.023878,-0.596956,0.123703,0.131754,0.195100,-0.088240,0.042969,-0.017661,0.999999,0.000619,0.000659,0.000976,0.247108,0.631307,-0.294693,-0.673458,87.640143,44.803372,-96.537176
53451,-8.022273,5.646420,-0.985363,1.395734,1.601683,-0.184793,0.494078,-0.034136,0.150108,-0.080263,0.056428,-0.009728,0.999997,0.002470,-0.000171,0.000751,0.246037,0.631542,-0.296904,-0.672657,87.903043,44.710476,-96.564114
53452,-6.574903,7.415687,-0.017078,0.204193,-0.562418,0.079931,0.594203,-0.028214,0.117468,-0.065793,0.074118,0.000040,0.999995,0.002971,-0.000141,0.000587,0.244543,0.631966,-0.299340,-0.671724,88.225938,44.636800,-96.587729
53453,-6.323319,9.789805,0.191091,-0.180703,-2.370606,1.598212,0.332290,0.103747,0.076081,-0.063269,0.097871,0.002106,0.999998,0.001661,0.000519,0.000380,0.243938,0.632569,-0.300602,-0.670812,88.472016,44.588775,-96.506699
53454,-6.281058,8.454236,0.640105,-0.584023,-1.413466,0.627454,-0.005537,0.184949,0.033891,-0.062819,0.084532,0.006457,1.000000,-0.000028,0.000925,0.000169,0.244378,0.633096,-0.300498,-0.670201,88.569846,44.566215,-96.361416
53455,-6.641274,6.500361,0.068806,0.107692,0.157332,-0.521316,-0.160784,0.274580,-0.037314,-0.066400,0.065017,0.000727,0.999999,-0.000804,0.001373,-0.000187,0.245208,0.633838,-0.299538,-0.669626,88.627980,44.585283,-96.145594
53456,-7.140364,5.350764,-0.467349,0.728289,1.264012,-0.997602,-0.147401,0.295147,-0.093571,-0.071385,0.053538,-0.004608,0.999999,-0.000737,0.001476,-0.000468,0.245835,0.634749,-0.298419,-0.669033,88.705183,44.636927,-95.913979
53457,-7.488382,5.792590,-0.295923,0.546155,1.209653,-0.434203,-0.022526,0.237082,-0.106124,-0.074857,0.057965,-0.002877,0.999999,-0.000113,0.001185,-0.000531,0.245939,0.635635,-0.297749,-0.668451,88.820991,44.694507,-95.729144
53458,-6.578790,6.206768,-0.054267,0.208408,0.288504,-0.774949,-0.099134,0.198185,-0.111970,-0.065754,0.062104,-0.000508,0.999999,-0.000496,0.000991,-0.000560,0.246206,0.636307,-0.296851,-0.668114,88.871453,44.755086,-95.575350
53459,-6.403512,6.678297,-0.515191,0.628224,-0.213612,-0.569867,-0.181107,0.210438,-0.120352,-0.064000,0.066817,-0.005145,0.999999,-0.000906,0.001052,-0.000602,0.246726,0.636928,-0.295637,-0.667868,88.881760,44.820256,-95.411695
53460,-6.514690,6.029686,-0.695867,0.848988,0.297549,-0.954177,-0.317287,0.180088,-0.137470,-0.065112,0.060331,-0.006996,0.999998,-0.001586,0.000900,-0.000687,0.247575,0.637305,-0.293950,-0.667939,88.797127,44.895243,-95.272617
53461,-6.276646,5.394365,-0.447996,0.621907,0.588018,-1.568683,-0.362558,0.182909,-0.113439,-0.062740,0.053971,-0.004520,0.999998,-0.001813,0.000915,-0.000567,0.248653,0.637596,-0.292184,-0.668036,88.688232,44.956378,-95.130935
53462,-6.065808,4.785866,-0.071122,0.259007,0.888869,-2.141546,-0.244771,0.266995,-0.117633,-0.060631,0.047893,-0.000689,0.999998,-0.001224,0.001335,-0.000588,0.249461,0.638319,-0.290692,-0.667694,88.695465,45.021407,-94.921005
53463,-7.020959,6.441579,-0.115482,0.290517,0.380539,-0.295760,-0.199771,0.336942,-0.110012,-0.070176,0.064453,-0.001101,0.999998,-0.000999,0.001685,-0.000550,0.250255,0.639317,-0.289287,-0.667052,88.768708,45.082551,-94.654071
53464,-7.190757,7.087036,0.306632,-0.147862,0.060234,0.286895,-0.308882,0.250509,-0.131172,-0.071857,0.070922,0.003047,0.999998,-0.001544,0.001253,-0.000656,0.251198,0.639920,-0.287557,-0.666868,88.730305,45.154995,-94.457201
53465,-7.070556,6.731281,0.277622,-0.107104,0.211128,-0.049291,-0.379127,0.217632,-0.156717,-0.070650,0.067373,0.002725,0.999997,-0.001896,0.001088,-0.000784,0.252235,0.640357,-0.285551,-0.666919,88.632260,45.241486,-94.287519
53466,-7.053320,6.175212,0.079418,0.116745,0.565395,-0.455576,-0.437118,0.212140,-0.186528,-0.070475,0.061820,0.000734,0.999997,-0.002186,0.001061,-0.000933,0.253345,0.640743,-0.283261,-0.667104,88.497986,45.345533,-94.122764
53467,-7.089133,5.603529,0.966483,-0.743173,1.024428,-0.813375,-0.393218,0.194818,-0.209486,-0.070823,0.056128,0.009624,0.999997,-0.001966,0.000974,-0.001047,0.254216,0.641153,-0.281065,-0.667307,88.378275,45.462397,-93.972773
53468,-6.852396,6.744746,0.785012,-0.588415,0.013738,-0.183736,-0.366120,0.195487,-0.211806,-0.068445,0.067534,0.007793,0.999997,-0.001831,0.000977,-0.001059,0.254988,0.641602,-0.278949,-0.667469,88.275034,45.581147,-93.822161
53469,-6.800601,8.597788,0.708490,-0.529353,-1.373958,1.073267,-0.465470,0.220890,-0.204718,-0.067910,0.086064,0.006960,0.999996,-0.002327,0.001104,-0.001024,0.256140,0.641993,-0.276490,-0.667675,88.129666,45.696182,-93.650755
53470,-6.953431,8.863184,0.589548,-0.369749,-1.489375,1.363116,-0.745533,0.216301,-0.213055,-0.069434,0.088727,0.005640,0.999992,-0.003728,0.001081,-0.001065,0.258150,0.642016,-0.273072,-0.668286,87.821339,45.816685,-93.483578
53471,-6.850412,8.295211,0.013446,0.258874,-1.199578,0.875274,-0.878738,0.215400,-0.228458,-0.068409,0.083030,-0.000157,0.999989,-0.004394,0.001077,-0.001142,0.260533,0.641871,-0.269155,-0.669089,87.435213,45.946375,-93.318413
53472,-6.612372,7.440313,-0.033947,0.349822,-0.775370,0.104924,-0.948817,0.252317,-0.238495,-0.066036,0.074479,-0.000609,0.999987,-0.004744,0.001262,-0.001192,0.263149,0.641758,-0.264918,-0.669865,87.030506,46.083869,-93.124057
53473,-7.300137,5.994196,-0.634697,1.001945,0.714678,-0.425970,-0.908546,0.283382,-0.214570,-0.072946,0.059991,-0.006516,0.999988,-0.004543,0.001417,-0.001073,0.265753,0.641753,-0.260844,-0.670440,86.667493,46.209307,-92.903892
53474,-7.733610,5.025995,-0.905420,1.291263,1.699676,-0.794215,-0.552337,0.171188,-0.166972,-0.077302,0.050299,-0.009127,0.999995,-0.002762,0.000856,-0.000835,0.267220,0.641774,-0.258262,-0.670835,86.443571,46.304738,-92.774441
53475,-7.281558,5.223264,-0.246521,0.630265,1.238155,-0.956385,-0.068517,0.068592,-0.111104,-0.072787,0.052272,-0.002458,1.000000,-0.000343,0.000343,-0.000556,0.267191,0.642021,-0.257618,-0.670858,86.437134,46.364453,-92.727387
53476,-6.823910,5.593570,0.054875,0.319293,0.648148,-1.018670,0.141531,0.026565,-0.072024,-0.068219,0.055960,0.000597,1.000000,0.000708,0.000133,-0.000360,0.266561,0.642359,-0.257861,-0.670693,86.527769,46.400598,-92.713019
53477,-6.952717,5.940415,0.427227,-0.056124,0.483861,-0.670805,0.385141,0.025660,-0.027992,-0.069518,0.059405,0.004396,0.999998,0.001926,0.000128,-0.000140,0.265298,0.642958,-0.259062,-0.670156,86.758702,46.411218,-92.697166
53478,-7.208894,6.859192,0.796653,-0.426458,-0.001114,0.160745,0.533260,-0.002201,0.010536,-0.072093,0.068567,0.008149,0.999996,0.002666,-0.000011,0.000053,0.263647,0.643610,-0.260919,-0.669461,87.059575,46.399225,-92.702306
53479,-7.027797,8.120059,1.038819,-0.690703,-1.030825,0.904804,0.503741,-0.004816,0.020434,-0.070287,0.081167,0.010591,0.999997,0.002519,-0.000024,0.000102,0.262122,0.644194,-0.262710,-0.668797,87.341677,46.381173,-92.709629
53480,-6.860723,8.628590,1.214057,-0.897489,-1.506692,1.138128,0.246940,0.056149,-0.001222,-0.068603,0.086271,0.012266,0.999999,0.001235,0.000281,-0.000006,0.261429,0.644673,-0.263492,-0.668299,87.513087,46.377398,-92.667040
53481,-6.966124,8.036943,0.961259,-0.664047,-1.009663,0.797825,0.002539,0.134648,-0.041354,-0.069638,0.080384,0.009661,1.000000,0.000013,0.000673,-0.000207,0.261495,0.645146,-0.263226,-0.667922,87.590116,46.398161,-92.560976
53482,-7.379713,7.359867,0.448710,-0.150218,-0.247407,0.615417,-0.176105,0.182613,-0.077049,-0.073765,0.073631,0.004490,0.999999,-0.000881,0.000913,-0.000385,0.262078,0.645593,-0.262184,-0.667671,87.593245,46.440758,-92.415967
53483,-7.651709,6.344381,0.407383,-0.114101,0.666982,0.112426,-0.155331,0.172977,-0.097780,-0.076483,0.063484,0.004091,0.999999,-0.000777,0.000865,-0.000489,0.262515,0.646060,-0.261157,-0.667450,87.601723,46.494684,-92.279834
53484,-7.799545,5.716276,0.348237,-0.065376,1.215120,-0.213252,0.042208,0.098339,-0.094823,-0.077967,0.057199,0.003533,1.000000,0.000211,0.000492,-0.000474,0.262222,0.646534,-0.260897,-0.667208,87.679045,46.545345,-92.205336
53485,-7.600745,5.599001,0.549329,-0.286156,1.157858,-0.431891,0.249287,0.039823,-0.098136,-0.075979,0.056020,0.005578,0.999999,0.001246,0.000199,-0.000491,0.261176,0.647086,-0.261393,-0.666889,87.839328,46.596227,-92.179627
53486,-7.558594,5.595403,0.441408,-0.198299,1.123486,-0.467414,0.422975,-0.026928,-0.098675,-0.075559,0.055982,0.004522,0.999998,0.002115,-0.000135,-0.000493,0.259474,0.647643,-0.262553,-0.666556,88.059257,46.646301,-92.209171
53487,-7.580511,6.206840,0.459548,-0.238396,0.688149,-0.031597,0.627024,-0.098300,-0.092345,-0.075779,0.062089,0.004753,0.999995,0.003135,-0.000491,-0.000462,0.257041,0.648212,-0.264504,-0.666175,88.352715,46.691250,-92.297956
53488,-7.390871,6.895599,0.592656,-0.412907,0.054681,0.304223,0.786241,-0.176632,-0.101285,-0.073879,0.068970,0.006132,0.999992,0.003931,-0.000883,-0.000506,0.253951,0.648729,-0.267054,-0.665839,88.690127,46.740833,-92.451999
53489,-7.207369,7.396338,0.766624,-0.641154,-0.433338,0.514007,0.885360,-0.223741,-0.086655,-0.072050,0.073960,0.007913,0.999989,0.004427,-0.001119,-0.000433,0.250524,0.649182,-0.270036,-0.665493,89.055602,46.781815,-92.644970
53490,-7.099664,7.571342,0.774998,-0.706205,-0.632640,0.552248,0.912981,-0.238509,-0.057532,-0.070984,0.075698,0.008011,0.999989,0.004565,-0.001193,-0.000288,0.247076,0.649569,-0.273217,-0.665106,89.428582,46.807178,-92.849629
53491,-7.116149,7.706361,0.701544,-0.685648,-0.717038,0.653223,0.875253,-0.259797,-0.009567,-0.071167,0.077036,0.007260,0.999990,0.004376,-0.001299,-0.000048,0.243879,0.649757,-0.276448,-0.664767,89.766935,46.805517,-93.071716
53492,-6.986211,7.756772,0.734513,-0.770646,-0.830840,0.590668,0.779239,-0.234809,0.031397,-0.069883,0.077528,0.007565,0.999992,0.003896,-0.001174,0.000157,0.241156,0.649844,-0.279458,-0.664417,90.065920,46.781562,-93.272731
53493,-7.060461,7.728514,0.815730,-0.884778,-0.741312,0.623450,0.590075,-0.181045,0.070179,-0.070639,0.077236,0.008321,0.999995,0.002950,-0.000905,0.000351,0.239252,0.649817,-0.281898,-0.664101,90.288968,46.735608,-93.428978
53494,-7.063095,7.802673,0.823049,-0.919628,-0.778324,0.675157,0.324355,-0.102530,0.091710,-0.070671,0.077981,0.008321,0.999998,0.001622,-0.000513,0.000459,0.238390,0.649700,-0.283428,-0.663874,90.407760,46.677654,-93.519726
53495,-7.233417,7.667319,0.115074,-0.204052,-0.597128,0.709913,0.000412,-0.072295,0.111579,-0.072377,0.076633,0.001125,1.000000,0.000002,-0.000361,0.000558,0.238690,0.649266,-0.283912,-0.663984,90.359061,46.607948,-93.585354
53496,-7.377386,7.648888,0.315254,-0.383941,-0.459865,0.802009,-0.163918,-0.067516,0.108007,-0.073816,0.076452,0.003065,0.999999,-0.000820,-0.000338,0.000540,0.239517,0.648658,-0.283833,-0.664314,90.219582,46.540469,-93.646688
53497,-7.096673,7.837744,-0.640261,0.579378,-0.841375,0.730518,-0.522991,-0.028012,0.104661,-0.071007,0.078323,-0.006617,0.999996,-0.002615,-0.000140,0.000523,0.241554,0.647752,-0.282501,-0.665028,89.898385,46.474447,-93.674708
53498,-7.553344,7.046891,-0.397953,0.432358,0.071525,0.515811,-0.422580,-0.042145,0.109868,-0.075571,0.070419,-0.004144,0.999998,-0.002113,-0.000211,0.000549,0.243260,0.646910,-0.281536,-0.665635,89.626869,46.405556,-93.713864
53499,-7.242715,6.986249,-0.315004,0.377399,-0.082565,0.247850,-0.416284,-0.192043,0.111008,-0.072463,0.069815,-0.003365,0.999997,-0.002081,-0.000960,0.000555,0.244739,0.645570,-0.280776,-0.666713,89.269100,46.334791,-93.876941
53500,-6.832434,6.658510,-0.502482,0.602583,-0.128226,-0.279028,-0.497357,-0.177062,0.131471,-0.068363,0.066527,-0.005251,0.999996,-0.002487,-0.000885,0.000657,0.246565,0.644150,-0.279792,-0.667827,88.875108,46.251959,-94.026342
53501,-7.078069,6.633218,-0.198169,0.354062,0.089595,-0.117101,-0.357372,-0.192503,0.153764,-0.070830,0.066274,-0.002168,0.999998,-0.001787,-0.000963,0.000769,0.247994,0.642814,-0.279364,-0.668764,88.553031,46.155261,-94.187187
53502,-7.056332,6.665192,-0.401183,0.593951,0.056940,-0.116225,-0.204041,-0.348112,0.212392,-0.070627,0.066573,-0.004203,0.999997,-0.001020,-0.001741,0.001062,0.248906,0.641064,-0.279829,-0.669910,88.228523,46.022097,-94.473979
53503,-6.576001,6.780731,0.490357,-0.287249,-0.286821,-0.362945,-0.072867,-0.434814,0.264175,-0.065860,0.067722,0.004736,0.999997,-0.000364,-0.002174,0.001321,0.249449,0.639109,-0.281006,-0.671082,87.930445,45.856293,-94.828986
53504,-6.872447,6.754246,1.625351,-1.382940,0.036034,-0.139106,0.445598,-0.431961,0.288073,-0.068857,0.067407,0.016255,0.999994,0.002228,-0.002160,0.001440,0.248416,0.637772,-0.283992,-0.671480,87.933862,45.676476,-95.179143
53505,-7.227288,6.785106,1.530951,-1.250982,0.287910,0.135537,0.106671,-0.481292,0.221573,-0.072385,0.067763,0.015172,0.999996,0.000533,-0.002406,0.001108,0.248170,0.635935,-0.285687,-0.672593,87.714247,45.532954,-95.570329
53506,-7.583583,4.691910,1.037189,-0.637941,2.010901,-1.086309,-0.142171,-0.417021,0.022085,-0.075862,0.046918,0.010180,0.999998,-0.000711,-0.002085,0.000110,0.248132,0.634288,-0.285829,-0.674100,87.386299,45.504148,-95.914343
53507,-8.025921,3.970987,-0.137326,0.626602,2.742050,-1.310255,-0.445912,-0.330364,-0.204543,-0.080216,0.039789,-0.001594,0.999996,-0.002230,-0.001652,-0.001023,0.248418,0.632875,-0.284119,-0.676043,86.927999,45.605586,-96.196717
53508,-7.685640,2.840631,-1.389877,1.913481,3.203270,-2.386550,-0.252126,-0.319582,-0.331161,-0.076787,0.028516,-0.014057,0.999997,-0.001261,-0.001598,-0.001656,0.247673,0.631914,-0.282648,-0.677829,86.581344,45.778723,-96.477892
53509,-6.665604,3.690806,-0.971523,1.420533,1.887573,-2.504115,0.097190,-0.291099,-0.360087,-0.066575,0.037033,-0.009794,0.999997,0.000486,-0.001455,-0.001800,0.245769,0.631519,-0.282232,-0.679063,86.448369,45.968261,-96.739025
53510,-5.882782,4.612648,-0.765032,1.139830,0.669970,-2.415338,0.088879,-0.184958,-0.357674,-0.058738,0.046235,-0.007684,0.999998,0.000444,-0.000925,-0.001788,0.244043,0.631469,-0.281663,-0.679967,86.372336,46.160301,-96.913967
53511,-5.911211,5.110007,0.722784,-0.351079,0.418266,-1.984612,0.119362,-0.058022,-0.267963,-0.059046,0.051175,0.007241,0.999999,0.000597,-0.000290,-0.001340,0.242708,0.631758,-0.281327,-0.680316,86.391856,46.305166,-96.979952
53512,-6.016815,6.071220,0.621817,-0.267278,-0.228369,-1.249695,-0.004028,-0.019468,-0.150314,-0.060123,0.060758,0.006211,1.000000,-0.000020,-0.000097,-0.000752,0.242214,0.631864,-0.280894,-0.680573,86.368324,46.384572,-97.007940
53513,-6.292563,5.906889,1.036491,-0.656167,0.104910,-1.145483,0.142321,-0.011405,-0.036684,-0.062915,0.059073,0.010403,1.000000,0.000712,-0.000057,-0.000183,0.241658,0.632012,-0.281309,-0.680461,86.437501,46.398877,-97.023338
53514,-6.679382,6.638216,0.692971,-0.317832,-0.183875,-0.377361,0.428224,-0.015887,0.018791,-0.066801,0.066361,0.007067,0.999998,0.002141,-0.000079,0.000094,0.240377,0.632413,-0.282876,-0.679893,86.670075,46.381740,-97.039669
53515,-6.791541,6.779677,0.658452,-0.308086,-0.202358,-0.200891,0.607218,-0.098866,0.059480,-0.067939,0.067756,0.006757,0.999995,0.003036,-0.000494,0.000297,0.238553,0.632683,-0.285279,-0.679279,86.956482,46.338323,-97.122970
53516,-6.963391,6.848904,0.582870,-0.262294,-0.124107,-0.032524,1.006758,-0.239222,0.108566,-0.069678,0.068421,0.006090,0.999986,0.005034,-0.001196,0.000543,0.235423,0.632873,-0.289355,-0.678470,87.389269,46.263604,-97.320923
53517,-7.277080,6.729207,0.824375,-0.517006,0.224821,0.117048,1.051344,-0.310764,0.141076,-0.072831,0.067197,0.008484,0.999985,0.005257,-0.001554,0.000705,0.232157,0.632806,-0.293763,-0.677764,87.805311,46.169178,-97.577331
53518,-7.705530,7.192170,0.507061,-0.235889,0.179370,0.735845,1.024401,-0.282690,0.137981,-0.077112,0.071842,0.005330,0.999986,0.005122,-0.001413,0.000690,0.228995,0.632790,-0.298026,-0.676992,88.222587,46.078806,-97.811260
53519,-7.634242,7.985553,0.797247,-0.634377,-0.380009,1.238973,0.926888,-0.250012,0.105955,-0.076395,0.079777,0.008247,0.999988,0.004634,-0.001250,0.000530,0.226081,0.632802,-0.301814,-0.676282,88.602569,46.007993,-98.019448
53520,-7.110141,8.357264,0.516271,-0.486572,-1.017231,1.114011,0.800208,-0.167686,0.090248,-0.071144,0.083519,0.005437,0.999992,0.004001,-0.000838,0.000451,0.223629,0.632962,-0.305025,-0.675507,88.958498,45.948498,-98.160683
53521,-6.963666,9.097850,0.087274,-0.190014,-1.683676,1.518686,0.662583,-0.085388,0.060470,-0.069665,0.090954,0.001144,0.999994,0.003313,-0.000427,0.000302,0.221639,0.633281,-0.307580,-0.674704,89.283758,45.906982,-98.234665
