PacketCounter,Acc_X,Acc_Y,Acc_Z,FreeAcc_E,FreeAcc_N,FreeAcc_U,Gyr_X,Gyr_Y,Gyr_Z,VelInc_X,VelInc_Y,VelInc_Z,OriInc_q0,OriInc_q1,OriInc_q2,OriInc_q3,Quat_q0,Quat_q1,Quat_q2,Quat_q3,Roll,Pitch,Yaw
28694,-9.608450,-0.748736,-0.319591,0.187306,0.176865,-0.173254,-0.082181,0.010008,-0.163045,-0.096091,-0.007410,-0.003188,1.000000,-0.000411,0.000050,-0.000815,0.383148,-0.621284,0.366900,0.576704,-127.923976,86.154627,-12.024527
28695,-9.614204,-0.780953,-0.195475,0.148616,0.297222,-0.170563,-0.047052,0.008919,-0.156987,-0.096148,-0.007735,-0.001949,1.000000,-0.000235,0.000045,-0.000785,0.383415,-0.621654,0.366312,0.576502,-127.217504,86.086978,-11.288753
28696,-9.667947,-0.767188,-0.134300,0.093599,0.341378,-0.119881,-0.034548,0.013287,-0.150974,-0.096685,-0.007599,-0.001335,1.000000,-0.000173,0.000066,-0.000755,0.383697,-0.621984,0.365786,0.576293,-126.569471,86.022630,-10.618778
28697,-9.683792,-0.796917,-0.144070,0.111064,0.341359,-0.101726,-0.038321,0.020839,-0.140802,-0.096844,-0.007901,-0.001429,1.000000,-0.000192,0.000104,-0.000704,0.383923,-0.622341,0.365296,0.576068,-126.060182,85.957334,-10.085571
28698,-9.656635,-0.781640,-0.107663,0.072011,0.362900,-0.130938,-0.035328,0.018501,-0.133443,-0.096572,-0.007752,-0.001066,1.000000,-0.000177,0.000093,-0.000667,0.384142,-0.622655,0.364831,0.575877,-125.566725,85.898490,-9.569983
28699,-9.651323,-0.869378,-0.196078,0.178657,0.318465,-0.127185,-0.052472,0.021416,-0.124582,-0.096519,-0.008634,-0.001948,1.000000,-0.000262,0.000107,-0.000623,0.384275,-0.623011,0.364351,0.575707,-125.174338,85.839975,-9.145773
28700,-9.642147,-0.853768,-0.270371,0.187780,0.241581,-0.133876,-0.050890,0.021067,-0.118360,-0.096427,-0.008481,-0.002691,1.000000,-0.000254,0.000105,-0.000592,0.384398,-0.623334,0.363893,0.575564,-124.799129,85.786811,-8.739713
28701,-9.605823,-0.750541,-0.349967,0.122890,0.121564,-0.172784,-0.036799,0.021351,-0.113916,-0.096063,-0.007451,-0.003488,1.000000,-0.000184,0.000107,-0.000570,0.384549,-0.623640,0.363491,0.575386,-124.465350,85.732957,-8.383217
28702,-9.643279,-0.717446,-0.281929,0.051566,0.165668,-0.140204,-0.018836,0.024581,-0.108532,-0.096437,-0.007122,-0.002807,1.000000,-0.000094,0.000123,-0.000543,0.384737,-0.623894,0.363163,0.575193,-124.154378,85.682912,-8.059977
28703,-9.707712,-0.722429,-0.306364,0.052754,0.144314,-0.074524,-0.013127,0.025019,-0.104046,-0.097081,-0.007174,-0.003051,1.000000,-0.000066,0.000125,-0.000520,0.384927,-0.624147,0.362867,0.574978,-123.887633,85.632291,-7.784262
28704,-9.674170,-0.710687,-0.346470,0.053886,0.100031,-0.106928,0.010241,0.020388,-0.102601,-0.096746,-0.007057,-0.003455,1.000000,0.000051,0.000102,-0.000513,0.385196,-0.624321,0.362632,0.574756,-123.572294,85.586138,-7.473320
28705,-9.678091,-0.596934,-0.360177,-0.051213,0.035179,-0.109717,0.017271,0.027254,-0.105448,-0.096785,-0.005918,-0.003589,1.000000,0.000086,0.000136,-0.000527,0.385480,-0.624524,0.362423,0.574477,-123.308876,85.533933,-7.218375
28706,-9.656547,-0.454695,-0.335170,-0.196577,-0.008085,-0.141635,0.010957,0.019378,-0.106189,-0.096568,-0.004495,-0.003343,1.000000,0.000055,0.000097,-0.000531,0.385764,-0.624701,0.362177,0.574250,-122.985652,85.486110,-6.899894
28707,-9.668924,-0.344490,-0.325652,-0.309641,-0.050991,-0.137238,-0.012481,0.018936,-0.114293,-0.096691,-0.003390,-0.003247,1.000000,-0.000062,0.000095,-0.000571,0.385996,-0.624953,0.361838,0.574033,-122.666997,85.432021,-6.572403
28708,-9.692236,-0.315841,-0.356668,-0.332753,-0.094664,-0.114919,-0.030890,0.019928,-0.114295,-0.096924,-0.003104,-0.003557,1.000000,-0.000154,0.000100,-0.000571,0.386170,-0.625227,0.361448,0.573864,-122.354036,85.379850,-6.240105
28709,-9.662690,-0.466017,-0.366900,-0.201083,-0.041172,-0.133987,-0.048329,0.016087,-0.117225,-0.096630,-0.004604,-0.003660,1.000000,-0.000242,0.000080,-0.000586,0.386303,-0.625545,0.360992,0.573715,-122.042757,85.324929,-5.899359
28710,-9.658339,-0.645083,-0.415833,-0.028397,-0.009846,-0.123949,-0.046908,0.015776,-0.119431,-0.096588,-0.006394,-0.004149,1.000000,-0.000235,0.000079,-0.000597,0.386450,-0.625846,0.360531,0.573577,-121.710539,85.271233,-5.538529
28711,-9.698069,-0.657399,-0.405580,-0.035146,0.001397,-0.083969,-0.041712,0.011732,-0.124028,-0.096985,-0.006515,-0.004049,1.000000,-0.000209,0.000059,-0.000620,0.386631,-0.626151,0.360064,0.573416,-121.360940,85.213978,-5.163080
28712,-9.673314,-0.684315,-0.427013,-0.009366,-0.010193,-0.105812,-0.043342,0.015838,-0.122446,-0.096738,-0.006785,-0.004261,1.000000,-0.000217,0.000079,-0.000612,0.386797,-0.626451,0.359604,0.573265,-121.032669,85.158421,-4.808147
28713,-9.632544,-0.729337,-0.445299,0.032326,-0.010807,-0.142375,-0.044720,0.009416,-0.123496,-0.096330,-0.007235,-0.004447,1.000000,-0.000224,0.000047,-0.000617,0.386971,-0.626753,0.359126,0.573117,-120.689877,85.101746,-4.437738
28714,-9.704718,-0.764023,-0.396862,0.026398,0.044085,-0.069991,-0.046360,0.008493,-0.120222,-0.097052,-0.007583,-0.003963,1.000000,-0.000232,0.000042,-0.000601,0.387133,-0.627033,0.358649,0.572999,-120.344531,85.049045,-4.063884
28715,-9.679689,-0.814882,-0.369053,0.052171,0.087371,-0.092283,-0.041390,0.008282,-0.117132,-0.096802,-0.008093,-0.003685,1.000000,-0.000207,0.000041,-0.000586,0.387301,-0.627314,0.358198,0.572861,-120.030146,84.995483,-3.723844
28716,-9.685441,-0.761023,-0.337454,-0.019548,0.087546,-0.091950,-0.041705,0.008759,-0.119469,-0.096859,-0.007553,-0.003369,1.000000,-0.000209,0.000044,-0.000597,0.387476,-0.627584,0.357738,0.572734,-119.700840,84.942694,-3.368708
28717,-9.683769,-0.762685,-0.284855,-0.050663,0.131365,-0.095776,-0.047883,0.007520,-0.116871,-0.096842,-0.007571,-0.002843,1.000000,-0.000239,0.000038,-0.000584,0.387624,-0.627875,0.357266,0.572610,-119.400570,84.889153,-3.039050
28718,-9.675449,-0.804512,-0.313944,-0.008550,0.119819,-0.099517,-0.059931,0.009584,-0.111027,-0.096759,-0.007992,-0.003132,1.000000,-0.000300,0.000048,-0.000555,0.387715,-0.628168,0.356782,0.572529,-119.126078,84.840006,-2.728402
28719,-9.634186,-0.872469,-0.283591,0.033479,0.173805,-0.136540,-0.064005,0.012088,-0.107610,-0.096347,-0.008674,-0.002827,1.000000,-0.000320,0.000060,-0.000538,0.387777,-0.628485,0.356302,0.572437,-118.900613,84.789564,-2.464528
28720,-9.651287,-1.059388,-0.264989,0.182295,0.271007,-0.105310,-0.062085,0.017946,-0.095715,-0.096518,-0.010549,-0.002638,1.000000,-0.000310,0.000090,-0.000479,0.387804,-0.628778,0.355875,0.572362,-118.729235,84.745549,-2.256179
28721,-9.659220,-1.115510,-0.302982,0.240418,0.259778,-0.090990,-0.053024,0.011896,-0.097694,-0.096598,-0.011109,-0.003021,1.000000,-0.000265,0.000059,-0.000488,0.387872,-0.629056,0.355458,0.572270,-118.534158,84.699989,-2.029102
28722,-9.681459,-1.041312,-0.275001,0.152412,0.249255,-0.075889,-0.041081,0.018633,-0.089087,-0.096819,-0.010371,-0.002739,1.000000,-0.000205,0.000093,-0.000445,0.387944,-0.629299,0.355113,0.572169,-118.380036,84.658957,-1.850130
28723,-9.637582,-0.868102,-0.209872,-0.034091,0.228164,-0.136562,-0.042755,0.017708,-0.085841,-0.096380,-0.008640,-0.002088,1.000000,-0.000214,0.000089,-0.000429,0.388001,-0.629552,0.354773,0.572063,-118.250899,84.617682,-1.695162
28724,-9.659991,-0.758855,-0.177017,-0.154749,0.206909,-0.124764,-0.049972,0.021254,-0.080325,-0.096603,-0.007550,-0.001758,1.000000,-0.000250,0.000106,-0.000402,0.388015,-0.629804,0.354435,0.571986,-118.145419,84.580260,-1.559911
28725,-9.644398,-0.744315,-0.327777,-0.105781,0.064527,-0.134852,-0.075272,0.023461,-0.077477,-0.096447,-0.007407,-0.003264,1.000000,-0.000376,0.000117,-0.000387,0.387935,-0.630121,0.354040,0.571935,-118.092863,84.541608,-1.463135
28726,-9.660964,-0.869952,-0.354169,0.010033,0.096416,-0.106655,-0.084932,0.023736,-0.075147,-0.096613,-0.008665,-0.003527,1.000000,-0.000425,0.000119,-0.000376,0.387820,-0.630438,0.353623,0.571922,-118.037761,84.506098,-1.358365
28727,-9.662044,-0.997724,-0.480322,0.173693,0.040842,-0.089035,-0.087629,0.024261,-0.070631,-0.096625,-0.009945,-0.004787,1.000000,-0.000438,0.000121,-0.000353,0.387679,-0.630770,0.353215,0.571904,-118.017492,84.470679,-1.286901
28728,-9.669067,-1.066312,-0.417021,0.200248,0.127785,-0.078965,-0.067067,0.020493,-0.064755,-0.096695,-0.010633,-0.004157,1.000000,-0.000335,0.000102,-0.000324,0.387596,-0.631024,0.352875,0.571889,-117.965836,84.441252,-1.195852
28729,-9.692795,-1.032947,-0.448513,0.176846,0.084411,-0.056663,-0.044147,0.025069,-0.065720,-0.096932,-0.010299,-0.004471,1.000000,-0.000221,0.000125,-0.000329,0.387577,-0.631265,0.352608,0.571801,-117.939645,84.408093,-1.143463
28730,-9.634060,-0.909552,-0.385349,0.039516,0.084462,-0.128567,-0.033338,0.023285,-0.060904,-0.096344,-0.009067,-0.003841,1.000000,-0.000167,0.000116,-0.000305,0.387585,-0.631455,0.352383,0.571724,-117.894972,84.379803,-1.078866
28731,-9.632327,-0.862424,-0.275406,-0.056552,0.161418,-0.139420,-0.045088,0.029799,-0.054377,-0.096326,-0.008599,-0.002738,1.000000,-0.000225,0.000149,-0.000272,0.387523,-0.631691,0.352158,0.571645,-117.925230,84.351114,-1.082653
28732,-9.681148,-0.856890,-0.346367,-0.038884,0.095872,-0.088071,-0.046445,0.026720,-0.053806,-0.096814,-0.008544,-0.003449,1.000000,-0.000232,0.000134,-0.000269,0.387463,-0.631904,0.351923,0.571594,-117.925398,84.325480,-1.055537
28733,-9.623282,-0.868976,-0.304380,-0.045984,0.139125,-0.146569,-0.054046,0.027398,-0.052343,-0.096236,-0.008665,-0.003028,1.000000,-0.000270,0.000137,-0.000262,0.387370,-0.632147,0.351675,0.571542,-117.953888,84.298465,-1.052388
28734,-9.655307,-0.998946,-0.286072,0.053952,0.214918,-0.104156,-0.067852,0.028439,-0.043309,-0.096556,-0.009970,-0.002844,1.000000,-0.000339,0.000142,-0.000217,0.387209,-0.632388,0.351416,0.571544,-118.003269,84.277674,-1.062349
28735,-9.679705,-1.134091,-0.344604,0.193809,0.225195,-0.065210,-0.051191,0.028450,-0.043408,-0.096800,-0.011321,-0.003429,1.000000,-0.000256,0.000142,-0.000217,0.387098,-0.632612,0.351206,0.571500,-118.058979,84.254895,-1.088201
28736,-9.646682,-1.012451,-0.369474,0.096810,0.148771,-0.107609,-0.055679,0.031428,-0.042374,-0.096470,-0.010105,-0.003677,1.000000,-0.000278,0.000157,-0.000212,0.386968,-0.632836,0.350989,0.571472,-118.118202,84.233719,-1.115141
28737,-9.630105,-0.906517,-0.402791,0.015901,0.072662,-0.131912,-0.060492,0.034850,-0.035344,-0.096303,-0.009049,-0.004008,1.000000,-0.000302,0.000174,-0.000177,0.386793,-0.633082,0.350791,0.571440,-118.232001,84.213275,-1.194025
28738,-9.678204,-0.812682,-0.356099,-0.096283,0.073366,-0.094651,-0.056306,0.034003,-0.033691,-0.096784,-0.008112,-0.003542,1.000000,-0.000282,0.000170,-0.000168,0.386632,-0.633300,0.350605,0.571422,-118.326697,84.195749,-1.256291
28739,-9.653498,-0.795973,-0.374353,-0.103603,0.051365,-0.119887,-0.056285,0.033996,-0.033677,-0.096537,-0.007945,-0.003725,1.000000,-0.000281,0.000170,-0.000168,0.386467,-0.633532,0.350422,0.571388,-118.437080,84.176350,-1.334168
28740,-9.677409,-0.818835,-0.363522,-0.093657,0.073025,-0.094623,-0.050725,0.032892,-0.034266,-0.096776,-0.008173,-0.003617,1.000000,-0.000254,0.000164,-0.000171,0.386326,-0.633737,0.350248,0.571363,-118.520708,84.158810,-1.388449
28741,-9.644010,-0.985153,-0.329354,0.038261,0.181191,-0.114665,-0.048285,0.036143,-0.031047,-0.096442,-0.009837,-0.003274,1.000000,-0.000241,0.000181,-0.000155,0.386175,-0.633956,0.350100,0.571313,-118.642939,84.140118,-1.482849
28742,-9.676138,-1.054403,-0.355168,0.105222,0.191672,-0.075247,-0.028532,0.033468,-0.029934,-0.096764,-0.010530,-0.003534,1.000000,-0.000143,0.000167,-0.000150,0.386092,-0.634112,0.350005,0.571255,-118.727274,84.124553,-1.550658
28743,-9.651222,-0.994271,-0.313845,0.032940,0.202799,-0.107486,-0.025403,0.034078,-0.027020,-0.096514,-0.009930,-0.003121,1.000000,-0.000127,0.000170,-0.000135,0.386006,-0.634273,0.349931,0.571180,-118.835946,84.108420,-1.644613
28744,-9.618519,-0.973261,-0.354520,0.033839,0.158577,-0.139914,-0.025736,0.032881,-0.026046,-0.096187,-0.009721,-0.003528,1.000000,-0.000129,0.000164,-0.000130,0.385921,-0.634415,0.349854,0.571126,-118.925222,84.094922,-1.719001
28745,-9.634958,-0.830111,-0.392880,-0.079533,0.061056,-0.134578,-0.024343,0.034253,-0.023254,-0.096351,-0.008290,-0.003911,1.000000,-0.000122,0.000171,-0.000116,0.385827,-0.634568,0.349796,0.571055,-119.043224,84.080593,-1.822951
28746,-9.650870,-0.848498,-0.405105,-0.061646,0.060774,-0.116510,-0.036117,0.040774,-0.025073,-0.096511,-0.008474,-0.004030,1.000000,-0.000181,0.000204,-0.000125,0.385693,-0.634751,0.349708,0.570996,-119.178247,84.065335,-1.937377
28747,-9.617936,-0.775361,-0.333187,-0.158319,0.093813,-0.159552,-0.048895,0.038678,-0.022356,-0.096181,-0.007744,-0.003311,1.000000,-0.000244,0.000193,-0.000112,0.385511,-0.634962,0.349590,0.570956,-119.332805,84.050166,-2.063943
28748,-9.625974,-0.798380,-0.422128,-0.100194,0.027738,-0.145000,-0.077912,0.032676,-0.018874,-0.096261,-0.007976,-0.004202,1.000000,-0.000390,0.000163,-0.000094,0.385240,-0.635191,0.349387,0.571008,-119.468574,84.040216,-2.154999
28749,-9.666035,-0.903940,-0.431142,-0.008785,0.071180,-0.095174,-0.084802,0.034006,-0.016017,-0.096662,-0.009033,-0.004291,1.000000,-0.000424,0.000170,-0.000080,0.384934,-0.635447,0.349178,0.571058,-119.637321,84.029460,-2.275152
28750,-9.657574,-0.935397,-0.463264,0.033256,0.059672,-0.099106,-0.078193,0.029760,-0.014546,-0.096577,-0.009349,-0.004615,1.000000,-0.000391,0.000149,-0.000073,0.384655,-0.635661,0.348982,0.571127,-119.770405,84.022428,-2.363355
28751,-9.624460,-1.006485,-0.466894,0.099482,0.091803,-0.125433,-0.057792,0.034534,-0.016977,-0.096246,-0.010058,-0.004649,1.000000,-0.000289,0.000173,-0.000085,0.384437,-0.635868,0.348848,0.571126,-119.922675,84.010980,-2.482506
28752,-9.648834,-0.925402,-0.439713,0.011486,0.081262,-0.109957,-0.034637,0.037025,-0.012214,-0.096490,-0.009249,-0.004378,1.000000,-0.000173,0.000185,-0.000061,0.384277,-0.636015,0.348797,0.571101,-120.070852,84.002946,-2.610988
28753,-9.657430,-0.726046,-0.387010,-0.191210,0.038763,-0.122238,-0.031161,0.033883,-0.016993,-0.096576,-0.007253,-0.003853,1.000000,-0.000156,0.000169,-0.000085,0.384144,-0.636169,0.348738,0.571055,-120.203811,83.991614,-2.726066
28754,-9.632696,-0.733115,-0.356692,-0.197945,0.071085,-0.147839,-0.063622,0.036108,-0.018714,-0.096328,-0.007323,-0.003547,1.000000,-0.000318,0.000181,-0.000094,0.383912,-0.636381,0.348582,0.571070,-120.345725,83.980556,-2.831547
28755,-9.640121,-0.840390,-0.354807,-0.106757,0.125214,-0.130901,-0.082590,0.032676,-0.013473,-0.096402,-0.008399,-0.003529,1.000000,-0.000413,0.000163,-0.000067,0.383608,-0.636623,0.348385,0.571125,-120.511224,83.971252,-2.949721
28756,-9.663446,-1.039874,-0.426714,0.098807,0.156718,-0.085854,-0.093260,0.029279,-0.008277,-0.096636,-0.010397,-0.004248,1.000000,-0.000466,0.000146,-0.000041,0.383264,-0.636854,0.348165,0.571233,-120.666146,83.967273,-3.051278
28757,-9.679583,-1.022481,-0.433309,0.083772,0.145991,-0.071064,-0.080803,0.030190,-0.009990,-0.096797,-0.010222,-0.004314,1.000000,-0.000404,0.000151,-0.000050,0.382959,-0.637079,0.347979,0.571299,-120.827961,83.960343,-3.166780
28758,-9.621761,-1.166284,-0.414566,0.207373,0.231958,-0.116628,-0.061477,0.031297,-0.001175,-0.096218,-0.011664,-0.004127,1.000000,-0.000307,0.000156,-0.000006,0.382693,-0.637242,0.347876,0.571359,-120.993432,83.959164,-3.297252
28759,-9.646231,-1.126181,-0.446556,0.184073,0.188582,-0.094250,-0.031472,0.034091,0.005782,-0.096463,-0.011265,-0.004447,1.000000,-0.000157,0.000170,0.000029,0.382493,-0.637357,0.347889,0.571356,-121.188678,83.958746,-3.474794
28760,-9.646585,-1.023622,-0.433314,0.087543,0.156072,-0.103921,-0.017332,0.044324,0.000966,-0.096467,-0.010237,-0.004311,1.000000,-0.000087,0.000222,0.000005,0.382339,-0.637469,0.347943,0.571302,-121.394784,83.954616,-3.671458
28761,-9.646782,-0.955065,-0.425837,0.023387,0.134580,-0.110357,-0.013188,0.036742,0.007525,-0.096468,-0.009555,-0.004240,1.000000,-0.000066,0.000184,0.000038,0.382188,-0.637554,0.348018,0.571263,-121.596544,83.954124,-3.866087
28762,-9.597991,-0.965064,-0.361566,0.008394,0.199535,-0.161592,-0.003219,0.042566,0.019379,-0.095980,-0.009660,-0.003595,1.000000,-0.000016,0.000213,0.000097,0.382029,-0.637602,0.348168,0.571224,-121.838552,83.959312,-4.107052
28763,-9.678479,-1.145890,-0.426306,0.189891,0.231871,-0.061896,-0.001842,0.048962,0.020577,-0.096785,-0.011469,-0.004239,1.000000,-0.000009,0.000245,0.000103,0.381855,-0.637677,0.348341,0.571151,-122.127523,83.961281,-4.395914
28764,-9.662193,-1.161640,-0.428042,0.207503,0.242289,-0.076732,0.023678,0.048063,0.025170,-0.096621,-0.011628,-0.004259,1.000000,0.000118,0.000240,0.000126,0.381756,-0.637679,0.348596,0.571059,-122.396745,83.967318,-4.679726
28765,-9.743896,-1.129242,-0.403989,0.160768,0.254034,0.000137,0.050930,0.046399,0.029894,-0.097438,-0.011306,-0.004020,1.000000,0.000255,0.000232,0.000149,0.381729,-0.637630,0.348944,0.570920,-122.671610,83.974284,-4.984803
28766,-9.695153,-1.120344,-0.441542,0.177736,0.220547,-0.047142,0.067494,0.043051,0.036470,-0.096950,-0.011220,-0.004398,1.000000,0.000337,0.000215,0.000182,0.381746,-0.637515,0.349350,0.570789,-122.927169,83.987011,-5.280081
28767,-9.622141,-1.057189,-0.487094,0.153203,0.154645,-0.122842,0.089261,0.044162,0.038505,-0.096220,-0.010588,-0.004854,1.000000,0.000446,0.000221,0.000193,0.381820,-0.637370,0.349831,0.570606,-123.197156,83.998516,-5.602324
28768,-9.566280,-0.856682,-0.410834,-0.049889,0.133212,-0.200395,0.091010,0.048322,0.045403,-0.095662,-0.008587,-0.004089,1.000000,0.000455,0.000242,0.000227,0.381877,-0.637209,0.350343,0.570433,-123.492320,84.013523,-5.950982
28769,-9.623812,-0.734546,-0.389835,-0.170486,0.101499,-0.155052,0.064122,0.052800,0.044740,-0.096237,-0.007366,-0.003875,1.000000,0.000321,0.000264,0.000224,0.381838,-0.637127,0.350788,0.570278,-123.837496,84.024903,-6.334327
28770,-9.681018,-0.586787,-0.417704,-0.291147,0.014904,-0.109290,0.047573,0.052727,0.044807,-0.096810,-0.005889,-0.004153,1.000000,0.000238,0.000264,0.000224,0.381750,-0.637062,0.351182,0.570167,-124.178861,84.037798,-6.704391
28771,-9.599885,-0.570273,-0.390832,-0.307142,0.036239,-0.192911,0.021350,0.051264,0.042084,-0.095999,-0.005723,-0.003884,1.000000,0.000107,0.000256,0.000210,0.381585,-0.637061,0.351494,0.570087,-124.536166,84.047934,-7.075274
28772,-9.753966,-0.749158,-0.456239,-0.132517,0.068834,-0.020500,-0.001765,0.055443,0.040666,-0.097539,-0.007511,-0.004535,1.000000,-0.000009,0.000277,0.000203,0.381347,-0.637105,0.351739,0.570045,-124.908111,84.057539,-7.447618
28773,-9.639052,-0.862713,-0.596523,0.046106,0.001555,-0.116848,0.009639,0.049424,0.040162,-0.096390,-0.008646,-0.005942,1.000000,0.000048,0.000247,0.000201,0.381153,-0.637124,0.352008,0.569988,-125.260159,84.066891,-7.806458
28774,-9.550025,-0.868212,-0.543814,0.038578,0.055271,-0.208108,0.015184,0.051649,0.041306,-0.095500,-0.008701,-0.005414,1.000000,0.000076,0.000258,0.000207,0.380974,-0.637124,0.352297,0.569929,-125.610026,84.077551,-8.166408
28775,-9.565956,-0.786904,-0.594527,-0.009423,-0.020801,-0.196053,-0.002402,0.054749,0.039291,-0.095660,-0.007888,-0.005919,1.000000,-0.000012,0.000274,0.000196,0.380735,-0.637183,0.352538,0.569874,-125.992262,84.084248,-8.548650
28776,-9.582260,-0.662939,-0.585814,-0.122157,-0.064050,-0.190663,-0.008270,0.051322,0.039125,-0.095823,-0.006648,-0.005833,1.000000,-0.000041,0.000257,0.000196,0.380487,-0.637230,0.352752,0.569854,-126.349268,84.093522,-8.902210
28777,-9.573926,-0.450899,-0.580242,-0.309063,-0.150471,-0.216757,-0.055887,0.059979,0.038456,-0.095740,-0.004529,-0.005772,1.000000,-0.000279,0.000300,0.000192,0.380071,-0.637407,0.352849,0.569875,-126.784444,84.097522,-9.306856
28778,-9.630770,-0.328595,-0.561671,-0.429348,-0.182481,-0.171239,-0.121423,0.063913,0.033292,-0.096309,-0.003305,-0.005584,1.000000,-0.000607,0.000320,0.000166,0.379457,-0.637715,0.352746,0.570002,-127.244690,84.099232,-9.699124
28779,-9.598078,-0.394733,-0.568210,-0.363236,-0.150320,-0.197739,-0.203785,0.066597,0.029146,-0.095982,-0.003967,-0.005646,0.999999,-0.001019,0.000333,0.000146,0.378584,-0.638207,0.352403,0.570244,-127.763011,84.096010,-10.102165
28780,-9.590607,-0.574334,-0.525433,-0.222614,-0.020384,-0.193139,-0.221828,0.078920,0.031013,-0.095907,-0.005764,-0.005210,0.999999,-0.001109,0.000395,0.000155,0.377629,-0.638751,0.352036,0.570495,-128.338718,84.090692,-10.552687
28781,-9.681134,-0.671599,-0.453406,-0.178792,0.100086,-0.099861,-0.256097,0.072376,0.029982,-0.096812,-0.006736,-0.004490,0.999999,-0.001280,0.000362,0.000150,0.376575,-0.639355,0.351556,0.570811,-128.913528,84.084967,-10.982394
28782,-9.624789,-0.947854,-0.463439,0.075271,0.229096,-0.133245,-0.215230,0.071729,0.028681,-0.096248,-0.009497,-0.004590,0.999999,-0.001076,0.000359,0.000143,0.375659,-0.639868,0.351185,0.571068,-129.444656,84.080320,-11.391783
28783,-9.675611,-1.103575,-0.361069,0.159633,0.403671,-0.077326,-0.202366,0.071900,0.037853,-0.096755,-0.011058,-0.003565,0.999999,-0.001012,0.000359,0.000189,0.374754,-0.640354,0.350882,0.571304,-130.012652,84.077387,-11.845597
28784,-9.618832,-1.217399,-0.396293,0.282702,0.435121,-0.122910,-0.166092,0.074249,0.037529,-0.096187,-0.012195,-0.003917,1.000000,-0.000830,0.000371,0.000188,0.373964,-0.640767,0.350682,0.571482,-130.556209,84.074837,-12.295633
28785,-9.595903,-1.177155,-0.311061,0.210554,0.500846,-0.155120,-0.155691,0.077820,0.046877,-0.095957,-0.011796,-0.003064,1.000000,-0.000778,0.000389,0.000234,0.373171,-0.641165,0.350552,0.571633,-131.153730,84.072676,-12.806020
28786,-9.643717,-1.023069,-0.365190,0.097902,0.392321,-0.116410,-0.170965,0.094387,0.059502,-0.096436,-0.010262,-0.003598,0.999999,-0.000855,0.000472,0.000298,0.372268,-0.641604,0.350446,0.571794,-131.862274,84.070856,-13.419284
28787,-9.603277,-0.667268,-0.270335,-0.252425,0.317461,-0.191006,-0.190393,0.096845,0.066820,-0.096032,-0.006707,-0.002650,0.999999,-0.000952,0.000484,0.000334,0.371273,-0.642085,0.350315,0.571981,-132.630313,84.068546,-14.081121
28788,-9.637834,-0.680040,-0.643269,-0.064795,0.010763,-0.129725,-0.281346,0.107315,0.076056,-0.096379,-0.006846,-0.006371,0.999999,-0.001407,0.000537,0.000380,0.369946,-0.642734,0.349970,0.572323,-133.514510,84.066849,-14.807623
28789,-9.521989,-0.507355,-0.686666,-0.180043,-0.098576,-0.254705,-0.274811,0.108519,0.073803,-0.095222,-0.005118,-0.006808,0.999999,-0.001374,0.000543,0.000369,0.368638,-0.643391,0.349641,0.572631,-134.402320,84.060734,-15.541254
28790,-9.530628,-0.603983,-0.695588,-0.088557,-0.044672,-0.238156,-0.286154,0.109702,0.082196,-0.095308,-0.006089,-0.006895,0.999999,-0.001431,0.000549,0.000411,0.367271,-0.644043,0.349303,0.572982,-135.320992,84.058231,-16.299427
28791,-9.648356,-0.526911,-0.873062,-0.078477,-0.218583,-0.113373,-0.286037,0.108801,0.066644,-0.096487,-0.005314,-0.008671,0.999999,-0.001430,0.000544,0.000333,0.365945,-0.644730,0.348917,0.573293,-136.184519,84.046766,-17.002193
28792,-9.568294,-0.290814,-0.702917,-0.355146,-0.174260,-0.222359,-0.277145,0.105093,0.059067,-0.095686,-0.002946,-0.006975,0.999999,-0.001386,0.000525,0.000295,0.364679,-0.645389,0.348521,0.573598,-136.985459,84.034676,-17.647181
28793,-9.553983,-0.060786,-0.157755,-0.816779,0.199217,-0.294266,-0.269301,0.102825,0.052772,-0.095540,-0.000635,-0.001528,0.999999,-0.001347,0.000514,0.000264,0.363455,-0.646050,0.348126,0.573871,-137.754912,84.018296,-18.265033
28794,-9.512331,0.047638,-0.157302,-0.905921,0.155486,-0.343444,-0.302316,0.102217,0.043295,-0.095124,0.000453,-0.001525,0.999999,-0.001512,0.000511,0.000216,0.362157,-0.646771,0.347601,0.574198,-138.488599,83.999672,-18.828103
28795,-9.584523,0.305194,0.230396,-1.326358,0.376488,-0.320146,-0.356703,0.103565,0.041986,-0.095845,0.003036,0.002348,0.999998,-0.001784,0.000518,0.000210,0.360679,-0.647607,0.346919,0.574598,-139.258364,83.977227,-19.395959
28796,-9.601436,-0.051089,0.086539,-0.949373,0.439900,-0.267907,-0.547208,0.099185,0.044381,-0.096014,-0.000530,0.000914,0.999996,-0.002736,0.000496,0.000222,0.358586,-0.648754,0.345685,0.575357,-140.117556,83.958848,-19.944050
28797,-9.537825,-0.824104,-0.816735,0.173685,0.062563,-0.206325,-0.693354,0.114429,0.051239,-0.095381,-0.008294,-0.008084,0.999994,-0.003467,0.000572,0.000256,0.355966,-0.650201,0.344080,0.576312,-141.145337,83.933140,-20.577444
28798,-9.412576,-1.224258,-0.821074,0.532991,0.277979,-0.304366,-0.566256,0.115573,0.056023,-0.094127,-0.012292,-0.008122,0.999996,-0.002831,0.000578,0.000280,0.353743,-0.651397,0.342851,0.577063,-142.109045,83.909676,-21.219601
28799,-9.459203,-1.472277,-1.024156,0.844524,0.254907,-0.225468,-0.457591,0.133892,0.069567,-0.094594,-0.014779,-0.010144,0.999997,-0.002288,0.000669,0.000348,0.351797,-0.652438,0.342014,0.577572,-143.128977,83.879180,-21.981015
28800,-9.982841,-0.487101,-1.026280,-0.044874,-0.217569,0.232126,-0.329696,0.125047,0.053770,-0.099833,-0.004915,-0.010192,0.999998,-0.001648,0.000625,0.000269,0.350330,-0.653242,0.341471,0.577876,-143.962710,83.848181,-22.628540
28801,-9.916877,0.613527,-0.782730,-1.098213,-0.572761,0.076670,-0.392214,0.103695,0.045869,-0.099174,0.006097,-0.007788,0.999998,-0.001961,0.000518,0.000229,0.348715,-0.654117,0.340689,0.578325,-144.733446,83.821401,-23.177068
28802,-9.884178,0.351297,-1.138764,-0.682294,-0.728144,0.092939,-0.580068,0.094799,0.043458,-0.098848,0.003459,-0.011351,0.999996,-0.002900,0.000474,0.000217,0.346509,-0.655280,0.339334,0.579130,-145.560797,83.799346,-23.674220
28803,-9.540207,-0.800738,-1.483359,0.513323,-0.408981,-0.146960,-0.650190,0.091455,0.054347,-0.095407,-0.008081,-0.014764,0.999995,-0.003251,0.000457,0.000272,0.344040,-0.656543,0.337807,0.580064,-146.468924,83.779394,-24.212317
28804,-9.745194,-1.808534,-2.164795,1.708401,-0.413902,0.179107,-0.512974,0.095574,0.043720,-0.097458,-0.018162,-0.021555,0.999997,-0.002565,0.000478,0.000219,0.342047,-0.657582,0.336644,0.580741,-147.251855,83.755264,-24.703739
28805,-9.590755,-1.707328,-1.633620,1.358534,-0.009166,-0.029000,-0.253640,0.081892,0.053242,-0.095910,-0.017119,-0.016275,0.999999,-0.001268,0.000409,0.000266,0.340896,-0.658131,0.336243,0.581028,-147.892256,83.738023,-25.201117
28806,-9.556226,-1.468231,-0.892152,0.766770,0.495588,-0.146274,-0.136553,0.078612,0.061744,-0.095561,-0.014718,-0.008874,1.000000,-0.000683,0.000393,0.000309,0.340115,-0.658444,0.336203,0.581155,-148.485394,83.726200,-25.718622
28807,-9.912057,-1.224941,-0.634008,0.391340,0.609088,0.168653,-0.076794,0.090337,0.068985,-0.099119,-0.012286,-0.006291,1.000000,-0.000384,0.000452,0.000345,0.339486,-0.658689,0.336381,0.581142,-149.111521,83.708337,-26.303607
28808,-9.904140,-0.985286,-0.307136,0.018362,0.763579,0.115742,-0.078787,0.071252,0.065927,-0.099039,-0.009887,-0.003032,1.000000,-0.000394,0.000356,0.000330,0.338894,-0.658875,0.336507,0.581204,-149.665090,83.700227,-26.814311
28809,-9.687623,-1.337993,-0.645598,0.520838,0.672369,-0.048789,-0.119924,0.066969,0.093290,-0.096872,-0.013429,-0.006415,1.000000,-0.000600,0.000335,0.000466,0.338090,-0.659084,0.336600,0.581381,-150.359392,83.699569,-27.443042
28810,-9.706425,-1.428214,-0.877819,0.725699,0.540299,-0.004197,-0.089642,0.066864,0.109738,-0.097059,-0.014339,-0.008739,1.000000,-0.000448,0.000334,0.000549,0.337344,-0.659201,0.336831,0.581548,-151.103588,83.704526,-28.139489
28811,-9.667639,-1.636017,-1.198588,1.084197,0.396418,-0.002297,-0.061275,0.061896,0.135829,-0.096669,-0.016429,-0.011951,1.000000,-0.000306,0.000309,0.000679,0.336618,-0.659223,0.337226,0.581714,-151.946778,83.716223,-28.951803
28812,-9.658321,-1.605319,-1.467745,1.214691,0.166289,0.011332,0.068790,0.060076,0.153905,-0.096575,-0.016122,-0.014654,1.000000,0.000344,0.000300,0.000770,0.336278,-0.658979,0.338051,0.581709,-152.789820,83.734122,-29.839038
28813,-9.597819,-0.981708,-1.014443,0.464911,0.213451,-0.125104,0.160899,0.057088,0.166460,-0.095973,-0.009889,-0.010125,0.999999,0.000804,0.000285,0.000832,0.336203,-0.658560,0.339184,0.581567,-153.644456,83.753554,-30.790874
28814,-9.853084,-0.411887,-1.008599,-0.027878,-0.066339,0.100183,0.174805,0.046429,0.169966,-0.098530,-0.004194,-0.010067,0.999999,0.000874,0.000232,0.000850,0.336186,-0.658070,0.340345,0.581453,-154.481745,83.779602,-31.733120
28815,-9.619712,0.006659,-0.864725,-0.422758,-0.174915,-0.165029,0.147161,0.031247,0.168988,-0.096198,-0.000008,-0.008632,0.999999,0.000736,0.000156,0.000845,0.336101,-0.657593,0.341403,0.581422,-155.311206,83.810008,-32.651623
28816,-9.634699,-0.166884,-1.030247,-0.176733,-0.208989,-0.125493,0.097665,0.017278,0.174813,-0.096346,-0.001748,-0.010295,0.999999,0.000488,0.000086,0.000874,0.335866,-0.657138,0.342306,0.581541,-156.169100,83.849324,-33.570162
28817,-9.567296,-0.303632,-1.204290,0.051150,-0.275995,-0.169200,0.102127,0.005391,0.175487,-0.095671,-0.003114,-0.012042,0.999999,0.000511,0.000027,0.000877,0.335657,-0.656649,0.343210,0.581681,-157.020750,83.891849,-34.484898
28818,-9.585942,-0.486877,-1.125701,0.175933,-0.102033,-0.150744,0.120378,0.004426,0.169513,-0.095856,-0.004943,-0.011258,0.999999,0.000602,0.000022,0.000848,0.335531,-0.656127,0.344140,0.581794,-157.837658,83.933870,-35.374957
28819,-9.660152,-0.386589,-1.243862,0.161486,-0.243283,-0.069490,0.153668,0.001564,0.162920,-0.096598,-0.003935,-0.012441,0.999999,0.000768,0.000008,0.000815,0.335534,-0.655560,0.345145,0.581836,-158.612575,83.972964,-36.242086
28820,-9.710949,-0.112731,-0.792727,-0.299803,-0.000685,-0.073398,0.135825,-0.007332,0.157338,-0.097108,-0.001198,-0.007932,0.999999,0.000679,-0.000037,0.000787,0.335516,-0.654996,0.346058,0.581939,-159.355557,84.016244,-37.066746
28821,-9.704168,0.076648,-0.990695,-0.340735,-0.262384,-0.067264,0.083006,-0.008220,0.149467,-0.097042,0.000698,-0.009911,1.000000,0.000415,-0.000041,0.000747,0.335343,-0.654541,0.346797,0.582111,-160.104695,84.055514,-37.867118
28822,-9.623952,0.333704,-1.114219,-0.472426,-0.502539,-0.143274,0.034706,-0.011243,0.147875,-0.096241,0.003268,-0.011147,1.000000,0.000174,-0.000056,0.000739,0.335025,-0.654152,0.347376,0.582386,-160.872555,84.096854,-38.658054
28823,-9.670055,0.025730,-1.101675,-0.208683,-0.317972,-0.087481,-0.010785,-0.018864,0.150608,-0.096700,0.000184,-0.011026,1.000000,-0.000054,-0.000094,0.000753,0.334560,-0.653820,0.347827,0.582757,-161.683682,84.139849,-39.466601
28824,-9.623485,-0.420260,-1.326573,0.305544,-0.266515,-0.097571,-0.005861,-0.024451,0.149013,-0.096230,-0.004275,-0.013277,1.000000,-0.000029,-0.000122,0.000745,0.334132,-0.653456,0.348275,0.583143,-162.480944,84.186112,-40.264407
28825,-9.545950,-0.598874,-1.065766,0.339223,0.049386,-0.194884,0.000829,-0.026238,0.154568,-0.095453,-0.006062,-0.010670,1.000000,0.000004,-0.000131,0.000773,0.333706,-0.653075,0.348759,0.583524,-163.318866,84.231450,-41.106445
28826,-9.523381,-0.559621,-1.020443,0.299418,0.071095,-0.223395,0.012712,-0.022580,0.169350,-0.095228,-0.005676,-0.010216,1.000000,0.000064,-0.000113,0.000847,0.333273,-0.652651,0.349327,0.583907,-164.245768,84.277552,-42.044581
28827,-9.516302,0.086756,-0.485177,-0.514225,0.184449,-0.299304,0.058839,-0.002294,0.174337,-0.095164,0.000786,-0.004853,1.000000,0.000294,-0.000011,0.000872,0.332935,-0.652208,0.350085,0.584140,-165.222605,84.309895,-43.059502
28828,-9.772270,0.272626,-0.200622,-0.825027,0.351257,-0.075760,-0.041258,0.000788,0.172408,-0.097725,0.002642,-0.002006,1.000000,-0.000206,0.000004,0.000862,0.332275,-0.651935,0.350543,0.584546,-166.258994,84.340219,-44.076282
28829,-9.584423,0.174765,-0.338601,-0.640395,0.283680,-0.246301,-0.121775,0.006783,0.177660,-0.095846,0.001660,-0.003384,0.999999,-0.000609,0.000034,0.000888,0.331322,-0.651812,0.350798,0.585070,-167.391835,84.364227,-45.143876
28830,-9.855288,0.164216,-0.325012,-0.641621,0.328920,0.022932,-0.186428,0.003486,0.168723,-0.098554,0.001556,-0.003250,0.999999,-0.000932,0.000017,0.000844,0.330196,-0.651791,0.350825,0.585714,-168.513201,84.388742,-46.162765
28831,-9.811690,0.095957,-0.897559,-0.260128,-0.109805,0.036390,-0.266826,-0.002104,0.165606,-0.098118,0.000866,-0.008978,0.999999,-0.001334,-0.000011,0.000828,0.328821,-0.651901,0.350601,0.586499,-169.668209,84.412272,-47.169037
28832,-9.798415,-0.239890,-1.112717,0.156704,-0.101294,0.049856,-0.327732,-0.018402,0.164472,-0.097981,-0.002498,-0.011132,0.999998,-0.001639,-0.000092,0.000822,0.327281,-0.652053,0.350161,0.587453,-170.844581,84.444717,-48.161546
28833,-9.945879,-0.860884,-2.038771,1.186024,-0.520317,0.293786,-0.331103,-0.029832,0.156983,-0.099449,-0.008721,-0.020388,0.999998,-0.001656,-0.000149,0.000785,0.325768,-0.652198,0.349672,0.588423,-171.981751,84.479220,-49.112791
28834,-10.101752,-1.006691,-2.524354,1.580480,-0.827098,0.495035,-0.171309,-0.059633,0.137552,-0.101003,-0.010158,-0.025265,0.999999,-0.000857,-0.000298,0.000688,0.324888,-0.652018,0.349536,0.589190,-172.902515,84.529278,-49.938433
28835,-9.730492,-1.037549,-2.150951,1.444896,-0.523133,0.088027,0.064923,-0.091929,0.137119,-0.097288,-0.010435,-0.021558,1.000000,0.000325,-0.000460,0.000686,0.324832,-0.651368,0.350046,0.589636,-173.679265,84.594761,-50.755401
28836,-9.411582,-0.522816,-1.416528,0.650326,-0.215613,-0.305410,0.290863,-0.095351,0.132787,-0.094106,-0.005270,-0.014218,0.999999,0.001454,-0.000477,0.000664,0.325534,-0.650340,0.351198,0.589699,-174.315377,84.662502,-51.561007
28837,-9.301868,0.324273,-0.341941,-0.620378,0.216012,-0.522086,0.388632,-0.080521,0.127271,-0.093019,0.003190,-0.003451,0.999998,0.001943,-0.000403,0.000636,0.326539,-0.649212,0.352647,0.589522,-174.888574,84.719158,-52.359643
28838,-9.543677,1.032665,0.810852,-1.833913,0.824028,-0.391256,0.343393,-0.055220,0.127487,-0.095446,0.010252,0.008100,0.999998,0.001717,-0.000276,0.000637,0.327355,-0.648221,0.353999,0.589350,-175.515449,84.762132,-53.186010
28839,-10.032094,1.359764,0.952213,-2.197391,0.807332,0.082678,0.012173,-0.074502,0.118879,-0.100333,0.013537,0.009486,1.000000,0.000061,-0.000373,0.000594,0.327151,-0.647737,0.354319,0.589802,-176.283192,84.813317,-53.963284
28840,-9.555823,0.699697,0.137291,-1.164531,0.438567,-0.311441,-0.276185,-0.087257,0.129020,-0.095563,0.006937,0.001322,0.999999,-0.001381,-0.000436,0.000645,0.326010,-0.647659,0.353796,0.590833,-177.294173,84.872773,-54.818740
28841,-9.474096,-0.416331,-1.362269,0.600412,-0.225945,-0.253606,-0.382215,-0.057706,0.137095,-0.094734,-0.004254,-0.013642,0.999998,-0.001911,-0.000289,0.000685,0.324444,-0.647834,0.353037,0.591956,-178.443763,84.912271,-55.752387
28842,-9.533294,-1.055362,-1.974353,1.482386,-0.383134,-0.140497,-0.170220,-0.047236,0.140979,-0.095321,-0.010638,-0.019757,0.999999,-0.000851,-0.000236,0.000705,0.323539,-0.647678,0.352930,0.592686,-179.515500,84.945930,-56.729723
28843,-9.679750,-1.110965,-2.210369,1.665286,-0.535872,0.023835,0.073978,-0.056006,0.144012,-0.096783,-0.011171,-0.022135,1.000000,0.000370,-0.000280,0.000720,0.323426,-0.647104,0.353545,0.593007,179.522121,84.981342,-57.737723
28844,-9.394963,-0.111068,-1.548645,0.495164,-0.542596,-0.318671,0.255941,-0.061331,0.149843,-0.093944,-0.001161,-0.015517,0.999999,0.001280,-0.000307,0.000749,0.323897,-0.646201,0.354706,0.593042,178.609706,85.019878,-58.800067
28845,-9.661185,0.747262,-0.481017,-0.799719,-0.086533,-0.144119,0.214964,-0.047740,0.144427,-0.096616,0.007408,-0.004825,0.999999,0.001075,-0.000239,0.000722,0.324223,-0.645421,0.355754,0.593086,177.700261,85.047676,-59.835909
28846,-9.917116,0.797335,-0.277145,-0.946897,0.079462,0.094825,0.037822,-0.081802,0.134931,-0.099175,0.007907,-0.002811,1.000000,0.000189,-0.000409,0.000675,0.324070,-0.644835,0.356185,0.593548,176.725841,85.095278,-60.834977
28847,-9.754728,0.807488,0.042142,-1.103068,0.330339,-0.092470,-0.011472,-0.089073,0.125056,-0.097552,0.008014,0.000378,1.000000,-0.000057,-0.000445,0.000625,0.323796,-0.644332,0.356431,0.594095,175.769674,85.144435,-61.787366
28848,-9.800350,0.683742,-0.378064,-0.759657,0.044934,-0.010740,-0.080023,-0.097626,0.107205,-0.098005,0.006783,-0.003831,1.000000,-0.000400,-0.000488,0.000536,0.323372,-0.643938,0.356397,0.594774,174.866206,85.199582,-62.647260
28849,-9.559781,0.597826,-0.748294,-0.463571,-0.241849,-0.219286,-0.109547,-0.125487,0.097248,-0.095596,0.005928,-0.007546,1.000000,-0.000548,-0.000627,0.000486,0.322929,-0.643534,0.356202,0.595567,173.978596,85.268446,-63.474307
28850,-9.448407,0.405358,-1.224392,-0.026061,-0.550588,-0.292603,-0.087663,-0.097060,0.092822,-0.094480,0.004004,-0.012292,1.000000,-0.000438,-0.000485,0.000464,0.322522,-0.643178,0.356101,0.596233,173.127215,85.321938,-64.277438
28851,-9.634599,0.545136,-0.910584,-0.305061,-0.351396,-0.130989,-0.101611,-0.086761,0.081925,-0.096344,0.005407,-0.009150,1.000000,-0.000508,-0.000434,0.000410,0.322081,-0.642903,0.355942,0.596862,172.341302,85.367847,-65.006881
28852,-9.706593,-0.408556,-1.507655,0.830339,-0.335259,-0.022079,-0.061779,-0.081950,0.083763,-0.097058,-0.004131,-0.015115,1.000000,-0.000309,-0.000410,0.000419,0.321757,-0.642566,0.355913,0.597418,171.548500,85.411572,-65.766006
28853,-9.796558,0.063123,-0.995938,0.166254,-0.156457,0.031920,0.107230,-0.079282,0.070371,-0.097962,0.000602,-0.009998,1.000000,0.000536,-0.000396,0.000352,0.322007,-0.641997,0.356352,0.597632,170.943686,85.452700,-66.433722
28854,-9.926830,0.276068,-0.993256,-0.009055,-0.263938,0.164035,0.148637,-0.090282,0.049466,-0.099264,0.002744,-0.009975,1.000000,0.000743,-0.000451,0.000247,0.322476,-0.641357,0.356827,0.597783,170.480867,85.502912,-66.982695
28855,-9.792206,0.579765,-0.805621,-0.353207,-0.284716,0.019232,0.168996,-0.098953,0.043300,-0.097919,0.005783,-0.008100,0.999999,0.000845,-0.000495,0.000216,0.323040,-0.640677,0.357332,0.597906,170.059152,85.556859,-67.502161
28856,-9.780545,0.483020,-0.625449,-0.359488,-0.088416,-0.007255,0.114295,-0.097204,0.027302,-0.097803,0.004820,-0.006299,1.000000,0.000571,-0.000486,0.000137,0.323476,-0.640110,0.357622,0.598104,169.706394,85.612535,-67.920912
28857,-9.965051,0.079831,-0.864133,0.110375,-0.067840,0.189240,0.086558,-0.097054,0.008654,-0.099646,0.000798,-0.008689,1.000000,0.000433,-0.000485,0.000043,0.323876,-0.639630,0.357772,0.598311,169.474573,85.668513,-68.202485
28858,-9.850434,0.200151,-0.806663,-0.013272,-0.100763,0.072225,0.117455,-0.101963,-0.017425,-0.098500,0.002015,-0.008116,1.000000,0.000587,-0.000510,-0.000087,0.324464,-0.639123,0.357921,0.598446,169.435195,85.731308,-68.308734
28859,-10.045352,0.775787,-0.907896,-0.448946,-0.490026,0.281545,0.123940,-0.103719,-0.048782,-0.100447,0.007788,-0.009126,1.000000,0.000620,-0.000519,-0.000244,0.325167,-0.638665,0.357988,0.598513,169.643470,85.796997,-68.170438
28860,-10.313803,1.349409,-1.064243,-0.858393,-0.922804,0.567083,0.067304,-0.128489,-0.093692,-0.103125,0.013546,-0.010704,1.000000,0.000337,-0.000642,-0.000468,0.325870,-0.638296,0.357699,0.598697,170.132566,85.882449,-67.717985
28861,-10.462231,1.506906,-1.743144,-0.636467,-1.588744,0.762678,-0.030640,-0.154064,-0.138365,-0.104598,0.015139,-0.017514,0.999999,-0.000153,-0.000770,-0.000692,0.326437,-0.638098,0.356935,0.599056,170.919304,85.984856,-66.911004
28862,-10.604790,1.091984,-2.299768,0.002601,-1.853289,0.934785,0.005104,-0.172263,-0.201989,-0.106017,0.011028,-0.023089,0.999999,0.000026,-0.000861,-0.001010,0.327342,-0.637891,0.356044,0.599313,172.265498,86.103079,-65.563822
28863,-10.869659,0.760986,-2.426314,0.328053,-1.798714,1.199689,0.283340,-0.175745,-0.290192,-0.108664,0.007802,-0.024348,0.999998,0.001417,-0.000879,-0.001451,0.329403,-0.637381,0.355699,0.598930,174.625123,86.224730,-63.360949
28864,-11.067764,1.062130,-2.032770,-0.170236,-1.653006,1.367384,0.562654,-0.204026,-0.390003,-0.110636,0.010894,-0.020410,0.999994,0.002813,-0.001020,-0.001950,0.332700,-0.636491,0.355824,0.597979,178.168961,86.359512,-60.132049
28865,-10.349871,1.765387,-0.873924,-1.390036,-1.116309,0.571030,0.799806,-0.212747,-0.413644,-0.103453,0.017903,-0.008778,0.999989,0.003999,-0.001064,-0.002068,0.336832,-0.635220,0.356561,0.596577,-177.669843,86.483780,-56.421225
28866,-9.869065,2.390535,-0.459445,-2.158381,-1.137255,0.055043,0.792694,-0.155457,-0.372457,-0.098642,0.024107,-0.004576,0.999990,0.003963,-0.000777,-0.001862,0.340709,-0.634037,0.357499,0.595070,-173.710122,86.561439,-52.908562
28867,-9.765244,2.880275,0.721450,-3.207710,-0.390196,-0.131017,0.726188,-0.094841,-0.276045,-0.097616,0.028911,0.007273,0.999992,0.003631,-0.000474,-0.001380,0.343975,-0.632973,0.358640,0.593636,-170.640574,86.597850,-50.249698
28868,-9.568009,2.489180,0.105863,-2.569139,-0.733239,-0.293449,0.430240,-0.064339,-0.128062,-0.095664,0.024951,0.001081,0.999997,0.002151,-0.000322,-0.000640,0.345805,-0.632227,0.359423,0.592894,-169.170094,86.626875,-49.022968
28869,-8.996951,3.726516,0.365649,-3.749278,-1.145506,-0.891004,0.500984,-0.019128,0.162083,-0.090000,0.037183,0.003741,0.999997,0.002505,-0.000096,0.000810,0.346918,-0.630976,0.361405,0.592371,-170.499286,86.658376,-50.641323
28870,-9.210462,6.117208,1.465517,-6.358584,-1.337840,-0.747432,0.436246,0.011542,0.459922,-0.092244,0.060928,0.014794,0.999995,0.002181,0.000058,0.002300,0.346882,-0.629374,0.364192,0.592390,-174.881687,86.690754,-55.280967
28871,-9.567905,6.890338,0.662034,-6.604661,-2.360096,-0.311752,-0.099196,0.050208,0.655563,-0.095903,0.068593,0.006610,0.999994,-0.000496,0.000251,0.003278,0.344510,-0.628463,0.366065,0.593584,178.460743,86.677209,-61.892090
28872,-9.706212,5.556409,0.508947,-5.308917,-1.798153,-0.121214,-0.388451,0.046863,0.791861,-0.097280,0.055189,0.005005,0.999990,-0.001942,0.000234,0.003959,0.340820,-0.627767,0.367506,0.595558,170.428748,86.610205,-69.714398
28873,-9.444475,4.080752,0.013525,-3.699347,-1.480672,-0.327301,-0.564950,0.054458,0.889963,-0.094625,0.040387,0.000047,0.999986,-0.002825,0.000272,0.004450,0.336267,-0.627214,0.368725,0.597971,161.934221,86.459524,-77.899480
28874,-9.572547,2.829529,-0.198672,-2.429407,-0.995243,-0.180133,-0.569252,0.053089,0.913967,-0.095854,0.027852,-0.002041,0.999985,-0.002846,0.000265,0.004570,0.331614,-0.626583,0.370004,0.600435,154.020578,86.235635,-85.501920
28875,-9.182672,1.646074,-0.706017,-1.069231,-0.819393,-0.554493,-0.442671,0.016220,0.911011,-0.091901,0.016027,-0.007089,0.999987,-0.002213,0.000081,0.004555,0.327434,-0.625637,0.371571,0.602744,147.057563,85.970314,-92.226139
28876,-8.490585,1.229362,-0.312905,-0.838932,-0.279226,-1.273543,-0.302773,0.010889,0.910477,-0.084961,0.011902,-0.003143,0.999988,-0.001514,0.000054,0.004552,0.323684,-0.624414,0.373553,0.604809,141.023193,85.657094,-98.102149
28877,-8.344112,0.625445,0.016632,-0.424179,0.339705,-1.462845,-0.223674,0.026683,0.898683,-0.083468,0.005880,0.000171,0.999989,-0.001118,0.000133,0.004493,0.320190,-0.623136,0.375741,0.606629,136.055254,85.302923,-102.956329
28878,-8.516605,0.275806,-0.053447,-0.018737,0.513277,-1.306973,-0.078230,0.017351,0.916608,-0.085178,0.002367,-0.000528,0.999989,-0.000391,0.000087,0.004583,0.317096,-0.621531,0.378416,0.608235,131.724872,84.914168,-107.256978
28879,-8.603560,-0.193369,0.425753,0.206589,1.211032,-1.284493,0.074674,-0.014499,0.924147,-0.086026,-0.002333,0.004250,0.999989,0.000373,-0.000072,0.004621,0.314517,-0.619578,0.381508,0.609634,127.962986,84.510257,-111.077215
28880,-9.042280,0.438892,0.639706,-0.357891,1.151654,-0.817706,0.279076,-0.008197,0.911826,-0.090442,0.003968,0.006399,0.999989,0.001395,-0.000041,0.004559,0.312580,-0.617314,0.385197,0.610607,124.884810,84.088278,-114.330743
28881,-9.190461,1.530724,1.574635,-1.693421,1.454961,-0.631076,0.196707,-0.048153,0.881926,-0.091975,0.014886,0.015739,0.999990,0.000984,-0.000241,0.004410,0.310560,-0.615119,0.388460,0.611785,122.122355,83.678873,-117.221677
28882,-9.438498,1.436562,0.884409,-1.173996,0.973588,-0.346723,0.002682,-0.069040,0.809431,-0.094445,0.013983,0.008812,0.999992,0.000013,-0.000345,0.004047,0.308190,-0.613271,0.390877,0.613297,119.662353,83.296120,-119.698521
28883,-9.823024,1.221973,0.794154,-0.853013,1.072524,0.022827,-0.118486,-0.119495,0.699390,-0.098277,0.011881,0.007876,0.999994,-0.000592,-0.000597,0.003497,0.305889,-0.611680,0.392491,0.615005,117.455178,82.973165,-121.852585
28884,-9.748297,-0.054770,0.170494,0.618141,1.194406,-0.155961,-0.153273,-0.163417,0.591867,-0.097482,-0.000835,0.001626,0.999995,-0.000766,-0.000817,0.002959,0.303886,-0.610191,0.393608,0.616761,115.429110,82.705570,-123.805358
28885,-9.908330,-0.434453,-0.690700,1.451016,0.677728,-0.000662,-0.025397,-0.180622,0.480692,-0.099066,-0.004584,-0.006996,0.999997,-0.000127,-0.000903,0.002403,0.302656,-0.608687,0.394740,0.618126,113.764330,82.494143,-125.468781
28886,-9.377169,-0.534154,-0.107379,1.244405,1.177392,-0.577256,0.134315,-0.187577,0.421133,-0.093759,-0.005538,-0.001165,0.999997,0.000672,-0.000938,0.002106,0.302100,-0.607016,0.396180,0.619120,112.330008,82.308233,-126.992715
28887,-9.591073,-0.440415,-0.936804,1.647438,0.445349,-0.318071,0.263122,-0.157132,0.379943,-0.095895,-0.004574,-0.009449,0.999997,0.001316,-0.000786,0.001900,0.302008,-0.605340,0.397928,0.619683,111.237845,82.135167,-128.246513
28888,-9.927663,0.825965,0.135724,0.083644,0.773327,0.119784,0.457767,-0.163229,0.349904,-0.099292,0.008083,0.001295,0.999996,0.002289,-0.000816,0.001750,0.302601,-0.603389,0.400185,0.619844,110.307414,81.974799,-129.450030
28889,-9.658783,1.509917,0.557852,-0.702172,0.776378,-0.076815,0.371452,-0.176147,0.355583,-0.096619,0.014917,0.005521,0.999996,0.001857,-0.000881,0.001778,0.302947,-0.601530,0.402160,0.620203,109.331817,81.812844,-130.649782
28890,-9.538117,2.969266,1.125875,-2.214545,0.544746,-0.021941,0.263589,-0.167121,0.348939,-0.095442,0.029511,0.011218,0.999997,0.001318,-0.000836,0.001745,0.302961,-0.599854,0.403799,0.620755,108.361631,81.648260,-131.781997
28891,-9.638066,3.526085,1.667717,-2.915968,0.757092,0.138728,-0.110366,-0.171077,0.352112,-0.096457,0.035100,0.016575,0.999998,-0.000552,-0.000855,0.001761,0.301858,-0.598740,0.404271,0.622058,107.219074,81.481424,-132.872457
28892,-10.660825,3.278395,0.853444,-2.147146,0.279016,1.161880,-0.410831,-0.206596,0.337539,-0.106672,0.032621,0.008357,0.999996,-0.002054,-0.001033,0.001688,0.299963,-0.597976,0.403717,0.624068,105.818276,81.322932,-134.050313
28893,-10.255117,2.516099,0.886477,-1.506891,0.621687,0.657585,-0.613913,-0.260529,0.281049,-0.102598,0.025044,0.008654,0.999993,-0.003070,-0.001303,0.001405,0.297750,-0.597475,0.402267,0.626538,104.225373,81.201174,-135.305378
28894,-10.328073,1.251958,-0.186785,0.168384,0.317199,0.586460,-0.645021,-0.245456,0.212099,-0.103291,0.012404,-0.002035,0.999993,-0.003225,-0.001227,0.001060,0.295618,-0.597177,0.400538,0.628935,102.746374,81.108613,-136.427354
28895,-9.443813,0.816175,-0.144307,0.452851,0.462473,-0.354700,-0.560435,-0.266674,0.173756,-0.094443,0.008075,-0.001592,0.999995,-0.002802,-0.001333,0.000869,0.293906,-0.596778,0.398918,0.631142,101.312530,81.037929,-137.553069
28896,-9.070572,0.961997,-0.482437,0.491312,0.045130,-0.691834,-0.525979,-0.214909,0.136989,-0.090707,0.009545,-0.004947,0.999996,-0.002630,-0.001075,0.000685,0.292299,-0.596538,0.397375,0.633085,100.109013,80.976265,-138.465641
28897,-8.878865,0.664784,0.040303,0.472073,0.611436,-0.942454,-0.389953,-0.208114,0.170866,-0.088795,0.006573,0.000298,0.999997,-0.001950,-0.001041,0.000854,0.290983,-0.596071,0.396364,0.634763,99.019244,80.894192,-139.342274
28898,-8.920509,0.194928,-0.219496,1.034731,0.629968,-0.969946,-0.267840,-0.181243,0.193240,-0.089205,0.001860,-0.002278,0.999998,-0.001339,-0.000906,0.000966,0.289898,-0.595443,0.395851,0.636167,98.083761,80.792563,-140.133577
28899,-9.196539,2.080253,1.128949,-1.202521,0.820473,-0.428711,-0.037586,-0.177724,0.192681,-0.091995,0.020716,0.011204,0.999999,-0.000188,-0.000889,0.000963,0.289500,-0.594513,0.396066,0.637084,97.326621,80.691332,-140.878225
28900,-9.176129,3.494067,1.673079,-2.653911,0.534883,-0.227302,-0.277536,-0.212852,0.148723,-0.091805,0.034895,0.016585,0.999998,-0.001388,-0.001064,0.000744,0.288590,-0.593882,0.395341,0.638534,96.329608,80.613513,-141.726669
28901,-9.334291,3.432977,1.689446,-2.566610,0.568208,-0.073179,-0.567184,-0.262529,0.080945,-0.093379,0.034339,0.016675,0.999995,-0.002836,-0.001313,0.000405,0.287140,-0.593662,0.393408,0.640582,95.049064,80.576653,-142.694595
28902,-8.965868,1.965362,1.305449,-1.163621,0.938816,-0.662929,-0.807680,-0.302404,-0.006266,-0.089678,0.019709,0.012839,0.999991,-0.004038,-0.001512,-0.000031,0.285322,-0.593800,0.390390,0.643108,93.506633,80.585019,-143.788183
28903,-8.937603,0.467091,0.429486,0.564052,0.960482,-0.922097,-0.761812,-0.314379,-0.069453,-0.089381,0.004718,0.004136,0.999991,-0.003809,-0.001572,-0.000347,0.283869,-0.593969,0.387302,0.645458,91.971669,80.627564,-144.900925
28904,-8.908223,-0.173716,0.248389,1.197756,1.119897,-1.051441,-0.616255,-0.337859,-0.131975,-0.089087,-0.001671,0.002339,0.999994,-0.003081,-0.001689,-0.000660,0.283086,-0.593945,0.384463,0.647518,90.412948,80.698814,-146.121908
28905,-8.634674,-0.567327,0.275393,1.474850,1.301944,-1.381496,-0.466849,-0.321430,-0.155432,-0.086355,-0.005600,0.002628,0.999996,-0.002334,-0.001607,-0.000777,0.282793,-0.593824,0.382053,0.649182,88.992254,80.780921,-147.289677
28906,-8.484940,-0.835424,0.091098,1.779800,1.255329,-1.569093,-0.336521,-0.287689,-0.164562,-0.084857,-0.008283,0.000803,0.999997,-0.001683,-0.001438,-0.000823,0.282845,-0.593619,0.380087,0.650498,87.726706,80.862022,-148.375478
28907,-8.899019,-1.275656,-0.622873,2.595186,0.914641,-1.231534,-0.231581,-0.255641,-0.180080,-0.088994,-0.012684,-0.006328,0.999998,-0.001158,-0.001278,-0.000900,0.283203,-0.593419,0.378457,0.651476,86.628706,80.951731,-149.352412
28908,-8.862976,-2.083310,-0.961665,3.439270,1.050845,-1.393401,0.046637,-0.230008,-0.226164,-0.088642,-0.020731,-0.009723,0.999999,0.000233,-0.001150,-0.001131,0.284482,-0.592973,0.377633,0.651802,85.735175,81.063907,-150.283252
28909,-8.724861,-2.673650,-1.719352,4.318756,0.706164,-1.622612,0.274494,-0.160097,-0.313991,-0.087277,-0.026576,-0.017300,0.999998,0.001372,-0.000800,-0.001570,0.286595,-0.592616,0.377387,0.651344,85.195202,81.229775,-150.988241
28910,-10.162442,-2.521303,-3.592871,5.397808,-0.862849,-0.186694,0.360957,0.078743,-0.459398,-0.101696,-0.024915,-0.035934,0.999996,0.001805,0.000394,-0.002297,0.288982,-0.593164,0.377332,0.649820,85.523446,81.487776,-150.864539
28911,-15.408428,-2.720807,-9.741797,9.562663,-5.492775,4.955797,-0.248882,0.595709,-0.666039,-0.154463,-0.026815,-0.096925,0.999989,-0.001244,0.002979,-0.003330,0.289255,-0.596673,0.375424,0.647588,87.533251,81.883259,-148.688625
28912,-18.520372,-5.185360,-7.835316,10.754225,-2.358248,7.795954,1.286853,0.429603,-0.767447,-0.185568,-0.050638,-0.078283,0.999970,0.006434,0.002148,-0.003837,0.294736,-0.597576,0.377931,0.642808,89.939251,82.321157,-147.003181
28913,-11.509928,1.197641,-1.424917,1.024021,-1.033642,1.755591,2.461836,-0.235509,-0.674743,-0.115041,0.012540,-0.014233,0.999918,0.012309,-0.001178,-0.003374,0.304655,-0.594381,0.383468,0.637847,90.303486,82.702076,-148.057811
28914,-3.762616,6.610975,5.150303,-7.886363,1.240723,-5.268135,1.149466,0.120411,-0.565697,-0.037408,0.065918,0.051905,0.999979,0.005747,0.000602,-0.002828,0.309611,-0.594041,0.385647,0.634454,91.517034,83.018455,-147.497772
28915,-9.257979,9.915234,3.991177,-9.580373,-1.071001,0.532347,-0.572505,0.426004,-0.667925,-0.092163,0.099575,0.039824,0.999988,-0.002863,0.002130,-0.003340,0.309179,-0.597523,0.382521,0.633287,93.340171,83.384694,-145.330732
28916,-10.707620,6.860091,5.522255,-7.722379,1.797035,1.560177,-1.618341,0.186753,-0.567286,-0.106829,0.069349,0.054763,0.999963,-0.008092,0.000934,-0.002836,0.305744,-0.601629,0.375998,0.634972,93.479003,83.695647,-144.257148
28917,-9.285790,-2.515942,1.350371,2.175281,3.081398,-0.859937,-1.762272,0.239358,-0.480942,-0.092901,-0.024815,0.013835,0.999958,-0.008811,0.001197,-0.002405,0.301481,-0.605925,0.369325,0.636838,93.862759,83.956123,-142.854896
28918,-8.861011,-5.948319,-0.002119,5.650025,3.832803,-1.609886,-1.020631,0.338207,-0.481093,-0.088752,-0.059268,0.000432,0.999983,-0.005103,0.001691,-0.002405,0.299263,-0.609367,0.365143,0.637012,95.296155,84.208412,-140.825181
28919,-9.758747,-3.822486,0.794911,3.445598,3.404516,-0.484604,-0.272298,0.338951,-0.507327,-0.097670,-0.037966,0.008166,0.999994,-0.001361,0.001695,-0.002537,0.299402,-0.611741,0.363254,0.635750,97.370574,84.470365,-138.583165
28920,-9.989985,-2.506233,1.908061,1.692823,3.612804,-0.127471,-0.073710,0.304854,-0.456356,-0.099927,-0.024827,0.019242,0.999996,-0.000369,0.001524,-0.002282,0.300047,-0.613598,0.362097,0.634315,99.487750,84.697469,-136.413249
28921,-10.385327,-1.931880,-0.095052,2.317550,1.658226,0.359591,0.229953,0.272618,-0.426675,-0.103895,-0.019096,-0.000831,0.999996,0.001150,0.001363,-0.002133,0.301585,-0.614852,0.361945,0.632455,101.753310,84.903731,-134.269973
28922,-10.515170,-1.076673,-1.984301,2.625105,-0.383765,0.609728,0.329541,0.214733,-0.447121,-0.105197,-0.010499,-0.019748,0.999996,0.001648,0.001074,-0.002236,0.303599,-0.615792,0.361950,0.630571,103.889977,85.121121,-132.313838
28923,-10.132365,-0.973688,-3.529918,3.324418,-1.765306,0.282105,0.383966,0.170719,-0.452335,-0.101375,-0.009440,-0.035231,0.999995,0.001920,0.000854,-0.002262,0.305871,-0.616528,0.362045,0.628696,105.986238,85.341426,-130.430402
28924,-9.635133,-0.242945,-4.832942,3.353068,-3.307665,-0.113822,0.612168,0.144996,-0.428705,-0.096391,-0.002075,-0.048266,0.999993,0.003061,0.000725,-0.002144,0.308818,-0.616774,0.362883,0.626528,108.152654,85.547353,-128.608125
28925,-9.642271,1.307313,-4.630312,1.880642,-4.008498,0.011614,0.677051,0.135080,-0.423599,-0.096426,0.013434,-0.046193,0.999992,0.003385,0.000675,-0.002118,0.311960,-0.616880,0.363923,0.624260,110.487176,85.746268,-126.655238
28926,-10.006662,2.847132,-2.715891,-0.501789,-3.228680,0.431285,0.571316,0.097474,-0.454974,-0.100015,0.028776,-0.027028,0.999993,0.002857,0.000487,-0.002275,0.314939,-0.617073,0.364469,0.622251,112.763981,85.963901,-124.699883
28927,-9.636269,3.096182,-1.203463,-1.598856,-2.122499,0.027574,0.341596,0.067199,-0.494703,-0.096290,0.031221,-0.011949,0.999995,0.001708,0.000336,-0.002474,0.317383,-0.617608,0.364130,0.620676,115.072156,86.203315,-122.581831
28928,-9.654914,3.055112,0.217325,-2.373628,-0.917548,-0.008501,0.160796,0.041436,-0.525304,-0.096468,0.030803,0.002218,0.999996,0.000804,0.000207,-0.002627,0.319408,-0.618392,0.363090,0.619464,117.465240,86.458848,-120.275448
28929,-9.635520,3.273820,0.893264,-2.965840,-0.488737,-0.049301,-0.056327,0.019742,-0.553563,-0.096263,0.033007,0.008933,0.999996,-0.000282,0.000099,-0.002768,0.320886,-0.619511,0.361254,0.618655,120.065978,86.727859,-117.637126
28930,-9.766390,2.049872,0.817670,-1.933281,0.073827,0.011243,-0.226830,0.000202,-0.577790,-0.097604,0.020790,0.008153,0.999995,-0.001134,0.000001,-0.002889,0.321942,-0.620872,0.358781,0.618180,122.962984,87.006670,-114.604971
28931,-9.489785,0.064391,-0.236115,0.255802,0.201890,-0.325355,-0.221128,-0.007463,-0.583752,-0.094895,0.000918,-0.002366,0.999995,-0.001106,-0.000037,-0.002919,0.323046,-0.622214,0.356292,0.617694,126.460553,87.281156,-110.975554
28932,-9.560563,-0.328037,-0.496033,0.682641,0.167246,-0.259478,-0.089103,0.001553,-0.583362,-0.095615,-0.003004,-0.004958,0.999996,-0.000446,0.000008,-0.002917,0.324541,-0.623355,0.354224,0.616950,130.867361,87.539277,-106.512505
28933,-9.436602,-0.186024,-0.195535,0.354638,0.310223,-0.384005,-0.029131,0.010832,-0.562345,-0.094371,-0.001595,-0.001950,0.999996,-0.000146,0.000054,-0.002812,0.326139,-0.624395,0.352417,0.616090,136.218233,87.766753,-101.139795
28934,-9.372603,-0.044280,-0.343062,0.271444,0.081005,-0.437993,-0.060978,0.026449,-0.535360,-0.093727,-0.000193,-0.003418,0.999996,-0.000305,0.000132,-0.002677,0.327523,-0.625473,0.350620,0.615286,142.460337,87.954438,-94.857752
28935,-9.595875,0.157595,0.135313,-0.198976,0.357956,-0.223317,-0.070935,0.039502,-0.525936,-0.095954,0.001829,0.001371,0.999996,-0.000355,0.000198,-0.002630,0.328824,-0.626597,0.348840,0.614461,149.864972,88.103175,-87.407428
28936,-9.413877,-0.182240,0.156564,0.033056,0.530177,-0.410750,-0.092399,0.049223,-0.514882,-0.094143,-0.001579,0.001590,0.999997,-0.000462,0.000246,-0.002574,0.330003,-0.627752,0.347044,0.613666,158.187006,88.208456,-79.027501
28937,-9.577733,-0.237216,0.089828,0.072252,0.487452,-0.244287,-0.055764,0.059640,-0.495581,-0.095783,-0.002135,0.000927,0.999997,-0.000279,0.000298,-0.002478,0.331219,-0.628852,0.345434,0.612793,167.073134,88.262156,-70.104552
28938,-9.673933,-0.518585,0.046330,0.289257,0.585167,-0.146780,-0.008137,0.060469,-0.497724,-0.096752,-0.004945,0.000493,0.999997,-0.000041,0.000302,-0.002489,0.332587,-0.629865,0.343964,0.611838,176.329285,88.272667,-60.838894
28939,-9.581719,-0.831659,-0.469228,0.791117,0.298221,-0.220702,0.076408,0.056733,-0.491524,-0.095839,-0.008079,-0.004668,0.999997,0.000382,0.000284,-0.002458,0.334207,-0.630721,0.342762,0.610746,-174.581312,88.239173,-51.788439
28940,-9.521404,-0.201179,-0.344381,0.153665,0.039114,-0.284263,0.191088,0.062680,-0.482285,-0.095220,-0.001779,-0.003416,0.999997,0.000955,0.000313,-0.002411,0.336149,-0.631375,0.341949,0.609459,-166.166909,88.163028,-43.478816
28941,-9.609155,0.508964,-0.148152,-0.593041,-0.196572,-0.209233,0.124226,0.075015,-0.470095,-0.096080,0.005316,-0.001442,0.999997,0.000621,0.000375,-0.002350,0.337819,-0.632163,0.340988,0.608256,-158.861738,88.045830,-36.240218
28942,-9.631447,0.356706,-0.082285,-0.541475,-0.076654,-0.189822,0.013920,0.073587,-0.464620,-0.096306,0.003791,-0.000787,0.999997,0.000070,0.000368,-0.002323,0.339124,-0.633111,0.339705,0.607260,-152.596110,87.904712,-29.978058
28943,-9.528158,-0.271917,-0.193688,0.011475,0.149211,-0.279866,-0.092174,0.075563,-0.450713,-0.095288,-0.002505,-0.001900,0.999997,-0.000461,0.000378,-0.002254,0.340046,-0.634227,0.338146,0.606450,-147.422906,87.743826,-24.747624
28944,-9.674097,-0.757413,-0.257111,0.410431,0.344646,-0.120394,-0.128781,0.082555,-0.430065,-0.096758,-0.007368,-0.002526,0.999997,-0.000644,0.000413,-0.002150,0.340777,-0.635380,0.336551,0.605720,-143.268526,87.572296,-20.515332
28945,-9.688145,-1.071186,-0.313570,0.665567,0.452753,-0.093747,-0.065048,0.088797,-0.425744,-0.096905,-0.010507,-0.003089,0.999998,-0.000325,0.000444,-0.002129,0.341684,-0.636441,0.335172,0.604859,-139.747236,87.386877,-16.952676
28946,-9.792994,-1.351972,-0.075553,0.729667,0.791569,0.014679,-0.005179,0.089019,-0.424315,-0.097959,-0.013312,-0.000712,0.999998,-0.000026,0.000445,-0.002122,0.342776,-0.637387,0.333977,0.603905,-136.677548,87.194628,-13.875987
28947,-9.524895,-1.176436,0.358219,0.322955,1.043067,-0.271015,0.099668,0.093783,-0.414301,-0.095271,-0.011569,0.003621,0.999998,0.000498,0.000469,-0.002072,0.344161,-0.638157,0.333138,0.602767,-134.073010,86.996148,-11.324625
28948,-9.724519,-0.452788,0.389390,-0.347494,0.665491,-0.098823,0.147666,0.089023,-0.395873,-0.097252,-0.004338,0.003934,0.999998,0.000738,0.000445,-0.001979,0.345652,-0.638788,0.332491,0.601602,-131.843667,86.803302,-9.176141
28949,-9.710357,-0.132007,0.236536,-0.568757,0.349938,-0.121540,0.125221,0.081636,-0.386261,-0.097105,-0.001134,0.002404,0.999998,0.000626,0.000408,-0.001931,0.347052,-0.639425,0.331794,0.600502,-129.894429,86.612004,-7.294891
28950,-9.745098,-0.510964,-0.589539,0.157607,-0.155633,-0.038927,0.069117,0.075069,-0.390160,-0.097463,-0.004917,-0.005861,0.999998,0.000346,0.000375,-0.001951,0.348296,-0.640135,0.330903,0.599517,-128.101554,86.419223,-5.537774
28951,-9.824043,-1.048559,-1.150745,0.870837,-0.354953,0.089384,0.122499,0.060679,-0.400823,-0.098265,-0.010282,-0.011484,0.999998,0.000612,0.000303,-0.002004,0.349763,-0.640732,0.330113,0.598460,-126.317992,86.222040,-3.820205
28952,-9.570744,-1.321704,-1.577226,1.310884,-0.587998,-0.129228,0.196550,0.049234,-0.392733,-0.095737,-0.013014,-0.015762,0.999998,0.000983,0.000246,-0.001964,0.351461,-0.641142,0.329547,0.597337,-124.616997,86.030377,-2.227597
28953,-9.628427,-1.206894,-1.348446,1.053702,-0.477090,-0.084200,0.334183,0.041528,-0.379920,-0.096310,-0.011863,-0.013484,0.999997,0.001671,0.000208,-0.001900,0.353573,-0.641270,0.329419,0.596022,-123.007288,85.843074,-0.805131
28954,-9.898009,-0.864892,-0.818104,0.429571,-0.232205,0.144688,0.371008,0.038556,-0.391182,-0.098998,-0.008440,-0.008178,0.999996,0.001855,0.000193,-0.001956,0.355839,-0.641331,0.329356,0.594641,-121.434674,85.649516,0.559260
28955,-9.804315,-0.624316,-0.370246,-0.036836,-0.001250,0.018384,0.353585,0.016219,-0.390926,-0.098055,-0.006045,-0.003705,0.999997,0.001768,0.000081,-0.001955,0.358082,-0.641359,0.329202,0.593348,-119.869324,85.458911,1.926790
28956,-9.844749,-1.242936,-0.472837,0.506401,0.214849,0.106224,0.298655,0.007168,-0.387835,-0.098472,-0.012231,-0.004743,0.999997,0.001493,0.000036,-0.001939,0.360154,-0.641442,0.328875,0.592184,-118.399045,85.270594,3.230802
28957,-9.511108,-1.515375,-0.514953,0.757188,0.298978,-0.202283,0.383548,-0.006343,-0.382086,-0.095140,-0.014962,-0.005181,0.999996,0.001918,-0.000032,-0.001910,0.362500,-0.641327,0.328792,0.590923,-116.934893,85.085217,4.480274
28958,-9.406775,-1.112081,-0.341852,0.304934,0.212981,-0.341545,0.489073,0.011080,-0.376249,-0.094089,-0.010935,-0.003440,0.999995,0.002445,0.000055,-0.001881,0.365136,-0.641049,0.329068,0.589445,-115.617956,84.896777,5.521556
28959,-9.787583,-0.133076,0.375170,-0.961880,0.297715,-0.068905,0.514644,0.021257,-0.378824,-0.097878,-0.001155,0.003759,0.999995,0.002573,0.000106,-0.001894,0.367841,-0.640760,0.329427,0.587875,-114.431034,84.701765,6.417955
28960,-9.864222,0.602730,0.394105,-1.638161,-0.081024,-0.059164,0.447748,-0.004633,-0.401586,-0.098630,0.006217,0.003953,0.999995,0.002239,-0.000023,-0.002008,0.370439,-0.640542,0.329465,0.586459,-113.151212,84.499938,7.446375
28961,-9.674283,-0.002882,-0.304248,-0.779690,-0.391816,-0.173042,0.287739,-0.018691,-0.413350,-0.096742,0.000176,-0.003051,0.999997,0.001439,-0.000093,-0.002067,0.372577,-0.640602,0.328968,0.585317,-111.952650,84.292108,8.485696
28962,-9.650643,-1.082485,-0.978377,0.454810,-0.452099,-0.073464,0.361977,-0.022664,-0.436637,-0.096529,-0.010596,-0.009814,0.999996,0.001810,-0.000113,-0.002183,0.375027,-0.640537,0.328605,0.584026,-110.715985,84.071493,9.520846
28963,-9.665441,-1.536203,-1.386466,1.011770,-0.607236,0.001095,0.445490,-0.023496,-0.437808,-0.096686,-0.015119,-0.013910,0.999995,0.002227,-0.000117,-0.002189,0.377744,-0.640317,0.328477,0.582586,-109.516654,83.847327,10.470858
28964,-9.885434,-1.038801,-1.253933,0.456518,-0.778135,0.165245,0.526656,-0.040669,-0.460942,-0.098875,-0.010127,-0.012586,0.999994,0.002633,-0.000203,-0.002305,0.380814,-0.639918,0.328475,0.581024,-108.218614,83.612497,11.473692
28965,-9.614503,-1.184893,-1.067134,0.481434,-0.572460,-0.095604,0.523226,-0.059635,-0.471928,-0.096169,-0.011594,-0.010731,0.999994,0.002616,-0.000298,-0.002360,0.383930,-0.639488,0.328389,0.579494,-106.906763,83.371708,12.492979
28966,-9.890558,-1.622058,-1.047316,0.781112,-0.386314,0.226807,0.609535,-0.067104,-0.478127,-0.098940,-0.015952,-0.010555,0.999992,0.003048,-0.000336,-0.002391,0.387349,-0.638865,0.328514,0.577833,-105.579289,83.126862,13.478588
28967,-9.860863,-0.868941,-0.643942,-0.102494,-0.437305,0.097123,0.681257,-0.091962,-0.506470,-0.098627,-0.008418,-0.006514,0.999991,0.003406,-0.000460,-0.002532,0.391111,-0.638075,0.328702,0.576062,-104.155318,82.866530,14.520656
28968,-9.524220,-0.900229,-0.643323,-0.073308,-0.450610,-0.235299,0.657821,-0.104656,-0.506448,-0.095261,-0.008740,-0.006512,0.999991,0.003289,-0.000523,-0.002532,0.394814,-0.637276,0.328793,0.574367,-102.770950,82.605562,15.536809
28969,-9.704993,-0.773324,-0.730721,-0.205278,-0.634505,-0.072368,0.718251,-0.116161,-0.551261,-0.097066,-0.007439,-0.007391,0.999990,0.003591,-0.000581,-0.002756,0.398848,-0.636392,0.328885,0.572503,-101.354416,82.317125,16.551236
28970,-10.779267,-0.897891,-1.626507,0.135706,-1.458963,1.026908,0.691681,-0.165994,-0.592449,-0.107805,-0.008603,-0.016385,0.999989,0.003458,-0.000830,-0.002962,0.402990,-0.635468,0.328664,0.570754,-99.805525,82.008070,17.715213
28971,-12.627850,0.763144,-5.049205,-0.063191,-5.410686,2.687649,0.748764,-0.346306,-0.715512,-0.126162,0.008272,-0.050680,0.999985,0.003744,-0.001732,-0.003578,0.407951,-0.634106,0.327843,0.569215,-97.564580,81.639140,19.546405
28972,-9.305775,0.861860,-4.937115,0.167035,-5.280697,-0.658434,0.901176,-0.450710,-0.802328,-0.092910,0.009214,-0.049540,0.999979,0.004506,-0.002254,-0.004012,0.413797,-0.632251,0.326959,0.567565,-94.991666,81.217428,21.626699
28973,-9.807421,1.379021,-4.708879,-0.559358,-5.416740,-0.294023,1.195144,-0.422065,-0.869069,-0.097913,0.014498,-0.047210,0.999970,0.005976,-0.002110,-0.004345,0.420695,-0.629951,0.326738,0.565172,-92.562399,80.742630,23.393683
28974,-10.192735,4.066763,-2.241263,-4.182387,-4.449981,-0.423460,1.127303,-0.456697,-0.925397,-0.101686,0.041265,-0.022414,0.999971,0.005636,-0.002283,-0.004627,0.427567,-0.627748,0.326062,0.562851,-90.259572,80.225980,25.074190
28975,-10.235958,2.775861,-0.921670,-3.692225,-2.769691,-0.219722,0.859514,-0.421440,-0.945294,-0.102207,0.028282,-0.009311,0.999977,0.004298,-0.002107,-0.004726,0.433580,-0.626221,0.324623,0.560782,-88.420509,79.687526,26.442389
28976,-10.770924,-0.180654,-0.959924,-1.201692,-1.694146,0.801057,0.856006,-0.337617,-0.937877,-0.107700,-0.001260,-0.009787,0.999978,0.004280,-0.001688,-0.004689,0.439399,-0.624893,0.323374,0.558450,-86.992491,79.150130,27.396550
28977,-10.954462,-1.762605,-1.415938,0.292519,-1.567433,1.258371,1.113875,-0.237676,-0.841667,-0.109600,-0.017085,-0.014386,0.999975,0.005569,-0.001188,-0.004208,0.445579,-0.623097,0.323341,0.555572,-85.797552,78.666037,27.964543
28978,-11.413590,-1.547659,-2.461897,0.360335,-2.733485,1.638219,1.494205,-0.132182,-0.665775,-0.114170,-0.014912,-0.024807,0.999966,0.007471,-0.000661,-0.003329,0.452252,-0.620422,0.325140,0.552113,-84.708913,78.286862,28.202231
28979,-11.064224,1.366871,-3.623063,-1.854664,-4.923991,0.662297,1.937406,-0.006483,-0.429674,-0.110611,0.014256,-0.036098,0.999951,0.009687,-0.000032,-0.002148,0.459414,-0.616661,0.329141,0.548028,-83.682076,78.047180,28.117878
28980,-11.902775,5.753124,-3.118325,-6.309811,-6.082609,0.564413,2.287327,0.071454,-0.197172,-0.118982,0.058000,-0.030479,0.999934,0.011436,0.000357,-0.000986,0.466827,-0.611854,0.334972,0.543600,-82.610176,77.947231,27.874283
28981,-11.795727,8.310731,-2.498486,-8.981875,-6.238207,-0.073206,2.031313,0.096775,-0.124568,-0.117917,0.083428,-0.024082,0.999948,0.010156,0.000484,-0.000623,0.473171,-0.607522,0.340336,0.539627,-81.729874,77.889550,27.584976
28982,-11.430808,10.605606,-0.881445,-11.670750,-5.258933,-0.865412,1.568867,0.106277,-0.047649,-0.114287,0.106148,-0.007921,0.999969,0.007844,0.000531,-0.000238,0.477835,-0.604125,0.344700,0.536553,-81.114863,77.879772,27.294851
28983,-10.733913,10.885710,0.132667,-12.173304,-4.191580,-1.568065,0.744312,0.101460,0.035997,-0.107358,0.108832,0.001786,0.999993,0.003722,0.000507,0.000180,0.479787,-0.602522,0.347061,0.535090,-80.922187,77.914608,27.056424
28984,-10.238436,10.791877,0.076898,-11.986171,-4.108013,-2.018337,0.183921,0.124891,0.159981,-0.102470,0.107836,0.000932,0.999999,0.000920,0.000624,0.000800,0.479656,-0.602097,0.348377,0.534829,-81.064766,78.025675,26.802867
28985,-9.947505,11.500557,0.898069,-12.828259,-3.517392,-2.390724,-0.544765,0.093795,0.313581,-0.099651,0.114873,0.008714,0.999995,-0.002724,0.000469,0.001568,0.476991,-0.603074,0.348102,0.536289,-81.480577,78.216823,26.697586
28986,-9.459083,9.123837,0.343602,-10.299784,-3.343167,-2.357938,-1.179540,0.118712,0.521853,-0.094827,0.091010,0.002955,0.999979,-0.005898,0.000594,0.002609,0.471774,-0.605241,0.346839,0.539273,-82.260639,78.533051,26.590866
28987,-9.765569,6.296300,-0.659741,-7.322812,-3.493429,-1.469056,-1.356961,0.154117,0.755288,-0.097898,0.062547,-0.006947,0.999970,-0.006785,0.000771,0.003776,0.465328,-0.607498,0.345834,0.542969,-83.183251,78.979007,26.443570
28988,-9.970797,5.427789,-0.933686,-6.358759,-3.516637,-1.040719,-1.352119,0.165856,0.957359,-0.099974,0.053735,-0.009619,0.999965,-0.006761,0.000829,0.004787,0.458271,-0.609369,0.345502,0.547070,-84.117600,79.546292,26.280599
28989,-10.248584,4.984731,-1.328446,-5.738751,-3.768145,-0.619656,-1.223601,0.186295,1.090515,-0.102768,0.049205,-0.013491,0.999966,-0.006118,0.000931,0.005453,0.451201,-0.610746,0.345908,0.551139,-85.062630,80.184028,26.033451
28990,-11.043500,4.429282,-1.448647,-5.175680,-3.731301,0.334418,-1.122493,0.206064,1.143868,-0.110701,0.043578,-0.014618,0.999967,-0.005612,0.001030,0.005719,0.444199,-0.611797,0.346823,0.555073,-86.088729,80.858949,25.644587
28991,-11.428162,4.067336,-0.707090,-5.042991,-2.909860,0.852454,-0.976575,0.203786,1.149704,-0.114520,0.039981,-0.007151,0.999971,-0.004883,0.001019,0.005748,0.437632,-0.612489,0.348087,0.558723,-87.126032,81.529212,25.161801
28992,-10.752807,2.807148,0.103332,-3.984746,-1.606615,0.436836,-0.876152,0.208294,1.198956,-0.107693,0.027431,0.001024,0.999972,-0.004381,0.001041,0.005995,0.431171,-0.612830,0.349823,0.562277,-88.249875,82.233460,24.532955
28993,-10.139965,2.082541,0.448718,-3.266521,-0.925219,-0.023432,-0.698026,0.229242,1.324585,-0.101529,0.020169,0.004532,0.999971,-0.003490,0.001146,0.006623,0.424872,-0.612613,0.352419,0.565677,-89.523701,83.000734,23.652453
28994,-9.501309,1.855090,1.232866,-3.177822,-0.022555,-0.585800,-0.623453,0.252743,1.545895,-0.095137,0.017854,0.012392,0.999964,-0.003117,0.001264,0.007729,0.418074,-0.611850,0.355982,0.569325,-91.168038,83.899109,22.356134
28995,-9.816647,1.791201,1.162458,-2.990160,0.000700,-0.221925,-0.440386,0.292831,1.773881,-0.098303,0.017066,0.011730,0.999957,-0.002202,0.001464,0.008869,0.411115,-0.610387,0.360768,0.572938,-93.526645,84.914025,20.240525
28996,-10.605675,2.582686,1.636710,-3.809633,0.184790,0.544845,-0.445499,0.298371,1.940890,-0.106276,0.024833,0.016469,0.999949,-0.002227,0.001492,0.009704,0.403580,-0.608566,0.366078,0.576851,-97.225996,86.019536,16.784978
28997,-10.765804,2.685388,1.411341,-3.645132,0.032479,0.761515,-0.440972,0.258867,2.013303,-0.107903,0.025800,0.014195,0.999946,-0.002205,0.001294,0.010066,0.395913,-0.606451,0.371451,0.580943,-103.327105,87.136039,10.927042
28998,-10.724373,2.640326,1.499619,-3.453426,0.228911,0.782125,-0.559675,0.218962,2.003770,-0.107485,0.025369,0.015042,0.999945,-0.002798,0.001095,0.010019,0.387910,-0.604377,0.376382,0.585313,-116.121210,88.194806,-1.556978
28999,-10.709900,2.495191,1.189884,-3.010896,0.096078,0.829944,-0.642442,0.162393,1.919209,-0.107322,0.023961,0.011908,0.999948,-0.003212,0.000812,0.009596,0.380003,-0.602420,0.380614,0.589763,-150.226581,88.973211,-35.302573
29000,-10.892169,2.773443,1.307337,-3.136559,0.164335,1.058022,-0.797695,0.087018,1.811473,-0.109162,0.026798,0.013013,0.999951,-0.003988,0.000435,0.009057,0.372016,-0.600649,0.383932,0.594492,149.635132,88.913180,-94.993073
29001,-10.429139,1.526327,1.319705,-1.848114,0.766881,0.619577,-0.965860,0.026455,1.750296,-0.104418,0.014413,0.013140,0.999950,-0.004829,0.000132,0.008751,0.363820,-0.599098,0.386365,0.599532,120.939934,88.172787,-123.142379
29002,-10.232268,0.117313,0.857862,-0.224576,1.031609,0.401613,-0.985561,0.016401,1.744844,-0.102327,0.000323,0.008584,0.999950,-0.004928,0.000082,0.008724,0.355529,-0.597469,0.388715,0.604591,109.651760,87.249468,-133.874889
29003,-10.035105,-0.589965,0.725132,0.614631,1.299090,0.162745,-0.961858,-0.017613,1.804953,-0.100293,-0.006770,0.007274,0.999948,-0.004809,-0.000088,0.009025,0.347191,-0.595551,0.391165,0.609728,103.622769,86.255576,-139.360695
29004,-9.446087,-1.039707,0.287820,1.337936,1.171855,-0.473173,-0.823189,-0.011692,1.862931,-0.094359,-0.011264,0.002918,0.999948,-0.004116,-0.000058,0.009314,0.339007,-0.593198,0.394228,0.614634,100.044513,85.198813,-142.476633
29005,-9.854305,-0.396150,-0.039060,1.103496,0.695469,-0.037132,-0.752808,0.033806,1.897585,-0.098500,-0.004898,-0.000357,0.999948,-0.003764,0.000169,0.009488,0.330834,-0.590769,0.397597,0.619239,97.953380,84.116431,-144.142932
29006,-10.381021,-0.332082,-0.243977,1.356127,0.610981,0.469322,-0.636098,0.023995,1.901219,-0.103773,-0.004315,-0.002415,0.999950,-0.003180,0.000120,0.009506,0.322947,-0.588014,0.401327,0.623604,96.448136,83.020626,-145.291643
29007,-9.983299,-1.465842,-1.014000,2.839025,0.534812,-0.091886,-0.620792,0.025247,1.839292,-0.099694,-0.015607,-0.010080,0.999953,-0.003104,0.000126,0.009196,0.315297,-0.585339,0.404838,0.627752,95.349380,81.965255,-146.040431
29008,-10.342042,-1.153121,-0.868747,2.694571,0.636627,0.255755,-0.295498,0.041798,1.705830,-0.103319,-0.012426,-0.008648,0.999963,-0.001477,0.000209,0.008529,0.308924,-0.582388,0.409015,0.630949,94.731767,80.976332,-146.494428
29009,-9.958827,-0.142228,-0.374316,1.673795,0.639452,-0.008300,-0.282129,0.004339,1.568631,-0.099573,-0.002209,-0.003738,0.999968,-0.001411,0.000022,0.007843,0.303111,-0.579573,0.412704,0.633951,94.144957,80.074365,-146.924788
29010,-9.323739,0.357375,-0.364860,1.274873,0.419430,-0.572003,-0.346841,-0.013425,1.420048,-0.093259,0.002905,-0.003660,0.999973,-0.001734,-0.000067,0.007100,0.297569,-0.577037,0.415748,0.636895,93.576748,79.250055,-147.300996
29011,-8.939129,0.129587,0.209272,1.242529,1.049715,-1.019417,-0.424390,-0.019318,1.368121,-0.089398,0.000689,0.002082,0.999974,-0.002122,-0.000097,0.006841,0.291995,-0.574709,0.418322,0.639886,93.029005,78.462338,-147.610754
29012,-8.374652,-1.150614,-0.280691,2.584293,1.234560,-1.854447,-0.414565,0.003497,1.398572,-0.083663,-0.012097,-0.002781,0.999973,-0.002073,0.000017,0.006993,0.286259,-0.572312,0.421067,0.642820,92.592647,77.648963,-147.814561
29013,-8.234322,-1.713434,-0.222643,3.102759,1.601252,-2.157810,-0.263484,0.067145,1.432295,-0.082218,-0.017726,-0.002176,0.999973,-0.001317,0.000336,0.007161,0.280728,-0.569835,0.424421,0.645249,92.435979,76.821592,-147.819733
29014,-8.583035,-0.896544,-0.440481,2.684360,1.126513,-1.676956,-0.090843,0.104141,1.471846,-0.085764,-0.009599,-0.004356,0.999973,-0.000454,0.000521,0.007359,0.275438,-0.567086,0.428512,0.647244,92.461902,75.963929,-147.740002
29015,-8.641958,-0.179343,-0.542795,2.244415,0.769629,-1.483273,0.078066,0.131067,1.477440,-0.086407,-0.002430,-0.005372,0.999972,0.000390,0.000655,0.007387,0.270565,-0.564182,0.433140,0.648755,92.636972,75.109088,-147.604722
29016,-9.360810,0.450838,-0.309355,1.861045,0.843186,-0.661307,0.063986,0.135098,1.429352,-0.093639,0.003840,-0.003029,0.999974,0.000320,0.000675,0.007147,0.265757,-0.561351,0.437604,0.650201,92.796998,74.275129,-147.477232
29017,-9.291234,0.196951,-0.120570,2.067892,1.190407,-0.830160,0.105531,0.123491,1.343492,-0.092923,0.001346,-0.001148,0.999977,0.000528,0.000617,0.006717,0.261384,-0.558620,0.441890,0.651426,92.955214,73.496978,-147.374803
29018,-9.291155,-0.129655,-0.403662,2.577351,1.165645,-0.952509,0.066731,0.111692,1.231907,-0.092903,-0.001867,-0.003985,0.999981,0.000334,0.000558,0.006159,0.257255,-0.556091,0.445737,0.652611,93.066198,72.776794,-147.299114
29019,-8.671845,-0.171489,-0.106001,2.394872,1.402070,-1.594444,0.170431,0.088776,1.140271,-0.086707,-0.002208,-0.001023,0.999983,0.000852,0.000444,0.005701,0.253781,-0.553570,0.449588,0.653472,93.199376,72.115874,-147.261164
29020,-8.723874,-0.192533,-0.351611,2.624803,1.259440,-1.579210,0.166278,0.107250,1.089901,-0.087228,-0.002398,-0.003471,0.999985,0.000831,0.000536,0.005449,0.250385,-0.551180,0.453326,0.654220,93.357968,71.477285,-147.194751
29021,-9.304296,0.238011,0.300117,2.178050,1.779419,-0.935436,0.324965,0.099692,1.056865,-0.093052,0.001883,0.003051,0.999985,0.001625,0.000498,0.005284,0.247570,-0.548654,0.457437,0.654553,93.592292,70.863629,-147.143206
29022,-9.140656,0.619942,0.787042,1.656723,2.054676,-1.004275,0.262465,0.115596,1.040880,-0.091433,0.005713,0.007931,0.999985,0.001312,0.000578,0.005204,0.244566,-0.546248,0.461335,0.654958,93.807076,70.252936,-147.075061
29023,-9.228607,1.098166,0.781701,1.365944,1.904800,-0.785541,0.212678,0.119779,1.002023,-0.092335,0.010511,0.007884,0.999987,0.001063,0.000599,0.005010,0.241562,-0.544020,0.464926,0.655388,93.998673,69.669739,-147.000130
29024,-8.629785,1.045926,1.574146,0.918051,2.557806,-1.406776,0.074961,0.105054,0.921263,-0.086337,0.010056,0.015791,0.999989,0.000375,0.000525,0.004606,0.238453,-0.542055,0.467844,0.656078,94.088957,69.127975,-146.949594
29025,-9.039508,0.509679,1.428552,1.612940,2.795925,-1.233994,0.022340,0.116298,0.832917,-0.090407,0.004719,0.014339,0.999991,0.000112,0.000581,0.004165,0.235483,-0.540415,0.470327,0.656728,94.174483,68.641463,-146.870931
29026,-10.266472,0.951124,1.050200,1.873673,2.551585,0.055764,-0.015397,0.040350,0.697670,-0.102695,0.009154,0.010522,0.999994,-0.000077,0.000202,0.003488,0.233361,-0.538593,0.472559,0.657380,94.141761,68.229051,-146.960488
29027,-10.476192,1.945947,2.414463,0.519525,3.371454,0.566621,-0.094541,-0.051738,0.569086,-0.104823,0.019173,0.024108,0.999996,-0.000473,-0.000259,0.002845,0.231334,-0.537144,0.473736,0.658434,93.947143,67.900159,-147.111192
29028,-10.491618,1.263196,1.813646,1.424648,3.166977,0.331253,-0.344473,-0.081984,0.411830,-0.104949,0.012447,0.018072,0.999996,-0.001722,-0.000410,0.002059,0.229504,-0.536003,0.473915,0.659874,93.587639,67.656192,-147.340816
29029,-10.286738,-0.113060,1.753093,2.535767,3.688884,-0.385860,-0.443457,-0.097039,0.266279,-0.102874,-0.001229,0.017484,0.999997,-0.002217,-0.000485,0.001331,0.227643,-0.535516,0.473070,0.661518,93.167719,67.501392,-147.519507
29030,-10.268476,-0.614786,1.329225,3.164852,3.539086,-0.590705,-0.410270,-0.095110,0.143980,-0.102687,-0.006195,0.013256,0.999998,-0.002051,-0.000476,0.000720,0.226483,-0.535088,0.472228,0.662863,92.780986,67.410811,-147.725271
29031,-10.721954,0.326253,1.353839,2.549502,3.222124,0.188191,-0.443745,-0.084874,0.012343,-0.107225,0.003286,0.013486,0.999997,-0.002219,-0.000424,0.000062,0.225431,-0.535236,0.470711,0.664180,92.399968,67.400120,-147.861872
29032,-10.547434,-0.010240,1.471771,2.704541,3.424710,-0.098196,-0.542487,-0.119865,-0.122656,-0.105483,0.000002,0.014655,0.999996,-0.002712,-0.000599,-0.000613,0.224849,-0.535508,0.468670,0.665599,91.919968,67.462346,-148.084263
29033,-10.431309,-1.276535,0.779203,4.013596,3.365636,-0.668708,-0.643457,-0.108476,-0.270176,-0.104334,-0.012599,0.007776,0.999994,-0.003217,-0.000542,-0.001351,0.224254,-0.536458,0.465698,0.667119,91.402792,67.613001,-148.244249
29034,-10.737468,-1.502797,1.017968,4.145154,3.713627,-0.452437,-0.618940,-0.130379,-0.448872,-0.107415,-0.014755,0.010156,0.999992,-0.003095,-0.000652,-0.002244,0.224523,-0.537574,0.462456,0.668385,90.867044,67.861622,-148.469263
29035,-9.888693,-2.515247,0.887847,4.703246,3.885590,-1.585764,-0.653961,-0.121456,-0.612461,-0.098969,-0.024820,0.008900,0.999990,-0.003270,-0.000607,-0.003062,0.225066,-0.539271,0.458501,0.669559,90.319802,68.207292,-148.654613
29036,-9.681274,-3.982335,0.555787,5.922630,4.238300,-2.272559,-0.617207,-0.084215,-0.822202,-0.096978,-0.039408,0.005639,0.999987,-0.003086,-0.000421,-0.004111,0.226440,-0.541407,0.454258,0.670263,89.833861,68.669082,-148.819385
29037,-9.265857,-5.072141,0.126727,6.817838,4.300824,-2.984966,-0.481560,-0.080974,-1.023708,-0.092917,-0.050243,0.001351,0.999984,-0.002408,-0.000405,-0.005119,0.228722,-0.543956,0.449792,0.670436,89.418215,69.249306,-148.968396
29038,-9.076367,-5.987645,-0.045554,7.512117,4.538913,-3.394016,-0.310353,-0.067381,-1.206001,-0.091122,-0.059328,-0.000394,0.999981,-0.001552,-0.000337,-0.006030,0.232183,-0.546628,0.445538,0.669914,89.100618,69.931009,-149.142688
29039,-10.557673,-4.738274,-1.679463,7.720652,2.760780,-1.475789,-0.267763,0.184054,-1.351576,-0.105909,-0.046690,-0.016634,0.999976,-0.001339,0.000920,-0.006758,0.235537,-0.550512,0.441168,0.668453,89.200179,70.700855,-148.873320
29040,-33.604598,19.061300,-29.823691,10.109644,-28.824812,28.252199,-2.236900,2.329447,-0.899392,-0.338654,0.188810,-0.296421,0.999860,-0.011184,0.011647,-0.004497,0.227319,-0.562696,0.434038,0.665815,91.783600,71.197210,-144.807123
29041,-30.154449,2.176301,46.612863,-17.801343,44.362165,18.480341,8.639671,-0.771746,0.189965,-0.303349,0.001359,0.465313,0.999059,0.043185,-0.003858,0.000950,0.252422,-0.549329,0.462059,0.648862,95.409793,71.110582,-146.205428
29042,-6.681725,-10.109928,-31.171444,25.831411,-20.895142,-6.030353,-6.647743,-0.291818,-2.490678,-0.067703,-0.110545,-0.308243,0.999369,-0.033232,-0.001459,-0.012451,0.242839,-0.562050,0.433108,0.661473,91.329980,72.537370,-146.507754
29043,-2.898888,-0.414815,5.853505,-1.983582,5.686127,-7.249598,4.037626,0.426610,-1.561521,-0.028901,-0.005104,0.058500,0.999763,0.020187,0.002133,-0.007807,0.258343,-0.561767,0.442507,0.649511,94.578679,73.412438,-145.528977
29044,-8.776579,-4.178037,17.329900,-3.328860,18.335891,-2.920073,-1.836671,0.192834,-1.156406,-0.087832,-0.039678,0.173754,0.999941,-0.009183,0.000964,-0.005782,0.256585,-0.567166,0.433641,0.651493,94.059172,74.057999,-144.993635
29045,-9.201164,-6.878836,-4.435818,10.011581,1.024844,-2.715292,0.183340,0.231800,-0.933415,-0.092383,-0.068317,-0.044314,0.999988,0.000917,0.001159,-0.004667,0.259615,-0.569663,0.431902,0.649265,94.768360,74.575299,-144.365463
29046,-8.745193,-15.666736,-9.008525,19.511043,1.253600,-5.249672,1.057351,0.294518,-0.682901,-0.088118,-0.155889,-0.090781,0.999979,0.005287,0.001473,-0.003414,0.264292,-0.570586,0.433879,0.645237,96.107417,74.942891,-143.624714
29047,-11.118073,-4.473365,3.033242,4.545415,6.463520,-0.305593,2.511694,0.433407,-0.702365,-0.111273,-0.044721,0.030012,0.999913,0.012558,0.002167,-0.003512,0.272736,-0.570099,0.440532,0.637600,98.652260,75.304590,-142.479961
29048,-10.646486,2.247226,2.612093,-1.061729,2.901306,0.942570,1.529709,0.176420,-0.569285,-0.106378,0.022574,0.026387,0.999966,0.007648,0.000882,-0.002846,0.278623,-0.569679,0.444139,0.632910,100.098009,75.605340,-141.914086
29049,-9.533134,0.049900,-2.355463,2.899525,-0.639573,-0.452427,1.633666,0.230391,-0.417467,-0.095357,0.000890,-0.023439,0.999964,0.008168,0.001152,-0.002087,0.284052,-0.568999,0.448442,0.628055,101.702513,75.810010,-141.223584
29050,-9.693864,1.794971,-3.858414,2.004073,-2.721319,0.220104,1.940942,0.159544,-0.508172,-0.096923,0.018569,-0.038329,0.999949,0.009705,0.000798,-0.002541,0.290894,-0.567731,0.453409,0.622481,103.401554,76.070178,-140.638376
29051,-9.121444,2.557397,-1.104483,-0.097920,-0.657722,-0.298588,1.691392,0.146769,-0.510443,-0.091157,0.025898,-0.010760,0.999961,0.008457,0.000734,-0.002552,0.296918,-0.566822,0.457438,0.617497,104.974663,76.328123,-140.015742
29052,-10.390897,-1.092376,-3.905737,4.469454,-1.529810,0.291827,1.921974,0.119954,-0.461941,-0.103957,-0.010308,-0.039096,0.999951,0.009610,0.000600,-0.002310,0.303592,-0.565247,0.462327,0.612030,106.625856,76.560173,-139.469026
29053,-9.681030,-0.266463,-5.212173,4.013615,-3.208690,-0.088866,2.540330,0.015447,-0.455632,-0.096819,-0.001782,-0.052141,0.999917,0.012701,0.000077,-0.002278,0.312083,-0.562404,0.468815,0.605407,108.427462,76.801736,-139.112690
29054,-9.142381,3.073939,-1.800800,-0.560070,-1.393380,-0.116356,2.424616,0.011208,-0.455571,-0.091354,0.031163,-0.017627,0.999924,0.012123,0.000056,-0.002278,0.320321,-0.559558,0.474965,0.598914,110.190997,77.042480,-138.747863
29055,-9.877912,3.795433,-1.680728,-1.247827,-1.378128,0.739365,2.260202,-0.010815,-0.448655,-0.098692,0.038363,-0.016381,0.999934,0.011301,-0.000054,-0.002243,0.327972,-0.556894,0.480445,0.592854,111.841476,77.280265,-138.382606
29056,-9.660271,5.116512,-1.361385,-2.722735,-1.478207,0.758647,2.147384,-0.065924,-0.476992,-0.096476,0.051538,-0.013094,0.999939,0.010737,-0.000330,-0.002385,0.335604,-0.554155,0.485465,0.587031,113.361188,77.543705,-138.107873
29057,-9.184143,7.778902,0.513228,-5.982903,-0.507640,0.630923,1.586566,-0.073877,-0.521644,-0.091640,0.077984,0.005717,0.999965,0.007933,-0.000369,-0.002608,0.341679,-0.552483,0.488551,0.582525,114.624151,77.829856,-137.744949
29058,-8.812545,8.578121,0.009793,-6.711604,-1.196055,0.422948,0.904018,-0.072340,-0.558519,-0.087886,0.086025,0.000455,0.999986,0.004520,-0.000362,-0.002793,0.346068,-0.551951,0.489628,0.579527,115.575579,78.133750,-137.322689
29059,-9.668605,6.111038,-1.168316,-3.977021,-1.481626,0.872783,0.400371,-0.059305,-0.615740,-0.096494,0.061431,-0.011589,0.999993,0.002002,-0.000297,-0.003079,0.349081,-0.552549,0.488998,0.577678,116.375810,78.461867,-136.739077
29060,-9.163696,4.726357,-1.327650,-2.766599,-1.328504,0.119833,0.322254,-0.108856,-0.687896,-0.091466,0.047600,-0.013250,0.999993,0.001611,-0.000544,-0.003439,0.352305,-0.553222,0.487946,0.575965,117.135509,78.838175,-136.171912
29061,-8.885645,3.680467,-1.977784,-1.692629,-1.718222,-0.294577,0.138023,-0.089474,-0.724103,-0.088714,0.037140,-0.019792,0.999993,0.000690,-0.000447,-0.003621,0.354969,-0.554444,0.486195,0.574633,117.939688,79.225993,-135.432666
29062,-9.403023,2.059520,-1.627656,-0.259327,-0.896373,-0.094843,0.280503,-0.095216,-0.748618,-0.093944,0.020970,-0.016292,0.999992,0.001403,-0.000476,-0.003743,0.358201,-0.555365,0.484859,0.572864,118.902242,79.625460,-134.634983
29063,-9.428302,2.235863,-1.307530,-0.587850,-0.662401,-0.075299,0.325401,-0.113017,-0.762873,-0.094189,0.022739,-0.013092,0.999991,0.001627,-0.000565,-0.003814,0.361542,-0.556263,0.483481,0.571056,119.938007,80.034425,-133.771450
29064,-10.036830,2.034029,-1.057347,-0.471477,-0.321772,0.466745,0.221990,-0.103509,-0.834754,-0.100277,0.020771,-0.010602,0.999991,0.001110,-0.000518,-0.004174,0.364850,-0.557468,0.481695,0.569283,121.144178,80.472997,-132.692020
29065,-9.481562,0.950464,-0.292058,0.203945,0.601511,-0.300341,0.227871,-0.137427,-0.848342,-0.094772,0.009910,-0.002975,0.999990,0.001139,-0.000687,-0.004242,0.368209,-0.558660,0.479739,0.567602,122.391399,80.924382,-131.559835
29066,-9.298755,0.353700,-0.630854,0.776794,0.383401,-0.526192,0.264603,-0.122299,-0.827296,-0.092968,0.003930,-0.006360,0.999990,0.001323,-0.000611,-0.004136,0.371657,-0.559685,0.478055,0.565763,123.783288,81.356518,-130.322230
29067,-9.344033,1.168239,0.495898,-0.379849,1.219998,-0.469855,0.336824,-0.119823,-0.797992,-0.093396,0.012047,0.004923,0.999990,0.001684,-0.000599,-0.003990,0.375121,-0.560583,0.476562,0.563843,125.300883,81.769041,-128.982484
29068,-9.859451,0.552188,-0.156417,0.366700,0.786019,0.025267,0.098065,-0.105627,-0.783714,-0.098571,0.005909,-0.001613,0.999992,0.000490,-0.000528,-0.003919,0.377921,-0.561849,0.474541,0.562416,126.834613,82.164823,-127.507071
29069,-9.513839,0.488185,-0.162141,0.332243,0.729220,-0.318735,0.098253,-0.124230,-0.771980,-0.095118,0.005250,-0.001678,0.999992,0.000491,-0.000621,-0.003860,0.380641,-0.563103,0.472425,0.561108,128.436888,82.555884,-125.946602
29070,-9.201694,1.113263,-0.349327,-0.304644,0.322207,-0.547941,-0.047667,-0.101641,-0.748107,-0.091973,0.011476,-0.003543,0.999993,-0.000238,-0.000508,-0.003741,0.382914,-0.564554,0.470093,0.560061,130.130537,82.922156,-124.229239
29071,-9.383250,1.185230,0.026981,-0.526217,0.654155,-0.392196,-0.197941,-0.071243,-0.725952,-0.093789,0.012193,0.000224,0.999993,-0.000990,-0.000356,-0.003630,0.384534,-0.566397,0.467365,0.559372,131.963663,83.260368,-122.267822
29072,-9.908034,0.175142,-0.866515,0.658731,0.092575,0.112421,-0.387103,-0.071375,-0.722287,-0.099070,0.002092,-0.008704,0.999992,-0.001936,-0.000357,-0.003611,0.385698,-0.568504,0.464207,0.559063,133.864215,83.589367,-120.150207
29073,-9.990184,-0.200881,-1.025706,1.004811,0.021733,0.181593,-0.273340,-0.117983,-0.745712,-0.099902,-0.001650,-0.010314,0.999992,-0.001367,-0.000590,-0.003729,0.387258,-0.570390,0.461108,0.558630,135.969597,83.937831,-117.874108
29074,-9.403760,-0.649415,-1.490054,1.473605,-0.383741,-0.391777,-0.158729,-0.112684,-0.736690,-0.094052,-0.006160,-0.014949,0.999993,-0.000794,-0.000563,-0.003683,0.389187,-0.571964,0.458444,0.557870,138.381207,84.270829,-115.375190
29075,-9.613690,-0.447363,-1.346503,1.186218,-0.312216,-0.172603,0.048720,-0.108686,-0.736552,-0.096145,-0.004116,-0.013518,0.999993,0.000244,-0.000543,-0.003683,0.391609,-0.573213,0.456274,0.556672,141.233534,84.589520,-112.536745
29076,-9.026840,1.153385,-0.384904,-0.702942,0.085984,-0.731917,0.188955,-0.094178,-0.728041,-0.090224,0.011866,-0.003880,0.999993,0.000945,-0.000471,-0.003640,0.394457,-0.574127,0.454629,0.555063,144.520449,84.883779,-109.361682
29077,-8.938989,1.741693,0.675679,-1.624756,0.908238,-0.872301,0.007991,-0.054260,-0.684203,-0.089331,0.017722,0.006733,0.999994,0.000040,-0.000271,-0.003421,0.396481,-0.575475,0.452593,0.553888,147.978949,85.126972,-105.893962
29078,-9.233536,1.118904,0.703629,-1.084132,1.108560,-0.614826,-0.137815,-0.037782,-0.658954,-0.092299,0.011498,0.007011,0.999994,-0.000689,-0.000189,-0.003295,0.398066,-0.577016,0.450349,0.552976,151.592837,85.335991,-102.206715
29079,-9.721652,-0.407688,0.722337,0.325874,1.567784,-0.188031,-0.226674,-0.024619,-0.645101,-0.097230,-0.003755,0.007216,0.999994,-0.001133,-0.000123,-0.003225,0.399230,-0.578811,0.447825,0.552310,155.433307,85.513872,-98.223044
29080,-9.971763,-2.187884,-0.666216,2.367284,0.736850,0.113005,-0.078761,-0.036563,-0.668876,-0.099789,-0.021548,-0.006672,0.999994,-0.000394,-0.000183,-0.003344,0.401004,-0.580245,0.445709,0.551231,159.793088,85.680619,-93.823883
29081,-9.385216,-0.564812,-0.586844,0.725152,0.291842,-0.424698,0.190490,-0.034786,-0.656020,-0.093869,-0.005335,-0.005890,0.999994,0.000952,-0.000174,-0.003280,0.403421,-0.581189,0.444274,0.549629,164.543646,85.816131,-89.169029
29082,-10.186012,0.171055,-0.550206,-0.054533,0.157707,0.388222,0.095495,-0.016337,-0.693698,-0.101853,0.002066,-0.005509,0.999994,0.000477,-0.000082,-0.003468,0.405719,-0.582370,0.442602,0.548034,169.839008,85.915967,-83.934414
29083,-9.558180,-0.633124,-1.684827,0.975299,-0.770893,-0.166318,0.002586,-0.040678,-0.687899,-0.095599,-0.006002,-0.016868,0.999994,0.000013,-0.000203,-0.003439,0.407680,-0.583736,0.440536,0.546788,175.234609,85.992869,-78.526194
29084,-9.734884,-0.777405,-1.749734,1.067305,-0.804757,0.018219,0.108853,-0.056672,-0.683119,-0.097370,-0.007432,-0.017529,0.999994,0.000544,-0.000283,-0.003416,0.410074,-0.584737,0.438847,0.545284,-179.187791,86.042509,-73.018732
29085,-9.455887,0.055573,-1.824531,0.231768,-1.152105,-0.254217,0.110276,-0.072379,-0.684017,-0.094550,0.000889,-0.018279,0.999994,0.000551,-0.000362,-0.003420,0.412399,-0.585775,0.437013,0.543889,-173.500160,86.062621,-67.380284
29086,-9.293408,1.778746,-0.235249,-1.916820,-0.143022,-0.544909,-0.028320,-0.085181,-0.654304,-0.092874,0.018091,-0.002395,0.999995,-0.000142,-0.000426,-0.003272,0.414353,-0.586917,0.434954,0.542822,-168.107200,86.055597,-61.976917
29087,-9.088682,2.273718,0.295357,-2.584388,0.183975,-0.804473,-0.548574,-0.085522,-0.630827,-0.090816,0.023032,0.002852,0.999991,-0.002743,-0.000428,-0.003154,0.414619,-0.589152,0.431449,0.542995,-163.262143,86.018365,-56.804552
29088,-9.364122,1.306514,0.309513,-1.722664,0.454154,-0.522079,-0.796056,-0.039323,-0.625948,-0.093600,0.013370,0.003024,0.999987,-0.003980,-0.000197,-0.003130,0.414117,-0.591934,0.427461,0.543506,-158.859014,85.928918,-51.950053
29089,-9.766866,-1.649976,-0.514090,1.268930,0.532630,0.009949,-0.827940,-0.034499,-0.653486,-0.097721,-0.016202,-0.005090,0.999986,-0.004140,-0.000172,-0.003267,0.413492,-0.594907,0.423215,0.544058,-154.524033,85.804224,-47.127524
29090,-10.058667,-4.328480,-1.451951,4.025236,0.449819,0.464247,-0.340314,-0.023688,-0.684936,-0.100732,-0.042965,-0.014458,0.999993,-0.001702,-0.000118,-0.003425,0.414459,-0.596884,0.420311,0.543407,-150.038369,85.639928,-42.451605
29091,-9.863230,-3.295480,-0.907633,2.825690,0.623663,0.216936,0.324136,-0.055792,-0.679649,-0.098741,-0.032605,-0.009157,0.999993,0.001621,-0.000279,-0.003398,0.417368,-0.597450,0.419061,0.541522,-145.441397,85.464976,-38.026398
29092,-9.460258,-0.137149,-0.108657,-0.455241,0.387118,-0.369718,0.372525,-0.041623,-0.656069,-0.094606,-0.001059,-0.001108,0.999993,0.001863,-0.000208,-0.003280,0.420420,-0.597818,0.418140,0.539461,-141.359971,85.266477,-34.165566
29093,-9.777851,0.178083,-0.521627,-0.714658,-0.108316,-0.046042,0.108714,-0.033329,-0.654155,-0.097771,0.002103,-0.005231,0.999994,0.000544,-0.000167,-0.003271,0.422558,-0.598829,0.416422,0.537997,-137.813113,85.044334,-30.667870
29094,-9.578197,-1.075915,-1.123611,0.613818,-0.342550,-0.134489,-0.040909,-0.045104,-0.641460,-0.095813,-0.010454,-0.011256,0.999995,-0.000205,-0.000226,-0.003207,0.424323,-0.600022,0.414405,0.536835,-134.661455,84.815615,-27.498296
29095,-9.505602,-0.841984,-1.066177,0.323799,-0.381317,-0.223549,0.005866,-0.029893,-0.634009,-0.095080,-0.008118,-0.010676,0.999995,0.000029,-0.000149,-0.003170,0.426083,-0.601205,0.412469,0.535607,-131.862467,84.569373,-24.689994
29096,-9.507811,0.238096,-0.743299,-0.855326,-0.413419,-0.320330,0.044817,-0.016028,-0.628204,-0.095069,0.002681,-0.007440,0.999995,0.000224,-0.000080,-0.003141,0.428001,-0.602255,0.410777,0.534196,-129.368554,84.309050,-22.228272
29097,-8.992995,1.094581,0.129991,-1.931430,0.127915,-0.961590,-0.154601,-0.003354,-0.617085,-0.089896,0.011224,0.001290,0.999995,-0.000773,-0.000017,-0.003085,0.429169,-0.603807,0.408513,0.533242,-127.304256,84.039615,-20.063578
29098,-9.364569,-1.134584,-0.388140,0.250526,0.295270,-0.379616,-0.382643,0.015879,-0.641304,-0.093682,-0.011053,-0.003853,0.999993,-0.001913,0.000079,-0.003207,0.429755,-0.605875,0.405698,0.532574,-125.557387,83.745681,-18.103722
29099,-9.834200,-4.013135,-1.134826,3.095910,0.449956,0.400884,0.089324,-0.001368,-0.663659,-0.098474,-0.039800,-0.011367,0.999994,0.000447,-0.000007,-0.003318,0.431774,-0.606988,0.403937,0.531010,-123.585501,83.439787,-16.170303
29100,-9.934864,-2.447439,-0.770370,1.427622,0.296911,0.343995,0.716474,-0.031298,-0.682240,-0.099430,-0.024107,-0.007806,0.999988,0.003582,-0.000156,-0.003411,0.435895,-0.606621,0.403819,0.528145,-121.267038,83.126422,-14.269127
29101,-9.447043,0.903032,0.168229,-2.032845,0.165736,-0.542838,0.696307,-0.042144,-0.688600,-0.094439,0.009350,0.001695,0.999988,0.003482,-0.000211,-0.003443,0.439886,-0.606341,0.403489,0.525402,-119.093275,82.804304,-12.480219
29102,-9.393376,1.638678,0.252391,-2.810166,0.017663,-0.697493,0.332640,-0.029192,-0.708008,-0.093875,0.016715,0.002538,0.999992,0.001663,-0.000146,-0.003540,0.442889,-0.606847,0.402274,0.523223,-117.302523,82.461681,-10.887101
29103,-9.204140,0.590247,-0.389029,-1.669160,-0.323400,-0.739381,-0.074075,-0.032609,-0.708004,-0.092019,0.006227,-0.003908,0.999994,-0.000370,-0.000163,-0.003540,0.444560,-0.608312,0.399873,0.521942,-115.879193,82.114101,-9.407308
29104,-9.492847,-0.735442,-1.046026,-0.325252,-0.588933,-0.257783,-0.247917,-0.012678,-0.718315,-0.094953,-0.007026,-0.010457,0.999993,-0.001240,-0.000063,-0.003592,0.445779,-0.610154,0.397135,0.520842,-114.728274,81.752282,-8.121404
29105,-9.521522,-1.441335,-0.864539,0.228058,-0.228915,-0.149380,-0.290719,-0.017584,-0.688257,-0.095263,-0.014098,-0.008633,0.999993,-0.001454,-0.000088,-0.003441,0.446697,-0.612086,0.394252,0.519979,-113.736399,81.403620,-6.949685
29106,-9.057125,-1.229235,-0.155108,-0.163624,0.365647,-0.680008,-0.414907,-0.009789,-0.640796,-0.090610,-0.012005,-0.001530,0.999993,-0.002075,-0.000049,-0.003204,0.447182,-0.614142,0.391310,0.519360,-112.989539,81.075922,-5.972847
29107,-8.689641,-3.175497,0.200207,1.571717,1.266614,-0.781697,-0.573557,0.035647,-0.634818,-0.086996,-0.031473,0.002108,0.999991,-0.002868,0.000178,-0.003174,0.446976,-0.616720,0.387963,0.518992,-112.552155,80.739435,-5.196443
29108,-10.080290,-7.856427,-0.782081,5.981969,1.750514,1.372057,-0.143801,0.070754,-0.647318,-0.101059,-0.078243,-0.007729,0.999994,-0.000719,0.000354,-0.003237,0.448137,-0.618381,0.385862,0.517580,-112.006626,80.387920,-4.577314
29109,-10.451331,-6.858997,-0.746017,4.906464,1.447748,1.618077,0.929527,-0.012471,-0.633361,-0.104729,-0.068223,-0.007784,0.999984,0.004648,-0.000062,-0.003167,0.452648,-0.617446,0.386291,0.514441,-110.664490,80.059273,-3.755181
29110,-9.744018,-2.050838,-0.272463,0.305698,0.424883,0.134758,1.289418,-0.023534,-0.618531,-0.097503,-0.020189,-0.002867,0.999974,0.006447,-0.000118,-0.003093,0.458327,-0.615545,0.387754,0.510576,-109.167800,79.737204,-3.004661
29111,-9.926254,-0.581110,-1.257379,-0.907632,-0.968257,0.121466,1.073586,-0.051920,-0.622991,-0.099277,-0.005434,-0.012629,0.999981,0.005368,-0.000260,-0.003115,0.463295,-0.614116,0.388467,0.507260,-107.778343,79.414794,-2.216682
29112,-9.534292,-0.713491,-2.299393,-0.507840,-1.973033,-0.192519,0.973575,-0.079369,-0.637784,-0.095356,-0.006719,-0.023065,0.999983,0.004868,-0.000397,-0.003189,0.468113,-0.612793,0.388896,0.504099,-106.415353,79.085364,-1.414527
29113,-9.958750,-0.186536,-2.866865,-1.025147,-2.691358,0.143983,1.002534,-0.087016,-0.681451,-0.099580,-0.001382,-0.028720,0.999982,0.005013,-0.000435,-0.003407,0.473044,-0.611508,0.389139,0.500857,-105.048811,78.729716,-0.606666
29114,-10.524441,0.447884,-2.681545,-1.873846,-2.702405,0.547815,0.893980,-0.114065,-0.726777,-0.105212,0.004981,-0.026854,0.999983,0.004470,-0.000570,-0.003634,0.477879,-0.610414,0.388994,0.497704,-103.704343,78.349023,0.224033
29115,-18.922702,4.865704,-9.529549,-6.274478,-10.475319,8.172067,0.310394,-0.279205,-0.803688,-0.188896,0.049565,-0.095483,0.999990,0.001552,-0.001396,-0.004018,0.481346,-0.610503,0.386658,0.496072,-102.282212,77.942852,1.496080
29116,-11.030824,3.061100,-4.730204,-4.163216,-5.413024,0.521197,0.796550,-0.523471,-0.898962,-0.110045,0.031295,-0.047467,0.999979,0.003983,-0.002617,-0.004495,0.487062,-0.608924,0.384726,0.493931,-100.007312,77.502117,3.341206
29117,-11.020998,2.732476,-4.312255,-4.063159,-4.968026,0.499061,0.998017,-0.054710,-0.861880,-0.110078,0.028014,-0.043014,0.999978,0.004990,-0.000274,-0.004309,0.492306,-0.607972,0.384440,0.490114,-98.929757,77.026625,3.860346
29118,-13.831373,4.579821,-3.982220,-6.648156,-5.101017,2.753920,0.623606,-0.043643,-0.816366,-0.138116,0.046486,-0.039708,0.999987,0.003118,-0.000218,-0.004082,0.496336,-0.607797,0.383493,0.486997,-98.163474,76.574790,4.262486
29119,-13.357650,-0.726782,-3.175645,-1.790102,-3.190146,3.440879,1.042129,0.062853,-0.661315,-0.133609,-0.006661,-0.031750,0.999981,0.005211,0.000314,-0.003307,0.500966,-0.606589,0.384184,0.483203,-97.491034,76.200890,4.340665
29120,-11.720632,-1.247488,-4.500874,-0.754097,-4.380358,1.995358,1.860605,0.129219,-0.298092,-0.117253,-0.011881,-0.045045,0.999955,0.009303,0.000646,-0.001490,0.507103,-0.602699,0.388191,0.478443,-96.630868,76.029606,4.112816
29121,-10.581485,9.278744,0.918411,-11.560845,-0.860928,-1.781101,2.712281,0.033711,0.247156,-0.105928,0.092521,0.010458,0.999907,0.013561,0.000169,0.001236,0.514555,-0.595336,0.395488,0.473706,-95.203276,76.174758,3.983233
29122,-8.986491,17.032948,1.805353,-18.741490,-0.902911,-5.114740,1.465629,0.314827,0.712669,-0.090441,0.169869,0.019442,0.999966,0.007328,0.001574,0.003563,0.516631,-0.590790,0.401987,0.471663,-95.251475,76.572720,3.053838
29123,-12.036007,15.609492,-1.129487,-17.621639,-3.454693,-1.606773,0.206313,0.355486,0.931176,-0.121105,0.155544,-0.010919,0.999987,0.001032,0.001777,0.004656,0.514307,-0.589185,0.406151,0.472643,-96.216346,77.089533,1.942178
29124,-11.389510,11.408496,-1.293592,-13.325170,-2.970361,-1.143051,-0.337909,0.199370,0.998957,-0.114476,0.113492,-0.013014,0.999986,-0.001690,0.000997,0.004995,0.510600,-0.588367,0.408953,0.475257,-97.210384,77.654006,1.099724
29125,-9.754762,12.369599,0.484997,-14.073402,-1.379010,-2.853313,-0.841796,0.179043,0.944619,-0.098126,0.123253,0.004418,0.999980,-0.004209,0.000895,0.004723,0.505486,-0.588965,0.410194,0.478900,-98.502190,78.182522,0.272564
29126,-9.066624,10.945702,0.311735,-12.450288,-1.435651,-3.101885,-1.611137,0.180337,0.958498,-0.091187,0.109042,0.002320,0.999956,-0.008056,0.000902,0.004792,0.498131,-0.591335,0.409780,0.484013,-100.363076,78.717980,-0.711573
29127,-8.618097,6.788708,0.185118,-8.234240,-0.991015,-2.629009,-2.026584,0.127559,1.043163,-0.086533,0.067451,0.001221,0.999935,-0.010133,0.000638,0.005216,0.489305,-0.594482,0.408264,0.490400,-102.492630,79.295871,-1.697406
29128,-7.643302,5.046327,0.423102,-6.323131,-0.524219,-3.194075,-2.001597,0.078112,1.227588,-0.076739,0.050032,0.003759,0.999931,-0.010008,0.000391,0.006138,0.480253,-0.596857,0.407390,0.497145,-104.788233,79.980437,-2.898039
29129,-7.787335,5.964428,0.276341,-7.102561,-0.941326,-3.107597,-2.091464,0.069923,1.398003,-0.078287,0.059123,0.002171,0.999921,-0.010457,0.000350,0.006990,0.470338,-0.599125,0.406513,0.504558,-107.517221,80.745393,-4.449910
29130,-8.882535,6.203592,-0.382163,-7.228860,-1.712820,-1.917380,-2.193739,0.010360,1.519185,-0.089293,0.061312,-0.004492,0.999911,-0.010968,0.000052,0.007596,0.459999,-0.600979,0.405774,0.512419,-110.652836,81.578259,-6.389801
29131,-9.740999,4.360176,-1.209940,-5.212519,-2.118543,-0.663936,-2.230969,-0.051213,1.560910,-0.097742,0.042701,-0.012604,0.999907,-0.011155,-0.000256,0.007804,0.449339,-0.602722,0.404608,0.520685,-114.159022,82.423202,-8.638887
29132,-10.709452,3.343789,-2.127128,-3.922442,-2.742658,0.554848,-2.057177,-0.141840,1.549980,-0.107333,0.032385,-0.021684,0.999917,-0.010286,-0.000709,0.007750,0.439493,-0.603589,0.403844,0.528617,-117.887900,83.269517,-11.249993
29133,-10.645702,2.203341,-2.382597,-2.540749,-2.669595,0.688565,-1.831396,-0.192233,1.546866,-0.106599,0.020989,-0.024124,0.999928,-0.009157,-0.000961,0.007734,0.430215,-0.603904,0.403236,0.536299,-122.079334,84.099380,-14.410543
29134,-11.165851,0.813026,-2.985407,-0.876199,-2.785323,1.399806,-1.532715,-0.192504,1.564624,-0.111688,0.007027,-0.030018,0.999940,-0.007663,-0.000962,0.007823,0.421873,-0.603308,0.403660,0.543232,-127.380125,84.911682,-18.889528
29135,-10.446292,0.677022,-2.820689,-0.528486,-2.569517,0.706555,-1.151314,-0.204254,1.625694,-0.104484,0.005758,-0.028349,0.999950,-0.005756,-0.001021,0.008128,0.414355,-0.601836,0.405002,0.549615,-134.410254,85.700307,-25.280590
29136,-10.264152,0.181553,-2.601524,0.078332,-2.160616,0.554372,-0.836239,-0.141685,1.744662,-0.102633,0.000811,-0.026093,0.999953,-0.004181,-0.000708,0.008723,0.407380,-0.599469,0.407827,0.555297,-145.359062,86.420022,-35.799391
29137,-9.746411,-0.314629,-2.550135,0.748895,-1.909027,0.055753,-0.538028,-0.096005,1.917625,-0.097415,-0.004149,-0.025538,0.999950,-0.002690,-0.000480,0.009588,0.400598,-0.596323,0.411881,0.560601,-162.449204,86.964169,-52.608038
29138,-10.112733,0.074049,-2.206198,0.453758,-1.636646,0.397693,-0.226770,-0.013803,2.060874,-0.101126,-0.000327,-0.022069,0.999946,-0.001134,-0.000069,0.010304,0.394112,-0.592394,0.417399,0.565264,174.390051,87.102648,-75.670349
29139,-10.648212,1.225454,-1.335105,-0.721970,-1.109953,0.906964,-0.055459,0.002151,2.158484,-0.106606,0.011101,-0.013353,0.999942,-0.000277,0.000011,0.010792,0.387799,-0.587934,0.423631,0.569633,152.084509,86.739387,-97.974760
29140,-10.725565,1.848548,-0.762137,-1.281418,-0.700831,0.999245,-0.236382,0.011749,2.153289,-0.107447,0.017320,-0.007636,0.999941,-0.001182,0.000059,0.010766,0.380833,-0.583798,0.429288,0.574332,136.026835,85.998753,-113.919378
29141,-11.472554,2.094065,-0.588192,-1.323371,-0.498841,1.778062,-0.473711,-0.037570,2.064985,-0.114932,0.019741,-0.005951,0.999944,-0.002369,-0.000188,0.010325,0.373559,-0.580090,0.433876,0.579397,125.510139,85.110825,-124.194448
29142,-10.905803,0.283720,-0.667329,0.593915,0.078419,1.100587,-0.646076,-0.100176,1.948605,-0.109075,0.001753,-0.006735,0.999947,-0.003230,-0.000501,0.009743,0.366187,-0.576683,0.437494,0.584759,118.220852,84.182714,-131.143182
29143,-10.318865,-0.921763,-1.030606,2.005753,0.177535,0.401661,-0.693264,-0.129116,1.851450,-0.103091,-0.010208,-0.010338,0.999951,-0.003466,-0.000646,0.009257,0.359018,-0.573459,0.440563,0.590046,112.999454,83.253318,-135.995664
29144,-9.553908,-2.242143,-1.167500,3.393055,0.516536,-0.545273,-0.616936,-0.136155,1.801520,-0.095324,-0.023317,-0.011669,0.999954,-0.003085,-0.000681,0.009007,0.352168,-0.570104,0.443691,0.595061,109.081796,82.307476,-139.587796
29145,-9.321994,-3.398957,-1.973461,4.893153,0.221640,-0.961016,-0.352504,-0.102622,1.795349,-0.092899,-0.034859,-0.019721,0.999958,-0.001762,-0.000513,0.008977,0.346013,-0.566374,0.447576,0.599309,106.279862,81.340322,-142.213706
29146,-9.633859,-3.156692,-2.014900,4.877892,0.179976,-0.701883,0.031583,-0.052818,1.804699,-0.096043,-0.032431,-0.020179,0.999959,0.000158,-0.000264,0.009023,0.340749,-0.562034,0.452717,0.602541,104.379055,80.340550,-144.156909
29147,-9.747026,-2.919853,-2.211980,4.902522,-0.027929,-0.626570,0.260663,-0.015556,1.807165,-0.097200,-0.030049,-0.022166,0.999958,0.001303,-0.000078,0.009036,0.336037,-0.557389,0.458551,0.605085,103.082592,79.331722,-145.625068
29148,-9.824353,-2.967477,-1.688131,4.917627,0.528628,-0.663447,0.548552,0.058558,1.774733,-0.097980,-0.030499,-0.016935,0.999957,0.002743,0.000293,0.008874,0.331999,-0.552488,0.465277,0.606672,102.396355,78.322148,-146.644461
29149,-9.989269,-2.868011,-1.669717,4.991645,0.570710,-0.563122,0.746644,0.124562,1.696011,-0.099655,-0.029463,-0.016744,0.999957,0.003733,0.000623,0.008480,0.328592,-0.547617,0.472429,0.607416,102.167027,77.352310,-147.316007
29150,-10.275408,-1.342116,-0.653192,3.424392,1.086386,-0.070860,0.917296,0.186691,1.568394,-0.102651,-0.014197,-0.006500,0.999958,0.004586,0.000933,0.007842,0.325839,-0.542887,0.479836,0.607338,102.298930,76.441441,-147.719723
29151,-11.070686,1.002918,0.553183,1.152621,1.614325,1.138805,0.734338,0.159066,1.393940,-0.110769,0.009237,0.005655,0.999969,0.003672,0.000795,0.006970,0.323187,-0.538771,0.486110,0.607432,102.372643,75.636603,-148.076659
29152,-10.098297,0.933165,0.920225,1.016686,1.918316,0.136093,0.294278,0.090626,1.247010,-0.101034,0.008688,0.009261,0.999979,0.001471,0.000453,0.006235,0.319920,-0.535467,0.490537,0.608523,102.135513,74.917636,-148.495663
29153,-9.607431,-0.118639,0.072027,2.262815,1.431913,-0.584993,0.085021,0.089303,1.110413,-0.096065,-0.001720,0.000763,0.999984,0.000425,0.000447,0.005552,0.316525,-0.532829,0.493919,0.609877,101.868695,74.279519,-148.822281
29154,-9.352767,-0.659540,0.000005,2.811509,1.534636,-1.000831,0.070344,0.069604,1.003460,-0.093493,-0.007065,0.000030,0.999987,0.000352,0.000348,0.005017,0.313433,-0.530383,0.496947,0.611145,101.617518,73.698929,-149.124995
29155,-8.514217,-0.543252,-0.307412,2.684440,1.118444,-1.786240,0.173599,0.033415,0.941112,-0.085116,-0.005830,-0.003065,0.999989,0.000868,0.000167,0.004706,0.310910,-0.527826,0.500035,0.612127,101.402827,73.161534,-149.452093
29156,-8.155761,-0.024372,0.058267,2.070849,1.275998,-2.027870,0.200428,0.039652,0.907266,-0.081555,-0.000614,0.000598,0.999989,0.001002,0.000198,0.004536,0.308518,-0.525300,0.503133,0.612971,101.240255,72.638040,-149.741784
29157,-8.389703,0.323331,-0.086121,1.932228,1.095748,-1.715502,0.197041,0.033597,0.907512,-0.083911,0.002853,-0.000844,0.999989,0.000985,0.000168,0.004538,0.306146,-0.522768,0.506182,0.613814,101.081205,72.118953,-150.026448
29158,-8.820514,1.247110,0.110213,1.218408,1.097352,-1.055995,0.188539,0.016707,0.904534,-0.088260,0.012071,0.001121,0.999989,0.000943,0.000084,0.004523,0.303777,-0.520174,0.509179,0.614716,100.899536,71.599239,-150.330727
29159,-9.076747,1.898716,0.237306,0.733338,1.091139,-0.630102,-0.031967,0.014832,0.853898,-0.090847,0.018600,0.002377,0.999991,-0.000160,0.000074,0.004269,0.301008,-0.518047,0.511334,0.616084,100.621615,71.111749,-150.604035
29160,-9.101466,1.803748,-0.155099,1.028601,0.777203,-0.622924,-0.207654,0.016590,0.777333,-0.091084,0.017682,-0.001562,0.999992,-0.001038,0.000083,0.003887,0.297991,-0.516357,0.512761,0.617781,100.280679,70.662996,-150.838358
29161,-9.424675,1.152666,-0.579170,1.914149,0.643916,-0.517011,-0.401668,0.041600,0.683735,-0.094287,0.011193,-0.005795,0.999992,-0.002008,0.000208,0.003419,0.294713,-0.515284,0.513358,0.619751,99.910324,70.267824,-150.986459
29162,-10.209712,0.713152,-1.203660,2.812786,0.338503,0.095333,-0.446260,0.045423,0.615649,-0.102121,0.006790,-0.012029,0.999993,-0.002231,0.000227,0.003078,0.291498,-0.514437,0.513655,0.621725,99.546052,69.906824,-151.101349
29163,-10.157254,-0.079586,-1.525782,3.672569,0.290854,-0.224599,-0.436822,0.055470,0.566108,-0.101574,-0.001117,-0.015227,0.999994,-0.002184,0.000277,0.002831,0.288450,-0.513745,0.513846,0.623558,99.225255,69.576266,-151.175833
29164,-9.606456,-0.770711,-1.512701,4.165341,0.447543,-1.002715,-0.297361,0.086758,0.546040,-0.096050,-0.007992,-0.015074,0.999995,-0.001487,0.000434,0.002730,0.285721,-0.512979,0.514474,0.624926,99.039487,69.250778,-151.191673
29165,-9.721602,-0.491995,-1.642577,4.044119,0.287935,-0.812042,-0.100456,0.142711,0.521440,-0.097214,-0.005182,-0.016354,0.999996,-0.000502,0.000714,0.002607,0.283445,-0.512182,0.515715,0.625593,99.058626,68.937486,-151.108889
29166,-10.013063,0.743912,-0.438196,2.666568,1.116032,-0.187174,0.013564,0.168581,0.493502,-0.100152,0.007192,-0.004297,0.999997,0.000068,0.000843,0.002468,0.281464,-0.511357,0.517287,0.625864,99.183567,68.634625,-150.982594
29167,-10.223487,1.348747,-0.355857,2.211711,1.076070,0.208073,-0.079594,0.168645,0.463311,-0.102269,0.013249,-0.003478,0.999997,-0.000398,0.000843,0.002317,0.279353,-0.510754,0.518473,0.626321,99.260657,68.351739,-150.850033
29168,-9.712104,1.616801,0.540205,1.534102,1.769590,-0.234287,-0.176804,0.200409,0.425347,-0.097150,0.015966,0.005485,0.999997,-0.000884,0.001002,0.002127,0.277015,-0.510467,0.519311,0.626899,99.331700,68.084574,-150.663806
29169,-9.578132,1.610544,0.605556,1.503176,1.835037,-0.374777,-0.343935,0.213209,0.382367,-0.095805,0.015933,0.006130,0.999996,-0.001720,0.001066,0.001912,0.274363,-0.510573,0.519517,0.627807,99.333550,67.843218,-150.448531
29170,-9.789272,2.194393,0.799157,1.018925,1.894358,0.018741,-0.539251,0.186553,0.316587,-0.097920,0.021811,0.008024,0.999995,-0.002696,0.000933,0.001583,0.271473,-0.511016,0.518912,0.629202,99.198325,67.639077,-150.260128
29171,-9.861539,1.995167,1.101936,1.126360,2.262419,-0.011786,-0.809128,0.165938,0.235572,-0.098630,0.019880,0.011021,0.999991,-0.004046,0.000830,0.001178,0.268211,-0.511976,0.517204,0.631223,98.899837,67.485444,-150.080806
29172,-10.027291,1.112379,0.713824,2.103319,2.223346,-0.172860,-0.925698,0.134031,0.169531,-0.100278,0.011072,0.007154,0.999989,-0.004628,0.000670,0.000848,0.264924,-0.513139,0.514916,0.633534,98.504081,67.370048,-149.934294
29173,-10.248927,0.114931,0.352212,3.180385,2.268767,-0.330303,-0.991375,0.111703,0.071636,-0.102488,0.001130,0.003574,0.999987,-0.004957,0.000559,0.000358,0.261841,-0.514572,0.512116,0.635918,98.063044,67.314769,-149.796005
29174,-10.026513,-0.245082,0.269966,3.444803,2.281253,-0.669760,-0.881356,0.088645,-0.018438,-0.100264,-0.002430,0.002755,0.999990,-0.004407,0.000443,-0.000092,0.259372,-0.515994,0.509402,0.637955,97.669361,67.310764,-149.674629
29175,-9.975131,-0.304434,0.466314,3.389138,2.478843,-0.747235,-0.821640,0.094529,-0.119708,-0.099751,-0.002965,0.004723,0.999991,-0.004108,0.000473,-0.000599,0.257370,-0.517617,0.506606,0.639675,97.338264,67.366192,-149.522584
29176,-9.842081,-0.637758,0.495300,3.597691,2.602621,-0.992169,-0.776729,0.097262,-0.192477,-0.098424,-0.006263,0.005025,0.999992,-0.003884,0.000486,-0.000962,0.255698,-0.519357,0.503767,0.641176,97.046851,67.461424,-149.355433
29177,-9.818823,-1.123336,0.163966,4.113299,2.477861,-1.173304,-0.653620,0.105700,-0.244759,-0.098201,-0.011108,0.001728,0.999994,-0.003268,0.000528,-0.001224,0.254495,-0.521101,0.501184,0.642262,96.848313,67.587767,-149.164320
29178,-9.913266,-1.311913,0.481018,4.142764,2.859272,-1.158944,-0.496198,0.108204,-0.325082,-0.099151,-0.012946,0.004896,0.999995,-0.002481,0.000541,-0.001625,0.253947,-0.522839,0.498899,0.642845,96.755036,67.758539,-148.957023
29179,-10.108905,-1.005715,0.769751,3.786275,3.045555,-0.858221,-0.444169,0.115826,-0.429272,-0.101106,-0.009823,0.007778,0.999995,-0.002221,0.000579,-0.002146,0.253854,-0.524800,0.496511,0.643133,96.723150,67.989454,-148.716033
29180,-10.613382,-0.158288,1.139013,3.020621,3.147637,-0.069274,-0.517300,0.086680,-0.593865,-0.106133,-0.001238,0.011440,0.999992,-0.002586,0.000433,-0.002969,0.254164,-0.527154,0.493413,0.643469,96.635554,68.315209,-148.490269
29181,-10.482744,-0.662080,1.504096,3.178529,3.622126,-0.359383,-0.767165,0.025883,-0.805613,-0.104851,-0.006141,0.015079,0.999985,-0.003836,0.000129,-0.004028,0.254644,-0.530149,0.488864,0.644291,96.355570,68.766580,-148.318127
29182,-10.523955,-1.672297,1.127929,4.117642,3.659711,-0.621782,-0.987887,0.027832,-1.019848,-0.105321,-0.016130,0.011375,0.999975,-0.004939,0.000139,-0.005099,0.255214,-0.533926,0.483018,0.645355,95.981326,69.339734,-148.111948
29183,-13.217682,0.339571,0.373263,3.429294,2.637583,2.687009,-1.262641,0.227952,-1.249017,-0.132148,0.004245,0.003858,0.999960,-0.006313,0.001140,-0.006245,0.255290,-0.539225,0.475898,0.646208,95.795951,70.032585,-147.537520
29184,-29.217516,18.302139,-17.922245,1.257328,-18.208729,24.490278,-2.908922,1.515000,-0.961028,-0.292659,0.181816,-0.179657,0.999854,-0.014544,0.007575,-0.004805,0.246890,-0.549993,0.465788,0.647761,96.685685,70.480063,-144.820623
29185,-22.861025,7.084014,36.806387,-16.893967,33.823442,12.502047,3.628443,-0.413232,-0.226570,-0.229296,0.064413,0.368798,0.999833,0.018141,-0.002066,-0.001133,0.258499,-0.544570,0.476346,0.640091,98.134825,70.633819,-145.487843
29186,-5.153374,-7.597206,-20.889744,17.742199,-13.992745,-6.666622,-7.030499,-0.488758,-2.113190,-0.051878,-0.082706,-0.206195,0.999323,-0.035145,-0.002443,-0.010564,0.247093,-0.556700,0.447157,0.655042,93.633568,71.860865,-145.986324
29187,-3.799338,-2.764356,4.937987,0.714494,6.231367,-7.144430,-0.018760,0.560350,-1.439456,-0.038052,-0.027365,0.049489,0.999970,-0.000094,0.002802,-0.007197,0.250471,-0.561720,0.443787,0.651758,94.800771,72.654091,-144.748909
29188,-12.461976,-7.652373,6.022157,6.122672,11.020999,-0.264575,-2.504791,-0.001788,-1.027234,-0.125009,-0.075120,0.061167,0.999908,-0.012524,-0.000009,-0.005136,0.246746,-0.567032,0.432711,0.656013,93.483950,73.235712,-144.624336
29189,-6.890352,-14.178207,-11.094726,19.049157,-1.034046,-7.047035,-0.928888,-0.004348,-0.921055,-0.069555,-0.141976,-0.110290,0.999979,-0.004644,-0.000022,-0.004605,0.247113,-0.570104,0.427057,0.656916,93.031584,73.756939,-144.540388
29190,-8.976585,-17.408996,-8.969200,20.996905,2.685997,-5.812295,1.608732,0.398275,-0.755682,-0.090601,-0.173021,-0.090907,0.999959,0.008044,0.001991,-0.003778,0.253305,-0.570974,0.430671,0.651420,94.831760,74.168867,-143.625595
29191,-11.258467,1.280998,5.679486,-1.558579,6.045813,1.217680,2.358736,0.224395,-0.679879,-0.112478,0.012520,0.057070,0.999924,0.011793,0.001122,-0.003399,0.261726,-0.570099,0.436683,0.644822,96.765832,74.537805,-143.019906
29192,-9.261509,7.743043,4.278566,-6.697782,1.470395,1.004577,0.897328,0.158343,-0.587875,-0.092353,0.077509,0.043206,0.999985,0.004487,0.000792,-0.002939,0.265820,-0.570673,0.438106,0.641665,97.746432,74.857176,-142.535505
29193,-9.706017,6.075334,-0.214712,-3.035238,-1.515579,1.125876,0.777156,0.204045,-0.578162,-0.096886,0.061041,-0.001811,0.999988,0.003886,0.001020,-0.002891,0.269419,-0.571515,0.439234,0.638637,98.785535,75.162748,-141.920104
29194,-9.451791,6.186952,1.308110,-4.007820,-0.288583,0.825898,-0.078396,0.100389,-0.661661,-0.094306,0.062187,0.013104,0.999994,-0.000392,0.000502,-0.003308,0.271075,-0.573351,0.437233,0.637663,99.163833,75.524747,-141.481884
29195,-9.209524,3.343085,-2.906661,0.375100,-2.677226,0.042850,-0.017916,0.091570,-0.687784,-0.091993,0.033745,-0.029027,0.999994,-0.000090,0.000458,-0.003439,0.272991,-0.575128,0.435344,0.636537,99.591636,75.899643,-141.029178
29196,-10.091622,2.401822,-5.821508,2.698655,-4.661358,0.793323,0.637393,0.035480,-0.744834,-0.100836,0.024579,-0.058119,0.999988,0.003187,0.000177,-0.003724,0.277103,-0.575946,0.435282,0.634059,100.314486,76.312853,-140.660006
29197,-8.925740,4.591479,-3.920817,-0.415138,-4.238762,0.085945,0.563597,-0.028249,-0.840560,-0.089058,0.046400,-0.039090,0.999987,0.002818,-0.000141,-0.004203,0.281425,-0.576858,0.434622,0.631775,100.923043,76.783925,-140.365657
29198,-8.381807,4.885272,-3.648835,-0.988233,-4.247306,-0.409625,0.371987,-0.011816,-0.847052,-0.083608,0.049275,-0.036402,0.999989,0.001860,-0.000059,-0.004235,0.285183,-0.578094,0.433342,0.629836,101.494790,77.257627,-139.996933
29199,-8.559759,4.460124,-2.348682,-1.299840,-2.916817,-0.406282,0.261027,0.016625,-0.820242,-0.085416,0.044982,-0.023421,0.999991,0.001305,0.000083,-0.004101,0.288458,-0.579506,0.431831,0.628081,102.098380,77.710543,-139.531199
29200,-8.958549,5.485965,-0.250330,-3.199820,-1.528212,0.078680,0.004370,0.028578,-0.835532,-0.089356,0.055233,-0.002489,0.999991,0.000022,0.000143,-0.004178,0.291016,-0.581351,0.429472,0.626813,102.632461,78.170799,-138.986942
29201,-9.058250,5.474460,1.104102,-3.891630,-0.372661,0.084596,-0.467380,0.038488,-0.837471,-0.090350,0.055149,0.010930,0.999988,-0.002337,0.000192,-0.004187,0.292172,-0.583905,0.425643,0.626513,102.964380,78.628736,-138.374081
29202,-9.348329,3.293606,1.450007,-2.200508,0.922102,-0.083950,-0.748514,0.027828,-0.834884,-0.093343,0.033380,0.014389,0.999984,-0.003743,0.000139,-0.004174,0.292522,-0.586815,0.420907,0.626831,103.136882,79.087062,-137.760491
29203,-9.211198,1.066476,0.863364,-0.084667,1.394870,-0.605326,-0.716227,0.015976,-0.844684,-0.092065,0.011085,0.008602,0.999985,-0.003581,0.000080,-0.004223,0.293006,-0.589642,0.416219,0.627081,103.336265,79.551019,-137.139342
29204,-9.480553,0.258241,0.487039,0.761008,1.448104,-0.458112,-0.510180,0.034090,-0.849375,-0.094793,0.002997,0.004879,0.999988,-0.002551,0.000170,-0.004247,0.294074,-0.592218,0.412173,0.626827,103.752578,80.015537,-136.418649
29205,-9.420046,0.158406,0.508838,0.758052,1.469723,-0.523662,-0.340999,0.019622,-0.836604,-0.094192,0.001987,0.005094,0.999990,-0.001705,0.000098,-0.004183,0.295619,-0.594461,0.408671,0.626270,104.267785,80.472902,-135.696995
29206,-9.252279,-0.336156,-0.509429,1.607179,0.778304,-0.713900,-0.237864,0.035041,-0.817879,-0.092536,-0.002989,-0.005074,0.999991,-0.001189,0.000175,-0.004089,0.297382,-0.596550,0.405555,0.625474,104.938598,80.917506,-134.878498
29207,-9.446558,-0.371540,-0.671073,1.676557,0.646412,-0.506953,-0.151685,0.057048,-0.783277,-0.094481,-0.003350,-0.006681,0.999992,-0.000758,0.000285,-0.003916,0.299237,-0.598500,0.402845,0.624477,105.783841,81.336723,-133.934416
29208,-9.367621,0.026134,-0.803648,1.332655,0.295499,-0.510259,-0.113839,0.049458,-0.750814,-0.093676,0.000608,-0.008014,0.999993,-0.000569,0.000247,-0.003754,0.301124,-0.600295,0.400325,0.623466,106.673477,81.738322,-132.968418
29209,-9.082801,0.921659,-0.812276,0.483704,-0.216501,-0.662532,-0.150465,0.086975,-0.709996,-0.090798,0.009533,-0.008090,0.999993,-0.000752,0.000435,-0.003550,0.302685,-0.602172,0.397873,0.622469,107.735128,82.107463,-131.808417
29210,-9.418308,1.624353,0.070680,-0.593701,0.198118,-0.275604,-0.231418,0.103064,-0.676399,-0.094127,0.016563,0.000736,0.999993,-0.001157,0.000515,-0.003382,0.303871,-0.604148,0.395281,0.621627,108.874092,82.453574,-130.524613
29211,-9.902617,1.044613,0.038047,-0.097737,0.481242,0.132813,-0.391812,0.093889,-0.663389,-0.098991,0.010775,0.000406,0.999992,-0.001959,0.000469,-0.003317,0.304537,-0.606305,0.392218,0.621141,109.977429,82.789623,-129.185059
29212,-9.445677,0.494212,0.049598,0.272011,0.697311,-0.383640,-0.443331,0.099608,-0.678289,-0.094439,0.005264,0.000532,0.999992,-0.002217,0.000498,-0.003391,0.305087,-0.608578,0.388945,0.620707,111.218078,83.130272,-127.678443
29213,-9.426321,0.241115,0.065461,0.420192,0.813112,-0.427598,-0.452840,0.120175,-0.666323,-0.094254,0.002727,0.000705,0.999992,-0.002264,0.000601,-0.003332,0.305516,-0.610896,0.385711,0.620236,112.668955,83.454385,-125.955684
29214,-9.331117,0.549965,0.579433,-0.173581,1.058689,-0.509103,-0.402400,0.116874,-0.618095,-0.093290,0.005800,0.005837,0.999993,-0.002012,0.000584,-0.003090,0.305961,-0.613024,0.382763,0.619743,114.191402,83.749978,-124.191103
