PacketCounter,Acc_X,Acc_Y,Acc_Z,FreeAcc_E,FreeAcc_N,FreeAcc_U,Gyr_X,Gyr_Y,Gyr_Z,VelInc_X,VelInc_Y,VelInc_Z,OriInc_q0,OriInc_q1,OriInc_q2,OriInc_q3,Quat_q0,Quat_q1,Quat_q2,Quat_q3,Roll,Pitch,Yaw
28694,-4.102416,3.447588,8.340041,0.008865,0.041980,0.100442,-0.031044,-0.010064,-0.028119,-0.041024,0.034495,0.083393,1.000000,-0.000155,-0.000050,-0.000141,0.225644,0.251181,-0.127371,-0.932615,22.640716,24.269495,-147.868216
28695,-4.020826,3.429541,8.379547,-0.078703,0.019886,0.093826,-0.025989,-0.009558,-0.027842,-0.040207,0.034312,0.083789,1.000000,-0.000130,-0.000048,-0.000139,0.225603,0.251093,-0.127212,-0.932670,22.616830,24.266127,-147.880526
28696,-3.993280,3.388340,8.353353,-0.098534,0.036532,0.046045,-0.018425,-0.006459,-0.026383,-0.039931,0.033896,0.083529,1.000000,-0.000092,-0.000032,-0.000132,0.225565,0.251017,-0.127093,-0.932715,22.598211,24.262660,-147.891123
28697,-4.061965,3.417258,8.371870,-0.043195,0.045142,0.100007,-0.009740,-0.006940,-0.023959,-0.040618,0.034182,0.083716,1.000000,-0.000049,-0.000035,-0.000120,0.225523,0.250958,-0.127012,-0.932752,22.584822,24.259814,-147.900545
28698,-4.072554,3.393654,8.370809,-0.041193,0.069437,0.095214,-0.007928,-0.006296,-0.017903,-0.040725,0.033944,0.083705,1.000000,-0.000040,-0.000031,-0.000090,0.225512,0.250889,-0.126952,-0.932782,22.574243,24.254572,-147.906181
28699,-4.065093,3.419944,8.318642,-0.008794,0.035763,0.057442,-0.003586,-0.005966,-0.014200,-0.040651,0.034204,0.083185,1.000000,-0.000018,-0.000030,-0.000071,0.225509,0.250835,-0.126912,-0.932803,22.566806,24.250093,-147.909704
28700,-4.084618,3.456005,8.312838,0.023836,0.012989,0.073192,-0.003546,-0.009504,-0.011308,-0.040848,0.034564,0.083126,1.000000,-0.000018,-0.000048,-0.000057,0.225520,0.250752,-0.126884,-0.932826,22.559981,24.241719,-147.912286
28701,-4.021528,3.449102,8.364197,-0.052791,-0.005334,0.088119,-0.000651,-0.008903,-0.007180,-0.040218,0.034493,0.083640,1.000000,-0.000003,-0.000045,-0.000036,0.225544,0.250683,-0.126869,-0.932841,22.555608,24.234142,-147.912442
28702,-3.990839,3.433896,8.372463,-0.084578,-0.005732,0.077176,0.000083,-0.010492,-0.009161,-0.039911,0.034341,0.083723,1.000000,0.000000,-0.000052,-0.000046,0.225561,0.250599,-0.126862,-0.932860,22.551273,24.224785,-147.914016
28703,-4.050076,3.434435,8.376188,-0.039103,0.023005,0.104819,0.000062,-0.008724,-0.010607,-0.040503,0.034346,0.083760,1.000000,0.000000,-0.000044,-0.000053,0.225568,0.250534,-0.126845,-0.932878,22.546512,24.218056,-147.916116
28704,-4.051877,3.411139,8.341250,-0.026248,0.040392,0.067986,0.012031,-0.012871,-0.011075,-0.040522,0.034109,0.083412,1.000000,0.000060,-0.000064,-0.000055,0.225559,0.250453,-0.126894,-0.932896,22.548324,24.207869,-147.919373
28705,-4.019249,3.448977,8.365344,-0.049354,-0.004164,0.088137,0.009870,-0.012782,-0.007221,-0.040197,0.034487,0.083653,1.000000,0.000049,-0.000064,-0.000036,0.225567,0.250378,-0.126933,-0.932909,22.549587,24.198249,-147.920485
28706,-4.048593,3.464405,8.357640,-0.015666,-0.003008,0.099078,0.011317,-0.013051,-0.007648,-0.040490,0.034641,0.083576,1.000000,0.000057,-0.000065,-0.000038,0.225575,0.250293,-0.126983,-0.932923,22.551781,24.187224,-147.921800
28707,-3.997939,3.551651,8.330812,-0.008133,-0.105350,0.086252,0.007730,-0.015602,-0.006901,-0.039985,0.035515,0.083306,1.000000,0.000039,-0.000078,-0.000035,0.225586,0.250202,-0.127015,-0.932940,22.551616,24.176041,-147.923406
28708,-3.956524,3.558837,8.340678,-0.040938,-0.129689,0.080130,0.000816,-0.012085,-0.011138,-0.039568,0.035590,0.083405,1.000000,0.000004,-0.000060,-0.000056,0.225591,0.250112,-0.127010,-0.932964,22.547063,24.166303,-147.926513
28709,-4.025516,3.508285,8.362035,-0.015216,-0.050031,0.108691,-0.005364,-0.009016,-0.012375,-0.040257,0.035088,0.083618,1.000000,-0.000027,-0.000045,-0.000062,0.225597,0.250041,-0.126967,-0.932987,22.538747,24.159808,-147.929707
28710,-4.035349,3.485197,8.361141,-0.013247,-0.025743,0.103889,-0.008195,-0.014925,-0.012162,-0.040358,0.034858,0.083607,1.000000,-0.000041,-0.000075,-0.000061,0.225606,0.249928,-0.126922,-0.933021,22.528518,24.148795,-147.934089
28711,-4.035212,3.512476,8.343071,0.008315,-0.052487,0.098137,-0.015067,-0.014946,-0.013506,-0.040356,0.035134,0.083425,1.000000,-0.000075,-0.000075,-0.000068,0.225615,0.249819,-0.126839,-0.933060,22.513792,24.139408,-147.939362
28712,-4.045476,3.517411,8.323532,0.031066,-0.055156,0.087577,-0.016147,-0.014903,-0.011578,-0.040459,0.035183,0.083229,1.000000,-0.000081,-0.000075,-0.000058,0.225638,0.249697,-0.126758,-0.933098,22.499155,24.128288,-147.943397
28713,-4.071168,3.496022,8.390249,0.011139,-0.017224,0.146853,-0.019045,-0.015507,-0.015702,-0.040715,0.034971,0.083896,1.000000,-0.000095,-0.000078,-0.000079,0.225641,0.249582,-0.126654,-0.933142,22.481579,24.119083,-147.950072
28714,-4.032845,3.506369,8.346784,0.010989,-0.051521,0.098139,-0.021572,-0.015195,-0.013346,-0.040332,0.035075,0.083461,1.000000,-0.000108,-0.000076,-0.000067,0.225661,0.249454,-0.126546,-0.933186,22.463395,24.108207,-147.955197
28715,-4.030792,3.446439,8.386211,-0.029833,0.002599,0.109654,-0.020516,-0.013471,-0.016718,-0.040311,0.034476,0.083856,1.000000,-0.000103,-0.000067,-0.000084,0.225663,0.249347,-0.126431,-0.933230,22.444939,24.100298,-147.961966
28716,-4.009558,3.488190,8.390641,-0.030885,-0.044863,0.119277,-0.019457,-0.010608,-0.015110,-0.040097,0.034893,0.083901,1.000000,-0.000097,-0.000053,-0.000076,0.225676,0.249244,-0.126325,-0.933268,22.428002,24.092245,-147.967010
28717,-4.019571,3.464023,8.390073,-0.029116,-0.020735,0.114470,-0.018375,-0.009513,-0.012056,-0.040198,0.034650,0.083896,1.000000,-0.000092,-0.000048,-0.000060,0.225699,0.249156,-0.126222,-0.933300,22.412268,24.085410,-147.970120
28718,-3.989704,3.475879,8.379882,-0.040116,-0.048151,0.097811,-0.019458,-0.010609,-0.015108,-0.039899,0.034770,0.083793,1.000000,-0.000097,-0.000053,-0.000076,0.225711,0.249053,-0.126116,-0.933339,22.395333,24.077361,-147.975163
28719,-4.001401,3.509317,8.341110,0.003264,-0.077909,0.081480,-0.016630,-0.004699,-0.015318,-0.040013,0.035103,0.083407,1.000000,-0.000083,-0.000023,-0.000077,0.225720,0.248991,-0.126012,-0.933368,22.380299,24.073787,-147.979011
28720,-4.051012,3.420212,8.368992,-0.002697,0.025013,0.094277,-0.022765,-0.005175,-0.013658,-0.040510,0.034214,0.083685,1.000000,-0.000114,-0.000026,-0.000068,0.225747,0.248908,-0.125886,-0.933400,22.362348,24.068304,-147.981906
28721,-4.050227,3.389352,8.388883,-0.022747,0.052166,0.100040,-0.013342,-0.007229,-0.013231,-0.040503,0.033902,0.083885,1.000000,-0.000067,-0.000036,-0.000066,0.225760,0.248837,-0.125803,-0.933427,22.349447,24.062933,-147.985144
28722,-4.069326,3.396029,8.402330,-0.010859,0.056403,0.121510,-0.007961,-0.002259,-0.009372,-0.040693,0.033966,0.084021,1.000000,-0.000040,-0.000011,-0.000047,0.225790,0.248782,-0.125748,-0.933442,22.341270,24.058076,-147.984857
28723,-3.969797,3.430502,8.389572,-0.067691,-0.023738,0.082130,-0.003958,-0.003468,-0.005732,-0.039698,0.034308,0.083894,1.000000,-0.000020,-0.000017,-0.000029,0.225828,0.248734,-0.125713,-0.933450,22.335886,24.053064,-147.982844
28724,-3.988941,3.438051,8.402648,-0.055795,-0.019505,0.103605,-0.001821,-0.000645,-0.006051,-0.039889,0.034382,0.084026,1.000000,-0.000009,-0.000003,-0.000030,0.225867,0.248692,-0.125690,-0.933455,22.332161,24.048349,-147.980247
28725,-4.012194,3.480033,8.342299,0.009387,-0.052252,0.076674,-0.000054,0.002403,-0.007869,-0.040120,0.034802,0.083423,1.000000,-0.000000,0.000012,-0.000039,0.225895,0.248677,-0.125664,-0.933456,22.329079,24.046914,-147.978075
28726,-4.001478,3.472822,8.362964,-0.011468,-0.048878,0.087261,-0.004372,0.001433,-0.005139,-0.040013,0.034731,0.083629,1.000000,-0.000022,0.000007,-0.000026,0.225943,0.248641,-0.125627,-0.933459,22.324310,24.043111,-147.974451
28727,-4.023283,3.456820,8.340786,0.012058,-0.027759,0.071857,-0.005824,0.000563,-0.009691,-0.040231,0.034573,0.083407,1.000000,-0.000029,0.000003,-0.000048,0.225967,0.248612,-0.125574,-0.933468,22.317313,24.041097,-147.973773
28728,-4.020578,3.450434,8.395188,-0.019627,-0.017497,0.114499,-0.007636,0.002191,-0.005780,-0.040204,0.034509,0.083951,1.000000,-0.000038,0.000011,-0.000029,0.226017,0.248577,-0.125520,-0.933472,22.310598,24.037846,-147.970345
28729,-4.042407,3.434489,8.372968,0.003890,0.003626,0.099090,-0.001846,0.001125,-0.007495,-0.040422,0.034347,0.083730,1.000000,-0.000009,0.000006,-0.000037,0.226047,0.248554,-0.125488,-0.933476,22.306454,24.035652,-147.968259
28730,-3.971998,3.426422,8.390198,-0.061652,-0.021703,0.082174,-0.003663,0.001616,-0.008565,-0.039718,0.034267,0.083902,1.000000,-0.000018,0.000008,-0.000043,0.226078,0.248522,-0.125450,-0.933482,22.301298,24.032714,-147.966573
28731,-4.024135,3.425327,8.360135,-0.005385,0.000310,0.077628,-0.001137,0.001308,-0.010922,-0.040239,0.034256,0.083601,1.000000,-0.000006,0.000007,-0.000055,0.226092,0.248502,-0.125416,-0.933488,22.296768,24.031363,-147.966432
28732,-3.992942,3.462105,8.384041,-0.028138,-0.044164,0.097870,-0.001896,0.004664,-0.010383,-0.039926,0.034624,0.083841,1.000000,-0.000009,0.000023,-0.000052,0.226114,0.248488,-0.125381,-0.933491,22.292488,24.030444,-147.965092
28733,-3.974468,3.453606,8.371041,-0.038339,-0.047848,0.076415,-0.000423,0.002628,-0.009368,-0.039742,0.034538,0.083711,1.000000,-0.000002,0.000013,-0.000047,0.226135,0.248475,-0.125351,-0.933494,22.288862,24.029455,-147.963735
28734,-3.984702,3.402305,8.388269,-0.057319,0.003327,0.077373,-0.000448,0.004398,-0.010811,-0.039843,0.034025,0.083883,1.000000,-0.000002,0.000022,-0.000054,0.226153,0.248461,-0.125322,-0.933497,22.285284,24.028494,-147.962718
28735,-4.028513,3.371456,8.343297,-0.011108,0.045381,0.046524,0.004927,0.008234,-0.011932,-0.040280,0.033715,0.083435,1.000000,0.000025,0.000041,-0.000060,0.226159,0.248481,-0.125308,-0.933492,22.284661,24.031034,-147.961516
28736,-3.996064,3.461331,8.382873,-0.024730,-0.043033,0.097885,0.014011,0.005780,-0.006580,-0.039957,0.034609,0.083832,1.000000,0.000070,0.000029,-0.000033,0.226180,0.248488,-0.125350,-0.933479,22.290493,24.029897,-147.957693
28737,-4.047600,3.432767,8.371165,0.010666,0.005924,0.099084,0.009693,0.004808,-0.003850,-0.040473,0.034324,0.083714,1.000000,0.000048,0.000024,-0.000019,0.226215,0.248493,-0.125372,-0.933467,22.294178,24.028864,-147.952614
28738,-3.998318,3.491446,8.362602,-0.002167,-0.069367,0.092111,0.009248,0.010341,-0.009681,-0.039977,0.034913,0.083630,1.000000,0.000046,0.000052,-0.000048,0.226231,0.248517,-0.125383,-0.933455,22.296989,24.030829,-147.949502
28739,-3.997865,3.434298,8.399941,-0.043118,-0.015360,0.103675,0.009642,0.008347,-0.006738,-0.039974,0.034340,0.084003,1.000000,0.000048,0.000042,-0.000034,0.226255,0.248540,-0.125397,-0.933441,22.300306,24.032299,-147.945257
28740,-3.989357,3.485623,8.381868,-0.022246,-0.065818,0.102726,0.009248,0.010340,-0.009681,-0.039888,0.034854,0.083822,1.000000,0.000046,0.000052,-0.000048,0.226270,0.248565,-0.125408,-0.933429,22.303120,24.034270,-147.942176
28741,-4.031831,3.397765,8.374577,-0.017806,0.030051,0.083412,0.008904,0.008795,-0.009735,-0.040313,0.033976,0.083749,1.000000,0.000045,0.000044,-0.000049,0.226281,0.248591,-0.125414,-0.933419,22.305349,24.036629,-147.939565
28742,-4.013773,3.390440,8.360907,-0.027874,0.026490,0.061964,0.015041,0.010414,-0.006413,-0.040132,0.033899,0.083614,1.000000,0.000075,0.000052,-0.000032,0.226305,0.248620,-0.125456,-0.933400,22.312260,24.037936,-147.934549
28743,-4.003881,3.384944,8.380508,-0.048896,0.029674,0.072582,0.021519,0.012439,-0.008015,-0.040032,0.033842,0.083811,1.000000,0.000108,0.000062,-0.000040,0.226311,0.248676,-0.125519,-0.933375,22.322478,24.041853,-147.930070
28744,-4.016881,3.422013,8.339609,-0.005321,0.000164,0.056181,0.022649,0.008858,-0.007052,-0.040164,0.034212,0.083402,1.000000,0.000113,0.000044,-0.000035,0.226320,0.248708,-0.125597,-0.933354,22.333437,24.042483,-147.925796
28745,-4.004602,3.440156,8.394333,-0.038034,-0.013681,0.103698,0.021175,0.010892,-0.008068,-0.040040,0.034394,0.083949,1.000000,0.000106,0.000054,-0.000040,0.226326,0.248756,-0.125661,-0.933331,22.343296,24.045589,-147.921715
28746,-4.017446,3.477171,8.353496,0.005552,-0.043180,0.087292,0.021225,0.007354,-0.005178,-0.040170,0.034764,0.083540,1.000000,0.000106,0.000037,-0.000026,0.226345,0.248778,-0.125736,-0.933310,22.353734,24.045022,-147.916707
28747,-3.985695,3.487146,8.395588,-0.038134,-0.060950,0.113373,0.016906,0.005243,-0.007429,-0.039853,0.034866,0.083960,1.000000,0.000085,0.000026,-0.000037,0.226355,0.248795,-0.125787,-0.933296,22.360750,24.044995,-147.913602
28748,-3.989434,3.493471,8.340631,-0.004639,-0.070451,0.070686,0.012930,0.004676,-0.009627,-0.039891,0.034931,0.083410,1.000000,0.000065,0.000023,-0.000048,0.226362,0.248798,-0.125821,-0.933289,22.365126,24.043983,-147.911847
28749,-4.016648,3.474552,8.405505,-0.024544,-0.032551,0.129989,0.009665,0.005431,-0.010271,-0.040162,0.034744,0.084058,1.000000,0.000048,0.000027,-0.000051,0.226368,0.248809,-0.125834,-0.933283,22.367339,24.044675,-147.910346
28750,-4.020680,3.480292,8.350641,0.008944,-0.042044,0.087295,0.009614,0.008966,-0.013162,-0.040201,0.034802,0.083510,1.000000,0.000048,0.000045,-0.000066,0.226365,0.248830,-0.125844,-0.933277,22.369400,24.046714,-147.909600
28751,-4.031323,3.429863,8.367392,-0.010295,0.008955,0.088252,0.010719,0.008298,-0.008663,-0.040308,0.034296,0.083677,1.000000,0.000054,0.000041,-0.000043,0.226379,0.248855,-0.125861,-0.933264,22.372876,24.048574,-147.906481
28752,-4.021862,3.452661,8.368304,-0.010259,-0.014610,0.093090,0.014009,0.005775,-0.006573,-0.040215,0.034522,0.083687,1.000000,0.000070,0.000029,-0.000033,0.226400,0.248862,-0.125903,-0.933252,22.378702,24.047496,-147.902674
28753,-4.020566,3.476902,8.402659,-0.021144,-0.031424,0.130000,0.013221,0.010898,-0.007483,-0.040200,0.034765,0.084031,1.000000,0.000066,0.000054,-0.000037,0.226418,0.248902,-0.125929,-0.933233,22.384144,24.050475,-147.898249
28754,-3.983374,3.461525,8.376174,-0.042225,-0.038948,0.087131,0.008534,0.010151,-0.006256,-0.039828,0.034613,0.083765,1.000000,0.000043,0.000051,-0.000031,0.226450,0.248923,-0.125941,-0.933219,22.387334,24.051654,-147.893225
28755,-3.963798,3.506076,8.378743,-0.043195,-0.086564,0.096815,0.007823,0.008828,-0.007809,-0.039633,0.035059,0.083791,1.000000,0.000039,0.000044,-0.000039,0.226471,0.248947,-0.125945,-0.933206,22.389405,24.053608,-147.889483
28756,-4.024523,3.397291,8.403572,-0.048701,0.040232,0.104691,0.006349,0.010861,-0.008828,-0.040239,0.033972,0.084039,1.000000,0.000032,0.000054,-0.000044,0.226495,0.248970,-0.125943,-0.933195,22.390805,24.055725,-147.885710
28757,-4.027263,3.455248,8.364637,-0.006115,-0.013267,0.093095,0.011772,0.011163,-0.007055,-0.040267,0.034549,0.083651,1.000000,0.000059,0.000056,-0.000035,0.226517,0.249009,-0.125963,-0.933176,22.395545,24.058750,-147.880972
28758,-3.998300,3.441233,8.371622,-0.037981,-0.013924,0.082307,0.011746,0.012929,-0.008500,-0.039976,0.034409,0.083721,1.000000,0.000059,0.000065,-0.000043,0.226536,0.249048,-0.125984,-0.933158,22.400312,24.061902,-147.876576
28759,-4.068714,3.392148,8.391419,-0.012621,0.065919,0.110644,0.020826,0.010489,-0.003134,-0.040682,0.033913,0.083920,1.000000,0.000104,0.000052,-0.000016,0.226564,0.249092,-0.126052,-0.933131,22.411102,24.063713,-147.869724
28760,-3.981559,3.435928,8.356527,-0.047308,-0.017317,0.060884,0.021117,0.015566,-0.005972,-0.039808,0.034352,0.083572,1.000000,0.000106,0.000078,-0.000030,0.226585,0.249152,-0.126117,-0.933101,22.422087,24.067719,-147.863250
28761,-4.022845,3.511045,8.342609,0.017326,-0.062900,0.092139,0.022591,0.013533,-0.004951,-0.040222,0.035102,0.083433,1.000000,0.000113,0.000068,-0.000025,0.226604,0.249213,-0.126187,-0.933070,22.433757,24.071537,-147.856722
28762,-4.022603,3.455356,8.379470,-0.023602,-0.008864,0.103749,0.025487,0.012999,-0.005802,-0.040220,0.034544,0.083802,1.000000,0.000127,0.000065,-0.000029,0.226619,0.249266,-0.126275,-0.933041,22.447038,24.074150,-147.850710
28763,-4.054910,3.390944,8.373245,-0.020296,0.063091,0.089213,0.023274,0.016620,-0.004844,-0.040541,0.033901,0.083740,1.000000,0.000116,0.000083,-0.000024,0.226640,0.249342,-0.126346,-0.933006,22.459428,24.079576,-147.843378
28764,-4.035088,3.408551,8.393941,-0.042005,0.042446,0.104713,0.031220,0.017759,-0.000440,-0.040343,0.034072,0.083948,1.000000,0.000156,0.000089,-0.000002,0.226675,0.249421,-0.126462,-0.932960,22.477724,24.083543,-147.833194
28765,-3.996939,3.447534,8.382382,-0.053934,-0.009124,0.092985,0.037697,0.019781,-0.002034,-0.039961,0.034460,0.083834,1.000000,0.000188,0.000099,-0.000010,0.226694,0.249526,-0.126600,-0.932909,22.499355,24.090023,-147.823470
28766,-4.049503,3.421327,8.369089,-0.018561,0.040078,0.094061,0.040929,0.021939,0.002148,-0.040486,0.034196,0.083702,1.000000,0.000205,0.000110,0.000011,0.226731,0.249634,-0.126760,-0.932849,22.524232,24.095635,-147.810742
28767,-4.052155,3.453897,8.347420,0.003141,0.013462,0.088251,0.049563,0.025015,0.001684,-0.040511,0.034518,0.083488,1.000000,0.000248,0.000125,0.000008,0.226756,0.249774,-0.126951,-0.932780,22.554061,24.104061,-147.797596
28768,-4.014251,3.494192,8.335138,-0.008628,-0.037984,0.076529,0.047796,0.021969,0.003507,-0.040134,0.034921,0.083364,1.000000,0.000239,0.000110,0.000018,0.226791,0.249889,-0.127145,-0.932714,22.583196,24.109391,-147.784032
28769,-4.074252,3.441572,8.374165,-0.005102,0.044816,0.115482,0.046315,0.025150,0.007462,-0.040733,0.034395,0.083755,1.000000,0.000232,0.000126,0.000037,0.226847,0.250023,-0.127328,-0.932639,22.612553,24.116603,-147.767494
28770,-3.985572,3.511346,8.372963,-0.051299,-0.055514,0.102711,0.045207,0.026958,0.007941,-0.039846,0.035093,0.083743,1.000000,0.000226,0.000135,0.000040,0.226910,0.250156,-0.127509,-0.932564,22.641748,24.123592,-147.750064
28771,-3.988347,3.544029,8.351080,-0.029572,-0.082122,0.096903,0.042651,0.029033,0.008842,-0.039873,0.035421,0.083524,1.000000,0.000213,0.000145,0.000044,0.226979,0.250303,-0.127673,-0.932485,22.669724,24.132538,-147.731777
28772,-4.031940,3.459573,8.342146,-0.025387,0.013870,0.077497,0.044026,0.034050,0.004074,-0.040306,0.034577,0.083436,1.000000,0.000220,0.000170,0.000020,0.227030,0.250469,-0.127836,-0.932406,22.698043,24.144116,-147.714959
28773,-4.011968,3.531276,8.377281,-0.037795,-0.050774,0.124144,0.046180,0.035103,0.005206,-0.040106,0.035292,0.083788,1.000000,0.000231,0.000176,0.000026,0.227081,0.250651,-0.128005,-0.932321,22.727794,24.157058,-147.697293
28774,-4.086910,3.490060,8.340888,0.020114,0.019473,0.109660,0.041102,0.036340,0.003475,-0.040855,0.034883,0.083423,1.000000,0.000206,0.000182,0.000017,0.227133,0.250825,-0.128151,-0.932242,22.754536,24.169966,-147.680323
28775,-4.120286,3.508225,8.329774,0.053681,0.020774,0.120400,0.041397,0.041403,0.000628,-0.041186,0.035065,0.083314,1.000000,0.000207,0.000207,0.000003,0.227173,0.251033,-0.128284,-0.932158,22.781103,24.187236,-147.663760
28776,-4.123852,3.511095,8.326800,0.054591,0.021124,0.120394,0.027263,0.044468,-0.000076,-0.041220,0.035100,0.083282,1.000000,0.000136,0.000222,-0.000000,0.227232,0.251232,-0.128352,-0.932080,22.799896,24.205234,-147.646828
28777,-4.184774,3.617965,8.358612,0.118859,-0.037362,0.209931,0.009076,0.053966,0.009029,-0.041827,0.036174,0.083599,1.000000,0.000045,0.000270,0.000045,0.227359,0.251457,-0.128331,-0.931991,22.811212,24.227263,-147.622323
28778,-4.060075,3.695635,8.313813,0.071659,-0.172490,0.148563,-0.022533,0.038824,0.000049,-0.040585,0.036966,0.083142,1.000000,-0.000113,0.000194,0.000000,0.227478,0.251573,-0.128173,-0.931953,22.800959,24.242264,-147.606657
28779,-3.943614,3.582445,8.330248,-0.068189,-0.132779,0.074514,-0.030349,0.028315,-0.008521,-0.039423,0.035839,0.083303,1.000000,-0.000152,0.000142,-0.000043,0.227557,0.251645,-0.127976,-0.931942,22.782958,24.254645,-147.598564
28780,-3.925310,3.623285,8.333679,-0.068851,-0.180266,0.084243,-0.036313,0.014400,-0.019537,-0.039244,0.036252,0.083333,1.000000,-0.000182,0.000072,-0.000098,0.227586,0.251644,-0.127757,-0.931965,22.757723,24.261096,-147.600052
28781,-3.908465,3.530373,8.325397,-0.109536,-0.113398,0.037541,-0.034748,0.005370,-0.030533,-0.039077,0.035324,0.083249,1.000000,-0.000174,0.000027,-0.000153,0.227554,0.251618,-0.127537,-0.932010,22.729666,24.266234,-147.610302
28782,-3.990177,3.483163,8.326137,-0.062432,-0.036233,0.055103,-0.023878,0.003057,-0.030473,-0.039895,0.034848,0.083258,1.000000,-0.000119,0.000015,-0.000152,0.227509,0.251585,-0.127375,-0.932052,22.707825,24.269101,-147.620964
28783,-4.113602,3.377199,8.300955,0.008628,0.109675,0.047381,-0.015280,0.008445,-0.020968,-0.041129,0.033783,0.083009,1.000000,-0.000076,0.000042,-0.000105,0.227498,0.251589,-0.127255,-0.932069,22.693506,24.273742,-147.624927
28784,-4.153498,3.391916,8.326175,0.031599,0.118007,0.090186,-0.001226,0.011223,-0.013198,-0.041528,0.033922,0.083264,1.000000,-0.000006,0.000056,-0.000066,0.227508,0.251609,-0.127212,-0.932068,22.689572,24.277112,-147.623932
28785,-4.202603,3.357391,8.368644,0.034231,0.176929,0.133954,0.011104,0.007441,-0.000711,-0.042023,0.033569,0.083690,1.000000,0.000056,0.000037,-0.000004,0.227558,0.251626,-0.127241,-0.932047,22.695098,24.276744,-147.616392
28786,-4.045238,3.451093,8.313844,-0.024739,0.013819,0.056111,0.020509,0.006559,0.004744,-0.040450,0.034501,0.083143,1.000000,0.000103,0.000033,0.000024,0.227623,0.251638,-0.127327,-0.932016,22.707408,24.273704,-147.605904
28787,-4.070802,3.457452,8.413198,-0.056110,0.034658,0.152399,0.018973,0.013267,0.005792,-0.040703,0.034565,0.084138,1.000000,0.000095,0.000066,0.000029,0.227697,0.251686,-0.127394,-0.931976,22.719574,24.274975,-147.593181
28788,-4.144802,3.471774,8.339818,0.043636,0.051419,0.126156,0.029927,0.005119,-0.001198,-0.041446,0.034706,0.083404,1.000000,0.000150,0.000026,-0.000006,0.227724,0.251706,-0.127516,-0.931947,22.735703,24.272495,-147.586105
28789,-4.024476,3.743807,8.303181,0.067731,-0.245037,0.141743,0.016987,-0.000074,-0.003017,-0.040244,0.037432,0.083035,1.000000,0.000085,-0.000000,-0.000015,0.227751,0.251696,-0.127579,-0.931935,22.743299,24.268662,-147.581729
28790,-4.153762,3.585021,8.349299,0.086122,-0.038508,0.177709,-0.004374,0.003165,-0.006614,-0.041535,0.035853,0.083493,1.000000,-0.000022,0.000016,-0.000033,0.227791,0.251671,-0.127538,-0.931937,22.738313,24.266356,-147.578765
28791,-4.174926,3.568388,8.327422,0.109415,-0.017223,0.162135,-0.017969,-0.007478,-0.000662,-0.041752,0.035691,0.083269,1.000000,-0.000090,-0.000037,-0.000003,0.227868,0.251585,-0.127449,-0.931954,22.725702,24.258089,-147.574822
28792,-4.252959,3.654650,8.341128,0.196538,-0.054384,0.236042,-0.061071,-0.000230,0.002047,-0.042530,0.036572,0.083400,1.000000,-0.000305,-0.000001,0.000010,0.228018,0.251474,-0.127159,-0.931987,22.689962,24.252092,-147.567623
28793,-4.038629,3.692654,8.217376,0.115847,-0.212642,0.057107,-0.105065,-0.008192,0.013305,-0.040392,0.036967,0.082153,1.000000,-0.000525,-0.000041,0.000067,0.228269,0.251276,-0.126682,-0.932043,22.630707,24.240369,-147.555743
28794,-3.788041,3.484849,8.256590,-0.165601,-0.157805,-0.085798,-0.119580,-0.004993,0.028927,-0.037888,0.034892,0.082544,1.000000,-0.000598,-0.000025,0.000145,0.228617,0.251060,-0.126158,-0.932088,22.567392,24.225965,-147.533788
28795,-3.857353,3.374010,8.265334,-0.150060,-0.034030,-0.088738,-0.114956,-0.000204,0.036239,-0.038580,0.033781,0.082634,1.000000,-0.000575,-0.000001,0.000181,0.228992,0.250873,-0.125654,-0.932114,22.508724,24.213456,-147.506650
28796,-3.921539,3.253598,8.381957,-0.199327,0.109311,-0.006063,-0.105638,0.004712,0.048768,-0.039221,0.032571,0.083803,1.000000,-0.000528,0.000024,0.000244,0.229419,0.250705,-0.125209,-0.932114,22.459078,24.199868,-147.471076
28797,-4.143828,3.333866,8.272694,0.064289,0.131865,0.021026,-0.081215,-0.011963,0.050228,-0.041452,0.033362,0.082711,1.000000,-0.000406,-0.000060,0.000251,0.229810,0.250494,-0.124894,-0.932117,22.421908,24.178115,-147.438621
28798,-4.022432,3.494730,8.210036,0.069615,-0.076842,-0.025603,-0.091608,-0.019862,0.053937,-0.040242,0.034974,0.082080,1.000000,-0.000458,-0.000099,0.000270,0.230228,0.250224,-0.124549,-0.932133,22.379079,24.150438,-147.405905
28799,-4.036237,3.081941,8.350191,-0.136570,0.299644,-0.045046,-0.093609,-0.034439,0.057945,-0.040386,0.030847,0.083481,1.000000,-0.000468,-0.000172,0.000290,0.230656,0.249888,-0.124212,-0.932162,22.334424,24.115136,-147.374316
28800,-4.026488,3.483087,8.339782,0.017451,-0.052824,0.081420,-0.045316,-0.052931,0.059138,-0.040297,0.034838,0.083379,1.000000,-0.000227,-0.000265,0.000296,0.231019,0.249514,-0.124126,-0.932183,22.316084,24.068857,-147.346444
28801,-3.848020,3.627570,8.558024,-0.172977,-0.238195,0.243139,-0.038256,-0.038490,0.061870,-0.038508,0.036280,0.085566,1.000000,-0.000191,-0.000192,0.000309,0.231394,0.249221,-0.124057,-0.932178,22.303642,24.030577,-147.313530
28802,-3.926671,3.573875,8.701988,-0.201557,-0.134643,0.378347,-0.018830,-0.029906,0.031430,-0.039285,0.035741,0.087011,1.000000,-0.000094,-0.000150,0.000157,0.231611,0.249002,-0.124033,-0.932186,22.296136,24.002529,-147.296065
28803,-4.393599,3.759982,8.439395,0.368480,-0.095025,0.410803,-0.045612,-0.027424,0.014697,-0.043950,0.037616,0.084379,1.000000,-0.000228,-0.000137,0.000073,0.231781,0.248781,-0.123857,-0.932226,22.269391,23.980379,-147.287889
28804,-4.165403,3.625359,8.396481,0.172430,-0.099689,0.234951,-0.093732,-0.024205,0.020135,-0.041668,0.036289,0.083943,1.000000,-0.000469,-0.000121,0.000101,0.232041,0.248508,-0.123464,-0.932286,22.216871,23.957827,-147.275692
28805,-4.176087,3.491592,8.366781,0.154626,0.012048,0.167787,-0.105269,-0.027888,0.016465,-0.041775,0.034957,0.083644,1.000000,-0.000526,-0.000139,0.000082,0.232294,0.248215,-0.123013,-0.932361,22.156326,23.935061,-147.266562
28806,-3.895534,3.296004,8.392868,-0.138848,0.038494,0.008631,-0.118374,-0.020198,0.015986,-0.038966,0.033007,0.083905,1.000000,-0.000592,-0.000101,0.000080,0.232567,0.247935,-0.122496,-0.932435,22.089121,23.915576,-147.255923
28807,-4.025093,2.921780,8.661531,-0.311398,0.448669,0.160377,-0.091074,-0.004175,0.008457,-0.040254,0.029256,0.086601,1.000000,-0.000455,-0.000021,0.000042,0.232779,0.247773,-0.122074,-0.932481,22.037103,23.907143,-147.245811
28808,-3.901457,3.116205,8.491353,-0.241761,0.196608,0.033026,-0.032973,0.006529,0.004881,-0.039013,0.031175,0.084910,1.000000,-0.000165,0.000033,0.000024,0.232911,0.247725,-0.121909,-0.932482,22.018720,23.904264,-147.235156
28809,-3.991529,3.211207,8.484251,-0.132882,0.156665,0.096120,-0.014406,0.029306,0.013423,-0.039905,0.032116,0.084846,1.000000,-0.000072,0.000147,0.000067,0.233072,0.247805,-0.121811,-0.932433,22.014989,23.912556,-147.214285
28810,-4.054908,3.408686,8.408323,0.027520,0.008701,0.125144,0.000668,0.040190,0.018485,-0.040535,0.034083,0.084091,1.000000,0.000003,0.000201,0.000092,0.233244,0.247944,-0.121781,-0.932357,22.022266,23.924633,-147.188115
28811,-4.012247,3.312255,8.349555,-0.013957,0.064483,0.024989,0.018343,0.044330,0.020531,-0.040107,0.033111,0.083507,1.000000,0.000092,0.000222,0.000103,0.233407,0.248128,-0.121827,-0.932262,22.040417,23.939372,-147.159574
28812,-4.053479,3.331586,8.372460,0.009068,0.072894,0.067740,0.040795,0.041001,0.022136,-0.040521,0.033294,0.083740,1.000000,0.000204,0.000205,0.000111,0.233552,0.248315,-0.121986,-0.932155,22.071621,23.951092,-147.130445
28813,-3.955225,3.313443,8.395048,-0.089340,0.045508,0.040713,0.046262,0.036616,0.021818,-0.039540,0.033111,0.083965,1.000000,0.000231,0.000183,0.000109,0.233681,0.248496,-0.122173,-0.932050,22.105354,23.961432,-147.102954
28814,-3.937133,3.254110,8.416545,-0.141677,0.095218,0.031059,0.087174,0.031164,0.021401,-0.039362,0.032500,0.084186,1.000000,0.000436,0.000156,0.000107,0.233753,0.248691,-0.122560,-0.931929,22.162037,23.968061,-147.077281
28815,-3.849832,3.582151,8.298446,-0.030371,-0.236334,0.008740,0.104577,0.026175,0.017761,-0.038491,0.035775,0.083008,1.000000,0.000523,0.000131,0.000089,0.233784,0.248893,-0.123026,-0.931806,22.227236,23.973694,-147.054595
28816,-3.772992,3.443470,8.318581,-0.158077,-0.145353,-0.053301,0.094724,0.034886,0.016475,-0.037718,0.034392,0.083209,1.000000,0.000474,0.000174,0.000082,0.233829,0.249118,-0.123437,-0.931680,22.287447,23.983309,-147.030500
28817,-4.118892,3.664170,8.363471,0.159828,-0.151781,0.201826,0.083898,0.033173,0.007921,-0.041176,0.036605,0.083657,1.000000,0.000419,0.000166,0.000040,0.233845,0.249335,-0.123786,-0.931572,22.339168,23.994749,-147.011840
28818,-4.117291,3.346106,8.337167,0.048098,0.123622,0.068570,0.067670,0.027498,0.018293,-0.041165,0.033429,0.083389,1.000000,0.000338,0.000137,0.000091,0.233924,0.249492,-0.124083,-0.931470,22.383630,24.000011,-146.988803
28819,-4.075132,3.326222,8.416647,-0.038116,0.135063,0.111560,0.091627,0.018066,0.012445,-0.040746,0.033221,0.084185,1.000000,0.000458,0.000090,0.000062,0.233941,0.249644,-0.124491,-0.931371,22.439390,24.002431,-146.971109
28820,-4.055223,3.516697,8.375252,0.034428,-0.036330,0.134891,0.082153,0.024160,0.020507,-0.040546,0.035128,0.083772,1.000000,0.000411,0.000121,0.000103,0.234018,0.249803,-0.124860,-0.931259,22.492320,24.005431,-146.946734
28821,-3.968728,3.484971,8.341524,-0.030901,-0.049552,0.060176,0.076367,0.023462,0.023647,-0.039682,0.034813,0.083433,1.000000,0.000382,0.000117,0.000118,0.234110,0.249955,-0.125205,-0.931149,22.542508,24.008219,-146.921249
28822,-3.854991,3.872196,8.315305,0.035807,-0.436117,0.127517,0.068420,0.024740,0.011346,-0.038542,0.038691,0.083171,1.000000,0.000342,0.000124,0.000057,0.234156,0.250105,-0.125499,-0.931058,22.585488,24.013509,-146.902592
28823,-4.060357,3.731394,8.285466,0.152087,-0.212800,0.136701,0.029303,0.033288,0.009860,-0.040592,0.037300,0.082867,1.000000,0.000147,0.000166,0.000049,0.234249,0.250257,-0.125596,-0.930980,22.606432,24.024499,-146.882715
28824,-3.965559,3.635815,8.258187,0.055347,-0.179390,0.041612,0.027589,0.024435,0.004601,-0.039646,0.036346,0.082592,1.000000,0.000138,0.000122,0.000023,0.234319,0.250362,-0.125691,-0.930922,22.624438,24.031080,-146.867508
28825,-3.988230,3.593301,8.253317,0.057423,-0.131334,0.031828,0.004472,0.022951,0.004258,-0.039874,0.035930,0.082539,1.000000,0.000022,0.000115,0.000021,0.234410,0.250440,-0.125677,-0.930880,22.628826,24.037827,-146.853362
28826,-3.947765,3.514374,8.319885,-0.038450,-0.076102,0.043727,-0.001886,0.008697,-0.001886,-0.039474,0.035145,0.083200,1.000000,-0.000009,0.000043,-0.000009,0.234472,0.250442,-0.125647,-0.930868,22.626901,24.037534,-146.846403
28827,-4.162834,3.774903,8.344364,0.210991,-0.191218,0.243476,-0.034878,0.018855,-0.000039,-0.041620,0.037764,0.083441,1.000000,-0.000174,0.000094,-0.000000,0.234589,0.250457,-0.125450,-0.930861,22.607328,24.043064,-146.835734
28828,-3.879033,3.415542,8.395858,-0.166404,-0.021966,0.045055,-0.046919,0.028819,0.007449,-0.038780,0.034174,0.083956,1.000000,-0.000235,0.000144,0.000037,0.234760,0.250493,-0.125199,-0.930842,22.583812,24.051364,-146.818950
28829,-4.048526,3.489950,8.422001,-0.022723,-0.001545,0.162276,-0.025984,0.032784,0.003774,-0.040472,0.034910,0.084222,1.000000,-0.000130,0.000164,0.000019,0.234893,0.250581,-0.125032,-0.930807,22.571605,24.063431,-146.802719
28830,-4.030076,3.503805,8.443753,-0.044204,-0.022344,0.177942,-0.018910,0.044188,0.020810,-0.040286,0.035042,0.084443,1.000000,-0.000095,0.000221,0.000104,0.235114,0.250715,-0.124906,-0.930732,22.568766,24.076935,-146.772685
28831,-4.023382,3.525502,8.443809,-0.044055,-0.046025,0.182842,-0.009336,0.062962,0.023300,-0.040211,0.035254,0.084449,1.000000,-0.000047,0.000315,0.000117,0.235336,0.250951,-0.124805,-0.930626,22.573693,24.100677,-146.737866
28832,-4.253218,3.626701,8.505393,0.133085,-0.013159,0.364082,-0.030106,0.078072,0.030417,-0.042504,0.036273,0.085065,1.000000,-0.000151,0.000390,0.000152,0.235621,0.251221,-0.124604,-0.930507,22.570116,24.129978,-146.696101
28833,-4.472285,3.400973,8.511611,0.207473,0.287588,0.379943,-0.029467,0.085811,0.032636,-0.044692,0.034015,0.085130,1.000000,-0.000147,0.000429,0.000163,0.235926,0.251534,-0.124394,-0.930374,22.568014,24.163756,-146.650347
28834,-4.335687,3.828715,8.402555,0.316513,-0.163112,0.382085,-0.016094,0.088436,0.026050,-0.043325,0.038288,0.084042,1.000000,-0.000080,0.000442,0.000130,0.236184,0.251872,-0.124239,-0.930238,22.572486,24.199541,-146.608049
28835,-4.217845,3.943175,8.231114,0.355638,-0.344659,0.229464,-0.069679,0.098563,0.023681,-0.042143,0.039455,0.082318,1.000000,-0.000348,0.000493,0.000118,0.236506,0.252202,-0.123816,-0.930123,22.546536,24.242042,-146.564397
28836,-4.046966,3.648079,8.073767,0.195266,-0.203425,-0.076538,-0.111863,0.086816,0.020921,-0.040438,0.036522,0.080735,1.000000,-0.000559,0.000434,0.000105,0.236860,0.252423,-0.123211,-0.930053,22.494847,24.278166,-146.525307
28837,-3.686097,3.181584,8.222379,-0.333977,0.021470,-0.262541,-0.112009,0.066594,0.012473,-0.036836,0.031860,0.082218,1.000000,-0.000560,0.000333,0.000062,0.237163,0.252561,-0.122614,-0.930017,22.438834,24.306259,-146.495897
28838,-3.542293,2.706833,8.421707,-0.728431,0.369220,-0.318848,-0.073975,0.060460,0.008136,-0.035399,0.027098,0.084218,1.000000,-0.000370,0.000302,0.000041,0.237395,0.252713,-0.122200,-0.929972,22.403205,24.331276,-146.470554
28839,-3.617443,2.459373,8.518331,-0.819267,0.626341,-0.292557,0.027617,0.053890,0.017491,-0.036154,0.024579,0.085196,1.000000,0.000138,0.000269,0.000087,0.237537,0.252954,-0.122274,-0.929860,22.427155,24.351567,-146.441289
28840,-3.784004,3.097483,8.377173,-0.382263,0.152149,-0.121411,0.106158,0.045351,0.015032,-0.037823,0.030928,0.083797,1.000000,0.000531,0.000227,0.000075,0.237566,0.253244,-0.122722,-0.929714,22.494796,24.367028,-146.415159
28841,-4.010196,3.572679,8.296003,0.004871,-0.142293,0.069068,0.113522,0.032890,0.010201,-0.040090,0.035678,0.082987,1.000000,0.000568,0.000164,0.000051,0.237553,0.253494,-0.123211,-0.929585,22.564165,24.377753,-146.395140
28842,-4.331267,3.767617,8.201091,0.366472,-0.150982,0.190092,0.074940,0.023712,0.006646,-0.043304,0.037644,0.082030,1.000000,0.000375,0.000119,0.000033,0.237567,0.253651,-0.123530,-0.929496,22.609770,24.383529,-146.379404
28843,-4.270636,3.737327,8.269177,0.269231,-0.143806,0.211885,0.043977,0.011199,0.003952,-0.042702,0.037354,0.082702,1.000000,0.000220,0.000056,0.000020,0.237599,0.253722,-0.123714,-0.929444,22.635640,24.384130,-146.368241
28844,-4.459363,3.830866,8.250924,0.456603,-0.128409,0.307304,0.012360,-0.003756,-0.005295,-0.044594,0.038305,0.082511,1.000000,0.000062,-0.000019,-0.000026,0.237619,0.253685,-0.123760,-0.929443,22.639827,24.378032,-146.366207
28845,-4.041113,3.851444,8.216017,0.166682,-0.360442,0.112505,-0.006803,-0.004667,-0.003508,-0.040412,0.038518,0.082158,1.000000,-0.000034,-0.000023,-0.000018,0.237671,0.253626,-0.123717,-0.929452,22.633228,24.371885,-146.363217
28846,-3.962641,3.558435,8.338232,-0.067225,-0.136670,0.080133,-0.030232,0.014799,0.014409,-0.039623,0.035594,0.083380,1.000000,-0.000151,0.000074,0.000072,0.237851,0.253612,-0.123568,-0.929429,22.619622,24.371288,-146.344897
28847,-3.931876,3.021664,8.404030,-0.328909,0.313693,-0.065316,-0.002467,0.021643,0.015779,-0.039312,0.030215,0.084044,1.000000,-0.000012,0.000108,0.000079,0.238004,0.253669,-0.123538,-0.929379,22.622756,24.374807,-146.324341
28848,-3.821288,3.247920,8.333219,-0.290898,0.058463,-0.091282,0.046391,0.014273,0.016587,-0.038210,0.032457,0.083342,1.000000,0.000232,0.000071,0.000083,0.238094,0.253743,-0.123749,-0.929307,22.653503,24.373453,-146.305189
28849,-3.738607,3.602006,8.230715,-0.167781,-0.292460,-0.087329,0.073124,0.011194,0.022115,-0.037385,0.035986,0.082322,1.000000,0.000366,0.000056,0.000111,0.238173,0.253837,-0.124090,-0.929216,22.700420,24.370029,-146.283486
28850,-3.967293,3.635466,8.238466,0.010722,-0.198394,0.025446,0.074361,0.005968,0.006691,-0.039672,0.036323,0.082399,1.000000,0.000372,0.000030,0.000033,0.238176,0.253911,-0.124429,-0.929150,22.743987,24.366400,-146.272180
28851,-3.968497,3.618593,8.200697,0.022659,-0.181092,-0.011601,0.078141,-0.014321,0.006925,-0.039692,0.036153,0.082018,1.000000,0.000391,-0.000072,0.000035,0.238163,0.253902,-0.124805,-0.929105,22.787577,24.352834,-146.265505
28852,-3.964443,3.332441,8.444203,-0.220399,0.095196,0.090287,0.074510,-0.004518,-0.002477,-0.039646,0.033293,0.084454,1.000000,0.000373,-0.000023,-0.000012,0.238120,0.253934,-0.125144,-0.929062,22.827982,24.345718,-146.261556
28853,-4.403431,3.360539,8.415905,0.135588,0.295985,0.257312,0.074258,-0.011873,-0.009605,-0.044038,0.033576,0.084169,1.000000,0.000371,-0.000059,-0.000048,0.238036,0.253941,-0.125478,-0.929036,22.865634,24.337113,-146.263884
28854,-3.999460,3.579679,8.419922,-0.091792,-0.089919,0.171718,0.066238,-0.003637,-0.009899,-0.039994,0.035771,0.084210,1.000000,0.000331,-0.000018,-0.000049,0.237967,0.253972,-0.125769,-0.929006,22.899599,24.332100,-146.264478
28855,-4.351857,3.656176,8.590769,0.110514,0.045377,0.487474,0.035321,0.022850,-0.013663,-0.043506,0.036550,0.085919,1.000000,0.000177,0.000114,-0.000068,0.237935,0.254097,-0.125875,-0.928965,22.917471,24.342728,-146.260667
28856,-4.342521,3.555902,8.435634,0.144799,0.109848,0.317901,0.028400,0.031039,-0.015883,-0.043409,0.035550,0.084368,1.000000,0.000142,0.000155,-0.000079,0.237906,0.254247,-0.125942,-0.928923,22.931837,24.357356,-146.256504
28857,-4.242724,3.495385,8.587953,-0.039318,0.127723,0.383072,0.017293,0.060876,-0.014891,-0.042398,0.034950,0.085895,1.000000,0.000086,0.000304,-0.000074,0.237916,0.254528,-0.125918,-0.928847,22.942938,24.388321,-146.244076
28858,-4.507630,2.794119,8.745508,-0.195418,0.878007,0.375573,0.042992,0.097427,-0.014927,-0.045032,0.027926,0.087483,1.000000,0.000215,0.000487,-0.000075,0.237917,0.255003,-0.125974,-0.928708,22.972615,24.437786,-146.222630
28859,-4.530696,2.847167,8.589653,-0.087241,0.829781,0.272923,0.137141,0.099680,0.002459,-0.045264,0.028412,0.085939,1.000000,0.000686,0.000498,0.000012,0.237879,0.255596,-0.126483,-0.928486,23.060542,24.485311,-146.190544
28860,-4.260124,3.723943,8.682468,-0.028785,-0.036501,0.550683,0.207253,0.127221,0.012525,-0.042548,0.037147,0.086890,0.999999,0.001036,0.000636,0.000063,0.237817,0.256388,-0.127299,-0.928172,23.193994,24.544294,-146.145638
28861,-4.535675,3.858222,8.806444,0.138590,0.014871,0.817090,0.219718,0.196250,0.040178,-0.045278,0.038476,0.088151,0.999999,0.001099,0.000981,0.000201,0.237909,0.257503,-0.128124,-0.927726,23.348497,24.633979,-146.067414
28862,-5.011408,3.744206,8.885194,0.378682,0.380048,1.040512,0.330142,0.241337,0.078739,-0.050021,0.037276,0.088974,0.999998,0.001651,0.001207,0.000394,0.238067,0.258927,-0.129460,-0.927104,23.580634,24.737605,-145.955160
28863,-4.965284,4.489208,8.815532,0.617065,-0.257749,1.235983,0.488752,0.242021,0.097604,-0.049568,0.044652,0.088325,0.999996,0.002444,0.001210,0.000488,0.238105,0.260534,-0.131551,-0.926349,23.908706,24.837456,-145.831192
28864,-4.689938,5.315734,9.294670,0.407850,-1.003780,1.826434,0.546405,0.195019,0.098179,-0.046835,0.052880,0.093137,0.999996,0.002732,0.000975,0.000491,0.238039,0.261985,-0.133967,-0.925610,24.265404,24.911251,-145.718297
28865,-4.003073,5.729633,10.720198,-0.775231,-1.484978,2.874690,0.452390,-0.021081,0.011360,-0.040045,0.057051,0.107327,0.999997,0.002262,-0.000105,0.000057,0.237546,0.262386,-0.136089,-0.925314,24.523643,24.892940,-145.711232
28866,-3.444584,5.533145,10.814335,-1.333703,-1.544190,2.647939,0.419958,-0.296618,-0.162190,-0.034562,0.055132,0.108208,0.999996,0.002100,-0.001483,-0.000811,0.236106,0.261584,-0.138162,-0.925602,24.691187,24.771722,-145.876323
28867,-1.802151,8.062145,12.439068,-2.530420,-4.249572,4.276802,0.469928,-0.669531,-0.170165,-0.018370,0.080345,0.124519,0.999991,0.002350,-0.003348,-0.000851,0.234301,0.259124,-0.140892,-0.926341,24.844799,24.459585,-146.144497
28868,2.679896,7.894364,12.462442,-5.949930,-6.276178,2.435625,0.340658,-1.090053,0.068457,0.026092,0.078740,0.124902,0.999984,0.001703,-0.005450,0.000342,0.233472,0.254382,-0.143826,-0.927413,24.936832,23.870765,-146.387344
28869,4.848458,11.899459,10.762458,-5.203770,-10.880864,1.825928,0.894192,-1.245379,0.333837,0.047613,0.118591,0.108454,0.999969,0.004471,-0.006227,0.001669,0.233042,0.249370,-0.149834,-0.927931,25.390926,23.138909,-146.523521
28870,3.425031,13.677870,11.762958,-3.940795,-11.340271,4.081408,0.334337,-1.179481,0.585452,0.033155,0.136680,0.118056,0.999977,0.001672,-0.005897,0.002927,0.234519,0.243795,-0.153485,-0.928444,25.586660,22.377618,-146.504541
28871,3.426362,8.815351,10.310708,-4.808961,-7.354387,1.075078,0.375952,-1.276686,1.000409,0.033163,0.088127,0.103487,0.999965,0.001880,-0.006383,0.005002,0.237778,0.237500,-0.157928,-0.928501,25.880273,21.465056,-146.284533
28872,1.752849,8.747155,9.773187,-3.123636,-6.385482,1.348125,0.482462,-1.334413,1.243779,0.016332,0.087339,0.098054,0.999955,0.002412,-0.006672,0.006219,0.241978,0.230830,-0.163232,-0.928181,26.272763,20.457110,-145.953572
28873,1.829574,5.767047,8.164474,-3.351541,-4.129280,-1.153687,0.361805,-1.227827,1.311388,0.017416,0.057639,0.081858,0.999958,0.001809,-0.006139,0.006557,0.246695,0.224455,-0.167889,-0.927672,26.608724,19.487824,-145.565403
28874,-0.149382,4.518856,8.013079,-2.111732,-1.969435,-1.077023,0.435745,-1.072346,1.310234,-0.002219,0.045001,0.080218,0.999962,0.002179,-0.005362,0.006551,0.251436,0.218849,-0.172708,-0.926853,26.993628,18.592264,-145.144529
28875,-0.201724,2.887147,7.732347,-2.490611,-0.573604,-1.962063,0.363313,-0.931273,1.213074,-0.002552,0.028717,0.077365,0.999969,0.001817,-0.004656,0.006065,0.255908,0.213901,-0.176870,-0.925999,27.322787,17.795377,-144.744430
28876,-2.805948,2.656340,9.998189,-1.592353,1.644955,0.658705,0.497947,-0.906781,1.084074,-0.028655,0.026160,0.099918,0.999972,0.002490,-0.004534,0.005420,0.259648,0.209310,-0.181501,-0.925111,27.704904,17.038646,-144.413686
28877,-2.431800,2.110242,9.975801,-2.012612,1.998851,0.278653,0.483337,-1.248875,0.970190,-0.025042,0.020741,0.099654,0.999966,0.002417,-0.006244,0.004851,0.262547,0.203237,-0.186353,-0.924682,28.026216,16.141302,-144.244492
28878,-1.907599,1.262336,9.331984,-2.372169,2.356319,-0.805088,0.610595,-1.379534,0.809940,-0.019769,0.012260,0.093223,0.999963,0.003053,-0.006898,0.004050,0.264440,0.196832,-0.191810,-0.924412,28.384742,15.216331,-144.202831
28879,-1.935095,2.227348,8.475866,-1.463123,1.530954,-1.091494,0.672853,-1.529914,0.732701,-0.020080,0.021916,0.084681,0.999958,0.003364,-0.007649,0.003663,0.265745,0.189904,-0.197640,-0.924259,28.754399,14.240720,-144.249766
28880,-1.240138,2.373775,7.212464,-1.289875,0.810483,-2.271445,0.628959,-1.417526,0.648886,-0.012989,0.023469,0.072108,0.999965,0.003145,-0.007088,0.003244,0.266801,0.183473,-0.203043,-0.924083,29.096435,13.340884,-144.314267
28881,-2.544723,2.939118,7.504745,-0.082059,1.302991,-1.462282,0.627370,-1.245777,0.691600,-0.026015,0.029067,0.074978,0.999970,0.003137,-0.006229,0.003458,0.268206,0.177809,-0.208216,-0.923632,29.452346,12.519428,-144.312549
28882,-3.307952,2.662603,7.129847,0.640130,1.948638,-1.771639,0.529894,-1.160653,0.798066,-0.033598,0.026304,0.071174,0.999972,0.002649,-0.005803,0.003990,0.270269,0.172255,-0.212924,-0.923009,29.768639,11.706172,-144.237139
28883,-2.988574,1.300155,6.800815,0.005873,2.794166,-2.808048,0.385645,-0.922434,0.776923,-0.030249,0.012754,0.067894,0.999980,0.001928,-0.004612,0.003885,0.272593,0.167651,-0.216598,-0.922319,30.011300,11.021001,-144.107034
28884,-4.178078,1.149045,7.465883,0.646405,3.871180,-2.124289,0.383471,-0.778855,0.690723,-0.042110,0.011202,0.074517,0.999985,0.001917,-0.003894,0.003454,0.274673,0.163763,-0.220002,-0.921594,30.250932,10.427397,-143.981769
28885,-3.341282,1.339830,7.723203,-0.006544,3.387192,-1.993884,0.240807,-0.635931,0.453715,-0.033688,0.013229,0.077141,0.999992,0.001204,-0.003180,0.002269,0.275922,0.160625,-0.222338,-0.921213,30.393141,9.976474,-143.935632
28886,-4.437368,2.239275,9.474900,0.570030,3.961413,0.110021,0.169700,-0.624915,0.192018,-0.044691,0.022270,0.094629,0.999994,0.000848,-0.003125,0.000960,0.276039,0.157700,-0.224128,-0.921249,30.472549,9.603318,-144.018393
28887,-3.461647,2.779577,8.969753,0.294115,2.874047,-0.230498,0.143115,-0.807176,0.023008,-0.034981,0.027728,0.089577,0.999992,0.000716,-0.004036,0.000115,0.275183,0.154114,-0.225900,-0.921679,30.514468,9.192940,-144.239737
28888,-1.563274,3.882721,7.814364,-0.216388,0.611269,-0.971710,0.085830,-0.782817,-0.134516,-0.015912,0.038804,0.078098,0.999992,0.000429,-0.003914,-0.000673,0.273676,0.150711,-0.227258,-0.922356,30.513747,8.837251,-144.532382
28889,-0.967439,5.385376,7.314212,0.201484,-0.993162,-0.734758,0.047793,-0.641705,-0.132227,-0.009873,0.053843,0.073124,0.999995,0.000239,-0.003209,-0.000661,0.272357,0.147928,-0.228238,-0.922956,30.499423,8.553757,-144.782224
28890,-1.903883,6.611369,8.838006,0.923576,-0.830605,1.318451,0.035820,-0.503280,0.040720,-0.019275,0.066094,0.088344,0.999997,0.000179,-0.002516,0.000204,0.272008,0.145543,-0.229108,-0.923222,30.498020,8.285055,-144.904690
28891,-0.419504,7.253820,8.266833,0.279705,-2.317567,0.942989,-0.044031,-0.586295,0.387456,-0.004578,0.072548,0.082639,0.999994,-0.000220,-0.002931,0.001937,0.273212,0.142293,-0.229964,-0.923160,30.472525,7.877772,-144.878595
28892,-0.716341,4.541459,7.455596,-0.298477,-0.378562,-1.066757,-0.136985,-0.299557,0.579149,-0.007407,0.045444,0.074514,0.999994,-0.000685,-0.001498,0.002896,0.275701,0.139992,-0.230143,-0.922727,30.417892,7.553252,-144.672642
28893,-1.547795,4.768504,7.623796,0.456295,0.007925,-0.699615,-0.202524,-0.189126,0.690862,-0.015715,0.047708,0.076175,0.999993,-0.001013,-0.000946,0.003454,0.278867,0.138005,-0.229933,-0.922127,30.335818,7.254431,-144.378536
28894,-0.872174,3.201303,6.792683,-0.443092,0.494880,-2.282197,-0.267753,0.090009,0.624367,-0.008791,0.032077,0.067888,0.999994,-0.001339,0.000450,0.003122,0.282096,0.137264,-0.228993,-0.921489,30.221437,7.110223,-144.035932
28895,-3.425077,4.661952,9.476215,1.265311,1.830464,1.064444,-0.239322,0.178407,0.544789,-0.034293,0.046640,0.094737,0.999995,-0.001197,0.000892,0.002724,0.285029,0.137085,-0.227993,-0.920861,30.120857,7.036567,-143.707226
28896,-1.820651,3.949360,9.575691,-0.361812,1.439475,0.598987,-0.359341,-0.025841,0.465992,-0.018311,0.039623,0.095683,0.999996,-0.001797,-0.000129,0.002330,0.287454,0.135858,-0.226684,-0.920612,29.938973,6.881925,-143.476741
28897,-1.945723,3.843648,9.676337,-0.313033,1.623665,0.649462,-0.189142,-0.204893,0.394895,-0.019632,0.038489,0.096707,0.999997,-0.000946,-0.001024,0.001974,0.289223,0.134156,-0.226356,-0.920388,29.843607,6.662264,-143.333083
28898,0.005066,3.771810,7.877272,-1.182188,-0.082018,-1.159737,-0.188077,-0.302772,0.321981,-0.000129,0.037792,0.078737,0.999997,-0.000940,-0.001514,0.001610,0.290552,0.132063,-0.226132,-0.920328,29.740797,6.411971,-143.253491
28899,-0.856489,4.082186,7.671046,-0.236952,0.141278,-1.085341,-0.154396,-0.191482,0.299845,-0.008700,0.040868,0.076671,0.999998,-0.000772,-0.000957,0.001499,0.291873,0.130579,-0.225879,-0.920184,29.659462,6.226445,-143.152991
28900,-0.308237,4.109840,7.154308,-0.436469,-0.380654,-1.576521,-0.296513,-0.061537,0.401644,-0.003187,0.041198,0.071481,0.999997,-0.001483,-0.000308,0.002008,0.293908,0.129346,-0.224853,-0.919961,29.505650,6.074077,-142.963962
28901,-1.771749,3.177971,7.493741,0.175243,1.278259,-1.582860,-0.360923,0.118053,0.515330,-0.017755,0.031869,0.074890,0.999995,-0.001805,0.000590,0.002577,0.296699,0.128739,-0.223333,-0.919521,29.326123,5.982895,-142.666859
28902,-1.409650,2.470568,7.537385,-0.455069,1.567833,-1.923599,-0.493855,0.232151,0.544988,-0.014077,0.024853,0.075329,0.999993,-0.002469,0.001161,0.002725,0.299844,0.128401,-0.221054,-0.919098,29.074699,5.938651,-142.322248
28903,-2.541692,1.845353,8.343953,-0.160407,2.943417,-1.398560,-0.526894,0.300939,0.491728,-0.025337,0.018611,0.083429,0.999992,-0.002634,0.001505,0.002459,0.302828,0.128411,-0.218477,-0.918735,28.803759,5.948175,-141.985359
28904,-2.212021,1.635611,8.105131,-0.428208,2.779990,-1.728780,-0.577358,0.255639,0.366422,-0.022047,0.016550,0.081032,0.999993,-0.002887,0.001278,0.001832,0.305225,0.128248,-0.215656,-0.918631,28.495571,5.968247,-141.724004
28905,-2.486796,1.891099,8.366085,-0.171679,2.807133,-1.336713,-0.548405,0.276082,0.154276,-0.024767,0.019121,0.083643,0.999995,-0.002742,0.001380,0.000771,0.306637,0.128473,-0.212795,-0.918796,28.194072,6.060508,-141.565094
28906,-3.128913,2.501467,8.967913,0.430754,2.908252,-0.441069,-0.510273,0.151047,0.014048,-0.031223,0.025241,0.089639,0.999996,-0.002551,0.000755,0.000070,0.307256,0.128308,-0.210209,-0.919208,27.902610,6.125542,-141.511283
28907,-3.538190,2.063575,7.972108,0.904885,3.137027,-1.465723,-0.330756,0.023394,-0.108365,-0.035361,0.020787,0.079691,0.999998,-0.001654,0.000117,-0.000542,0.307050,0.127982,-0.208564,-0.919696,27.704485,6.161419,-141.555018
28908,-4.724203,1.464563,6.848308,1.945386,3.933704,-2.594398,-0.274493,0.022852,-0.324428,-0.047210,0.014816,0.068468,0.999998,-0.001372,0.000114,-0.001622,0.305825,0.127945,-0.207038,-0.920454,27.525570,6.251948,-141.708662
28909,-7.744137,0.321428,5.078851,4.378819,6.053247,-4.330573,-0.053363,0.036747,-0.696176,-0.077420,0.003497,0.050802,0.999994,-0.000267,0.000184,-0.003481,0.302748,0.128714,-0.206271,-0.921536,27.453338,6.449831,-142.049669
28910,-11.003238,-2.382098,-2.796765,8.489646,7.573038,-12.079768,0.220416,0.271835,-1.574513,-0.110253,-0.022923,-0.027843,0.999967,0.001102,0.001359,-0.007872,0.295690,0.131866,-0.205831,-0.923479,27.489212,6.997574,-142.777178
28911,-8.471837,11.564455,9.361387,8.740765,-0.730686,4.890533,2.112356,1.172422,-2.685885,-0.082609,0.115763,0.095325,0.999837,0.010561,0.005862,-0.013429,0.283111,0.143107,-0.212028,-0.924345,28.556206,8.308628,-143.824177
28912,-12.331854,27.185411,22.003986,13.841461,-6.477245,23.977016,0.174046,0.046051,-1.263802,-0.121548,0.272434,0.220305,0.999980,0.000870,0.000230,-0.006319,0.277254,0.144858,-0.211834,-0.925890,28.558801,8.672210,-144.448687
28913,2.288268,7.466393,1.673401,0.887499,-6.465236,-5.208776,-0.940885,-0.010470,-0.534093,0.023081,0.074680,0.016384,0.999985,-0.004704,-0.000052,-0.002670,0.275504,0.144031,-0.207084,-0.927614,27.974698,8.806865,-144.719043
28914,-4.953457,10.043347,5.519634,6.399834,-3.135150,0.438385,0.429070,0.378468,-0.005062,-0.049427,0.100316,0.055505,0.999996,0.002145,0.001892,-0.000025,0.275620,0.146340,-0.208533,-0.926894,28.233179,8.994049,-144.613113
28915,2.253352,5.852714,5.050661,-1.129857,-4.214567,-3.044988,-0.256960,0.600008,0.206751,0.022624,0.058615,0.050364,0.999994,-0.001285,0.003000,0.001034,0.277447,0.148513,-0.206647,-0.926425,28.125643,9.236167,-144.337721
28916,-0.208721,7.976441,9.564904,0.036779,-3.082974,2.255800,-0.027596,0.805869,0.556103,-0.001924,0.079772,0.095646,0.999988,-0.000138,0.004029,0.002781,0.280927,0.151590,-0.205801,-0.925066,28.189645,9.487429,-143.827383
28917,-0.035263,2.794230,8.718430,-2.165823,0.454345,-0.928859,-0.237937,0.955204,0.768564,-0.000044,0.028045,0.087152,0.999981,-0.001190,0.004776,0.003843,0.285697,0.154842,-0.203919,-0.923481,28.159875,9.756984,-143.166344
28918,-2.605218,-1.983170,10.481647,-3.140196,6.026273,-1.186740,-0.059449,1.029458,0.611004,-0.025451,-0.019879,0.104954,0.999982,-0.000297,0.005147,0.003055,0.289663,0.158843,-0.202634,-0.921848,28.226290,10.105797,-142.565417
28919,-3.215878,-4.776812,12.768062,-5.020590,9.083571,-0.407128,0.221006,0.827556,0.065684,-0.031615,-0.047920,0.127759,0.999991,0.001105,0.004138,0.000328,0.290684,0.162871,-0.202487,-0.920856,28.396820,10.500400,-142.297957
28920,-3.767565,-2.192769,13.388204,-3.723195,7.645338,1.409294,0.650147,0.410567,-0.518697,-0.037458,-0.022266,0.133887,0.999989,0.003251,0.002053,-0.002593,0.288239,0.166188,-0.204442,-0.920600,28.738118,10.843573,-142.443723
28921,-4.171806,1.660194,11.422997,-0.848768,4.472451,1.585626,0.771114,0.064187,-0.874156,-0.041610,0.016343,0.114307,0.999983,0.003856,0.000321,-0.004371,0.283693,0.168447,-0.207152,-0.920995,29.095392,11.112908,-142.867007
28922,-3.543169,5.788893,9.055381,1.481104,0.335592,1.401521,0.803014,-0.043095,-0.910594,-0.035188,0.057685,0.090778,0.999982,0.004015,-0.000215,-0.004553,0.278838,0.170286,-0.210117,-0.921468,29.458899,11.341109,-143.337540
28923,-3.621935,9.387241,7.584526,3.685640,-2.755890,1.916936,0.781282,-0.081638,-0.705089,-0.035920,0.093702,0.076197,0.999986,0.003906,-0.000408,-0.003525,0.274892,0.171700,-0.213210,-0.921680,29.828036,11.495164,-143.714219
28924,-2.464745,9.985960,6.749952,3.317305,-4.126497,1.292418,0.396148,0.000986,-0.490360,-0.024402,0.099786,0.067697,0.999995,0.001981,0.000005,-0.002452,0.272355,0.172731,-0.214591,-0.921921,30.001694,11.630446,-143.956990
28925,-3.267659,9.642968,7.384845,3.483283,-3.217286,1.837037,0.204356,0.007756,-0.296561,-0.032531,0.096402,0.073948,0.999998,0.001022,0.000039,-0.001483,0.270877,0.173325,-0.215249,-0.922091,30.085949,11.714224,-144.099819
28926,-2.776039,8.603910,7.266156,2.686068,-2.753866,1.129521,-0.030397,-0.029173,-0.143786,-0.027709,0.086070,0.072644,1.000000,-0.000152,-0.000146,-0.000719,0.270267,0.173265,-0.215007,-0.922338,30.049008,11.735760,-144.176039
28927,-1.586255,6.699029,7.048331,1.031796,-2.065906,-0.234611,-0.202572,0.040871,-0.042647,-0.015834,0.067065,0.070419,0.999999,-0.001013,0.000204,-0.000213,0.270348,0.173187,-0.213964,-0.922571,29.928079,11.763122,-144.180601
28928,-0.688205,5.469528,7.481196,-0.383559,-1.534938,-0.655480,-0.278105,0.156187,0.019973,-0.006829,0.054799,0.074741,0.999999,-0.001391,0.000781,0.000100,0.270904,0.173472,-0.212472,-0.922699,29.777467,11.829796,-144.119995
28929,-1.274738,4.057867,8.719138,-1.056847,0.220646,-0.171685,-0.227289,0.240811,0.032698,-0.012649,0.040676,0.087160,0.999999,-0.001136,0.001204,0.000163,0.271565,0.174202,-0.211109,-0.922680,29.662176,11.935223,-144.028343
28930,-1.385365,3.794659,8.866807,-1.149289,0.500775,-0.150015,-0.228354,0.204171,-0.015379,-0.013760,0.038049,0.088639,0.999999,-0.001142,0.001021,-0.000077,0.271965,0.174811,-0.209751,-0.922757,29.539366,12.035965,-143.972121
28931,-1.747932,3.561106,8.672431,-0.884067,0.804534,-0.351245,-0.151044,0.222369,-0.100094,-0.017365,0.035685,0.086717,0.999999,-0.000755,0.001112,-0.000500,0.271926,0.175698,-0.208648,-0.922850,29.452717,12.170005,-143.953864
28932,-2.023336,4.498244,8.527932,-0.210924,0.177606,0.035034,-0.169519,0.193529,-0.162100,-0.020114,0.045071,0.085261,0.999999,-0.000848,0.000968,-0.000810,0.271586,0.176490,-0.207445,-0.923070,29.347134,12.306851,-143.975876
28933,-1.728651,4.756799,7.912441,-0.072708,-0.394198,-0.428587,-0.152488,0.201017,-0.187654,-0.017162,0.047644,0.079105,0.999999,-0.000762,0.001005,-0.000938,0.271121,0.177368,-0.206286,-0.923298,29.248728,12.454833,-144.008997
28934,-2.344735,5.327502,8.279350,0.484227,-0.402032,0.288377,-0.134667,0.243056,-0.163195,-0.023303,0.053350,0.082786,0.999999,-0.000673,0.001215,-0.000816,0.270796,0.178436,-0.205175,-0.923436,29.165851,12.616665,-144.017881
28935,-2.285707,4.912705,8.284705,0.246248,-0.142258,0.082490,-0.157725,0.215296,-0.102693,-0.022743,0.049204,0.082833,0.999999,-0.000789,0.001076,-0.000513,0.270741,0.179284,-0.204047,-0.923537,29.074629,12.748004,-144.003840
28936,-1.904135,4.205125,8.469775,-0.449789,0.211495,-0.179474,-0.116628,0.239376,-0.097002,-0.018920,0.042110,0.084696,0.999999,-0.000583,0.001197,-0.000485,0.270699,0.180291,-0.203084,-0.923566,29.009294,12.889573,-143.980288
28937,-2.099656,3.542274,8.929615,-0.796054,0.939726,-0.056795,-0.085497,0.215628,-0.152157,-0.020873,0.035477,0.089304,0.999999,-0.000427,0.001078,-0.000761,0.270351,0.181288,-0.202243,-0.923657,28.953767,13.034843,-143.991903
28938,-2.310499,3.305976,8.982953,-0.768950,1.235173,-0.073882,-0.068140,0.188003,-0.249709,-0.022979,0.033119,0.089840,0.999999,-0.000341,0.000940,-0.001249,0.269507,0.182278,-0.201433,-0.923886,28.895023,13.192999,-144.061812
28939,-2.088267,3.645369,8.560673,-0.627020,0.707731,-0.323715,-0.033323,0.141836,-0.348870,-0.020758,0.036504,0.085615,0.999998,-0.000167,0.000709,-0.001744,0.268127,0.183202,-0.200754,-0.924253,28.841156,13.355635,-144.196123
28940,-1.996156,4.785818,8.192162,-0.071691,-0.354813,-0.124082,-0.050761,0.157164,-0.429073,-0.019794,0.047922,0.081925,0.999997,-0.000254,0.000786,-0.002145,0.266407,0.184251,-0.199899,-0.924727,28.768161,13.547685,-144.367735
28941,-2.605178,5.890089,8.150281,0.869126,-0.910096,0.498637,-0.042420,0.174026,-0.383969,-0.025868,0.058968,0.081513,0.999998,-0.000212,0.000870,-0.001920,0.264903,0.185346,-0.199101,-0.925112,28.705977,13.735863,-144.511655
28942,-1.946682,5.758684,7.447490,0.588608,-1.400765,-0.320143,-0.150589,0.228202,-0.299921,-0.019295,0.057672,0.074454,0.999998,-0.000753,0.001141,-0.001500,0.263941,0.186461,-0.197809,-0.925440,28.595362,13.927699,-144.597149
28943,-2.027986,5.107592,7.984357,0.121750,-0.735863,-0.148645,-0.144851,0.338090,-0.227973,-0.020087,0.051157,0.079841,0.999998,-0.000724,0.001690,-0.001140,0.263413,0.188023,-0.196463,-0.925561,28.504172,14.155273,-144.614711
28944,-3.065903,4.796302,8.819523,0.412408,0.279481,0.672537,-0.100379,0.332435,-0.174342,-0.030471,0.048034,0.088222,0.999998,-0.000502,0.001662,-0.000872,0.263086,0.189561,-0.195383,-0.925569,28.444944,14.365014,-144.606407
28945,-3.250036,4.193325,9.187892,0.118464,0.923935,0.755959,-0.092050,0.278778,-0.152818,-0.032340,0.042000,0.091905,0.999999,-0.000460,0.001394,-0.000764,0.262796,0.190842,-0.194429,-0.925589,28.389334,14.542168,-144.602136
28946,-2.722481,3.949432,8.666300,-0.178850,0.660093,0.068957,-0.081058,0.212421,-0.157870,-0.027102,0.039551,0.086676,0.999999,-0.000405,0.001062,-0.000789,0.262408,0.191834,-0.193610,-0.925666,28.334733,14.686993,-144.619399
28947,-1.973039,3.095050,8.422940,-1.028421,0.830085,-0.720308,-0.014501,0.255607,-0.205701,-0.019591,0.030977,0.084252,0.999999,-0.000073,0.001278,-0.001029,0.261776,0.193160,-0.192994,-0.925697,28.314807,14.866843,-144.649516
28948,-2.212666,3.478959,8.842997,-0.899478,0.752638,-0.126510,0.079009,0.256082,-0.250952,-0.021970,0.034782,0.088472,0.999998,0.000395,0.001280,-0.001255,0.260845,0.194653,-0.192767,-0.925695,28.342308,15.058983,-144.703136
28949,-2.432307,3.953890,8.791888,-0.538743,0.472290,0.103625,0.095325,0.251944,-0.299462,-0.024153,0.039533,0.087968,0.999998,0.000477,0.001260,-0.001497,0.259667,0.196195,-0.192572,-0.925741,28.372047,15.262519,-144.783214
28950,-3.131046,4.647067,8.715750,0.296219,0.279737,0.540905,0.146667,0.223569,-0.290595,-0.031145,0.046452,0.087226,0.999998,0.000733,0.001118,-0.001453,0.258453,0.197661,-0.192660,-0.925751,28.429981,15.449119,-144.866530
28951,-2.699250,4.625703,8.255273,0.131178,-0.074614,0.026507,0.070031,0.222184,-0.305671,-0.026830,0.046269,0.082599,0.999998,0.000350,0.001111,-0.001528,0.257242,0.199038,-0.192379,-0.925851,28.441620,15.639460,-144.958140
28952,-2.742769,4.554264,8.026469,0.216219,-0.070069,-0.187899,0.064390,0.218251,-0.335346,-0.027264,0.045563,0.080309,0.999998,0.000322,0.001091,-0.001677,0.255895,0.200415,-0.192047,-0.925996,28.445118,15.835679,-145.066401
28953,-2.735975,4.535567,8.166768,0.109993,-0.046147,-0.079308,0.006838,0.239582,-0.388693,-0.027174,0.045406,0.081702,0.999997,0.000034,0.001198,-0.001943,0.254378,0.201870,-0.191366,-0.926239,28.409276,16.057418,-145.196794
28954,-3.554951,4.933068,8.819632,0.577815,0.223877,0.881920,0.027983,0.192189,-0.390669,-0.035368,0.049388,0.088237,0.999998,0.000140,0.000961,-0.001953,0.252784,0.203131,-0.190842,-0.926508,28.380923,16.255500,-145.341888
28955,-2.880325,4.455342,8.629721,-0.075447,0.163072,0.315790,-0.028384,0.165511,-0.383750,-0.028646,0.044621,0.086315,0.999998,-0.000142,0.000828,-0.001919,0.251252,0.204191,-0.190095,-0.926845,28.318683,16.438375,-145.491261
28956,-3.186903,4.431074,8.677595,0.115432,0.335201,0.432587,-0.012242,0.137446,-0.376645,-0.031726,0.044376,0.086795,0.999998,-0.000061,0.000687,-0.001883,0.249709,0.205133,-0.189466,-0.927183,28.263901,16.604811,-145.645127
28957,-2.747084,3.809062,8.075235,-0.203097,0.422457,-0.482893,-0.033157,0.131087,-0.411420,-0.027339,0.038160,0.080764,0.999998,-0.000166,0.000655,-0.002057,0.248019,0.206053,-0.188711,-0.927587,28.190887,16.777500,-145.819496
28958,-2.287216,3.661614,7.968471,-0.591634,0.241580,-0.772399,-0.021879,0.185676,-0.489808,-0.022708,0.036681,0.079702,0.999997,-0.000109,0.000928,-0.002449,0.246005,0.207311,-0.187858,-0.928015,28.116000,16.998557,-146.020174
28959,-3.108122,4.172432,8.969367,-0.249218,0.486884,0.542015,0.034506,0.177425,-0.497518,-0.030898,0.041786,0.089728,0.999996,0.000173,0.000887,-0.002488,0.243887,0.208608,-0.187269,-0.928403,28.070756,17.217507,-146.227802
28960,-2.599531,3.943181,8.776355,-0.672221,0.329706,0.125620,0.045423,0.148200,-0.506751,-0.025830,0.039477,0.087792,0.999996,0.000227,0.000741,-0.002534,0.241686,0.209788,-0.186753,-0.928816,28.026842,17.423813,-146.448887
28961,-3.213785,4.545558,8.431188,0.179592,0.056195,0.288794,0.091755,0.127124,-0.493676,-0.031972,0.045496,0.084353,0.999997,0.000459,0.000636,-0.002468,0.239475,0.210914,-0.186492,-0.929187,28.009082,17.616024,-146.669442
28962,-2.611440,4.582624,7.895972,-0.054695,-0.443783,-0.327626,0.041848,0.142592,-0.492071,-0.025945,0.045874,0.078988,0.999997,0.000209,0.000713,-0.002460,0.237339,0.212048,-0.185980,-0.929579,27.963308,17.815306,-146.885013
28963,-3.422706,4.518192,8.501555,0.250190,0.154075,0.400978,0.054460,0.168430,-0.488012,-0.034045,0.045242,0.085057,0.999997,0.000272,0.000842,-0.002440,0.235229,0.213313,-0.185500,-0.929922,27.926993,18.026636,-147.091650
28964,-3.907578,4.394482,8.776592,0.436477,0.544983,0.728735,0.014133,0.093758,-0.515985,-0.038921,0.044039,0.087787,0.999997,0.000071,0.000469,-0.002580,0.232962,0.214207,-0.184889,-0.930409,27.855418,18.207258,-147.334583
28965,-3.280813,4.211491,8.390252,0.041189,0.249350,0.128779,-0.025784,0.042760,-0.567684,-0.032670,0.042219,0.083904,0.999996,-0.000129,0.000214,-0.002838,0.230448,0.214865,-0.184095,-0.931040,27.747095,18.375693,-147.620114
28966,-3.560590,4.616476,8.409502,0.382760,0.031234,0.412858,0.009886,0.031894,-0.565516,-0.035462,0.046261,0.084103,0.999996,0.000049,0.000159,-0.002828,0.227895,0.215508,-0.183480,-0.931641,27.657465,18.537404,-147.908002
28967,-3.200930,4.354710,8.436952,-0.023778,0.042043,0.206752,-0.059329,0.017457,-0.582147,-0.031875,0.043665,0.084359,0.999996,-0.000297,0.000087,-0.002911,0.225323,0.216020,-0.182540,-0.932333,27.523268,18.695829,-148.209561
28968,-3.232752,3.791290,8.057583,-0.017029,0.400506,-0.347572,-0.072041,0.022806,-0.616918,-0.032201,0.038041,0.080566,0.999995,-0.000360,0.000114,-0.003085,0.222606,0.216571,-0.181495,-0.933061,27.375042,18.865305,-148.528897
28969,-3.364784,3.582201,8.580131,-0.245529,0.733804,0.044986,-0.019135,0.035244,-0.640361,-0.033518,0.035938,0.085804,0.999995,-0.000096,0.000176,-0.003202,0.219731,0.217260,-0.180657,-0.933745,27.253152,19.046710,-148.858259
28970,-3.265193,2.514036,10.640030,-1.692153,2.051708,1.283220,0.062393,0.033292,-0.671372,-0.032550,0.025217,0.106414,0.999994,0.000312,0.000166,-0.003357,0.216620,0.218054,-0.180165,-0.934382,27.170849,19.234560,-149.205458
28971,-6.448207,7.592478,12.580990,1.588203,-0.228360,6.153898,0.318037,-0.242296,-0.677998,-0.064377,0.075943,0.125853,0.999992,0.001590,-0.001211,-0.003390,0.212946,0.217841,-0.181157,-0.935084,27.208073,19.283693,-149.633128
28972,-2.103024,6.144361,6.374217,0.591472,-2.633490,-1.122391,-0.280535,-0.468509,-0.745854,-0.020950,0.061611,0.063607,0.999989,-0.001403,-0.002343,-0.003729,0.209401,0.215990,-0.179512,-0.936630,26.869299,19.233903,-150.159846
28973,-2.971959,9.070084,7.024486,1.916075,-4.609543,0.935449,-0.410689,-0.381313,-0.901071,-0.029444,0.090978,0.070002,0.999986,-0.002053,-0.001907,-0.004505,0.205340,0.214546,-0.176997,-0.938338,26.436542,19.265400,-150.746801
28974,-1.116058,7.603213,6.917478,-0.014490,-4.327891,-0.422573,-0.722741,-0.360562,-1.015620,-0.010898,0.076337,0.068879,0.999979,-0.003614,-0.001803,-0.005078,0.201088,0.212972,-0.172868,-0.940385,25.805666,19.331163,-151.391138
28975,-1.728516,7.469009,8.183323,-0.137874,-3.731051,0.760856,-0.713966,-0.329284,-1.116644,-0.017001,0.075077,0.081538,0.999977,-0.003570,-0.001646,-0.005583,0.196369,0.211633,-0.168633,-0.942451,25.162815,19.431406,-152.083721
28976,-0.650407,6.034770,9.464274,-2.056038,-2.766352,0.889327,-0.714737,-0.320730,-1.319400,-0.006256,0.060727,0.094416,0.999971,-0.003574,-0.001604,-0.006597,0.190691,0.210491,-0.164168,-0.944658,24.481413,19.576960,-152.887894
28977,0.081715,5.691182,10.858186,-3.413824,-2.540466,1.684614,-0.431061,-0.463663,-1.573460,0.001015,0.057138,0.108461,0.999964,-0.002155,-0.002318,-0.007867,0.183387,0.209141,-0.160896,-0.946964,23.900150,19.699452,-153.870802
28978,1.340352,8.135095,12.389220,-4.520265,-4.898709,3.492900,-0.033882,-0.735574,-1.775630,0.013669,0.081251,0.123928,0.999954,-0.000169,-0.003678,-0.008878,0.174475,0.207009,-0.159536,-0.949344,23.485007,19.717078,-155.034611
28979,4.054499,11.296047,9.645007,-4.869479,-9.375655,1.387689,0.421017,-1.170054,-1.851651,0.041021,0.112378,0.096926,0.999938,0.002105,-0.005850,-0.009258,0.164368,0.203255,-0.160611,-0.951774,23.282344,19.518276,-156.344975
28980,4.704589,13.218553,8.249145,-4.523070,-11.597500,0.672889,0.328616,-1.051960,-1.923109,0.047878,0.131592,0.082958,0.999939,0.001643,-0.005260,-0.009615,0.154087,0.200010,-0.161071,-0.954101,23.028221,19.391497,-157.665184
28981,4.435536,14.522288,7.164324,-3.733960,-12.880994,0.288389,0.370004,-1.024760,-1.695251,0.045215,0.144709,0.072141,0.999949,0.001850,-0.005124,-0.008476,0.144858,0.196730,-0.161904,-0.956086,22.844668,19.224813,-158.849545
28982,6.303604,15.164296,5.627956,-4.796440,-14.431131,-1.440215,0.224441,-0.747598,-1.341384,0.063840,0.151153,0.056687,0.999970,0.001122,-0.003738,-0.006707,0.137672,0.194352,-0.162199,-0.957583,22.669492,19.120513,-159.770040
28983,7.243397,16.188337,6.064360,-5.769556,-15.506616,-1.005821,0.215270,-0.397325,-0.805906,0.072964,0.161525,0.060962,0.999989,0.001076,-0.001987,-0.004030,0.133342,0.193219,-0.162700,-0.958340,22.612898,19.083707,-160.307846
28984,7.994945,16.632592,7.054841,-6.837526,-15.858604,-0.216549,0.109250,-0.167937,-0.096016,0.079970,0.166249,0.070706,0.999999,0.000546,-0.000840,-0.000480,0.132692,0.192512,-0.163260,-0.958477,22.646765,19.008541,-160.395867
28985,8.652647,15.055567,7.856089,-8.021845,-14.415975,-0.268821,0.039653,-0.031897,0.558152,0.086093,0.150781,0.078605,0.999996,0.000198,-0.000159,0.002791,0.135364,0.191898,-0.163989,-0.958102,22.766265,18.863775,-160.085512
28986,9.952379,13.436081,7.982162,-9.433251,-13.358927,-1.103875,0.005934,0.037025,1.042029,0.098837,0.134875,0.079807,0.999986,0.000030,0.000185,0.005210,0.140428,0.191159,-0.165020,-0.957343,22.961946,18.642582,-159.491378
28987,8.182893,12.149255,9.387436,-8.552325,-11.275835,0.306512,0.198675,0.043248,1.419966,0.080984,0.121976,0.093978,0.999974,0.000993,0.000216,0.007100,0.147128,0.190298,-0.167275,-0.956117,23.327161,18.341079,-158.686408
28988,6.697583,9.765421,9.745800,-7.746566,-8.538442,0.300891,0.263803,-0.056572,1.638285,0.066146,0.098070,0.097606,0.999966,0.001319,-0.000283,0.008191,0.154706,0.188772,-0.170170,-0.954711,23.759191,17.926225,-157.790409
28989,4.359425,7.723174,10.480941,-6.326086,-5.663809,0.976297,0.380006,-0.155629,1.620229,0.042886,0.077382,0.104990,0.999965,0.001900,-0.000778,0.008101,0.162005,0.186906,-0.173609,-0.953248,24.233748,17.462638,-156.932498
28990,2.293136,7.163184,10.929455,-4.719796,-4.219090,1.846801,0.397490,-0.328784,1.489809,0.022218,0.071582,0.109474,0.999969,0.001987,-0.001644,0.007449,0.168493,0.184279,-0.177200,-0.951972,24.681111,16.926461,-156.196950
28991,2.530994,6.637493,10.045131,-4.593519,-4.026140,0.866975,0.325345,-0.432109,1.305815,0.024659,0.066374,0.100613,0.999975,0.001627,-0.002161,0.006529,0.174082,0.181303,-0.180292,-0.950957,25.037158,16.382623,-155.591342
28992,3.534019,6.563120,9.848962,-5.312968,-4.357208,0.451413,0.341060,-0.413400,1.159157,0.034756,0.065666,0.098674,0.999980,0.001705,-0.002067,0.005796,0.178958,0.178497,-0.183366,-0.949995,25.380292,15.873444,-155.067252
28993,5.038218,8.069584,10.667365,-6.443754,-5.987601,1.453155,0.395172,-0.472901,1.140766,0.049669,0.080769,0.106951,0.999979,0.001976,-0.002364,0.005704,0.183647,0.175522,-0.186661,-0.949012,25.736345,15.342281,-154.570819
28994,5.255337,7.344782,11.514787,-7.067930,-5.135657,1.927063,0.492037,-0.566246,1.215720,0.051780,0.073480,0.115476,0.999974,0.002460,-0.002831,0.006079,0.188501,0.172053,-0.190625,-0.947907,26.151417,14.732963,-154.065869
28995,3.927990,7.394704,12.318270,-6.095337,-4.275678,3.087396,0.630792,-0.809690,1.325769,0.038291,0.073814,0.123572,0.999965,0.003154,-0.004048,0.006629,0.193523,0.167506,-0.195492,-0.946717,26.631621,13.974931,-153.570889
28996,3.264043,5.342904,11.344595,-5.624010,-2.416683,1.607798,0.661661,-0.923656,1.374697,0.031749,0.053273,0.113770,0.999960,0.003308,-0.004618,0.006873,0.198618,0.162322,-0.200710,-0.945472,27.125167,13.133063,-153.091222
28997,0.874405,5.190539,10.842584,-3.283095,-1.260108,1.715464,0.691948,-0.945082,1.393631,0.007871,0.051587,0.108643,0.999959,0.003460,-0.004725,0.006968,0.203746,0.157101,-0.206023,-0.944119,27.622624,12.280156,-152.614219
28998,-0.492469,4.169436,10.715446,-2.266053,0.305109,1.466364,0.627058,-0.857512,1.432464,-0.005681,0.041319,0.107261,0.999960,0.003135,-0.004288,0.007162,0.209177,0.152103,-0.211020,-0.942645,28.088407,11.447980,-152.104422
28999,-2.694745,4.371248,10.722416,-0.191197,1.304358,2.002490,0.647141,-0.914859,1.557806,-0.027776,0.043151,0.107239,0.999954,0.003236,-0.004574,0.007789,0.215111,0.146782,-0.216182,-0.940982,28.560679,10.558081,-151.552145
29000,-1.291845,3.496569,9.903123,-1.299731,1.220901,0.617319,0.418626,-0.787040,1.543202,-0.013576,0.034655,0.099051,0.999960,0.002093,-0.003935,0.007716,0.221258,0.141746,-0.220165,-0.939404,28.902166,9.723165,-150.982006
29001,-2.954704,4.162455,10.957402,0.082956,1.976316,2.112316,0.373035,-0.799653,1.543248,-0.030304,0.041188,0.109531,0.999960,0.001865,-0.003998,0.007716,0.227410,0.136662,-0.223867,-0.937812,29.203002,8.888201,-150.419060
29002,-0.237040,4.767105,9.642587,-1.446850,-0.175762,0.847261,0.291647,-0.871776,1.567793,-0.003164,0.047508,0.096483,0.999959,0.001458,-0.004359,0.007839,0.233631,0.131035,-0.227327,-0.936253,29.451183,7.998262,-149.872043
29003,-0.825566,4.730676,9.927699,-0.942435,0.363112,1.169019,0.378896,-0.770690,1.590605,-0.009013,0.047049,0.099333,0.999959,0.001894,-0.003853,0.007953,0.240000,0.126019,-0.231014,-0.934426,29.741435,7.159092,-149.287560
29004,-2.018845,6.295114,10.993092,0.441977,0.294370,3.003949,0.443655,-0.896537,1.698840,-0.021214,0.062530,0.109976,0.999951,0.002218,-0.004483,0.008494,0.246663,0.120283,-0.235258,-0.932386,30.065198,6.213902,-148.693387
29005,-2.580885,4.222013,9.819614,0.611233,1.893822,1.001556,0.419912,-1.041712,1.715929,-0.026680,0.041788,0.098147,0.999947,0.002100,-0.005208,0.008579,0.253227,0.113881,-0.239500,-0.930348,30.357247,5.198237,-148.136376
29006,-3.367521,3.660392,9.353168,1.305470,2.702669,0.346495,0.463620,-1.023635,1.567882,-0.034438,0.036119,0.093441,0.999953,0.002318,-0.005118,0.007839,0.259071,0.107711,-0.243868,-0.928337,30.662315,4.222294,-147.656277
29007,-5.239553,3.556796,8.957986,3.056312,3.774874,0.023736,0.546258,-1.068597,1.483298,-0.053134,0.034931,0.089393,0.999954,0.002731,-0.005343,0.007416,0.264402,0.101606,-0.248554,-0.926277,30.998879,3.255784,-147.234485
29008,-4.736245,2.910705,7.791718,2.795875,3.649248,-1.417510,0.526671,-0.990787,1.368880,-0.047945,0.028575,0.077756,0.999961,0.002633,-0.004954,0.006844,0.269284,0.095898,-0.253019,-0.924268,31.318816,2.349933,-146.854368
29009,-5.525924,2.812277,8.084889,3.374444,4.402385,-1.266333,0.556835,-0.864271,1.273457,-0.055785,0.027544,0.080686,0.999967,0.002784,-0.004321,0.006367,0.273854,0.090999,-0.257337,-0.922226,31.646450,1.541323,-146.485678
29010,-5.645349,4.176929,8.935010,3.894322,3.988608,0.090526,0.545809,-0.922438,1.235779,-0.057121,0.041174,0.089201,0.999967,0.002729,-0.004612,0.006179,0.278158,0.085792,-0.261696,-0.920208,31.964758,0.705190,-146.160228
29011,-2.595836,4.351971,7.890318,1.835709,1.838384,-0.802468,0.308104,-0.982537,1.135439,-0.026592,0.043248,0.078840,0.999971,0.001541,-0.004913,0.005677,0.282010,0.080171,-0.264938,-0.918614,32.138667,-0.122506,-145.902780
29012,-2.015982,4.632866,7.674652,1.634928,1.327447,-0.868902,0.409989,-0.953363,1.086326,-0.020776,0.046060,0.076743,0.999972,0.002050,-0.004767,0.005432,0.285614,0.074824,-0.268616,-0.916882,32.370337,-0.930034,-145.665763
29013,-1.633865,5.256017,7.769891,1.673368,0.836210,-0.476456,0.482441,-0.993349,1.114571,-0.017017,0.052279,0.077742,0.999969,0.002412,-0.004967,0.005573,0.289253,0.069418,-0.272633,-0.914978,32.637253,-1.758535,-145.428204
29014,-1.884950,3.618837,7.863302,1.121873,2.258522,-1.320366,0.595646,-0.961167,1.096782,-0.019425,0.035849,0.078648,0.999969,0.002978,-0.004806,0.005484,0.292792,0.064281,-0.277140,-0.912871,32.968540,-2.575087,-145.196158
29015,-2.567965,4.230923,8.306816,1.926258,2.563020,-0.690357,0.660344,-1.024060,1.005440,-0.026316,0.041904,0.083073,0.999969,0.003302,-0.005120,0.005027,0.295793,0.059136,-0.281946,-0.910778,33.334310,-3.386756,-145.029791
29016,-3.146416,2.849748,7.589940,1.957471,3.582263,-2.133972,0.532183,-0.997353,0.838537,-0.031961,0.028162,0.075816,0.999975,0.002661,-0.004987,0.004193,0.298088,0.054095,-0.286103,-0.909045,33.632009,-4.141392,-144.942136
29017,-3.133810,3.047415,6.753054,2.321517,3.122368,-2.771966,0.499321,-0.923068,0.710554,-0.031757,0.030193,0.067460,0.999980,0.002497,-0.004615,0.003553,0.299907,0.049583,-0.289912,-0.907496,33.910326,-4.812792,-144.892914
29018,-3.798666,3.065522,7.390640,2.743514,3.886315,-2.341560,0.519830,-0.747833,0.624197,-0.038358,0.030344,0.073843,0.999985,0.002599,-0.003739,0.003121,0.301569,0.045964,-0.293556,-0.905963,34.201256,-5.380661,-144.834260
29019,-3.626041,3.495481,8.418626,2.596274,4.108486,-1.291035,0.472117,-0.787236,0.612869,-0.036698,0.034644,0.084124,0.999985,0.002361,-0.003936,0.003064,0.303127,0.042166,-0.296995,-0.904505,34.463840,-5.956676,-144.793897
29020,-2.360290,3.212151,8.129194,1.536733,3.497894,-1.604455,0.479112,-0.811618,0.526629,-0.024017,0.031864,0.081272,0.999985,0.002396,-0.004058,0.002633,0.304245,0.038342,-0.300510,-0.903138,34.737904,-6.522949,-144.807513
29021,-3.201299,4.148070,8.880180,2.569454,3.855972,-0.601779,0.444670,-0.857521,0.406432,-0.032478,0.041218,0.088755,0.999986,0.002223,-0.004288,0.002032,0.304753,0.034491,-0.303873,-0.901997,34.998910,-7.064736,-144.893405
29022,-1.572426,4.530273,7.348974,1.879223,1.954859,-1.467048,0.368295,-0.897283,0.380705,-0.016140,0.045137,0.073501,0.999986,0.001841,-0.004486,0.001904,0.305085,0.030332,-0.306970,-0.900984,35.222617,-7.622527,-145.009330
29023,-2.216379,4.229041,6.373496,2.520832,2.050603,-2.542296,0.361987,-0.707089,0.433518,-0.022481,0.042127,0.063732,0.999990,0.001810,-0.003535,0.002168,0.305945,0.026989,-0.309718,-0.899858,35.429833,-8.102267,-145.036703
29024,-2.605007,3.332396,6.681860,2.314017,3.050809,-2.893462,0.383918,-0.544917,0.546046,-0.026323,0.033124,0.066811,0.999991,0.001920,-0.002725,0.002730,0.307548,0.024187,-0.312356,-0.898478,35.636557,-8.549638,-144.960498
29025,-2.433516,2.097838,7.693785,1.289556,4.321161,-2.799734,0.434205,-0.382640,0.640012,-0.024549,0.020733,0.076936,0.999991,0.002171,-0.001913,0.003200,0.309820,0.022091,-0.314945,-0.896846,35.854630,-8.947407,-144.784454
29026,-3.224527,2.099599,8.711487,1.697844,5.382833,-2.142091,0.284068,-0.261478,0.641092,-0.032426,0.020769,0.087102,0.999993,0.001420,-0.001307,0.003205,0.312296,0.020260,-0.316696,-0.895413,35.980903,-9.295334,-144.569722
29027,-4.548422,1.256743,9.196958,2.193686,6.955576,-2.487446,0.052122,-0.181624,0.529701,-0.045601,0.012423,0.091931,0.999996,0.000261,-0.000908,0.002648,0.314422,0.018644,-0.317241,-0.894511,35.975462,-9.563473,-144.378240
29028,-4.359776,1.795858,8.503587,2.510314,6.158025,-2.718976,-0.092479,-0.147339,0.405398,-0.043697,0.017909,0.084995,0.999998,-0.000462,-0.000737,0.002027,0.316057,0.017112,-0.317094,-0.894017,35.895564,-9.778734,-144.234810
29029,-3.901084,2.760572,8.349259,2.723916,5.240273,-2.218667,-0.112309,-0.008820,0.372030,-0.039066,0.027580,0.083475,0.999998,-0.000562,-0.000044,0.001860,0.317764,0.016260,-0.316613,-0.893598,35.797038,-9.913278,-144.057940
29030,-4.810954,3.439293,8.516183,3.795393,5.463879,-1.860306,-0.125400,0.057811,0.457562,-0.048164,0.034336,0.085154,0.999997,-0.000627,0.000289,0.002288,0.319959,0.015513,-0.315991,-0.893048,35.680660,-10.049545,-143.818934
29031,-4.501425,2.260918,7.649613,3.085325,5.511424,-3.179730,-0.234372,0.209282,0.437925,-0.044984,0.022600,0.076517,0.999996,-0.001172,0.001046,0.002190,0.322311,0.015336,-0.314618,-0.892690,35.492986,-10.103645,-143.536278
29032,-5.359666,2.411903,7.983774,3.762486,6.104478,-2.967037,-0.291691,0.365977,0.344445,-0.053492,0.024143,0.079900,0.999996,-0.001458,0.001830,0.001722,0.324495,0.015881,-0.312743,-0.892549,35.271706,-10.056355,-143.245910
29033,-6.392643,2.285212,7.777947,4.532369,6.668001,-3.364445,-0.323205,0.463845,0.327564,-0.063783,0.022873,0.077891,0.999995,-0.001616,0.002319,0.001638,0.326755,0.016870,-0.310548,-0.892472,35.027732,-9.952669,-142.930139
29034,-6.238724,2.000691,7.211418,4.352805,6.426189,-3.923211,-0.437563,0.650278,0.261253,-0.062179,0.020084,0.072273,0.999991,-0.002188,0.003251,0.001306,0.329016,0.018581,-0.307539,-0.892649,34.714480,-9.741225,-142.585292
29035,-8.178238,1.088500,6.844789,5.395247,7.917868,-5.004608,-0.509653,0.807519,0.140929,-0.081513,0.011002,0.068749,0.999988,-0.002548,0.004038,0.000705,0.330979,0.021084,-0.303922,-0.893107,34.362286,-9.411395,-142.247182
29036,-8.913533,-0.303174,6.544193,5.190069,9.018715,-6.058450,-0.531803,0.971557,-0.033907,-0.088816,-0.002842,0.065882,0.999985,-0.002659,0.004858,-0.000170,0.332407,0.024531,-0.299914,-0.893843,34.005129,-8.947789,-141.942242
29037,-9.856040,-0.695313,7.073908,5.519491,10.081819,-5.868641,-0.582057,1.064409,-0.245768,-0.098190,-0.006625,0.071282,0.999981,-0.002910,0.005322,-0.001229,0.333019,0.028644,-0.295485,-0.894967,33.633120,-8.368202,-141.712545
29038,-10.840913,-1.652157,6.973971,5.718882,11.178997,-6.464109,-0.655100,1.106082,-0.536848,-0.108064,-0.016001,0.070391,0.999976,-0.003275,0.005530,-0.002684,0.332392,0.033240,-0.290606,-0.896638,33.239887,-7.676635,-141.614134
29039,-8.117896,-4.849919,-0.818457,3.760782,7.563900,-14.140895,-0.488102,1.058030,-1.343289,-0.081544,-0.047971,-0.007636,0.999960,-0.002440,0.005290,-0.006716,0.328025,0.039078,-0.286401,-0.899359,32.995368,-6.753802,-141.925304
29040,60.514534,30.699225,33.680288,-41.174520,-38.784305,40.546969,4.133055,2.237267,-6.735398,0.618627,0.279357,0.335896,0.999157,0.020659,0.011183,-0.033668,0.299924,0.065475,-0.299730,-0.903283,35.581345,-3.526335,-144.395670
29041,-89.613923,35.453519,20.228765,84.554000,38.682210,22.600281,-5.495361,2.911266,-1.191194,-0.891009,0.365468,0.205341,0.999499,-0.027472,0.014554,-0.005955,0.300607,0.072090,-0.269987,-0.911891,32.411372,-1.767487,-144.023896
29042,22.182941,-33.149758,-9.051232,-32.379185,5.335034,-34.225626,-2.119537,-0.079868,0.721134,0.223060,-0.331629,-0.086909,0.999937,-0.010597,-0.000399,0.003606,0.304576,0.067530,-0.260666,-0.913633,31.182600,-2.028193,-143.692491
29043,-11.413462,20.808316,27.588047,11.474923,4.865856,24.374509,3.660133,2.626811,-1.323950,-0.109107,0.203704,0.281090,0.999724,0.018299,0.013133,-0.006619,0.300686,0.086767,-0.272844,-0.909734,33.272471,-0.355903,-143.526766
29044,1.620705,-9.305535,8.450150,-8.616971,9.030402,-7.620258,-3.719927,0.305162,-1.285924,0.015746,-0.091565,0.086190,0.999805,-0.018598,0.001526,-0.006429,0.296864,0.084263,-0.254829,-0.916425,31.137546,0.180021,-144.051746
29045,-4.910367,-1.039219,12.700692,-0.530525,8.961929,0.477880,2.484836,0.853357,-1.392102,-0.048640,-0.011631,0.127076,0.999889,0.012424,0.004267,-0.006960,0.290547,0.093584,-0.264312,-0.914857,32.553040,1.010892,-144.466511
29046,-2.999381,9.969270,12.216229,3.209782,0.051104,5.913448,0.320334,0.046853,-1.555704,-0.029190,0.099726,0.122329,0.999968,0.001602,0.000234,-0.007778,0.283398,0.096282,-0.264938,-0.916637,32.715200,1.509614,-145.196652
29047,-4.991352,-1.466846,7.474430,0.978141,7.080400,-4.169701,0.381016,0.302973,-1.564376,-0.049914,-0.014420,0.074792,0.999966,0.001905,0.001515,-0.007822,0.276491,0.100238,-0.265472,-0.918166,32.908748,2.135840,-145.851498
29048,-2.670908,7.057618,13.561212,0.846480,2.409444,5.495007,1.215605,-0.024962,-1.429581,-0.026225,0.069939,0.136035,0.999956,0.006078,-0.000125,-0.007148,0.269339,0.103665,-0.270322,-0.918497,33.571511,2.568549,-146.538718
29049,-1.427399,2.961974,9.477434,-0.718402,2.873058,-0.228234,0.640918,-0.210736,-1.631605,-0.014133,0.029432,0.094854,0.999961,0.003205,-0.001054,-0.008158,0.261273,0.105720,-0.272673,-0.919896,33.894093,2.981826,-147.379555
29050,-2.148094,4.914011,8.947327,0.834104,1.644028,0.454614,0.831546,-0.351562,-1.749400,-0.021210,0.048954,0.089640,0.999952,0.004158,-0.001758,-0.008747,0.252362,0.107538,-0.275979,-0.921186,34.312764,3.372737,-148.317532
29051,-2.244370,6.567438,9.144166,1.438974,0.604948,1.560389,0.864068,-0.511897,-1.804509,-0.022087,0.065479,0.091668,0.999947,0.004320,-0.002559,-0.009022,0.242921,0.108714,-0.279599,-0.922494,34.741183,3.711608,-149.332931
29052,-1.587605,6.451067,8.593812,0.930103,0.113970,1.009128,0.777793,-0.613583,-1.767188,-0.015571,0.064314,0.086140,0.999949,0.003889,-0.003068,-0.008836,0.233544,0.109263,-0.282917,-0.923838,35.111876,3.998778,-150.360414
29053,-2.216606,5.599597,8.643902,1.078606,1.078035,0.611328,0.652818,-0.684329,-1.868213,-0.021939,0.055919,0.086546,0.999945,0.003264,-0.003422,-0.009341,0.223632,0.109460,-0.285675,-0.925417,35.402572,4.290934,-151.459182
29054,-3.202893,5.877428,8.558717,2.025167,1.289070,0.784064,0.614484,-0.881379,-2.015716,-0.031813,0.058833,0.085627,0.999935,0.003072,-0.004407,-0.010078,0.212762,0.108911,-0.288341,-0.927216,35.653892,4.546779,-152.690031
29055,-1.473802,8.480500,6.663635,1.902899,-2.384997,0.636466,0.586759,-1.012238,-1.995473,-0.014230,0.084753,0.066812,0.999933,0.002934,-0.005061,-0.009977,0.201773,0.107672,-0.291010,-0.928982,35.883650,4.738885,-153.956409
29056,0.496251,9.900123,4.425043,1.166593,-5.443628,-0.493687,0.416952,-0.758532,-1.778400,0.005674,0.098860,0.044477,0.999951,0.002085,-0.003793,-0.008892,0.192239,0.107123,-0.292700,-0.930535,36.025387,4.981058,-155.034339
29057,1.556249,10.546790,3.490751,0.546181,-6.864171,-0.956890,0.274129,-0.392090,-1.417546,0.016241,0.105306,0.035083,0.999972,0.001371,-0.001960,-0.007088,0.184973,0.107594,-0.293563,-0.931681,36.108152,5.271994,-155.821849
29058,1.562293,10.101640,4.138663,0.089057,-6.212052,-0.701494,0.262456,0.016069,-1.045425,0.016154,0.100878,0.041518,0.999985,0.001312,0.000080,-0.005227,0.180043,0.109414,-0.294169,-0.932243,36.208151,5.628312,-156.296806
29059,2.069221,9.702212,3.963333,-0.522629,-6.203569,-1.131407,0.321424,0.388815,-0.612422,0.021066,0.096894,0.039748,0.999992,0.001607,0.001944,-0.003062,0.177638,0.112376,-0.294958,-0.932103,36.373443,6.009907,-156.444138
29060,0.485514,8.147478,5.142142,0.064904,-3.793287,-0.943352,0.177016,0.750526,-0.366146,0.005197,0.081420,0.051474,0.999991,0.000885,0.003753,-0.001831,0.176995,0.116537,-0.294877,-0.931740,36.480166,6.475667,-156.352179
29061,0.720452,5.457666,6.271245,-1.285700,-1.277768,-1.667295,0.144626,0.956407,-0.381175,0.007608,0.054517,0.062716,0.999986,0.000723,0.004782,-0.001906,0.176597,0.121642,-0.294457,-0.931296,36.577472,7.040325,-156.196043
29062,-1.152836,6.230560,8.155544,-0.100868,-0.193284,0.512679,0.120616,1.016787,-0.471077,-0.010967,0.062283,0.081650,0.999984,0.000603,0.005084,-0.002355,0.175881,0.127140,-0.293802,-0.930904,36.659584,7.663935,-156.059375
29063,-3.702348,5.506954,9.149317,1.580881,1.854941,1.223748,0.115349,0.868317,-0.463483,-0.036498,0.055102,0.091684,0.999988,0.000577,0.004342,-0.002317,0.174979,0.131923,-0.293256,-0.930580,36.734116,8.215849,-155.969783
29064,-3.289209,7.281288,8.974820,1.610663,0.216675,2.092838,0.146783,0.659824,-0.405878,-0.032448,0.072813,0.089909,0.999992,0.000734,0.003299,-0.002029,0.174017,0.135683,-0.293064,-0.930280,36.820322,8.652988,-155.924547
29065,-1.442738,5.279933,7.603030,-0.134636,0.301736,-0.450226,0.004533,0.614926,-0.401715,-0.014087,0.052826,0.076075,0.999993,0.000023,0.003075,-0.002009,0.173101,0.139095,-0.292255,-0.930202,36.823858,9.067277,-155.892912
29066,-1.370491,5.629472,8.030485,-0.336764,0.188813,0.082176,0.055867,0.661465,-0.418943,-0.013321,0.056300,0.080365,0.999992,0.000279,0.003307,-0.002095,0.172135,0.142799,-0.291622,-0.930019,36.857852,9.509674,-155.852613
29067,-1.560247,5.304732,7.622749,-0.164031,0.286647,-0.401454,0.009277,0.667793,-0.447876,-0.015229,0.053078,0.076281,0.999992,0.000046,0.003339,-0.002239,0.171074,0.146524,-0.290748,-0.929909,36.864133,9.964042,-155.823648
29068,-1.588068,6.758845,7.142735,0.304203,-1.082352,0.084688,0.182823,0.772125,-0.326583,-0.015494,0.067549,0.071549,0.999991,0.000914,0.003861,-0.001633,0.170599,0.150712,-0.290669,-0.929351,36.986060,10.425257,-155.700874
29069,-1.890570,7.358907,6.962234,0.704890,-1.523659,0.354986,0.142224,0.858516,-0.151589,-0.018551,0.073554,0.069755,0.999990,0.000711,0.004293,-0.000758,0.171090,0.155002,-0.290460,-0.928620,37.107098,10.864475,-155.465476
29070,-2.407004,7.527895,7.259870,1.015162,-1.306587,0.790632,0.131412,0.939886,0.000513,-0.023729,0.075231,0.072760,0.999989,0.000657,0.004699,0.000003,0.172409,0.159443,-0.290239,-0.927693,37.242628,11.288495,-155.129086
29071,-2.636902,6.662070,7.854103,0.715059,-0.259155,0.791296,0.116503,0.911350,0.119047,-0.026050,0.066559,0.078699,0.999989,0.000583,0.004557,0.000595,0.174246,0.163557,-0.290066,-0.926687,37.381566,11.656722,-154.746381
29072,-4.224724,5.819047,9.329101,1.256751,1.768425,1.764635,0.169437,0.836913,0.199971,-0.041914,0.058069,0.093516,0.999990,0.000847,0.004185,0.001000,0.176301,0.167259,-0.290259,-0.925577,37.555307,11.962739,-154.351017
29073,-2.707996,4.815238,8.845232,-0.180100,1.669044,0.480003,0.035048,0.666759,0.119506,-0.026814,0.048121,0.088550,0.999994,0.000175,0.003334,0.000598,0.177847,0.170161,-0.289913,-0.924860,37.633913,12.217911,-154.052819
29074,-3.119880,5.799666,8.455411,0.517447,0.901152,0.854256,0.158415,0.553755,0.044550,-0.030977,0.057923,0.084686,0.999996,0.000792,0.002769,0.000223,0.178776,0.172766,-0.290166,-0.924118,37.768094,12.448556,-153.829011
29075,-1.908680,6.152833,6.885461,0.156916,-0.637786,-0.406388,0.042557,0.530724,0.002856,-0.018905,0.061513,0.068918,0.999996,0.000213,0.002654,0.000014,0.179579,0.175212,-0.289871,-0.923595,37.831320,12.682059,-153.632389
29076,-1.060972,6.587099,6.260460,-0.251856,-1.648620,-0.816722,-0.090997,0.601945,-0.044895,-0.010407,0.065902,0.062606,0.999995,-0.000455,0.003010,-0.000224,0.180378,0.177943,-0.288846,-0.923238,37.819328,12.965496,-153.431804
29077,-0.329918,4.727435,6.243371,-1.346643,-0.577485,-2.112690,-0.218998,0.766897,-0.161485,-0.003022,0.047345,0.062394,0.999992,-0.001095,0.003834,-0.000807,0.180990,0.181478,-0.286979,-0.923012,37.736766,13.363707,-153.226102
29078,-2.004154,3.849282,8.485935,-1.134796,1.827650,-0.527432,-0.205844,0.860181,-0.314885,-0.019616,0.038611,0.084905,0.999989,-0.001029,0.004301,-0.001574,0.181012,0.185679,-0.284940,-0.922804,37.653987,13.859135,-153.058421
29079,-2.448161,3.574503,8.228050,-0.769583,2.074686,-0.780840,-0.010006,0.768074,-0.365560,-0.024100,0.035793,0.082372,0.999991,-0.000050,0.003840,-0.001828,0.180484,0.189694,-0.283839,-0.922430,37.671272,14.329726,-152.947744
29080,-2.654395,5.399440,8.196223,-0.247150,0.712641,0.326749,0.176701,0.851925,-0.332991,-0.026104,0.053966,0.082122,0.999989,0.000883,0.004260,-0.001665,0.180046,0.194221,-0.283542,-0.921665,37.807611,14.827635,-152.790250
29081,-5.111817,6.684777,9.383462,1.510814,1.328334,2.629918,0.240349,0.706021,-0.250899,-0.050702,0.066799,0.094094,0.999992,0.001202,0.003530,-0.001254,0.179713,0.198006,-0.283751,-0.920859,37.978773,15.229384,-152.646074
29082,-4.170346,5.371241,8.686203,0.666424,1.598226,1.081962,-0.004985,0.501606,-0.253728,-0.041417,0.053767,0.086965,0.999996,-0.000025,0.002508,-0.001269,0.179318,0.200639,-0.283001,-0.920597,37.989697,15.540575,-152.576757
29083,-3.838862,7.496944,8.290406,0.973133,-0.386450,1.959111,0.238533,0.380320,-0.225327,-0.038146,0.074914,0.083066,0.999997,0.001193,0.001902,-0.001127,0.178637,0.202883,-0.283515,-0.920080,38.132782,15.785950,-152.538421
29084,-2.840714,7.213850,6.358377,0.932396,-1.485257,0.059637,-0.014307,0.348646,-0.186172,-0.028229,0.072169,0.063628,0.999998,-0.000072,0.001743,-0.000931,0.178347,0.204707,-0.282924,-0.919914,38.132482,16.004216,-152.492719
29085,-2.387292,8.180744,6.345584,0.726211,-2.466730,0.496428,-0.168740,0.449411,-0.163931,-0.023663,0.081880,0.063440,0.999997,-0.000844,0.002247,-0.000820,0.178458,0.206816,-0.281562,-0.919838,38.057657,16.259020,-152.399900
29086,-2.049628,7.519118,5.803196,0.534852,-2.383503,-0.408018,-0.404674,0.503641,-0.181299,-0.020282,0.075327,0.057931,0.999994,-0.002023,0.002518,-0.000906,0.178807,0.208994,-0.279041,-0.920047,37.850847,16.545704,-152.295733
29087,-0.720247,6.593186,5.894001,-0.857084,-2.272972,-1.278837,-0.582326,0.733028,-0.266080,-0.006899,0.066112,0.058773,0.999988,-0.002912,0.003665,-0.001330,0.179270,0.212176,-0.275409,-0.920322,37.555563,16.965474,-152.149010
29088,-4.281484,5.764180,8.878288,0.478298,1.169421,1.535594,-0.703208,0.791625,-0.268356,-0.042386,0.058011,0.088748,0.999985,-0.003516,0.003958,-0.001342,0.179924,0.215523,-0.271156,-0.920680,37.197230,17.414433,-151.984219
29089,-4.539826,2.022053,9.938613,-0.677471,4.593369,0.282658,-0.596946,0.558271,-0.265385,-0.045094,0.020577,0.099451,0.999991,-0.002985,0.002791,-0.001327,0.180159,0.217876,-0.267601,-0.921120,36.875232,17.755642,-151.904906
29090,-3.204271,1.841164,8.974991,-1.396246,3.683486,-0.941951,-0.125017,0.375667,-0.328577,-0.031844,0.018520,0.089798,0.999997,-0.000625,0.001878,-0.001643,0.179341,0.219902,-0.266306,-0.921173,36.793644,18.036114,-151.922910
29091,-3.524527,4.968987,8.373128,-0.197461,1.070131,0.484789,0.064673,0.327496,-0.373532,-0.035015,0.049728,0.083805,0.999997,0.000323,0.001637,-0.001868,0.178044,0.221927,-0.265884,-0.921062,36.808837,18.308875,-151.980393
29092,-4.025579,6.255771,7.831218,0.723403,0.027541,0.964310,0.067575,0.271532,-0.342269,-0.040042,0.062600,0.078388,0.999998,0.000338,0.001358,-0.001711,0.176813,0.223663,-0.265549,-0.920976,36.823145,18.546306,-152.042669
29093,-3.768523,7.428843,7.408411,0.927187,-1.212723,1.230117,0.036318,0.240168,-0.263540,-0.037498,0.074324,0.074143,0.999998,0.000182,0.001201,-0.001318,0.175936,0.225113,-0.265194,-0.920893,36.828534,18.741265,-152.078599
29094,-3.353684,7.189529,6.649785,0.888983,-1.540569,0.384979,-0.179720,0.269428,-0.205141,-0.033373,0.071989,0.066478,0.999998,-0.000899,0.001347,-0.001026,0.175609,0.226437,-0.263875,-0.921009,36.721935,18.930683,-152.075558
29095,-2.999012,7.007984,6.553881,0.585363,-1.628950,0.089987,-0.329465,0.347115,-0.209048,-0.029803,0.070219,0.065475,0.999997,-0.001647,0.001736,-0.001045,0.175535,0.227984,-0.261800,-0.921234,36.538519,19.156070,-152.047094
29096,-2.704615,7.613654,6.325620,0.565160,-2.389724,0.150525,-0.528548,0.411666,-0.226864,-0.026830,0.076334,0.063110,0.999994,-0.002643,0.002058,-0.001134,0.175688,0.229682,-0.258723,-0.921652,36.245224,19.418472,-152.004909
29097,-3.423449,5.636546,7.714419,0.030667,-0.007902,0.336263,-0.807003,0.527406,-0.244412,-0.033962,0.056718,0.077006,0.999988,-0.004035,0.002637,-0.001222,0.176227,0.231680,-0.254242,-0.922296,35.803412,19.739593,-151.931795
29098,-3.650305,1.519077,9.073083,-1.354278,3.861892,-0.801350,-0.743923,0.412291,-0.304655,-0.036292,0.015584,0.090748,0.999990,-0.003720,0.002061,-0.001523,0.176264,0.233281,-0.250073,-0.923025,35.372940,20.028720,-151.931771
29099,-3.922086,1.028800,9.672423,-1.560804,4.549503,-0.492671,-0.195462,0.225493,-0.368480,-0.039093,0.010455,0.096758,0.999997,-0.000977,0.001127,-0.001842,0.175132,0.234573,-0.248527,-0.923330,35.222850,20.250582,-152.030999
29100,-3.668163,3.730256,8.680201,-0.713470,1.840384,0.128139,0.155380,0.017597,-0.420132,-0.036596,0.037312,0.086834,0.999997,0.000777,0.000088,-0.002101,0.173092,0.235283,-0.248712,-0.923484,35.238220,20.393201,-152.229314
29101,-3.997695,6.905261,7.431840,0.831217,-1.084826,1.005288,0.223998,-0.021231,-0.383526,-0.039852,0.069046,0.074391,0.999998,0.001120,-0.000106,-0.001918,0.171090,0.235819,-0.249298,-0.923563,35.294787,20.504572,-152.423492
29102,-3.300407,7.546095,6.462249,0.863874,-2.292226,0.365538,-0.049330,0.009670,-0.301238,-0.032887,0.075526,0.064605,0.999999,-0.000247,0.000048,-0.001506,0.169830,0.236168,-0.248682,-0.923872,35.211870,20.604244,-152.565423
29103,-3.580339,7.511368,6.684671,0.961036,-2.090249,0.609952,-0.260978,0.148013,-0.282101,-0.035648,0.075251,0.066775,0.999998,-0.001305,0.000740,-0.001411,0.169078,0.236944,-0.247003,-0.924262,35.028618,20.761033,-152.649765
29104,-3.375846,7.156655,6.390215,0.868939,-2.045828,0.112440,-0.466168,0.164405,-0.263703,-0.033611,0.071760,0.063763,0.999996,-0.002331,0.000822,-0.001319,0.168673,0.237606,-0.244375,-0.924864,34.732111,20.920239,-152.719707
29105,-2.861781,7.052948,6.603587,0.309858,-2.167645,0.023267,-0.710993,0.301768,-0.297713,-0.028413,0.070806,0.065827,0.999991,-0.003555,0.001509,-0.001489,0.168568,0.238727,-0.240462,-0.925620,34.306194,21.153845,-152.760415
29106,-3.974824,5.474351,7.914152,0.234047,-0.001463,0.596242,-0.948812,0.392252,-0.341695,-0.039499,0.055186,0.078958,0.999985,-0.004744,0.001961,-0.001708,0.168646,0.240122,-0.235309,-0.926569,33.745882,21.445207,-152.794602
29107,-5.226501,2.104285,9.396471,-0.181198,3.763034,0.475361,-0.851965,0.234856,-0.257983,-0.052127,0.021510,0.093935,0.999989,-0.004260,0.001174,-0.001290,0.168808,0.240757,-0.230837,-0.927499,33.236303,21.633561,-152.842283
29108,-4.302665,-0.772827,10.516785,-2.111063,6.104159,-0.432097,-0.288728,0.020168,-0.215801,-0.043024,-0.007530,0.105183,0.999998,-0.001444,0.000101,-0.001079,0.168237,0.240828,-0.229200,-0.927990,33.029696,21.706510,-152.941706
29109,-3.671746,1.452310,9.846223,-1.826066,3.740255,-0.054875,0.387195,-0.177676,-0.227477,-0.036789,0.014374,0.098457,0.999997,0.001936,-0.000888,-0.001137,0.166572,0.240554,-0.230857,-0.927951,33.183918,21.687025,-153.113985
29110,-4.362141,3.930178,8.650561,-0.135317,1.577394,0.521726,0.632844,-0.269192,-0.202641,-0.043698,0.039072,0.086571,0.999994,0.003164,-0.001346,-0.001013,0.164622,0.240038,-0.233746,-0.927709,33.471290,21.617649,-153.303970
29111,-3.549805,5.383391,7.617592,0.005461,-0.293444,0.163452,0.664752,-0.335792,-0.197928,-0.035573,0.053616,0.076295,0.999993,0.003324,-0.001679,-0.000990,0.162572,0.239221,-0.236852,-0.927494,33.770642,21.514788,-153.515052
29112,-3.837689,6.928319,7.231169,0.726379,-1.557211,0.773462,0.581831,-0.299729,-0.208371,-0.038413,0.069113,0.072455,0.999994,0.002909,-0.001499,-0.001042,0.160618,0.238522,-0.239516,-0.927330,34.024179,21.434490,-153.718921
29113,-3.178233,7.212019,6.658349,0.512509,-2.243812,0.244677,0.384094,-0.259771,-0.238553,-0.031783,0.072030,0.066681,0.999997,0.001920,-0.001299,-0.001193,0.158802,0.237876,-0.241205,-0.927371,34.165035,21.382372,-153.925160
29114,-2.197435,6.376058,8.716418,-1.534427,-1.168469,1.038072,0.174761,-0.151155,-0.294022,-0.021947,0.063717,0.087203,0.999998,0.000874,-0.000756,-0.001470,0.157110,0.237640,-0.241761,-0.927575,34.188521,21.400957,-154.121731
29115,-2.632639,8.894027,9.221896,-1.019935,-2.866602,2.908145,0.702708,-0.039966,-0.271079,-0.026225,0.088651,0.092526,0.999993,0.003514,-0.000200,-0.001355,0.155028,0.238297,-0.244712,-0.926983,34.533606,21.464213,-154.268428
29116,1.537485,12.072374,5.456694,-2.107441,-8.592138,0.168013,0.390437,0.073777,-0.773236,0.015861,0.120556,0.054797,0.999991,0.001952,0.000369,-0.003866,0.151130,0.239857,-0.245518,-0.927011,34.619479,21.745817,-154.629699
29117,-0.731106,12.309249,8.061162,-1.654154,-6.926635,3.083697,0.054891,0.226610,-1.443988,-0.006331,0.123118,0.080653,0.999973,0.000274,0.001133,-0.007220,0.144705,0.242679,-0.243848,-0.927742,34.402737,22.316043,-155.280856
29118,2.380853,12.032544,10.651974,-5.860573,-6.966698,3.641974,0.156546,0.146587,-2.034823,0.025109,0.119991,0.106596,0.999948,0.000783,0.000733,-0.010174,0.135306,0.245908,-0.241969,-0.928801,34.107375,23.036667,-156.269013
29119,2.838696,14.391834,12.588957,-7.216111,-8.423468,6.018544,0.216018,-0.099845,-2.385937,0.030037,0.143430,0.126059,0.999928,0.001080,-0.000499,-0.011929,0.123890,0.248425,-0.240074,-0.930215,33.724663,23.746535,-157.534778
29120,12.230044,11.503373,13.359571,-16.111206,-8.850858,1.253709,0.109152,-0.900188,-1.712075,0.122676,0.113912,0.134210,0.999953,0.000546,-0.004501,-0.008560,0.114766,0.246312,-0.238990,-0.932225,33.299285,23.852302,-158.734892
29121,15.315009,17.983323,8.597122,-15.896528,-16.987235,-0.295939,1.675794,-1.190320,-0.809515,0.153353,0.178479,0.088383,0.999939,0.008379,-0.005951,-0.004047,0.107560,0.242644,-0.246458,-0.932102,33.922381,23.535620,-159.563905
29122,13.131100,22.770461,9.069236,-14.092492,-19.872866,3.590019,0.702722,-1.142486,-0.340697,0.131174,0.227159,0.092241,0.999976,0.003514,-0.005712,-0.001703,0.103774,0.238061,-0.249924,-0.932789,34.096466,23.094628,-160.133669
29123,9.481335,16.650811,7.810155,-10.830049,-13.864003,1.079522,0.319850,-1.114802,0.083569,0.094306,0.166422,0.078894,0.999983,0.001599,-0.005574,0.000418,0.102448,0.232885,-0.252073,-0.933664,34.143694,22.533501,-160.474357
29124,6.549748,15.877441,6.931521,-7.850505,-12.604404,1.256875,-0.148722,-0.904019,0.431570,0.064841,0.158966,0.069491,0.999987,-0.000744,-0.004520,0.002158,0.103559,0.227980,-0.252349,-0.934677,34.023546,21.956879,-160.561886
29125,5.348548,11.646782,4.700914,-5.951864,-9.584665,-2.127569,-0.562348,-0.685479,0.723101,0.052903,0.116792,0.046863,0.999984,-0.002812,-0.003427,0.003615,0.106773,0.223534,-0.250879,-0.935784,33.748914,21.394381,-160.422437
29126,7.180310,11.966114,4.722123,-7.406326,-10.459757,-2.547662,-0.475508,-0.367171,1.006804,0.071113,0.120132,0.047067,0.999983,-0.002378,-0.001836,0.005034,0.111615,0.220227,-0.249986,-0.936242,33.617629,20.889484,-160.028370
29127,8.983738,11.276656,5.547136,-9.271998,-10.184728,-2.817152,-0.583999,-0.062024,1.496765,0.088972,0.113596,0.055168,0.999968,-0.002920,-0.000310,0.007484,0.119243,0.217697,-0.248910,-0.936180,33.542484,20.380101,-159.280954
29128,8.555690,9.025272,7.752894,-9.987174,-7.350082,-2.003118,-0.514717,0.219621,1.949906,0.084755,0.091281,0.077202,0.999949,-0.002574,0.001098,0.009749,0.129260,0.215903,-0.248501,-0.935374,33.615044,19.856058,-158.211338
29129,5.357304,8.476399,10.049216,-8.141727,-4.939427,0.715655,-0.261561,0.023939,2.333589,0.052590,0.085513,0.100374,0.999931,-0.001308,0.000120,0.011668,0.140536,0.212896,-0.249747,-0.934105,33.859068,19.119411,-157.018887
29130,4.034304,6.326951,9.990755,-7.105784,-2.740792,0.092512,-0.396758,-0.150247,2.440675,0.039490,0.063953,0.099811,0.999923,-0.001984,-0.000751,0.012203,0.152224,0.208766,-0.250601,-0.932976,34.008708,18.255314,-155.840698
29131,2.768461,5.176792,9.600077,-5.865434,-1.496081,-0.326869,-0.341755,-0.311231,2.347796,0.026924,0.052251,0.095954,0.999928,-0.001709,-0.001556,0.011739,0.163190,0.204061,-0.251660,-0.931877,34.136161,17.348469,-154.770497
29132,1.077797,6.196219,9.946747,-4.194486,-1.507671,1.078723,-0.367303,-0.404088,2.210817,0.009890,0.062257,0.099374,0.999935,-0.001836,-0.002020,0.011054,0.173415,0.198992,-0.252539,-0.930889,34.204678,16.432763,-153.807006
29133,1.232215,5.945495,9.402571,-3.961918,-1.570477,0.536693,-0.372907,-0.516582,2.042842,0.011470,0.059750,0.093945,0.999943,-0.001864,-0.002583,0.010214,0.182690,0.193636,-0.253253,-0.930050,34.217911,15.524402,-152.968496
29134,0.935645,6.890134,9.707380,-3.444619,-2.048857,1.435266,-0.273391,-0.575591,1.827321,0.008446,0.069114,0.097005,0.999953,-0.001367,-0.002878,0.009136,0.190784,0.188291,-0.254285,-0.929240,34.244360,14.649691,-152.260070
29135,0.294157,7.859150,10.631244,-2.873998,-2.103731,2.922568,-0.134632,-0.774243,1.665745,0.001875,0.078682,0.106268,0.999958,-0.000673,-0.003871,0.008329,0.197715,0.182402,-0.255938,-0.928512,34.300757,13.740152,-151.699488
29136,2.536272,7.827536,9.661759,-4.183248,-3.429232,1.667277,-0.119214,-0.989549,1.437174,0.024321,0.078510,0.096693,0.999962,-0.000596,-0.004948,0.007186,0.203291,0.175745,-0.257684,-0.928108,34.316912,12.794288,-151.325072
29137,0.243642,8.840630,11.151345,-2.380163,-2.443332,4.004996,0.193258,-1.188662,1.303363,0.001198,0.088309,0.111608,0.999961,0.000966,-0.005943,0.006517,0.207687,0.168701,-0.260906,-0.927542,34.475176,11.804949,-151.083481
29138,0.861448,9.166954,9.443629,-1.886990,-3.551497,2.748265,0.237931,-1.510247,1.313934,0.007299,0.091608,0.094604,0.999949,0.001190,-0.007551,0.006570,0.211668,0.160119,-0.264693,-0.927090,34.636398,10.651535,-150.948001
29139,-0.989489,7.611883,8.773896,-0.311267,-1.604840,1.729600,0.398214,-1.411846,1.281205,-0.011001,0.075876,0.087815,0.999953,0.001991,-0.007059,0.006406,0.215466,0.152254,-0.269028,-0.926292,34.886728,9.562896,-150.799303
29140,-3.179802,8.351689,8.744833,2.002639,-0.969424,2.490903,0.347168,-1.449382,1.359933,-0.032998,0.083144,0.087357,0.999949,0.001736,-0.007247,0.006800,0.219607,0.143974,-0.273239,-0.925411,35.110410,8.421789,-150.631854
29141,-3.731549,6.099761,7.832007,2.263242,0.738095,0.521796,0.208697,-1.241379,1.404702,-0.038228,0.060650,0.078148,0.999956,0.001043,-0.006207,0.007023,0.224306,0.136494,-0.276547,-0.924434,35.261069,7.371147,-150.377000
29142,-4.766218,5.925354,7.980350,3.185183,1.569173,0.622912,0.156834,-1.110366,1.431039,-0.048526,0.058846,0.079582,0.999959,0.000784,-0.005552,0.007155,0.229332,0.129449,-0.279502,-0.923325,35.386157,6.364237,-150.070534
29143,-4.555731,5.247959,8.599565,2.671810,2.368630,0.651374,0.102161,-1.001772,1.413791,-0.046357,0.052110,0.085791,0.999962,0.000511,-0.005009,0.007069,0.234440,0.122920,-0.282007,-0.922172,35.475004,5.421367,-149.736998
29144,-3.956864,4.878086,9.003426,2.006791,2.637629,0.652844,0.086476,-1.046815,1.331180,-0.040363,0.048475,0.089845,0.999964,0.000432,-0.005234,0.006656,0.239101,0.116211,-0.284457,-0.921092,35.546815,4.476680,-149.460497
29145,-4.965689,4.407315,9.462737,2.664774,3.817367,0.767935,0.217581,-1.181469,1.200036,-0.050478,0.043669,0.094378,0.999964,0.001088,-0.005907,0.006000,0.242867,0.109278,-0.287538,-0.919998,35.679381,3.520375,-149.290833
29146,-4.669810,4.199154,9.174292,2.561797,3.797000,0.317689,0.326278,-1.393926,1.000227,-0.047545,0.041606,0.091482,0.999962,0.001631,-0.006970,0.005001,0.245337,0.101719,-0.291280,-0.919031,35.864544,2.524287,-149.289681
29147,-5.666254,4.422410,9.218327,3.626085,4.284347,0.440808,0.452786,-1.506198,0.751158,-0.057520,0.043801,0.091852,0.999962,0.002264,-0.007531,0.003756,0.246409,0.094214,-0.295558,-0.918178,36.114526,1.567483,-149.444243
29148,-6.330230,4.848423,8.241931,4.817231,3.942401,-0.181650,0.482129,-1.690473,0.531711,-0.064125,0.048116,0.081996,0.999958,0.002411,-0.008452,0.002659,0.246174,0.086160,-0.300102,-0.917558,36.382623,0.593583,-149.768228
29149,-6.553980,4.074581,7.205419,5.144466,4.149424,-1.579258,0.604576,-1.633557,0.314183,-0.066190,0.040425,0.071638,0.999961,0.003023,-0.008168,0.001571,0.244947,0.078893,-0.304988,-0.916929,36.723945,-0.271165,-150.176678
29150,-6.848587,5.131523,6.633229,6.101777,3.327521,-1.510319,0.577424,-1.595115,0.272685,-0.069082,0.051031,0.065931,0.999963,0.002887,-0.007975,0.001363,0.243586,0.071776,-0.309691,-0.916300,37.057762,-1.107974,-150.597379
29151,-5.589992,4.638785,6.180022,5.026163,2.863537,-2.230094,0.507226,-1.285931,0.314068,-0.056369,0.046143,0.061556,0.999975,0.002536,-0.006430,0.001570,0.242898,0.065971,-0.313663,-0.915568,37.352038,-1.809341,-150.895352
29152,-5.830184,4.810647,6.656806,5.250427,3.177378,-1.826286,0.397292,-1.081288,0.451781,-0.058769,0.047842,0.066346,0.999981,0.001986,-0.005406,0.002259,0.243189,0.060705,-0.316942,-0.914725,37.583893,-2.470021,-151.064102
29153,-4.904821,3.938746,7.015015,4.058767,3.580059,-2.099704,0.378046,-0.898876,0.540766,-0.049469,0.039122,0.070003,0.999984,0.001890,-0.004494,0.002704,0.244170,0.056153,-0.319900,-0.913724,37.799735,-3.072760,-151.129634
29154,-3.988321,3.393956,7.539152,2.958512,3.858022,-2.026382,0.307944,-0.831801,0.554781,-0.040290,0.033712,0.075277,0.999986,0.001540,-0.004159,0.002774,0.245337,0.051755,-0.322476,-0.912765,37.976304,-3.655082,-151.168815
29155,-3.228794,2.623139,7.808242,1.964026,4.215519,-2.286332,0.285083,-0.800369,0.457311,-0.032660,0.026046,0.077989,0.999988,0.001425,-0.004002,0.002287,0.246108,0.047671,-0.324849,-0.911938,38.140657,-4.183472,-151.241152
29156,-2.388234,3.592802,8.187909,1.600969,3.433070,-1.368518,0.266507,-0.882804,0.331740,-0.024303,0.035779,0.081820,0.999988,0.001333,-0.004414,0.001659,0.246173,0.043352,-0.327224,-0.911287,38.303469,-4.709058,-151.402398
29157,-1.401855,4.245566,6.967902,1.368105,1.877034,-1.866229,0.211879,-0.935197,0.271836,-0.014402,0.042362,0.069657,0.999988,0.001059,-0.004676,0.001359,0.245883,0.038862,-0.329371,-0.910794,38.438878,-5.231646,-151.609495
29158,-1.690423,5.680953,6.280826,2.446016,0.707456,-1.560680,0.157466,-0.825690,0.295887,-0.017247,0.056735,0.062782,0.999990,0.000787,-0.004128,0.001479,0.245890,0.034727,-0.331154,-0.910313,38.541798,-5.717814,-151.768998
29159,-1.900149,6.228009,5.329562,3.130875,-0.076769,-2.002803,0.072137,-0.673967,0.398500,-0.019305,0.062223,0.053253,0.999992,0.000361,-0.003370,0.001992,0.246624,0.031045,-0.332352,-0.909810,38.585237,-6.167914,-151.827333
29160,-3.051834,6.300113,5.768627,4.122902,0.710480,-1.764164,0.106331,-0.451566,0.531119,-0.030816,0.062889,0.057650,0.999994,0.000532,-0.002258,0.002656,0.248321,0.028160,-0.333469,-0.909033,38.634861,-6.570093,-151.747742
29161,-3.101826,6.910961,6.657195,4.286389,0.907301,-0.729511,0.153046,-0.370507,0.700711,-0.031383,0.068949,0.066567,0.999992,0.000765,-0.001853,0.003504,0.250915,0.025453,-0.334695,-0.907950,38.696618,-6.992514,-151.561435
29162,-2.942743,5.369504,7.077787,3.426282,2.134242,-1.369249,0.108490,-0.255211,0.706401,-0.029707,0.053552,0.070769,0.999993,0.000542,-0.001276,0.003532,0.253725,0.023172,-0.335591,-0.906899,38.727753,-7.369485,-151.332779
29163,-3.203791,6.279475,7.670270,3.970447,2.070949,-0.406548,0.141191,-0.255764,0.642750,-0.032337,0.062637,0.076706,0.999994,0.000706,-0.001279,0.003214,0.256242,0.021068,-0.336603,-0.905867,38.778279,-7.720129,-151.131421
29164,-2.912093,5.138415,7.340088,3.307539,2.510645,-1.355909,0.150686,-0.258485,0.515831,-0.029348,0.051253,0.073402,0.999996,0.000753,-0.001292,0.002579,0.258171,0.019148,-0.337664,-0.904966,38.842754,-8.030136,-150.990199
29165,-2.846528,5.875911,7.700412,3.536589,2.267830,-0.632566,0.270970,-0.276489,0.408759,-0.028692,0.058596,0.077044,0.999996,0.001355,-0.001382,0.002044,0.259577,0.017512,-0.339259,-0.904000,38.981608,-8.306361,-150.902448
29166,-1.911613,6.206770,7.588691,2.927737,1.586970,-0.395886,0.257445,-0.281955,0.380232,-0.019341,0.061933,0.075940,0.999996,0.001287,-0.001410,0.001901,0.260837,0.015855,-0.340814,-0.903083,39.116165,-8.578075,-150.831898
29167,-2.128829,6.123995,6.988816,3.222709,1.422383,-0.954382,0.255353,-0.194814,0.363916,-0.021468,0.061112,0.069945,0.999997,0.001277,-0.000974,0.001820,0.262176,0.014643,-0.342223,-0.902182,39.243986,-8.802197,-150.735576
29168,-1.683290,6.396157,6.423518,3.097850,0.728736,-1.159478,0.197462,-0.070310,0.393742,-0.016981,0.063865,0.064292,0.999998,0.000987,-0.000352,0.001969,0.263858,0.013842,-0.343226,-0.901323,39.330817,-8.984941,-150.582376
29169,-1.902483,6.274803,6.775269,3.169212,1.161056,-1.009006,0.204649,0.123550,0.535535,-0.019151,0.062627,0.067829,0.999996,0.001023,0.000618,0.002678,0.266517,0.013704,-0.343996,-0.900249,39.398512,-9.130711,-150.292551
29170,-2.886225,5.968136,7.695631,3.682840,2.439084,-0.666157,0.209236,0.227074,0.749704,-0.028998,0.059492,0.077051,0.999992,0.001046,0.001135,0.003749,0.270306,0.013648,-0.344676,-0.898859,39.448146,-9.311437,-149.870560
29171,-2.621968,5.110413,7.841038,3.019823,2.969951,-1.064383,0.118882,0.298418,0.894448,-0.026331,0.050940,0.078480,0.999989,0.000594,0.001492,0.004472,0.274877,0.013563,-0.344838,-0.897410,39.428046,-9.510827,-149.355134
29172,-2.934734,3.295195,7.815179,2.405845,4.250968,-2.283470,-0.022290,0.391063,0.880920,-0.029339,0.032831,0.078205,0.999988,-0.000111,0.001955,0.004405,0.279541,0.013702,-0.344247,-0.896193,39.322248,-9.665908,-148.813122
29173,-3.468650,3.280982,8.218630,2.741008,4.798076,-2.079156,-0.007308,0.466837,0.793454,-0.034624,0.032675,0.082266,0.999989,-0.000037,0.002334,0.003967,0.283946,0.014372,-0.343588,-0.895051,39.224241,-9.752502,-148.280139
29174,-3.744451,2.760172,8.273168,2.670986,5.301913,-2.407269,-0.095189,0.534134,0.679507,-0.037317,0.027514,0.082818,0.999991,-0.000476,0.002671,0.003398,0.287949,0.015398,-0.342437,-0.894195,39.081135,-9.768686,-147.775242
29175,-3.865719,3.214931,8.356820,2.949063,5.151749,-2.074573,-0.056591,0.531631,0.592115,-0.038530,0.032059,0.083662,0.999992,-0.000283,0.002658,0.002961,0.291557,0.016634,-0.341437,-0.893386,38.965742,-9.751513,-147.309019
29176,-3.205571,2.998615,8.090891,2.319173,4.773013,-2.291413,-0.091516,0.558392,0.477540,-0.031901,0.029947,0.080984,0.999993,-0.000458,0.002792,0.002388,0.294690,0.018121,-0.340237,-0.892787,38.838762,-9.681587,-146.886286
29177,-3.193275,3.016161,7.865720,2.335980,4.617424,-2.437985,-0.066403,0.601477,0.363598,-0.031751,0.030130,0.078743,0.999994,-0.000332,0.003007,0.001818,0.297389,0.020044,-0.339061,-0.892298,38.731997,-9.549295,-146.498429
29178,-4.028421,2.721549,7.564279,2.901598,5.061502,-2.970537,-0.083413,0.685875,0.246278,-0.040058,0.027198,0.075769,0.999993,-0.000417,0.003429,0.001231,0.299700,0.022507,-0.337675,-0.891992,38.621113,-9.337510,-146.134583
29179,-5.177361,2.735599,7.133542,3.906820,5.423334,-3.448739,-0.130150,0.803016,0.138622,-0.051506,0.027367,0.071525,0.999991,-0.000651,0.004015,0.000693,0.301735,0.025614,-0.335880,-0.891900,38.485524,-9.033029,-145.776966
29180,-7.000248,2.955940,7.364303,5.392650,6.434206,-3.371135,-0.187557,0.984562,0.143700,-0.069660,0.029579,0.073959,0.999987,-0.000938,0.004923,0.000718,0.304094,0.029429,-0.333553,-0.891854,38.309416,-8.648373,-145.353533
29181,-8.143138,3.046898,6.428055,6.538789,6.485551,-4.147426,-0.318924,1.095704,0.240225,-0.081114,0.030474,0.064677,0.999983,-0.001595,0.005478,0.001201,0.307083,0.033383,-0.330471,-0.891838,38.048431,-8.245749,-144.847592
29182,-8.746604,2.004966,4.853021,6.816575,6.568814,-6.010283,-0.476219,1.446008,0.212031,-0.087134,0.020074,0.049113,0.999970,-0.002381,0.007230,0.001060,0.310533,0.038704,-0.326131,-0.892025,37.686838,-7.671815,-144.233447
29183,-4.123546,0.192206,-0.085986,3.433061,2.244915,-10.283826,-0.683656,1.791231,-0.165640,-0.041239,0.001954,-0.000497,0.999954,-0.003418,0.008956,-0.000828,0.312883,0.045855,-0.320231,-0.893003,37.220942,-6.805120,-143.675953
29184,38.694969,29.904427,30.754901,-25.179388,-23.964280,36.321298,2.673520,2.928976,-3.853403,0.397048,0.287364,0.305677,0.999618,0.013366,0.014643,-0.019265,0.299681,0.069225,-0.326558,-0.893733,38.816519,-4.128214,-144.381001
29185,-56.933343,24.105752,11.975880,54.158046,24.745884,10.691789,-6.250696,2.932955,0.433671,-0.568096,0.243584,0.120509,0.999402,-0.031247,0.014662,0.002168,0.308440,0.072170,-0.294170,-0.901732,35.155968,-2.941243,-143.165100
29186,14.477449,-35.047128,-2.910298,-28.812788,12.223194,-31.417465,-1.996109,2.194299,0.902550,0.146050,-0.350092,-0.027205,0.999880,-0.009980,0.010971,0.004513,0.316455,0.077618,-0.282060,-0.902371,33.957927,-2.202867,-142.021892
29187,-8.508194,25.734894,30.037691,9.975890,3.072664,29.273198,3.929821,2.290424,0.671550,-0.082447,0.251089,0.306306,0.999736,0.019647,0.011451,0.003357,0.321158,0.093158,-0.296331,-0.894632,36.172383,-1.355380,-140.948067
29188,-3.138785,-12.221110,8.743151,-7.044640,13.636066,-9.644639,-4.964275,1.413950,-0.664185,-0.031155,-0.119884,0.090647,0.999661,-0.024819,0.007069,-0.003321,0.322534,0.092432,-0.271424,-0.902085,33.321640,-0.476903,-140.794452
29189,-9.322043,-2.750299,13.966687,0.862448,13.760212,0.158970,2.888265,0.642095,-0.392429,-0.092829,-0.029336,0.139550,0.999889,0.014441,0.003210,-0.001962,0.320318,0.100465,-0.283184,-0.898393,34.972454,-0.051728,-140.769424
29190,-3.213701,12.885910,13.771826,4.159575,-0.094614,8.861484,-0.246619,-0.077064,-1.132044,-0.031459,0.129208,0.137547,0.999983,-0.001233,-0.000385,-0.005660,0.315303,0.101299,-0.281591,-0.900571,34.825049,0.279660,-141.320518
29191,-2.771682,-1.364031,4.952157,-0.300596,4.792861,-6.495375,-0.388301,0.093883,-1.113678,-0.027769,-0.013390,0.049561,0.999983,-0.001941,0.000469,-0.005568,0.310665,0.102633,-0.279106,-0.902803,34.594529,0.681690,-141.809894
29192,0.281529,10.585382,11.057365,1.061677,-2.168132,5.305657,0.988366,0.067236,-0.765250,0.003256,0.105294,0.111094,0.999980,0.004942,0.000336,-0.003826,0.306852,0.105513,-0.283029,-0.902554,35.150963,0.960718,-142.141415
29193,2.115548,4.345229,6.770031,-2.000153,-1.129825,-1.818155,-0.377753,0.168396,-0.780145,0.021382,0.043497,0.067600,0.999990,-0.001889,0.000842,-0.003901,0.303820,0.106754,-0.280632,-0.904181,34.924578,1.290782,-142.447546
29194,1.088290,4.313880,6.990656,-1.328547,-0.409173,-1.643826,0.448784,0.406570,-0.719688,0.011180,0.042942,0.069981,0.999989,0.002244,0.002033,-0.003598,0.300955,0.110257,-0.281621,-0.904411,35.171474,1.714862,-142.645380
29195,-0.971771,7.035484,10.133041,0.379498,0.431336,2.548142,0.460883,0.310799,-0.654554,-0.009330,0.070152,0.101507,0.999991,0.002304,0.001554,-0.003273,0.298229,0.113234,-0.282855,-0.904561,35.425042,2.071325,-142.844181
29196,-0.743650,7.695051,7.854599,1.283737,-1.166198,1.070931,0.270754,0.150110,-0.662436,-0.007123,0.076868,0.078656,0.999993,0.001354,0.000751,-0.003312,0.295351,0.115228,-0.283444,-0.905069,35.565281,2.358213,-143.097433
29197,-1.740513,8.513981,6.262805,3.002428,-1.851463,0.301513,0.089482,0.115700,-0.766013,-0.017043,0.085178,0.062676,0.999992,0.000447,0.000578,-0.003830,0.292049,0.116925,-0.283215,-0.905994,35.598857,2.661904,-143.411639
29198,0.749520,11.375124,5.159304,2.685455,-5.786969,0.951716,-0.058524,0.070938,-0.706829,0.007915,0.113739,0.051557,0.999994,-0.000293,0.000355,-0.003534,0.289038,0.118136,-0.282398,-0.907057,35.545772,2.927079,-143.712079
29199,1.016159,11.825613,4.142220,3.014917,-6.757684,0.349947,-0.363358,0.284507,-0.444249,0.010483,0.118308,0.041193,0.999995,-0.001817,0.001423,-0.002221,0.287692,0.119486,-0.280056,-0.908033,35.327848,3.201884,-143.820624
29200,1.058107,9.041111,4.710309,1.484379,-4.711407,-0.832315,-0.563371,0.574649,-0.157619,0.010787,0.090535,0.046817,0.999992,-0.002817,0.002873,-0.000788,0.288167,0.121478,-0.276548,-0.908693,35.007858,3.519470,-143.699712
29201,0.682588,6.584094,7.198028,-0.284690,-1.811595,-0.207252,-0.546289,0.778947,0.022603,0.007098,0.066038,0.071773,0.999989,-0.002731,0.003895,0.000113,0.289730,0.124155,-0.272935,-0.908927,34.708381,3.872747,-143.428903
29202,-0.330676,3.628577,8.966107,-1.525232,1.478186,-0.370498,-0.576224,0.815719,0.026565,-0.002946,0.036544,0.089569,0.999988,-0.002881,0.004079,0.000133,0.291368,0.126962,-0.269124,-0.909152,34.394258,4.245385,-143.146003
29203,-0.764790,1.585848,9.871268,-2.504513,3.432518,-0.730488,-0.441452,0.747345,-0.124348,-0.007269,0.016081,0.098705,0.999990,-0.002207,0.003737,-0.000622,0.292140,0.129841,-0.265928,-0.909438,34.151899,4.633854,-142.958589
29204,-1.161627,1.890929,10.590081,-2.369156,3.681474,0.082165,-0.300864,0.620086,-0.367990,-0.011253,0.019090,0.105907,0.999992,-0.001504,0.003100,-0.001840,0.291538,0.132682,-0.263387,-0.909961,33.977712,5.042620,-142.929128
29205,-1.805417,2.933628,9.732220,-1.076421,2.941596,0.024476,-0.172737,0.443949,-0.568236,-0.017755,0.029471,0.097336,0.999993,-0.000864,0.002220,-0.002841,0.289704,0.135156,-0.261557,-0.910710,33.863482,5.429910,-143.053239
29206,-1.435235,5.030126,8.703905,-0.042467,0.797669,0.310629,-0.150493,0.380819,-0.669328,-0.014018,0.050414,0.087028,0.999992,-0.000752,0.001904,-0.003347,0.287312,0.137520,-0.259836,-0.911606,33.753707,5.820999,-143.245941
29207,-1.659534,6.724683,7.618490,1.294617,-0.738657,0.375284,-0.119133,0.367812,-0.595959,-0.016255,0.067341,0.076175,0.999994,-0.000596,0.001839,-0.002980,0.285209,0.139758,-0.258335,-0.912352,33.664441,6.180356,-143.409281
29208,-1.001704,6.652274,6.780233,1.032930,-1.463131,-0.430811,-0.246812,0.507526,-0.502929,-0.009678,0.066631,0.067745,0.999993,-0.001234,0.002538,-0.002515,0.283798,0.142344,-0.256103,-0.913021,33.510143,6.578461,-143.483491
29209,-1.268208,7.010103,7.529897,1.062222,-1.333727,0.411869,-0.312783,0.577267,-0.440700,-0.012310,0.070246,0.075225,0.999992,-0.001564,0.002886,-0.002203,0.282801,0.145058,-0.253523,-0.913624,33.324151,6.988164,-143.507590
29210,-1.915424,6.015534,8.607314,0.658208,0.098090,0.840856,-0.285524,0.586292,-0.350860,-0.018796,0.060311,0.086043,0.999993,-0.001428,0.002931,-0.001754,0.282202,0.147751,-0.251106,-0.914045,33.158765,7.375783,-143.486169
29211,-2.294422,6.300783,8.704330,1.011957,0.090311,1.127925,-0.307984,0.510071,-0.248034,-0.022644,0.063170,0.087004,0.999995,-0.001540,0.002550,-0.001240,0.281991,0.149918,-0.248776,-0.914394,32.984334,7.692833,-143.440682
29212,-1.892776,5.523069,8.076486,0.582760,0.121988,0.135265,-0.294282,0.503319,-0.165634,-0.018679,0.055365,0.080731,0.999995,-0.001471,0.002517,-0.000828,0.282135,0.151984,-0.246569,-0.914606,32.822612,7.983052,-143.357713
29213,-0.653140,4.959458,7.850066,-0.581352,-0.338420,-0.528637,-0.270757,0.572897,-0.130979,-0.006274,0.049705,0.078452,0.999995,-0.001354,0.002864,-0.000655,0.282502,0.154343,-0.244404,-0.914679,32.680593,8.294340,-143.237298
29214,-0.789347,4.373041,8.424035,-1.002978,0.316520,-0.346729,-0.310763,0.648015,-0.175260,-0.007582,0.043868,0.084197,0.999993,-0.001554,0.003240,-0.000876,0.282786,0.157056,-0.241904,-0.914794,32.516108,8.657788,-143.115306
29215,-2.782483,4.019920,9.435736,-0.050799,2.059307,0.612829,-0.141165,0.593211,-0.166346,-0.027511,0.040289,0.094411,0.999995,-0.000706,0.002966,-0.000832,0.282909,0.159730,-0.240271,-0.914723,32.447887,8.990335,-143.007132
29216,-1.683456,2.106460,9.468768,-1.816003,2.757319,-0.537570,-0.176825,0.523573,-0.266945,-0.016558,0.021171,0.094713,0.999995,-0.000884,0.002618,-0.001335,0.282514,0.162170,-0.238480,-0.914885,32.347992,9.322159,-142.969682
29217,-2.734042,2.638617,10.553391,-1.262202,3.330204,0.823463,0.067423,0.387484,-0.449137,-0.027077,0.026412,0.105595,0.999996,0.000337,0.001937,-0.002246,0.280922,0.164533,-0.237859,-0.915115,32.367026,9.642084,-143.064764
29218,-3.021746,2.946960,9.756856,-0.591749,2.972671,0.376751,0.078863,0.218989,-0.627006,-0.030018,0.029525,0.097613,0.999994,0.000394,0.001095,-0.003135,0.278308,0.166366,-0.237365,-0.915710,32.367533,9.937003,-143.298679
29219,-2.393308,5.580058,8.415814,0.598015,0.184689,0.545834,0.097597,0.109966,-0.722319,-0.023685,0.055845,0.084198,0.999993,0.000488,0.000550,-0.003612,0.275105,0.167822,-0.237040,-0.916496,32.364269,10.206429,-143.614609
29220,-2.544377,6.635353,8.052260,1.286265,-0.666426,0.828823,0.027896,0.129240,-0.697828,-0.025160,0.066430,0.080548,0.999994,0.000139,0.000646,-0.003489,0.272097,0.169255,-0.236371,-0.917303,32.321840,10.479572,-143.911741
