// General information: 
//  MT Manager version: 2022.0.0 
//  XDA version: 2022.0.0 build 7085 rev 119802 built on 2022-11-08
// Device information: 
//  DeviceId: 00B472EC
//  ProductCode: MTW2-3A7G6
//  Firmware Version: 4.4.0
//  Hardware Version: 2.0.0
// Device settings: 
//  Filter Profile: human(46.1)
//  Option Flags: Orientation Smoother Disabled, Position/Velocity Smoother Disabled, Continuous Zero Rotation Update Disabled, AHS Disabled, ICC Disabled
// Coordinate system: ENU
PacketCounter,Acc_X,Acc_Y,Acc_Z,FreeAcc_E,FreeAcc_N,FreeAcc_U,Gyr_X,Gyr_Y,Gyr_Z,VelInc_X,VelInc_Y,VelInc_Z,OriInc_q0,OriInc_q1,OriInc_q2,OriInc_q3,Quat_q0,Quat_q1,Quat_q2,Quat_q3,Roll,Pitch,Yaw
47601,-8.840441,3.887296,-1.252798,0.060512,-0.001347,-0.074602,0.009730,0.007504,-0.007476,-0.088403,0.038877,-0.012523,1.000000,0.000049,0.000038,-0.000037,-0.383392,0.380016,-0.648163,-0.537105,107.680046,64.852822,-169.041504
47602,-8.768519,3.880894,-1.265400,0.035389,-0.020027,-0.140674,0.010430,0.006258,-0.005737,-0.087684,0.038812,-0.012649,1.000000,0.000052,0.000031,-0.000029,-0.383398,0.379988,-0.648196,-0.537081,107.684671,64.850746,-169.042256
47603,-8.799233,3.902974,-1.312200,0.023994,-0.060646,-0.097888,0.004252,0.004140,-0.014098,-0.087990,0.039036,-0.013119,1.000000,0.000021,0.000021,-0.000070,-0.383420,0.379994,-0.648190,-0.537069,107.685559,64.853482,-169.042679
47604,-8.780342,3.905257,-1.298097,0.015296,-0.047783,-0.115885,0.000455,0.009669,-0.004435,-0.087803,0.039055,-0.012977,1.000000,0.000002,0.000048,-0.000022,-0.383393,0.379991,-0.648205,-0.537073,107.688023,64.850222,-169.039382
47605,-8.793653,3.878096,-1.316385,0.044195,-0.068323,-0.112470,-0.003983,0.008401,-0.007943,-0.087936,0.038784,-0.013161,1.000000,-0.000020,0.000042,-0.000040,-0.383369,0.380004,-0.648197,-0.537091,107.686866,64.848856,-169.036853
47606,-8.827649,3.889321,-1.275839,0.051972,-0.023936,-0.082389,-0.005977,0.010647,-0.009563,-0.088275,0.038897,-0.012755,1.000000,-0.000030,0.000053,-0.000048,-0.383340,0.380032,-0.648186,-0.537104,107.688630,64.848181,-169.030303
47607,-8.860229,3.858767,-1.308904,0.090386,-0.057976,-0.060999,-0.004685,0.009647,-0.009680,-0.088601,0.038592,-0.013086,1.000000,-0.000023,0.000048,-0.000048,-0.383315,0.380056,-0.648175,-0.537119,107.689163,64.847546,-169.025462
47608,-8.855350,3.855061,-1.275456,0.094445,-0.025776,-0.071234,0.000853,0.004970,-0.014489,-0.088551,0.038557,-0.012752,1.000000,0.000004,0.000025,-0.000072,-0.383330,0.380072,-0.648163,-0.537111,107.690239,64.850504,-169.024069
47609,-8.850596,3.851107,-1.241907,0.098543,0.006357,-0.081466,0.000852,0.004970,-0.014488,-0.088503,0.038518,-0.012417,1.000000,0.000004,0.000025,-0.000072,-0.383344,0.380087,-0.648149,-0.537107,107.690290,64.853307,-169.023265
47610,-8.822470,3.840729,-1.317569,0.089153,-0.072100,-0.101353,0.003069,0.003650,-0.010382,-0.088223,0.038412,-0.013173,1.000000,0.000015,0.000018,-0.000052,-0.383357,0.380082,-0.648147,-0.537103,107.689458,64.854329,-169.025283
47611,-8.770583,3.851922,-1.307585,0.058233,-0.065105,-0.145082,0.007170,0.001577,-0.008249,-0.087704,0.038523,-0.013074,1.000000,0.000036,0.000008,-0.000041,-0.383377,0.380057,-0.648156,-0.537097,107.686868,64.854318,-169.031394
47612,-8.788824,3.921560,-1.300141,0.003501,-0.046636,-0.101341,0.015823,0.007101,-0.008414,-0.087887,0.039220,-0.012995,1.000000,0.000079,0.000036,-0.000042,-0.383397,0.380030,-0.648200,-0.537049,107.696693,64.853584,-169.029815
47613,-8.783075,3.897154,-1.303950,0.022881,-0.053681,-0.115930,0.010203,0.005339,-0.008213,-0.087829,0.038976,-0.013035,1.000000,0.000051,0.000027,-0.000041,-0.383411,0.380008,-0.648223,-0.537026,107.700202,64.852899,-169.031108
47614,-8.803266,3.913930,-1.282848,0.017920,-0.028588,-0.093588,0.007394,0.006412,-0.010463,-0.088031,0.039144,-0.012824,1.000000,0.000037,0.000032,-0.000052,-0.383423,0.380004,-0.648239,-0.537001,107.705643,64.853490,-169.028985
47615,-8.825332,3.878002,-1.248004,0.062803,0.003004,-0.092659,0.004919,0.006919,-0.006636,-0.088252,0.038783,-0.012476,1.000000,0.000025,0.000035,-0.000033,-0.383417,0.379992,-0.648255,-0.536996,107.707376,64.851669,-169.028896
47616,-8.810904,3.862212,-1.304506,0.066133,-0.056123,-0.104808,-0.003029,0.004056,-0.009434,-0.088107,0.038626,-0.013044,1.000000,-0.000015,0.000020,-0.000047,-0.383414,0.379998,-0.648239,-0.537012,107.703237,64.852173,-169.030632
47617,-8.819944,3.852853,-1.251507,0.082980,-0.004666,-0.107263,0.004840,0.000479,-0.011242,-0.088197,0.038534,-0.012514,1.000000,0.000024,0.000002,-0.000056,-0.383441,0.379983,-0.648233,-0.537010,107.699148,64.853988,-169.036925
47618,-8.826285,3.875426,-1.249269,0.065301,0.001054,-0.092675,0.002109,0.007992,-0.008885,-0.088262,0.038758,-0.012489,1.000000,0.000011,0.000040,-0.000044,-0.383435,0.379985,-0.648240,-0.537004,107.702070,64.853350,-169.034283
47619,-8.793446,3.883702,-1.254266,0.043881,-0.005434,-0.118407,-0.000701,0.005155,-0.006436,-0.087934,0.038840,-0.012541,1.000000,-0.000004,0.000026,-0.000032,-0.383423,0.379978,-0.648238,-0.537020,107.698459,64.851727,-169.036541
47620,-8.801562,3.853717,-1.238409,0.075955,0.006907,-0.125249,0.002109,0.007992,-0.008884,-0.088014,0.038541,-0.012380,1.000000,0.000011,0.000040,-0.000044,-0.383416,0.379983,-0.648245,-0.537013,107.701725,64.851176,-169.033455
47621,-8.812989,3.879208,-1.270384,0.055083,-0.020246,-0.100455,-0.001180,0.007326,-0.005689,-0.088129,0.038795,-0.012701,1.000000,-0.000006,0.000037,-0.000028,-0.383395,0.379980,-0.648247,-0.537029,107.700086,64.848767,-169.033230
47622,-8.824369,3.904850,-1.302217,0.034167,-0.047345,-0.075660,-0.003287,0.007153,-0.006202,-0.088243,0.039051,-0.013020,1.000000,-0.000016,0.000036,-0.000031,-0.383373,0.379983,-0.648243,-0.537046,107.698145,64.846880,-169.032482
47623,-8.794199,3.881217,-1.256678,0.047230,-0.008040,-0.118424,-0.003398,0.008645,-0.009792,-0.087941,0.038816,-0.012564,1.000000,-0.000017,0.000043,-0.000049,-0.383354,0.380001,-0.648234,-0.537058,107.698292,64.846480,-169.028882
47624,-8.827490,3.871513,-1.252878,0.070339,-0.002886,-0.092711,-0.007390,0.009224,-0.008335,-0.088274,0.038718,-0.012526,1.000000,-0.000037,0.000046,-0.000042,-0.383324,0.380025,-0.648218,-0.537082,107.697017,64.845422,-169.024755
47625,-8.827723,3.870798,-1.253447,0.071204,-0.003571,-0.092717,-0.008092,0.010470,-0.010071,-0.088276,0.038712,-0.012531,1.000000,-0.000040,0.000052,-0.000050,-0.383291,0.380058,-0.648199,-0.537105,107.696698,64.844857,-169.018698
47626,-8.827904,3.870227,-1.253934,0.072045,-0.004196,-0.092724,-0.005987,0.006733,-0.004860,-0.088279,0.038704,-0.012538,1.000000,-0.000030,0.000034,-0.000024,-0.383262,0.380059,-0.648191,-0.537134,107.692193,64.842172,-169.019259
47627,-8.814141,3.875542,-1.273577,0.060144,-0.024189,-0.100494,-0.007391,0.009225,-0.008332,-0.088140,0.038759,-0.012733,1.000000,-0.000037,0.000046,-0.000042,-0.383230,0.380082,-0.648175,-0.537161,107.690184,64.840875,-169.015514
47628,-8.822223,3.845647,-1.257597,0.092229,-0.011866,-0.107353,-0.005396,0.006980,-0.006712,-0.088221,0.038459,-0.012574,1.000000,-0.000027,0.000035,-0.000034,-0.383207,0.380090,-0.648164,-0.537185,107.686913,64.839264,-169.014948
47629,-8.835548,3.818346,-1.275546,0.121127,-0.032427,-0.104033,-0.005617,0.006055,-0.009195,-0.088354,0.038187,-0.012754,1.000000,-0.000028,0.000030,-0.000046,-0.383190,0.380103,-0.648145,-0.537210,107.682557,64.838990,-169.014917
47630,-8.848033,3.770119,-1.330565,0.165281,-0.092105,-0.105159,-0.004362,0.012989,-0.008292,-0.088480,0.037705,-0.013301,1.000000,-0.000022,0.000065,-0.000041,-0.383153,0.380128,-0.648148,-0.537216,107.687625,64.836978,-169.006095
47631,-8.821978,3.822764,-1.296483,0.110076,-0.053032,-0.111823,0.009239,0.009690,-0.006704,-0.088219,0.038231,-0.012959,1.000000,0.000046,0.000048,-0.000034,-0.383147,0.380115,-0.648180,-0.537191,107.695082,64.834711,-169.002418
47632,-8.807259,3.901358,-1.293691,0.033115,-0.040376,-0.093669,0.018887,0.002949,-0.009373,-0.088071,0.039019,-0.012932,1.000000,0.000094,0.000015,-0.000047,-0.383190,0.380074,-0.648222,-0.537138,107.702207,64.835236,-169.005787
47633,-8.822276,3.915467,-1.238805,0.031490,0.017429,-0.081460,0.016520,0.005871,-0.006655,-0.088222,0.039159,-0.012382,1.000000,0.000083,0.000029,-0.000033,-0.383209,0.380037,-0.648267,-0.537097,107.709378,64.833608,-169.007034
47634,-8.756347,3.932754,-1.248571,-0.012335,0.005291,-0.132867,0.010421,0.006274,-0.005713,-0.087563,0.039331,-0.012481,1.000000,0.000052,0.000031,-0.000029,-0.383215,0.380011,-0.648300,-0.537071,107.714516,64.831598,-169.007200
47635,-8.789682,3.922911,-1.244847,0.010849,0.010380,-0.107165,0.008244,-0.000340,-0.010834,-0.087895,0.039234,-0.012447,1.000000,0.000041,-0.000002,-0.000054,-0.383250,0.379986,-0.648302,-0.537061,107.711281,64.833333,-169.014706
47636,-8.803109,3.895249,-1.263040,0.039696,-0.010137,-0.103863,-0.001185,0.011237,-0.010379,-0.088030,0.038957,-0.012626,1.000000,-0.000006,0.000056,-0.000052,-0.383230,0.380010,-0.648304,-0.537056,107.716722,64.833033,-169.007117
47637,-8.813722,3.899692,-1.331997,0.034108,-0.076495,-0.083531,-0.005178,0.011814,-0.008924,-0.088136,0.039001,-0.013316,1.000000,-0.000026,0.000059,-0.000045,-0.383195,0.380037,-0.648297,-0.537070,107.719205,64.831607,-168.999809
47638,-8.836654,3.884573,-1.260345,0.063681,-0.005682,-0.078174,-0.002810,0.008892,-0.011638,-0.088365,0.038851,-0.012600,1.000000,-0.000014,0.000044,-0.000058,-0.383184,0.380063,-0.648287,-0.537072,107.721660,64.832519,-168.994339
47639,-8.830922,3.860166,-1.263657,0.083027,-0.012713,-0.092819,-0.008909,0.009294,-0.010698,-0.088308,0.038606,-0.012634,1.000000,-0.000045,0.000046,-0.000053,-0.383155,0.380097,-0.648262,-0.537099,107.719736,64.832501,-168.989538
47640,-8.823384,3.888585,-1.280486,0.052581,-0.026282,-0.085952,-0.002438,0.004304,-0.011278,-0.088232,0.038891,-0.012803,1.000000,-0.000012,0.000022,-0.000056,-0.383157,0.380108,-0.648246,-0.537109,107.717032,64.833896,-168.990185
47641,-8.765604,3.876297,-1.272810,0.040031,-0.025524,-0.144219,-0.006169,0.001783,-0.013054,-0.087654,0.038768,-0.012729,1.000000,-0.000031,0.000009,-0.000065,-0.383164,0.380124,-0.648209,-0.537137,107.708828,64.836473,-168.994057
47642,-8.798963,3.866485,-1.268685,0.063172,-0.020415,-0.118533,-0.003293,0.007153,-0.006195,-0.087989,0.038667,-0.012684,1.000000,-0.000016,0.000036,-0.000031,-0.383143,0.380127,-0.648205,-0.537155,107.706610,64.834662,-168.993498
47643,-8.798275,3.845029,-1.305935,0.079285,-0.060282,-0.123031,-0.004808,0.007225,-0.008561,-0.087982,0.038454,-0.013057,1.000000,-0.000024,0.000036,-0.000043,-0.383123,0.380140,-0.648191,-0.537177,107.703841,64.833838,-168.992226
47644,-8.793340,3.841688,-1.272362,0.083320,-0.028070,-0.133196,-0.000113,0.005405,-0.008279,-0.087932,0.038421,-0.012721,1.000000,-0.000001,0.000027,-0.000041,-0.383119,0.380139,-0.648188,-0.537184,107.702399,64.833408,-168.992924
47645,-8.859683,3.822822,-1.264300,0.128872,-0.017258,-0.081834,0.004691,0.006003,-0.009101,-0.088595,0.038233,-0.012639,1.000000,0.000023,0.000030,-0.000046,-0.383122,0.380133,-0.648197,-0.537176,107.703854,64.833092,-168.993000
47646,-8.839016,3.878059,-1.263838,0.070407,-0.010939,-0.078225,0.004099,0.005756,-0.007249,-0.088389,0.038784,-0.012635,1.000000,0.000020,0.000029,-0.000036,-0.383122,0.380121,-0.648209,-0.537170,107.705021,64.831981,-168.993597
47647,-8.817386,3.912633,-1.300064,0.027231,-0.043869,-0.079112,-0.004589,0.008150,-0.006077,-0.088173,0.039129,-0.012998,1.000000,-0.000023,0.000041,-0.000030,-0.383092,0.380128,-0.648202,-0.537194,107.702531,64.829641,-168.992155
47648,-8.801173,3.883345,-1.235007,0.052938,0.014841,-0.114067,-0.013826,0.006275,-0.008767,-0.088010,0.038836,-0.012350,1.000000,-0.000069,0.000031,-0.000044,-0.383060,0.380159,-0.648162,-0.537243,107.694395,64.829465,-168.991381
47649,-8.831794,3.905658,-1.281098,0.041678,-0.025900,-0.071355,-0.019334,0.006922,-0.009678,-0.088316,0.039060,-0.012812,1.000000,-0.000097,0.000035,-0.000048,-0.383017,0.380203,-0.648106,-0.537310,107.683366,64.829304,-168.990039
47650,-8.814790,3.855485,-1.252088,0.082644,-0.006342,-0.110824,-0.017773,-0.001083,-0.008334,-0.088146,0.038557,-0.012525,1.000000,-0.000089,-0.000005,-0.000042,-0.383000,0.380219,-0.648044,-0.537385,107.664603,64.830022,-168.998759
47651,-8.782115,3.863960,-1.255630,0.061148,-0.012758,-0.136508,-0.021878,0.000986,-0.010464,-0.087819,0.038643,-0.012560,1.000000,-0.000109,0.000005,-0.000052,-0.382972,0.380254,-0.647969,-0.537471,107.645509,64.831321,-169.004717
47652,-8.773576,3.872063,-1.308476,0.045926,-0.065527,-0.134143,-0.018898,0.008773,-0.004706,-0.087735,0.038721,-0.013085,1.000000,-0.000094,0.000044,-0.000024,-0.382912,0.380288,-0.647928,-0.537539,107.635869,64.828471,-169.002424
47653,-8.787570,3.866045,-1.289394,0.059580,-0.046919,-0.126384,-0.016793,0.008948,-0.004190,-0.087875,0.038661,-0.012893,1.000000,-0.000084,0.000045,-0.000021,-0.382851,0.380315,-0.647894,-0.537605,107.626624,64.824962,-169.000721
47654,-8.787583,3.865920,-1.289677,0.060398,-0.047543,-0.126392,-0.010474,0.009475,-0.002646,-0.087876,0.038660,-0.012895,1.000000,-0.000052,0.000047,-0.000013,-0.382799,0.380326,-0.647882,-0.537648,107.621939,64.820711,-168.998545
47655,-8.839770,3.853426,-1.300597,0.093202,-0.056061,-0.082829,-0.008102,0.006557,-0.005363,-0.088397,0.038536,-0.013005,1.000000,-0.000041,0.000033,-0.000027,-0.382767,0.380333,-0.647865,-0.537687,107.615329,64.818257,-168.999432
47656,-8.848616,3.844671,-1.247631,0.110027,-0.004557,-0.085203,-0.004590,0.004239,-0.001381,-0.088486,0.038447,-0.012475,1.000000,-0.000023,0.000021,-0.000007,-0.382739,0.380316,-0.647861,-0.537724,107.607454,64.814313,-169.004358
47657,-8.801731,3.859363,-1.271173,0.075723,-0.030247,-0.118649,0.005071,-0.002494,-0.004054,-0.088016,0.038596,-0.012712,1.000000,0.000025,-0.000012,-0.000020,-0.382757,0.380270,-0.647863,-0.537741,107.597401,64.812713,-169.017390
47658,-8.808928,3.903160,-1.231872,0.042832,0.014660,-0.099432,0.006097,0.003518,-0.005626,-0.088088,0.039034,-0.012316,1.000000,0.000030,0.000018,-0.000028,-0.382763,0.380245,-0.647878,-0.537736,107.596618,64.811254,-169.021193
47659,-8.809052,3.902733,-1.232338,0.043698,0.013978,-0.099435,0.007504,0.001025,-0.002159,-0.088090,0.039029,-0.012321,1.000000,0.000038,0.000005,-0.000011,-0.382769,0.380197,-0.647898,-0.537742,107.591350,64.808009,-169.030479
47660,-8.781255,3.914178,-1.270970,0.018907,-0.025205,-0.114976,0.001995,0.001671,-0.003070,-0.087812,0.039143,-0.012709,1.000000,0.000010,0.000008,-0.000015,-0.382767,0.380166,-0.647904,-0.537758,107.585044,64.805396,-169.037906
47661,-8.800445,3.910702,-1.286025,0.029352,-0.039456,-0.097088,-0.006104,0.004312,-0.003747,-0.088004,0.039108,-0.012860,1.000000,-0.000031,0.000022,-0.000019,-0.382741,0.380158,-0.647890,-0.537799,107.576383,64.802448,-169.042325
47662,-8.803240,3.878437,-1.235699,0.064625,0.005744,-0.114128,-0.009506,0.005134,-0.004144,-0.088032,0.038786,-0.012357,1.000000,-0.000048,0.000026,-0.000021,-0.382708,0.380162,-0.647870,-0.537843,107.568124,64.799846,-169.044619
47663,-8.874582,3.862604,-1.261416,0.107044,-0.016376,-0.052700,-0.011398,0.009797,-0.006861,-0.088745,0.038628,-0.012612,1.000000,-0.000057,0.000049,-0.000034,-0.382662,0.380190,-0.647847,-0.537885,107.563944,64.797650,-169.040735
47664,-8.841759,3.871081,-1.266043,0.085464,-0.022710,-0.078366,-0.009026,0.006880,-0.009577,-0.088416,0.038714,-0.012659,1.000000,-0.000045,0.000034,-0.000048,-0.382640,0.380215,-0.647820,-0.537915,107.559673,64.797725,-169.038883
47665,-8.848881,3.820316,-1.286752,0.132804,-0.049630,-0.089872,-0.013506,0.009622,-0.007373,-0.088488,0.038206,-0.012866,1.000000,-0.000068,0.000048,-0.000037,-0.382592,0.380247,-0.647790,-0.537963,107.554270,64.795839,-169.035015
47666,-8.816053,3.828836,-1.291275,0.111219,-0.055954,-0.115540,-0.002329,0.002818,-0.007681,-0.088159,0.038292,-0.012912,1.000000,-0.000012,0.000014,-0.000038,-0.382591,0.380242,-0.647777,-0.537982,107.548471,64.795552,-169.039165
47667,-8.841391,3.848620,-1.303803,0.103231,-0.063885,-0.082978,0.005020,0.005441,-0.003023,-0.088414,0.038488,-0.013035,1.000000,0.000025,0.000027,-0.000015,-0.382580,0.380213,-0.647797,-0.537986,107.547234,64.792013,-169.042424
47668,-8.815528,3.901566,-1.268987,0.047959,-0.024710,-0.089356,0.007286,0.000104,-0.004640,-0.088154,0.039018,-0.012688,1.000000,0.000036,0.000001,-0.000023,-0.382597,0.380174,-0.647810,-0.537986,107.542495,64.790691,-169.051190
47669,-8.763642,3.913252,-1.258628,0.016833,-0.017505,-0.132888,0.007068,-0.000819,-0.007122,-0.087635,0.039136,-0.012585,1.000000,0.000035,-0.000004,-0.000036,-0.382622,0.380139,-0.647815,-0.537988,107.536671,64.790472,-169.060815
47670,-8.790867,3.879922,-1.257430,0.058513,-0.018746,-0.121945,0.007174,0.001601,-0.008222,-0.087907,0.038803,-0.012572,1.000000,0.000036,0.000008,-0.000041,-0.382644,0.380111,-0.647827,-0.537977,107.535181,64.790481,-169.066600
47671,-8.796217,3.881971,-1.291909,0.056158,-0.052285,-0.111849,0.006800,0.002275,-0.003889,-0.087962,0.038822,-0.012917,1.000000,0.000034,0.000011,-0.000019,-0.382649,0.380073,-0.647844,-0.537979,107.531610,64.787961,-169.073566
47672,-8.791189,3.878884,-1.258384,0.060205,-0.020042,-0.121958,0.008906,0.002451,-0.003374,-0.087911,0.038791,-0.012581,1.000000,0.000045,0.000012,-0.000017,-0.382659,0.380030,-0.647871,-0.537971,107.530239,64.785259,-169.080149
47673,-8.811400,3.895913,-1.237124,0.055450,0.004875,-0.099486,0.012197,0.003127,-0.006559,-0.088113,0.038963,-0.012367,1.000000,0.000061,0.000016,-0.000033,-0.382679,0.379993,-0.647899,-0.537949,107.531729,64.784051,-169.084940
47674,-8.835788,3.894829,-1.286514,0.062623,-0.042210,-0.071524,0.003291,0.000676,-0.003185,-0.088357,0.038950,-0.012864,1.000000,0.000016,0.000003,-0.000016,-0.382683,0.379958,-0.647905,-0.537964,107.524855,64.781788,-169.093600
47675,-8.849816,3.888681,-1.267621,0.076307,-0.023623,-0.063761,-0.001893,0.004663,-0.002717,-0.088498,0.038888,-0.012675,1.000000,-0.000009,0.000023,-0.000014,-0.382661,0.379940,-0.647905,-0.537992,107.518648,64.778215,-169.097975
47676,-8.824774,3.868045,-1.255604,0.085943,-0.016964,-0.096347,-0.005838,0.001216,-0.006978,-0.088246,0.038683,-0.012557,1.000000,-0.000029,0.000006,-0.000035,-0.382656,0.379935,-0.647882,-0.538027,107.508940,64.777825,-169.104263
47677,-8.793049,3.897231,-1.223017,0.049180,0.015861,-0.117368,0.000044,-0.000102,-0.010396,-0.087928,0.038977,-0.012230,1.000000,0.000000,-0.000001,-0.000052,-0.382673,0.379925,-0.647863,-0.538043,107.501128,64.779269,-169.111639
47678,-8.773244,3.879037,-1.245008,0.055613,-0.010334,-0.139861,-0.001408,0.002493,-0.003466,-0.087732,0.038792,-0.012449,1.000000,-0.000007,0.000012,-0.000017,-0.382663,0.379902,-0.647863,-0.538068,107.494110,64.776601,-169.118003
47679,-8.752557,3.934795,-1.243880,-0.002797,-0.004042,-0.136062,-0.003514,0.002316,-0.003980,-0.087525,0.039349,-0.012438,1.000000,-0.000018,0.000012,-0.000020,-0.382649,0.379885,-0.647852,-0.538103,107.484719,64.774121,-169.124871
47680,-8.754468,3.881485,-1.230381,0.047682,0.001959,-0.157730,0.001072,0.001996,-0.007282,-0.087543,0.038818,-0.012303,1.000000,0.000005,0.000010,-0.000036,-0.382656,0.379869,-0.647848,-0.538114,107.479666,64.773728,-169.130398
47681,-8.798817,3.898279,-1.257631,0.049334,-0.019595,-0.107298,-0.009074,0.006976,0.000820,-0.087989,0.038982,-0.012575,1.000000,-0.000045,0.000035,0.000004,-0.382603,0.379859,-0.647840,-0.538168,107.470745,64.767823,-169.133226
47682,-8.826712,3.886440,-1.219549,0.075796,0.018299,-0.091757,0.003291,0.000677,-0.003184,-0.088267,0.038866,-0.012195,1.000000,0.000016,0.000003,-0.000016,-0.382608,0.379822,-0.647847,-0.538183,107.463806,64.765433,-169.142208
47683,-8.819628,3.841951,-1.259599,0.110283,-0.027888,-0.111137,0.003938,0.007363,-0.000422,-0.088197,0.038420,-0.012592,1.000000,0.000020,0.000037,-0.000002,-0.382582,0.379793,-0.647873,-0.538191,107.463245,64.760139,-169.144036
47684,-8.798766,3.897939,-1.259036,0.051839,-0.021527,-0.107316,0.009827,0.002131,0.000843,-0.087988,0.038980,-0.012588,1.000000,0.000049,0.000011,0.000004,-0.382583,0.379733,-0.647909,-0.538188,107.460557,64.755199,-169.152682
47685,-8.804787,3.921445,-1.256861,0.034288,-0.015891,-0.092591,0.012637,0.001061,0.003091,-0.088049,0.039214,-0.012566,1.000000,0.000063,0.000005,0.000015,-0.382584,0.379658,-0.647953,-0.538188,107.456397,64.749069,-169.163999
47686,-8.807447,3.889416,-1.206815,0.069568,0.029298,-0.109627,0.006101,-0.000393,-0.000936,-0.088074,0.038895,-0.012067,1.000000,0.000031,-0.000002,-0.000005,-0.382592,0.379605,-0.647970,-0.538199,107.449192,64.745584,-169.175201
47687,-8.817692,3.894641,-1.275211,0.064001,-0.037120,-0.089488,-0.001676,0.005586,-0.000235,-0.088177,0.038946,-0.012750,1.000000,-0.000008,0.000028,-0.000001,-0.382560,0.379581,-0.647978,-0.538229,107.443292,64.740493,-169.179374
47688,-8.812554,3.891842,-1.241710,0.068017,-0.004877,-0.099566,0.000318,0.007259,-0.003302,-0.088125,0.038920,-0.012414,1.000000,0.000002,0.000036,-0.000017,-0.382538,0.379569,-0.647989,-0.538240,107.442553,64.737102,-169.179544
47689,-8.798612,3.897523,-1.261400,0.056051,-0.024819,-0.107347,-0.010482,0.009469,-0.002648,-0.087986,0.038976,-0.012612,1.000000,-0.000052,0.000047,-0.000013,-0.382484,0.379580,-0.647975,-0.538287,107.436986,64.732664,-169.177772
47690,-8.803730,3.900048,-1.295859,0.053617,-0.058312,-0.097287,-0.004487,0.006656,-0.002483,-0.088037,0.039001,-0.012957,1.000000,-0.000022,0.000033,-0.000012,-0.382451,0.379575,-0.647973,-0.538317,107.432547,64.729033,-169.178757
47691,-8.804594,3.921022,-1.259531,0.039290,-0.019809,-0.092617,-0.009344,0.010070,0.004049,-0.088047,0.039208,-0.012593,1.000000,-0.000047,0.000050,0.000020,-0.382379,0.379563,-0.647976,-0.538372,107.425895,64.720830,-169.178906
47692,-8.796653,3.950478,-1.276336,0.008868,-0.033380,-0.085652,-0.015398,0.010362,-0.005410,-0.087966,0.039506,-0.012762,1.000000,-0.000077,0.000052,-0.000027,-0.382323,0.379595,-0.647948,-0.538424,107.420427,64.717957,-169.174510
47693,-8.811366,3.870753,-1.280647,0.087404,-0.047359,-0.104285,-0.015992,0.010113,-0.003559,-0.088114,0.038708,-0.012805,1.000000,-0.000080,0.000051,-0.000018,-0.382258,0.379621,-0.647919,-0.538486,107.412781,64.713906,-169.171545
47694,-8.818487,3.914988,-1.241313,0.054628,-0.002465,-0.084856,-0.015289,0.008866,-0.001825,-0.088185,0.039150,-0.012412,1.000000,-0.000076,0.000044,-0.000009,-0.382197,0.379637,-0.647896,-0.538546,107.404666,64.709319,-169.170224
47695,-8.803505,3.900074,-1.297307,0.057844,-0.061588,-0.097331,-0.016909,0.006520,-0.003089,-0.088035,0.039001,-0.012973,1.000000,-0.000085,0.000033,-0.000015,-0.382141,0.379654,-0.647858,-0.538619,107.392169,64.705627,-169.172043
47696,-8.750463,3.891347,-1.323729,0.041751,-0.093420,-0.145476,0.002207,0.006515,-0.005264,-0.087504,0.038916,-0.013234,1.000000,0.000011,0.000033,-0.000026,-0.382130,0.379642,-0.647870,-0.538622,107.392235,64.703382,-169.172608
47697,-8.718518,4.016008,-1.231948,-0.075046,0.011191,-0.135249,0.032412,-0.004011,0.017728,-0.087188,0.040154,-0.012315,1.000000,0.000162,-0.000020,0.000089,-0.382146,0.379468,-0.647985,-0.538594,107.388280,64.690112,-169.196237
47698,-8.757747,4.059484,-1.029746,-0.078067,0.218750,-0.107844,0.007203,-0.021898,0.019872,-0.087580,0.040587,-0.010306,1.000000,0.000036,-0.000109,0.000099,-0.382169,0.379290,-0.648002,-0.538683,107.349270,64.679092,-169.242956
47699,-8.740771,3.836212,-1.241048,0.100321,-0.023024,-0.187345,-0.043903,0.006174,0.005570,-0.087409,0.038357,-0.012416,1.000000,-0.000220,0.000031,0.000028,-0.382040,0.379329,-0.647907,-0.538861,107.317795,64.670723,-169.248661
47700,-8.936981,3.733813,-1.447504,0.259014,-0.225318,-0.025532,-0.022209,0.026378,-0.000547,-0.089372,0.037337,-0.014467,1.000000,-0.000111,0.000132,-0.000003,-0.381905,0.379403,-0.647899,-0.538914,107.325236,64.662561,-169.225452
47701,-8.963014,3.774813,-1.423985,0.235941,-0.194141,0.011732,0.011825,0.003803,-0.002220,-0.089630,0.037750,-0.014236,1.000000,0.000059,0.000019,-0.000011,-0.381910,0.379355,-0.647936,-0.538900,107.325764,64.658857,-169.231076
47702,-8.840652,3.829637,-1.193403,0.155024,0.031102,-0.105862,0.014471,-0.002207,-0.008170,-0.088405,0.038301,-0.011932,1.000000,0.000072,-0.000011,-0.000041,-0.381958,0.379306,-0.647958,-0.538875,107.323798,64.659743,-169.241567
47703,-8.851509,3.928469,-1.201949,0.069483,0.036398,-0.054582,-0.004924,0.008730,-0.012124,-0.088513,0.039290,-0.012017,1.000000,-0.000025,0.000044,-0.000061,-0.381943,0.379335,-0.647940,-0.538887,107.323990,64.660615,-169.236946
47704,-8.808280,3.997938,-1.273459,-0.017901,-0.028607,-0.056158,0.000262,0.004743,-0.012593,-0.088081,0.039985,-0.012732,1.000000,0.000001,0.000024,-0.000063,-0.381952,0.379348,-0.647927,-0.538886,107.323747,64.662857,-169.236253
47705,-8.765448,4.000812,-1.209676,-0.033092,0.030852,-0.101825,-0.000649,-0.002768,-0.007447,-0.087653,0.040011,-0.012098,1.000000,-0.000003,-0.000014,-0.000037,-0.381969,0.379323,-0.647907,-0.538915,107.311420,64.663132,-169.248192
47706,-8.740622,3.979905,-1.197069,-0.023530,0.037564,-0.134407,-0.015071,-0.000662,-0.009672,-0.087404,0.039802,-0.011974,1.000000,-0.000075,-0.000003,-0.000048,-0.381961,0.379339,-0.647851,-0.538978,107.295053,64.664505,-169.256053
47707,-8.733659,3.935279,-1.236435,0.010891,-0.008603,-0.153919,-0.020696,0.011930,-0.003833,-0.087337,0.039353,-0.012363,1.000000,-0.000103,0.000060,-0.000019,-0.381882,0.379379,-0.647812,-0.539052,107.286924,64.660297,-169.250641
47708,-8.823987,3.916313,-1.276772,0.063094,-0.044516,-0.074904,-0.030254,0.006708,-0.007909,-0.088239,0.039165,-0.012771,1.000000,-0.000151,0.000034,-0.000040,-0.381816,0.379440,-0.647731,-0.539154,107.269752,64.659549,-169.249523
47709,-8.829352,3.918570,-1.310274,0.060751,-0.078081,-0.064883,-0.035068,0.010025,-0.011763,-0.088292,0.039189,-0.013105,1.000000,-0.000175,0.000050,-0.000059,-0.381738,0.379529,-0.647635,-0.539262,107.254037,64.660006,-169.243392
47710,-8.802796,3.950668,-1.310912,0.020691,-0.078022,-0.075697,-0.036091,0.004011,-0.010197,-0.088026,0.039509,-0.013114,1.000000,-0.000180,0.000020,-0.000051,-0.381676,0.379598,-0.647529,-0.539384,107.230954,64.660873,-169.245327
47711,-8.803165,3.950339,-1.309430,0.021558,-0.078703,-0.075705,-0.050731,0.001277,-0.010214,-0.088030,0.039505,-0.013104,1.000000,-0.000254,0.000006,-0.000051,-0.381592,0.379688,-0.647376,-0.539563,107.195600,64.661968,-169.250997
47712,-8.777235,3.909460,-1.331740,0.046261,-0.111152,-0.113060,-0.067966,-0.003385,-0.005309,-0.087771,0.039092,-0.013332,1.000000,-0.000340,-0.000017,-0.000027,-0.381479,0.379785,-0.647180,-0.539811,107.144426,64.661453,-169.263723
47713,-8.776578,3.889006,-1.365322,0.062291,-0.151015,-0.117838,-0.070131,-0.009986,-0.010428,-0.087763,0.038890,-0.013671,1.000000,-0.000351,-0.000050,-0.000052,-0.381395,0.379882,-0.646953,-0.540073,107.085002,64.664560,-169.283725
47714,-8.792662,3.830338,-1.329423,0.125547,-0.125751,-0.131872,-0.066198,-0.006542,-0.006144,-0.087925,0.038302,-0.013310,1.000000,-0.000331,-0.000033,-0.000031,-0.381298,0.379970,-0.646752,-0.540320,107.031304,64.665091,-169.300199
47715,-8.820825,3.818934,-1.288007,0.152129,-0.087949,-0.116333,-0.047165,-0.016817,0.002103,-0.088208,0.038185,-0.012896,1.000000,-0.000236,-0.000084,0.000011,-0.381247,0.379964,-0.646599,-0.540545,106.972686,64.662459,-169.333868
47716,-8.825498,3.895890,-1.295294,0.084930,-0.088910,-0.079751,-0.037872,-0.018944,-0.000928,-0.088254,0.038957,-0.012969,1.000000,-0.000189,-0.000095,-0.000005,-0.381229,0.379949,-0.646460,-0.540734,106.919049,64.662277,-169.368066
47717,-8.801606,3.896642,-1.243102,0.079358,-0.043055,-0.107573,-0.033275,-0.023183,0.000439,-0.088015,0.038964,-0.012448,1.000000,-0.000166,-0.000116,0.000002,-0.381229,0.379905,-0.646328,-0.540922,106.861617,64.661589,-169.409229
47718,-8.808080,3.920363,-1.237010,0.061785,-0.037348,-0.092785,-0.021871,-0.025136,-0.002089,-0.088079,0.039203,-0.012385,1.000000,-0.000109,-0.000126,-0.000010,-0.381265,0.379845,-0.646220,-0.541068,106.810700,64.662915,-169.450884
47719,-8.817302,3.911614,-1.180613,0.078727,0.014098,-0.095023,-0.027494,-0.026911,-0.001890,-0.088171,0.039115,-0.011823,1.000000,-0.000137,-0.000135,-0.000009,-0.381293,0.379788,-0.646092,-0.541240,106.753075,64.664088,-169.495925
47720,-8.783677,3.900294,-1.218453,0.072184,-0.031277,-0.125391,-0.019279,-0.027126,-0.002327,-0.087835,0.039003,-0.012200,1.000000,-0.000096,-0.000136,-0.000012,-0.381342,0.379715,-0.645988,-0.541381,106.701149,64.665734,-169.540578
47721,-8.796321,3.947235,-1.209867,0.036321,-0.019361,-0.095794,-0.009930,-0.022832,-0.000744,-0.087962,0.039472,-0.012111,1.000000,-0.000050,-0.000114,-0.000004,-0.381388,0.379632,-0.645918,-0.541491,106.657911,64.665574,-169.580835
47722,-8.814067,3.997208,-1.235135,-0.002779,-0.040263,-0.056183,-0.024686,-0.027985,0.000363,-0.088139,0.039970,-0.012369,1.000000,-0.000123,-0.000140,0.000002,-0.381423,0.379556,-0.645804,-0.541655,106.600943,64.665749,-169.627950
47723,-8.827699,4.065005,-1.188528,-0.053784,0.010832,-0.021767,-0.056171,-0.021757,-0.003722,-0.088275,0.040648,-0.011906,1.000000,-0.000281,-0.000109,-0.000019,-0.381386,0.379573,-0.645605,-0.541907,106.533485,64.667014,-169.665691
47724,-8.860219,4.035731,-1.216240,-0.015267,-0.023378,-0.001007,-0.084896,-0.026954,-0.005513,-0.088599,0.040355,-0.012191,1.000000,-0.000424,-0.000135,-0.000028,-0.381319,0.379636,-0.645318,-0.542252,106.445312,64.670242,-169.709051
47725,-8.839862,3.998318,-1.268957,0.006253,-0.088770,-0.028412,-0.109425,-0.027861,-0.010925,-0.088395,0.039981,-0.012724,1.000000,-0.000547,-0.000139,-0.000055,-0.381220,0.379761,-0.644949,-0.542673,106.342695,64.676404,-169.751930
47726,-8.730257,4.000076,-1.243412,-0.038968,-0.079500,-0.129907,-0.122593,-0.030659,-0.008478,-0.087299,0.039997,-0.012472,1.000000,-0.000613,-0.000153,-0.000042,-0.381100,0.379896,-0.644545,-0.543142,106.229417,64.681923,-169.798779
47727,-8.733410,3.968548,-1.185779,-0.003663,-0.034341,-0.146938,-0.120176,-0.031075,-0.001854,-0.087332,0.039679,-0.011895,1.000000,-0.000601,-0.000155,-0.000009,-0.380966,0.380004,-0.644157,-0.543621,106.113774,64.683535,-169.849249
47728,-8.733946,3.969780,-1.177679,-0.002857,-0.034948,-0.146940,-0.146146,-0.033386,-0.005968,-0.087336,0.039692,-0.011820,1.000000,-0.000731,-0.000167,-0.000030,-0.380803,0.380169,-0.643688,-0.544175,105.982935,64.688028,-169.900580
47729,-8.752470,3.854000,-1.282654,0.102698,-0.160188,-0.165510,-0.141430,-0.024834,-0.005654,-0.087522,0.038533,-0.012865,1.000000,-0.000707,-0.000124,-0.000028,-0.380618,0.380345,-0.643247,-0.544703,105.863621,64.690659,-169.941638
47730,-8.856400,3.810382,-1.333568,0.183053,-0.216178,-0.083710,-0.113895,-0.034486,-0.005889,-0.088561,0.038099,-0.013373,1.000000,-0.000569,-0.000172,-0.000029,-0.380519,0.380447,-0.642862,-0.545155,105.750045,64.695267,-169.994088
47731,-8.871829,3.825342,-1.270267,0.181659,-0.158441,-0.071124,-0.082378,-0.040739,-0.001921,-0.088715,0.038249,-0.012736,1.000000,-0.000412,-0.000204,-0.000010,-0.380487,0.380456,-0.642558,-0.545530,105.644751,64.698236,-170.057061
47732,-8.834413,3.925571,-1.171935,0.083264,-0.059978,-0.075138,-0.070796,-0.052126,-0.002016,-0.088341,0.039252,-0.011756,1.000000,-0.000354,-0.000261,-0.000010,-0.380516,0.380414,-0.642265,-0.545884,105.534044,64.703278,-170.133846
47733,-8.815076,3.909129,-1.186778,0.089611,-0.086165,-0.097759,-0.073516,-0.052554,-0.000629,-0.088148,0.039087,-0.011905,1.000000,-0.000368,-0.000263,-0.000003,-0.380535,0.380369,-0.641965,-0.546255,105.419559,64.707237,-170.212596
47734,-8.801189,3.989347,-1.173754,0.012834,-0.073455,-0.078832,-0.070446,-0.056701,-0.001638,-0.088008,0.039890,-0.011777,1.000000,-0.000352,-0.000284,-0.000008,-0.380579,0.380311,-0.641665,-0.546617,105.303366,64.712592,-170.295773
47735,-8.801900,3.990120,-1.165766,0.013712,-0.074125,-0.078838,-0.067254,-0.062377,0.000919,-0.088016,0.039897,-0.011699,1.000000,-0.000336,-0.000312,0.000005,-0.380637,0.380222,-0.641365,-0.546989,105.180415,64.717036,-170.387848
47736,-8.771223,4.040394,-1.087220,-0.038299,-0.001929,-0.094678,-0.069007,-0.067128,0.000775,-0.087709,0.040400,-0.010916,1.000000,-0.000345,-0.000336,0.000004,-0.380711,0.380124,-0.641054,-0.547371,105.051660,64.722466,-170.485807
47737,-8.700384,4.056818,-1.053062,-0.079333,0.019208,-0.155735,-0.082705,-0.063813,0.009793,-0.087002,0.040560,-0.010575,1.000000,-0.000414,-0.000319,0.000049,-0.380720,0.380033,-0.640726,-0.547812,104.915320,64.722034,-170.582893
47738,-8.746629,4.116147,-0.996004,-0.107784,0.075925,-0.095650,-0.088746,-0.060981,0.009768,-0.087465,0.041153,-0.010005,1.000000,-0.000444,-0.000305,0.000049,-0.380710,0.379962,-0.640388,-0.548262,104.780086,64.721433,-170.675386
47739,-8.766675,4.135229,-0.964025,-0.112359,0.100766,-0.073013,-0.117503,-0.059734,0.012912,-0.087667,0.041341,-0.009691,1.000000,-0.000588,-0.000299,0.000065,-0.380631,0.379938,-0.639978,-0.548812,104.627648,64.718477,-170.768227
47740,-8.747729,4.047122,-1.001685,-0.041381,0.042144,-0.122391,-0.129393,-0.045244,0.006053,-0.087476,0.040462,-0.010063,1.000000,-0.000647,-0.000226,0.000030,-0.380504,0.379998,-0.639553,-0.549355,104.488753,64.717375,-170.839268
47741,-8.780836,4.039803,-0.988416,-0.017933,0.047020,-0.096849,-0.130879,-0.038746,0.008452,-0.087808,0.040388,-0.009928,1.000000,-0.000654,-0.000194,0.000042,-0.380345,0.380070,-0.639137,-0.549899,104.354704,64.713703,-170.903300
47742,-8.793088,4.088658,-0.972762,-0.053792,0.058975,-0.067154,-0.131021,-0.041159,0.009608,-0.087931,0.040876,-0.009772,1.000000,-0.000655,-0.000206,0.000048,-0.380191,0.380134,-0.638719,-0.550446,104.218297,64.710027,-170.970168
47743,-8.742163,4.142604,-0.878154,-0.115423,0.144828,-0.100662,-0.146365,-0.044110,0.011729,-0.087422,0.041414,-0.008831,1.000000,-0.000732,-0.000221,0.000059,-0.380010,0.380210,-0.638256,-0.551056,104.068156,64.705153,-171.042189
47744,-8.588352,4.075058,-0.812743,-0.112296,0.181985,-0.274307,-0.161190,-0.034939,0.018885,-0.085886,0.040736,-0.008175,1.000000,-0.000806,-0.000175,0.000094,-0.379752,0.380321,-0.637782,-0.551705,103.919191,64.695386,-171.103588
47745,-8.585781,4.019326,-0.916143,-0.066042,0.063785,-0.288954,-0.157534,-0.020593,0.027606,-0.085862,0.040174,-0.009202,1.000000,-0.000788,-0.000103,0.000138,-0.379430,0.380432,-0.637362,-0.552335,103.785820,64.678297,-171.149991
47746,-8.642808,4.035106,-0.915625,-0.051273,0.061324,-0.230820,-0.127854,-0.018361,0.044797,-0.086436,0.040326,-0.009190,1.000000,-0.000639,-0.000092,0.000224,-0.379113,0.380437,-0.637064,-0.552893,103.668213,64.651471,-171.198640
47747,-8.626741,4.283813,-0.971946,-0.279818,0.021119,-0.136033,-0.110499,-0.025702,0.064012,-0.086280,0.042805,-0.009754,1.000000,-0.000552,-0.000129,0.000320,-0.378796,0.380328,-0.636833,-0.553451,103.545696,64.614713,-171.262876
47748,-8.591660,4.431537,-0.830547,-0.411606,0.165073,-0.119996,-0.115438,-0.036700,0.075333,-0.085932,0.044278,-0.008347,1.000000,-0.000577,-0.000183,0.000377,-0.378476,0.380161,-0.636591,-0.554063,103.405266,64.573269,-171.344517
47749,-8.459168,4.461866,-0.752463,-0.481767,0.227359,-0.234161,-0.147505,-0.025763,0.082042,-0.084609,0.044578,-0.007568,1.000000,-0.000738,-0.000129,0.000410,-0.378039,0.380064,-0.636291,-0.554772,103.257059,64.526335,-171.413766
47750,-8.480873,4.379627,-0.855871,-0.394665,0.108498,-0.238174,-0.176782,-0.008022,0.092140,-0.084829,0.043750,-0.008601,1.000000,-0.000884,-0.000040,0.000461,-0.377462,0.380042,-0.635964,-0.555554,103.111771,64.471626,-171.461756
47751,-8.437391,4.375681,-0.855583,-0.398057,0.096063,-0.278513,-0.162426,-0.012832,0.116078,-0.084399,0.043701,-0.008597,0.999999,-0.000812,-0.000064,0.000580,-0.376860,0.379900,-0.635710,-0.556350,102.961729,64.403870,-171.523628
47752,-8.380498,4.437903,-0.762847,-0.459749,0.182062,-0.311891,-0.134286,0.001188,0.137859,-0.083836,0.044316,-0.007658,1.000000,-0.000671,0.000006,0.000689,-0.376207,0.379675,-0.635606,-0.557064,102.840074,64.322255,-171.572730
47753,-8.350791,4.560467,-0.765418,-0.567650,0.181813,-0.285666,-0.127751,0.006341,0.158139,-0.083544,0.045534,-0.007681,0.999999,-0.000639,0.000032,0.000791,-0.375492,0.379387,-0.635563,-0.557791,102.722102,64.228447,-171.621141
47754,-8.286299,4.694321,-0.772697,-0.698206,0.176119,-0.284942,-0.118752,0.010824,0.195425,-0.082909,0.046858,-0.007750,0.999999,-0.000594,0.000054,0.000977,-0.374675,0.378979,-0.635625,-0.558547,102.606428,64.113499,-171.672935
47755,-8.195980,4.940188,-0.787752,-0.937470,0.170745,-0.258001,-0.105895,0.000370,0.235758,-0.082018,0.049301,-0.007903,0.999999,-0.000529,0.000002,0.001179,-0.373803,0.378385,-0.635777,-0.559360,102.475530,63.976936,-171.749742
47756,-7.969337,5.059669,-0.593189,-1.107958,0.353426,-0.425999,-0.123229,0.008283,0.271712,-0.079762,0.050485,-0.005960,0.999999,-0.000616,0.000041,0.001359,-0.372774,0.377728,-0.635967,-0.560274,102.336607,63.819201,-171.825566
47757,-7.805053,5.087196,-0.540731,-1.172800,0.390340,-0.562665,-0.167933,0.037278,0.321845,-0.078133,0.050742,-0.005435,0.999998,-0.000840,0.000186,0.001609,-0.371424,0.377078,-0.636175,-0.561372,102.193102,63.629787,-171.877004
47758,-7.764076,5.003033,-0.588339,-1.083603,0.325520,-0.626988,-0.202801,0.050849,0.384614,-0.077738,0.049875,-0.005914,0.999998,-0.001014,0.000254,0.001923,-0.369789,0.376329,-0.636427,-0.562666,102.031873,63.403621,-171.926470
47759,-7.773076,4.802347,-0.591807,-0.859825,0.298681,-0.701989,-0.188996,0.065111,0.459607,-0.077843,0.047839,-0.005938,0.999997,-0.000945,0.000326,0.002298,-0.367919,0.375355,-0.636880,-0.564028,101.877759,63.133563,-171.976478
47760,-7.865214,4.719227,-0.623452,-0.698526,0.262140,-0.649472,-0.120220,0.077914,0.538807,-0.078781,0.046976,-0.006232,0.999996,-0.000601,0.000390,0.002694,-0.365912,0.374038,-0.637695,-0.565287,101.761504,62.817733,-172.028305
47761,-7.883148,5.031600,-0.758111,-0.919368,0.154206,-0.476390,-0.029224,0.065495,0.622926,-0.078990,0.050069,-0.007563,0.999995,-0.000146,0.000327,0.003115,-0.363873,0.372245,-0.638895,-0.566430,101.666036,62.455912,-172.115638
47762,-7.756891,5.606810,-0.739229,-1.423575,0.213197,-0.321653,0.024382,0.038785,0.704995,-0.077767,0.055795,-0.007370,0.999994,0.000122,0.000194,0.003525,-0.361782,0.370016,-0.640345,-0.567592,101.558113,62.051180,-172.252047
47763,-7.548382,6.065456,-0.518185,-1.845019,0.458237,-0.303650,0.001337,0.028762,0.781697,-0.075721,0.060359,-0.005171,0.999992,0.000007,0.000144,0.003908,-0.359459,0.367545,-0.641843,-0.568979,101.413126,61.604246,-172.416067
47764,-7.439633,6.301267,-0.289492,-2.016613,0.694352,-0.294888,-0.149640,0.053982,0.824458,-0.074656,0.062703,-0.002922,0.999991,-0.000748,0.000270,0.004122,-0.356650,0.365274,-0.643027,-0.570869,101.204584,61.130173,-172.554960
47765,-7.462376,5.994043,-0.552738,-1.664486,0.398730,-0.379183,-0.295403,0.103319,0.887734,-0.074892,0.059600,-0.005577,0.999989,-0.001477,0.000517,0.004439,-0.353228,0.363194,-0.643984,-0.573241,100.955158,60.614870,-172.645406
47766,-7.478644,5.843776,-0.794258,-1.444818,0.135295,-0.399711,-0.323391,0.127078,0.967630,-0.075073,0.058062,-0.007989,0.999987,-0.001617,0.000635,0.004838,-0.349439,0.360966,-0.645032,-0.575786,100.704524,60.051816,-172.719319
47767,-7.356298,5.899856,-0.744017,-1.454794,0.169590,-0.467586,-0.347028,0.144483,1.049080,-0.073876,0.058599,-0.007489,0.999984,-0.001735,0.000722,0.005245,-0.345309,0.358555,-0.646170,-0.578502,100.447478,59.440943,-172.785361
47768,-7.450885,5.759344,-0.481327,-1.173064,0.413979,-0.465551,-0.421229,0.180798,1.127268,-0.074836,0.057162,-0.004866,0.999981,-0.002106,0.000904,0.005636,-0.340686,0.356117,-0.647274,-0.581507,100.175652,58.782193,-172.819147
47769,-7.704642,5.560467,-0.811455,-0.767962,0.077578,-0.307855,-0.404904,0.231133,1.197415,-0.077387,0.055126,-0.008137,0.999979,-0.002025,0.001156,0.005987,-0.335716,0.353551,-0.648610,-0.584467,99.952607,58.078690,-172.807276
47770,-7.900811,6.147174,-0.934459,-1.042155,-0.000599,0.187125,-0.408347,0.233035,1.274098,-0.079408,0.060948,-0.009377,0.999977,-0.002042,0.001165,0.006370,-0.330491,0.350737,-0.650048,-0.587535,99.722702,57.331691,-172.801082
47771,-8.068675,6.687175,-0.868840,-1.269059,0.098601,0.625451,-0.484883,0.231655,1.332375,-0.081140,0.066311,-0.008756,0.999974,-0.002424,0.001158,0.006662,-0.324952,0.347833,-0.651327,-0.590924,99.443020,56.551967,-172.801914
47772,-8.297470,7.228905,-1.051763,-1.449306,-0.053324,1.146595,-0.608473,0.280115,1.366063,-0.083481,0.071688,-0.010620,0.999971,-0.003042,0.001401,0.006830,-0.318919,0.345150,-0.652344,-0.594651,99.135878,55.748696,-172.750509
47773,-8.589247,7.506690,-1.499762,-1.355834,-0.487129,1.602075,-0.695536,0.298861,1.395802,-0.086436,0.074412,-0.015128,0.999968,-0.003478,0.001494,0.006979,-0.312571,0.342538,-0.653142,-0.598642,98.794515,54.927116,-172.679608
47774,-8.770258,7.789863,-1.833067,-1.307673,-0.819359,1.959113,-0.690654,0.265530,1.453312,-0.088290,0.077195,-0.018481,0.999967,-0.003453,0.001328,0.007266,-0.306144,0.339609,-0.653961,-0.602724,98.428554,54.075747,-172.641918
47775,-8.819214,7.972645,-1.700310,-1.241792,-0.708040,2.111497,-0.724148,0.209693,1.497514,-0.088803,0.079001,-0.017197,0.999965,-0.003621,0.001048,0.007487,-0.299692,0.336394,-0.654621,-0.607038,98.001858,53.204388,-172.655104
47776,-9.012781,7.480820,-1.485756,-0.545288,-0.529200,1.969502,-0.712857,0.248918,1.500644,-0.090704,0.074076,-0.015010,0.999965,-0.003564,0.001245,0.007503,-0.293097,0.333246,-0.655335,-0.611210,97.619404,52.327766,-172.621256
47777,-9.420030,7.572468,-1.753423,-0.172880,-0.788396,2.373331,-0.718114,0.240664,1.506828,-0.094788,0.074949,-0.017690,0.999964,-0.003591,0.001203,0.007534,-0.286483,0.330038,-0.655981,-0.615379,97.233662,51.448796,-172.587096
47778,-9.290763,7.543130,-1.691600,-0.037270,-0.767027,2.249061,-0.735033,0.201421,1.485565,-0.093481,0.074676,-0.017097,0.999965,-0.003675,0.001007,0.007428,-0.280012,0.326777,-0.656441,-0.619593,96.819537,50.584334,-172.576890
47779,-9.121787,7.829234,-1.806927,-0.170548,-0.918172,2.307286,-0.731748,0.285127,1.447918,-0.091807,0.077563,-0.018223,0.999966,-0.003659,0.001426,0.007240,-0.273372,0.323874,-0.656917,-0.623565,96.473724,49.736310,-172.479712
47780,-9.233477,8.291444,-2.224610,-0.240410,-1.348907,2.720203,-0.867819,0.298181,1.420790,-0.092954,0.082158,-0.022465,0.999964,-0.004339,0.001491,0.007104,-0.266531,0.321261,-0.656901,-0.627880,96.065288,48.902868,-172.361514
47781,-8.798823,8.095489,-2.213706,-0.180970,-1.420523,2.262198,-1.058861,0.276310,1.383369,-0.088576,0.080225,-0.022441,0.999961,-0.005294,0.001382,0.006917,-0.259555,0.318936,-0.656143,-0.632762,95.540449,48.093159,-172.250669
47782,-8.564864,7.194383,-2.148387,0.517348,-1.417078,1.476828,-1.089803,0.356690,1.342842,-0.086167,0.071249,-0.021720,0.999961,-0.005449,0.001783,0.006714,-0.252372,0.317010,-0.655278,-0.637513,95.056659,47.302496,-172.059503
47783,-8.473417,6.345530,-2.298800,1.264274,-1.594838,0.827085,-1.050006,0.362086,1.325522,-0.085194,0.062770,-0.023165,0.999963,-0.005250,0.001810,0.006628,-0.245272,0.315087,-0.654466,-0.642056,94.602438,46.523039,-171.856088
47784,-8.009002,5.441704,-2.185751,1.753913,-1.523641,-0.162084,-0.875107,0.347213,1.342286,-0.080490,0.053782,-0.021954,0.999966,-0.004375,0.001736,0.006711,-0.238423,0.312821,-0.654181,-0.646023,94.241143,45.735201,-171.660800
47785,-7.814052,4.720742,-2.280246,2.288328,-1.613444,-0.829200,-0.559348,0.361131,1.370880,-0.078503,0.046606,-0.022792,0.999971,-0.002797,0.001806,0.006854,-0.231916,0.310113,-0.654931,-0.648930,94.066908,44.931554,-171.453530
47786,-7.645950,4.530910,-2.482183,2.457590,-1.802917,-1.102972,-0.084553,0.320992,1.434455,-0.076822,0.044749,-0.024718,0.999973,-0.000423,0.001605,0.007172,-0.226057,0.306495,-0.657241,-0.650379,94.136866,44.092969,-171.283860
47787,-7.478016,5.320923,-2.334238,1.902799,-1.660164,-0.685630,0.424998,0.202244,1.536550,-0.075210,0.052682,-0.023154,0.999968,0.002125,0.001011,0.007683,-0.221025,0.301565,-0.661187,-0.650414,94.423164,43.201141,-171.220186
47788,-7.060272,6.354889,-1.590497,0.953862,-0.937952,-0.274861,0.745912,0.097938,1.612721,-0.071120,0.063035,-0.015634,0.999960,0.003730,0.000490,0.008063,-0.216557,0.295664,-0.666132,-0.649579,94.829503,42.270097,-171.250561
47789,-6.867834,7.136213,-0.960215,0.370074,-0.272029,0.127197,0.856863,0.141980,1.615678,-0.069259,0.070844,-0.009249,0.999958,0.004284,0.000710,0.008078,-0.212080,0.289755,-0.671431,-0.648263,95.315128,41.335612,-171.256816
47790,-6.864090,7.358937,-0.776566,0.353194,-0.009228,0.274208,0.743487,0.184668,1.592526,-0.069231,0.073068,-0.007430,0.999961,0.003717,0.000923,0.007963,-0.207352,0.284156,-0.676323,-0.647184,95.752435,40.411785,-171.238948
47791,-6.806927,7.232388,-0.729423,0.538941,0.110265,0.130591,0.721045,0.207382,1.574991,-0.068643,0.071810,-0.006964,0.999962,0.003605,0.001037,0.007875,-0.202557,0.278693,-0.681084,-0.646084,96.181532,39.496777,-171.212285
47792,-6.545611,7.594799,-0.347361,0.224651,0.542238,0.202288,0.715310,0.229593,1.563313,-0.066051,0.075445,-0.003128,0.999962,0.003577,0.001148,0.007816,-0.197700,0.273324,-0.685786,-0.644908,96.612912,38.586643,-171.177502
47793,-6.449789,8.023998,-0.199674,0.019754,0.764554,0.455556,0.567280,0.307584,1.530000,-0.065112,0.079748,-0.001670,0.999966,0.002836,0.001538,0.007650,-0.192467,0.268449,-0.689987,-0.644057,96.989530,37.690231,-171.092094
47794,-6.632591,8.297507,-0.413606,0.164134,0.653520,0.796487,0.369702,0.353912,1.486790,-0.066947,0.082486,-0.003865,0.999969,0.001848,0.001770,0.007434,-0.186935,0.264043,-0.693498,-0.643737,97.270491,36.814505,-170.977181
47795,-6.732781,8.302784,-0.241808,0.378573,0.897321,0.835054,0.257055,0.342901,1.432195,-0.067924,0.082546,-0.002196,0.999972,0.001285,0.001714,0.007161,-0.181457,0.259883,-0.696518,-0.643737,97.479599,35.970442,-170.871022
47796,-7.022032,8.236825,-0.314497,0.802211,0.907772,0.947595,0.066550,0.342112,1.346619,-0.070778,0.081894,-0.002997,0.999976,0.000333,0.001711,0.006733,-0.176000,0.256174,-0.698780,-0.644286,97.581013,35.174619,-170.761417
47797,-6.915425,7.855494,-0.315907,1.076431,0.909939,0.562453,-0.050548,0.284415,1.247456,-0.069647,0.078121,-0.003080,0.999980,-0.000253,0.001422,0.006237,-0.170906,0.252721,-0.700451,-0.645206,97.594742,34.439589,-170.684592
47798,-6.720609,7.519144,-0.020708,1.208336,1.183181,0.129315,-0.121688,0.249070,1.154951,-0.067639,0.074802,-0.000169,0.999982,-0.000608,0.001245,0.005775,-0.166139,0.249526,-0.701723,-0.646312,97.558427,33.759634,-170.624058
47799,-6.526927,6.985268,-0.194601,1.475254,0.975214,-0.415650,-0.181721,0.210097,1.065433,-0.065642,0.069502,-0.001940,0.999985,-0.000909,0.001050,0.005327,-0.161716,0.246563,-0.702629,-0.647585,97.476536,33.133648,-170.581617
47800,-6.211393,6.577560,-0.608319,1.575296,0.512719,-0.898057,-0.167396,0.153777,0.989528,-0.062443,0.065462,-0.006090,0.999987,-0.000837,0.000769,0.004948,-0.157752,0.243664,-0.703426,-0.648794,97.386468,32.554954,-170.569759
47801,-5.933520,6.501194,-0.522565,1.463212,0.560604,-1.135738,-0.125180,0.109995,0.906690,-0.059632,0.064739,-0.005233,0.999989,-0.000626,0.000550,0.004533,-0.154256,0.240876,-0.704205,-0.649830,97.308538,32.026617,-170.579202
47802,-5.809563,6.403475,-0.340704,1.469831,0.722763,-1.316312,-0.143392,0.112382,0.801682,-0.058354,0.063799,-0.003420,0.999992,-0.000717,0.000562,0.004008,-0.151070,0.238475,-0.704788,-0.650831,97.226820,31.557796,-170.577206
47803,-5.688735,6.525054,-0.686800,1.402939,0.368495,-1.250831,-0.194591,0.112944,0.692150,-0.057117,0.065046,-0.006899,0.999993,-0.000973,0.000565,0.003461,-0.148174,0.236497,-0.705061,-0.651922,97.120651,31.151186,-170.564739
47804,-5.320046,6.627373,-0.693987,1.096319,0.310354,-1.362356,-0.221722,0.108033,0.604968,-0.053404,0.066105,-0.006984,0.999995,-0.001109,0.000540,0.003025,-0.145546,0.234827,-0.705133,-0.653038,97.001840,30.794613,-170.547519
47805,-5.024367,6.674112,-0.733015,0.876897,0.225051,-1.475689,-0.270330,0.107657,0.547598,-0.050430,0.066593,-0.007393,0.999995,-0.001352,0.000538,0.002738,-0.143048,0.233392,-0.704969,-0.654281,96.857257,30.470635,-170.525013
47806,-4.954491,6.524263,-0.782537,0.946867,0.150883,-1.639202,-0.314795,0.108345,0.497802,-0.049711,0.065107,-0.007901,0.999996,-0.001574,0.000542,0.002489,-0.140658,0.232164,-0.704597,-0.655635,96.690262,30.175154,-170.497242
47807,-4.811832,6.504643,-0.821311,0.881496,0.075947,-1.728400,-0.417550,0.089862,0.423374,-0.048260,0.064927,-0.008327,0.999995,-0.002088,0.000449,0.002117,-0.138455,0.231208,-0.703780,-0.657318,96.461076,29.923177,-170.474845
47808,-4.646956,5.644409,-0.333807,1.157263,0.492623,-2.602766,-0.413518,0.143994,0.327144,-0.046564,0.056361,-0.003421,0.999996,-0.002068,0.000720,0.001636,-0.136384,0.230764,-0.702899,-0.658847,96.256332,29.722841,-170.408857
47809,-4.964550,5.776907,-1.214993,1.487460,-0.339588,-2.251754,-0.336689,0.246731,0.251697,-0.049733,0.057686,-0.012186,0.999997,-0.001683,0.001234,0.001258,-0.134285,0.230869,-0.702247,-0.659936,96.131132,29.559091,-170.269601
47810,-4.884759,6.385780,-1.630404,1.186699,-0.751459,-1.730344,-0.142288,0.127437,0.261486,-0.048941,0.063782,-0.016318,0.999999,-0.000711,0.000637,0.001307,-0.132800,0.230415,-0.702167,-0.660480,96.078747,29.397481,-170.209074
47811,-4.670204,7.135818,-0.846511,0.560593,0.011233,-1.260913,0.041570,0.045808,0.289747,-0.046807,0.071292,-0.008440,0.999999,0.000208,0.000229,0.001449,-0.131717,0.229470,-0.702668,-0.660494,96.103953,29.224485,-170.203865
47812,-4.694203,7.394421,-0.731618,0.463590,0.141949,-1.036974,0.056490,0.030749,0.272614,-0.047044,0.073882,-0.007288,0.999999,0.000282,0.000154,0.001363,-0.130763,0.228525,-0.703190,-0.660455,96.133977,29.062474,-170.207425
47813,-4.750290,7.183929,-0.808839,0.646657,0.078904,-1.186919,0.112516,0.037045,0.233162,-0.047588,0.071788,-0.008039,0.999999,0.000563,0.000185,0.001166,-0.129978,0.227702,-0.703852,-0.660189,96.198837,28.922244,-170.204216
47814,-4.859610,7.255866,-0.885766,0.732037,0.034334,-1.065637,0.161395,0.038806,0.194007,-0.048668,0.072519,-0.008790,0.999999,0.000807,0.000194,0.000970,-0.129374,0.226991,-0.704633,-0.659719,96.294018,28.804538,-170.197343
47815,-4.836301,7.664695,-0.733012,0.507670,0.208878,-0.736716,0.202591,0.013989,0.161408,-0.048425,0.076615,-0.007249,0.999999,0.001013,0.000070,0.000807,-0.129009,0.226285,-0.705494,-0.659113,96.405516,28.706622,-170.204443
47816,-4.803589,8.158119,-0.611786,0.235225,0.355601,-0.335250,0.202939,0.007209,0.124062,-0.048087,0.081558,-0.006033,0.999999,0.001015,0.000036,0.000620,-0.128794,0.225689,-0.706310,-0.658485,96.516849,28.630782,-170.213453
47817,-4.860321,8.452864,-0.713432,0.160202,0.287767,-0.041601,0.138127,0.006523,0.073460,-0.048634,0.084516,-0.007074,1.000000,0.000691,0.000033,0.000367,-0.128672,0.225310,-0.706852,-0.658057,96.592062,28.583438,-170.219230
47818,-4.852166,8.572655,-0.761584,0.104568,0.252097,0.063519,0.074860,-0.005779,0.027080,-0.048533,0.085723,-0.007585,1.000000,0.000374,-0.000029,0.000135,-0.128678,0.225096,-0.707127,-0.657833,96.629364,28.563688,-170.229586
47819,-4.796225,8.572362,-0.561542,0.034444,0.443610,0.016174,-0.004638,-0.015812,-0.016864,-0.047955,0.085728,-0.005621,1.000000,-0.000023,-0.000079,-0.000084,-0.128771,0.225055,-0.707083,-0.657877,96.619081,28.569233,-170.243103
47820,-4.719497,8.379851,-0.637675,0.068486,0.344948,-0.180527,-0.103198,-0.002241,-0.060100,-0.047170,0.083809,-0.006421,1.000000,-0.000516,-0.000011,-0.000300,-0.128851,0.225276,-0.706677,-0.658222,96.558559,28.598894,-170.244620
47821,-4.665691,8.288663,-0.844864,0.085821,0.118666,-0.264759,-0.125988,0.002250,-0.082805,-0.046623,0.082901,-0.008500,1.000000,-0.000630,0.000011,-0.000414,-0.128961,0.225605,-0.706171,-0.658631,96.486681,28.640779,-170.241553
47822,-4.557896,8.356506,-0.930631,-0.036158,0.008514,-0.248677,-0.123803,0.002177,-0.087838,-0.045542,0.083579,-0.009358,1.000000,-0.000619,0.000011,-0.000439,-0.129093,0.225951,-0.705668,-0.659025,96.416658,28.685911,-170.238260
47823,-4.584101,8.405538,-0.979982,-0.037100,-0.046032,-0.188556,-0.115080,0.002084,-0.080293,-0.045807,0.084068,-0.009848,1.000000,-0.000575,0.000010,-0.000401,-0.129207,0.226263,-0.705199,-0.659397,96.350840,28.726382,-170.235595
47824,-4.612933,8.445592,-0.996189,-0.034888,-0.067594,-0.138300,-0.115323,-0.008909,-0.077206,-0.046096,0.084468,-0.010013,1.000000,-0.000577,-0.000045,-0.000386,-0.129352,0.226530,-0.704728,-0.659781,96.281787,28.766176,-170.240380
47825,-4.613774,8.407446,-1.048815,-0.013784,-0.132567,-0.166222,-0.140403,0.001508,-0.075151,-0.046106,0.084084,-0.010547,1.000000,-0.000702,0.000008,-0.000376,-0.129423,0.226838,-0.704181,-0.660245,96.201053,28.803760,-170.238568
47826,-4.658870,8.345753,-1.149008,0.063195,-0.237601,-0.188944,-0.102806,0.000672,-0.065061,-0.046562,0.083467,-0.011533,1.000000,-0.000514,0.000003,-0.000325,-0.129509,0.227085,-0.703771,-0.660581,96.141717,28.836037,-170.238087
47827,-4.689066,8.485987,-1.139993,0.015490,-0.228751,-0.053265,-0.069191,0.012295,-0.064194,-0.046864,0.084871,-0.011426,1.000000,-0.000346,0.000061,-0.000321,-0.129585,0.227344,-0.703478,-0.660788,96.104760,28.866723,-170.230111
47828,-4.754923,8.575931,-1.277535,0.040621,-0.357540,0.069544,-0.028744,0.003096,-0.048412,-0.047529,0.085769,-0.012787,1.000000,-0.000144,0.000015,-0.000242,-0.129692,0.227493,-0.703332,-0.660871,96.088018,28.889371,-170.229268
47829,-4.738237,8.682989,-1.046110,-0.056649,-0.130130,0.133136,0.017472,-0.006251,-0.032102,-0.047368,0.086838,-0.010455,1.000000,0.000087,-0.000031,-0.000161,-0.129826,0.227522,-0.703350,-0.660816,96.093804,28.902906,-170.235606
47830,-4.748097,8.768406,-1.058905,-0.090772,-0.139142,0.213431,0.007509,-0.004552,-0.025002,-0.047470,0.087690,-0.010587,1.000000,0.000038,-0.000023,-0.000125,-0.129924,0.227539,-0.703346,-0.660795,96.094692,28.912670,-170.241358
47831,-4.735448,8.811461,-1.045140,-0.126186,-0.126929,0.243484,0.004288,-0.010943,-0.026458,-0.047342,0.088121,-0.010452,1.000000,0.000021,-0.000055,-0.000132,-0.130041,0.227541,-0.703323,-0.660796,96.091255,28.923274,-170.251142
47832,-4.606326,8.706316,-0.683385,-0.230389,0.207040,0.055911,-0.031362,-0.002265,-0.034195,-0.046048,0.087070,-0.006848,1.000000,-0.000157,-0.000011,-0.000171,-0.130116,0.227624,-0.703182,-0.660903,96.070902,28.938124,-170.254773
47833,-4.612537,8.534738,-0.820500,-0.126216,0.066097,-0.077691,-0.036006,0.054170,-0.033008,-0.046114,0.085354,-0.008208,1.000000,-0.000180,0.000271,-0.000165,-0.129980,0.227890,-0.703061,-0.660966,96.065107,28.948512,-170.221718
47834,-4.673763,8.849986,-1.080257,-0.198865,-0.172698,0.250309,0.026845,0.061101,-0.010485,-0.046736,0.088504,-0.010776,1.000000,0.000134,0.000306,-0.000052,-0.129821,0.228061,-0.703180,-0.660812,96.097248,28.946013,-170.185736
47835,-4.616817,9.339156,-0.905223,-0.508069,0.007862,0.632219,0.037747,0.033908,0.027655,-0.046183,0.093387,-0.009027,1.000000,0.000189,0.000170,0.000138,-0.129640,0.227999,-0.703359,-0.660679,96.125281,28.923056,-170.170094
47836,-4.649898,9.390869,-0.771050,-0.516138,0.149728,0.680914,-0.006531,0.026430,0.050486,-0.046524,0.093897,-0.007707,1.000000,-0.000033,0.000132,0.000252,-0.129362,0.227862,-0.703415,-0.660721,96.125323,28.887879,-170.160950
47837,-4.720905,9.220312,-0.735929,-0.368365,0.190411,0.563764,-0.057274,0.052206,0.052945,-0.047235,0.092189,-0.007373,1.000000,-0.000286,0.000261,0.000265,-0.128925,0.227833,-0.703320,-0.660917,96.103789,28.849397,-170.135177
47838,-4.808648,8.896356,-0.959745,-0.099302,-0.028340,0.345004,-0.088711,0.061803,0.052538,-0.048113,0.088947,-0.009622,1.000000,-0.000444,0.000309,0.000263,-0.128423,0.227859,-0.703129,-0.661209,96.067723,28.810888,-170.103158
47839,-4.820911,8.955159,-0.940528,-0.111846,-0.010779,0.400442,-0.088931,0.059105,0.057124,-0.048237,0.089534,-0.009431,1.000000,-0.000445,0.000296,0.000286,-0.127911,0.227858,-0.702938,-0.661511,96.030056,28.769634,-170.073158
47840,-4.781655,9.056601,-0.684511,-0.218734,0.230524,0.446640,-0.154682,0.048771,0.042059,-0.047837,0.090551,-0.006903,1.000000,-0.000773,0.000244,0.000210,-0.127414,0.227920,-0.702508,-0.662043,95.952444,28.737945,-170.048832
47841,-4.812743,8.520551,-0.213704,0.018560,0.674425,-0.047816,-0.273306,0.068961,0.009253,-0.048132,0.085200,-0.002237,0.999999,-0.001367,0.000345,0.000046,-0.126816,0.228237,-0.701658,-0.662950,95.813789,28.723473,-170.009101
47842,-4.962301,7.927501,-0.870802,0.523005,0.020408,-0.434306,-0.272725,0.138247,-0.024706,-0.049619,0.079269,-0.008782,0.999999,-0.001364,0.000691,-0.000124,-0.126091,0.228904,-0.700815,-0.663749,95.698648,28.724742,-169.922102
47843,-4.819424,7.985745,-1.680664,0.476929,-0.810261,-0.381907,-0.101449,0.095263,-0.008086,-0.048199,0.079851,-0.016824,1.000000,-0.000507,0.000476,-0.000040,-0.125654,0.229260,-0.700529,-0.664010,95.667235,28.718784,-169.864095
47844,-4.491564,8.835289,-1.148643,-0.285451,-0.321317,0.155819,0.080508,0.041347,0.049950,-0.044940,0.088346,-0.011442,1.000000,0.000403,0.000207,0.000250,-0.125425,0.229121,-0.700882,-0.663729,95.721877,28.683120,-169.844940
47845,-4.562751,9.196521,-0.604991,-0.463531,0.238796,0.458087,0.027138,0.034657,0.074256,-0.045663,0.091949,-0.006030,1.000000,0.000136,0.000173,0.000371,-0.125075,0.228907,-0.701080,-0.663660,95.742605,28.633644,-169.831719
47846,-4.745617,8.856640,-0.760229,-0.111358,0.109374,0.262755,-0.078187,0.046944,0.072786,-0.047490,0.088546,-0.007626,1.000000,-0.000391,0.000235,0.000364,-0.124569,0.228805,-0.700936,-0.663943,95.707328,28.584619,-169.810443
47847,-4.700715,8.384972,-0.910558,0.107443,-0.056186,-0.157695,-0.081964,0.063226,0.062460,-0.047036,0.083831,-0.009125,1.000000,-0.000410,0.000316,0.000312,-0.124032,0.228795,-0.700775,-0.664216,95.674771,28.540253,-169.777885
47848,-4.650426,8.252888,-1.032326,0.152061,-0.189830,-0.286767,-0.103999,0.077309,0.056735,-0.046532,0.082510,-0.010348,1.000000,-0.000520,0.000387,0.000284,-0.123443,0.228866,-0.700545,-0.664544,95.634597,28.498662,-169.735835
47849,-4.711221,8.169508,-1.024919,0.251708,-0.177055,-0.331537,-0.069080,0.074425,0.052850,-0.047138,0.081679,-0.010260,1.000000,-0.000345,0.000372,0.000264,-0.122914,0.228919,-0.700423,-0.664753,95.613153,28.459181,-169.695365
47850,-4.748505,8.315698,-1.002282,0.217278,-0.149045,-0.188017,-0.064839,0.057671,0.053608,-0.047510,0.083141,-0.010036,1.000000,-0.000324,0.000288,0.000268,-0.122449,0.228912,-0.700307,-0.664963,95.589422,28.420585,-169.665803
47851,-4.548255,8.410342,-0.822839,-0.018523,-0.007717,-0.215963,-0.125064,0.038730,0.043008,-0.045502,0.084088,-0.008272,1.000000,-0.000625,0.000194,0.000215,-0.122014,0.228915,-0.699964,-0.665403,95.525153,28.388739,-169.647830
47852,-4.499857,7.958948,-0.638639,0.138368,0.154670,-0.649808,-0.141330,0.100766,0.014024,-0.045007,0.079582,-0.006420,1.000000,-0.000707,0.000504,0.000070,-0.121442,0.229236,-0.699574,-0.665807,95.472023,28.370300,-169.587855
47853,-4.702073,7.899146,-1.288280,0.434369,-0.460743,-0.551764,-0.131078,0.117155,0.007711,-0.047031,0.078981,-0.012907,1.000000,-0.000655,0.000586,0.000039,-0.120842,0.229626,-0.699218,-0.666155,95.429510,28.354348,-169.516806
47854,-4.521774,8.099254,-1.173024,0.170192,-0.374808,-0.471868,-0.003909,0.090426,0.029080,-0.045235,0.080986,-0.011711,1.000000,-0.000020,0.000452,0.000145,-0.120414,0.229777,-0.699296,-0.666099,95.451473,28.328017,-169.464429
47855,-4.577515,8.404599,-0.894347,0.037774,-0.081998,-0.201099,0.063183,0.078115,0.059659,-0.045804,0.084035,-0.008899,1.000000,0.000316,0.000391,0.000298,-0.120001,0.229739,-0.699623,-0.665844,95.506658,28.284541,-169.421944
47856,-4.647148,8.504476,-0.955239,0.064459,-0.119611,-0.075331,0.093106,0.061447,0.073465,-0.046506,0.085032,-0.009499,1.000000,0.000466,0.000307,0.000367,-0.119638,0.229579,-0.700057,-0.665507,95.573912,28.234409,-169.391217
47857,-4.628544,8.541096,-0.919071,0.032366,-0.074411,-0.055032,0.115936,0.053341,0.077781,-0.046321,0.085398,-0.009129,1.000000,0.000580,0.000267,0.000389,-0.119311,0.229363,-0.700565,-0.665106,95.651063,28.181901,-169.366069
47858,-4.587549,8.591444,-0.785379,-0.039383,0.063131,-0.041824,0.088680,0.049625,0.068990,-0.045907,0.085902,-0.007804,1.000000,0.000443,0.000248,0.000345,-0.118999,0.229182,-0.700971,-0.664796,95.712179,28.134900,-169.342884
47859,-4.638533,8.379818,-0.665622,0.095001,0.197253,-0.214123,0.072217,0.070043,0.046032,-0.046407,0.083790,-0.006610,1.000000,0.000361,0.000350,0.000230,-0.118670,0.229158,-0.701307,-0.664510,95.770233,28.099484,-169.305032
47860,-4.682120,8.452716,-0.839734,0.125380,0.042925,-0.114325,0.066659,0.073902,0.030676,-0.046837,0.084523,-0.008352,1.000000,0.000333,0.000370,0.000153,-0.118375,0.229206,-0.701610,-0.664225,95.827246,28.072912,-169.263744
47861,-4.598584,8.526840,-0.908310,0.029464,-0.028798,-0.082461,0.062470,0.064757,0.021702,-0.045998,0.085266,-0.009042,1.000000,0.000312,0.000324,0.000109,-0.118133,0.229256,-0.701882,-0.663964,95.878789,28.051608,-169.227793
47862,-4.617262,8.575137,-0.796589,0.008581,0.093944,-0.041416,0.067759,0.078926,0.011922,-0.046181,0.085751,-0.007919,1.000000,0.000339,0.000395,0.000060,-0.117884,0.229385,-0.702170,-0.663659,95.938481,28.035328,-169.182097
47863,-4.620123,8.557771,-0.991839,0.047673,-0.089941,-0.037496,0.053456,0.067826,0.010947,-0.046209,0.085578,-0.009880,1.000000,0.000267,0.000339,0.000055,-0.117657,0.229488,-0.702401,-0.663419,95.986085,28.019910,-169.143497
47864,-4.521016,8.469277,-0.997511,0.006327,-0.104842,-0.161148,0.073588,0.067227,0.019817,-0.045222,0.084692,-0.009929,1.000000,0.000368,0.000336,0.000099,-0.117430,0.229547,-0.702710,-0.663111,96.045259,27.999788,-169.105927
47865,-4.518698,8.417720,-0.932616,0.022086,-0.031756,-0.213474,0.098023,0.066521,0.032542,-0.045204,0.084174,-0.009270,1.000000,0.000490,0.000333,0.000163,-0.117187,0.229543,-0.703112,-0.662729,96.117257,27.972075,-169.069705
47866,-4.598591,8.181428,-0.878431,0.199130,0.043057,-0.388626,0.106638,0.075544,0.031573,-0.046002,0.081812,-0.008723,1.000000,0.000533,0.000378,0.000158,-0.116929,0.229569,-0.703549,-0.662302,96.197388,27.944683,-169.027667
47867,-4.556276,8.129206,-1.102313,0.220298,-0.171530,-0.432882,0.159510,0.065949,0.027776,-0.045578,0.081294,-0.010943,1.000000,0.000798,0.000330,0.000139,-0.116774,0.229544,-0.704148,-0.661701,96.304519,27.919625,-168.991588
47868,-4.482409,8.493709,-0.986956,-0.032888,-0.046610,-0.158367,0.176439,0.056702,0.033847,-0.044841,0.084938,-0.009782,1.000000,0.000882,0.000284,0.000169,-0.116655,0.229459,-0.704807,-0.661050,96.418815,27.891957,-168.962006
47869,-4.442604,8.757916,-0.940880,-0.198584,0.013827,0.050549,0.143212,0.056416,0.029286,-0.044442,0.087579,-0.009334,1.000000,0.000716,0.000282,0.000146,-0.116510,0.229406,-0.705348,-0.660517,96.513598,27.866536,-168.932301
47870,-4.633057,8.992969,-0.891417,-0.151127,0.113752,0.341009,0.100850,0.068406,0.019068,-0.046342,0.089930,-0.008853,1.000000,0.000504,0.000342,0.000095,-0.116312,0.229455,-0.705745,-0.660110,96.588519,27.846458,-168.894198
47871,-4.691447,9.134196,-0.937527,-0.160411,0.088595,0.496948,-0.003897,0.055797,-0.002832,-0.046916,0.091342,-0.009364,1.000000,-0.000019,0.000279,-0.000014,-0.116106,0.229599,-0.705763,-0.660078,96.599893,27.839298,-168.862577
47872,-4.662593,8.965159,-0.782545,-0.126344,0.231099,0.319284,-0.072736,0.052190,-0.029635,-0.046615,0.089656,-0.007846,1.000000,-0.000364,0.000261,-0.000148,-0.115926,0.229867,-0.705522,-0.660274,96.572188,27.847953,-168.831309
47873,-4.677835,8.814268,-0.965968,-0.016379,0.043345,0.212501,-0.114338,0.061792,-0.042768,-0.046762,0.088147,-0.009696,1.000000,-0.000572,0.000309,-0.000214,-0.115705,0.230236,-0.705132,-0.660600,96.523478,27.863157,-168.792866
47874,-4.535345,8.808950,-1.014934,-0.131775,-0.037573,0.146141,-0.111343,0.047803,-0.043201,-0.045337,0.088094,-0.010188,1.000000,-0.000557,0.000239,-0.000216,-0.115540,0.230559,-0.704745,-0.660929,96.472803,27.879837,-168.763444
47875,-4.555205,8.657994,-0.944920,-0.053372,0.024144,0.015853,-0.097557,0.048846,-0.035587,-0.045539,0.086583,-0.009480,1.000000,-0.000488,0.000244,-0.000178,-0.115360,0.230850,-0.704411,-0.661215,96.429572,27.891844,-168.733881
47876,-4.557697,8.600021,-1.010888,-0.014517,-0.047050,-0.027370,-0.061976,0.032037,-0.020938,-0.045570,0.086002,-0.010128,1.000000,-0.000310,0.000160,-0.000105,-0.115234,0.231014,-0.704204,-0.661400,96.401703,27.896974,-168.716196
47877,-4.444990,8.664515,-0.993425,-0.144949,-0.051783,-0.025198,-0.042901,0.026419,-0.006991,-0.044448,0.086645,-0.009947,1.000000,-0.000215,0.000132,-0.000035,-0.115101,0.231099,-0.704070,-0.661536,96.382061,27.894156,-168.703158
47878,-4.500461,8.612821,-0.941012,-0.078387,0.006512,-0.049790,-0.030353,0.034903,0.001841,-0.045007,0.086126,-0.009415,1.000000,-0.000152,0.000175,0.000009,-0.114927,0.231174,-0.703995,-0.661620,96.372383,27.886061,-168.685316
47879,-4.609133,8.615584,-0.916720,0.012727,0.048628,0.001090,-0.020750,0.039724,0.004583,-0.046095,0.086154,-0.009167,1.000000,-0.000104,0.000199,0.000023,-0.114734,0.231249,-0.703956,-0.661669,96.369049,27.875811,-168.664540
47880,-4.604313,8.625600,-0.950167,0.010345,0.015438,0.010914,-0.005601,0.032286,0.007533,-0.046048,0.086254,-0.009497,1.000000,-0.000028,0.000161,0.000038,-0.114579,0.231282,-0.703968,-0.661672,96.372536,27.864696,-168.648773
47881,-4.608250,8.767663,-0.966219,-0.049710,0.005136,0.139145,0.028613,0.030772,0.017046,-0.046091,0.087674,-0.009643,1.000000,0.000143,0.000154,0.000085,-0.114434,0.231255,-0.704101,-0.661565,96.394359,27.847915,-168.634668
47882,-4.616020,8.903093,-0.877549,-0.118091,0.100015,0.253039,0.028898,0.024290,0.021089,-0.046171,0.089027,-0.008757,1.000000,0.000144,0.000121,0.000105,-0.114301,0.231193,-0.704238,-0.661464,96.414717,27.829503,-168.625082
47883,-4.562745,8.949101,-0.824105,-0.191071,0.146305,0.263338,-0.002197,0.016949,0.021511,-0.045638,0.089486,-0.008238,1.000000,-0.000011,0.000085,0.000108,-0.114155,0.231122,-0.704266,-0.661483,96.414569,27.811058,-168.620213
47884,-4.519538,8.809602,-0.768582,-0.166943,0.190035,0.115154,-0.042270,0.027989,0.016395,-0.045204,0.088091,-0.007698,1.000000,-0.000211,0.000140,0.000082,-0.113943,0.231130,-0.704164,-0.661626,96.395387,27.795156,-168.607875
47885,-4.522428,8.686415,-0.875226,-0.086885,0.080755,0.018798,-0.050519,0.034775,0.016635,-0.045233,0.086858,-0.008766,1.000000,-0.000253,0.000174,0.000083,-0.113693,0.231163,-0.704037,-0.661792,96.373067,27.778354,-168.591172
47886,-4.572912,8.736689,-1.045606,-0.038358,-0.079991,0.103294,-0.049135,0.030143,0.024536,-0.045741,0.087359,-0.010471,1.000000,-0.000246,0.000151,0.000123,-0.113438,0.231153,-0.703923,-0.661961,96.350354,27.757617,-168.578047
47887,-4.546175,8.653351,-0.974645,-0.027453,-0.018444,0.010603,-0.032230,0.017600,0.039658,-0.045480,0.086523,-0.009756,1.000000,-0.000161,0.000088,0.000198,-0.113194,0.231038,-0.703874,-0.662096,96.332595,27.728802,-168.574034
47888,-4.539839,8.613204,-0.931361,-0.015027,0.021787,-0.031882,-0.004839,0.009727,0.042218,-0.045417,0.086122,-0.009313,1.000000,-0.000024,0.000049,0.000211,-0.113004,0.230872,-0.703915,-0.662141,96.328569,27.699277,-168.575298
47889,-4.554774,8.558782,-0.986383,0.036916,-0.030388,-0.067464,-0.006701,0.010253,0.041237,-0.045566,0.085578,-0.009864,1.000000,-0.000034,0.000051,0.000206,-0.112810,0.230713,-0.703948,-0.662196,96.323189,27.670028,-168.576116
47890,-4.670498,8.434899,-0.893097,0.187276,0.080047,-0.131922,-0.005819,0.013928,0.038541,-0.046722,0.084340,-0.008930,1.000000,-0.000029,0.000070,0.000193,-0.112616,0.230574,-0.703984,-0.662238,96.319937,27.642280,-168.574447
47891,-4.646512,8.390483,-0.940159,0.198154,0.028934,-0.177644,-0.003542,0.005355,0.018492,-0.046473,0.083900,-0.009402,1.000000,-0.000018,0.000027,0.000092,-0.112518,0.230477,-0.703998,-0.662275,96.315661,27.626293,-168.576789
47892,-4.545001,8.463215,-1.016267,0.089028,-0.061676,-0.153282,0.018693,0.007813,0.013715,-0.045456,0.084630,-0.010153,1.000000,0.000093,0.000039,0.000069,-0.112456,0.230392,-0.704083,-0.662224,96.325484,27.613108,-168.577258
47893,-4.535838,8.542927,-0.939555,0.034045,0.015293,-0.094827,0.015516,0.009783,0.013695,-0.045365,0.085427,-0.009387,1.000000,0.000078,0.000049,0.000068,-0.112380,0.230315,-0.704157,-0.662185,96.333603,27.599573,-168.576415
47894,-4.495388,8.499430,-0.930818,0.020199,0.017360,-0.152743,0.005291,0.011060,0.012764,-0.044960,0.084992,-0.009303,1.000000,0.000026,0.000055,0.000064,-0.112295,0.230252,-0.704199,-0.662177,96.336787,27.586746,-168.574715
47895,-4.481811,8.380309,-0.911057,0.063915,0.033365,-0.265906,0.002375,0.022777,0.011885,-0.044824,0.083801,-0.009104,1.000000,0.000012,0.000114,0.000059,-0.112164,0.230232,-0.704234,-0.662168,96.341300,27.573419,-168.565398
47896,-4.490730,8.401015,-0.961897,0.071344,-0.013675,-0.238572,0.001660,0.020482,0.012263,-0.044913,0.084007,-0.009614,1.000000,0.000008,0.000102,0.000061,-0.112043,0.230205,-0.704268,-0.662162,96.345177,27.560350,-168.557588
47897,-4.551008,8.436870,-0.924531,0.103441,0.035732,-0.182774,0.015472,0.014453,0.016202,-0.045518,0.084366,-0.009235,1.000000,0.000077,0.000072,0.000081,-0.111943,0.230135,-0.704347,-0.662119,96.354572,27.545092,-168.553932
47898,-4.538029,8.468966,-0.952027,0.082957,0.008870,-0.157819,0.016400,0.013456,0.011001,-0.045386,0.084688,-0.009510,1.000000,0.000082,0.000067,0.000055,-0.111867,0.230080,-0.704426,-0.662067,96.364915,27.533170,-168.550544
47899,-4.543995,8.501717,-0.962798,0.075677,0.001022,-0.125152,0.002680,0.010150,0.002044,-0.045441,0.085017,-0.009625,1.000000,0.000013,0.000051,0.000010,-0.111814,0.230053,-0.704444,-0.662067,96.366169,27.526246,-168.548642
47900,-4.588444,8.481444,-0.938224,0.120899,0.032612,-0.124897,-0.008293,0.009991,-0.008629,-0.045881,0.084816,-0.009383,1.000000,-0.000041,0.000050,-0.000043,-0.111788,0.230070,-0.704415,-0.662096,96.361862,27.525707,-168.546111
47901,-4.520185,8.467690,-0.968922,0.072582,-0.011076,-0.165550,-0.016397,0.002782,-0.015914,-0.045195,0.084680,-0.009696,1.000000,-0.000082,0.000014,-0.000080,-0.111798,0.230092,-0.704345,-0.662161,96.350593,27.529476,-168.547654
47902,-4.482018,8.480325,-0.887089,0.020923,0.061957,-0.180084,-0.003303,0.010694,-0.016499,-0.044814,0.084807,-0.008870,1.000000,-0.000017,0.000053,-0.000082,-0.111801,0.230136,-0.704323,-0.662168,96.349534,27.533326,-168.544144
47903,-4.497810,8.432893,-0.975105,0.069479,-0.023179,-0.205948,-0.005310,0.007511,-0.016419,-0.044972,0.084332,-0.009752,1.000000,-0.000027,0.000038,-0.000082,-0.111809,0.230169,-0.704292,-0.662188,96.346037,27.537083,-168.542615
47904,-4.474104,8.455857,-0.911006,0.027624,0.036014,-0.202953,0.005989,0.008945,-0.021741,-0.044732,0.084564,-0.009106,1.000000,0.000030,0.000045,-0.000109,-0.111846,0.230223,-0.704295,-0.662161,96.350123,27.544306,-168.539673
47905,-4.522845,8.476679,-0.929711,0.061416,0.027061,-0.160223,0.010217,0.012022,-0.026726,-0.045218,0.084773,-0.009290,1.000000,0.000051,0.000060,-0.000134,-0.111891,0.230299,-0.704306,-0.662115,96.357204,27.553646,-168.534508
47906,-4.457035,8.558966,-1.007442,-0.024751,-0.058246,-0.110523,0.025702,0.006437,-0.018237,-0.044563,0.085595,-0.010062,1.000000,0.000129,0.000032,-0.000091,-0.111948,0.230318,-0.704377,-0.662023,96.371768,27.558776,-168.533561
47907,-4.545345,8.683737,-0.893554,-0.025348,0.073633,0.029052,0.027493,0.011448,-0.024880,-0.045443,0.086844,-0.008921,1.000000,0.000137,0.000057,-0.000124,-0.112008,0.230376,-0.704447,-0.661918,96.388520,27.567100,-168.528893
47908,-4.561605,8.692976,-0.912439,-0.014605,0.059504,0.046565,0.011800,0.004086,-0.023639,-0.045606,0.086936,-0.009118,1.000000,0.000059,0.000020,-0.000118,-0.112075,0.230416,-0.704464,-0.661875,96.394440,27.575574,-168.529016
47909,-4.531970,8.625831,-0.910513,-0.010403,0.055219,-0.026494,0.004179,0.004799,-0.025236,-0.045309,0.086264,-0.009102,1.000000,0.000021,0.000024,-0.000126,-0.112133,0.230466,-0.704452,-0.661860,96.395871,27.584524,-168.528590
47910,-4.512519,8.636101,-0.886544,-0.037421,0.075176,-0.028825,-0.002102,0.001731,-0.029041,-0.045113,0.086367,-0.008866,1.000000,-0.000011,0.000009,-0.000145,-0.112210,0.230524,-0.704416,-0.661865,96.393464,27.596119,-168.529871
47911,-4.535245,8.526487,-0.866226,0.029168,0.096395,-0.116831,-0.006095,0.009266,-0.035052,-0.045338,0.085273,-0.008663,1.000000,-0.000030,0.000046,-0.000175,-0.112273,0.230629,-0.704362,-0.661876,96.390665,27.610373,-168.525868
47912,-4.571007,8.684682,-0.987346,0.000600,-0.013795,0.051007,0.016278,0.001551,-0.034708,-0.045695,0.086856,-0.009866,1.000000,0.000081,0.000008,-0.000174,-0.112390,0.230695,-0.704380,-0.661813,96.398844,27.625089,-168.526939
47913,-4.456880,8.759983,-0.932945,-0.144571,0.020992,0.058996,0.003715,-0.003120,-0.030938,-0.044555,0.087607,-0.009329,1.000000,0.000019,-0.000016,-0.000155,-0.112494,0.230739,-0.704356,-0.661806,96.397840,27.637791,-168.531190
47914,-4.528164,8.768944,-0.974476,-0.082903,-0.008122,0.104032,-0.007252,-0.001822,-0.030244,-0.045268,0.087696,-0.009748,1.000000,-0.000036,-0.000009,-0.000151,-0.112582,0.230794,-0.704300,-0.661832,96.391434,27.650433,-168.534595
47915,-4.525025,8.680558,-0.961619,-0.047538,0.000348,0.023490,-0.023645,0.002410,-0.034799,-0.045235,0.086812,-0.009626,1.000000,-0.000118,0.000012,-0.000174,-0.112648,0.230885,-0.704184,-0.661912,96.376529,27.664980,-168.535018
47916,-4.551692,8.615742,-0.907660,-0.003953,0.053358,-0.026479,-0.047435,0.004055,-0.045780,-0.045497,0.086166,-0.009096,1.000000,-0.000237,0.000020,-0.000229,-0.112719,0.231034,-0.703980,-0.662064,96.349447,27.685883,-168.533643
47917,-4.559333,8.452768,-0.823711,0.064200,0.128937,-0.174505,-0.069236,0.009768,-0.066992,-0.045565,0.084540,-0.008264,1.000000,-0.000346,0.000049,-0.000335,-0.112813,0.231289,-0.703680,-0.662278,96.311680,27.718298,-168.527052
47918,-4.672034,8.295417,-0.896105,0.242286,0.069350,-0.253329,-0.049034,0.012314,-0.080578,-0.046687,0.082971,-0.008979,1.000000,-0.000245,0.000062,-0.000403,-0.112969,0.231590,-0.703433,-0.662409,96.286880,27.758601,-168.517903
47919,-4.588097,8.439430,-1.020407,0.113503,-0.069224,-0.153590,-0.012859,0.000967,-0.075024,-0.045849,0.084411,-0.010209,1.000000,-0.000064,0.000005,-0.000375,-0.113186,0.231812,-0.703305,-0.662430,96.279036,27.796147,-168.516434
47920,-4.531716,8.682008,-0.848714,-0.082331,0.091396,0.016804,-0.003501,-0.003950,-0.071400,-0.045286,0.086836,-0.008490,1.000000,-0.000018,-0.000020,-0.000357,-0.113423,0.232006,-0.703211,-0.662422,96.275536,27.832709,-168.518105
47921,-4.599499,8.736767,-0.472043,-0.110445,0.468839,0.060371,-0.105863,0.003949,-0.069694,-0.045965,0.087381,-0.004766,1.000000,-0.000529,0.000020,-0.000348,-0.113503,0.232271,-0.702783,-0.662770,96.215116,27.867034,-168.515118
47922,-4.898932,8.055201,-0.247066,0.435123,0.723604,-0.419398,-0.112411,0.009199,-0.097913,-0.048950,0.080575,-0.002514,1.000000,-0.000562,0.000046,-0.000490,-0.113654,0.232659,-0.702304,-0.663115,96.153838,27.917441,-168.506821
47923,-4.757071,8.258047,-0.524093,0.248768,0.421481,-0.280625,-0.020496,-0.006212,-0.109887,-0.047525,0.082606,-0.005251,1.000000,-0.000102,-0.000031,-0.000549,-0.114003,0.232984,-0.702106,-0.663151,96.140541,27.975290,-168.507658
47924,-4.657629,9.137438,-0.847037,-0.218908,0.096028,0.475490,0.048476,-0.002189,-0.088457,-0.046536,0.091397,-0.008449,1.000000,0.000242,-0.000011,-0.000442,-0.114350,0.233208,-0.702166,-0.662949,96.167848,28.020966,-168.507405
47925,-4.625197,10.072561,-0.548478,-0.746319,0.397839,1.252324,0.055446,-0.054802,-0.047900,-0.046226,0.100738,-0.005470,1.000000,0.000277,-0.000274,-0.000239,-0.114752,0.233110,-0.702264,-0.662810,96.181305,28.046501,-168.543898
47926,-4.649379,10.185382,-0.382135,-0.807273,0.558628,1.347106,-0.168808,-0.024859,-0.047627,-0.046469,0.101862,-0.003913,1.000000,-0.000844,-0.000124,-0.000238,-0.114789,0.233241,-0.701637,-0.663421,96.075762,28.070350,-168.561088
47927,-4.880127,9.109422,-0.873501,-0.018704,0.081787,0.558095,-0.245753,-0.023375,-0.040855,-0.048782,0.091093,-0.008853,0.999999,-0.001229,-0.000117,-0.000204,-0.114707,0.233396,-0.700762,-0.664305,95.925898,28.089890,-168.577865
47928,-4.750070,9.022513,-0.809417,-0.098516,0.101315,0.414925,-0.139185,-0.059489,-0.034285,-0.047483,0.090228,-0.008171,1.000000,-0.000696,-0.000297,-0.000171,-0.114855,0.233347,-0.700227,-0.664861,95.826071,28.107994,-168.618518
47929,-4.598679,9.366930,-0.923417,-0.377966,-0.052456,0.656042,-0.163570,-0.062405,-0.046313,-0.045962,0.093672,-0.009325,1.000000,-0.000818,-0.000312,-0.000232,-0.115023,0.233343,-0.699594,-0.665499,95.711517,28.132833,-168.660262
47930,-4.623533,9.623918,-1.079505,-0.457106,-0.223533,0.906605,-0.236964,-0.069812,-0.057147,-0.046204,0.096239,-0.010925,0.999999,-0.001185,-0.000349,-0.000286,-0.115169,0.233397,-0.698700,-0.666394,95.553128,28.164558,-168.706119
47931,-4.656982,9.713036,-0.968678,-0.488553,-0.141358,0.990557,-0.348535,-0.082365,-0.085620,-0.046524,0.097133,-0.009875,0.999998,-0.001743,-0.000412,-0.000428,-0.115321,0.233570,-0.697391,-0.667677,95.327507,28.212690,-168.758544
47932,-4.540822,9.108037,-1.097198,-0.280924,-0.333752,0.414174,-0.546916,-0.044854,-0.130334,-0.045346,0.091079,-0.011231,0.999996,-0.002735,-0.000224,-0.000652,-0.115262,0.234140,-0.695385,-0.669576,95.000938,28.284581,-168.784242
47933,-4.754633,8.378200,-1.703487,0.344958,-0.942256,-0.081523,-0.569771,-0.034817,-0.158269,-0.047477,0.083771,-0.017282,0.999996,-0.002849,-0.000174,-0.000791,-0.115231,0.234849,-0.693271,-0.671524,94.664664,28.371401,-168.802489
47934,-4.630970,8.358342,-1.574903,0.224130,-0.884632,-0.171365,-0.464351,-0.088178,-0.155889,-0.046238,0.083583,-0.015963,0.999997,-0.002322,-0.000441,-0.000779,-0.115502,0.235309,-0.691477,-0.673163,94.372088,28.459461,-168.856044
47935,-4.615134,8.348582,-1.163596,0.145070,-0.528985,-0.218358,-0.513535,-0.086177,-0.175465,-0.046073,0.083496,-0.011870,0.999996,-0.002568,-0.000431,-0.000877,-0.115771,0.235870,-0.689491,-0.674956,94.051912,28.558089,-168.907966
47936,-4.741512,7.515550,-1.059510,0.631737,-0.435880,-0.896483,-0.581625,-0.075695,-0.208157,-0.047333,0.075174,-0.010832,0.999995,-0.002908,-0.000378,-0.001041,-0.116035,0.236617,-0.687236,-0.676946,93.696265,28.675023,-168.952299
47937,-4.727328,6.715633,-1.249498,1.027362,-0.647156,-1.594769,-0.484092,-0.084729,-0.227596,-0.047191,0.067180,-0.012678,0.999996,-0.002420,-0.000424,-0.001138,-0.116509,0.237341,-0.685277,-0.678594,93.393559,28.802874,-169.002591
47938,-4.576940,6.943095,-1.471813,0.812877,-0.928924,-1.458200,-0.186583,-0.107195,-0.201342,-0.045692,0.069463,-0.014807,0.999999,-0.000933,-0.000536,-0.001007,-0.117325,0.237725,-0.684344,-0.679261,93.253614,28.916591,-169.069149
47939,-4.723863,8.097919,-1.032665,0.294243,-0.526439,-0.400258,0.048707,-0.147707,-0.156692,-0.047168,0.081019,-0.010342,0.999999,0.000244,-0.000739,-0.000783,-0.118405,0.237679,-0.684237,-0.679197,93.234376,29.005691,-169.164117
47940,-4.679687,8.499161,-1.359399,0.100186,-0.874976,-0.055253,0.091889,-0.199173,-0.111646,-0.046736,0.085024,-0.013601,0.999999,0.000459,-0.000996,-0.000558,-0.119563,0.237279,-0.684301,-0.679069,93.222990,29.070954,-169.294520
47941,-4.531825,8.684226,-0.573243,-0.251843,-0.118988,-0.004314,0.443346,-0.237192,-0.021783,-0.045302,0.086860,-0.005594,0.999997,0.002217,-0.001186,-0.000109,-0.120959,0.236231,-0.685638,-0.677838,93.398752,29.085944,-169.453153
47942,-4.795531,9.657055,0.363143,-0.649358,0.847528,0.922658,0.479718,-0.253114,0.007858,-0.047964,0.096560,0.003802,0.999996,0.002399,-0.001266,0.000039,-0.122353,0.235003,-0.687120,-0.676513,93.590021,29.085120,-169.623449
47943,-4.639147,9.475222,-0.177794,-0.614078,0.312054,0.716257,0.169478,-0.272604,0.011727,-0.046395,0.094751,-0.001761,0.999999,0.000847,-0.001363,0.000059,-0.123435,0.233885,-0.687540,-0.676277,93.596959,29.082903,-169.806552
47944,-4.772602,9.113120,-0.112677,-0.331423,0.406891,0.461746,0.130969,-0.262620,-0.008408,-0.047721,0.091134,-0.001130,0.999999,0.000655,-0.001313,-0.000042,-0.124508,0.232895,-0.687815,-0.676143,93.586166,29.092238,-169.982207
47945,-4.819807,9.351430,0.463328,-0.492514,0.970721,0.661546,-0.034697,-0.177090,-0.079585,-0.048165,0.093534,0.004574,1.000000,-0.000173,-0.000885,-0.000398,-0.125331,0.232540,-0.687495,-0.676438,93.508230,29.138723,-170.099138
47946,-4.786891,9.302120,-0.544347,-0.360857,-0.057329,0.656620,-0.419488,-0.046213,-0.173330,-0.047787,0.093051,-0.005650,0.999997,-0.002097,-0.000231,-0.000867,-0.125575,0.233190,-0.685847,-0.677840,93.253677,29.234273,-170.127009
47947,-4.575225,8.691706,-1.423832,-0.128038,-0.980996,0.062882,-0.418910,0.077702,-0.220671,-0.045662,0.086937,-0.014403,0.999997,-0.002095,0.000389,-0.001103,-0.125553,0.234421,-0.684218,-0.679065,93.039272,29.352745,-170.072287
47948,-4.841107,8.909416,0.182491,-0.255227,0.605887,0.307341,-0.311017,-0.011536,-0.190825,-0.048326,0.089143,0.001684,0.999998,-0.001555,-0.000058,-0.000954,-0.125863,0.235177,-0.682933,-0.680039,92.857699,29.456991,-170.077731
47949,-4.316830,9.013313,-1.737439,-0.481314,-1.424075,0.218936,-0.796053,0.092576,-0.241426,-0.043068,0.090115,-0.017713,0.999991,-0.003980,0.000463,-0.001207,-0.125415,0.236763,-0.679995,-0.682511,92.432002,29.587361,-170.013667
47950,-4.594230,7.122231,-0.744641,0.531806,-0.375927,-1.329568,-0.623656,0.059174,-0.200257,-0.045873,0.071245,-0.007655,0.999995,-0.003118,0.000296,-0.001001,-0.125145,0.237984,-0.677666,-0.684450,92.093619,29.695425,-169.973649
47951,-5.077527,7.183323,-0.782286,0.911714,-0.381819,-1.036796,-0.417942,-0.020255,-0.217763,-0.050696,0.071872,-0.007978,0.999997,-0.002090,-0.000101,-0.001089,-0.125446,0.238862,-0.675963,-0.685772,91.846783,29.815115,-169.986167
47952,-5.174012,6.942535,-1.144264,1.155656,-0.740795,-1.187484,-0.248826,-0.080965,-0.271816,-0.051641,0.069481,-0.011550,0.999998,-0.001244,-0.000405,-0.001359,-0.126339,0.239604,-0.674736,-0.686556,91.677326,29.966605,-170.038509
47953,-5.757636,6.194637,0.460653,1.750321,0.945952,-1.579976,-0.226074,-0.214480,-0.344678,-0.057474,0.062051,0.004475,0.999997,-0.001130,-0.001072,-0.001723,-0.127959,0.240122,-0.673411,-0.687376,91.476635,30.161970,-170.178236
47954,-5.896340,6.072339,1.296061,1.771260,1.763153,-1.622840,-0.271881,-0.309443,-0.470899,-0.058840,0.060879,0.012787,0.999995,-0.001359,-0.001547,-0.002354,-0.130279,0.240764,-0.671712,-0.688377,91.218073,30.430501,-170.380404
47955,-6.226470,4.928932,0.785864,2.673543,1.329054,-2.412269,-0.590761,-0.409476,-0.625133,-0.062126,0.049506,0.007585,0.999989,-0.002954,-0.002047,-0.003126,-0.133077,0.241785,-0.668653,-0.690459,90.741224,30.787170,-170.649869
47956,-5.394250,4.881145,0.343887,2.023381,0.738336,-2.855506,0.108022,-0.373923,-0.640550,-0.053792,0.048982,0.003365,0.999993,0.000540,-0.001870,-0.003203,-0.136655,0.242507,-0.668001,-0.690138,90.674164,31.151188,-170.898878
47957,-4.450143,8.015211,0.994468,-0.522250,1.030381,-0.663822,0.541463,-0.473882,-0.540107,-0.044309,0.080245,0.010057,0.999990,0.002707,-0.002369,-0.002701,-0.140740,0.242253,-0.668884,-0.688549,90.818496,31.458679,-171.215941
47958,-3.787108,10.259661,1.819980,-2.411503,1.626467,0.885638,0.262365,-0.231798,-0.524341,-0.037623,0.102672,0.018291,0.999995,0.001312,-0.001159,-0.002622,-0.143626,0.242974,-0.668989,-0.687597,90.887117,31.756066,-171.370670
47959,-5.293383,10.027661,0.577041,-0.904127,0.585806,1.489779,-0.324849,-0.051255,-0.604281,-0.052632,0.100445,0.005594,0.999994,-0.001624,-0.000256,-0.003021,-0.145464,0.244999,-0.667098,-0.688328,90.682341,32.097187,-171.403741
47960,-5.554689,7.592785,-0.306169,0.664122,-0.140687,-0.424542,-0.627765,0.034184,-0.730393,-0.055270,0.076120,-0.003291,0.999988,-0.003139,0.000171,-0.003652,-0.147080,0.247957,-0.664062,-0.689860,90.334446,32.510258,-171.380327
47961,-5.267860,6.679381,-0.479786,0.879399,-0.326917,-1.344271,-0.479915,0.065334,-0.740226,-0.052433,0.066976,-0.004941,0.999990,-0.002400,0.000327,-0.003701,-0.148803,0.250939,-0.661532,-0.690842,90.081172,32.928727,-171.338036
47962,-4.924267,5.673124,-0.781231,1.131232,-0.620947,-2.371076,-0.406911,0.020812,-0.664908,-0.049055,0.056878,-0.007923,0.999992,-0.002035,0.000104,-0.003325,-0.150506,0.253465,-0.659301,-0.691683,89.852189,33.304762,-171.327996
47963,-5.179207,5.274682,-0.597885,1.487992,-0.386783,-2.557342,0.194648,-0.012803,-0.555014,-0.051645,0.052896,-0.005931,0.999996,0.000973,-0.000064,-0.002775,-0.152697,0.255052,-0.659259,-0.690659,89.955130,33.617220,-171.341460
47964,-4.850916,6.504212,-0.739178,0.523875,-0.652770,-1.708260,0.627631,-0.018635,-0.441721,-0.048365,0.065172,-0.007192,0.999993,0.003138,-0.000093,-0.002209,-0.155072,0.255915,-0.660849,-0.688288,90.305417,33.865375,-171.357613
47965,-4.548190,7.671230,-0.663279,-0.421399,-0.662809,-0.904464,0.784495,0.010886,-0.333742,-0.045354,0.076813,-0.006329,0.999991,0.003922,0.000054,-0.001669,-0.157170,0.256394,-0.663125,-0.685438,90.756829,34.051038,-171.352082
47966,-4.508694,9.270204,-0.300923,-1.431536,-0.356804,0.394092,0.898080,-0.036061,-0.226878,-0.044981,0.092765,-0.002601,0.999989,0.004490,-0.000180,-0.001134,-0.159205,0.256266,-0.665877,-0.682341,91.255651,34.176405,-171.378483
47967,-5.233823,9.298983,-0.528948,-0.854887,-0.431405,0.828109,0.575344,-0.008868,-0.197329,-0.052246,0.093056,-0.005024,0.999995,0.002877,-0.000044,-0.000987,-0.160628,0.256383,-0.667578,-0.680299,91.580200,34.284120,-171.385485
47968,-5.535644,8.693689,-0.460557,-0.305251,-0.241748,0.496716,0.637794,-0.021705,-0.172981,-0.055281,0.086999,-0.004334,0.999995,0.003189,-0.000109,-0.000865,-0.162093,0.256327,-0.669505,-0.678075,91.935956,34.378846,-171.400912
47969,-5.229324,9.537295,-0.291229,-1.075600,-0.101167,1.014278,0.584203,0.064148,-0.126908,-0.052234,0.095414,-0.002617,0.999995,0.002921,0.000321,-0.000635,-0.163041,0.256444,-0.671373,-0.675953,92.294070,34.444758,-171.357470
47970,-5.559550,8.857862,-0.263392,-0.444285,0.049198,0.639092,0.545726,-0.012870,-0.088589,-0.055556,0.088610,-0.002396,0.999996,0.002729,-0.000064,-0.000443,-0.164071,0.256206,-0.673093,-0.674081,92.600157,34.491034,-171.367920
47971,-5.390496,9.892236,-0.227158,-1.187062,0.075885,1.392230,0.630215,0.003341,-0.067391,-0.053872,0.098947,-0.001959,0.999995,0.003151,0.000017,-0.000337,-0.165079,0.255875,-0.675131,-0.671919,92.960186,34.524156,-171.367738
47972,-6.285457,8.402984,-0.748216,0.434104,-0.240423,0.695911,0.253925,-0.018354,-0.134791,-0.062797,0.084082,-0.007381,0.999999,0.001270,-0.000092,-0.000674,-0.165906,0.256010,-0.675798,-0.670993,93.098009,34.596945,-171.379860
47973,-5.867141,7.189618,-1.796711,0.888273,-1.270779,-0.488628,0.449219,-0.023139,-0.183010,-0.058603,0.071990,-0.017812,0.999997,0.002246,-0.000116,-0.000915,-0.167158,0.256127,-0.677050,-0.669373,93.346618,34.697058,-171.393254
47974,-6.095648,6.083804,-2.373982,1.746082,-1.758290,-1.229863,0.496314,-0.029647,-0.213597,-0.060888,0.060962,-0.023598,0.999996,0.002482,-0.000148,-0.001068,-0.168597,0.256287,-0.678414,-0.667568,93.621337,34.815447,-171.409221
47975,-5.797046,5.421589,-2.298960,1.844103,-1.669086,-1.932477,1.099289,-0.163999,-0.138633,-0.057914,0.054381,-0.022738,0.999984,0.005496,-0.000820,-0.000693,-0.171007,0.255229,-0.681757,-0.663945,94.185895,34.895810,-171.521430
47976,-5.231824,7.713027,-0.838684,-0.113715,-0.238611,-0.458794,1.511267,-0.175421,-0.024374,-0.052302,0.077197,-0.007850,0.999971,0.007556,-0.000877,-0.000122,-0.173600,0.253379,-0.686579,-0.658993,94.979886,34.912916,-171.646962
47977,-5.072915,9.039255,0.228737,-1.120263,0.911261,0.454182,1.299474,-0.254233,0.054303,-0.050757,0.090362,0.002810,0.999978,0.006497,-0.001271,0.000272,-0.175923,0.251171,-0.690694,-0.654909,95.617380,34.890200,-171.832030
47978,-4.957512,8.923924,-0.082296,-1.121160,0.687876,0.311005,1.224232,-0.234281,0.073130,-0.049607,0.089224,-0.000335,0.999981,0.006121,-0.001171,0.000366,-0.178017,0.249018,-0.694580,-0.651044,96.219777,34.857529,-172.004918
47979,-4.893181,9.581327,-0.063623,-1.551247,0.822166,0.801724,1.248123,-0.162609,0.139271,-0.048998,0.095781,-0.000078,0.999980,0.006241,-0.000813,0.000696,-0.179665,0.246838,-0.698658,-0.647046,96.860269,34.783761,-172.133584
47980,-5.221643,9.944376,-0.042723,-1.483693,0.991888,1.276596,0.869146,-0.087431,0.182252,-0.052307,0.099397,-0.000018,0.999990,0.004346,-0.000437,0.000911,-0.180443,0.245087,-0.701612,-0.644293,97.311698,34.681716,-172.214526
47981,-5.135051,9.778842,-0.191965,-1.430055,0.898864,1.104178,0.656797,-0.036768,0.242722,-0.051469,0.097732,-0.001608,0.999994,0.003284,-0.000184,0.001214,-0.180581,0.243472,-0.703988,-0.642272,97.657135,34.541539,-172.266849
47982,-4.946462,11.021303,-0.366451,-2.259872,0.823111,2.031559,0.213111,0.142656,0.286149,-0.049625,0.110146,-0.003512,0.999998,0.001066,0.000713,0.001431,-0.179409,0.242681,-0.705151,-0.641623,97.816356,34.363453,-172.200249
47983,-5.331897,10.750442,-0.928822,-1.724906,0.298965,2.095253,-0.316637,0.236109,0.207028,-0.053441,0.107434,-0.009395,0.999998,-0.001583,0.001181,0.001035,-0.177516,0.242940,-0.704596,-0.642660,97.711473,34.222631,-172.062347
47984,-5.500038,10.650917,-1.207261,-1.483183,0.017041,2.143470,-0.343831,0.289962,0.185027,-0.055116,0.106437,-0.012176,0.999997,-0.001719,0.001450,0.000925,-0.175470,0.243477,-0.703971,-0.643703,97.612916,34.090764,-171.885157
47985,-6.179978,10.311945,-1.265095,-0.697887,-0.011731,2.255509,-0.594988,0.207498,0.183247,-0.061908,0.103025,-0.012893,0.999995,-0.002975,0.001037,0.000916,-0.173412,0.243969,-0.702458,-0.645725,97.338481,33.966158,-171.764306
47986,-6.250869,8.634435,-1.381951,0.349317,-0.239842,0.927746,-0.523328,0.122826,0.167986,-0.062590,0.086255,-0.014007,0.999996,-0.002617,0.000614,0.000840,-0.171788,0.244178,-0.701078,-0.647576,97.073980,33.856978,-171.699507
47987,-6.387502,7.740161,-1.112723,0.969754,-0.018965,0.237566,-0.250006,0.083396,0.151256,-0.063938,0.077339,-0.011197,0.999999,-0.001250,0.000417,0.000756,-0.170687,0.244082,-0.700525,-0.648502,96.951558,33.760059,-171.660003
47988,-6.330023,7.697022,-0.851656,0.943023,0.226517,0.142113,0.016710,0.030694,0.128229,-0.063351,0.076930,-0.008500,1.000000,0.000084,0.000153,0.000641,-0.170173,0.243666,-0.700763,-0.648536,96.963326,33.680044,-171.654568
47989,-5.850148,8.428772,-0.885300,0.151688,0.172152,0.482919,0.096759,0.052772,0.113395,-0.058552,0.084259,-0.008797,1.000000,0.000484,0.000264,0.000567,-0.169725,0.243307,-0.701260,-0.648251,97.029636,33.606803,-171.632852
47990,-5.487122,9.248059,-0.758617,-0.605009,0.295323,0.946371,0.007259,0.047022,0.109186,-0.054923,0.092451,-0.007570,1.000000,0.000036,0.000235,0.000546,-0.169204,0.243020,-0.701458,-0.648280,97.043120,33.536608,-171.614723
47991,-5.215766,8.833295,-0.378433,-0.613657,0.609297,0.416029,-0.379281,0.065158,0.072220,-0.052191,0.088307,-0.003935,0.999998,-0.001896,0.000326,0.000361,-0.168267,0.243247,-0.700371,-0.649614,96.843217,33.485945,-171.581089
47992,-4.761671,7.291872,-0.401684,-0.114085,0.433759,-1.106087,-0.779534,0.176440,0.014985,-0.047626,0.072899,-0.004259,0.999992,-0.003898,0.000882,0.000075,-0.166640,0.244372,-0.698001,-0.652157,96.458844,33.460841,-171.466568
47993,-5.151450,6.223288,-1.119231,0.875201,-0.297534,-1.709301,-0.680826,0.367411,-0.011229,-0.051532,0.062197,-0.011309,0.999993,-0.003404,0.001837,-0.000056,-0.164548,0.246124,-0.696068,-0.654092,96.203674,33.438905,-171.219702
47994,-5.824647,8.163453,-0.008033,0.254060,0.917967,0.170364,-0.377774,0.335089,0.071963,-0.058276,0.081613,-0.000137,0.999997,-0.001889,0.001675,0.000360,-0.162670,0.247227,-0.695199,-0.655069,96.107127,33.372323,-171.001212
47995,-5.632320,8.521030,-0.275946,-0.066291,0.616174,0.386480,-0.459378,0.234740,0.081800,-0.056361,0.085181,-0.002889,0.999997,-0.002297,0.001174,0.000409,-0.161004,0.248033,-0.693985,-0.656462,95.924937,33.306478,-170.851693
47996,-5.034880,7.843183,-1.164183,-0.078784,-0.364997,-0.427518,-0.127731,0.230514,0.099289,-0.050401,0.078399,-0.011634,0.999999,-0.000639,0.001153,0.000496,-0.159708,0.248500,-0.693875,-0.656718,95.930792,33.231547,-170.705994
47997,-5.112390,8.572963,-0.559905,-0.473573,0.267397,0.169792,0.117040,0.259565,0.063629,-0.051158,0.085717,-0.005483,0.999999,0.000585,0.001298,0.000318,-0.158730,0.248987,-0.694545,-0.656062,96.088417,33.174582,-170.538491
47998,-5.609214,8.341049,-0.614293,0.073460,0.290540,0.253291,-0.179658,0.284961,-0.033192,-0.056087,0.083414,-0.006138,0.999999,-0.000898,0.001425,-0.000166,-0.157616,0.250129,-0.694145,-0.656320,96.090062,33.171420,-170.346738
47999,-5.706707,7.966539,-1.553823,0.462628,-0.633027,0.078312,-0.218194,0.238419,-0.096381,-0.057047,0.079676,-0.015557,0.999999,-0.001091,0.001192,-0.000482,-0.156818,0.251366,-0.693496,-0.656724,96.053985,33.206748,-170.182145
48000,-5.517810,8.094020,-1.269499,0.201700,-0.378220,0.055812,-0.039804,0.113663,-0.037947,-0.055170,0.080948,-0.012680,1.000000,-0.000199,0.000568,-0.000190,-0.156488,0.251854,-0.693410,-0.656707,96.072078,33.216823,-170.106487
48001,-5.346444,8.445944,-0.848089,-0.184806,0.016040,0.217430,-0.097701,0.055835,-0.049672,-0.053446,0.084469,-0.008507,1.000000,-0.000489,0.000279,-0.000248,-0.156320,0.252235,-0.693071,-0.656958,96.035167,33.236614,-170.069572
48002,-5.425527,8.055400,-0.789463,0.087867,0.066184,-0.069130,-0.336188,0.055168,-0.082105,-0.054224,0.080563,-0.008015,0.999998,-0.001681,0.000276,-0.000411,-0.155963,0.252917,-0.691907,-0.658007,95.863166,33.275535,-170.030352
48003,-5.461361,8.165304,-1.438816,0.129862,-0.594713,0.096816,-0.310799,0.057045,-0.095908,-0.054579,0.081657,-0.014499,0.999999,-0.001554,0.000285,-0.000480,-0.155674,0.253627,-0.690807,-0.658957,95.706361,33.321758,-169.989498
48004,-5.307856,8.535770,-0.711949,-0.291351,0.074687,0.259504,-0.383417,0.003517,-0.085911,-0.053042,0.085367,-0.007282,0.999998,-0.001917,0.000018,-0.000430,-0.155444,0.254186,-0.689437,-0.660230,95.487482,33.365655,-169.985714
48005,-5.415167,7.881323,-0.535214,0.135833,0.227335,-0.239002,-0.580321,0.070834,-0.134246,-0.054101,0.078834,-0.005562,0.999996,-0.002902,0.000354,-0.000671,-0.154891,0.255281,-0.687403,-0.662055,95.182631,33.433280,-169.933380
48006,-5.561729,7.382842,-1.220954,0.614975,-0.465620,-0.521035,-0.514824,0.069327,-0.145565,-0.055568,0.073837,-0.012380,0.999996,-0.002574,0.000347,-0.000728,-0.154465,0.256356,-0.685568,-0.663640,94.915371,33.507710,-169.881964
48007,-5.600064,7.858999,-0.789584,0.321190,-0.069036,-0.135909,-0.292945,0.007051,-0.114483,-0.055956,0.078610,-0.008009,0.999999,-0.001465,0.000035,-0.000572,-0.154431,0.256947,-0.684455,-0.664568,94.750162,33.567512,-169.875092
48008,-5.774165,8.053707,-0.457738,0.306422,0.254984,0.099614,-0.335597,-0.014709,-0.116482,-0.057694,0.080563,-0.004717,0.999998,-0.001678,-0.000074,-0.000582,-0.154424,0.257506,-0.683180,-0.665664,94.552596,33.629781,-169.883130
48009,-5.405842,8.005098,-0.636076,0.049142,-0.004623,-0.132460,-0.328947,-0.058065,-0.122488,-0.054008,0.080073,-0.006508,0.999998,-0.001645,-0.000290,-0.000612,-0.154592,0.257934,-0.681883,-0.666789,94.341974,33.697086,-169.920995
48010,-5.297222,7.962546,-0.263228,-0.071009,0.316036,-0.250943,-0.401483,-0.039987,-0.110726,-0.052928,0.079649,-0.002803,0.999998,-0.002007,-0.000200,-0.000554,-0.154566,0.258439,-0.680371,-0.668142,94.096393,33.757017,-169.947284
48011,-5.006429,8.666524,-0.482682,-0.674878,-0.000448,0.184830,-0.437072,-0.058264,-0.080507,-0.050028,0.086675,-0.005031,0.999997,-0.002185,-0.000291,-0.000403,-0.154453,0.258804,-0.678761,-0.669662,93.822159,33.800062,-169.988023
48012,-4.837777,9.604511,-0.437226,-1.342120,-0.057114,0.866127,-0.554823,-0.016440,-0.076210,-0.048341,0.096051,-0.004643,0.999996,-0.002774,-0.000082,-0.000381,-0.154032,0.259386,-0.676792,-0.671525,93.496507,33.839174,-170.000384
48013,-5.158261,9.660681,-0.922225,-1.038924,-0.557630,1.114166,-0.787855,0.025252,-0.079997,-0.051545,0.096590,-0.009596,0.999992,-0.003939,0.000126,-0.000400,-0.153177,0.260295,-0.674058,-0.674113,93.052919,33.878787,-169.984269
48014,-5.257987,8.764472,-0.725522,-0.477810,-0.387283,0.415212,-0.929018,0.004949,-0.070879,-0.052549,0.087628,-0.007661,0.999989,-0.004645,0.000025,-0.000354,-0.152174,0.261212,-0.670833,-0.677197,92.520522,33.914149,-169.982563
48015,-5.196928,8.206792,-0.828208,-0.192282,-0.544891,-0.080725,-0.898332,0.010342,-0.068686,-0.051942,0.082047,-0.008648,0.999990,-0.004492,0.000052,-0.000343,-0.151182,0.262107,-0.667703,-0.680159,92.007272,33.947854,-169.977876
48016,-5.543999,8.185949,-0.769190,0.103069,-0.506656,0.090323,-0.836360,-0.023114,-0.063953,-0.055413,0.081844,-0.008041,0.999991,-0.004182,-0.000116,-0.000320,-0.150364,0.262822,-0.664754,-0.682947,91.516606,33.979606,-169.996635
48017,-5.605788,8.262460,-0.787460,0.122705,-0.589519,0.184824,-0.784558,-0.033435,-0.067247,-0.056029,0.082612,-0.008208,0.999992,-0.003923,-0.000167,-0.000336,-0.149656,0.263469,-0.661958,-0.685565,91.051237,34.013110,-170.022907
48018,-5.738569,8.325524,-0.668640,0.184512,-0.524155,0.305784,-0.710506,-0.100522,-0.066279,-0.057355,0.083250,-0.007011,0.999994,-0.003553,-0.000503,-0.000331,-0.149264,0.263823,-0.659359,-0.688014,90.602487,34.046514,-170.095886
48019,-5.486829,8.355164,-0.426812,-0.071279,-0.389464,0.184267,-0.721147,-0.085599,-0.080665,-0.054833,0.083558,-0.004593,0.999993,-0.003606,-0.000428,-0.000403,-0.148855,0.264281,-0.656704,-0.690462,90.152879,34.087554,-170.158834
48020,-5.630297,8.260364,-0.706097,0.151309,-0.702034,0.183126,-0.739124,-0.107750,-0.086199,-0.056263,0.082601,-0.007397,0.999993,-0.003696,-0.000539,-0.000431,-0.148513,0.264689,-0.653957,-0.692981,89.684425,34.131359,-170.237560
48021,-5.614708,8.002880,-0.372614,0.228602,-0.414555,-0.041022,-0.679552,-0.122171,-0.084038,-0.056111,0.080039,-0.004032,0.999994,-0.003398,-0.000611,-0.000420,-0.148287,0.264993,-0.651398,-0.695320,89.243870,34.173299,-170.326696
48022,-5.484787,7.724713,-0.252685,0.259331,-0.344820,-0.345296,-0.646439,-0.144718,-0.082677,-0.054814,0.077261,-0.002816,0.999994,-0.003232,-0.000724,-0.000413,-0.148173,0.265187,-0.648934,-0.697571,88.813701,34.213784,-170.431811
48023,-5.103781,7.676054,0.072670,-0.079694,-0.131114,-0.595756,-0.698253,-0.114278,-0.112045,-0.050995,0.076791,0.000429,0.999994,-0.003491,-0.000571,-0.000560,-0.147990,0.265617,-0.646263,-0.699922,88.364640,34.270746,-170.516816
48024,-5.263368,7.477666,-0.394369,0.244290,-0.606057,-0.683243,-0.776530,-0.051874,-0.155292,-0.052575,0.074801,-0.004248,0.999992,-0.003883,-0.000259,-0.000776,-0.147653,0.266461,-0.643298,-0.702399,87.894504,34.353255,-170.560017
48025,-5.299459,7.730158,-0.523114,0.157870,-0.821895,-0.463221,-0.751749,-0.029130,-0.161856,-0.052931,0.077324,-0.005529,0.999993,-0.003759,-0.000146,-0.000809,-0.147295,0.267382,-0.640418,-0.704753,87.446473,34.439582,-170.588605
48026,-5.423668,7.613243,-0.463331,0.311357,-0.792035,-0.492401,-0.784287,-0.013053,-0.161138,-0.054175,0.076157,-0.004935,0.999992,-0.003921,-0.000065,-0.000806,-0.146838,0.268379,-0.637428,-0.707176,86.986125,34.525936,-170.606735
48027,-5.579825,7.179735,-0.482902,0.680269,-0.783997,-0.766218,-0.664016,-0.030949,-0.135849,-0.055749,0.071819,-0.005076,0.999994,-0.003320,-0.000155,-0.000679,-0.146507,0.269138,-0.634873,-0.709251,86.587206,34.596953,-170.637242
48028,-5.703003,7.333812,-0.200731,0.640681,-0.556245,-0.559074,-0.380670,-0.075227,-0.077325,-0.057001,0.073356,-0.002168,0.999998,-0.001903,-0.000376,-0.000387,-0.146491,0.269346,-0.633367,-0.710521,86.334830,34.632912,-170.696461
48029,-5.765030,7.944348,0.017519,0.315521,-0.452524,-0.012473,-0.077561,-0.144906,0.014811,-0.057656,0.079439,0.000103,1.000000,-0.000388,-0.000725,0.000074,-0.146774,0.268791,-0.633006,-0.710993,86.230331,34.613332,-170.800125
48030,-5.760384,8.940392,0.151569,-0.251655,-0.477773,0.810117,0.264860,-0.244466,0.139983,-0.057668,0.089362,0.001564,0.999998,0.001324,-0.001222,0.000700,-0.147390,0.267234,-0.633961,-0.710603,86.286811,34.518531,-170.967138
48031,-5.506017,10.066984,0.582742,-1.139141,-0.239899,1.617302,0.412164,-0.321251,0.240847,-0.055191,0.100591,0.005946,0.999996,0.002061,-0.001606,0.001204,-0.148084,0.264974,-0.635509,-0.709921,86.399807,34.363352,-171.182849
48032,-5.348175,10.251984,0.669268,-1.355141,-0.178775,1.688860,0.291601,-0.325889,0.285383,-0.053639,0.102434,0.006755,0.999997,0.001458,-0.001629,0.001427,-0.148476,0.262643,-0.636684,-0.709653,86.444363,34.182817,-171.399687
48033,-5.267580,9.737603,0.416223,-1.060458,-0.350283,1.209753,0.160897,-0.287944,0.285356,-0.052821,0.097297,0.004165,0.999998,0.000804,-0.001440,0.001427,-0.148573,0.260542,-0.637416,-0.709750,86.428769,34.003661,-171.589899
48034,-5.366100,9.160367,0.155459,-0.587850,-0.508331,0.776339,0.084014,-0.215617,0.259522,-0.053781,0.091533,0.001535,0.999998,0.000420,-0.001078,0.001298,-0.148431,0.258837,-0.637894,-0.709974,86.397389,33.841808,-171.730885
48035,-5.515806,8.749778,0.033217,-0.194567,-0.553675,0.513947,0.020100,-0.164076,0.206447,-0.055249,0.087441,0.000296,0.999999,0.000100,-0.000820,0.001032,-0.148230,0.257531,-0.638111,-0.710296,86.347983,33.712088,-171.838381
48036,-5.378105,8.215510,-0.625040,0.117580,-1.147130,-0.041324,-0.063746,-0.107207,0.166866,-0.053846,0.082108,-0.006305,0.999999,-0.000319,-0.000536,0.000834,-0.147880,0.256611,-0.638024,-0.710780,86.271993,33.606760,-171.908465
48037,-5.344095,7.720471,0.075994,0.249581,-0.390483,-0.434201,0.166416,-0.085811,0.175895,-0.053509,0.077157,0.000801,0.999999,0.000832,-0.000429,0.000879,-0.147724,0.255572,-0.638778,-0.710509,86.335958,33.497292,-171.963152
48038,-5.407516,8.257458,0.630034,-0.068124,0.099902,0.077162,0.187960,-0.025932,0.144699,-0.054136,0.082529,0.006371,0.999999,0.000940,-0.000130,0.000723,-0.147515,0.254827,-0.639615,-0.710067,86.434644,33.407821,-171.978299
48039,-5.218628,8.038784,-0.519628,0.105246,-1.014493,-0.268796,-0.039802,0.025614,0.122912,-0.052236,0.080355,-0.005206,1.000000,-0.000199,0.000128,0.000615,-0.146928,0.254504,-0.639650,-0.710273,86.421228,33.332728,-171.959123
48040,-4.967551,7.700729,-0.278088,0.049891,-0.748956,-0.675311,0.263537,-0.033630,0.188016,-0.049747,0.076964,-0.002688,0.999999,0.001318,-0.000168,0.000940,-0.146687,0.253539,-0.640804,-0.709627,86.561543,33.218380,-171.977722
48041,-4.803293,8.592458,-0.618970,-0.488668,-1.192368,-0.033916,0.444579,0.058162,0.224120,-0.048131,0.085884,-0.005985,0.999997,0.002223,0.000291,0.001121,-0.146250,0.252651,-0.642707,-0.708312,86.839677,33.086393,-171.932797
48042,-4.890793,8.937709,-0.253494,-0.644644,-0.817500,0.325487,0.522850,0.127406,0.282313,-0.049036,0.089314,-0.002270,0.999995,0.002614,0.000637,0.001412,-0.145484,0.251759,-0.645011,-0.706691,87.189668,32.922859,-171.839552
48043,-5.105349,9.019496,1.031287,-0.697441,0.506509,0.566922,0.318012,-0.089792,0.364920,-0.051223,0.090085,0.010433,0.999997,0.001590,-0.000449,0.001825,-0.144867,0.249982,-0.646528,-0.706063,87.342010,32.705883,-171.892522
48044,-4.755802,7.953010,0.554340,-0.309814,0.142005,-0.535885,-0.035777,0.010653,0.388893,-0.047712,0.079438,0.005532,0.999998,-0.000179,0.000053,0.001944,-0.143398,0.248734,-0.646900,-0.706463,87.329521,32.477620,-171.876914
48045,-5.297770,7.073400,0.010711,0.728541,-0.211744,-1.007929,0.033182,0.175948,0.377161,-0.053111,0.070634,0.000166,0.999998,0.000166,0.000880,0.001886,-0.141520,0.248060,-0.647611,-0.706426,87.415513,32.260700,-171.749640
48046,-5.296113,5.797976,-0.072956,1.431022,-0.114596,-2.091963,0.275229,0.270433,0.297038,-0.053048,0.057902,-0.000578,0.999997,0.001376,0.001352,0.001485,-0.139919,0.247809,-0.649146,-0.705424,87.672895,32.091739,-171.561593
48047,-6.164086,5.461811,2.732936,1.877164,2.828948,-1.827108,0.348425,0.130696,0.186033,-0.061674,0.054513,0.027465,0.999998,0.001742,0.000653,0.000930,-0.139253,0.247371,-0.650696,-0.704280,87.918784,31.982462,-171.472209
48048,-6.594427,5.924723,0.438681,2.384988,0.586360,-1.283370,-0.104584,0.185253,-0.068684,-0.065920,0.059272,0.004417,0.999999,-0.000523,0.000926,-0.000343,-0.138747,0.248266,-0.650377,-0.704360,87.921807,32.019910,-171.352707
48049,-7.409248,4.584038,0.629436,3.717573,1.024088,-1.974489,-0.199808,-0.115411,-0.303646,-0.074026,0.045959,0.006206,0.999998,-0.000999,-0.000577,-0.001518,-0.139926,0.248935,-0.649216,-0.704961,87.758614,32.185626,-171.442184
48050,-5.929547,3.095339,0.399555,3.266885,0.776883,-4.014059,0.282565,0.003365,-0.572526,-0.059206,0.031117,0.004040,0.999995,0.001413,0.000017,-0.002863,-0.142271,0.250557,-0.649505,-0.703650,87.911736,32.508186,-171.458193
48051,-5.598145,4.170499,0.966480,2.297446,1.189026,-3.257222,1.066145,-0.043134,-0.498210,-0.055880,0.041792,0.009875,0.999983,0.005331,-0.000216,-0.002491,-0.145479,0.251210,-0.652590,-0.699896,88.497830,32.787099,-171.501945
48052,-4.123656,5.537275,1.580936,0.214727,1.508136,-2.895717,0.899389,-0.013940,-0.439830,-0.041116,0.055391,0.016056,0.999987,0.004497,-0.000070,-0.002199,-0.148179,0.251888,-0.655171,-0.696668,89.001684,33.033522,-171.522069
48053,-4.755714,5.669502,-0.051684,0.889883,0.010350,-2.466235,0.911091,0.160905,-0.416080,-0.047439,0.056795,-0.000220,0.999987,0.004555,0.000805,-0.002080,-0.150230,0.253083,-0.657932,-0.693185,89.578667,33.267478,-171.419435
48054,-4.737091,7.503654,0.480146,-0.240100,0.448235,-0.940495,1.362065,0.124444,-0.333133,-0.047243,0.075080,0.005342,0.999975,0.006810,0.000622,-0.001666,-0.152682,0.253529,-0.662312,-0.688298,90.403035,33.453067,-171.338401
48055,-5.540672,9.934225,1.826862,-1.144273,1.803622,1.508162,1.117414,0.115547,-0.324762,-0.055235,0.099328,0.018856,0.999983,0.005587,0.000578,-0.001624,-0.154815,0.254095,-0.665824,-0.684213,91.085314,33.632787,-171.260206
48056,-5.251026,9.142516,0.811425,-0.843152,0.881210,0.691107,0.373758,-0.101609,-0.351272,-0.052354,0.091502,0.008259,0.999997,0.001869,-0.000508,-0.001756,-0.156817,0.254575,-0.666578,-0.682842,91.260277,33.830002,-171.329603
48057,-4.849237,8.514918,0.788983,-0.858322,0.878702,-0.059106,0.521403,-0.014508,-0.328535,-0.048353,0.085208,0.008108,0.999995,0.002607,-0.000073,-0.001643,-0.158634,0.255160,-0.667927,-0.680884,91.553021,34.012949,-171.338272
48058,-5.463855,9.893788,1.669451,-1.275544,1.784387,1.399653,0.368589,0.026440,-0.285295,-0.054495,0.098985,0.016884,0.999997,0.001843,0.000132,-0.001426,-0.159974,0.255860,-0.668839,-0.679410,91.774543,34.170801,-171.318576
48059,-5.638682,9.673214,0.655646,-0.902721,0.823293,1.336433,-0.019037,-0.144661,-0.260970,-0.056265,0.096806,0.006507,0.999999,-0.000095,-0.000723,-0.001305,-0.161304,0.256206,-0.668325,-0.679471,91.706765,34.317357,-171.417579
48060,-5.226307,9.187284,0.318642,-0.945236,0.444262,0.710195,-0.199534,-0.111017,-0.240011,-0.052154,0.091939,0.003066,0.999999,-0.000998,-0.000555,-0.001200,-0.162222,0.256745,-0.667251,-0.680105,91.548532,34.451772,-171.493849
48061,-5.314255,7.718573,-1.420123,0.166432,-1.211840,-0.413854,-0.227922,-0.129036,-0.216960,-0.053050,0.077227,-0.014323,0.999999,-0.001140,-0.000645,-0.001085,-0.163081,0.257164,-0.666092,-0.680876,91.365724,34.572487,-171.583966
48062,-4.506316,8.106539,-0.465555,-0.852627,-0.395463,-0.573845,0.198000,-0.105049,-0.137972,-0.045005,0.081101,-0.004599,0.999999,0.000990,-0.000525,-0.000690,-0.164142,0.257058,-0.666504,-0.680258,91.435790,34.648068,-171.658684
48063,-5.913495,7.517219,-0.662069,0.638237,-0.381900,-0.254281,0.085888,-0.009595,-0.139963,-0.059082,0.075216,-0.006591,1.000000,0.000429,-0.000048,-0.000700,-0.164744,0.257371,-0.666609,-0.679891,91.479021,34.722940,-171.667155
48064,-5.776214,6.492389,-0.670678,1.096382,-0.337490,-1.172689,0.417610,-0.126135,-0.090224,-0.057729,0.064964,-0.006608,0.999998,0.002088,-0.000631,-0.000451,-0.165995,0.256848,-0.667809,-0.678605,91.665942,34.771401,-171.757710
48065,-5.074490,7.053809,-0.497459,0.175764,-0.244416,-1.114222,0.825061,-0.159323,0.021661,-0.050749,0.070552,-0.004724,0.999991,0.004125,-0.000797,0.000108,-0.167496,0.255498,-0.670499,-0.676089,92.071438,34.756565,-171.873582
48066,-5.211397,7.915415,-0.974558,-0.152181,-0.680111,-0.311315,1.042315,-0.205084,0.088777,-0.052139,0.079181,-0.009386,0.999986,0.005212,-0.001025,0.000444,-0.169200,0.253581,-0.673957,-0.672941,92.582585,34.705496,-172.023280
48067,-5.109755,8.238921,-1.226244,-0.397167,-0.879042,-0.088380,1.037603,-0.177687,0.104278,-0.051130,0.082425,-0.011880,0.999986,0.005188,-0.000888,0.000521,-0.170746,0.251700,-0.677421,-0.669771,93.101019,34.645522,-172.154950
48068,-5.434883,7.567250,-1.777769,0.301449,-1.302162,-0.422544,1.008500,-0.140067,0.108292,-0.054378,0.075732,-0.017434,0.999987,0.005042,-0.000700,0.000541,-0.172113,0.249949,-0.680808,-0.666635,93.617664,34.583150,-172.261313
48069,-5.078857,7.929936,-1.710198,-0.209357,-1.201865,-0.319822,1.145720,-0.080021,0.149868,-0.050841,0.079358,-0.016668,0.999983,0.005729,-0.000400,0.000749,-0.173300,0.248132,-0.684734,-0.662976,94.234850,34.495345,-172.328520
48070,-5.337479,8.617417,-1.147930,-0.441874,-0.524796,0.365469,1.128256,-0.050803,0.196777,-0.053457,0.086185,-0.011007,0.999984,0.005641,-0.000254,0.000984,-0.174208,0.246257,-0.688667,-0.659353,94.852330,34.380313,-172.379163
48071,-5.567457,9.212112,-0.865012,-0.606891,-0.114123,0.968111,1.168962,-0.122342,0.257341,-0.055788,0.092098,-0.008146,0.999982,0.005845,-0.000612,0.001287,-0.175203,0.243894,-0.692719,-0.655713,95.461629,34.234569,-172.484388
48072,-5.188586,10.195467,-0.386075,-1.494153,0.448071,1.526788,1.130233,-0.129280,0.292330,-0.052033,0.101898,-0.003318,0.999983,0.005651,-0.000646,0.001462,-0.176057,0.241416,-0.696659,-0.652219,96.044745,34.070642,-172.598209
48073,-5.574240,11.067758,0.045151,-1.675640,1.036713,2.421954,0.669662,-0.090813,0.251990,-0.055882,0.110605,0.000797,0.999993,0.003348,-0.000454,0.001260,-0.176345,0.239600,-0.699062,-0.650236,96.379185,33.927616,-172.684208
48074,-6.086789,8.776227,-0.115496,0.070005,0.878542,0.831924,0.096481,-0.059343,0.112679,-0.060917,0.087729,-0.001131,1.000000,0.000482,-0.000297,0.000563,-0.176291,0.238876,-0.699462,-0.650087,96.403851,33.862281,-172.738380
48075,-5.505468,8.144005,-2.171277,0.086320,-1.231909,0.178524,0.351164,0.073248,0.064598,-0.055089,0.081460,-0.021550,0.999998,0.001756,0.000366,0.000323,-0.176231,0.238527,-0.700743,-0.648850,96.626368,33.815642,-172.698021
48076,-5.188785,9.540574,-1.788990,-0.979190,-0.791628,1.121706,0.308462,0.026366,0.120576,-0.051948,0.095402,-0.017736,0.999999,0.001542,0.000132,0.000603,-0.176104,0.237871,-0.701912,-0.647861,96.804576,33.740644,-172.694112
48077,-4.373355,10.334027,-0.469700,-2.164211,0.490668,1.197052,0.020631,0.148787,0.160892,-0.043820,0.103306,-0.004654,0.999999,0.000103,0.000744,0.000804,-0.175072,0.237719,-0.702300,-0.647776,96.861681,33.633890,-172.610379
48078,-5.168267,9.807671,-0.454681,-1.193339,0.555692,1.204353,-0.458762,0.276356,0.150826,-0.051763,0.098027,-0.004700,0.999996,-0.002294,0.001382,0.000754,-0.173056,0.238430,-0.701236,-0.649208,96.692921,33.524025,-172.439090
48079,-5.675211,7.539565,-0.442176,0.512638,0.490039,-0.392205,-0.786232,0.311237,0.113727,-0.056802,0.075345,-0.004630,0.999991,-0.003931,0.001556,0.000569,-0.170643,0.239668,-0.699082,-0.651709,96.350934,33.433928,-172.240317
48080,-6.009183,6.073721,-2.141176,1.749300,-1.232187,-1.268295,-0.337008,0.329886,0.087909,-0.060154,0.060675,-0.021415,0.999997,-0.001685,0.001649,0.000440,-0.168788,0.240672,-0.698372,-0.652583,96.274995,33.358092,-172.026607
48081,-5.917001,8.157446,-0.882071,0.431136,0.084554,0.293736,0.088983,0.200953,0.141265,-0.059236,0.081537,-0.008725,0.999999,0.000445,0.001005,0.000706,-0.167719,0.240707,-0.699002,-0.652171,96.391547,33.259830,-171.905097
48082,-5.781272,8.987579,0.168753,-0.210495,1.151667,0.810753,-0.013089,0.088754,0.143451,-0.057876,0.089834,0.001707,1.000000,-0.000065,0.000444,0.000717,-0.166914,0.240454,-0.699210,-0.652248,96.408052,33.167451,-171.860453
48083,-5.716537,8.212670,1.364403,0.083387,2.299371,0.020636,-0.265324,0.104428,0.133376,-0.057213,0.082107,0.013565,0.999999,-0.001327,0.000522,0.000667,-0.165782,0.240498,-0.698591,-0.653183,96.285578,33.079771,-171.804264
48084,-5.114355,6.721716,0.719932,0.470207,1.527366,-1.487879,-0.424654,0.291029,0.085397,-0.051162,0.067211,0.007131,0.999997,-0.002123,0.001455,0.000427,-0.163964,0.241453,-0.697548,-0.654403,96.143508,33.008284,-171.617300
48085,-5.068014,6.738017,-1.394640,0.614615,-0.568224,-1.307985,0.025124,0.518359,0.055126,-0.050735,0.067368,-0.013806,0.999997,0.000126,0.002592,0.000276,-0.161992,0.242884,-0.698119,-0.653755,96.343490,32.939464,-171.274179
48086,-4.701256,10.356224,-1.905536,-1.624930,-0.978548,1.562108,0.437294,0.267765,0.170845,-0.047126,0.103563,-0.018766,0.999996,0.002186,0.001339,0.000854,-0.161019,0.242759,-0.699974,-0.652056,96.682419,32.820104,-171.110415
48087,-4.254625,12.953487,1.257401,-3.696851,2.205116,3.185253,-0.198127,0.314529,0.142172,-0.042619,0.129517,0.012513,0.999998,-0.000991,0.001573,0.000711,-0.159200,0.243395,-0.699753,-0.652503,96.674280,32.713148,-170.913566
48088,-5.594392,11.069548,-0.518767,-1.364852,0.503165,2.515494,-1.340768,0.545667,-0.007528,-0.055955,0.110660,-0.005777,0.999974,-0.006704,0.002728,-0.000038,-0.155666,0.246214,-0.695786,-0.656528,96.102286,32.677703,-170.548209
48089,-6.219148,8.999272,-2.473166,0.517595,-1.477551,1.292700,-1.155194,0.419135,-0.065030,-0.062215,0.089869,-0.025121,0.999981,-0.005776,0.002096,-0.000325,-0.152983,0.248659,-0.692227,-0.659990,95.592432,32.685154,-170.264520
48090,-6.198582,7.737518,-1.017062,1.040637,-0.110235,0.098453,-0.812681,0.169155,0.008817,-0.061998,0.077330,-0.010432,0.999991,-0.004063,0.000846,0.000044,-0.151344,0.249755,-0.689683,-0.662612,95.185222,32.665922,-170.154978
48091,-6.357661,6.628804,-1.074228,1.792669,-0.181416,-0.742505,-0.592138,0.162037,-0.066738,-0.063563,0.066277,-0.010887,0.999995,-0.002961,0.000810,-0.000334,-0.150252,0.250918,-0.687758,-0.664419,94.903807,32.690644,-170.045677
48092,-6.137729,7.048405,-2.088238,1.512445,-1.238402,-0.437649,-0.086829,-0.006119,-0.017935,-0.061370,0.070480,-0.020915,1.000000,-0.000434,-0.000031,-0.000090,-0.150213,0.250969,-0.687451,-0.664726,94.849906,32.695921,-170.053694
48093,-5.496773,8.235370,-0.146860,0.091367,0.575683,0.072535,0.124833,-0.133859,0.061749,-0.054992,0.082338,-0.001454,1.000000,0.000624,-0.000669,0.000309,-0.150610,0.250167,-0.687844,-0.664533,94.866874,32.661948,-170.152590
48094,-5.449044,8.429745,-0.042880,-0.063819,0.665746,0.202661,-0.153877,0.027162,-0.023338,-0.054481,0.084303,-0.000486,1.000000,-0.000769,0.000136,-0.000117,-0.150389,0.250405,-0.687325,-0.665029,94.786210,32.669068,-170.137054
48095,-4.974925,9.096676,-0.403363,-0.775063,0.220596,0.532007,-0.167836,0.023764,-0.045108,-0.049729,0.090975,-0.004104,1.000000,-0.000839,0.000119,-0.000226,-0.150233,0.250714,-0.686729,-0.665564,94.696515,32.688475,-170.122927
48096,-5.027653,10.014194,0.220070,-1.313226,0.804912,1.288537,-0.483425,0.111291,-0.093097,-0.050229,0.100170,0.001987,0.999997,-0.002417,0.000556,-0.000465,-0.149541,0.251720,-0.685088,-0.667031,94.460022,32.731734,-170.046412
48097,-5.359266,9.409097,-0.297329,-0.643774,0.288622,0.996704,-0.915021,0.114805,-0.131283,-0.053533,0.094111,-0.003373,0.999989,-0.004575,0.000574,-0.000656,-0.148417,0.253183,-0.681950,-0.669937,93.977950,32.796652,-169.966299
48098,-5.126254,8.262354,-0.595413,-0.170373,-0.092011,-0.073003,-1.033218,0.094522,-0.131627,-0.051211,0.082625,-0.006357,0.999986,-0.005166,0.000473,-0.000658,-0.147212,0.254662,-0.678385,-0.673253,93.420648,32.863277,-169.900412
48099,-5.362929,7.222518,-1.022686,0.657271,-0.516386,-0.797554,-0.983952,0.070191,-0.107710,-0.053594,0.072203,-0.010563,0.999988,-0.004920,0.000351,-0.000539,-0.146066,0.255934,-0.674980,-0.676435,92.881516,32.917359,-169.852920
48100,-5.518584,6.945799,-0.614982,0.883405,-0.137056,-0.965219,-0.704876,-0.037453,-0.023399,-0.055177,0.069442,-0.006405,0.999994,-0.003524,-0.000187,-0.000117,-0.145356,0.256344,-0.672540,-0.678859,92.461083,32.926166,-169.882453
48101,-5.497979,7.574145,-0.468663,0.511952,-0.076328,-0.456032,-0.516400,-0.090913,-0.002508,-0.054977,0.075730,-0.004907,0.999997,-0.002582,-0.000455,-0.000013,-0.144992,0.256367,-0.670716,-0.680730,92.128059,32.924305,-169.948666
48102,-4.975845,9.214281,-0.334769,-0.818669,-0.163152,0.631308,-0.474326,-0.141113,0.010995,-0.049761,0.092132,-0.003601,0.999997,-0.002372,-0.000706,0.000055,-0.144804,0.256143,-0.669013,-0.682528,91.800408,32.915437,-170.049341
48103,-4.820303,9.957006,0.003371,-1.391893,0.033025,1.161748,-0.859856,-0.016595,-0.057756,-0.048174,0.099583,-0.000398,0.999991,-0.004299,-0.000083,-0.000289,-0.143938,0.256849,-0.665987,-0.685399,91.298734,32.943345,-170.063790
48104,-5.475521,9.134763,-0.761022,-0.275047,-0.664538,0.840301,-1.191971,0.040333,-0.131408,-0.054697,0.091336,-0.008144,0.999982,-0.005960,0.000202,-0.000657,-0.142703,0.258235,-0.661750,-0.689230,90.628358,33.013275,-170.038055
48105,-5.569584,8.459201,-0.481316,0.126913,-0.425635,0.317061,-1.264164,0.028695,-0.178710,-0.055621,0.084609,-0.005340,0.999980,-0.006321,0.000143,-0.000894,-0.141572,0.259771,-0.657171,-0.693255,89.911692,33.110083,-170.021914
48106,-5.743621,6.785848,-0.839766,1.236116,-0.689750,-0.995786,-1.311067,0.041504,-0.232273,-0.057359,0.067868,-0.008831,0.999978,-0.006555,0.000208,-0.001161,-0.140516,0.261559,-0.652337,-0.697351,89.172046,33.238450,-169.997752
48107,-5.802758,6.030161,-0.769955,1.679119,-0.605391,-1.600417,-0.943635,-0.080584,-0.198046,-0.057965,0.060322,-0.008007,0.999988,-0.004718,-0.000403,-0.000990,-0.140217,0.262533,-0.648725,-0.700408,88.596318,33.345415,-170.059523
48108,-5.450594,6.890194,-0.216285,0.821393,-0.270642,-1.067266,-0.556170,-0.151465,-0.182320,-0.054441,0.068945,-0.002396,0.999995,-0.002781,-0.000757,-0.000912,-0.140598,0.262940,-0.646428,-0.702300,88.215407,33.442404,-170.170021
48109,-5.315039,8.220421,0.307713,-0.110084,0.005506,-0.019464,-0.538384,-0.189569,-0.194747,-0.053073,0.082264,0.002805,0.999995,-0.002692,-0.000948,-0.000974,-0.141169,0.263231,-0.644147,-0.704170,87.829296,33.544537,-170.308612
48110,-5.090410,8.681007,0.297343,-0.548965,-0.163010,0.238788,-0.757809,-0.137371,-0.233817,-0.050804,0.086880,0.002609,0.999992,-0.003789,-0.000687,-0.001169,-0.141419,0.263984,-0.641071,-0.706640,87.336187,33.669602,-170.413379
48111,-5.201895,8.714245,0.029451,-0.432856,-0.496374,0.314714,-0.896290,-0.093749,-0.257973,-0.051907,0.087210,-0.000121,0.999989,-0.004481,-0.000469,-0.001290,-0.141428,0.265061,-0.637492,-0.709468,86.778537,33.808770,-170.490718
48112,-5.370606,8.531796,0.471029,-0.292672,-0.106914,0.274875,-1.058733,-0.084324,-0.288417,-0.053585,0.085419,0.004236,0.999985,-0.005294,-0.000422,-0.001442,-0.141296,0.266379,-0.633286,-0.712760,86.129645,33.965294,-170.564361
48113,-5.117183,8.198664,-0.044855,-0.227574,-0.697718,-0.175984,-1.266216,-0.016649,-0.348552,-0.051029,0.082071,-0.000972,0.999978,-0.006331,-0.000083,-0.001743,-0.140883,0.268262,-0.628285,-0.716551,85.384581,34.157990,-170.597242
48114,-5.434830,7.524951,-0.657890,0.513428,-1.243180,-0.604804,-1.319276,0.029588,-0.367903,-0.054211,0.075304,-0.007067,0.999977,-0.006596,0.000148,-0.001839,-0.140318,0.270395,-0.623076,-0.720398,84.624949,34.363538,-170.602631
48115,-5.536917,6.785829,-0.598776,0.975363,-1.128640,-1.161810,-1.176717,-0.022729,-0.345238,-0.055251,0.067917,-0.006394,0.999981,-0.005884,-0.000114,-0.001726,-0.140020,0.272159,-0.618345,-0.723860,83.925226,34.553228,-170.645675
48116,-5.476917,6.092321,-0.456492,1.261330,-0.935484,-1.759428,-0.887976,-0.068531,-0.308427,-0.054674,0.060986,-0.004854,0.999989,-0.004440,-0.000343,-0.001542,-0.140120,0.273431,-0.614662,-0.726493,83.373424,34.718493,-170.720420
48117,-5.358117,6.294645,0.069983,0.927348,-0.533724,-1.615621,-0.492649,-0.119837,-0.254909,-0.053501,0.063016,0.000513,0.999996,-0.002463,-0.000599,-0.001275,-0.140721,0.274074,-0.612439,-0.728011,83.028761,34.849508,-170.827762
48118,-5.373567,7.066785,0.275190,0.464106,-0.528649,-0.958566,-0.201575,-0.136040,-0.211638,-0.053663,0.070727,0.002644,0.999999,-0.001008,-0.000680,-0.001058,-0.141614,0.274314,-0.611327,-0.728681,82.846703,34.954125,-170.943879
