PacketCounter,Acc_X,Acc_Y,Acc_Z,FreeAcc_E,FreeAcc_N,FreeAcc_U,Gyr_X,Gyr_Y,Gyr_Z,VelInc_X,VelInc_Y,VelInc_Z,OriInc_q0,OriInc_q1,OriInc_q2,OriInc_q3,Quat_q0,Quat_q1,Quat_q2,Quat_q3,Roll,Pitch,Yaw
43489,-2.237496,2.644640,10.602402,-2.115318,-2.499768,0.849722,0.224608,-0.978158,0.139213,-0.022912,0.026312,0.105942,0.999987,0.001123,-0.004891,0.000696,-0.248924,-0.249447,0.006145,0.935829,8.810022,27.633906,-148.038493
43490,-0.564056,4.157760,11.177759,-2.874942,-4.616778,0.815904,0.021676,-0.632614,0.194184,-0.006034,0.041560,0.111763,0.999995,0.000108,-0.003163,0.000971,-0.249836,-0.246472,0.007266,0.936366,8.849703,27.254625,-147.971837
43491,-1.351603,2.315670,10.233591,-2.652334,-2.506928,0.116860,-0.101006,-0.267594,0.087464,-0.013663,0.023202,0.102306,0.999999,-0.000505,-0.001338,0.000437,-0.250409,-0.245066,0.007216,0.936582,8.803354,27.092895,-147.937521
43492,-4.028673,1.437462,9.215478,-0.551038,-0.356630,0.325888,-0.002495,-0.083672,0.030561,-0.040327,0.014370,0.092138,1.000000,-0.000012,-0.000418,0.000153,-0.250605,-0.244627,0.007343,0.936643,8.806481,27.037706,-147.920707
43493,-4.363903,1.305942,8.724526,-0.124930,-0.023859,0.028568,0.010242,-0.089014,0.038058,-0.043680,0.013047,0.087226,1.000000,0.000051,-0.000445,0.000190,-0.250816,-0.244198,0.007529,0.936697,8.817515,26.981431,-147.900200
43494,-4.751383,1.198267,8.551421,0.205291,0.279324,0.037090,-0.001515,-0.095177,0.043619,-0.047557,0.011973,0.085491,1.000000,-0.000008,-0.000476,0.000218,-0.251072,-0.243705,0.007691,0.936756,8.824377,26.918511,-147.876276
43495,-4.770529,0.770867,8.525318,0.041418,0.672743,-0.036240,0.017822,-0.129527,0.056860,-0.047763,0.007688,0.085223,1.000000,0.000089,-0.000648,0.000284,-0.251360,-0.243095,0.007987,0.936835,8.843278,26.837638,-147.847879
43496,-4.452582,1.059695,8.684010,-0.126640,0.265255,-0.000753,0.063745,-0.153514,0.073508,-0.044596,0.010553,0.086809,1.000000,0.000319,-0.000768,0.000368,-0.251673,-0.242410,0.008563,0.936923,8.893253,26.739166,-147.810916
43497,-4.047760,1.902892,8.834235,-0.098680,-0.663832,0.066515,0.089675,-0.138053,0.072618,-0.040545,0.018975,0.088323,1.000000,0.000448,-0.000690,0.000363,-0.251947,-0.241849,0.009225,0.936988,8.957261,26.652026,-147.773574
43498,-4.009108,2.368956,8.888590,0.074060,-1.081214,0.163154,0.026974,-0.122822,0.048378,-0.040151,0.023668,0.088864,1.000000,0.000135,-0.000614,0.000242,-0.252188,-0.241263,0.009560,0.937071,8.980216,26.573093,-147.749697
43499,-4.086393,2.385631,8.880516,0.155874,-1.052229,0.193406,-0.057111,-0.121119,0.006056,-0.040918,0.023880,0.088774,1.000000,-0.000286,-0.000606,0.000030,-0.252328,-0.240599,0.009433,0.937205,8.941921,26.501456,-147.752886
43500,-4.494600,1.625877,8.713552,0.201670,-0.177964,0.122025,-0.123329,-0.136976,-0.029571,-0.045003,0.016319,0.087095,1.000000,-0.000617,-0.000685,-0.000148,-0.252385,-0.239760,0.008989,0.937409,8.856411,26.421359,-147.779512
43501,-4.431028,1.207924,8.763687,-0.045282,0.147137,0.080319,-0.134136,-0.163714,-0.027945,-0.044380,0.012144,0.087592,0.999999,-0.000671,-0.000819,-0.000140,-0.252455,-0.238800,0.008514,0.937640,8.762689,26.328581,-147.808145
43502,-4.298461,0.813904,8.795462,-0.324399,0.422370,-0.003728,-0.102253,-0.166209,-0.019696,-0.043057,0.008188,0.087915,1.000000,-0.000511,-0.000831,-0.000098,-0.252531,-0.237851,0.008218,0.937863,8.690970,26.231050,-147.831071
43503,-4.143254,0.768331,8.886850,-0.487381,0.379387,0.003193,-0.055200,-0.143314,0.009821,-0.041497,0.007706,0.088837,1.000000,-0.000276,-0.000717,0.000049,-0.252685,-0.237084,0.008132,0.938017,8.654074,26.146504,-147.833609
43504,-3.982170,1.084915,8.927756,-0.466628,0.027437,0.011825,0.009471,-0.115158,0.030201,-0.039875,0.010839,0.089255,1.000000,0.000047,-0.000576,0.000151,-0.252863,-0.236512,0.008353,0.938111,8.662330,26.073563,-147.820078
43505,-3.972027,1.485798,8.942777,-0.284287,-0.321133,0.075381,0.023869,-0.089166,0.038675,-0.039763,0.014840,0.089412,1.000000,0.000119,-0.000446,0.000193,-0.253061,-0.236098,0.008604,0.938160,8.681019,26.017194,-147.799215
43506,-4.089441,1.529432,8.892623,-0.144951,-0.290574,0.088625,0.007434,-0.080468,0.039981,-0.040933,0.015283,0.088910,1.000000,0.000037,-0.000402,0.000200,-0.253289,-0.235685,0.008783,0.938200,8.692182,25.962983,-147.776257
43507,-4.232874,1.355703,8.871190,-0.101396,-0.062622,0.108954,-0.001867,-0.074358,0.041926,-0.042365,0.013549,0.088696,1.000000,-0.000009,-0.000372,0.000210,-0.253533,-0.235308,0.008898,0.938228,8.697590,25.914712,-147.751964
43508,-4.114893,1.442850,8.867366,-0.141930,-0.189185,0.065996,0.005068,-0.066077,0.042350,-0.041181,0.014418,0.088660,1.000000,0.000025,-0.000330,0.000212,-0.253775,-0.234959,0.009051,0.938249,8.708608,25.868425,-147.726163
43509,-4.035836,1.553695,8.882035,-0.150920,-0.320206,0.059859,0.003828,-0.059283,0.041028,-0.040388,0.015527,0.088809,1.000000,0.000019,-0.000296,0.000205,-0.254009,-0.234659,0.009172,0.938259,8.717617,25.828762,-147.701017
43510,-4.106221,1.459886,8.912008,-0.149581,-0.203654,0.104588,-0.016084,-0.047610,0.036557,-0.041086,0.014599,0.089109,1.000000,-0.000080,-0.000238,0.000183,-0.254250,-0.234370,0.009196,0.938266,8.715679,25.793402,-147.677103
43511,-4.065673,1.180910,8.894265,-0.299745,0.024472,0.033212,-0.000970,-0.046666,0.032415,-0.040679,0.011803,0.088933,1.000000,-0.000005,-0.000233,0.000162,-0.254449,-0.234124,0.009269,0.938273,8.720076,25.761630,-147.656176
43512,-4.003227,1.403320,8.927778,-0.253222,-0.198467,0.066424,0.015102,-0.035062,0.031412,-0.040050,0.014020,0.089272,1.000000,0.000076,-0.000175,0.000157,-0.254630,-0.233934,0.009417,0.938270,8.735062,25.733796,-147.634321
43513,-4.060078,1.469563,8.917445,-0.172014,-0.223714,0.091102,0.015572,-0.022754,0.037518,-0.040614,0.014681,0.089171,1.000000,0.000078,-0.000114,0.000188,-0.254835,-0.233821,0.009543,0.938241,8.751304,25.715113,-147.607900
43514,-4.151186,1.389131,8.895750,-0.129308,-0.103945,0.100379,0.003995,-0.019032,0.034258,-0.041523,0.013882,0.088954,1.000000,0.000020,-0.000095,0.000171,-0.255042,-0.233691,0.009621,0.938216,8.761352,25.696061,-147.582728
43515,-4.075026,1.216268,8.887630,-0.264664,0.013483,0.036418,0.021228,-0.011360,0.033079,-0.040757,0.012147,0.088875,1.000000,0.000106,-0.000057,0.000165,-0.255220,-0.233638,0.009754,0.938179,8.780082,25.684207,-147.558009
43516,-4.151995,1.281797,8.905584,-0.183702,-0.003768,0.094771,0.040094,0.004692,0.037833,-0.041520,0.012792,0.089059,1.000000,0.000200,0.000023,0.000189,-0.255404,-0.233665,0.009976,0.938120,8.812729,25.678249,-147.528320
43517,-3.985268,1.478565,8.938950,-0.234415,-0.254216,0.079419,0.053410,0.006688,0.028277,-0.039852,0.014756,0.089395,1.000000,0.000267,0.000033,0.000141,-0.255523,-0.233739,0.010231,0.938067,8.849343,25.677012,-147.504872
43518,-4.192746,1.471890,8.912886,-0.070757,-0.141230,0.145232,0.032354,0.017193,0.021203,-0.041921,0.014700,0.089135,1.000000,0.000162,0.000086,0.000106,-0.255638,-0.233815,0.010381,0.938015,8.873537,25.679544,-147.484419
43519,-4.155115,1.310363,8.882641,-0.165325,-0.013056,0.079524,0.043256,0.012034,0.018152,-0.041547,0.013081,0.088832,1.000000,0.000216,0.000060,0.000091,-0.255721,-0.233902,0.010569,0.937969,8.901805,25.682208,-147.466807
43520,-4.063747,1.553974,8.893880,-0.126501,-0.265878,0.083942,0.051514,0.006925,0.017869,-0.040636,0.015513,0.088944,1.000000,0.000258,0.000035,0.000089,-0.255797,-0.233955,0.010818,0.937932,8.935617,25.679210,-147.449461
43521,-4.110002,1.651600,8.871926,-0.037250,-0.322981,0.098179,0.024627,0.006669,0.009471,-0.041098,0.016503,0.088723,1.000000,0.000123,0.000033,0.000047,-0.255862,-0.233992,0.010916,0.937904,8.950620,25.679596,-147.437828
43522,-4.211061,1.342932,8.869068,-0.106323,-0.003542,0.096175,0.015802,0.002337,0.002168,-0.042110,0.013422,0.088692,1.000000,0.000079,0.000012,0.000011,-0.255906,-0.233979,0.010986,0.937894,8.959540,25.675373,-147.430780
43523,-4.099559,1.429591,8.861489,-0.146997,-0.130584,0.053287,0.027720,-0.002436,-0.003286,-0.040996,0.014284,0.088616,1.000000,0.000139,-0.000012,-0.000016,-0.255906,-0.233978,0.011095,0.937893,8.972452,25.671741,-147.428060
43524,-4.127099,1.371376,8.880620,-0.162149,-0.066338,0.074089,0.023743,-0.006667,-0.012405,-0.041273,0.013706,0.088806,1.000000,0.000119,-0.000033,-0.000062,-0.255873,-0.233933,0.011196,0.937912,8.981551,25.663726,-147.431066
43525,-4.049878,1.595459,8.882197,-0.115052,-0.297168,0.073610,0.022113,-0.006223,-0.012049,-0.040501,0.015947,0.088822,1.000000,0.000111,-0.000031,-0.000060,-0.255838,-0.233909,0.011273,0.937927,8.988704,25.658734,-147.434226
43526,-4.167298,1.567293,8.869494,-0.032588,-0.213251,0.109217,0.006805,-0.010216,-0.017177,-0.041676,0.015673,0.088693,1.000000,0.000034,-0.000051,-0.000086,-0.255801,-0.233826,0.011294,0.937957,8.986655,25.649125,-147.440578
43527,-4.170085,1.452719,8.879956,-0.087936,-0.113497,0.103613,0.000133,-0.012955,-0.024280,-0.041705,0.014532,0.088797,1.000000,0.000001,-0.000065,-0.000121,-0.255735,-0.233742,0.011263,0.937997,8.977604,25.641417,-147.452084
43528,-4.114446,1.430129,8.891916,-0.143842,-0.121968,0.087037,-0.004454,-0.016557,-0.015199,-0.041151,0.014306,0.088915,1.000000,-0.000022,-0.000083,-0.000076,-0.255720,-0.233615,0.011241,0.938032,8.969386,25.628046,-147.457815
43529,-4.059813,1.280054,8.873887,-0.247030,-0.016289,0.026276,0.006337,-0.004862,-0.010702,-0.040600,0.012800,0.088738,1.000000,0.000032,-0.000024,-0.000054,-0.255711,-0.233576,0.011244,0.938045,8.967927,25.623703,-147.459992
43530,-4.074481,1.534711,8.903098,-0.127320,-0.232240,0.094469,0.018357,-0.003673,-0.008378,-0.040746,0.015341,0.089032,1.000000,0.000092,-0.000018,-0.000042,-0.255702,-0.233538,0.011321,0.938056,8.975155,25.617003,-147.460177
43531,-4.161508,1.552144,8.831349,-0.020205,-0.197750,0.070658,-0.001872,-0.010038,-0.015947,-0.041618,0.015526,0.088311,1.000000,-0.000009,-0.000050,-0.000080,-0.255677,-0.233465,0.011286,0.938081,8.967349,25.610200,-147.466159
43532,-4.028392,1.454069,8.905070,-0.198188,-0.184485,0.065026,-0.004806,-0.019028,-0.030235,-0.040290,0.014549,0.089047,1.000000,-0.000024,-0.000095,-0.000151,-0.255593,-0.233326,0.011248,0.938139,8.954745,25.596756,-147.481570
43533,-3.191936,1.117950,9.064418,-1.065130,-0.315788,-0.201875,0.030335,0.048223,-0.113648,-0.031891,0.011184,0.090654,1.000000,0.000152,0.000241,-0.000568,-0.255075,-0.233573,0.011176,0.938219,8.941371,25.631632,-147.543114
43534,-4.439333,1.728382,8.880014,0.247182,-0.228904,0.258863,0.096855,0.097969,-0.158804,-0.044336,0.017276,0.088830,0.999999,0.000484,0.000490,-0.000794,-0.254275,-0.234119,0.011316,0.938299,8.957000,25.695742,-147.627715
43535,-4.179734,0.724064,8.845216,-0.416282,0.517888,-0.025410,0.028355,0.055697,-0.148036,-0.041767,0.007259,0.088465,1.000000,0.000142,0.000278,-0.000740,-0.253599,-0.234400,0.011185,0.938413,8.933316,25.737909,-147.710179
43536,-4.473040,1.330722,8.832125,0.090480,0.132236,0.175288,0.179523,0.069360,-0.085404,-0.044694,0.013247,0.088349,0.999999,0.000898,0.000347,-0.000427,-0.253044,-0.234912,0.011834,0.938427,9.014928,25.779346,-147.751550
43537,-4.165171,1.849733,8.893037,0.061451,-0.470496,0.168851,0.077005,0.066400,-0.048662,-0.041618,0.018473,0.088951,1.000000,0.000385,0.000332,-0.000243,-0.252777,-0.235299,0.012034,0.938399,9.046664,25.818743,-147.770475
43538,-4.281101,1.655006,8.787762,0.098170,-0.232774,0.098307,0.076110,0.043714,-0.016027,-0.042790,0.016520,0.087893,1.000000,0.000381,0.000219,-0.000080,-0.252668,-0.235556,0.012313,0.938361,9.086919,25.839500,-147.770736
43539,-4.255846,1.961054,8.844351,0.192592,-0.516137,0.181162,0.004397,0.025594,0.001178,-0.042547,0.019608,0.088449,1.000000,0.000022,0.000128,0.000006,-0.252718,-0.235657,0.012282,0.938322,9.088926,25.851317,-147.762396
43540,-4.314285,1.610795,8.784665,0.099973,-0.178066,0.103782,-0.031563,0.004925,0.006879,-0.043141,0.016120,0.087845,1.000000,-0.000158,0.000025,0.000034,-0.252840,-0.235595,0.012132,0.938307,9.072161,25.848078,-147.752107
43541,-4.238541,1.688481,8.837156,0.058490,-0.290017,0.128338,-0.058870,-0.018188,0.007114,-0.042394,0.016909,0.088363,1.000000,-0.000294,-0.000091,0.000036,-0.252990,-0.235411,0.011867,0.938316,9.037629,25.834592,-147.744430
43542,-4.086559,1.588784,8.883537,-0.119001,-0.284497,0.089147,-0.078745,-0.016837,-0.002938,-0.040873,0.015923,0.088826,1.000000,-0.000394,-0.000084,-0.000015,-0.253121,-0.235188,0.011512,0.938341,8.990239,25.819955,-147.742465
43543,-3.929380,1.418355,9.029567,-0.379093,-0.231757,0.126498,-0.072029,0.003914,-0.023781,-0.039290,0.014221,0.090291,1.000000,-0.000360,0.000020,-0.000119,-0.253142,-0.235092,0.011121,0.938364,8.940670,25.821747,-147.751998
43544,-3.874366,1.349076,9.040154,-0.459004,-0.206463,0.102038,-0.033210,0.099858,-0.048774,-0.038695,0.013515,0.090419,1.000000,-0.000166,0.000499,-0.000244,-0.253011,-0.235476,0.010778,0.938307,8.911842,25.877195,-147.767311
43545,-4.062026,1.492976,8.999751,-0.240089,-0.247416,0.167577,0.004036,0.160530,-0.057956,-0.040544,0.014940,0.090030,1.000000,0.000020,0.000803,-0.000290,-0.252791,-0.236213,0.010505,0.938184,8.903185,25.970662,-147.782914
43546,-4.406742,1.245757,8.813919,-0.023755,0.140643,0.118882,-0.034389,0.191146,-0.045899,-0.043980,0.012483,0.088179,1.000000,-0.000172,0.000956,-0.000229,-0.252679,-0.237023,0.010045,0.938015,8.878341,26.077463,-147.787487
43547,-4.262379,1.616938,8.791233,0.039309,-0.262543,0.086689,-0.045639,0.143085,-0.036320,-0.042558,0.016197,0.087939,1.000000,-0.000228,0.000715,-0.000182,-0.252619,-0.237614,0.009587,0.937887,8.846378,26.159133,-147.791271
43548,-4.335540,1.543458,8.805198,0.048409,-0.177839,0.120927,-0.110256,0.104324,-0.041991,-0.043306,0.015492,0.088066,1.000000,-0.000551,0.000522,-0.000210,-0.252611,-0.237920,0.008884,0.937818,8.775314,26.216461,-147.802043
43549,-4.314364,1.450006,8.774433,0.001378,-0.117707,0.071292,-0.114966,0.064968,-0.048575,-0.043112,0.014561,0.087750,1.000000,-0.000575,0.000325,-0.000243,-0.252571,-0.238058,0.008186,0.937800,8.696761,26.254951,-147.821348
43550,-4.290361,1.711164,8.874885,0.063566,-0.381472,0.184777,-0.141671,0.040129,-0.051449,-0.042881,0.017186,0.088745,1.000000,-0.000708,0.000201,-0.000257,-0.252553,-0.238024,0.007406,0.937820,8.602247,26.276730,-147.844448
43551,-4.293948,1.425529,8.895228,-0.072229,-0.148345,0.165688,-0.152663,0.036141,-0.065496,-0.042919,0.014337,0.088949,1.000000,-0.000763,0.000181,-0.000327,-0.252477,-0.237979,0.006547,0.937859,8.496065,26.300271,-147.877333
43552,-4.428412,0.852471,8.809394,-0.196117,0.410722,0.073454,-0.118693,0.031695,-0.060543,-0.044268,0.008590,0.088096,1.000000,-0.000593,0.000158,-0.000303,-0.252388,-0.237935,0.005875,0.937898,8.411800,26.317970,-147.907056
43553,-4.024820,0.656164,8.862606,-0.616631,0.373919,-0.083584,-0.047236,0.032069,-0.049511,-0.040232,0.006593,0.088631,1.000000,-0.000236,0.000160,-0.000248,-0.252261,-0.238003,0.005534,0.937917,8.370281,26.337786,-147.930295
43554,-4.156859,1.075858,8.898413,-0.335444,0.061842,0.061641,-0.000793,0.035497,-0.033076,-0.041551,0.010766,0.088991,1.000000,-0.000004,0.000177,-0.000165,-0.252161,-0.238125,0.005442,0.937914,8.361240,26.355317,-147.942405
43555,-4.200260,1.140568,8.796004,-0.228307,0.034660,-0.001498,0.007567,0.033527,-0.024044,-0.041986,0.011407,0.087968,1.000000,0.000038,0.000168,-0.000120,-0.252089,-0.238268,0.005386,0.937897,8.358314,26.373826,-147.949416
43556,-4.131189,0.993500,8.806738,-0.356432,0.127532,-0.041858,0.006129,0.024524,-0.024243,-0.041300,0.009937,0.088073,1.000000,0.000031,0.000123,-0.000121,-0.252021,-0.238346,0.005350,0.937895,8.355196,26.384389,-147.956991
43557,-4.108921,1.452913,8.798350,-0.155852,-0.283825,0.000584,0.043935,0.020723,-0.044662,-0.041077,0.014519,0.087991,1.000000,0.000220,0.000104,-0.000223,-0.251808,-0.238476,0.005457,0.937919,8.366774,26.397359,-147.978241
43558,-4.220172,1.764389,8.694669,0.120417,-0.493135,-0.001342,-0.013814,0.019659,-0.052933,-0.042188,0.017661,0.086950,1.000000,-0.000069,0.000098,-0.000265,-0.251630,-0.238507,0.005300,0.937960,8.343920,26.407532,-148.004442
43559,-4.055484,1.525001,8.819894,-0.171412,-0.382619,0.005017,-0.071502,0.005246,-0.076044,-0.040547,0.015297,0.088195,1.000000,-0.000358,0.000026,-0.000380,-0.251407,-0.238419,0.004847,0.938044,8.279872,26.414310,-148.047005
43560,-4.182888,1.554206,8.766350,-0.032160,-0.351262,0.017703,-0.085909,0.010126,-0.088128,-0.041818,0.015598,0.087659,1.000000,-0.000430,0.000051,-0.000441,-0.251149,-0.238316,0.004322,0.938142,8.205470,26.421904,-148.096359
43561,-4.169434,2.254968,8.942255,0.212969,-1.001891,0.256266,-0.117423,0.002080,-0.101941,-0.041682,0.022623,0.089410,1.000000,-0.000587,0.000010,-0.000510,-0.250859,-0.238156,0.003627,0.938263,8.107663,26.428888,-148.155637
43562,-4.429196,1.744290,8.822580,0.234540,-0.436244,0.199949,-0.217223,-0.000324,-0.100227,-0.044283,0.017561,0.088207,0.999999,-0.001086,-0.000002,-0.000501,-0.250700,-0.237839,0.002486,0.938390,7.954315,26.431334,-148.213573
43563,-4.303805,0.955853,8.813721,-0.214529,0.174582,0.038278,-0.210291,-0.015244,-0.105678,-0.043040,0.009674,0.088124,0.999999,-0.001051,-0.000076,-0.000528,-0.250503,-0.237481,0.001373,0.938536,7.801546,26.428521,-148.276778
43564,-4.211706,0.649009,8.845952,-0.431524,0.378353,-0.010588,-0.161390,-0.008234,-0.099174,-0.042117,0.006582,0.088452,1.000000,-0.000807,-0.000041,-0.000496,-0.250282,-0.237196,0.000505,0.938668,7.680192,26.426159,-148.334747
43565,-4.215665,0.419101,8.844098,-0.527221,0.567894,-0.036948,-0.102671,-0.006575,-0.093308,-0.042158,0.004256,0.088437,1.000000,-0.000513,-0.000033,-0.000467,-0.250014,-0.237013,-0.000100,0.938785,7.592914,26.427088,-148.389355
43566,-4.164908,0.304194,8.824839,-0.606634,0.639676,-0.089541,-0.011502,0.005888,-0.071746,-0.041645,0.003062,0.088249,1.000000,-0.000058,0.000029,-0.000359,-0.249744,-0.236981,-0.000251,0.938865,7.565531,26.430531,-148.428818
43567,-4.107493,0.981522,8.825879,-0.333792,0.018411,-0.034177,0.058937,0.015527,-0.061434,-0.041065,0.009802,0.088265,1.000000,0.000295,0.000078,-0.000307,-0.249434,-0.237104,-0.000086,0.938917,7.580669,26.441552,-148.461351
43568,-4.177798,1.330114,8.836671,-0.124055,-0.253689,0.047850,0.047267,0.015959,-0.043044,-0.041768,0.013289,0.088373,1.000000,0.000236,0.000080,-0.000215,-0.249228,-0.237192,0.000059,0.938949,7.595287,26.448537,-148.481826
43569,-4.264129,1.121588,8.659968,-0.079376,-0.009108,-0.095207,0.034397,0.015818,-0.033024,-0.042633,0.011208,0.086605,1.000000,0.000172,0.000079,-0.000165,-0.249081,-0.237286,0.000142,0.938964,7.604394,26.457584,-148.496312
43570,-4.260664,1.550790,8.724605,0.088770,-0.393189,0.011490,0.033199,0.001058,-0.030309,-0.042604,0.015500,0.087249,1.000000,0.000166,0.000005,-0.000152,-0.248952,-0.237287,0.000254,0.938998,7.613989,26.455152,-148.509968
43571,-4.315538,1.698517,8.684826,0.218924,-0.493109,0.018078,-0.031901,-0.018352,-0.026489,-0.043161,0.017005,0.086842,1.000000,-0.000160,-0.000092,-0.000132,-0.248914,-0.237137,0.000076,0.939046,7.585670,26.444298,-148.523199
43572,-4.275029,1.427417,8.705001,0.058594,-0.280393,-0.014301,-0.077371,-0.042833,-0.026850,-0.042767,0.014314,0.087035,1.000000,-0.000387,-0.000214,-0.000134,-0.248932,-0.236795,-0.000271,0.939128,7.531356,26.416683,-148.538307
43573,-4.330667,1.293331,8.924119,-0.049089,-0.168752,0.189131,-0.104578,-0.067218,-0.042712,-0.043334,0.012989,0.089220,1.000000,-0.000523,-0.000336,-0.000214,-0.248904,-0.236325,-0.000749,0.939253,7.455033,26.379260,-148.565874
43574,-4.336034,0.911334,8.842895,-0.175122,0.172684,0.075084,-0.093147,-0.085172,-0.039097,-0.043396,0.009163,0.088406,1.000000,-0.000466,-0.000426,-0.000195,-0.248883,-0.235764,-0.001131,0.939399,7.386770,26.328477,-148.592152
43575,-4.171236,0.897371,8.862909,-0.304376,0.101930,0.018518,-0.066871,-0.090300,-0.034685,-0.041751,0.009011,0.088607,1.000000,-0.000334,-0.000452,-0.000173,-0.248848,-0.235233,-0.001394,0.939541,7.333562,26.277291,-148.616402
43576,-4.171483,1.174717,8.891525,-0.175311,-0.145334,0.076123,-0.043376,-0.092535,-0.029012,-0.041754,0.011773,0.088893,1.000000,-0.000217,-0.000463,-0.000145,-0.248816,-0.234699,-0.001522,0.939683,7.296401,26.221553,-148.636799
43577,-4.152816,1.326829,8.919077,-0.118969,-0.291589,0.109868,-0.063822,-0.096749,-0.028717,-0.041569,0.013303,0.089166,1.000000,-0.000319,-0.000484,-0.000144,-0.248805,-0.234141,-0.001756,0.939825,7.246469,26.166237,-148.657679
43578,-4.160031,1.189067,8.921144,-0.166230,-0.169341,0.099438,-0.074070,-0.094077,-0.022877,-0.041641,0.011928,0.089187,1.000000,-0.000370,-0.000470,-0.000114,-0.248838,-0.233562,-0.002019,0.939960,7.193480,26.109136,-148.674194
43579,-4.100157,1.417641,8.941836,-0.101863,-0.401806,0.117347,-0.062549,-0.096226,-0.020341,-0.041043,0.014209,0.089394,1.000000,-0.000313,-0.000481,-0.000102,-0.248864,-0.233008,-0.002237,0.940090,7.146721,26.053485,-148.689602
43580,-4.082902,1.680462,9.022060,-0.013830,-0.652435,0.210572,-0.100823,-0.088218,-0.029217,-0.040866,0.016856,0.090194,1.000000,-0.000504,-0.000441,-0.000146,-0.248898,-0.232422,-0.002640,0.940225,7.076963,26.000117,-148.709526
43581,-4.189453,1.297936,8.856893,-0.025855,-0.254047,0.067367,-0.128853,-0.079237,-0.040368,-0.041927,0.013045,0.088544,1.000000,-0.000644,-0.000396,-0.000202,-0.248907,-0.231865,-0.003215,0.940358,6.987342,25.955498,-148.736113
43582,-4.065538,1.171630,8.982471,-0.220818,-0.224636,0.111367,-0.136744,-0.072414,-0.050207,-0.040685,0.011788,0.089802,1.000000,-0.000684,-0.000362,-0.000251,-0.248883,-0.231309,-0.003830,0.940499,6.891921,25.912501,-148.767877
43583,-4.133955,0.849853,8.887179,-0.266620,0.091643,0.021655,-0.106618,-0.035535,-0.061874,-0.041353,0.008559,0.088860,1.000000,-0.000533,-0.000178,-0.000309,-0.248765,-0.230984,-0.004379,0.940608,6.810655,25.894137,-148.804572
43584,-4.109097,1.027786,8.904006,-0.201688,-0.086076,0.045012,-0.078130,-0.008780,-0.058613,-0.041092,0.010325,0.089034,1.000000,-0.000391,-0.000044,-0.000293,-0.248632,-0.230799,-0.004809,0.940686,6.748637,25.887821,-148.836746
43585,-4.117523,0.848052,8.840093,-0.248410,0.074834,-0.027335,-0.071031,0.029915,-0.048573,-0.041160,0.008522,0.088404,1.000000,-0.000355,0.000150,-0.000243,-0.248533,-0.230827,-0.005256,0.940703,6.693591,25.905733,-148.860099
43586,-4.184851,0.673806,8.902848,-0.304857,0.244132,0.039985,-0.033196,0.040159,-0.032753,-0.041830,0.006760,0.089036,1.000000,-0.000166,0.000201,-0.000164,-0.248469,-0.230929,-0.005505,0.940694,6.666001,25.925489,-148.872303
43587,-4.054121,0.723033,8.806443,-0.343532,0.148236,-0.098156,0.014719,0.054320,-0.020693,-0.040517,0.007228,0.088076,1.000000,0.000074,0.000272,-0.000103,-0.248401,-0.231178,-0.005548,0.940650,6.668566,25.955415,-148.876235
43588,-3.997241,1.088154,8.944445,-0.280702,-0.216343,0.038176,0.042758,0.062594,-0.011269,-0.039944,0.010865,0.089459,1.000000,0.000214,0.000313,-0.000056,-0.248349,-0.231480,-0.005443,0.940590,6.691069,25.986506,-148.873222
43589,-4.231903,1.212366,8.957423,-0.054019,-0.218617,0.165466,0.028585,0.066109,-0.011742,-0.042289,0.012113,0.089590,1.000000,0.000143,0.000331,-0.000059,-0.248308,-0.231803,-0.005425,0.940522,6.704452,26.022544,-148.870594
43590,-4.243312,1.157232,8.883421,-0.043900,-0.156734,0.098597,0.014173,0.044560,-0.008179,-0.042413,0.011568,0.088844,1.000000,0.000071,0.000223,-0.000041,-0.248304,-0.231984,-0.005429,0.940478,6.710868,26.043150,-148.866943
43591,-4.216360,1.175820,8.922879,-0.076385,-0.192163,0.123874,0.005658,0.037230,-0.014077,-0.042146,0.011759,0.089237,1.000000,0.000028,0.000186,-0.000070,-0.248279,-0.232142,-0.005485,0.940445,6.709525,26.062910,-148.867937
43592,-4.102763,1.093069,8.943146,-0.213284,-0.176551,0.083305,0.002583,0.027044,-0.024023,-0.041014,0.010934,0.089437,1.000000,0.000013,0.000135,-0.000120,-0.248214,-0.232227,-0.005540,0.940441,6.704335,26.074618,-148.875620
43593,-4.063138,0.928581,8.908849,-0.309193,-0.049223,0.017924,0.015878,0.057149,-0.049758,-0.040604,0.009289,0.089101,1.000000,0.000079,0.000286,-0.000249,-0.248009,-0.232490,-0.005614,0.940430,6.699555,26.108099,-148.897742
43594,-4.396230,1.021707,8.877881,-0.000544,0.025568,0.146572,0.041058,0.051713,-0.043039,-0.043937,0.010208,0.088792,1.000000,0.000205,0.000259,-0.000215,-0.247810,-0.232738,-0.005541,0.940422,6.711883,26.135095,-148.915650
43595,-4.236707,1.091587,8.882503,-0.097309,-0.111101,0.087731,0.035091,0.041166,-0.030030,-0.042347,0.010907,0.088836,1.000000,0.000175,0.000206,-0.000150,-0.247675,-0.232950,-0.005482,0.940405,6.723077,26.158165,-148.926460
43596,-4.238640,1.192962,8.892997,-0.056256,-0.200670,0.108562,0.022542,0.031479,-0.020612,-0.042371,0.011924,0.088938,1.000000,0.000113,0.000157,-0.000103,-0.247603,-0.233080,-0.005445,0.940392,6.730380,26.172175,-148.931661
43597,-4.208123,1.213235,8.873526,-0.063575,-0.230756,0.079856,0.006527,0.011139,-0.011696,-0.042076,0.012132,0.088738,1.000000,0.000033,0.000056,-0.000058,-0.247589,-0.233117,-0.005462,0.940386,6.729341,26.176930,-148.933091
43598,-4.232434,1.153021,8.831335,-0.053969,-0.161264,0.046649,-0.001441,-0.008371,-0.006018,-0.042328,0.011532,0.088311,1.000000,-0.000007,-0.000042,-0.000030,-0.247615,-0.233030,-0.005471,0.940401,6.725693,26.167290,-148.932009
43599,-4.014483,1.047755,8.647678,-0.188305,-0.145105,-0.224169,0.018247,-0.046989,-0.001846,-0.040165,0.010470,0.086468,1.000000,0.000091,-0.000235,-0.000009,-0.247635,-0.232808,-0.005350,0.940451,6.732205,26.138308,-148.931542
43600,-3.670338,1.726839,8.935276,-0.256550,-0.930433,-0.047393,0.070134,-0.067294,-0.016620,-0.036732,0.017240,0.089346,1.000000,0.000351,-0.000336,-0.000083,-0.247529,-0.232533,-0.004962,0.940549,6.764664,26.095855,-148.941600
43601,-4.481619,1.912964,8.985225,0.439068,-0.720748,0.373889,-0.039204,-0.074246,-0.031039,-0.044847,0.019154,0.089832,1.000000,-0.000196,-0.000371,-0.000155,-0.247479,-0.232111,-0.005111,0.940666,6.729229,26.053329,-148.961678
43602,-4.385441,0.725484,8.727026,-0.065676,0.307266,-0.023885,-0.098199,-0.121424,-0.025728,-0.043906,0.007303,0.087240,1.000000,-0.000491,-0.000607,-0.000129,-0.247528,-0.231373,-0.005457,0.940833,6.661150,25.980639,-148.981407
43603,-4.354759,0.792127,8.814664,-0.082549,0.223251,0.047993,-0.030695,-0.107669,-0.009356,-0.043595,0.007937,0.088122,1.000000,-0.000153,-0.000538,-0.000047,-0.247570,-0.230804,-0.005499,0.940961,6.635601,25.917623,-148.990125
43604,-4.174253,0.717876,8.753118,-0.218342,0.215843,-0.093503,-0.019931,-0.115173,0.003482,-0.041793,0.007187,0.087506,1.000000,-0.000100,-0.000576,0.000017,-0.247665,-0.230193,-0.005451,0.941086,6.620647,25.846592,-148.990838
43605,-3.799017,1.112390,9.046265,-0.440273,-0.335711,0.046233,0.024064,-0.084258,0.008216,-0.038029,0.011111,0.090448,1.000000,0.000120,-0.000421,0.000041,-0.247727,-0.229803,-0.005245,0.941167,6.632093,25.795735,-148.986690
43606,-4.023452,0.694326,9.002235,-0.438821,0.145884,0.061352,0.011055,-0.041870,0.026997,-0.040254,0.006933,0.090014,1.000000,0.000055,-0.000209,0.000135,-0.247895,-0.229575,-0.005115,0.941179,6.643653,25.764837,-148.967183
43607,-3.987773,1.159176,9.035083,-0.260672,-0.277427,0.123802,0.049604,-0.028372,0.028168,-0.039892,0.011564,0.090348,1.000000,0.000248,-0.000142,0.000141,-0.248020,-0.229480,-0.004835,0.941170,6.676983,25.744456,-148.946341
43608,-4.115231,0.871316,9.045397,-0.300465,0.037665,0.158362,0.008581,-0.019039,0.021422,-0.041162,0.008705,0.090450,1.000000,0.000043,-0.000095,0.000107,-0.248163,-0.229356,-0.004752,0.941163,6.686258,25.726878,-148.928718
43609,-4.173967,0.724525,8.911101,-0.265850,0.213147,0.048273,0.035714,-0.009371,0.012263,-0.041744,0.007227,0.089110,1.000000,0.000179,-0.000047,0.000061,-0.248229,-0.229333,-0.004579,0.941152,6.707861,25.718361,-148.916533
43610,-4.272155,0.586159,8.875375,-0.240341,0.389430,0.044176,0.058504,-0.009223,0.015044,-0.042726,0.005832,0.088753,1.000000,0.000293,-0.000046,0.000075,-0.248285,-0.229317,-0.004281,0.941143,6.744221,25.706786,-148.902257
43611,-4.204680,0.732986,8.850144,-0.215182,0.239397,0.007599,0.094907,-0.007301,0.024808,-0.042051,0.007283,0.088503,1.000000,0.000475,-0.000037,0.000124,-0.248341,-0.229377,-0.003817,0.941115,6.803232,25.698583,-148.882009
43612,-4.179439,0.917689,8.883806,-0.166132,0.071274,0.046277,0.109628,-0.004322,0.034409,-0.041798,0.009121,0.088842,1.000000,0.000548,-0.000022,0.000172,-0.248429,-0.229448,-0.003264,0.941077,6.874228,25.688483,-148.855202
43613,-4.153936,1.218407,8.909160,-0.060583,-0.196480,0.090370,0.125030,-0.005863,0.042505,-0.041545,0.012120,0.089098,1.000000,0.000625,-0.000029,0.000213,-0.248534,-0.229553,-0.002640,0.941026,6.955370,25.679833,-148.823701
43614,-4.178599,1.510904,8.902597,0.094332,-0.430202,0.127422,0.089068,-0.004303,0.032590,-0.041790,0.015063,0.089032,1.000000,0.000445,-0.000022,0.000163,-0.248637,-0.229598,-0.002185,0.940989,7.014055,25.669820,-148.798071
43615,-4.250471,1.322537,8.856752,0.079101,-0.218749,0.097083,0.054891,-0.021038,0.029817,-0.042516,0.013195,0.088567,1.000000,0.000274,-0.000105,0.000149,-0.248763,-0.229544,-0.001887,0.940969,7.051009,25.653372,-148.775782
43616,-4.135694,1.387904,8.890962,0.006820,-0.327015,0.085416,0.052289,-0.029218,0.020489,-0.041371,0.013852,0.088907,1.000000,0.000261,-0.000146,0.000102,-0.248852,-0.229426,-0.001588,0.940975,7.084515,25.630031,-148.759725
43617,-4.227629,1.107691,8.844525,-0.032819,-0.027567,0.052585,0.032870,-0.030804,0.022738,-0.042291,0.011058,0.088441,1.000000,0.000164,-0.000154,0.000114,-0.248970,-0.229298,-0.001389,0.940975,7.106564,25.608510,-148.742694
43618,-4.118454,1.197872,8.959319,-0.122281,-0.165513,0.118254,0.034759,-0.034743,0.029597,-0.041202,0.011957,0.089588,1.000000,0.000174,-0.000174,0.000148,-0.249121,-0.229133,-0.001155,0.940976,7.132314,25.581385,-148.721350
43619,-4.154244,1.125362,8.908309,-0.105016,-0.073970,0.080020,0.026788,-0.034743,0.037881,-0.041560,0.011234,0.089077,1.000000,0.000134,-0.000174,0.000189,-0.249317,-0.228979,-0.000963,0.940961,7.154839,25.556532,-148.695113
43620,-4.165395,1.112941,8.898870,-0.095948,-0.051199,0.075043,0.021548,-0.033939,0.048415,-0.041672,0.011110,0.088983,1.000000,0.000108,-0.000170,0.000242,-0.249573,-0.228801,-0.000770,0.940937,7.178123,25.528508,-148.661883
43621,-4.073851,1.215271,8.963396,-0.144603,-0.185951,0.104980,0.027313,-0.028215,0.047000,-0.040754,0.012131,0.089630,1.000000,0.000137,-0.000141,0.000235,-0.249811,-0.228679,-0.000573,0.940904,7.203610,25.506693,-148.629417
43622,-4.081428,1.402372,8.976807,-0.054592,-0.342775,0.141572,0.011926,-0.026684,0.038923,-0.040829,0.014010,0.089763,1.000000,0.000060,-0.000133,0.000195,-0.250032,-0.228523,-0.000446,0.940883,7.219011,25.483456,-148.601625
43623,-4.102614,1.442167,9.007900,-0.030083,-0.368872,0.183141,-0.016572,-0.028544,0.020912,-0.041041,0.014425,0.090072,1.000000,-0.000083,-0.000143,0.000105,-0.250198,-0.228344,-0.000485,0.940882,7.212245,25.463319,-148.585633
43624,-4.151199,1.220189,8.915173,-0.052691,-0.140441,0.095851,-0.028544,-0.036657,0.005779,-0.041529,0.012213,0.089142,1.000000,-0.000143,-0.000183,0.000029,-0.250310,-0.228091,-0.000573,0.940914,7.195178,25.436790,-148.579486
43625,-4.139888,1.161310,8.936362,-0.092954,-0.097408,0.103348,-0.035709,-0.038649,-0.003362,-0.041416,0.011630,0.089354,1.000000,-0.000179,-0.000193,-0.000017,-0.250383,-0.227841,-0.000717,0.940955,7.170535,25.412655,-148.579569
43626,-4.126983,1.102822,8.897899,-0.107875,-0.048587,0.056802,-0.034572,-0.043369,-0.008564,-0.041289,0.011045,0.088968,1.000000,-0.000173,-0.000217,-0.000043,-0.250434,-0.227548,-0.000842,0.941012,7.145920,25.383352,-148.582960
43627,-4.116758,1.057684,8.899575,-0.131708,-0.014984,0.048917,-0.032807,-0.046675,-0.007452,-0.041188,0.010593,0.088984,1.000000,-0.000164,-0.000233,-0.000037,-0.250485,-0.227263,-0.000967,0.941067,7.121576,25.354945,-148.586225
43628,-4.097339,1.185314,8.904407,-0.082047,-0.136303,0.059308,-0.024101,-0.050404,-0.012234,-0.040995,0.011866,0.089032,1.000000,-0.000121,-0.000252,-0.000061,-0.250507,-0.226951,-0.001038,0.941137,7.101730,25.321913,-148.592461
43629,-4.078857,1.084479,8.925284,-0.146686,-0.059637,0.058928,-0.031768,-0.046272,-0.009847,-0.040809,0.010861,0.089242,1.000000,-0.000159,-0.000231,-0.000049,-0.250545,-0.226669,-0.001161,0.941194,7.077365,25.293902,-148.597175
43630,-4.026168,1.103137,8.938730,-0.178251,-0.102452,0.050657,-0.023221,-0.041183,-0.008291,-0.040280,0.011043,0.089378,1.000000,-0.000116,-0.000206,-0.000041,-0.250585,-0.226402,-0.001235,0.941248,7.059401,25.265838,-148.600188
43631,-4.005919,1.217073,8.962881,-0.145334,-0.214731,0.076431,-0.021222,-0.036668,-0.009555,-0.040075,0.012182,0.089620,1.000000,-0.000106,-0.000183,-0.000048,-0.250612,-0.226178,-0.001320,0.941294,7.041489,25.243266,-148.603948
43632,-4.040728,1.123204,8.932393,-0.144326,-0.113396,0.053569,-0.037024,-0.036381,-0.013157,-0.040423,0.011251,0.089314,1.000000,-0.000185,-0.000182,-0.000066,-0.250644,-0.225916,-0.001470,0.941349,7.014482,25.218265,-148.609628
43633,-4.051217,0.975104,8.951156,-0.209122,0.017559,0.058601,-0.023585,-0.032538,-0.012699,-0.040526,0.009764,0.089504,1.000000,-0.000118,-0.000163,-0.000063,-0.250660,-0.225709,-0.001575,0.941394,6.994523,25.198258,-148.615024
43634,-4.050451,0.987282,8.932802,-0.191817,0.008457,0.043223,-0.015027,-0.025200,-0.006873,-0.040515,0.009881,0.089322,1.000000,-0.000075,-0.000126,-0.000034,-0.250696,-0.225526,-0.001629,0.941428,6.982156,25.179177,-148.615885
43635,-4.054685,1.027796,8.934552,-0.166925,-0.025250,0.051113,-0.008543,-0.023181,-0.004792,-0.040557,0.010283,0.089340,1.000000,-0.000043,-0.000116,-0.000024,-0.250732,-0.225383,-0.001666,0.941453,6.973242,25.163939,-148.615581
43636,-4.052654,1.027137,8.935550,-0.166063,-0.024949,0.051128,-0.002545,-0.023213,-0.003282,-0.040537,0.010273,0.089351,1.000000,-0.000013,-0.000116,-0.000016,-0.250771,-0.225225,-0.001660,0.941480,6.969023,25.145743,-148.614040
43637,-4.044299,1.099529,8.927815,-0.132863,-0.090511,0.048619,0.004229,-0.014812,-0.002838,-0.040449,0.010994,0.089275,1.000000,0.000021,-0.000074,-0.000014,-0.250801,-0.225137,-0.001645,0.941493,6.968223,25.135129,-148.611863
43638,-4.026022,1.216085,8.950840,-0.099506,-0.202397,0.074395,0.002262,-0.017092,0.002704,-0.040268,0.012159,0.089505,1.000000,0.000011,-0.000085,0.000014,-0.250863,-0.225014,-0.001618,0.941506,6.968535,25.120005,-148.606099
43639,-4.023998,1.330206,8.943773,-0.041874,-0.301574,0.079753,-0.005320,-0.020331,-0.001979,-0.040249,0.013305,0.089433,1.000000,-0.000027,-0.000102,-0.000010,-0.250908,-0.224888,-0.001640,0.941524,6.962312,25.106192,-148.603806
43640,-4.078167,1.120402,8.949844,-0.098409,-0.093498,0.085193,-0.025025,-0.020622,-0.011147,-0.040790,0.011217,0.089493,1.000000,-0.000125,-0.000103,-0.000056,-0.250936,-0.224714,-0.001752,0.941558,6.943211,25.090021,-148.606999
43641,-4.052352,1.079509,8.920762,-0.121943,-0.067566,0.043654,-0.016713,-0.023349,-0.007233,-0.040534,0.010804,0.089202,1.000000,-0.000084,-0.000117,-0.000036,-0.250969,-0.224559,-0.001830,0.941586,6.928966,25.074857,-148.608228
43642,-4.040648,1.007531,8.960494,-0.178387,-0.014857,0.066602,-0.014024,-0.018863,-0.001451,-0.040415,0.010082,0.089600,1.000000,-0.000070,-0.000094,-0.000007,-0.251030,-0.224408,-0.001881,0.941606,6.918802,25.059026,-148.605194
43643,-4.019690,0.995561,8.951464,-0.193975,-0.013167,0.048345,-0.005824,-0.016459,0.005268,-0.040205,0.009957,0.089511,1.000000,-0.000029,-0.000082,0.000026,-0.251109,-0.224299,-0.001902,0.941611,6.914345,25.046917,-148.598044
43644,-4.031201,1.079404,8.953350,-0.144279,-0.080106,0.064100,0.004295,-0.008088,0.009985,-0.040316,0.010790,0.089532,1.000000,0.000021,-0.000040,0.000050,-0.251203,-0.224221,-0.001868,0.941604,6.918031,25.036430,-148.587021
43645,-4.036721,1.121959,8.954319,-0.119336,-0.113785,0.071975,-0.001990,-0.006273,0.022209,-0.040371,0.011216,0.089542,1.000000,-0.000010,-0.000031,0.000111,-0.251358,-0.224166,-0.001866,0.941576,6.920596,25.028945,-148.568462
43646,-3.965964,1.119116,8.975584,-0.183383,-0.145530,0.060893,0.006676,-0.004061,0.025219,-0.039663,0.011183,0.089755,1.000000,0.000033,-0.000020,0.000126,-0.251521,-0.224110,-0.001808,0.941546,6.929807,25.019700,-148.547578
43647,-4.003770,1.256673,8.987603,-0.093457,-0.248174,0.102759,-0.005448,-0.001109,0.020741,-0.040040,0.012565,0.089875,1.000000,-0.000027,-0.000006,0.000104,-0.251673,-0.224074,-0.001830,0.941514,6.930162,25.015251,-148.529550
43648,-3.984499,1.131538,8.985635,-0.165870,-0.147057,0.079183,-0.004983,-0.001299,0.017034,-0.039847,0.011314,0.089856,1.000000,-0.000025,-0.000006,0.000085,-0.251810,-0.224017,-0.001840,0.941491,6.930613,25.008133,-148.513591
43649,-3.999117,1.115435,8.975145,-0.157220,-0.124654,0.074178,-0.003020,0.000983,0.011491,-0.039991,0.011153,0.089751,1.000000,-0.000015,0.000005,0.000057,-0.251916,-0.223994,-0.001864,0.941468,6.929968,25.005514,-148.501211
43650,-4.007686,1.057835,8.963812,-0.172670,-0.068286,0.061319,0.004478,0.003420,0.011160,-0.040076,0.010574,0.089639,1.000000,0.000022,0.000017,0.000056,-0.252015,-0.223971,-0.001842,0.941447,6.934426,25.001482,-148.488583
43651,-4.035849,1.012127,8.962139,-0.172366,-0.014030,0.066710,0.012528,0.006465,0.012132,-0.040356,0.010113,0.089623,1.000000,0.000063,0.000032,0.000061,-0.252106,-0.223993,-0.001798,0.941417,6.943035,25.001934,-148.475383
43652,-4.048278,0.984786,8.911083,-0.154945,0.023573,0.023023,0.021878,0.006392,0.017915,-0.040481,0.009834,0.089113,1.000000,0.000109,0.000032,0.000090,-0.252218,-0.224006,-0.001691,0.941384,6.959325,24.999124,-148.458299
43653,-3.981051,0.884279,8.919667,-0.260135,0.081073,-0.008763,0.036571,0.010802,0.026708,-0.039807,0.008821,0.089200,1.000000,0.000183,0.000054,0.000134,-0.252351,-0.224079,-0.001523,0.941332,6.985716,25.001022,-148.435619
43654,-3.961061,0.865233,8.928425,-0.291850,0.092461,-0.011581,0.077808,0.020189,0.041563,-0.039603,0.008609,0.089292,1.000000,0.000389,0.000101,0.000208,-0.252510,-0.224228,-0.001144,0.941254,7.040728,25.004395,-148.402650
43655,-3.862615,0.662813,8.944271,-0.478556,0.228208,-0.061893,0.115338,0.052349,0.067644,-0.038605,0.006563,0.089457,1.000000,0.000577,0.000262,0.000338,-0.252747,-0.224596,-0.000612,0.941103,7.124489,25.026984,-148.351039
43656,-3.844420,0.866322,9.014176,-0.437051,0.045429,0.015453,0.171218,0.066708,0.085580,-0.038418,0.008570,0.090162,0.999999,0.000856,0.000334,0.000428,-0.253009,-0.225081,0.000197,0.940917,7.246214,25.053546,-148.286778
43657,-3.882366,1.336864,9.035339,-0.208039,-0.335430,0.104040,0.190968,0.079665,0.084449,-0.038793,0.013266,0.090382,0.999999,0.000955,0.000398,0.000422,-0.253239,-0.225673,0.001069,0.940713,7.378806,25.090246,-148.222301
43658,-3.968031,1.430230,8.969269,-0.084861,-0.355344,0.092115,0.159851,0.083738,0.077092,-0.039648,0.014215,0.089721,1.000000,0.000799,0.000419,0.000385,-0.253473,-0.226223,0.001794,0.940517,7.492469,25.126827,-148.161806
43659,-4.111206,1.086014,8.867429,-0.109627,0.035544,0.020899,0.155084,0.075301,0.066875,-0.041082,0.010778,0.088698,1.000000,0.000775,0.000377,0.000334,-0.253661,-0.226749,0.002483,0.940338,7.599821,25.162132,-148.108515
43660,-4.062900,0.968496,8.882592,-0.222862,0.125166,-0.000439,0.173681,0.068920,0.059963,-0.040601,0.009596,0.088848,1.000000,0.000868,0.000345,0.000300,-0.253798,-0.227246,0.003271,0.940178,7.716460,25.191399,-148.059812
43661,-4.034008,0.977745,8.958472,-0.287873,0.108234,0.055890,0.191365,0.068886,0.068274,-0.040313,0.009678,0.089608,0.999999,0.000957,0.000344,0.000341,-0.253951,-0.227788,0.004141,0.940002,7.844871,25.222756,-148.006007
43662,-4.088601,0.863533,8.891953,-0.287184,0.256199,0.004696,0.208934,0.075410,0.078634,-0.040856,0.008526,0.088944,0.999999,0.001045,0.000377,0.000393,-0.254135,-0.228359,0.005107,0.939809,7.987007,25.254041,-147.944866
43663,-4.047735,1.278643,8.948715,-0.163731,-0.113720,0.089776,0.250488,0.082264,0.089379,-0.040446,0.012656,0.089520,0.999999,0.001252,0.000411,0.000447,-0.254319,-0.229038,0.006262,0.939587,8.155597,25.291042,-147.876427
43664,-4.109089,1.565764,8.951018,0.000303,-0.316539,0.155096,0.219393,0.082678,0.078407,-0.041060,0.015543,0.089544,0.999999,0.001097,0.000413,0.000392,-0.254490,-0.229656,0.007268,0.939383,8.304065,25.326171,-147.814549
43665,-4.200902,1.589057,8.892550,0.090264,-0.271276,0.145643,0.196175,0.069468,0.064563,-0.041983,0.015790,0.088956,0.999999,0.000981,0.000347,0.000323,-0.254619,-0.230205,0.008155,0.939206,8.434550,25.357665,-147.762605
43666,-4.248515,1.672172,8.845818,0.172802,-0.302466,0.135838,0.161455,0.055611,0.049676,-0.042465,0.016640,0.088483,1.000000,0.000807,0.000278,0.000248,-0.254720,-0.230624,0.008891,0.939069,8.541213,25.379648,-147.721040
43667,-4.254930,1.586744,8.831877,0.132420,-0.212884,0.115121,0.131201,0.035566,0.034670,-0.042536,0.015802,0.088337,1.000000,0.000656,0.000178,0.000173,-0.254781,-0.230932,0.009481,0.938971,8.625159,25.394316,-147.690901
43668,-4.206379,1.605807,8.860079,0.084608,-0.246466,0.122369,0.105803,0.017953,0.022107,-0.042058,0.016007,0.088613,1.000000,0.000529,0.000090,0.000111,-0.254815,-0.231104,0.009972,0.938915,8.691089,25.397268,-147.670105
43669,-4.173439,1.491723,8.889730,-0.012897,-0.158972,0.119316,0.081227,0.008755,0.008380,-0.041731,0.014879,0.088905,1.000000,0.000406,0.000044,0.000042,-0.254809,-0.231224,0.010332,0.938883,8.738251,25.398972,-147.658984
43670,-4.096554,1.567012,8.899795,-0.043950,-0.256252,0.105782,0.078038,0.004463,0.006342,-0.040964,0.015634,0.089005,1.000000,0.000390,0.000022,0.000032,-0.254801,-0.231298,0.010691,0.938863,8.783511,25.395649,-147.649349
43671,-4.122339,1.498674,8.938452,-0.076597,-0.183261,0.142019,0.051756,0.003150,-0.000042,-0.041222,0.014964,0.089389,1.000000,0.000259,0.000016,-0.000000,-0.254789,-0.231355,0.010910,0.938850,8.811290,25.394903,-147.644048
43672,-4.076609,1.424284,8.939581,-0.148956,-0.136652,0.113166,0.054928,-0.000873,-0.009995,-0.040766,0.014220,0.089400,1.000000,0.000275,-0.000004,-0.000050,-0.254730,-0.231376,0.011149,0.938858,8.838717,25.389990,-147.645162
43673,-4.079423,1.455630,8.898750,-0.115514,-0.155389,0.082302,0.041795,-0.003391,-0.014935,-0.040795,0.014541,0.088990,1.000000,0.000209,-0.000017,-0.000075,-0.254660,-0.231389,0.011313,0.938871,8.856513,25.386849,-147.649834
43674,-4.123921,1.409471,8.867633,-0.090452,-0.087614,0.067210,0.043999,-0.003214,-0.013984,-0.041240,0.014078,0.088679,1.000000,0.000220,-0.000016,-0.000070,-0.254595,-0.231386,0.011499,0.938888,8.876511,25.380964,-147.653677
43675,-4.110339,1.442731,8.857291,-0.081515,-0.119487,0.056813,0.038018,-0.004574,-0.014776,-0.041104,0.014414,0.088575,1.000000,0.000190,-0.000023,-0.000074,-0.254529,-0.231389,0.011646,0.938903,8.892135,25.377142,-147.658367
43676,-4.074924,1.308957,8.909155,-0.195197,-0.022394,0.069256,0.040115,-0.001531,-0.015336,-0.040749,0.013075,0.089094,1.000000,0.000201,-0.000008,-0.000077,-0.254462,-0.231388,0.011810,0.938919,8.909615,25.372344,-147.662893
43677,-4.058865,1.442745,8.907432,-0.145207,-0.143827,0.079556,0.044979,0.008329,-0.005910,-0.040585,0.014409,0.089079,1.000000,0.000225,0.000042,-0.000030,-0.254431,-0.231460,0.011984,0.938908,8.932152,25.375040,-147.660763
43678,-4.083396,1.371586,8.886795,-0.152776,-0.065016,0.061669,0.043923,0.005656,-0.007750,-0.040831,0.013698,0.088872,1.000000,0.000220,0.000028,-0.000039,-0.254396,-0.231498,0.012166,0.938905,8.954140,25.373638,-147.659836
43679,-4.030679,1.483309,8.925862,-0.159838,-0.188560,0.089660,0.049338,0.010116,-0.004764,-0.040302,0.014812,0.089264,1.000000,0.000247,0.000051,-0.000024,-0.254365,-0.231584,0.012359,0.938890,8.979558,25.377242,-147.656808
43680,-4.082286,1.479674,8.893471,-0.110257,-0.154300,0.082379,0.046427,0.013606,-0.009282,-0.040816,0.014778,0.088941,1.000000,0.000232,0.000068,-0.000046,-0.254320,-0.231662,0.012541,0.938881,9.002904,25.380474,-147.656053
43681,-4.123916,1.277986,8.873878,-0.167700,0.045534,0.054199,0.043147,0.014478,-0.008582,-0.041232,0.012762,0.088745,1.000000,0.000216,0.000072,-0.000043,-0.254279,-0.231761,0.012695,0.938865,9.023938,25.386886,-147.654980
43682,-4.104781,1.256872,8.883410,-0.199425,0.056846,0.051436,0.058400,0.020038,-0.004201,-0.041039,0.012544,0.088842,1.000000,0.000292,0.000100,-0.000021,-0.254245,-0.231884,0.012930,0.938841,9.055772,25.393309,-147.650403
43683,-4.092047,1.279090,8.891779,-0.206923,0.034300,0.056490,0.070931,0.027092,0.002176,-0.040909,0.012759,0.088928,1.000000,0.000355,0.000135,0.000011,-0.254222,-0.232077,0.013211,0.938795,9.096159,25.405884,-147.641321
43684,-4.127182,1.395262,8.877029,-0.124280,-0.043450,0.074915,0.083523,0.032711,0.009314,-0.041258,0.013914,0.088783,1.000000,0.000418,0.000164,0.000047,-0.254223,-0.232290,0.013564,0.938737,9.146536,25.418251,-147.627005
43685,-4.121140,1.461475,8.883749,-0.107179,-0.099496,0.087783,0.082963,0.035808,0.011505,-0.041196,0.014576,0.088851,1.000000,0.000415,0.000179,0.000058,-0.254231,-0.232538,0.013901,0.938669,9.196719,25.434892,-147.611174
43686,-4.137222,1.566351,8.859207,-0.040666,-0.175541,0.087976,0.077517,0.032759,0.007771,-0.041358,0.015628,0.088605,1.000000,0.000388,0.000164,0.000039,-0.254231,-0.232745,0.014223,0.938613,9.243253,25.447415,-147.597791
43687,-4.120273,1.561099,8.847740,-0.056274,-0.173894,0.069761,0.061341,0.023963,0.007315,-0.041193,0.015582,0.088487,1.000000,0.000307,0.000120,0.000037,-0.254244,-0.232910,0.014469,0.938565,9.279421,25.457721,-147.585762
43688,-4.113096,1.625202,8.855096,-0.038795,-0.229595,0.082632,0.062517,0.017727,0.002956,-0.041123,0.016224,0.088560,1.000000,0.000313,0.000089,0.000015,-0.254238,-0.233027,0.014735,0.938533,9.315431,25.462185,-147.576903
43689,-4.161610,1.722079,8.830677,0.051593,-0.285113,0.095968,0.036905,0.009022,-0.003371,-0.041612,0.017205,0.088312,1.000000,0.000185,0.000045,-0.000017,-0.254228,-0.233092,0.014873,0.938517,9.334068,25.465023,-147.573089
43690,-4.165267,1.624154,8.821752,0.011314,-0.195304,0.075303,0.020604,0.003097,-0.005352,-0.041651,0.016234,0.088220,1.000000,0.000103,0.000015,-0.000027,-0.254231,-0.233088,0.014951,0.938516,9.343218,25.461993,-147.570918
43691,-4.147705,1.614435,8.872171,-0.029016,-0.199190,0.111262,0.007565,-0.006017,-0.012262,-0.041479,0.016144,0.088721,1.000000,0.000038,-0.000030,-0.000061,-0.254212,-0.233046,0.014960,0.938532,9.341985,25.457155,-147.574219
43692,-4.142497,1.585698,8.853298,-0.036284,-0.174709,0.088008,-0.005395,-0.014252,-0.014172,-0.041430,0.015862,0.088530,1.000000,-0.000027,-0.000071,-0.000071,-0.254202,-0.232928,0.014928,0.938564,9.333122,25.445150,-147.579347
43693,-4.121921,1.572454,8.844961,-0.051899,-0.173072,0.069799,-0.011447,-0.020224,-0.023447,-0.041226,0.015734,0.088445,1.000000,-0.000057,-0.000101,-0.000117,-0.254152,-0.232796,0.014852,0.938612,9.317363,25.433317,-147.591109
43694,-4.046073,1.652922,8.896664,-0.091013,-0.285291,0.095078,-0.018958,-0.027734,-0.025854,-0.040471,0.016543,0.088959,1.000000,-0.000095,-0.000139,-0.000129,-0.254103,-0.232599,0.014760,0.938676,9.297017,25.414780,-147.604920
43695,-4.133180,1.422728,8.869875,-0.116575,-0.042190,0.075014,-0.030020,-0.027223,-0.031373,-0.041342,0.014247,0.088691,1.000000,-0.000150,-0.000136,-0.000157,-0.254036,-0.232410,0.014597,0.938743,9.268192,25.399715,-147.622347
43696,-4.141445,1.488842,8.889922,-0.082887,-0.099533,0.106090,-0.030968,-0.032761,-0.031683,-0.041427,0.014909,0.088890,1.000000,-0.000155,-0.000164,-0.000158,-0.253973,-0.232175,0.014449,0.938820,9.239205,25.378864,-147.640295
43697,-4.082650,1.450608,8.923876,-0.155571,-0.100138,0.105661,-0.032684,-0.033206,-0.036334,-0.040839,0.014528,0.089230,1.000000,-0.000163,-0.000166,-0.000182,-0.253886,-0.231955,0.014275,0.938901,9.207283,25.360854,-147.661413
43698,-4.126191,1.410071,8.875149,-0.114274,-0.041628,0.075044,-0.031694,-0.031417,-0.039497,-0.041273,0.014123,0.088743,1.000000,-0.000158,-0.000157,-0.000197,-0.253787,-0.231726,0.014112,0.938987,9.175865,25.341468,-147.684090
43699,-4.164114,1.442452,8.875168,-0.064918,-0.054283,0.095993,-0.033886,-0.031607,-0.040444,-0.041652,0.014448,0.088743,1.000000,-0.000169,-0.000158,-0.000202,-0.253682,-0.231513,0.013926,0.939070,9.142247,25.324715,-147.707590
43700,-4.086022,1.392057,8.899800,-0.153465,-0.052923,0.077382,-0.033900,-0.033923,-0.044681,-0.040872,0.013945,0.088989,1.000000,-0.000169,-0.000170,-0.000223,-0.253561,-0.231269,0.013750,0.939166,9.108088,25.304375,-147.733737
43701,-4.107288,1.312356,8.882246,-0.161599,0.025519,0.059476,-0.031185,-0.031691,-0.043191,-0.041084,0.013146,0.088814,1.000000,-0.000156,-0.000158,-0.000216,-0.253440,-0.231059,0.013574,0.939253,9.075305,25.287798,-147.758935
43702,-4.025425,1.349246,8.935043,-0.225281,-0.053289,0.077000,-0.024825,-0.021683,-0.039898,-0.040261,0.013512,0.089344,1.000000,-0.000124,-0.000108,-0.000199,-0.253331,-0.230884,0.013430,0.939327,9.048151,25.273935,-147.780849
43703,-4.079541,1.366511,8.924145,-0.167937,-0.043425,0.092881,-0.009722,-0.009495,-0.033571,-0.040797,0.013676,0.089239,1.000000,-0.000049,-0.000047,-0.000168,-0.253232,-0.230805,0.013337,0.939375,9.031198,25.269031,-147.797796
43704,-4.070648,1.422522,8.933875,-0.150376,-0.099115,0.105751,-0.014211,-0.004704,-0.032745,-0.040706,0.014238,0.089337,1.000000,-0.000071,-0.000024,-0.000164,-0.253146,-0.230722,0.013230,0.939420,9.012746,25.264119,-147.813543
43705,-4.118567,1.384752,8.943328,-0.134126,-0.046476,0.129299,-0.013912,0.005375,-0.031002,-0.041181,0.013860,0.089433,1.000000,-0.000070,0.000027,-0.000155,-0.253065,-0.230707,0.013102,0.939447,8.994711,25.267391,-147.827405
43706,-4.060401,1.333883,8.935399,-0.198270,-0.031974,0.090197,-0.009958,0.017186,-0.035176,-0.040594,0.013350,0.089357,1.000000,-0.000050,0.000086,-0.000176,-0.252964,-0.230733,0.012984,0.939469,8.978961,25.275081,-147.842510
43707,-4.008262,1.312004,8.946097,-0.254526,-0.041967,0.074356,0.006364,0.036650,-0.038747,-0.040064,0.013125,0.089469,1.000000,0.000032,0.000183,-0.000194,-0.252825,-0.230891,0.012903,0.939469,8.971787,25.296739,-147.858131
43708,-3.950618,1.236191,8.976687,-0.351560,-0.008905,0.066218,0.022078,0.065270,-0.032407,-0.039475,0.012358,0.089781,1.000000,0.000110,0.000326,-0.000162,-0.252703,-0.231183,0.012878,0.939430,8.977130,25.331389,-147.866765
43709,-3.810539,1.289349,9.026109,-0.463827,-0.129873,0.057534,0.053507,0.103491,-0.047882,-0.038056,0.012878,0.090284,1.000000,0.000268,0.000517,-0.000239,-0.252471,-0.231716,0.012923,0.939361,8.997332,25.391694,-147.881492
43710,-4.023581,1.489375,8.931626,-0.177657,-0.196148,0.092429,0.080380,0.138660,-0.080234,-0.040168,0.014874,0.089350,1.000000,0.000402,0.000693,-0.000401,-0.252061,-0.232429,0.013023,0.939294,9.026298,25.472138,-147.912798
43711,-4.132856,1.435436,8.923225,-0.129306,-0.100094,0.124020,0.065384,0.126393,-0.086560,-0.041266,0.014343,0.089263,1.000000,0.000327,0.000632,-0.000433,-0.251635,-0.233086,0.013050,0.939245,9.043825,25.548893,-147.949453
43712,-4.235137,1.352120,8.835648,-0.064252,0.026009,0.078140,0.084434,0.134577,-0.083049,-0.042286,0.013501,0.088391,1.000000,0.000422,0.000673,-0.000415,-0.251207,-0.233784,0.013171,0.939184,9.074117,25.627303,-147.982896
43713,-4.111315,1.580152,8.968757,-0.126717,-0.247512,0.175358,0.092435,0.132961,-0.070285,-0.041048,0.015774,0.089722,1.000000,0.000462,0.000665,-0.000351,-0.250826,-0.234505,0.013336,0.939104,9.111781,25.706334,-148.008638
43714,-3.855906,1.514199,9.041711,-0.401548,-0.321289,0.119525,0.091362,0.173527,-0.070056,-0.038475,0.015114,0.090457,0.999999,0.000457,0.000868,-0.000350,-0.250453,-0.235394,0.013457,0.938979,9.151243,25.805645,-148.029916
43715,-3.745773,1.571169,9.115954,-0.513942,-0.434664,0.144566,0.122671,0.223898,-0.086513,-0.037349,0.015672,0.091211,0.999999,0.000613,0.001119,-0.000433,-0.249965,-0.236580,0.013630,0.938809,9.205765,25.937629,-148.056536
43716,-3.608966,1.408216,9.213985,-0.765918,-0.371309,0.146260,0.160295,0.296898,-0.126679,-0.035944,0.014031,0.092205,0.999998,0.000801,0.001484,-0.000633,-0.249253,-0.238137,0.013853,0.938601,9.274623,26.111888,-148.100646
43717,-3.570308,1.265897,9.295017,-0.937308,-0.277432,0.176869,0.279929,0.401512,-0.183131,-0.035505,0.012561,0.093039,0.999997,0.001400,0.002008,-0.000916,-0.248135,-0.240358,0.014428,0.938322,9.400460,26.353338,-148.169428
43718,-3.713366,1.778753,9.304553,-0.656474,-0.661321,0.319391,0.452558,0.572013,-0.207495,-0.036849,0.017615,0.093191,0.999993,0.002263,0.002860,-0.001037,-0.246709,-0.243570,0.015584,0.937851,9.626945,26.690782,-148.234716
43719,-3.696981,2.146339,9.425840,-0.636787,-1.004989,0.468595,0.458433,0.701395,-0.205247,-0.036617,0.021285,0.094436,0.999991,0.002292,0.003507,-0.001026,-0.245290,-0.247414,0.016599,0.937200,9.863454,27.104150,-148.283363
43720,-3.964085,2.165199,9.385911,-0.498771,-0.901750,0.552380,0.456464,0.838636,-0.226812,-0.039222,0.021482,0.094073,0.999988,0.002282,0.004193,-0.001134,-0.243781,-0.251872,0.017421,0.936391,10.100686,27.594300,-148.328421
43721,-4.462992,2.620481,9.485623,-0.066368,-1.099490,0.936640,0.357806,0.886981,-0.257042,-0.044175,0.026092,0.095100,0.999988,0.001789,0.004435,-0.001285,-0.242250,-0.256456,0.017672,0.935539,10.274810,28.117896,-148.385643
43722,-4.880636,2.305135,9.616394,-0.054418,-0.674392,1.194156,0.226215,0.883963,-0.336475,-0.048342,0.023024,0.096404,0.999988,0.001131,0.004420,-0.001682,-0.240515,-0.260845,0.017222,0.934781,10.349981,28.644978,-148.492807
43723,-5.753054,1.688296,9.288277,0.400248,0.259354,1.232305,0.286362,0.770204,-0.478065,-0.057132,0.016887,0.093127,0.999989,0.001432,0.003851,-0.002390,-0.238020,-0.264803,0.016991,0.934311,10.407587,29.125741,-148.704623
43724,-4.906699,4.227771,9.415427,0.722068,-2.423439,1.332029,0.498822,0.614440,-0.686998,-0.048632,0.042210,0.094409,0.999986,0.002494,0.003072,-0.003435,-0.234253,-0.268275,0.017675,0.934260,10.511021,29.537715,-149.069861
43725,-3.569889,2.757784,8.670860,-0.605425,-1.694730,-0.205717,-0.053413,0.763957,-0.739358,-0.035265,0.027732,0.086836,0.999986,-0.000267,0.003820,-0.003697,-0.230984,-0.271819,0.015520,0.934088,10.285521,30.042044,-149.453793
43726,-5.151564,1.889986,9.149999,-0.110291,-0.333204,0.850763,0.240077,0.761325,-0.792376,-0.051092,0.018993,0.091718,0.999984,0.001200,0.003807,-0.003962,-0.227067,-0.275663,0.014683,0.933935,10.207122,30.546270,-149.875620
43727,-3.671368,2.023622,9.702014,-1.507264,-1.199924,0.579185,0.122230,0.451018,-0.923192,-0.036401,0.020345,0.097115,0.999987,0.000611,0.002255,-0.004616,-0.222667,-0.277948,0.013451,0.934336,9.993164,30.890808,-150.423444
43728,-3.106289,0.838135,9.902791,-2.555290,-0.424322,0.272308,0.290583,0.233732,-1.050704,-0.030903,0.008400,0.099076,0.999984,0.001453,0.001169,-0.005253,-0.217423,-0.279383,0.013086,0.935148,9.817007,31.120411,-151.082619
43729,-2.852569,2.640261,10.233014,-2.227396,-2.193979,0.677679,0.549736,-0.121184,-1.082841,-0.028445,0.026275,0.102385,0.999981,0.002749,-0.000606,-0.005414,-0.211630,-0.279457,0.014257,0.936437,9.754054,31.154824,-151.805467
43730,-1.702444,4.434216,10.625104,-2.617702,-4.304710,0.678759,0.370497,-0.548411,-0.876855,-0.017122,0.044220,0.106286,0.999985,0.001852,-0.002742,-0.004384,-0.207020,-0.277290,0.015346,0.938093,9.636474,30.923455,-152.439319
43731,-0.851124,4.200689,9.011809,-2.488881,-4.257329,-1.137246,0.277433,-0.813033,-0.579168,-0.008756,0.041907,0.090141,0.999987,0.001387,-0.004065,-0.002896,-0.203903,-0.273781,0.016667,0.939782,9.553387,30.516851,-152.905009
43732,-0.589493,5.513467,8.532627,-1.919157,-5.480821,-1.456338,0.354176,-0.863327,-0.226025,-0.006201,0.054990,0.085397,0.999988,0.001771,-0.004317,-0.001130,-0.202339,-0.270047,0.018906,0.941157,9.634100,30.043829,-153.142245
43733,-1.475242,4.943777,8.548331,-1.409201,-4.560936,-1.043276,0.247651,-0.945866,0.117037,-0.015186,0.049323,0.085473,0.999988,0.001238,-0.004729,0.000585,-0.202513,-0.265809,0.021167,0.942277,9.760012,29.495731,-153.166080
43734,-1.753716,4.015161,8.162056,-1.272500,-3.509971,-1.334713,0.302796,-1.067344,0.438674,-0.018060,0.039989,0.081586,0.999982,0.001514,-0.005337,0.002193,-0.204120,-0.260978,0.024267,0.943205,10.014119,28.842652,-152.996484
43735,-2.017826,3.456953,7.882006,-1.059719,-2.800698,-1.495227,0.344119,-1.059043,0.690921,-0.020714,0.034363,0.078771,0.999979,0.001721,-0.005295,0.003455,-0.206845,-0.256222,0.027852,0.943816,10.362893,28.172764,-152.670152
43736,-3.246089,3.318283,7.818317,-0.043090,-2.082933,-0.962130,0.368239,-1.028595,0.899156,-0.033011,0.032891,0.078075,0.999975,0.001841,-0.005143,0.004496,-0.210527,-0.251557,0.031818,0.944132,10.785318,27.490997,-152.213524
43737,-3.792413,2.815388,7.439688,0.453148,-1.283917,-1.106211,0.231540,-0.964367,1.103982,-0.038437,0.027857,0.074245,0.999972,0.001158,-0.004822,0.005520,-0.215337,-0.247042,0.035293,0.944116,11.180664,26.825355,-151.628962
43738,-3.823926,1.896220,6.862336,0.460875,-0.320518,-1.750822,0.212056,-0.808596,1.254809,-0.038634,0.018648,0.068488,0.999972,0.001060,-0.004043,0.006274,-0.220908,-0.243163,0.038728,0.943701,11.609349,26.221098,-150.937456
43739,-4.222272,1.245417,6.579038,0.687606,0.535027,-1.944860,0.152048,-0.560371,1.297587,-0.042486,0.012129,0.065681,0.999975,0.000760,-0.002802,0.006488,-0.226780,-0.240405,0.041621,0.942891,12.017147,25.751850,-150.196124
43740,-5.531878,0.577983,6.106353,1.673982,1.808089,-1.929066,-0.002594,-0.238065,1.179732,-0.055424,0.005454,0.060998,0.999982,-0.000013,-0.001190,0.005899,-0.232349,-0.238969,0.043310,0.941824,12.319438,25.468017,-149.489339
43741,-6.890796,-0.491742,4.963700,2.803185,3.464380,-2.566775,-0.373569,0.180063,0.879037,-0.068841,-0.005127,0.049708,0.999988,-0.001868,0.000900,0.004395,-0.237019,-0.239164,0.042371,0.940652,12.348124,25.458412,-148.915126
43742,-8.602663,-1.810678,3.121627,4.384711,5.491227,-3.676819,-1.111727,0.819004,0.231312,-0.085877,-0.018031,0.031669,0.999975,-0.005559,0.004095,0.001157,-0.239661,-0.241587,0.036457,0.939611,11.821157,25.882062,-148.656529
43743,-9.999227,-7.416423,1.297103,3.822512,11.116074,-5.513621,-2.183287,1.604331,-0.761516,-0.100161,-0.073630,0.014580,0.999901,-0.010916,0.008021,-0.003807,-0.239037,-0.246597,0.023335,0.938886,10.443972,26.865489,-148.931319
43744,-11.725811,-12.677371,8.248433,-0.525790,15.856913,0.888055,-1.643487,1.901923,-1.393733,-0.117337,-0.125267,0.084633,0.999897,-0.008217,0.009509,-0.006968,-0.234773,-0.253650,0.011626,0.938301,9.189673,28.069462,-149.602998
43745,-18.764072,-1.805845,17.077140,5.253429,8.223598,13.676675,-0.241957,0.553844,-0.682527,-0.187227,-0.017212,0.171311,0.999990,-0.001210,0.002769,-0.003413,-0.231956,-0.255978,0.008956,0.938398,8.868521,28.441680,-149.979780
43746,-3.990148,3.324919,7.152410,1.030590,-1.907445,-1.243423,0.580886,-1.093731,-0.165081,-0.040265,0.033075,0.071401,0.999980,0.002904,-0.005469,-0.000825,-0.230436,-0.251483,0.012724,0.939943,9.097354,27.832955,-150.191583
43747,-0.420409,7.130853,10.068515,-1.443998,-7.123625,0.165768,-0.254886,0.016732,-0.004610,-0.004194,0.071437,0.100595,0.999999,-0.001274,0.000084,-0.000023,-0.230784,-0.251244,0.011481,0.939938,8.948974,27.840286,-150.187714
43748,-8.941637,-0.559874,10.455519,1.652989,3.428740,3.419669,-0.504918,-0.252640,0.026495,-0.089548,-0.005347,0.104456,0.999996,-0.002525,-0.001263,0.000132,-0.231580,-0.249431,0.009424,0.940248,8.654875,27.690047,-150.190396
43749,-3.045661,-0.546527,9.353059,-2.302476,0.927992,-0.278975,0.087712,-0.510733,-0.053211,-0.030697,-0.005498,0.093450,0.999997,0.000439,-0.002554,-0.000266,-0.231244,-0.247109,0.010342,0.940934,8.664649,27.402822,-150.268960
43750,-4.125744,2.232962,9.512592,-0.324234,-1.064236,0.735274,0.247581,-0.214565,-0.019240,-0.041357,0.022216,0.095109,0.999999,0.001238,-0.001073,-0.000096,-0.230888,-0.246346,0.011718,0.941205,8.789766,27.278275,-150.297013
43751,-4.202212,2.510286,9.373940,-0.068811,-1.242843,0.688810,0.071750,-0.217275,0.008347,-0.042125,0.025067,0.093703,0.999999,0.000359,-0.001086,0.000042,-0.230875,-0.245382,0.012297,0.941453,8.821691,27.151987,-150.308028
43752,-3.787113,1.111907,9.028865,-0.813898,-0.133103,0.006620,0.045487,-0.129708,-0.008208,-0.037929,0.011100,0.090267,1.000000,0.000227,-0.000649,-0.000041,-0.230824,-0.244783,0.012640,0.941617,8.838209,27.074466,-150.320801
43753,-4.303315,1.227600,8.909386,-0.302862,0.013129,0.152791,0.139617,-0.091629,-0.021811,-0.043073,0.012219,0.089083,1.000000,0.000698,-0.000458,-0.000109,-0.230593,-0.244490,0.013356,0.941739,8.905931,27.021982,-150.338667
43754,-4.181860,1.735051,8.900072,-0.173257,-0.479265,0.159771,0.139608,-0.076938,-0.028189,-0.041850,0.017294,0.088997,1.000000,0.000698,-0.000385,-0.000141,-0.230336,-0.244249,0.014057,0.941855,8.972918,26.976076,-150.359030
43755,-4.474346,1.494086,8.794054,0.001379,-0.115464,0.165995,0.092632,-0.059075,-0.033807,-0.044767,0.014908,0.087934,1.000000,0.000463,-0.000295,-0.000169,-0.230108,-0.244056,0.014500,0.941954,9.011726,26.943123,-150.381351
43756,-4.830804,0.962781,8.626370,0.131650,0.539757,0.105438,0.099325,-0.062464,-0.012100,-0.048334,0.009588,0.086253,1.000000,0.000497,-0.000312,-0.000060,-0.229977,-0.243835,0.015014,0.942035,9.060945,26.903983,-150.390096
43757,-4.681376,1.305691,8.683346,0.137147,0.174821,0.135741,0.137544,-0.080743,0.016822,-0.046850,0.012993,0.086824,1.000000,0.000688,-0.000404,0.000084,-0.229931,-0.243588,0.015755,0.942098,9.139012,26.854221,-150.382560
43758,-4.444872,1.753560,8.740116,0.120464,-0.319537,0.142455,0.121568,-0.092176,0.028536,-0.044491,0.017476,0.087391,1.000000,0.000608,-0.000461,0.000143,-0.229962,-0.243250,0.016457,0.942166,9.211148,26.794657,-150.368704
43759,-4.443934,1.804793,8.740632,0.145903,-0.352866,0.150176,0.078157,-0.104684,0.018716,-0.044487,0.018010,0.087390,1.000000,0.000391,-0.000523,0.000094,-0.229995,-0.242821,0.016948,0.942260,9.254543,26.731166,-150.362569
43760,-4.249509,1.848082,8.782009,0.002011,-0.471058,0.105755,0.034589,-0.113943,0.001625,-0.042545,0.018465,0.087799,1.000000,0.000173,-0.000570,0.000008,-0.230002,-0.242283,0.017232,0.942391,9.268160,26.661776,-150.368081
43761,-4.348412,1.783268,8.754111,0.074256,-0.361383,0.116414,-0.001583,-0.116908,-0.012272,-0.043534,0.017836,0.087516,1.000000,-0.000008,-0.000585,-0.000061,-0.229985,-0.241707,0.017324,0.942542,9.256485,26.594227,-150.382854
43762,-4.418818,1.662601,8.720855,0.105608,-0.216598,0.101213,-0.033563,-0.127072,-0.021627,-0.044242,0.016645,0.087178,1.000000,-0.000168,-0.000635,-0.000108,-0.229964,-0.241030,0.017275,0.942721,9.223967,26.519549,-150.404358
43763,-4.209367,1.615605,8.828063,-0.112747,-0.274141,0.095681,-0.046774,-0.137717,-0.024061,-0.042152,0.016182,0.088248,1.000000,-0.000234,-0.000689,-0.000120,-0.229943,-0.240305,0.017164,0.942913,9.182205,26.441298,-150.428613
43764,-4.253707,1.626763,8.821434,-0.055092,-0.263629,0.111300,-0.065275,-0.130013,-0.027766,-0.042592,0.016302,0.088181,1.000000,-0.000326,-0.000650,-0.000139,-0.229931,-0.239579,0.016962,0.943104,9.129810,26.365496,-150.454133
43765,-4.250237,1.474852,8.853538,-0.121566,-0.133536,0.116674,-0.085551,-0.131014,-0.027776,-0.042558,0.014792,0.088501,1.000000,-0.000428,-0.000655,-0.000139,-0.229940,-0.238841,0.016655,0.943295,9.065234,26.291333,-150.479864
43766,-4.212984,1.426656,8.832933,-0.145490,-0.107720,0.075310,-0.087953,-0.125673,-0.031816,-0.042183,0.014312,0.088297,1.000000,-0.000440,-0.000628,-0.000159,-0.229936,-0.238109,0.016336,0.943487,8.999077,26.218301,-150.507287
43767,-4.198743,1.489573,8.826862,-0.111421,-0.172838,0.072628,-0.088027,-0.122895,-0.033345,-0.042039,0.014942,0.088236,1.000000,-0.000440,-0.000614,-0.000167,-0.229922,-0.237407,0.016002,0.943673,8.932046,26.149179,-150.535499
43768,-4.137052,1.477806,8.885361,-0.175336,-0.197794,0.095837,-0.100802,-0.119564,-0.040114,-0.041421,0.014831,0.088821,1.000000,-0.000504,-0.000598,-0.000201,-0.229894,-0.236689,0.015606,0.943866,8.856653,26.080280,-150.567328
43769,-4.176079,1.270154,8.886837,-0.218467,-0.000071,0.085850,-0.104441,-0.111741,-0.043292,-0.041808,0.012757,0.088838,1.000000,-0.000522,-0.000559,-0.000216,-0.229853,-0.236021,0.015170,0.944051,8.778104,26.018280,-150.600487
43770,-4.155274,1.290502,8.881919,-0.209018,-0.031637,0.075461,-0.088897,-0.102287,-0.039141,-0.041596,0.012953,0.088792,1.000000,-0.000444,-0.000511,-0.000196,-0.229816,-0.235398,0.014811,0.944221,8.710691,25.958999,-150.629804
43771,-4.081638,1.296878,8.948772,-0.281022,-0.079460,0.103808,-0.081689,-0.091767,-0.038302,-0.040855,0.013013,0.089464,1.000000,-0.000408,-0.000459,-0.000192,-0.229773,-0.234850,0.014465,0.944373,8.647539,25.907810,-150.657700
43772,-4.094684,1.310411,8.881843,-0.223115,-0.084327,0.052091,-0.070501,-0.073666,-0.039405,-0.040977,0.013143,0.088799,1.000000,-0.000353,-0.000368,-0.000197,-0.229716,-0.234383,0.014159,0.944508,8.591887,25.864697,-150.684297
43773,-4.210013,1.205870,8.864494,-0.159677,0.057163,0.073101,-0.064442,-0.063032,-0.041919,-0.042126,0.012096,0.088628,1.000000,-0.000322,-0.000315,-0.000210,-0.229637,-0.233990,0.013858,0.944629,8.538908,25.830047,-150.711612
43774,-4.179493,1.247684,8.867064,-0.158011,0.003034,0.067835,-0.042567,-0.060044,-0.038122,-0.041819,0.012504,0.088655,1.000000,-0.000213,-0.000300,-0.000191,-0.229554,-0.233619,0.013670,0.944743,8.500227,25.794503,-150.736029
43775,-4.157705,1.332025,8.867727,-0.131690,-0.084632,0.070271,-0.042897,-0.053436,-0.036218,-0.041598,0.013347,0.088663,1.000000,-0.000214,-0.000267,-0.000181,-0.229478,-0.233296,0.013465,0.944845,8.461605,25.764773,-150.758784
43776,-4.139922,1.344523,8.880235,-0.138643,-0.106998,0.075416,-0.036631,-0.047023,-0.036431,-0.041418,0.013469,0.088790,1.000000,-0.000183,-0.000235,-0.000182,-0.229397,-0.232994,0.013292,0.944942,8.427355,25.736442,-150.780864
43777,-4.160005,1.278044,8.903591,-0.155401,-0.043538,0.096244,-0.041507,-0.038098,-0.037965,-0.041615,0.012807,0.089025,1.000000,-0.000208,-0.000190,-0.000190,-0.229312,-0.232745,0.013075,0.945027,8.389713,25.715526,-150.803239
43778,-4.202052,1.148819,8.887854,-0.164843,0.089376,0.083565,-0.024746,-0.032464,-0.033946,-0.042033,0.011506,0.088870,1.000000,-0.000124,-0.000162,-0.000170,-0.229229,-0.232524,0.012945,0.945103,8.363564,25.695218,-150.822367
43779,-4.189034,1.263844,8.905998,-0.129967,-0.022345,0.109244,-0.010894,-0.023947,-0.028731,-0.041899,0.012649,0.089054,1.000000,-0.000054,-0.000120,-0.000144,-0.229153,-0.232377,0.012866,0.945159,8.346573,25.681536,-150.837598
43780,-4.157345,1.208181,8.839647,-0.146082,0.018268,0.029107,-0.006466,-0.013776,-0.019430,-0.041578,0.012089,0.088393,1.000000,-0.000032,-0.000069,-0.000097,-0.229119,-0.232264,0.012817,0.945195,8.335594,25.670615,-150.845864
43781,-4.146765,1.240141,8.889341,-0.161222,-0.019239,0.073042,0.009844,-0.010200,-0.015941,-0.041471,0.012400,0.088892,1.000000,0.000049,-0.000051,-0.000080,-0.229080,-0.232205,0.012836,0.945219,8.334526,25.663660,-150.851775
43782,-4.201605,1.170401,8.849892,-0.129333,0.071220,0.052510,0.013782,-0.001649,-0.012903,-0.042016,0.011701,0.088499,1.000000,0.000069,-0.000008,-0.000065,-0.229054,-0.232173,0.012877,0.945233,8.337395,25.659077,-150.854824
43783,-4.128345,1.244835,8.859862,-0.159754,-0.026829,0.039407,0.031617,-0.005235,-0.002233,-0.041286,0.012435,0.088600,1.000000,0.000158,-0.000026,-0.000011,-0.229054,-0.232160,0.013009,0.945234,8.352734,25.653797,-150.851657
43784,-4.095287,1.341811,8.887578,-0.157242,-0.127605,0.062528,0.036109,0.003008,-0.002881,-0.040951,0.013403,0.088879,1.000000,0.000181,0.000015,-0.000014,-0.229050,-0.232175,0.013161,0.945229,8.371289,25.651030,-150.847982
43785,-4.192965,1.309311,8.845068,-0.076623,-0.049550,0.062643,0.037232,0.002913,0.000465,-0.041928,0.013077,0.088454,1.000000,0.000186,0.000015,0.000002,-0.229058,-0.232208,0.013313,0.945217,8.390903,25.650141,-150.842368
43786,-4.148699,1.264958,8.867381,-0.141273,-0.028026,0.057547,0.037398,0.000084,0.002002,-0.041487,0.012633,0.088676,1.000000,0.000187,0.000000,0.000010,-0.229075,-0.232210,0.013480,0.945210,8.411405,25.645309,-150.835896
43787,-4.166590,1.266080,8.896293,-0.140858,-0.020395,0.091211,0.040629,0.001661,0.005530,-0.041666,0.012642,0.088966,1.000000,0.000203,0.000008,0.000028,-0.229102,-0.232240,0.013656,0.945193,8.434293,25.643282,-150.827214
43788,-4.137068,1.303724,8.855631,-0.131247,-0.059672,0.047153,0.054522,-0.000895,0.004114,-0.041371,0.013012,0.088560,1.000000,0.000273,-0.000004,0.000021,-0.229109,-0.232257,0.013907,0.945184,8.465124,25.637719,-150.819515
43789,-4.094463,1.446735,8.851776,-0.103862,-0.201630,0.044298,0.054530,-0.000900,0.004116,-0.040945,0.014442,0.088522,1.000000,0.000273,-0.000005,0.000021,-0.229114,-0.232292,0.014150,0.945171,8.495486,25.634353,-150.811966
43790,-4.122651,1.503391,8.858472,-0.061706,-0.236152,0.070095,0.045857,-0.003353,0.001086,-0.041228,0.015013,0.088587,1.000000,0.000229,-0.000017,0.000005,-0.229116,-0.232287,0.014360,0.945168,8.520430,25.627647,-150.806403
43791,-4.137156,1.403957,8.881018,-0.103522,-0.139482,0.083244,0.031647,-0.005259,-0.002218,-0.041374,0.014026,0.088811,1.000000,0.000158,-0.000026,-0.000011,-0.229117,-0.232275,0.014492,0.945169,8.535779,25.622344,-150.803248
43792,-4.200971,1.464728,8.866906,-0.020873,-0.162064,0.106431,0.027464,-0.009578,-0.007548,-0.042013,0.014637,0.088669,1.000000,0.000137,-0.000048,-0.000038,-0.229100,-0.232221,0.014612,0.945184,8.547596,25.612845,-150.803697
43793,-4.173947,1.427326,8.839241,-0.045233,-0.136604,0.065095,0.015959,-0.010561,-0.008614,-0.041744,0.014268,0.088391,1.000000,0.000080,-0.000053,-0.000043,-0.229088,-0.232166,0.014669,0.945200,8.552001,25.605081,-150.805065
43794,-4.093628,1.472968,8.830538,-0.083825,-0.210380,0.028783,0.019582,-0.016580,-0.011949,-0.040943,0.014723,0.088303,1.000000,0.000098,-0.000083,-0.000060,-0.229059,-0.232070,0.014755,0.945229,8.557834,25.592001,-150.808936
43795,-4.039485,1.557204,8.849671,-0.097780,-0.309929,0.033804,0.011727,-0.014447,-0.019684,-0.040400,0.015571,0.088495,1.000000,0.000059,-0.000072,-0.000098,-0.228999,-0.231993,0.014783,0.945262,8.556653,25.582979,-150.817627
43796,-4.166270,1.575008,8.875497,0.000155,-0.271907,0.113992,0.000724,-0.015313,-0.030172,-0.041667,0.015756,0.088752,1.000000,0.000004,-0.000077,-0.000151,-0.228906,-0.231883,0.014757,0.945312,8.546817,25.572164,-150.832814
43797,-4.178314,1.295619,8.845561,-0.093506,-0.015587,0.055032,-0.016234,-0.017169,-0.030737,-0.041789,0.012970,0.088451,1.000000,-0.000081,-0.000086,-0.000154,-0.228827,-0.231762,0.014644,0.945363,8.526513,25.562538,-150.848698
43798,-4.208927,1.273300,8.866036,-0.085061,0.014889,0.083549,-0.006478,-0.014369,-0.030106,-0.042094,0.012742,0.088657,1.000000,-0.000032,-0.000072,-0.000151,-0.228742,-0.231648,0.014583,0.945412,8.512627,25.552255,-150.863743
43799,-4.077866,1.401870,8.936016,-0.162634,-0.164371,0.106644,-0.003330,-0.011372,-0.027353,-0.040782,0.014026,0.089358,1.000000,-0.000017,-0.000057,-0.000137,-0.228664,-0.231569,0.014528,0.945451,8.500876,25.545618,-150.876949
43800,-4.154966,1.181335,8.891577,-0.174267,0.069458,0.070846,-0.003894,-0.000946,-0.022033,-0.041549,0.011820,0.088915,1.000000,-0.000019,-0.000005,-0.000110,-0.228615,-0.231521,0.014473,0.945475,8.491202,25.542258,-150.885660
43801,-4.143698,1.211553,8.880830,-0.165038,0.037638,0.060437,0.011912,0.001982,-0.019846,-0.041435,0.012114,0.088809,1.000000,0.000060,0.000010,-0.000099,-0.228556,-0.231521,0.014484,0.945489,8.490759,25.542550,-150.892896
43802,-4.170679,1.251292,8.908186,-0.139271,0.012322,0.101773,0.020911,0.008905,-0.012104,-0.041702,0.012506,0.089085,1.000000,0.000105,0.000045,-0.000061,-0.228526,-0.231548,0.014546,0.945489,8.498357,25.543939,-150.894457
43803,-4.160316,1.283421,8.896744,-0.130029,-0.019493,0.091361,0.021699,0.014466,-0.011841,-0.041596,0.012827,0.088972,1.000000,0.000108,0.000072,-0.000059,-0.228495,-0.231618,0.014598,0.945479,8.506196,25.550629,-150.895494
43804,-4.155614,1.256817,8.876992,-0.137838,0.004721,0.068136,0.025364,0.018128,-0.007801,-0.041548,0.012559,0.088775,1.000000,0.000127,0.000091,-0.000039,-0.228481,-0.231693,0.014676,0.945463,8.517869,25.556887,-150.893490
43805,-4.174280,1.341487,8.872493,-0.087198,-0.061731,0.083469,0.027076,0.016745,-0.013108,-0.041734,0.013406,0.088730,1.000000,0.000135,0.000084,-0.000066,-0.228437,-0.231780,0.014749,0.945451,8.528538,25.564976,-150.895106
43806,-4.140123,1.337507,8.892603,-0.126840,-0.073537,0.086122,0.030103,0.022136,-0.006156,-0.041391,0.013363,0.088933,1.000000,0.000151,0.000111,-0.000031,-0.228426,-0.231879,0.014847,0.945428,8.543528,25.573374,-150.891691
43807,-4.150726,1.381077,8.889545,-0.101239,-0.106792,0.093788,0.027871,0.022301,-0.012845,-0.041496,0.013801,0.088902,1.000000,0.000139,0.000112,-0.000064,-0.228383,-0.231993,0.014917,0.945409,8.554951,25.584589,-150.892613
43808,-4.131819,1.457183,8.846439,-0.066536,-0.179241,0.057380,0.020949,0.018024,-0.015438,-0.041309,0.014566,0.088470,1.000000,0.000105,0.000090,-0.000077,-0.228338,-0.232063,0.014965,0.945402,8.562011,25.591452,-150.895413
43809,-4.168175,1.365967,8.877639,-0.092176,-0.084091,0.088649,0.016135,0.015422,-0.017853,-0.041674,0.013656,0.088781,1.000000,0.000081,0.000077,-0.000089,-0.228284,-0.232132,0.014983,0.945398,8.565070,25.599198,-150.900129
43810,-4.182665,1.434077,8.834026,-0.033429,-0.135383,0.065158,0.015103,0.014092,-0.020426,-0.041819,0.014338,0.088344,1.000000,0.000076,0.000070,-0.000102,-0.228222,-0.232177,0.015002,0.945401,8.567273,25.604265,-150.906432
43811,-4.161726,1.410661,8.844912,-0.065657,-0.124859,0.062661,0.010971,0.009332,-0.020012,-0.041612,0.014106,0.088452,1.000000,0.000055,0.000047,-0.000100,-0.228164,-0.232211,0.014999,0.945407,8.566538,25.608745,-150.913080
43812,-4.172174,1.366825,8.875628,-0.089991,-0.083796,0.088671,0.007108,0.009468,-0.020625,-0.041716,0.013669,0.088759,1.000000,0.000036,0.000047,-0.000103,-0.228110,-0.232225,0.014986,0.945417,8.563924,25.611218,-150.919941
43813,-4.178518,1.307237,8.867178,-0.106857,-0.028101,0.075867,-0.000104,0.010405,-0.020566,-0.041779,0.013077,0.088674,1.000000,-0.000001,0.000052,-0.000103,-0.228062,-0.232252,0.014929,0.945423,8.556736,25.616353,-150.926837
43814,-4.213366,1.299842,8.865891,-0.082010,-0.006763,0.088792,0.005518,0.009016,-0.008807,-0.042129,0.012998,0.088661,1.000000,0.000028,0.000045,-0.000044,-0.228065,-0.232261,0.014922,0.945420,8.556398,25.617571,-150.926318
43815,-4.202541,1.330529,8.854839,-0.072737,-0.038561,0.078372,0.003619,0.003535,-0.012410,-0.042023,0.013306,0.088549,1.000000,0.000018,0.000018,-0.000062,-0.228051,-0.232259,0.014900,0.945424,8.553276,25.618118,-150.928739
43816,-4.155217,1.354924,8.865423,-0.103628,-0.082142,0.070626,-0.000990,-0.002315,-0.007543,-0.041553,0.013551,0.088654,1.000000,-0.000005,-0.000012,-0.000038,-0.228067,-0.232208,0.014877,0.945433,8.549081,25.612821,-150.928500
43817,-4.135246,1.343941,8.856494,-0.119446,-0.080782,0.052561,0.000952,0.002180,-0.008907,-0.041351,0.013441,0.088565,1.000000,0.000005,0.000011,-0.000045,-0.228073,-0.232196,0.014848,0.945435,8.545328,25.612301,-150.928848
43818,-4.151286,1.328206,8.906309,-0.135118,-0.063766,0.101813,0.000310,0.003911,-0.005997,-0.041511,0.013283,0.089064,1.000000,0.000002,0.000020,-0.000030,-0.228095,-0.232175,0.014826,0.945435,8.542549,25.610406,-150.927051
43819,-4.167683,1.323420,8.875821,-0.110492,-0.050373,0.081072,0.001902,0.004921,-0.007105,-0.041674,0.013235,0.088759,1.000000,0.000010,0.000025,-0.000036,-0.228108,-0.232177,0.014800,0.945432,8.539942,25.611286,-150.926008
43820,-4.174614,1.351601,8.894287,-0.100984,-0.074219,0.104311,0.002978,0.005265,-0.009500,-0.041743,0.013517,0.088944,1.000000,0.000015,0.000026,-0.000048,-0.228111,-0.232166,0.014785,0.945434,8.537787,25.610461,-150.926287
43821,-4.196174,1.287762,8.855801,-0.093818,-0.005072,0.070763,0.000311,0.003910,-0.005997,-0.041960,0.012879,0.088559,1.000000,0.000002,0.000020,-0.000030,-0.228131,-0.232162,0.014754,0.945431,8.534528,25.610674,-150.924643
43822,-4.177629,1.364548,8.873412,-0.083207,-0.083243,0.088735,0.007092,0.000899,-0.006569,-0.041775,0.013644,0.088735,1.000000,0.000035,0.000004,-0.000033,-0.228143,-0.232134,0.014767,0.945435,8.535342,25.607136,-150.923495
43823,-4.151298,1.325728,8.845699,-0.107738,-0.057875,0.047448,0.001636,0.000024,-0.006076,-0.041513,0.013258,0.088457,1.000000,0.000008,0.000000,-0.000030,-0.228160,-0.232113,0.014747,0.945436,8.532662,25.605154,-150.922268
43824,-4.183090,1.305661,8.865254,-0.099329,-0.027395,0.075948,0.005335,0.002710,-0.007005,-0.041829,0.013056,0.088653,1.000000,0.000027,0.000014,-0.000035,-0.228172,-0.232093,0.014748,0.945438,8.532421,25.602686,-150.921223
43825,-4.155883,1.341359,8.884667,-0.114102,-0.072665,0.086283,0.007692,0.000154,-0.004510,-0.041558,0.013411,0.088847,1.000000,0.000038,0.000001,-0.000023,-0.228190,-0.232079,0.014758,0.945437,8.533641,25.600645,-150.919000
43826,-4.122278,1.348701,8.885391,-0.137304,-0.093687,0.073400,0.004820,0.002044,-0.008292,-0.041221,0.013487,0.088855,1.000000,0.000024,0.000010,-0.000041,-0.228197,-0.232054,0.014757,0.945441,8.532721,25.597917,-150.918829
43827,-4.183742,1.306733,8.864788,-0.097458,-0.027360,0.075967,0.012550,0.001774,-0.007062,-0.041836,0.013063,0.088649,1.000000,0.000063,0.000009,-0.000035,-0.228197,-0.232054,0.014785,0.945441,8.536098,25.597010,-150.918057
43828,-4.158725,1.355742,8.863653,-0.095516,-0.081517,0.070713,0.006018,0.000554,-0.004174,-0.041587,0.013556,0.088637,1.000000,0.000030,0.000003,-0.000021,-0.228221,-0.232024,0.014795,0.945442,8.536916,25.593093,-150.915442
43829,-4.170266,1.325753,8.874260,-0.103759,-0.049863,0.081148,0.014908,-0.000781,-0.004566,-0.041703,0.013252,0.088743,1.000000,0.000075,-0.000004,-0.000023,-0.228231,-0.232014,0.014841,0.945442,8.542217,25.590526,-150.913342
43830,-4.160960,1.370313,8.842889,-0.077745,-0.090533,0.055128,0.008337,-0.001578,-0.007419,-0.041610,0.013701,0.088429,1.000000,0.000042,-0.000008,-0.000037,-0.228237,-0.231976,0.014860,0.945449,8.543392,25.585685,-150.912969
43831,-4.172336,1.339779,8.853659,-0.085993,-0.058878,0.065563,0.001803,-0.002798,-0.004531,-0.041724,0.013398,0.088536,1.000000,0.000009,-0.000014,-0.000023,-0.228261,-0.231942,0.014846,0.945452,8.541111,25.581972,-150.911038
43832,-4.203760,1.319757,8.873388,-0.077595,-0.028393,0.094055,0.005070,-0.002188,-0.005975,-0.042038,0.013197,0.088734,1.000000,0.000025,-0.000011,-0.000030,-0.228278,-0.231898,0.014853,0.945459,8.540780,25.576671,-150.909815
43833,-4.203583,1.320093,8.873422,-0.077063,-0.028458,0.094059,0.007344,-0.003332,-0.004252,-0.042037,0.013199,0.088734,1.000000,0.000037,-0.000017,-0.000021,-0.228297,-0.231867,0.014866,0.945461,8.541728,25.572631,-150.907759
43834,-4.183167,1.310195,8.864549,-0.092633,-0.026895,0.076014,0.010733,-0.004554,0.000817,-0.041834,0.013097,0.088645,1.000000,0.000054,-0.000023,0.000004,-0.228339,-0.231818,0.014910,0.945462,8.546379,25.565424,-150.902497
43835,-4.110085,1.384253,8.874228,-0.122563,-0.125109,0.063051,0.008543,-0.004820,-0.000134,-0.041103,0.013839,0.088742,1.000000,0.000043,-0.000024,-0.000001,-0.228377,-0.231781,0.014935,0.945462,8.549068,25.560190,-150.897996
43836,-4.116148,1.413176,8.892967,-0.112990,-0.148952,0.086285,0.005109,-0.002610,-0.000235,-0.041163,0.014130,0.088929,1.000000,0.000026,-0.000013,-0.000001,-0.228420,-0.231735,0.014949,0.945463,8.550286,25.554178,-150.893212
43837,-4.127533,1.382867,8.903709,-0.121245,-0.117306,0.096723,0.007178,-0.000514,-0.005797,-0.041275,0.013827,0.089037,1.000000,0.000036,-0.000003,-0.000029,-0.228433,-0.231717,0.014956,0.945464,8.550834,25.551867,-150.891861
43838,-4.123542,1.367449,8.864439,-0.112775,-0.102247,0.057907,-0.002912,0.002308,-0.009523,-0.041234,0.013678,0.088645,1.000000,-0.000015,0.000012,-0.000048,-0.228442,-0.231686,0.014916,0.945470,8.545144,25.549433,-150.892446
43839,-4.155443,1.346690,8.884066,-0.104657,-0.071991,0.086392,-0.002911,0.002308,-0.009523,-0.041553,0.013470,0.088841,1.000000,-0.000015,0.000012,-0.000048,-0.228449,-0.231671,0.014868,0.945473,8.539017,25.549038,-150.893168
43840,-4.169234,1.328530,8.874329,-0.096235,-0.049217,0.081227,0.000690,-0.002722,-0.007876,-0.041693,0.013287,0.088743,1.000000,0.000003,-0.000014,-0.000039,-0.228462,-0.231619,0.014852,0.945482,8.535630,25.543618,-150.893193
43841,-4.169192,1.328410,8.874367,-0.095701,-0.049284,0.081232,0.003313,-0.000379,-0.006412,-0.041692,0.013284,0.088744,1.000000,0.000017,-0.000002,-0.000032,-0.228476,-0.231598,0.014840,0.945484,8.533803,25.541436,-150.892215
43842,-4.149172,1.317865,8.865403,-0.111283,-0.047740,0.063198,0.003828,0.000287,-0.005125,-0.041491,0.013178,0.088654,1.000000,0.000019,0.000001,-0.000026,-0.228498,-0.231565,0.014839,0.945487,8.533076,25.537495,-150.890230
43843,-4.126299,1.379597,8.843802,-0.093120,-0.111228,0.042332,0.007179,-0.000513,-0.005797,-0.041263,0.013794,0.088438,1.000000,0.000036,-0.000003,-0.000029,-0.228511,-0.231547,0.014846,0.945488,8.533624,25.535185,-150.888879
43844,-4.110506,1.384581,8.873982,-0.116331,-0.124590,0.063133,0.005420,0.001297,-0.006234,-0.041104,0.013845,0.088740,1.000000,0.000027,0.000006,-0.000031,-0.228526,-0.231520,0.014850,0.945491,8.533549,25.531917,-150.887496
43845,-4.043157,1.398930,8.875537,-0.163774,-0.167137,0.037415,0.005982,0.000973,-0.009915,-0.040430,0.013989,0.088756,1.000000,0.000030,0.000005,-0.000050,-0.228520,-0.231509,0.014845,0.945496,8.532357,25.530798,-150.888590
43846,-4.158714,1.359849,8.863029,-0.083391,-0.080643,0.070830,0.000059,0.008134,-0.008318,-0.041583,0.013600,0.088632,1.000000,0.000000,0.000041,-0.000042,-0.228532,-0.231508,0.014813,0.945493,8.528927,25.531578,-150.887870
43847,-4.159371,1.359581,8.862762,-0.082855,-0.080709,0.070834,0.003625,0.003525,-0.012411,-0.041591,0.013597,0.088629,1.000000,0.000018,0.000018,-0.000062,-0.228518,-0.231506,0.014791,0.945497,8.525813,25.532118,-150.890291
43848,-4.179816,1.370039,8.871537,-0.065650,-0.081919,0.088878,0.003793,0.000706,-0.010865,-0.041797,0.013701,0.088716,1.000000,0.000019,0.000004,-0.000054,-0.228513,-0.231475,0.014783,0.945506,8.523531,25.528913,-150.891870
43849,-4.178837,1.282340,8.844822,-0.091563,-0.002300,0.052888,-0.000886,0.005390,-0.010118,-0.041785,0.012826,0.088449,1.000000,-0.000004,0.000027,-0.000051,-0.228515,-0.231477,0.014740,0.945506,8.518529,25.530314,-150.892676
43850,-4.187868,1.323499,8.842810,-0.065534,-0.035214,0.060491,0.004907,0.000630,-0.007519,-0.041878,0.013234,0.088429,1.000000,0.000025,0.000003,-0.000038,-0.228525,-0.231446,0.014741,0.945511,8.517783,25.526793,-150.892163
43851,-4.152182,1.317829,8.863999,-0.105405,-0.047450,0.063264,0.007445,0.004383,-0.006828,-0.041519,0.013176,0.088641,1.000000,0.000037,0.000022,-0.000034,-0.228533,-0.231452,0.014742,0.945508,8.518403,25.527345,-150.890998
43852,-4.120939,1.338394,8.844107,-0.112168,-0.077631,0.034802,0.008774,0.000498,-0.006904,-0.041209,0.013381,0.088442,1.000000,0.000044,0.000002,-0.000035,-0.228541,-0.231426,0.014762,0.945512,8.520029,25.523706,-150.890112
43853,-4.147528,1.377908,8.871563,-0.086405,-0.103049,0.076053,0.010534,-0.001311,-0.006466,-0.041475,0.013776,0.088716,1.000000,0.000053,-0.000007,-0.000032,-0.228546,-0.231408,0.014785,0.945515,8.522286,25.521001,-150.889256
43854,-4.093991,1.374849,8.863275,-0.125983,-0.122792,0.045186,0.006764,0.006533,-0.009660,-0.040936,0.013747,0.088635,1.000000,0.000034,0.000033,-0.000048,-0.228544,-0.231408,0.014786,0.945515,8.522258,25.521021,-150.889533
43855,-4.173660,1.330211,8.871997,-0.086332,-0.048635,0.081321,0.010116,0.005734,-0.010330,-0.041733,0.013300,0.088722,1.000000,0.000051,0.000029,-0.000052,-0.228532,-0.231424,0.014794,0.945514,8.523515,25.522636,-150.890440
43856,-4.131241,1.381223,8.841240,-0.084242,-0.110518,0.042420,0.003629,0.003521,-0.012410,-0.041310,0.013813,0.088413,1.000000,0.000018,0.000018,-0.000062,-0.228520,-0.231407,0.014780,0.945522,8.520824,25.521188,-150.892729
43857,-4.183946,1.286495,8.902803,-0.110265,-0.007775,0.107402,0.004658,0.004855,-0.009838,-0.041837,0.012865,0.089029,1.000000,0.000023,0.000024,-0.000049,-0.228517,-0.231412,0.014764,0.945521,8.519052,25.522263,-150.893409
43858,-4.161434,1.348057,8.881054,-0.091760,-0.071015,0.086527,0.007150,-0.000096,-0.011534,-0.041614,0.013480,0.088811,1.000000,0.000036,-0.000000,-0.000058,-0.228505,-0.231381,0.014772,0.945532,8.518465,25.518698,-150.895489
43859,-4.143773,1.350588,8.851496,-0.091218,-0.078799,0.052879,0.004827,0.002037,-0.008291,-0.041436,0.013505,0.088516,1.000000,0.000024,0.000010,-0.000041,-0.228509,-0.231373,0.014762,0.945533,8.517093,25.518044,-150.895464
43860,-4.161639,1.348357,8.880913,-0.090422,-0.070928,0.086540,0.006325,-0.004666,-0.006820,-0.041618,0.013482,0.088809,1.000000,0.000032,-0.000023,-0.000034,-0.228519,-0.231320,0.014776,0.945543,8.517122,25.511497,-150.895013
43861,-4.143708,1.350967,8.851468,-0.089882,-0.078712,0.052892,0.005989,0.000970,-0.009913,-0.041436,0.013509,0.088515,1.000000,0.000030,0.000005,-0.000050,-0.228514,-0.231308,0.014771,0.945547,8.515935,25.510376,-150.896106
43862,-4.102959,1.404182,8.880605,-0.111743,-0.146445,0.068467,0.003799,0.000701,-0.010864,-0.041029,0.014042,0.088806,1.000000,0.000019,0.000004,-0.000054,-0.228509,-0.231277,0.014762,0.945556,8.513639,25.507220,-150.897690
43863,-4.148410,1.365812,8.890504,-0.096098,-0.093539,0.091747,-0.002856,0.001302,-0.014490,-0.041483,0.013662,0.088905,1.000000,-0.000014,0.000007,-0.000072,-0.228492,-0.231257,0.014710,0.945566,8.506160,25.506676,-150.901626
43864,-4.175920,1.329931,8.870975,-0.080199,-0.048124,0.081375,0.006639,-0.000765,-0.012820,-0.041759,0.013299,0.088710,1.000000,0.000033,-0.000004,-0.000064,-0.228475,-0.231223,0.014714,0.945578,8.504906,25.502857,-150.904574
43865,-4.146756,1.362780,8.830731,-0.070797,-0.087600,0.037282,-0.001095,-0.000506,-0.014052,-0.041467,0.013631,0.088307,1.000000,-0.000005,-0.000003,-0.000070,-0.228458,-0.231197,0.014672,0.945590,8.498483,25.501250,-150.908403
43866,-4.160229,1.333693,8.901315,-0.102827,-0.061611,0.102215,-0.001010,-0.001915,-0.013278,-0.041602,0.013340,0.089013,1.000000,-0.000005,-0.000010,-0.000066,-0.228447,-0.231149,0.014641,0.945605,8.492676,25.496826,-150.911747
43867,-4.135879,1.307143,8.853326,-0.111179,-0.045427,0.045359,-0.001009,-0.001916,-0.013278,-0.041359,0.013075,0.088533,1.000000,-0.000005,-0.000010,-0.000066,-0.228433,-0.231116,0.014603,0.945617,8.486454,25.494355,-150.915222
43868,-4.176108,1.327614,8.871234,-0.077539,-0.047952,0.081397,-0.001522,-0.002584,-0.014564,-0.041761,0.013280,0.088712,1.000000,-0.000008,-0.000013,-0.000073,-0.228417,-0.231064,0.014568,0.945634,8.479975,25.489666,-150.919437
43869,-4.135804,1.305953,8.853537,-0.109855,-0.045349,0.045374,0.001780,-0.002387,-0.010268,-0.041358,0.013061,0.088535,1.000000,0.000009,-0.000012,-0.000051,-0.228414,-0.231032,0.014547,0.945643,8.476146,25.486673,-150.921066
43870,-4.160293,1.331525,8.901610,-0.100158,-0.061451,0.102243,0.001526,0.001839,-0.012587,-0.041601,0.013317,0.089017,1.000000,0.000008,0.000009,-0.000063,-0.228404,-0.231004,0.014524,0.945652,8.472121,25.484332,-150.923627
43871,-4.122518,1.323033,8.863218,-0.116062,-0.067907,0.050584,0.002775,-0.000636,-0.013435,-0.041225,0.013232,0.088632,1.000000,0.000014,-0.000003,-0.000067,-0.228385,-0.230981,0.014501,0.945662,8.468078,25.482597,-150.927080
43872,-4.142862,1.333442,8.872040,-0.098838,-0.069091,0.068604,0.005394,0.001711,-0.011971,-0.041427,0.013335,0.088721,1.000000,0.000027,0.000009,-0.000060,-0.228373,-0.230958,0.014498,0.945671,8.466427,25.480137,-150.929267
43873,-4.113638,1.355892,8.911941,-0.129768,-0.105388,0.094644,0.004882,0.001042,-0.013257,-0.041135,0.013559,0.089120,1.000000,0.000024,0.000005,-0.000066,-0.228353,-0.230945,0.014484,0.945679,8.463707,25.479338,-150.932452
43874,-4.154912,1.302394,8.882566,-0.106402,-0.037330,0.079066,0.001956,0.003915,-0.012075,-0.041547,0.013026,0.088827,1.000000,0.000010,0.000020,-0.000060,-0.228345,-0.230928,0.014461,0.945686,8.460145,25.478138,-150.934499
43875,-4.179970,1.338898,8.850191,-0.056606,-0.056812,0.065787,0.007586,0.001981,-0.011020,-0.041798,0.013388,0.088503,1.000000,0.000038,0.000010,-0.000055,-0.228332,-0.230923,0.014461,0.945690,8.459616,25.477683,-150.936191
43876,-4.141947,1.320221,8.891990,-0.112595,-0.059895,0.084278,0.005481,0.000301,-0.011197,-0.041419,0.013202,0.088920,1.000000,0.000027,0.000002,-0.000056,-0.228324,-0.230893,0.014460,0.945700,8.458162,25.474371,-150.938025
43877,-4.151509,1.287195,8.842969,-0.097053,-0.022406,0.040235,0.005995,0.000970,-0.009911,-0.041514,0.012871,0.088430,1.000000,0.000030,0.000005,-0.000050,-0.228318,-0.230881,0.014455,0.945704,8.456980,25.473250,-150.939116
43878,-4.119649,1.382058,8.870135,-0.093458,-0.123183,0.063394,0.008185,0.001241,-0.008960,-0.041195,0.013819,0.088702,1.000000,0.000041,0.000006,-0.000045,-0.228317,-0.230858,0.014469,0.945709,8.457711,25.470288,-150.939462
43879,-4.153626,1.374968,8.869166,-0.068971,-0.101928,0.076201,0.003805,0.000698,-0.010862,-0.041535,0.013750,0.088692,1.000000,0.000019,0.000003,-0.000054,-0.228310,-0.230843,0.014453,0.945715,8.455007,25.469092,-150.941175
43880,-4.131452,1.351240,8.880743,-0.101030,-0.091430,0.073858,0.002128,0.001095,-0.010527,-0.041313,0.013514,0.088808,1.000000,0.000011,0.000005,-0.000053,-0.228308,-0.230813,0.014436,0.945723,8.451843,25.466186,-150.942512
43881,-4.131686,1.350878,8.880690,-0.100492,-0.091499,0.073863,-0.000061,0.000823,-0.011478,-0.041316,0.013511,0.088807,1.000000,-0.000000,0.000004,-0.000057,-0.228303,-0.230794,0.014401,0.945730,8.446762,25.465113,-150.944600
43882,-4.109618,1.327069,8.892229,-0.132555,-0.081012,0.071526,0.005313,0.003117,-0.012744,-0.041094,0.013271,0.088923,1.000000,0.000027,0.000016,-0.000064,-0.228287,-0.230777,0.014394,0.945738,8.444906,25.463542,-150.947150
43883,-4.096733,1.344700,8.901655,-0.139517,-0.103730,0.076735,0.002728,0.009474,-0.011824,-0.040962,0.013448,0.089019,1.000000,0.000014,0.000047,-0.000059,-0.228277,-0.230802,0.014362,0.945735,8.441677,25.467401,-150.948648
43884,-4.172297,1.284055,8.871141,-0.092296,-0.014318,0.073934,0.004351,0.010073,-0.007193,-0.041718,0.012840,0.088714,1.000000,0.000022,0.000050,-0.000036,-0.228289,-0.230816,0.014349,0.945728,8.441044,25.469306,-150.947055
43885,-4.177809,1.310114,8.829566,-0.058938,-0.032442,0.042626,0.004351,0.010073,-0.007193,-0.041773,0.013101,0.088298,1.000000,0.000022,0.000050,-0.000036,-0.228299,-0.230846,0.014329,0.945719,8.440020,25.473115,-150.945590
43886,-4.182772,1.325770,8.868370,-0.065609,-0.047223,0.081487,0.010294,0.002922,-0.008781,-0.041826,0.013255,0.088685,1.000000,0.000051,0.000015,-0.000044,-0.228297,-0.230833,0.014350,0.945722,8.442070,25.471112,-150.945669
43887,-4.144810,1.392344,8.876726,-0.071123,-0.124256,0.081444,0.003413,0.007325,-0.008991,-0.041444,0.013924,0.088769,1.000000,0.000017,0.000037,-0.000045,-0.228299,-0.230849,0.014327,0.945718,8.439912,25.473514,-150.945589
43888,-4.114235,1.327409,8.890044,-0.128571,-0.080816,0.071581,0.001906,0.004906,-0.007109,-0.041140,0.013275,0.088902,1.000000,0.000010,0.000025,-0.000036,-0.228314,-0.230836,0.014309,0.945718,8.437689,25.472503,-150.944427
43889,-4.137227,1.350740,8.878131,-0.095170,-0.091209,0.073918,0.001309,0.005645,-0.009168,-0.041369,0.013509,0.088783,1.000000,0.000007,0.000028,-0.000046,-0.228318,-0.230841,0.014277,0.945716,8.434210,25.473968,-150.944615
43890,-4.138039,1.350352,8.877811,-0.094379,-0.091068,0.073927,-0.001705,0.009923,-0.008761,-0.041375,0.013506,0.088780,1.000000,-0.000009,0.000050,-0.000044,-0.228330,-0.230848,0.014234,0.945712,8.429671,25.475943,-150.944029
43891,-4.150330,1.319085,8.888249,-0.102779,-0.059469,0.084388,-0.000538,0.008857,-0.010381,-0.041499,0.013193,0.088884,1.000000,-0.000003,0.000044,-0.000052,-0.228331,-0.230866,0.014188,0.945708,8.424935,25.479330,-150.944681
43892,-4.175871,1.355109,8.855685,-0.052708,-0.078657,0.071057,-0.002700,0.008174,-0.005594,-0.041755,0.013553,0.088558,1.000000,-0.000014,0.000041,-0.000028,-0.228358,-0.230864,0.014146,0.945703,8.420610,25.480053,-150.942266
43893,-4.162783,1.372357,8.865277,-0.059644,-0.101373,0.076267,-0.002813,0.000875,-0.008750,-0.041627,0.013727,0.088653,1.000000,-0.000014,0.000004,-0.000044,-0.228369,-0.230842,0.014101,0.945707,8.414692,25.478779,-150.942636
43894,-4.192363,1.348795,8.825315,-0.027504,-0.064938,0.050191,-0.010461,-0.000287,-0.009212,-0.041923,0.013494,0.088252,1.000000,-0.000052,-0.000001,-0.000046,-0.228388,-0.230791,0.014027,0.945716,8.404607,25.475019,-150.943280
43895,-4.178855,1.280285,8.868599,-0.085205,-0.014023,0.073998,-0.009039,-0.005577,-0.008511,-0.041790,0.012809,0.088684,1.000000,-0.000045,-0.000028,-0.000043,-0.228406,-0.230731,0.013960,0.945727,8.394929,25.470069,-150.944097
43896,-4.135574,1.330197,8.838510,-0.082987,-0.075926,0.035105,-0.007786,-0.008051,-0.009358,-0.041359,0.013307,0.088383,1.000000,-0.000039,-0.000040,-0.000047,-0.228421,-0.230646,0.013908,0.945745,8.386026,25.461931,-150.945554
43897,-4.164211,1.295793,8.879176,-0.091358,-0.036608,0.079219,-0.011711,-0.006931,-0.005010,-0.041645,0.012964,0.088790,1.000000,-0.000059,-0.000035,-0.000025,-0.228458,-0.230577,0.013834,0.945754,8.375709,25.455921,-150.944296
43898,-4.143460,1.284342,8.870707,-0.107041,-0.035187,0.061245,-0.004489,-0.007846,-0.005061,-0.041438,0.012846,0.088705,1.000000,-0.000022,-0.000039,-0.000025,-0.228489,-0.230497,0.013802,0.945766,8.369860,25.447548,-150.943033
43899,-4.163011,1.294305,8.879956,-0.090046,-0.036540,0.079231,-0.003977,-0.007176,-0.003775,-0.041633,0.012946,0.088798,1.000000,-0.000020,-0.000036,-0.000019,-0.228524,-0.230435,0.013767,0.945773,8.364299,25.441296,-150.941021
43900,-4.140107,1.270310,8.891906,-0.122145,-0.026121,0.076932,-0.002470,-0.004757,-0.005656,-0.041403,0.012705,0.088918,1.000000,-0.000012,-0.000024,-0.000028,-0.228550,-0.230372,0.013740,0.945783,8.359562,25.434732,-150.939850
43901,-4.155803,1.265347,8.861712,-0.097753,-0.012538,0.056052,0.002759,-0.000054,-0.002728,-0.041558,0.012653,0.088617,1.000000,0.000014,-0.000000,-0.000014,-0.228583,-0.230351,0.013729,0.945780,8.358424,25.432430,-150.936523
43902,-4.130929,1.229405,8.893914,-0.146271,0.006872,0.069431,0.011830,-0.004180,-0.001568,-0.041311,0.012289,0.088939,1.000000,0.000059,-0.000021,-0.000008,-0.228612,-0.230307,0.013774,0.945783,8.362997,25.425859,-150.932729
43903,-4.125958,1.289454,8.901721,-0.127751,-0.048796,0.082168,0.010578,-0.001706,-0.000721,-0.041260,0.012890,0.089018,1.000000,0.000053,-0.000009,-0.000004,-0.228644,-0.230287,0.013805,0.945780,8.366813,25.422453,-150.928296
43904,-4.121700,1.275175,8.862375,-0.119587,-0.033732,0.043312,0.016436,0.001671,-0.006438,-0.041216,0.012746,0.088625,1.000000,0.000082,0.000008,-0.000032,-0.228645,-0.230276,0.013859,0.945781,8.372933,25.419608,-150.927050
43905,-4.113148,1.235277,8.863962,-0.144504,-0.000877,0.035806,0.020730,0.003626,-0.005309,-0.041130,0.012345,0.088642,1.000000,0.000104,0.000018,-0.000027,-0.228645,-0.230294,0.013926,0.945776,8.381542,25.419606,-150.925004
43906,-4.120319,1.265464,8.882042,-0.134693,-0.024684,0.059007,0.026531,0.008000,-0.006061,-0.041199,0.012644,0.088824,1.000000,0.000133,0.000040,-0.000030,-0.228637,-0.230324,0.014021,0.945769,8.393787,25.420323,-150.922909
43907,-4.107433,1.285532,8.891130,-0.141597,-0.047420,0.064229,0.029976,0.005799,-0.005955,-0.041071,0.012843,0.088914,1.000000,0.000150,0.000029,-0.000030,-0.228623,-0.230362,0.014129,0.945762,8.407605,25.421606,-150.921068
43908,-4.128424,1.298283,8.899294,-0.124339,-0.048563,0.082212,0.026365,0.010812,-0.007609,-0.041279,0.012973,0.088997,1.000000,0.000132,0.000054,-0.000038,-0.228608,-0.230406,0.014218,0.945753,8.419443,25.424047,-150.919696
43909,-4.122869,1.272479,8.879856,-0.132856,-0.024708,0.059031,0.038544,0.010113,-0.009434,-0.041224,0.012710,0.088803,1.000000,0.000193,0.000051,-0.000047,-0.228568,-0.230475,0.014357,0.945744,8.437406,25.428067,-150.919635
43910,-4.128558,1.301721,8.837702,-0.099255,-0.042559,0.027677,0.043865,0.013408,-0.005733,-0.041279,0.012999,0.088383,1.000000,0.000219,0.000067,-0.000029,-0.228542,-0.230551,0.014528,0.945729,8.459873,25.431826,-150.916826
43911,-4.136368,1.333385,8.855210,-0.089667,-0.066555,0.050868,0.038469,0.011513,-0.010206,-0.041358,0.013319,0.088557,1.000000,0.000192,0.000058,-0.000051,-0.228498,-0.230626,0.014664,0.945719,8.477642,25.436705,-150.917116
43912,-4.135316,1.323720,8.874731,-0.105296,-0.057445,0.066561,0.044448,0.013070,-0.009409,-0.041347,0.013219,0.088753,1.000000,0.000222,0.000065,-0.000047,-0.228454,-0.230701,0.014835,0.945709,8.499439,25.440587,-150.916659
43913,-4.163637,1.291691,8.854231,-0.089927,-0.012181,0.056127,0.046220,0.011263,-0.008965,-0.041631,0.012898,0.088548,1.000000,0.000231,0.000056,-0.000045,-0.228407,-0.230784,0.015009,0.945697,8.521975,25.445218,-150.916190
43914,-4.139828,1.344209,8.851956,-0.087569,-0.066372,0.050888,0.050183,0.009731,-0.007568,-0.041393,0.013421,0.088525,1.000000,0.000251,0.000049,-0.000038,-0.228365,-0.230850,0.015212,0.945688,8.547414,25.447059,-150.914906
43915,-4.133823,1.394591,8.879079,-0.085373,-0.113030,0.079297,0.051360,0.008657,-0.009184,-0.041334,0.013925,0.088796,1.000000,0.000257,0.000043,-0.000046,-0.228311,-0.230927,0.015414,0.945679,8.572733,25.450232,-150.914816
43916,-4.125917,1.357213,8.880124,-0.110073,-0.080005,0.071811,0.045730,0.010577,-0.010247,-0.041254,0.013554,0.088807,1.000000,0.000229,0.000053,-0.000051,-0.228261,-0.230992,0.015592,0.945673,8.594936,25.452787,-150.915093
43917,-4.122195,1.420237,8.886626,-0.091450,-0.135641,0.084531,0.052035,0.006905,-0.012081,-0.041218,0.014182,0.088871,1.000000,0.000260,0.000035,-0.000060,-0.228193,-0.231061,0.015795,0.945669,8.619790,25.455216,-150.916984
43918,-4.129749,1.378007,8.857559,-0.092340,-0.088926,0.056135,0.050022,0.003814,-0.011478,-0.041295,0.013760,0.088580,1.000000,0.000250,0.000019,-0.000057,-0.228131,-0.231099,0.016000,0.945671,8.643849,25.454046,-150.918690
43919,-4.164067,1.374367,8.855853,-0.067909,-0.067569,0.068876,0.044390,0.005734,-0.012543,-0.041637,0.013727,0.088563,1.000000,0.000222,0.000029,-0.000063,-0.228070,-0.231154,0.016168,0.945669,8.664150,25.455854,-150.920981
43920,-4.137701,1.413515,8.874279,-0.081924,-0.112785,0.079329,0.043225,0.006802,-0.010926,-0.041373,0.014118,0.088747,1.000000,0.000216,0.000034,-0.000055,-0.228019,-0.231198,0.016338,0.945668,8.684585,25.456338,-150.922086
43921,-4.149687,1.385941,8.884444,-0.090395,-0.081210,0.089803,0.037760,0.005914,-0.010437,-0.041494,0.013845,0.088848,1.000000,0.000189,0.000030,-0.000052,-0.227974,-0.231246,0.016477,0.945664,8.701664,25.458066,-150.923037
43922,-4.150321,1.388881,8.883689,-0.089610,-0.081084,0.089811,0.038936,0.004839,-0.012051,-0.041500,0.013874,0.088841,1.000000,0.000195,0.000024,-0.000060,-0.227923,-0.231277,0.016627,0.945667,8.719261,25.457540,-150.925020
43923,-4.128434,1.453075,8.860912,-0.071031,-0.144432,0.068874,0.033894,0.006030,-0.011058,-0.041281,0.014518,0.088613,1.000000,0.000169,0.000030,-0.000055,-0.227880,-0.231321,0.016747,0.945664,8.733963,25.459389,-150.926348
43924,-4.151679,1.393935,8.882263,-0.088284,-0.081025,0.089823,0.028340,0.006547,-0.011348,-0.041513,0.013929,0.088826,1.000000,0.000142,0.000033,-0.000057,-0.227845,-0.231347,0.016846,0.945664,8.745755,25.459775,-150.927664
43925,-4.141196,1.426528,8.870566,-0.078719,-0.112731,0.079356,0.027813,0.006255,-0.018371,-0.041408,0.014257,0.088709,1.000000,0.000139,0.000031,-0.000092,-0.227775,-0.231386,0.016928,0.945670,8.755010,25.462389,-150.933556
43926,-4.135062,1.399738,8.851671,-0.087050,-0.088693,0.056185,0.025966,0.000360,-0.016206,-0.041349,0.013989,0.088519,1.000000,0.000130,0.000002,-0.000081,-0.227719,-0.231381,0.017018,0.945683,8.763878,25.459700,-150.938509
43927,-4.135590,1.401152,8.851200,-0.086510,-0.088760,0.056189,0.021173,0.006440,-0.016269,-0.041352,0.014006,0.088515,1.000000,0.000106,0.000032,-0.000081,-0.227667,-0.231413,0.017071,0.945687,8.769904,25.462236,-150.943065
43928,-4.154312,1.399988,8.880079,-0.085635,-0.080907,0.089848,0.018982,0.006160,-0.017222,-0.041539,0.013995,0.088803,1.000000,0.000095,0.000031,-0.000086,-0.227614,-0.231428,0.017119,0.945695,8.774736,25.462930,-150.948166
43929,-4.159597,1.341729,8.872298,-0.103257,-0.025432,0.077149,0.017387,0.005154,-0.016112,-0.041593,0.013413,0.088725,1.000000,0.000087,0.000026,-0.000081,-0.227567,-0.231449,0.017156,0.945701,8.778581,25.464725,-150.952747
43930,-4.169201,1.384047,8.869519,-0.076938,-0.058169,0.084630,0.020177,0.004704,-0.013095,-0.041689,0.013834,0.088698,1.000000,0.000101,0.000024,-0.000065,-0.227533,-0.231458,0.017217,0.945706,8.785150,25.464237,-150.955334
43931,-4.185636,1.380060,8.838759,-0.052621,-0.044509,0.063700,0.017321,0.006175,-0.011152,-0.041853,0.013795,0.088390,1.000000,0.000087,0.000031,-0.000056,-0.227509,-0.231484,0.017258,0.945705,8.790338,25.466176,-150.956705
43932,-4.163693,1.357791,8.850271,-0.084762,-0.034206,0.061465,0.016985,0.002691,-0.010875,-0.041635,0.013573,0.088504,1.000000,0.000085,0.000013,-0.000054,-0.227488,-0.231479,0.017308,0.945710,8.795590,25.464365,-150.958123
43933,-4.170620,1.387361,8.868334,-0.075081,-0.058176,0.084644,0.016069,-0.000445,-0.006921,-0.041706,0.013868,0.088684,1.000000,0.000080,-0.000002,-0.000035,-0.227485,-0.231472,0.017356,0.945711,8.800925,25.462186,-150.957482
43934,-4.110253,1.431431,8.888081,-0.112898,-0.124878,0.082403,0.010166,0.005684,-0.010336,-0.041099,0.014312,0.088883,1.000000,0.000051,0.000028,-0.000052,-0.227475,-0.231474,0.017371,0.945713,8.802537,25.462029,-150.958290
43935,-4.144442,1.424454,8.886939,-0.088482,-0.103484,0.095119,0.009320,0.001524,-0.011341,-0.041443,0.014243,0.088870,1.000000,0.000047,0.000008,-0.000057,-0.227459,-0.231469,0.017380,0.945718,8.802895,25.461352,-150.960230
43936,-4.187626,1.383668,8.837252,-0.049221,-0.044255,0.063718,0.008639,0.003652,-0.014185,-0.041874,0.013836,0.088374,1.000000,0.000043,0.000018,-0.000071,-0.227433,-0.231460,0.017386,0.945726,8.802513,25.460386,-150.963638
43937,-4.192332,1.399565,8.876104,-0.055932,-0.059274,0.102604,0.007300,-0.001562,-0.010733,-0.041923,0.013995,0.088761,1.000000,0.000036,-0.000008,-0.000054,-0.227422,-0.231438,0.017389,0.945734,8.801749,25.457908,-150.965497
43938,-4.156403,1.403825,8.817326,-0.055371,-0.074606,0.035309,-0.000877,-0.003406,-0.012484,-0.041565,0.014041,0.088172,1.000000,-0.000004,-0.000017,-0.000062,-0.227414,-0.231384,0.017360,0.945750,8.796079,25.452804,-150.968546
43939,-4.138129,1.395898,8.868437,-0.094997,-0.079475,0.071971,0.002507,-0.004578,-0.007403,-0.041383,0.013959,0.088684,1.000000,0.000013,-0.000023,-0.000037,-0.227424,-0.231342,0.017347,0.945758,8.793341,25.448327,-150.968610
43940,-4.117712,1.385243,8.859814,-0.110739,-0.078145,0.054043,0.001246,-0.002101,-0.006571,-0.041178,0.013853,0.088598,1.000000,0.000006,-0.000011,-0.000033,-0.227442,-0.231297,0.017334,0.945765,8.790535,25.443454,-150.967767
43941,-4.099632,1.462179,8.876708,-0.099301,-0.156422,0.071976,0.000737,-0.002778,-0.007854,-0.040997,0.014623,0.088767,1.000000,0.000004,-0.000014,-0.000039,-0.227452,-0.231261,0.017310,0.945772,8.786736,25.440035,-150.967938
43942,-4.176228,1.487892,8.872686,-0.025205,-0.146167,0.104835,-0.005099,0.002321,-0.016229,-0.041760,0.014885,0.088727,1.000000,-0.000025,0.000012,-0.000081,-0.227431,-0.231231,0.017251,0.945785,8.777882,25.438509,-150.972834
43943,-4.160677,1.416516,8.856895,-0.059433,-0.089509,0.074213,-0.015803,-0.003289,-0.018653,-0.041607,0.014176,0.088567,1.000000,-0.000079,-0.000016,-0.000093,-0.227409,-0.231175,0.017137,0.945806,8.761677,25.435745,-150.979825
43944,-4.164883,1.355390,8.850079,-0.076919,-0.033870,0.061530,-0.011665,-0.007615,-0.015689,-0.041651,0.013562,0.088498,1.000000,-0.000058,-0.000038,-0.000078,-0.227398,-0.231089,0.017058,0.945831,8.748802,25.428550,-150.985272
43945,-4.141941,1.330515,8.862457,-0.109317,-0.023805,0.059322,-0.010647,-0.006261,-0.013123,-0.041421,0.013313,0.088623,1.000000,-0.000053,-0.000031,-0.000066,-0.227396,-0.231025,0.016979,0.945849,8.736920,25.423618,-150.989079
43946,-4.139401,1.316331,8.883459,-0.124957,-0.014759,0.075051,-0.008627,-0.003175,-0.013730,-0.041395,0.013170,0.088833,1.000000,-0.000043,-0.000016,-0.000069,-0.227392,-0.230964,0.016911,0.945866,8.726493,25.418775,-150.992785
43947,-4.175392,1.320655,8.862090,-0.084162,-0.002264,0.072027,-0.002135,-0.000929,-0.011651,-0.041754,0.013210,0.088621,1.000000,-0.000011,-0.000005,-0.000058,-0.227388,-0.230934,0.016868,0.945875,8.720106,25.416733,-150.995154
43948,-4.139800,1.399293,8.849527,-0.072556,-0.088075,0.056308,-0.003993,0.002273,-0.012881,-0.041396,0.013997,0.088495,1.000000,-0.000020,0.000011,-0.000064,-0.227382,-0.230904,0.016817,0.945885,8.712778,25.414906,-150.997917
43949,-4.169271,1.365401,8.889993,-0.080978,-0.048795,0.100444,-0.003992,0.002272,-0.012881,-0.041691,0.013658,0.088900,1.000000,-0.000020,0.000011,-0.000064,-0.227374,-0.230888,0.016760,0.945892,8.705128,25.414784,-151.000749
43950,-4.163071,1.336224,8.871500,-0.089420,-0.024790,0.077285,-0.000957,0.006714,-0.010922,-0.041627,0.013365,0.088716,1.000000,-0.000005,0.000034,-0.000055,-0.227373,-0.230882,0.016721,0.945894,8.700249,25.415309,-151.001937
43951,-4.161389,1.322713,8.891994,-0.105293,-0.015939,0.093015,-0.004078,0.003674,-0.013660,-0.041611,0.013232,0.088920,1.000000,-0.000020,0.000018,-0.000068,-0.227362,-0.230872,0.016661,0.945900,8.692397,25.416048,-151.005123
43952,-4.130266,1.342691,8.872084,-0.111968,-0.046251,0.064615,0.007231,-0.000529,-0.005775,-0.041303,0.013425,0.088721,1.000000,0.000036,-0.000003,-0.000029,-0.227378,-0.230841,0.016674,0.945904,8.693292,25.412033,-151.003551
43953,-4.166521,1.348270,8.850396,-0.071180,-0.033731,0.061574,0.005286,0.004075,-0.007785,-0.041663,0.013482,0.088505,1.000000,0.000026,0.000020,-0.000039,-0.227383,-0.230844,0.016665,0.945902,8.692404,25.412489,-151.003015
43954,-4.119849,1.373901,8.860586,-0.101569,-0.077824,0.054145,0.005794,0.004753,-0.006502,-0.041196,0.013738,0.088607,1.000000,0.000029,0.000024,-0.000033,-0.227397,-0.230836,0.016665,0.945900,8.692490,25.411535,-151.001502
43955,-4.154093,1.366654,8.859441,-0.077186,-0.056380,0.066827,0.004618,0.005826,-0.004889,-0.041538,0.013666,0.088596,1.000000,0.000023,0.000029,-0.000024,-0.227417,-0.230845,0.016653,0.945893,8.692070,25.412733,-150.998983
43956,-4.134355,1.356454,8.850424,-0.092959,-0.055083,0.048914,0.006390,0.004027,-0.004439,-0.041341,0.013563,0.088506,1.000000,0.000032,0.000020,-0.000022,-0.227439,-0.230835,0.016659,0.945891,8.693022,25.411194,-150.996260
43957,-4.148351,1.413694,8.886834,-0.073943,-0.102911,0.095244,0.004705,0.004423,-0.004109,-0.041481,0.014136,0.088870,1.000000,0.000024,0.000022,-0.000021,-0.227463,-0.230838,0.016651,0.945884,8.692804,25.411530,-150.993386
43958,-4.157940,1.380117,8.837930,-0.058711,-0.065127,0.051111,0.003429,0.007275,-0.009015,-0.041576,0.013802,0.088381,1.000000,0.000017,0.000036,-0.000045,-0.227468,-0.230840,0.016634,0.945883,8.690963,25.412230,-150.993200
43959,-4.142605,1.385368,8.867998,-0.081875,-0.078986,0.072093,0.006132,-0.000483,-0.009119,-0.041426,0.013853,0.088680,1.000000,0.000031,-0.000002,-0.000046,-0.227466,-0.230822,0.016632,0.945888,8.690012,25.410221,-150.993937
43960,-4.154023,1.354366,8.879000,-0.090220,-0.047265,0.082588,-0.002973,0.003623,-0.010315,-0.041538,0.013547,0.088791,1.000000,-0.000015,0.000018,-0.000052,-0.227470,-0.230799,0.016587,0.945893,8.684002,25.408973,-150.994984
43961,-4.147515,1.325438,8.860611,-0.098940,-0.023460,0.059433,-0.000012,0.000375,-0.005738,-0.041475,0.013256,0.088606,1.000000,-0.000000,0.000002,-0.000029,-0.227492,-0.230778,0.016559,0.945894,8.680477,25.407158,-150.993519
43962,-4.143473,1.384527,8.867724,-0.079801,-0.078829,0.072111,0.003604,0.004470,-0.007455,-0.041432,0.013845,0.088678,1.000000,0.000018,0.000022,-0.000037,-0.227504,-0.230767,0.016548,0.945894,8.679036,25.406149,-150.992551
43963,-4.148343,1.325198,8.860259,-0.097647,-0.023420,0.059446,0.000235,0.005261,-0.006796,-0.041481,0.013253,0.088604,1.000000,0.000001,0.000026,-0.000034,-0.227520,-0.230768,0.016514,0.945890,8.675567,25.407192,-150.991281
43964,-4.144653,1.384170,8.867228,-0.078495,-0.078785,0.072122,0.000655,0.007341,-0.006293,-0.041443,0.013843,0.088674,1.000000,0.000003,0.000037,-0.000031,-0.227540,-0.230768,0.016487,0.945886,8.672864,25.407712,-150.989446
43965,-4.131927,1.401897,8.876529,-0.085235,-0.101558,0.077374,0.000148,0.006663,-0.007576,-0.041316,0.014020,0.088767,1.000000,0.000001,0.000033,-0.000038,-0.227553,-0.230776,0.016451,0.945881,8.669194,25.409617,-150.988532
43966,-4.159543,1.365619,8.857043,-0.069914,-0.056036,0.066883,-0.001029,0.007736,-0.005964,-0.041592,0.013658,0.088572,1.000000,-0.000005,0.000039,-0.000030,-0.227575,-0.230775,0.016416,0.945877,8.665628,25.410340,-150.986581
43967,-4.117538,1.406398,8.906290,-0.107604,-0.115328,0.098377,-0.000778,0.003904,-0.009362,-0.041173,0.014066,0.089064,1.000000,-0.000004,0.000020,-0.000047,-0.227581,-0.230770,0.016376,0.945878,8.660834,25.410836,-150.987050
43968,-4.165101,1.305448,8.849369,-0.087034,-0.000524,0.054228,-0.002636,0.007103,-0.010593,-0.041647,0.013058,0.088495,1.000000,-0.000013,0.000036,-0.000053,-0.227585,-0.230764,0.016328,0.945879,8.655079,25.411605,-150.987834
43969,-4.161453,1.364185,8.856367,-0.068080,-0.056058,0.066895,0.000236,0.005260,-0.006796,-0.041612,0.013643,0.088565,1.000000,0.000001,0.000026,-0.000034,-0.227601,-0.230766,0.016295,0.945875,8.651611,25.412648,-150.986565
43970,-4.144130,1.366195,8.826711,-0.067472,-0.063680,0.033252,0.000150,0.006662,-0.007576,-0.041438,0.013663,0.088269,1.000000,0.000001,0.000033,-0.000038,-0.227616,-0.230762,0.016264,0.945873,8.648242,25.412914,-150.985534
43971,-4.153640,1.322380,8.858198,-0.092483,-0.023261,0.059496,0.000150,0.006662,-0.007576,-0.041533,0.013225,0.088583,1.000000,0.000001,0.000033,-0.000038,-0.227629,-0.230770,0.016228,0.945868,8.644573,25.414818,-150.984620
43972,-4.140929,1.340231,8.867484,-0.098987,-0.045864,0.064756,0.002848,0.007624,-0.005339,-0.041406,0.013402,0.088677,1.000000,0.000014,0.000038,-0.000027,-0.227652,-0.230773,0.016211,0.945862,8.643390,25.415443,-150.981982
43973,-4.150547,1.381395,8.864904,-0.072744,-0.078682,0.072166,0.001590,0.001382,-0.006847,-0.041504,0.013815,0.088649,1.000000,0.000008,0.000007,-0.000034,-0.227667,-0.230758,0.016188,0.945863,8.640526,25.414294,-150.981115
43974,-4.144144,1.352835,8.846399,-0.081290,-0.054711,0.049019,0.001250,0.006616,-0.004230,-0.041438,0.013529,0.088465,1.000000,0.000006,0.000033,-0.000021,-0.227695,-0.230755,0.016167,0.945857,8.638680,25.414256,-150.978159
43975,-4.142439,1.339910,8.866827,-0.097159,-0.045898,0.064774,0.000238,0.005259,-0.006796,-0.041422,0.013400,0.088669,1.000000,0.000001,0.000026,-0.000034,-0.227711,-0.230757,0.016134,0.945853,8.635213,25.415299,-150.976890
43976,-4.158773,1.334770,8.836241,-0.072748,-0.031959,0.043775,0.007904,0.006439,-0.006324,-0.041584,0.013346,0.088364,1.000000,0.000040,0.000032,-0.000032,-0.227722,-0.230760,0.016142,0.945850,8.636607,25.415346,-150.975191
43977,-4.177365,1.332862,8.865284,-0.072053,-0.024293,0.077428,0.007398,0.005760,-0.007607,-0.041771,0.013327,0.088655,1.000000,0.000037,0.000029,-0.000038,-0.227727,-0.230773,0.016141,0.945846,8.637045,25.416743,-150.974383
43978,-4.130723,1.358831,8.875493,-0.102355,-0.068472,0.070050,0.009257,0.002561,-0.006375,-0.041306,0.013586,0.088756,1.000000,0.000046,0.000013,-0.000032,-0.227738,-0.230759,0.016159,0.945846,8.639036,25.414613,-150.972739
43979,-4.167040,1.364546,8.853684,-0.061603,-0.055844,0.066939,0.007572,0.002956,-0.006047,-0.041669,0.013643,0.088538,1.000000,0.000038,0.000015,-0.000030,-0.227750,-0.230758,0.016163,0.945843,8.639880,25.414287,-150.971220
43980,-4.133655,1.372566,8.854361,-0.084656,-0.077314,0.054308,0.008166,0.002232,-0.003983,-0.041335,0.013723,0.088545,1.000000,0.000041,0.000011,-0.000020,-0.227774,-0.230742,0.016179,0.945841,8.641875,25.411773,-150.968138
43981,-4.140803,1.401234,8.872496,-0.074783,-0.101237,0.077462,0.003777,0.002036,-0.011630,-0.041406,0.014013,0.088726,1.000000,0.000019,0.000010,-0.000058,-0.227763,-0.230733,0.016161,0.945846,8.639003,25.411407,-150.970208
43982,-4.127634,1.419108,8.882000,-0.081255,-0.123848,0.082727,0.002771,0.000306,-0.008458,-0.041276,0.014192,0.088820,1.000000,0.000014,0.000002,-0.000042,-0.227769,-0.230702,0.016149,0.945853,8.636625,25.408183,-150.970477
43983,-4.143269,1.328999,8.885774,-0.108399,-0.036891,0.080583,0.002598,0.003110,-0.010019,-0.041431,0.013291,0.088859,1.000000,0.000013,0.000016,-0.000050,-0.227767,-0.230697,0.016125,0.945855,8.633555,25.408286,-150.971434
43984,-4.127903,1.343964,8.835562,-0.091414,-0.053390,0.031182,0.005550,0.000240,-0.011178,-0.041278,0.013439,0.088356,1.000000,0.000028,0.000001,-0.000056,-0.227758,-0.230669,0.016123,0.945864,8.632039,25.405260,-150.973312
43985,-4.164016,1.339340,8.894274,-0.090532,-0.037990,0.098485,0.003865,0.000634,-0.010850,-0.041639,0.013394,0.088943,1.000000,0.000019,0.000003,-0.000054,-0.227751,-0.230653,0.016107,0.945870,8.629371,25.404031,-150.975026
43986,-4.159681,1.323568,8.855186,-0.082730,-0.022902,0.059583,0.004371,0.001313,-0.009567,-0.041596,0.013236,0.088552,1.000000,0.000022,0.000007,-0.000048,-0.227751,-0.230629,0.016100,0.945876,8.627651,25.401483,-150.975755
43987,-4.148740,1.354584,8.843976,-0.073015,-0.054553,0.049085,0.010021,-0.000593,-0.008488,-0.041487,0.013543,0.088440,1.000000,0.000050,-0.000003,-0.000042,-0.227747,-0.230614,0.016118,0.945880,8.629095,25.399357,-150.976105
43988,-4.133211,1.360112,8.874139,-0.095883,-0.068312,0.070116,0.005465,0.001640,-0.011958,-0.041331,0.013601,0.088742,1.000000,0.000027,0.000008,-0.000060,-0.227734,-0.230593,0.016113,0.945888,8.627365,25.397209,-150.978417
43989,-4.148990,1.355078,8.843783,-0.071728,-0.054518,0.049095,0.008511,-0.003002,-0.006598,-0.041491,0.013548,0.088438,1.000000,0.000043,-0.000015,-0.000033,-0.227741,-0.230565,0.016128,0.945893,8.628354,25.393556,-150.977810
43990,-4.135617,1.373511,8.853298,-0.078188,-0.077138,0.054363,0.008249,0.001202,-0.008940,-0.041355,0.013733,0.088534,1.000000,0.000041,0.000006,-0.000045,-0.227739,-0.230545,0.016141,0.945898,8.629015,25.390904,-150.978222
43991,-4.120078,1.378818,8.883499,-0.101262,-0.091075,0.075396,0.002856,-0.000728,-0.013415,-0.041200,0.013790,0.088835,1.000000,0.000014,-0.000004,-0.000067,-0.227721,-0.230522,0.016119,0.945909,8.625024,25.389124,-150.981673
43992,-4.167274,1.353044,8.872990,-0.069505,-0.046645,0.082758,0.005048,-0.000443,-0.012460,-0.041672,0.013531,0.088730,1.000000,0.000025,-0.000002,-0.000062,-0.227706,-0.230490,0.016114,0.945920,8.622839,25.385845,-150.984435
43993,-4.149448,1.355383,8.843522,-0.069154,-0.054447,0.049113,0.007240,-0.000157,-0.011505,-0.041494,0.013553,0.088436,1.000000,0.000036,-0.000001,-0.000058,-0.227692,-0.230475,0.016114,0.945927,8.621897,25.384224,-150.986635
43994,-4.154102,1.371111,8.882468,-0.075419,-0.069337,0.088032,0.003451,-0.001451,-0.011351,-0.041541,0.013712,0.088825,1.000000,0.000017,-0.000007,-0.000057,-0.227686,-0.230436,0.016103,0.945938,8.619054,25.380289,-150.988572
43995,-4.167591,1.353018,8.872845,-0.067681,-0.046678,0.082771,0.005555,0.000236,-0.011177,-0.041675,0.013530,0.088729,1.000000,0.000028,0.000001,-0.000056,-0.227675,-0.230421,0.016096,0.945945,8.617251,25.378863,-150.990528
43996,-4.154361,1.371005,8.882363,-0.074127,-0.069304,0.088042,0.002775,0.000302,-0.008457,-0.041543,0.013711,0.088824,1.000000,0.000014,0.000002,-0.000042,-0.227682,-0.230390,0.016083,0.945951,8.614868,25.375679,-150.990628
43997,-4.154394,1.370957,8.882355,-0.073588,-0.069373,0.088046,0.006320,-0.002919,-0.013289,-0.041544,0.013710,0.088823,1.000000,0.000032,-0.000015,-0.000066,-0.227660,-0.230361,0.016080,0.945963,8.612808,25.372646,-150.994208
43998,-4.156546,1.383718,8.861730,-0.056433,-0.078116,0.072277,0.005314,-0.004648,-0.010117,-0.041567,0.013837,0.088617,1.000000,0.000027,-0.000023,-0.000051,-0.227656,-0.230310,0.016084,0.945976,8.611233,25.366803,-150.995812
43999,-4.107079,1.396261,8.892996,-0.103267,-0.113694,0.080716,-0.001522,-0.001305,-0.015322,-0.041070,0.013966,0.088930,1.000000,-0.000008,-0.000007,-0.000077,-0.227634,-0.230279,0.016040,0.945990,8.604200,25.364859,-151.000513
44000,-4.140452,1.313144,8.845989,-0.090365,-0.021571,0.041783,0.001679,0.000342,-0.011803,-0.041404,0.013133,0.088460,1.000000,0.000008,0.000002,-0.000059,-0.227626,-0.230248,0.016018,0.946000,8.600294,25.361993,-151.002745
44001,-4.167736,1.351733,8.872973,-0.063823,-0.046578,0.082797,0.002949,-0.002133,-0.012633,-0.041677,0.013519,0.088729,1.000000,0.000015,-0.000011,-0.000063,-0.227611,-0.230218,0.015999,0.946011,8.596512,25.359349,-151.005837
44002,-4.147491,1.341190,8.864271,-0.079673,-0.045378,0.064933,0.004463,-0.000092,-0.008785,-0.041474,0.013412,0.088643,1.000000,0.000022,-0.000000,-0.000044,-0.227615,-0.230187,0.015995,0.946018,8.594989,25.355987,-151.006235
44003,-4.138258,1.300003,8.866687,-0.104961,-0.012780,0.057579,0.004047,-0.002173,-0.009287,-0.041383,0.013000,0.088667,1.000000,0.000020,-0.000011,-0.000046,-0.227614,-0.230159,0.015985,0.946025,8.592733,25.353033,-151.007233
44004,-4.172434,1.377088,8.831570,-0.028989,-0.064116,0.051249,0.004552,-0.001493,-0.008004,-0.041724,0.013771,0.088316,1.000000,0.000023,-0.000007,-0.000040,-0.227622,-0.230121,0.015984,0.946032,8.591412,25.348811,-151.007196
44005,-4.154366,1.369584,8.882580,-0.068426,-0.069250,0.088083,0.002951,-0.002134,-0.012632,-0.041544,0.013697,0.088826,1.000000,0.000015,-0.000011,-0.000063,-0.227607,-0.230092,0.015965,0.946043,8.587632,25.346166,-151.010288
44006,-4.094092,1.413115,8.902583,-0.105788,-0.136263,0.086036,0.004966,0.000955,-0.013240,-0.040940,0.014132,0.089026,1.000000,0.000025,0.000005,-0.000066,-0.227590,-0.230067,0.015957,0.946054,8.585243,25.343790,-151.013299
44007,-4.125323,1.317512,8.876142,-0.109581,-0.035472,0.062876,0.000322,0.004216,-0.011754,-0.041251,0.013177,0.088762,1.000000,0.000002,0.000021,-0.000059,-0.227582,-0.230065,0.015919,0.946057,8.580450,25.344667,-151.015239
44008,-4.159466,1.309625,8.875074,-0.085066,-0.013733,0.075476,0.005383,0.003037,-0.012738,-0.041592,0.013097,0.088752,1.000000,0.000027,0.000015,-0.000064,-0.227565,-0.230050,0.015911,0.946065,8.578517,25.343424,-151.018001
44009,-4.141903,1.311950,8.845487,-0.084741,-0.021540,0.041833,0.005976,0.002317,-0.010675,-0.041417,0.013119,0.088456,1.000000,0.000030,0.000012,-0.000053,-0.227556,-0.230045,0.015904,0.946068,8.577176,25.343132,-151.019445
44010,-4.182787,1.332994,8.862707,-0.050784,-0.023621,0.077562,0.008255,0.001204,-0.008939,-0.041827,0.013328,0.088628,1.000000,0.000041,0.000006,-0.000045,-0.227556,-0.230025,0.015915,0.946073,8.577831,25.340538,-151.019636
44011,-4.128972,1.330676,8.854761,-0.090626,-0.044256,0.047117,0.010031,-0.000590,-0.008486,-0.041289,0.013304,0.088548,1.000000,0.000050,-0.000003,-0.000042,-0.227552,-0.230010,0.015933,0.946077,8.579284,25.338412,-151.019981
44012,-4.165016,1.336230,8.833080,-0.049719,-0.031328,0.043920,0.009528,-0.001272,-0.009768,-0.041650,0.013360,0.088331,1.000000,0.000048,-0.000006,-0.000049,-0.227542,-0.229980,0.015954,0.946086,8.580342,25.334482,-151.021540
44013,-4.122629,1.378113,8.882425,-0.087039,-0.090795,0.075534,0.007251,-0.000525,-0.005767,-0.041226,0.013779,0.088825,1.000000,0.000036,-0.000003,-0.000029,-0.227554,-0.229962,0.015961,0.946088,8.580933,25.332162,-151.020175
44014,-4.113490,1.337320,8.884744,-0.112155,-0.058064,0.068201,0.009352,0.001529,-0.011331,-0.041133,0.013371,0.088848,1.000000,0.000047,0.000008,-0.000057,-0.227538,-0.229946,0.015976,0.946095,8.581580,25.329967,-151.022266
44015,-4.149797,1.342834,8.862944,-0.071459,-0.045291,0.064996,0.009265,0.002565,-0.006375,-0.041496,0.013426,0.088631,1.000000,0.000046,0.000013,-0.000032,-0.227546,-0.229945,0.015988,0.946093,8.583287,25.329449,-151.020990
