PacketCounter,Acc_X,Acc_Y,Acc_Z,FreeAcc_E,FreeAcc_N,FreeAcc_U,Gyr_X,Gyr_Y,Gyr_Z,VelInc_X,VelInc_Y,VelInc_Z,OriInc_q0,OriInc_q1,OriInc_q2,OriInc_q3,Quat_q0,Quat_q1,Quat_q2,Quat_q3,Roll,Pitch,Yaw
36205,-9.509452,2.370833,-0.084423,-0.093642,0.169181,-0.013694,-0.075253,-0.000735,0.020095,-0.095097,0.023698,-0.000853,1.000000,-0.000376,-0.000004,0.000100,-0.050837,-0.701551,0.133396,0.698174,94.425852,75.026800,-92.325244
36206,-9.502186,2.366469,-0.207709,0.030971,0.159912,-0.019407,-0.078415,0.020822,0.013017,-0.095024,0.023658,-0.002076,1.000000,-0.000392,0.000104,0.000065,-0.051209,-0.701569,0.133197,0.698167,94.408833,75.012642,-92.295576
36207,-9.473638,2.447107,-0.244174,0.057827,0.073522,-0.025500,-0.048628,0.024401,0.015064,-0.094739,0.024463,-0.002436,1.000000,-0.000243,0.000122,0.000075,-0.051486,-0.701605,0.133105,0.698128,94.415977,74.997431,-92.258356
36208,-9.375127,2.559827,-0.221571,0.020681,-0.055113,-0.092021,-0.017056,0.026136,0.009161,-0.093753,0.025594,-0.002206,1.000000,-0.000085,0.000131,0.000046,-0.051633,-0.701658,0.133105,0.698063,94.446019,74.985245,-92.216368
36209,-9.300484,2.639699,-0.074798,-0.136670,-0.131929,-0.146431,0.013706,0.027829,0.017141,-0.093007,0.026389,-0.000733,1.000000,0.000069,0.000139,0.000086,-0.051700,-0.701721,0.133237,0.697970,94.495700,74.968685,-92.172080
36210,-9.193559,2.642053,-0.043511,-0.171622,-0.154967,-0.249718,0.020355,0.037590,0.025576,-0.091939,0.026409,-0.000415,1.000000,0.000102,0.000188,0.000128,-0.051781,-0.701814,0.133422,0.697836,94.568564,74.946586,-92.107927
36211,-9.181038,2.654285,-0.066786,-0.153318,-0.168676,-0.258150,0.003731,0.048441,0.027732,-0.091814,0.026530,-0.000645,1.000000,0.000019,0.000242,0.000139,-0.051934,-0.701938,0.133551,0.697674,94.654174,74.923000,-92.020503
36212,-9.232195,2.602027,-0.100528,-0.116920,-0.104936,-0.221577,-0.014594,0.054366,0.028547,-0.092326,0.026007,-0.000982,1.000000,-0.000073,0.000272,0.000143,-0.052159,-0.702078,0.133620,0.697504,94.741580,74.898363,-91.920542
36213,-9.236635,2.575560,-0.122793,-0.094881,-0.077002,-0.223679,-0.041079,0.050852,0.024007,-0.092370,0.025744,-0.001210,1.000000,-0.000205,0.000254,0.000120,-0.052458,-0.702202,0.133579,0.697364,94.806747,74.876723,-91.827680
36214,-9.253467,2.569606,-0.141359,-0.078215,-0.065474,-0.208568,-0.049305,0.050613,0.020080,-0.092538,0.025686,-0.001397,1.000000,-0.000247,0.000253,0.000100,-0.052773,-0.702325,0.133498,0.697232,94.867322,74.857037,-91.734884
36215,-9.222695,2.528064,-0.116319,-0.100458,-0.027645,-0.249640,-0.060472,0.039513,0.020543,-0.092230,0.025271,-0.001153,1.000000,-0.000302,0.000198,0.000103,-0.053121,-0.702407,0.133380,0.697146,94.897698,74.837883,-91.666537
36216,-9.203589,2.520791,-0.174243,-0.043154,-0.028890,-0.268679,-0.063169,0.034039,0.021141,-0.092039,0.025198,-0.001735,1.000000,-0.000316,0.000170,0.000106,-0.053477,-0.702467,0.133259,0.697081,94.914907,74.818375,-91.610418
36217,-9.214829,2.513134,-0.156856,-0.060129,-0.013381,-0.260215,-0.050379,0.030924,0.023679,-0.092152,0.025120,-0.001561,1.000000,-0.000252,0.000155,0.000118,-0.053794,-0.702519,0.133190,0.697018,94.932213,74.797840,-91.561595
36218,-9.218849,2.456210,-0.161119,-0.050370,0.045653,-0.271122,-0.032148,0.031749,0.032180,-0.092193,0.024547,-0.001601,1.000000,-0.000161,0.000159,0.000161,-0.054078,-0.702573,0.133216,0.696936,94.960172,74.772133,-91.512748
36219,-9.241296,2.409168,-0.110080,-0.097250,0.106835,-0.262981,-0.002666,0.034479,0.038805,-0.092418,0.024074,-0.001085,1.000000,-0.000013,0.000172,0.000194,-0.054283,-0.702640,0.133365,0.696825,95.009252,74.742774,-91.459314
36220,-9.329013,2.420944,-0.133762,-0.076916,0.121280,-0.174808,0.019818,0.038170,0.043275,-0.093296,0.024189,-0.001317,1.000000,0.000099,0.000191,0.000216,-0.054428,-0.702722,0.133610,0.696683,95.077996,74.710394,-91.399027
36221,-9.369859,2.458710,-0.147383,-0.070958,0.099898,-0.125262,0.047065,0.046166,0.042924,-0.093704,0.024567,-0.001446,1.000000,0.000235,0.000231,0.000215,-0.054480,-0.702840,0.133944,0.696496,95.178676,74.678050,-91.321620
36222,-9.434870,2.507386,-0.139875,-0.087987,0.076749,-0.050019,0.053110,0.047088,0.039162,-0.094354,0.025056,-0.001370,1.000000,0.000266,0.000235,0.000196,-0.054499,-0.702966,0.134287,0.696302,95.285184,74.647501,-91.241937
36223,-9.494710,2.584811,-0.114337,-0.126375,0.026539,0.027392,0.057153,0.044599,0.038920,-0.094952,0.025830,-0.001115,1.000000,0.000286,0.000223,0.000195,-0.054501,-0.703084,0.134642,0.696114,95.388425,74.617451,-91.167846
36224,-9.483563,2.676832,-0.099323,-0.156167,-0.057603,0.040512,0.047428,0.042393,0.037705,-0.094841,0.026751,-0.000967,1.000000,0.000237,0.000212,0.000189,-0.054532,-0.703192,0.134962,0.695940,95.481520,74.587919,-91.098664
36225,-9.541831,2.706194,-0.128015,-0.134163,-0.068350,0.105162,0.024700,0.033345,0.037008,-0.095424,0.027044,-0.001261,1.000000,0.000123,0.000167,0.000185,-0.054633,-0.703263,0.135201,0.695814,95.542670,74.559519,-91.048928
36226,-9.504159,2.646856,-0.140590,-0.117415,-0.018076,0.053443,0.001190,0.031418,0.034808,-0.095046,0.026452,-0.001391,1.000000,0.000006,0.000157,0.000174,-0.054809,-0.703322,0.135353,0.695711,95.586698,74.532202,-91.003143
36227,-9.545051,2.684021,-0.152234,-0.111419,-0.039409,0.103016,-0.029097,0.031117,0.034150,-0.095455,0.026824,-0.001511,1.000000,-0.000145,0.000156,0.000171,-0.055089,-0.703372,0.135394,0.695630,95.612677,74.505537,-90.957904
36228,-9.542980,2.700746,-0.240603,-0.025810,-0.061093,0.107796,-0.059109,0.022275,0.035777,-0.095435,0.026990,-0.002403,1.000000,-0.000296,0.000111,0.000179,-0.055474,-0.703382,0.135342,0.695600,95.602934,74.478173,-90.932057
36229,-9.542019,2.704169,-0.240258,-0.025123,-0.060160,0.107803,-0.076801,0.008990,0.032529,-0.095425,0.027025,-0.002409,1.000000,-0.000384,0.000045,0.000163,-0.055900,-0.703343,0.135219,0.695629,95.556390,74.453668,-90.933710
36230,-9.475338,2.693103,-0.266947,0.005492,-0.066181,0.041332,-0.098258,-0.003419,0.032878,-0.094758,0.026914,-0.002684,1.000000,-0.000491,-0.000017,0.000164,-0.056396,-0.703254,0.135027,0.695716,95.472231,74.429381,-90.961823
36231,-9.415126,2.639471,-0.223346,-0.027454,-0.022570,-0.032093,-0.104654,-0.017091,0.027403,-0.094155,0.026381,-0.002255,1.000000,-0.000523,-0.000085,0.000137,-0.056885,-0.703120,0.134796,0.695857,95.357629,74.409209,-91.017565
36232,-9.360460,2.587447,-0.212689,-0.026762,0.017054,-0.098918,-0.102086,-0.028461,0.028805,-0.093608,0.025860,-0.002153,1.000000,-0.000510,-0.000142,0.000144,-0.057363,-0.702945,0.134584,0.696035,95.221279,74.388540,-91.097574
36233,-9.340898,2.550434,-0.247441,0.018251,0.046792,-0.126832,-0.100272,-0.035005,0.028356,-0.093412,0.025490,-0.002504,1.000000,-0.000501,-0.000175,0.000142,-0.057827,-0.702749,0.134376,0.696235,95.072939,74.368675,-91.190966
36234,-9.286511,2.529100,-0.251602,0.031205,0.055350,-0.184869,-0.093971,-0.038039,0.027594,-0.092868,0.025277,-0.002546,1.000000,-0.000470,-0.000190,0.000138,-0.058266,-0.702543,0.134191,0.696441,94.922519,74.349069,-91.290437
36235,-9.303202,2.493193,-0.245579,0.035614,0.097913,-0.178631,-0.076451,-0.034611,0.025695,-0.093035,0.024919,-0.002481,1.000000,-0.000382,-0.000173,0.000128,-0.058638,-0.702357,0.134056,0.696624,94.789685,74.330577,-91.381917
36236,-9.332218,2.509007,-0.252887,0.046959,0.093064,-0.146329,-0.055224,-0.029902,0.028776,-0.093325,0.025076,-0.002550,1.000000,-0.000276,-0.000150,0.000144,-0.058950,-0.702190,0.134008,0.696776,94.678399,74.309790,-91.463830
36237,-9.320676,2.507284,-0.181053,-0.019682,0.102008,-0.159530,-0.032462,-0.027677,0.020174,-0.093209,0.025063,-0.001827,1.000000,-0.000162,-0.000138,0.000101,-0.059153,-0.702044,0.134005,0.696906,94.586248,74.294034,-91.539248
36238,-9.331306,2.513059,-0.246187,0.048284,0.094934,-0.146353,-0.018720,-0.020973,0.014014,-0.093315,0.025124,-0.002474,1.000000,-0.000094,-0.000105,0.000070,-0.059291,-0.701929,0.134029,0.697006,94.516797,74.281206,-91.599438
36239,-9.360866,2.558077,-0.271529,0.071921,0.059014,-0.105235,-0.003722,-0.019973,0.008537,-0.093609,0.025577,-0.002725,1.000000,-0.000019,-0.000100,0.000043,-0.059358,-0.701825,0.134084,0.697094,94.458862,74.271699,-91.656427
36240,-9.348653,2.537593,-0.273137,0.077923,0.076382,-0.122518,0.026015,-0.021063,0.001719,-0.093486,0.025375,-0.002738,1.000000,0.000130,-0.000105,0.000009,-0.059296,-0.701731,0.134220,0.697167,94.416953,74.265870,-91.714626
36241,-9.309046,2.537293,-0.120852,-0.072063,0.082732,-0.163917,0.057485,-0.024267,0.003389,-0.093091,0.025372,-0.001213,1.000000,0.000287,-0.000121,0.000017,-0.059128,-0.701635,0.134471,0.697230,94.386286,74.259470,-91.779723
36242,-9.303867,2.596848,-0.117743,-0.080490,0.025623,-0.152859,0.066237,-0.017892,-0.000950,-0.093038,0.025969,-0.001177,1.000000,0.000331,-0.000089,-0.000005,-0.058918,-0.701566,0.134738,0.697266,94.374336,74.255014,-91.830751
36243,-9.281027,2.633360,-0.084652,-0.117234,-0.011112,-0.165649,0.053725,-0.007150,0.001331,-0.092810,0.026333,-0.000843,1.000000,0.000269,-0.000036,0.000007,-0.058766,-0.701529,0.134963,0.697272,94.376566,74.249033,-91.859434
36244,-9.298788,2.687362,-0.132192,-0.075967,-0.061608,-0.132952,0.037949,0.003579,0.006067,-0.092989,0.026871,-0.001315,1.000000,0.000190,0.000018,0.000030,-0.058695,-0.701521,0.135150,0.697250,94.390827,74.239628,-91.866386
36245,-9.376616,2.753942,-0.117062,-0.098212,-0.101031,-0.040330,0.005194,0.014772,0.004073,-0.093767,0.027538,-0.001163,1.000000,0.000026,0.000074,0.000020,-0.058738,-0.701545,0.135209,0.697211,94.409207,74.231122,-91.849397
36246,-9.435613,2.749619,-0.126510,-0.088412,-0.080574,0.015481,-0.015032,0.015232,-0.000199,-0.094356,0.027496,-0.001260,1.000000,-0.000075,0.000076,-0.000001,-0.058838,-0.701566,0.135185,0.697186,94.417634,74.224784,-91.830858
36247,-9.364652,2.763692,-0.137923,-0.079253,-0.113782,-0.048749,-0.026748,0.012080,-0.005764,-0.093646,0.027639,-0.001377,1.000000,-0.000134,0.000060,-0.000029,-0.058957,-0.701578,0.135100,0.697181,94.413785,74.222014,-91.817949
36248,-9.340747,2.751951,-0.159649,-0.055638,-0.111061,-0.074472,-0.044442,0.001147,-0.008658,-0.093406,0.027523,-0.001602,1.000000,-0.000222,0.000006,-0.000043,-0.059122,-0.701547,0.134948,0.697227,94.378199,74.221124,-91.827645
36249,-9.233386,2.671921,-0.163091,-0.042796,-0.064078,-0.199403,-0.034176,-0.004437,-0.009685,-0.092333,0.026723,-0.001638,1.000000,-0.000171,-0.000022,-0.000048,-0.059242,-0.701501,0.134828,0.697286,94.337313,74.221317,-91.848801
36250,-9.196951,2.577813,-0.156472,-0.038443,0.017076,-0.260109,-0.026487,0.008132,-0.002768,-0.091969,0.025779,-0.001564,1.000000,-0.000132,0.000041,-0.000014,-0.059369,-0.701497,0.134757,0.697294,94.325233,74.216762,-91.844748
36251,-9.243879,2.552316,-0.168516,-0.023313,0.053886,-0.221620,-0.011534,0.015887,0.001073,-0.092439,0.025523,-0.001679,1.000000,-0.000058,0.000079,0.000005,-0.059461,-0.701521,0.134747,0.697263,94.336753,74.209927,-91.824925
36252,-9.255916,2.573509,-0.167018,-0.027980,0.038446,-0.204328,0.005668,0.023094,0.004396,-0.092560,0.025733,-0.001659,1.000000,0.000028,0.000115,0.000022,-0.059510,-0.701573,0.134809,0.697195,94.372207,74.200627,-91.790632
36253,-9.297338,2.577205,-0.162865,-0.034211,0.048247,-0.163568,0.026135,0.028011,0.004898,-0.092974,0.025770,-0.001612,1.000000,0.000131,0.000140,0.000024,-0.059491,-0.701648,0.134941,0.697095,94.429134,74.191067,-91.746047
36254,-9.309469,2.629311,-0.178848,-0.026581,0.001789,-0.137422,0.052372,0.026138,0.005052,-0.093096,0.026291,-0.001769,1.000000,0.000262,0.000131,0.000025,-0.059381,-0.701724,0.135167,0.696984,94.497246,74.181234,-91.705597
36255,-9.392424,2.636407,-0.169381,-0.039686,0.020505,-0.055897,0.067851,0.033035,0.007748,-0.093926,0.026361,-0.001669,1.000000,0.000339,0.000165,0.000039,-0.059229,-0.701828,0.135452,0.696838,94.587601,74.169787,-91.651106
36256,-9.463464,2.653070,-0.179262,-0.035168,0.024633,0.017177,0.083411,0.026278,0.000039,-0.094635,0.026531,-0.001769,1.000000,0.000417,0.000131,0.000000,-0.058992,-0.701917,0.135769,0.696706,94.674472,74.162783,-91.609667
36257,-9.510483,2.658209,-0.210555,-0.007710,0.030465,0.064494,0.092216,0.011830,0.000663,-0.095105,0.026583,-0.002088,1.000000,0.000461,0.000059,0.000003,-0.058716,-0.701958,0.136120,0.696620,94.737113,74.156337,-91.598491
36258,-9.463407,2.652769,-0.186570,-0.033815,0.026529,0.017176,0.096274,0.002431,-0.000666,-0.094634,0.026529,-0.001852,1.000000,0.000481,0.000012,-0.000003,-0.058416,-0.701968,0.136486,0.696563,94.783393,74.150856,-91.606856
36259,-9.445951,2.660432,-0.174140,-0.049190,0.016811,0.002175,0.095807,0.001028,0.000126,-0.094460,0.026605,-0.001728,1.000000,0.000479,0.000005,0.000001,-0.058118,-0.701972,0.136851,0.696512,94.826416,74.145229,-91.618212
36260,-9.411149,2.706840,-0.161983,-0.068328,-0.034538,-0.018961,0.082325,-0.002579,0.002151,-0.094112,0.027068,-0.001610,1.000000,0.000412,-0.000013,0.000011,-0.057872,-0.701958,0.137180,0.696482,94.854136,74.138376,-91.637591
36261,-9.388330,2.743605,-0.130404,-0.105075,-0.071283,-0.031634,0.072595,-0.004762,0.000932,-0.093883,0.027436,-0.001296,1.000000,0.000363,-0.000024,0.000005,-0.057655,-0.701935,0.137469,0.696466,94.872080,74.132574,-91.661193
36262,-9.395294,2.824030,-0.126526,-0.118789,-0.144733,-0.003119,0.055334,-0.000493,-0.000593,-0.093953,0.028241,-0.001258,1.000000,0.000277,-0.000002,-0.000003,-0.057496,-0.701923,0.137694,0.696448,94.889015,74.127191,-91.675737
36263,-9.383184,2.802929,-0.130527,-0.112798,-0.127441,-0.020414,0.030816,-0.005226,-0.001211,-0.093832,0.028030,-0.001303,1.000000,0.000154,-0.000026,-0.000006,-0.057417,-0.701887,0.137829,0.696463,94.882465,74.122637,-91.699918
36264,-9.341558,2.768539,-0.121313,-0.117556,-0.104395,-0.070022,0.002549,-0.008981,-0.006451,-0.093415,0.027688,-0.001217,1.000000,0.000013,-0.000045,-0.000032,-0.057417,-0.701834,0.137852,0.696512,94.853108,74.121014,-91.731112
36265,-9.347038,2.739163,-0.138819,-0.095512,-0.076461,-0.072337,-0.012248,-0.002315,-0.004421,-0.093470,0.027394,-0.001391,1.000000,-0.000061,-0.000012,-0.000022,-0.057480,-0.701798,0.137826,0.696548,94.828293,74.118147,-91.748631
36266,-9.333681,2.669798,-0.195968,-0.029183,-0.019757,-0.102766,-0.037273,-0.008479,-0.004245,-0.093336,0.026700,-0.001969,1.000000,-0.000186,-0.000042,-0.000021,-0.057628,-0.701734,0.137717,0.696622,94.776727,74.115232,-91.779136
36267,-9.373888,2.594174,-0.226890,0.012685,0.060503,-0.084010,-0.035525,-0.005844,-0.003256,-0.093738,0.025943,-0.002276,1.000000,-0.000178,-0.000029,-0.000016,-0.057775,-0.701678,0.137615,0.696686,94.731322,74.111860,-91.804197
36268,-9.337770,2.561557,-0.250585,0.041577,0.079526,-0.127118,-0.021483,-0.007687,-0.007145,-0.093377,0.025619,-0.002512,1.000000,-0.000107,-0.000038,-0.000036,-0.057858,-0.701623,0.137551,0.696748,94.690907,74.110533,-91.832567
36269,-9.301891,2.559334,-0.290346,0.082759,0.067483,-0.161352,0.005320,-0.012698,-0.008479,-0.093018,0.025597,-0.002909,1.000000,0.000027,-0.000063,-0.000042,-0.057838,-0.701559,0.137574,0.696809,94.656032,74.110453,-91.871012
36270,-9.308753,2.577764,-0.252943,0.044457,0.056074,-0.150565,0.035081,-0.004668,-0.005614,-0.093087,0.025781,-0.002527,1.000000,0.000175,-0.000023,-0.000028,-0.057730,-0.701530,0.137712,0.696820,94.653860,74.108102,-91.893352
36271,-9.308943,2.577029,-0.253446,0.045126,0.056983,-0.150573,0.056141,-0.009786,-0.007694,-0.093088,0.025775,-0.002532,1.000000,0.000281,-0.000049,-0.000038,-0.057537,-0.701490,0.137915,0.696836,94.653825,74.107436,-91.925849
36272,-9.268812,2.621178,-0.206504,-0.007706,0.009590,-0.178169,0.076382,0.003618,-0.001262,-0.092688,0.026213,-0.002053,1.000000,0.000382,0.000018,-0.000006,-0.057305,-0.701498,0.138209,0.696789,94.691240,74.102230,-91.931620
36273,-9.310640,2.654719,-0.218143,-0.001572,-0.011546,-0.128525,0.086431,0.006609,-0.004552,-0.093106,0.026550,-0.002167,1.000000,0.000432,0.000033,-0.000023,-0.057028,-0.701522,0.138524,0.696725,94.740917,74.099007,-91.930474
36274,-9.286811,2.673343,-0.259371,0.034300,-0.039918,-0.145417,0.095975,0.012782,-0.006340,-0.092867,0.026738,-0.002575,1.000000,0.000480,0.000064,-0.000032,-0.056715,-0.701571,0.138866,0.696633,94.808747,74.096269,-91.916288
36275,-9.347418,2.715884,-0.216271,-0.016122,-0.058734,-0.076502,0.096276,0.013570,-0.010846,-0.093473,0.027165,-0.002143,1.000000,0.000481,0.000068,-0.000054,-0.056386,-0.701626,0.139191,0.696540,94.879056,74.096302,-91.899555
36276,-9.335870,2.754916,-0.255115,0.014455,-0.103454,-0.076045,0.094050,0.014136,-0.010328,-0.093357,0.027555,-0.002532,1.000000,0.000470,0.000071,-0.000052,-0.056068,-0.701682,0.139512,0.696445,94.949165,74.095772,-91.881846
36277,-9.301235,2.769650,-0.228481,-0.017011,-0.123881,-0.105963,0.080302,0.009843,-0.012009,-0.093011,0.027703,-0.002269,1.000000,0.000402,0.000049,-0.000060,-0.055788,-0.701720,0.139778,0.696376,95.003058,74.096643,-91.872664
36278,-9.320382,2.808741,-0.191517,-0.060593,-0.151625,-0.077773,0.077570,0.006675,-0.011049,-0.093202,0.028093,-0.001901,1.000000,0.000388,0.000033,-0.000055,-0.055521,-0.701745,0.140041,0.696319,95.048856,74.096878,-91.870368
36279,-9.332821,2.828604,-0.191289,-0.065207,-0.167056,-0.060406,0.062770,0.008726,-0.009740,-0.093327,0.028291,-0.001900,1.000000,0.000314,0.000044,-0.000049,-0.055310,-0.701772,0.140254,0.696265,95.090071,74.096507,-91.863925
36280,-9.345139,2.817766,-0.174470,-0.082122,-0.151435,-0.051940,0.040720,0.006453,-0.015023,-0.093449,0.028185,-0.001736,1.000000,0.000204,0.000032,-0.000075,-0.055157,-0.701789,0.140375,0.696236,95.115052,74.099023,-91.861351
36281,-9.351093,2.848745,-0.226133,-0.035464,-0.185520,-0.036505,0.020602,0.007394,-0.007386,-0.093510,0.028491,-0.002255,1.000000,0.000103,0.000037,-0.000037,-0.055101,-0.701799,0.140450,0.696216,95.129014,74.097375,-91.858124
36282,-9.374234,2.841421,-0.275911,0.014971,-0.177880,-0.015024,0.004565,-0.000998,-0.009252,-0.093741,0.028419,-0.002759,1.000000,0.000023,-0.000005,-0.000046,-0.055090,-0.701776,0.140467,0.696236,95.117287,74.096979,-91.872130
36283,-9.362102,2.789175,-0.262513,0.008640,-0.129624,-0.041275,0.000796,-0.004729,-0.006352,-0.093620,0.027895,-0.002627,1.000000,0.000004,-0.000024,-0.000032,-0.055099,-0.701737,0.140480,0.696272,95.095435,74.095359,-91.894341
36284,-9.367776,2.790096,-0.295706,0.042998,-0.132658,-0.034760,-0.003699,-0.012856,-0.006719,-0.093677,0.027904,-0.002964,1.000000,-0.000018,-0.000064,-0.000034,-0.055118,-0.701669,0.140480,0.696339,95.054781,74.094109,-91.933514
36285,-9.355629,2.738003,-0.280950,0.036662,-0.084409,-0.061025,-0.002430,-0.018547,-0.005989,-0.093555,0.027383,-0.002819,1.000000,-0.000012,-0.000093,-0.000030,-0.055129,-0.701580,0.140487,0.696426,95.003354,74.092968,-91.984556
36286,-9.331683,2.726143,-0.300901,0.060224,-0.081794,-0.086826,-0.003431,-0.021394,-0.004397,-0.093316,0.027263,-0.003019,1.000000,-0.000017,-0.000107,-0.000022,-0.055149,-0.701481,0.140499,0.696522,94.945375,74.090788,-92.041934
36287,-9.342678,2.698125,-0.350758,0.115946,-0.057862,-0.082747,-0.000145,-0.023690,-0.007199,-0.093425,0.026985,-0.003519,1.000000,-0.000001,-0.000118,-0.000036,-0.055145,-0.701376,0.140511,0.696626,94.885183,74.090562,-92.103452
36288,-9.307985,2.713761,-0.318322,0.084460,-0.078279,-0.112628,0.009395,-0.029116,-0.002521,-0.093079,0.027139,-0.003195,1.000000,0.000047,-0.000146,-0.000013,-0.055121,-0.701252,0.140576,0.696740,94.818795,74.087656,-92.177191
36289,-9.361663,2.707345,-0.289919,0.060761,-0.053664,-0.063434,0.014169,-0.031827,-0.000183,-0.093616,0.027074,-0.002912,1.000000,0.000071,-0.000159,-0.000001,-0.055085,-0.701118,0.140665,0.696859,94.749356,74.083775,-92.256856
36290,-9.308456,2.744047,-0.329340,0.098123,-0.107423,-0.103700,0.016438,-0.032364,-0.000697,-0.093084,0.027441,-0.003306,1.000000,0.000082,-0.000162,-0.000003,-0.055040,-0.700983,0.140763,0.696979,94.680347,74.079938,-92.337642
36291,-9.302741,2.712164,-0.276525,0.052817,-0.071531,-0.119114,0.023213,-0.036367,0.005638,-0.093028,0.027119,-0.002779,1.000000,0.000116,-0.000182,0.000028,-0.054989,-0.700831,0.140905,0.697107,94.606137,74.072889,-92.427660
36292,-9.302403,2.682243,-0.257911,0.041184,-0.039585,-0.128040,0.027964,-0.032170,0.009018,-0.093025,0.026819,-0.002590,1.000000,0.000140,-0.000161,0.000045,-0.054938,-0.700693,0.141077,0.697215,94.542655,74.063432,-92.509556
36293,-9.324817,2.615359,-0.272514,0.067008,0.030019,-0.124489,0.034255,-0.032908,0.008616,-0.093249,0.026150,-0.002736,1.000000,0.000171,-0.000165,0.000043,-0.054862,-0.700554,0.141267,0.697322,94.481376,74.054470,-92.592714
36294,-9.300823,2.635180,-0.308600,0.102860,0.001609,-0.141382,0.032488,-0.028638,0.008682,-0.093009,0.026348,-0.003095,1.000000,0.000162,-0.000143,0.000043,-0.054795,-0.700430,0.141452,0.697414,94.427764,74.045005,-92.667042
36295,-9.323792,2.629122,-0.355971,0.153308,0.009222,-0.119984,0.030483,-0.025042,0.005033,-0.093238,0.026289,-0.003567,1.000000,0.000152,-0.000125,0.000025,-0.054725,-0.700320,0.141614,0.697497,94.380740,74.037700,-92.733132
36296,-9.312638,2.626319,-0.286860,0.086631,0.018136,-0.132955,0.031718,-0.014541,-0.000036,-0.093126,0.026264,-0.002871,1.000000,0.000159,-0.000073,-0.000000,-0.054642,-0.700251,0.141762,0.697543,94.356245,74.032575,-92.776617
36297,-9.276902,2.654859,-0.344141,0.140067,-0.025004,-0.158290,0.026383,0.000552,0.000500,-0.092769,0.026549,-0.003438,1.000000,0.000132,0.000003,0.000002,-0.054589,-0.700232,0.141886,0.697541,94.358722,74.026731,-92.788779
36298,-9.283448,2.674353,-0.308404,0.101792,-0.036386,-0.147389,0.030876,0.008677,0.000850,-0.092835,0.026744,-0.003076,1.000000,0.000154,0.000043,0.000004,-0.054527,-0.700243,0.142029,0.697506,94.380016,74.020068,-92.784256
36299,-9.277796,2.672930,-0.276581,0.068791,-0.031502,-0.153866,0.039384,0.018905,0.001655,-0.092778,0.026729,-0.002752,1.000000,0.000197,0.000095,0.000008,-0.054446,-0.700291,0.142198,0.697429,94.426364,74.012760,-92.758533
36300,-9.277667,2.673037,-0.279859,0.069471,-0.030559,-0.153868,0.043375,0.027915,0.003147,-0.092777,0.026730,-0.002780,1.000000,0.000217,0.000140,0.000016,-0.054363,-0.700371,0.142386,0.697317,94.492702,74.003937,-92.714441
36301,-9.312467,2.657037,-0.313705,0.102346,-0.008253,-0.124047,0.035319,0.032925,0.003610,-0.093126,0.026569,-0.003117,1.000000,0.000177,0.000165,0.000018,-0.054312,-0.700466,0.142544,0.697194,94.564253,73.994862,-92.660073
36302,-9.324580,2.708910,-0.331501,0.110071,-0.054599,-0.097710,0.041828,0.039774,0.007955,-0.093248,0.027086,-0.003291,1.000000,0.000209,0.000199,0.000040,-0.054259,-0.700582,0.142741,0.697040,94.652535,73.982707,-92.592488
36303,-9.353469,2.661361,-0.315966,0.096958,0.002686,-0.083317,0.040593,0.038562,0.006184,-0.093536,0.026611,-0.003136,1.000000,0.000203,0.000193,0.000031,-0.054203,-0.700696,0.142925,0.696893,94.737729,73.971854,-92.527064
36304,-9.377554,2.703560,-0.315315,0.087110,-0.028967,-0.048532,0.037330,0.045540,0.001443,-0.093776,0.027036,-0.003127,1.000000,0.000187,0.000228,0.000007,-0.054147,-0.700836,0.143082,0.696724,94.835715,73.963101,-92.446562
36305,-9.377646,2.733825,-0.336337,0.100114,-0.059044,-0.039578,0.030846,0.036396,-0.003243,-0.093777,0.027340,-0.003342,1.000000,0.000154,0.000182,-0.000016,-0.054091,-0.700947,0.143199,0.696593,94.912432,73.957679,-92.384143
36306,-9.365413,2.712540,-0.343495,0.106065,-0.041796,-0.056980,0.033860,0.037965,-0.000841,-0.093655,0.027126,-0.003413,1.000000,0.000169,0.000190,-0.000004,-0.054035,-0.701061,0.143336,0.696454,94.993557,73.950544,-92.318950
36307,-9.342580,2.749552,-0.314982,0.069282,-0.078605,-0.069378,0.028093,0.035525,-0.001930,-0.093426,0.027497,-0.003129,1.000000,0.000140,0.000178,-0.000010,-0.053992,-0.701167,0.143449,0.696328,95.066636,73.944370,-92.258670
36308,-9.408513,2.794445,-0.306567,0.052709,-0.101135,0.006173,0.018056,0.034902,-0.006511,-0.094085,0.027948,-0.003047,1.000000,0.000090,0.000175,-0.000033,-0.053968,-0.701270,0.143514,0.696212,95.133689,73.940577,-92.199001
36309,-9.426048,2.785616,-0.325042,0.069507,-0.089507,0.021073,0.015815,0.028534,-0.007023,-0.094260,0.027860,-0.003235,1.000000,0.000079,0.000143,-0.000035,-0.053945,-0.701352,0.143568,0.696120,95.186709,73.937631,-92.152272
36310,-9.396632,2.771805,-0.315467,0.059347,-0.082976,-0.011223,0.027705,0.015744,-0.012080,-0.093965,0.027724,-0.003143,1.000000,0.000139,0.000079,-0.000060,-0.053855,-0.701395,0.143651,0.696066,95.222185,73.937989,-92.130988
36311,-9.337706,2.744879,-0.293237,0.038333,-0.070919,-0.075819,0.028213,0.017169,-0.012880,-0.093376,0.027455,-0.002920,1.000000,0.000141,0.000086,-0.000064,-0.053761,-0.701445,0.143731,0.696007,95.260834,73.938962,-92.106606
36312,-9.284260,2.719134,-0.304982,0.050990,-0.062808,-0.133966,0.031007,0.013448,-0.014870,-0.092841,0.027199,-0.003039,1.000000,0.000155,0.000067,-0.000074,-0.053647,-0.701483,0.143817,0.695960,95.294216,73.941007,-92.089612
36313,-9.285689,2.705909,-0.219637,-0.033274,-0.039262,-0.138415,0.036036,0.006829,-0.009484,-0.092856,0.027064,-0.002188,1.000000,0.000180,0.000034,-0.000047,-0.053529,-0.701496,0.143939,0.695930,95.316237,73.940582,-92.087198
36314,-9.261904,2.723937,-0.259312,0.002554,-0.067708,-0.155288,0.032755,0.006830,-0.007033,-0.092618,0.027243,-0.002585,1.000000,0.000164,0.000034,-0.000035,-0.053432,-0.701506,0.144060,0.695903,95.336030,73.938495,-92.085347
36315,-9.249843,2.702400,-0.263472,0.008487,-0.050528,-0.172700,0.030726,0.005751,-0.003150,-0.092498,0.027026,-0.002628,1.000000,0.000154,0.000029,-0.000016,-0.053355,-0.701510,0.144186,0.695879,95.351698,73.934514,-92.086378
36316,-9.274451,2.774476,-0.275585,0.010985,-0.113124,-0.128877,0.025691,0.003102,-0.001670,-0.092744,0.027746,-0.002751,1.000000,0.000128,0.000016,-0.000008,-0.053298,-0.701501,0.144303,0.695868,95.359085,73.929561,-92.093278
36317,-9.263992,2.832662,-0.240868,-0.031060,-0.166230,-0.123779,0.012594,0.000841,-0.000434,-0.092640,0.028327,-0.002407,1.000000,0.000063,0.000004,-0.000002,-0.053290,-0.701480,0.144376,0.695874,95.354135,73.924293,-92.104954
36318,-9.293456,2.814953,-0.236435,-0.031837,-0.139862,-0.100447,0.001806,-0.013483,-0.001400,-0.092934,0.028150,-0.002370,1.000000,0.000009,-0.000067,-0.000007,-0.053306,-0.701408,0.144415,0.695938,95.314986,73.920087,-92.146008
36319,-9.288192,2.813276,-0.200920,-0.064839,-0.134986,-0.106865,-0.007218,-0.015889,-0.008267,-0.092881,0.028137,-0.002018,1.000000,-0.000036,-0.000079,-0.000041,-0.053328,-0.701329,0.144397,0.696020,95.267036,73.920169,-92.190622
36320,-9.276505,2.821846,-0.217982,-0.046590,-0.148748,-0.115287,-0.020544,-0.018837,-0.010742,-0.092763,0.028223,-0.002191,1.000000,-0.000103,-0.000094,-0.000054,-0.053387,-0.701239,0.144326,0.696121,95.206221,73.921587,-92.240820
36321,-9.305894,2.742329,-0.179043,-0.072005,-0.060467,-0.109943,-0.032885,-0.012025,-0.013802,-0.093057,0.027429,-0.001801,1.000000,-0.000164,-0.000060,-0.000069,-0.053482,-0.701171,0.144197,0.696209,95.152199,73.924603,-92.276448
36322,-9.329176,2.734200,-0.225875,-0.021512,-0.052762,-0.088638,-0.037403,-0.015554,-0.013460,-0.093290,0.027348,-0.002271,1.000000,-0.000187,-0.000078,-0.000067,-0.053593,-0.701089,0.144058,0.696312,95.088615,73.927343,-92.319452
36323,-9.364496,2.716498,-0.253382,0.011419,-0.030393,-0.058903,-0.037626,-0.016233,-0.017172,-0.093642,0.027173,-0.002547,1.000000,-0.000188,-0.000081,-0.000086,-0.053690,-0.701007,0.143902,0.696418,95.024093,73.932474,-92.363179
36324,-9.394431,2.697293,-0.246624,0.010655,-0.003997,-0.035601,-0.031302,-0.021567,-0.018241,-0.093942,0.026981,-0.002481,1.000000,-0.000157,-0.000108,-0.000091,-0.053757,-0.700909,0.143771,0.696539,94.952960,73.938171,-92.418005
36325,-9.406990,2.686007,-0.224862,-0.006222,0.011618,-0.027164,-0.021211,-0.020867,-0.021884,-0.094067,0.026870,-0.002261,1.000000,-0.000106,-0.000104,-0.000109,-0.053777,-0.700819,0.143657,0.696651,94.889382,73.946190,-92.470533
36326,-9.377999,2.671155,-0.210009,-0.016423,0.018103,-0.059460,-0.006833,-0.026588,-0.022718,-0.093777,0.026722,-0.002113,1.000000,-0.000034,-0.000133,-0.000114,-0.053740,-0.700714,0.143595,0.696773,94.822922,73.954670,-92.534933
36327,-9.360014,2.658742,-0.263375,0.040761,0.016596,-0.078921,-0.003555,-0.024276,-0.024830,-0.093597,0.026599,-0.002646,1.000000,-0.000018,-0.000121,-0.000124,-0.053685,-0.700619,0.143534,0.696885,94.763060,73.964502,-92.594116
36328,-9.338011,2.693963,-0.228130,0.003953,-0.020185,-0.091190,0.006013,-0.029663,-0.020131,-0.093377,0.026949,-0.002294,1.000000,0.000030,-0.000148,-0.000101,-0.053610,-0.700504,0.143527,0.697008,94.697256,73.971583,-92.665558
36329,-9.261598,2.644197,-0.170027,-0.045604,0.011981,-0.179637,0.017347,-0.027735,-0.022009,-0.092613,0.026452,-0.001711,1.000000,0.000087,-0.000139,-0.000110,-0.053489,-0.700400,0.143549,0.697117,94.641901,73.979931,-92.732508
36330,-9.203146,2.647140,-0.160348,-0.054383,-0.007021,-0.235217,0.027118,-0.018560,-0.019783,-0.092029,0.026481,-0.001608,1.000000,0.000136,-0.000093,-0.000099,-0.053351,-0.700330,0.143611,0.697185,94.609977,73.986336,-92.780750
36331,-9.179483,2.634001,-0.181619,-0.030911,-0.004585,-0.261097,0.025546,-0.009010,-0.015340,-0.091793,0.026347,-0.001817,1.000000,0.000128,-0.000045,-0.000077,-0.053239,-0.700289,0.143680,0.697221,94.595429,73.989992,-92.810127
36332,-9.181047,2.651079,-0.111141,-0.102864,-0.011968,-0.256460,0.035315,0.000167,-0.013118,-0.091809,0.026517,-0.001107,1.000000,0.000177,0.000001,-0.000066,-0.053105,-0.700281,0.143793,0.697216,94.604605,73.991665,-92.821155
36333,-9.215932,2.603120,-0.126347,-0.082255,0.041377,-0.235782,0.042802,0.012185,-0.010047,-0.092158,0.026036,-0.001252,1.000000,0.000214,0.000061,-0.000050,-0.052966,-0.700315,0.143935,0.697163,94.641280,73.991322,-92.807530
36334,-9.275168,2.597348,-0.136933,-0.072103,0.062263,-0.180210,0.053361,0.014264,-0.006273,-0.092751,0.025977,-0.001356,1.000000,0.000267,0.000071,-0.000031,-0.052806,-0.700356,0.144128,0.697094,94.687625,73.988499,-92.790237
36335,-9.387583,2.555112,-0.105680,-0.098488,0.138013,-0.084495,0.060165,0.017275,-0.007130,-0.093875,0.025555,-0.001041,1.000000,0.000301,0.000086,-0.000036,-0.052620,-0.700410,0.144340,0.697011,94.743892,73.986245,-92.766577
36336,-9.410445,2.516686,-0.141716,-0.060302,0.176699,-0.072287,0.073051,0.018885,-0.012090,-0.094103,0.025173,-0.001399,1.000000,0.000365,0.000094,-0.000060,-0.052374,-0.700476,0.144579,0.696913,94.811624,73.986533,-92.738613
36337,-9.434929,2.526847,-0.123519,-0.082397,0.176074,-0.046403,0.080410,0.016419,-0.014759,-0.094348,0.025276,-0.001217,1.000000,0.000402,0.000082,-0.000074,-0.052090,-0.700538,0.144834,0.696819,94.879057,73.988661,-92.715405
36338,-9.512042,2.542452,-0.166735,-0.043738,0.176792,0.033004,0.068306,0.021598,-0.014443,-0.095119,0.025432,-0.001648,1.000000,0.000342,0.000108,-0.000072,-0.051854,-0.700614,0.145048,0.696716,94.949827,73.990117,-92.681472
36339,-9.553996,2.544175,-0.163643,-0.049682,0.186935,0.073719,0.064805,0.020914,-0.015700,-0.095538,0.025450,-0.001618,1.000000,0.000324,0.000105,-0.000078,-0.051625,-0.700687,0.145245,0.696617,95.017448,73.992542,-92.648767
36340,-9.662980,2.682158,-0.197321,-0.035695,0.081009,0.217180,0.050716,0.013481,-0.013176,-0.096628,0.026828,-0.001960,1.000000,0.000254,0.000067,-0.000066,-0.051449,-0.700730,0.145405,0.696555,95.061771,73.993639,-92.631951
36341,-9.676579,2.792518,-0.245860,-0.003196,-0.027172,0.261738,0.031650,-0.001188,-0.018057,-0.096763,0.027934,-0.002455,1.000000,0.000158,-0.000006,-0.000090,-0.051312,-0.700719,0.145483,0.696559,95.066854,73.998516,-92.644544
36342,-9.619480,2.814244,-0.166594,-0.084611,-0.054512,0.210884,0.017663,-0.020113,-0.025425,-0.096191,0.028155,-0.001673,1.000000,0.000088,-0.000101,-0.000127,-0.051183,-0.700645,0.145495,0.696641,95.027676,74.008319,-92.695107
36343,-9.597709,2.849217,-0.131860,-0.121405,-0.091338,0.198724,0.002105,-0.031785,-0.028709,-0.095973,0.028506,-0.001334,1.000000,0.000011,-0.000159,-0.000144,-0.051090,-0.700528,0.145441,0.696776,94.956684,74.020796,-92.769225
36344,-9.479359,2.837485,-0.182732,-0.067113,-0.122073,0.082945,-0.025313,-0.037576,-0.036198,-0.094788,0.028392,-0.001849,1.000000,-0.000127,-0.000188,-0.000181,-0.051062,-0.700389,0.145270,0.696953,94.859699,74.037540,-92.854350
36345,-9.409153,2.818271,-0.172852,-0.070714,-0.124940,0.009944,-0.037410,-0.037026,-0.036554,-0.094086,0.028200,-0.001751,1.000000,-0.000187,-0.000185,-0.000183,-0.051075,-0.700250,0.145052,0.697138,94.756630,74.054682,-92.938271
36346,-9.385699,2.772987,-0.173477,-0.059584,-0.091535,-0.024993,-0.039138,-0.039668,-0.037514,-0.093851,0.027747,-0.001759,1.000000,-0.000196,-0.000198,-0.000188,-0.051092,-0.700102,0.144826,0.697332,94.647260,74.072245,-93.027633
36347,-9.343981,2.747697,-0.246121,0.020346,-0.091578,-0.070429,-0.038345,-0.044455,-0.035610,-0.093434,0.027493,-0.002487,1.000000,-0.000192,-0.000222,-0.000178,-0.051106,-0.699935,0.144610,0.697543,94.528213,74.089100,-93.127597
36348,-9.327669,2.752685,-0.225876,0.004889,-0.101401,-0.085232,-0.041329,-0.046022,-0.038002,-0.093271,0.027544,-0.002286,1.000000,-0.000207,-0.000230,-0.000190,-0.051123,-0.699764,0.144378,0.697762,94.404510,74.107091,-93.230743
36349,-9.269008,2.766335,-0.299452,0.080998,-0.143177,-0.136442,-0.036250,-0.052602,-0.032609,-0.092685,0.027678,-0.003024,1.000000,-0.000181,-0.000263,-0.000163,-0.051135,-0.699568,0.144182,0.697998,94.269373,74.122464,-93.348666
36350,-9.245876,2.752079,-0.315474,0.104441,-0.140749,-0.162353,-0.031454,-0.052962,-0.029923,-0.092454,0.027534,-0.003184,1.000000,-0.000157,-0.000265,-0.000150,-0.051140,-0.699369,0.144015,0.698232,94.135787,74.136036,-93.468025
36351,-9.223758,2.756745,-0.260912,0.055271,-0.146668,-0.183520,-0.026679,-0.051023,-0.026903,-0.092233,0.027580,-0.002636,1.000000,-0.000133,-0.000255,-0.000135,-0.051139,-0.699176,0.143872,0.698454,94.008040,74.147934,-93.583951
36352,-9.200508,2.742857,-0.277302,0.078714,-0.144244,-0.209432,-0.020334,-0.054020,-0.027640,-0.092001,0.027441,-0.002801,1.000000,-0.000102,-0.000270,-0.000138,-0.051114,-0.698975,0.143750,0.698683,93.877828,74.160063,-93.706192
36353,-9.171588,2.727971,-0.259587,0.068448,-0.137909,-0.241714,-0.010224,-0.057934,-0.023754,-0.091712,0.027290,-0.002624,1.000000,-0.000051,-0.000290,-0.000119,-0.051062,-0.698759,0.143677,0.698917,93.744795,74.170280,-93.837400
36354,-9.131268,2.753292,-0.277634,0.088062,-0.177212,-0.273369,-0.011784,-0.052993,-0.019995,-0.091309,0.027542,-0.002802,1.000000,-0.000059,-0.000265,-0.000100,-0.051031,-0.698558,0.143615,0.699133,93.620378,74.177823,-93.959138
36355,-9.114467,2.759884,-0.257959,0.072583,-0.187104,-0.288154,-0.007806,-0.046262,-0.018877,-0.091141,0.027607,-0.002602,1.000000,-0.000039,-0.000231,-0.000094,-0.050996,-0.698380,0.143564,0.699323,93.511386,74.184681,-94.066788
36356,-9.073967,2.785830,-0.277392,0.092190,-0.226426,-0.319800,-0.002858,-0.039050,-0.011481,-0.090738,0.027863,-0.002792,1.000000,-0.000014,-0.000195,-0.000057,-0.050976,-0.698224,0.143558,0.699483,93.418982,74.186794,-94.160318
36357,-9.117879,2.867519,-0.229118,0.038350,-0.286438,-0.256153,-0.005510,-0.027765,-0.004767,-0.091178,0.028677,-0.002305,1.000000,-0.000028,-0.000139,-0.000024,-0.050995,-0.698102,0.143560,0.699603,93.346865,74.184863,-94.231007
36358,-9.171822,2.891540,-0.216622,0.027239,-0.292419,-0.197907,-0.014666,-0.023420,0.005863,-0.091719,0.028913,-0.002179,1.000000,-0.000073,-0.000117,0.000029,-0.051089,-0.697984,0.143567,0.699711,93.277160,74.176449,-94.293771
36359,-9.277995,2.891289,-0.248648,0.064620,-0.266083,-0.095301,-0.035138,-0.018677,0.010524,-0.092781,0.028908,-0.002500,1.000000,-0.000176,-0.000093,0.000053,-0.051272,-0.697875,0.143517,0.699817,93.204743,74.165429,-94.347133
36360,-9.352251,2.799647,-0.306635,0.138965,-0.164076,-0.047934,-0.045263,-0.014812,0.014879,-0.093524,0.027989,-0.003080,1.000000,-0.000226,-0.000074,0.000074,-0.051508,-0.697774,0.143448,0.699915,93.134099,74.151524,-94.392874
36361,-9.397593,2.713974,-0.281478,0.129746,-0.064984,-0.028078,-0.048952,-0.020780,0.009249,-0.093977,0.027135,-0.002831,1.000000,-0.000245,-0.000104,0.000046,-0.051734,-0.697654,0.143346,0.700039,93.049853,74.141261,-94.450310
36362,-9.400729,2.606151,-0.334227,0.199710,0.033141,-0.053771,-0.037337,-0.020367,0.002480,-0.094007,0.026060,-0.003357,1.000000,-0.000187,-0.000102,0.000012,-0.051895,-0.697544,0.143264,0.700153,92.974095,74.134554,-94.506230
36363,-9.369535,2.545016,-0.374335,0.249694,0.078701,-0.099970,-0.008648,-0.017898,0.002741,-0.093695,0.025449,-0.003753,1.000000,-0.000043,-0.000089,0.000014,-0.051959,-0.697450,0.143279,0.700239,92.919565,74.127890,-94.556786
36364,-9.328768,2.560623,-0.309091,0.184344,0.062020,-0.135890,0.022334,-0.018257,0.002141,-0.093288,0.025606,-0.003097,1.000000,0.000112,-0.000091,0.000011,-0.051915,-0.697363,0.143401,0.700304,92.882189,74.121311,-94.607821
36365,-9.294227,2.608013,-0.295559,0.165045,0.010401,-0.156374,0.048890,-0.005388,0.007980,-0.092943,0.026077,-0.002952,1.000000,0.000244,-0.000027,0.000040,-0.051806,-0.697324,0.143632,0.700304,92.885326,74.111273,-94.632699
36366,-9.261383,2.735297,-0.245295,0.097821,-0.111357,-0.153843,0.053843,0.001816,0.015376,-0.092616,0.027347,-0.002445,1.000000,0.000269,0.000009,0.000077,-0.051710,-0.697305,0.143908,0.700273,92.905343,74.096574,-94.643332
36367,-9.285400,2.778860,-0.242476,0.088126,-0.142850,-0.118806,0.056362,0.025641,0.025649,-0.092858,0.027777,-0.002405,1.000000,0.000282,0.000128,0.000128,-0.051659,-0.697364,0.144219,0.700154,92.973227,74.075521,-94.605339
36368,-9.340279,2.884776,-0.198811,0.029159,-0.218925,-0.037541,0.049719,0.034813,0.031925,-0.093408,0.028833,-0.001965,1.000000,0.000249,0.000174,0.000160,-0.051661,-0.697448,0.144528,0.700006,93.054966,74.050325,-94.548992
36369,-9.416365,2.904582,-0.242486,0.067992,-0.218016,0.041812,0.029003,0.041191,0.033217,-0.094169,0.029031,-0.002401,1.000000,0.000145,0.000206,0.000166,-0.051743,-0.697549,0.144766,0.699851,93.137138,74.024432,-94.479824
36370,-9.439333,2.919231,-0.225000,0.045961,-0.218501,0.067782,0.015408,0.039771,0.035652,-0.094399,0.029176,-0.002229,1.000000,0.000077,0.000199,0.000178,-0.051880,-0.697638,0.144968,0.699710,93.208382,73.996887,-94.414193
36371,-9.455719,2.914210,-0.243692,0.062836,-0.206787,0.082559,0.003357,0.035717,0.034663,-0.094563,0.029126,-0.002420,1.000000,0.000017,0.000179,0.000173,-0.052052,-0.697712,0.145122,0.699592,93.264332,73.970297,-94.357000
36372,-9.430025,2.875803,-0.252331,0.073895,-0.173445,0.047523,-0.010738,0.032878,0.037898,-0.094306,0.028740,-0.002509,1.000000,-0.000054,0.000164,0.000189,-0.052282,-0.697768,0.145245,0.699493,93.306311,73.941632,-94.306497
36373,-9.351746,2.862744,-0.215832,0.036434,-0.172563,-0.031791,-0.011981,0.029305,0.044024,-0.093524,0.028607,-0.002146,1.000000,-0.000060,0.000147,0.000220,-0.052536,-0.697808,0.145380,0.699406,93.339317,73.909877,-94.264019
36374,-9.261069,2.829256,-0.181966,0.004136,-0.155473,-0.128628,-0.020851,0.034420,0.050135,-0.092618,0.028269,-0.001807,1.000000,-0.000104,0.000172,0.000251,-0.052847,-0.697860,0.145506,0.699305,93.376726,73.874212,-94.211770
36375,-9.258608,2.773648,-0.151945,-0.019886,-0.092717,-0.146818,-0.025445,0.040043,0.060066,-0.092595,0.027708,-0.001504,1.000000,-0.000127,0.000200,0.000300,-0.053212,-0.697922,0.145647,0.699186,93.421013,73.832902,-94.149502
36376,-9.284888,2.712468,-0.206093,0.039695,-0.026992,-0.137627,-0.009145,0.056161,0.058347,-0.092857,0.027097,-0.002036,1.000000,-0.000046,0.000281,0.000292,-0.053527,-0.698045,0.145837,0.698999,93.506371,73.791675,-94.054345
36377,-9.354014,2.703819,-0.200183,0.032496,0.008838,-0.073738,-0.000101,0.060900,0.065524,-0.093550,0.027008,-0.001973,1.000000,-0.000001,0.000304,0.000328,-0.053837,-0.698183,0.146080,0.698787,93.604766,73.746455,-93.950820
36378,-9.374551,2.642068,-0.222096,0.058360,0.078504,-0.070897,0.026428,0.054659,0.065011,-0.093755,0.026390,-0.002192,1.000000,0.000132,0.000273,0.000325,-0.054049,-0.698306,0.146420,0.698576,93.705918,73.701443,-93.860612
36379,-9.343027,2.635357,-0.215790,0.048045,0.084774,-0.103191,0.042605,0.051624,0.065131,-0.093439,0.026324,-0.002128,1.000000,0.000213,0.000258,0.000326,-0.054202,-0.698422,0.146813,0.698365,93.809597,73.656694,-93.777029
36380,-9.293980,2.637063,-0.194750,0.021536,0.080281,-0.150225,0.050430,0.052839,0.070213,-0.092950,0.026338,-0.001916,1.000000,0.000252,0.000264,0.000351,-0.054346,-0.698541,0.147256,0.698142,93.919148,73.608632,-93.692428
36381,-9.232896,2.648525,-0.193241,0.012558,0.060973,-0.205684,0.054720,0.057972,0.074714,-0.092339,0.026451,-0.001898,1.000000,0.000274,0.000290,0.000374,-0.054496,-0.698676,0.147723,0.697897,94.039708,73.558063,-93.598443
36382,-9.284787,2.709982,-0.207203,0.013897,0.024209,-0.138318,0.056271,0.062263,0.072305,-0.092858,0.027067,-0.002036,1.000000,0.000281,0.000311,0.000362,-0.054633,-0.698827,0.148190,0.697636,94.169428,73.508391,-93.496219
36383,-9.271094,2.786578,-0.266282,0.056832,-0.051495,-0.128514,0.045985,0.058607,0.071915,-0.092722,0.027833,-0.002629,1.000000,0.000230,0.000293,0.000360,-0.054804,-0.698963,0.148617,0.697395,94.285292,73.459281,-93.401863
36384,-9.223523,2.867425,-0.207332,-0.017587,-0.126147,-0.152342,0.031457,0.049864,0.058796,-0.092244,0.028647,-0.002046,1.000000,0.000157,0.000249,0.000294,-0.054971,-0.699074,0.148954,0.697199,94.377748,73.417740,-93.323802
36385,-9.181720,2.948385,-0.181049,-0.058277,-0.204787,-0.169845,-0.003546,0.043662,0.049921,-0.091825,0.029461,-0.001791,1.000000,-0.000018,0.000218,0.000250,-0.055227,-0.699161,0.149135,0.697053,94.438839,73.381767,-93.256947
36386,-9.157354,2.959813,-0.134616,-0.107499,-0.210724,-0.190848,-0.048645,0.029872,0.043681,-0.091580,0.029578,-0.001340,1.000000,-0.000243,0.000149,0.000218,-0.055610,-0.699191,0.149143,0.696990,94.448479,73.349669,-93.216834
36387,-9.161483,2.903754,-0.135898,-0.097819,-0.151932,-0.202777,-0.094211,0.019322,0.030677,-0.091619,0.029023,-0.001364,1.000000,-0.000471,0.000097,0.000153,-0.056097,-0.699182,0.148948,0.697002,94.413713,73.325759,-93.195792
36388,-9.164692,2.767018,-0.173008,-0.040269,-0.022977,-0.237942,-0.134181,0.008262,0.014708,-0.091649,0.027662,-0.001745,1.000000,-0.000671,0.000041,0.000074,-0.056661,-0.699134,0.148564,0.697087,94.337575,73.311189,-93.194339
36389,-9.191152,2.591889,-0.241591,0.054836,0.143728,-0.261255,-0.155479,0.003513,0.003436,-0.091912,0.025915,-0.002434,1.000000,-0.000777,0.000018,0.000017,-0.057256,-0.699072,0.148064,0.697207,94.241634,73.303536,-93.200511
36390,-9.271644,2.440379,-0.300780,0.138277,0.303742,-0.226347,-0.138467,0.000347,-0.010291,-0.092715,0.024406,-0.003025,1.000000,-0.000692,0.000002,-0.000051,-0.057743,-0.699014,0.147578,0.697328,94.151461,73.303610,-93.210777
36391,-9.305486,2.313401,-0.349347,0.206859,0.427310,-0.229340,-0.097071,-0.012579,-0.020942,-0.093052,0.023142,-0.003511,1.000000,-0.000485,-0.000063,-0.000105,-0.058037,-0.698930,0.147201,0.697468,94.061736,73.310543,-93.245397
36392,-9.352966,2.255321,-0.340594,0.210038,0.495574,-0.200677,-0.039372,-0.027958,-0.027751,-0.093526,0.022566,-0.003423,1.000000,-0.000197,-0.000140,-0.000139,-0.058095,-0.698814,0.147008,0.697620,93.976712,73.321722,-93.309629
36393,-9.407522,2.276743,-0.328104,0.199072,0.489757,-0.142466,0.021328,-0.030205,-0.038689,-0.094070,0.022786,-0.003293,1.000000,0.000107,-0.000151,-0.000193,-0.057900,-0.698715,0.146987,0.697739,93.923406,73.339467,-93.377042
36394,-9.416789,2.402098,-0.267356,0.125363,0.377471,-0.098817,0.072709,-0.033302,-0.043419,-0.094162,0.024042,-0.002681,1.000000,0.000364,-0.000167,-0.000217,-0.057507,-0.698624,0.147134,0.697831,93.894326,73.359745,-93.450249
36395,-9.497438,2.543316,-0.212877,0.056227,0.269278,0.017848,0.103485,-0.036785,-0.047947,-0.094968,0.025457,-0.002133,1.000000,0.000517,-0.000184,-0.000240,-0.056988,-0.698534,0.147369,0.697915,93.876465,73.383016,-93.529782
36396,-9.495355,2.707411,-0.188829,0.012410,0.111329,0.062279,0.101811,-0.037041,-0.056798,-0.094946,0.027102,-0.001892,1.000000,0.000509,-0.000185,-0.000284,-0.056442,-0.698447,0.147572,0.698003,93.858567,73.411132,-93.608945
36397,-9.523136,2.853098,-0.160672,-0.032704,-0.021051,0.129877,0.090322,-0.039556,-0.066852,-0.095221,0.028564,-0.001613,1.000000,0.000452,-0.000198,-0.000334,-0.055901,-0.698357,0.147696,0.698111,93.829950,73.445301,-93.691809
36398,-9.462469,2.959490,-0.095075,-0.110960,-0.137455,0.100674,0.056400,-0.042881,-0.077316,-0.094613,0.029632,-0.000963,1.000000,0.000282,-0.000214,-0.000387,-0.055441,-0.698252,0.147668,0.698258,93.776693,73.485347,-93.780082
36399,-9.383127,2.993963,-0.051601,-0.157554,-0.194645,0.033471,0.014367,-0.038937,-0.086998,-0.093818,0.029980,-0.000532,1.000000,0.000072,-0.000195,-0.000435,-0.055095,-0.698157,0.147456,0.698426,93.707684,73.530969,-93.859652
36400,-9.350521,2.971908,-0.001496,-0.201646,-0.184460,-0.005048,-0.028706,-0.037901,-0.086839,-0.093492,0.029760,-0.000037,1.000000,-0.000144,-0.000190,-0.000434,-0.054901,-0.698053,0.147097,0.698620,93.615826,73.576230,-93.937544
36401,-9.280740,2.929151,-0.062502,-0.132946,-0.179449,-0.083038,-0.062727,-0.029806,-0.087374,-0.092794,0.029332,-0.000648,1.000000,-0.000314,-0.000149,-0.000437,-0.054829,-0.697969,0.146612,0.698812,93.519513,73.621673,-93.999491
36402,-9.275913,2.840660,-0.061969,-0.118134,-0.104489,-0.112643,-0.083894,-0.022471,-0.084987,-0.092747,0.028446,-0.000642,1.000000,-0.000419,-0.000112,-0.000425,-0.054844,-0.697902,0.146064,0.698993,93.424983,73.665248,-94.047424
36403,-9.276434,2.753702,-0.095711,-0.069586,-0.033505,-0.135999,-0.091685,-0.019076,-0.081160,-0.092753,0.027574,-0.000979,1.000000,-0.000458,-0.000095,-0.000406,-0.054903,-0.697841,0.145496,0.699166,93.331483,73.706716,-94.089126
36404,-9.277589,2.727829,-0.162588,0.003684,-0.024286,-0.141051,-0.091163,-0.013012,-0.081279,-0.092765,0.027315,-0.001644,1.000000,-0.000456,-0.000065,-0.000406,-0.054963,-0.697802,0.144934,0.699318,93.250185,73.747745,-94.119117
36405,-9.290011,2.662579,-0.194562,0.047080,0.030560,-0.146855,-0.081856,-0.012192,-0.071056,-0.092891,0.026658,-0.001962,1.000000,-0.000409,-0.000061,-0.000355,-0.055028,-0.697761,0.144435,0.699457,93.174107,73.783178,-94.148523
36406,-9.281588,2.714571,-0.156158,0.005035,-0.022434,-0.141048,-0.058705,-0.009220,-0.067755,-0.092807,0.027177,-0.001574,1.000000,-0.000294,-0.000046,-0.000339,-0.055022,-0.697733,0.144034,0.699568,93.116981,73.816306,-94.172956
36407,-9.283372,2.708592,-0.153903,0.005717,-0.021534,-0.141046,-0.038817,-0.010873,-0.062680,-0.092825,0.027115,-0.001549,1.000000,-0.000194,-0.000054,-0.000313,-0.054968,-0.697702,0.143714,0.699669,93.066893,73.846889,-94.200965
36408,-9.314801,2.715578,-0.164653,0.017465,-0.025867,-0.108770,-0.019268,-0.001699,-0.059610,-0.093140,0.027183,-0.001650,1.000000,-0.000096,-0.000008,-0.000298,-0.054862,-0.697706,0.143474,0.699722,93.045897,73.875166,-94.210692
36409,-9.306133,2.768660,-0.128918,-0.024563,-0.078908,-0.102931,0.008093,0.001757,-0.052489,-0.093054,0.027711,-0.001287,1.000000,0.000040,0.000009,-0.000262,-0.054689,-0.697725,0.143349,0.699743,93.046446,73.899526,-94.213963
36410,-9.355277,2.798624,-0.173296,0.015780,-0.103275,-0.046797,0.025875,0.010589,-0.050046,-0.093546,0.028010,-0.001724,1.000000,0.000129,0.000053,-0.000250,-0.054468,-0.697777,0.143298,0.699719,93.074631,73.921920,-94.199452
36411,-9.352701,2.841482,-0.086955,-0.077483,-0.137600,-0.038760,0.047189,0.017824,-0.046690,-0.093520,0.028437,-0.000855,1.000000,0.000236,0.000089,-0.000233,-0.054189,-0.697859,0.143326,0.699653,93.128944,73.942466,-94.170084
36412,-9.397837,2.919432,-0.044907,-0.131072,-0.197203,0.025420,0.063539,0.017797,-0.042528,-0.093972,0.029214,-0.000431,1.000000,0.000318,0.000089,-0.000213,-0.053871,-0.697941,0.143426,0.699575,93.192278,73.960420,-94.140862
36413,-9.386561,2.894962,-0.051513,-0.125242,-0.180170,0.007844,0.053601,0.026938,-0.033793,-0.093861,0.028966,-0.000495,1.000000,0.000268,0.000135,-0.000169,-0.053623,-0.698047,0.143519,0.699469,93.267181,73.973275,-94.093897
36414,-9.399793,2.913002,-0.052374,-0.129689,-0.195322,0.025476,0.032941,0.024020,-0.025675,-0.093994,0.029142,-0.000508,1.000000,0.000165,0.000120,-0.000128,-0.053472,-0.698131,0.143573,0.699386,93.323744,73.981287,-94.053973
36415,-9.381823,2.900710,-0.111157,-0.072621,-0.197003,0.005714,0.014303,0.022195,-0.021444,-0.093815,0.029017,-0.001099,1.000000,0.000072,0.000111,-0.000107,-0.053400,-0.698200,0.143573,0.699322,93.365383,73.987211,-94.018194
36416,-9.369385,2.847660,-0.099672,-0.079177,-0.149037,-0.021059,-0.004836,0.018939,-0.016415,-0.093692,0.028484,-0.000989,1.000000,-0.000024,0.000095,-0.000082,-0.053410,-0.698249,0.143528,0.699282,93.389198,73.990103,-93.989854
36417,-9.340516,2.864387,-0.105186,-0.077201,-0.173771,-0.044123,-0.014685,0.016559,-0.009388,-0.093404,0.028648,-0.001046,1.000000,-0.000073,0.000083,-0.000047,-0.053478,-0.698283,0.143471,0.699255,93.401600,73.989315,-93.967215
36418,-9.275469,2.879823,-0.151249,-0.035084,-0.211914,-0.101640,-0.021482,0.015832,-0.008189,-0.092754,0.028802,-0.001508,1.000000,-0.000107,0.000079,-0.000041,-0.053573,-0.698310,0.143398,0.699235,93.408560,73.987535,-93.946526
36419,-9.270005,2.878270,-0.118031,-0.068130,-0.207086,-0.107851,-0.023817,0.016279,0.000547,-0.092700,0.028782,-0.001176,1.000000,-0.000119,0.000081,0.000003,-0.053707,-0.698333,0.143343,0.699213,93.413982,73.981072,-93.925703
36420,-9.240102,2.866115,-0.106821,-0.078553,-0.200905,-0.140098,-0.026416,0.020655,0.006252,-0.092402,0.028658,-0.001062,1.000000,-0.000132,0.000103,0.000031,-0.053873,-0.698367,0.143300,0.699176,93.426177,73.970983,-93.896456
36421,-9.275367,2.838148,-0.050948,-0.130386,-0.155640,-0.114807,-0.030270,0.026109,0.010529,-0.092755,0.028377,-0.000502,1.000000,-0.000151,0.000131,0.000053,-0.054071,-0.698415,0.143255,0.699121,93.446236,73.958471,-93.856556
36422,-9.340062,2.865643,-0.111115,-0.073765,-0.169082,-0.044014,-0.032344,0.029613,0.015094,-0.093403,0.028649,-0.001102,1.000000,-0.000162,0.000148,0.000075,-0.054296,-0.698471,0.143222,0.699055,93.471576,73.942928,-93.810186
36423,-9.339103,2.836485,-0.096754,-0.085455,-0.137282,-0.053194,-0.032574,0.031248,0.011725,-0.093393,0.028359,-0.000958,1.000000,-0.000163,0.000156,0.000059,-0.054510,-0.698536,0.143171,0.698984,93.500267,73.929543,-93.759924
36424,-9.349262,2.809594,-0.150325,-0.029686,-0.113277,-0.049932,-0.031482,0.024900,0.008759,-0.093494,0.028092,-0.001496,1.000000,-0.000157,0.000124,0.000044,-0.054704,-0.698580,0.143121,0.698935,93.517475,73.917774,-93.722761
36425,-9.287553,2.736594,-0.182127,0.008993,-0.062773,-0.128849,-0.022407,0.025102,0.007055,-0.092877,0.027362,-0.001813,1.000000,-0.000112,0.000126,0.000035,-0.054862,-0.698629,0.143091,0.698879,93.540266,73.907266,-93.684696
36426,-9.262497,2.695718,-0.189069,0.019913,-0.029638,-0.164101,-0.012276,0.014258,0.009922,-0.092626,0.026952,-0.001886,1.000000,-0.000061,0.000071,0.000050,-0.054987,-0.698641,0.143113,0.698853,93.547115,73.895243,-93.669448
36427,-9.279532,2.688472,-0.204999,0.036826,-0.017866,-0.149461,-0.001694,0.009444,0.012675,-0.092797,0.026879,-0.002046,1.000000,-0.000008,0.000047,0.000063,-0.055082,-0.698638,0.143180,0.698836,93.550014,73.882073,-93.664437
36428,-9.254356,2.648111,-0.211021,0.047743,0.015269,-0.184727,0.011960,-0.003009,0.016461,-0.092546,0.026474,-0.002110,1.000000,0.000060,-0.000015,0.000082,-0.055133,-0.698591,0.143314,0.698851,93.535722,73.866874,-93.685683
36429,-9.278663,2.691434,-0.205443,0.038186,-0.016013,-0.149463,0.026569,-0.008001,0.019333,-0.092789,0.026906,-0.002055,1.000000,0.000133,-0.000040,0.000097,-0.055139,-0.698529,0.143508,0.698872,93.519539,73.850512,-93.717393
36430,-9.260747,2.701644,-0.190217,0.022629,-0.025939,-0.164096,0.024558,-0.011405,0.022873,-0.092610,0.027006,-0.001904,1.000000,0.000123,-0.000057,0.000114,-0.055163,-0.698452,0.143710,0.698906,93.495186,73.831939,-93.756515
36431,-9.331979,2.749853,-0.211172,0.040440,-0.051543,-0.081921,0.010469,-0.014272,0.026057,-0.093323,0.027486,-0.002117,1.000000,0.000052,-0.000071,0.000130,-0.055245,-0.698359,0.143873,0.698959,93.456736,73.811942,-93.801812
36432,-9.343732,2.772917,-0.206954,0.036005,-0.066676,-0.064278,-0.001782,-0.019011,0.021307,-0.093440,0.027719,-0.002079,1.000000,-0.000009,-0.000095,0.000107,-0.055348,-0.698249,0.143981,0.699038,93.402813,73.794548,-93.856224
36433,-9.372436,2.757074,-0.200620,0.035435,-0.040089,-0.041229,-0.010786,-0.026107,0.021987,-0.093727,0.027560,-0.002020,1.000000,-0.000054,-0.000131,0.000110,-0.055481,-0.698112,0.144058,0.699149,93.329611,73.777252,-93.925038
36434,-9.406195,2.712075,-0.211197,0.056226,0.013523,-0.021206,-0.018771,-0.032650,0.020727,-0.094064,0.027111,-0.002130,1.000000,-0.000094,-0.000163,0.000104,-0.055634,-0.697950,0.144108,0.699288,93.239273,73.760528,-94.007065
36435,-9.427671,2.646126,-0.223875,0.082125,0.083161,-0.018841,-0.014677,-0.039730,0.019818,-0.094279,0.026452,-0.002259,1.000000,-0.000073,-0.000199,0.000099,-0.055763,-0.697765,0.144168,0.699450,93.137663,73.744848,-94.103157
36436,-9.486292,2.642653,-0.227350,0.092702,0.104615,0.036450,-0.008268,-0.051940,0.017711,-0.094865,0.026418,-0.002299,1.000000,-0.000041,-0.000260,0.000089,-0.055856,-0.697541,0.144248,0.699650,93.016195,73.730414,-94.223668
36437,-9.486458,2.674747,-0.238111,0.105783,0.074654,0.045664,-0.000121,-0.061499,0.016572,-0.094866,0.026740,-0.002410,1.000000,-0.000001,-0.000307,0.000083,-0.055907,-0.697286,0.144353,0.699877,92.880990,73.717120,-94.363461
36438,-9.492469,2.665251,-0.179071,0.055234,0.094344,0.047873,0.013546,-0.066959,0.013146,-0.094926,0.026646,-0.001821,1.000000,0.000068,-0.000335,0.000066,-0.055892,-0.697018,0.144503,0.700115,92.743775,73.705535,-94.514249
36439,-9.483037,2.785701,-0.170083,0.038000,-0.020413,0.072412,0.009516,-0.064466,0.013377,-0.094832,0.027851,-0.001730,1.000000,0.000048,-0.000322,0.000067,-0.055896,-0.696758,0.144632,0.700347,92.609003,73.693963,-94.659361
36440,-9.465380,2.795047,-0.149211,0.022438,-0.030330,0.057801,0.005281,-0.064945,0.009556,-0.094655,0.027946,-0.001522,1.000000,0.000026,-0.000325,0.000048,-0.055899,-0.696497,0.144738,0.700584,92.471703,73.684192,-94.805245
36441,-9.452923,2.774925,-0.146029,0.028237,-0.013342,0.040145,-0.005276,-0.062415,0.006484,-0.094530,0.027746,-0.001491,1.000000,-0.000026,-0.000312,0.000032,-0.055933,-0.696245,0.144791,0.700821,92.333397,73.676322,-94.945222
36442,-9.388150,2.779346,-0.097817,-0.014714,-0.028998,-0.021333,-0.020333,-0.063426,0.003767,-0.093882,0.027792,-0.001011,1.000000,-0.000102,-0.000317,0.000019,-0.056011,-0.695987,0.144781,0.701073,92.184845,73.669711,-95.086530
36443,-9.356914,2.718114,-0.134086,0.035021,0.016198,-0.068127,-0.031164,-0.056969,-0.002326,-0.093568,0.027182,-0.001372,1.000000,-0.000156,-0.000285,-0.000012,-0.056108,-0.695753,0.144710,0.701312,92.043226,73.666572,-95.214512
36444,-9.273369,2.681321,-0.126294,0.035980,0.028743,-0.158741,-0.029716,-0.048090,-0.004042,-0.092733,0.026815,-0.001289,1.000000,-0.000149,-0.000240,-0.000020,-0.056197,-0.695551,0.144641,0.701519,91.920319,73.663904,-95.324432
36445,-9.213902,2.655772,-0.097654,0.014351,0.039973,-0.223275,-0.017230,-0.038014,-0.003157,-0.092138,0.026559,-0.000996,1.000000,-0.000086,-0.000190,-0.000016,-0.056256,-0.695388,0.144611,0.701683,91.823858,73.660734,-95.413680
36446,-9.154925,2.660810,-0.086587,0.005097,0.020369,-0.278558,-0.005267,-0.027069,-0.001130,-0.091549,0.026609,-0.000879,1.000000,-0.000026,-0.000135,-0.000006,-0.056286,-0.695264,0.144633,0.701798,91.755814,73.655882,-95.480996
36447,-9.155506,2.691277,-0.101196,0.018161,-0.009613,-0.269309,0.003088,-0.007627,0.001019,-0.091555,0.026912,-0.001015,1.000000,0.000015,-0.000038,0.000005,-0.056311,-0.695210,0.144680,0.701840,91.730155,73.649734,-95.508595
36448,-9.102384,2.685805,-0.040539,-0.042336,-0.010512,-0.322341,0.012728,0.008439,0.004250,-0.091024,0.026856,-0.000400,1.000000,0.000064,0.000042,0.000021,-0.056324,-0.695213,0.144772,0.701818,91.741468,73.641190,-95.503879
36449,-9.138079,2.687957,-0.001788,-0.081734,0.003941,-0.287830,0.023802,0.033375,0.005762,-0.091382,0.026877,0.000001,1.000000,0.000119,0.000167,0.000029,-0.056323,-0.695305,0.144898,0.701701,91.807377,73.631603,-95.448417
36450,-9.167696,2.701210,-0.018386,-0.069905,-0.000281,-0.255563,0.029923,0.051056,0.008087,-0.091678,0.027008,-0.000156,1.000000,0.000150,0.000255,0.000040,-0.056320,-0.695459,0.145051,0.701516,91.911302,73.620090,-95.357398
36451,-9.184945,2.693679,-0.039439,-0.052971,0.011514,-0.240971,0.038887,0.062744,0.008066,-0.091851,0.026933,-0.000360,1.000000,0.000194,0.000314,0.000040,-0.056296,-0.695656,0.145229,0.701286,92.042701,73.608548,-95.242676
36452,-9.255532,2.679669,-0.035516,-0.059840,0.047845,-0.177290,0.049146,0.071063,0.009130,-0.092557,0.026793,-0.000316,1.000000,0.000246,0.000355,0.000046,-0.056245,-0.695885,0.145448,0.701017,92.196114,73.595857,-95.111472
36453,-9.219376,2.678530,-0.084704,-0.019102,0.035158,-0.211803,0.057476,0.073770,0.005178,-0.092195,0.026783,-0.000805,1.000000,0.000287,0.000369,0.000026,-0.056154,-0.696128,0.145677,0.700735,92.359446,73.585548,-94.974549
36454,-9.268494,2.762352,-0.082375,-0.038794,-0.028098,-0.141077,0.068025,0.082853,0.001735,-0.092686,0.027623,-0.000776,1.000000,0.000340,0.000414,0.000009,-0.056019,-0.696409,0.145935,0.700414,92.547020,73.576650,-94.819301
36455,-9.305365,2.825047,-0.083512,-0.053371,-0.075335,-0.088020,0.066828,0.081657,-0.000030,-0.093054,0.028251,-0.000788,1.000000,0.000334,0.000408,-0.000000,-0.055882,-0.696686,0.146177,0.700099,92.731112,73.568869,-94.666307
36456,-9.324494,2.865170,-0.053211,-0.096601,-0.102565,-0.058797,0.064682,0.077679,-0.008415,-0.093244,0.028656,-0.000487,1.000000,0.000323,0.000388,-0.000042,-0.055723,-0.696954,0.146385,0.699801,92.906972,73.565597,-94.520616
36457,-9.396022,2.880068,-0.067402,-0.091029,-0.097098,0.014156,0.055660,0.075213,-0.007038,-0.093959,0.028804,-0.000631,1.000000,0.000278,0.000376,-0.000035,-0.055597,-0.697211,0.146565,0.699518,93.072627,73.561755,-94.380167
36458,-9.372860,2.855939,-0.010144,-0.152746,-0.072292,-0.015829,0.038880,0.069238,-0.011087,-0.093727,0.028565,-0.000063,1.000000,0.000194,0.000346,-0.000055,-0.055513,-0.697444,0.146674,0.699268,93.217502,73.560075,-94.251158
36459,-9.389232,2.827943,-0.102970,-0.063205,-0.052240,-0.006627,0.024605,0.061103,-0.012279,-0.093891,0.028285,-0.000998,1.000000,0.000123,0.000306,-0.000061,-0.055466,-0.697646,0.146732,0.699058,93.338493,73.559493,-94.138724
36460,-9.459051,2.793402,-0.168665,0.002571,-0.007624,0.051648,0.017904,0.048877,-0.012772,-0.094589,0.027940,-0.001661,1.000000,0.000090,0.000244,-0.000064,-0.055435,-0.697804,0.146767,0.698896,93.431946,73.559322,-94.050740
36461,-9.452476,2.772392,-0.209344,0.042099,0.005423,0.040103,0.016575,0.023875,-0.013397,-0.094523,0.027730,-0.002080,1.000000,0.000083,0.000119,-0.000067,-0.055384,-0.697875,0.146803,0.698822,93.476306,73.560567,-94.013405
36462,-9.470204,2.762675,-0.226309,0.059064,0.017309,0.054661,0.024272,0.005974,-0.014710,-0.094700,0.027634,-0.002257,1.000000,0.000121,0.000030,-0.000074,-0.055290,-0.697885,0.146869,0.698805,93.490678,73.562885,-94.012199
36463,-9.436771,2.838688,-0.229173,0.052021,-0.065329,0.044105,0.026472,-0.020634,-0.014408,-0.094365,0.028394,-0.002298,1.000000,0.000132,-0.000103,-0.000072,-0.055169,-0.697804,0.146948,0.698880,93.454548,73.566248,-94.064697
36464,-9.408435,2.885477,-0.247383,0.066321,-0.120966,0.030422,0.013009,-0.040503,-0.014716,-0.094082,0.028862,-0.002491,1.000000,0.000065,-0.000203,-0.000074,-0.055079,-0.697648,0.146988,0.699033,93.372318,73.570157,-94.157567
36465,-9.356840,2.909133,-0.198418,0.018195,-0.152823,-0.013238,0.010338,-0.052912,-0.015083,-0.093566,0.029098,-0.002007,1.000000,0.000052,-0.000265,-0.000075,-0.054989,-0.697450,0.147018,0.699232,93.264342,73.574937,-94.275328
36466,-9.317170,2.923109,-0.129555,-0.047412,-0.169820,-0.048471,-0.003727,-0.053414,-0.019779,-0.093168,0.029240,-0.001321,1.000000,-0.000019,-0.000267,-0.000099,-0.054932,-0.697249,0.146982,0.699444,93.147795,73.582116,-94.393516
36467,-9.323821,2.952836,-0.174537,-0.000564,-0.203669,-0.033022,-0.019069,-0.057508,-0.018350,-0.093235,0.029537,-0.001775,1.000000,-0.000095,-0.000288,-0.000092,-0.054929,-0.697029,0.146898,0.699682,93.014226,73.588769,-94.520385
36468,-9.353183,2.903005,-0.147732,-0.013474,-0.146116,-0.019334,-0.040238,-0.057173,-0.016991,-0.093529,0.029038,-0.001510,1.000000,-0.000201,-0.000286,-0.000085,-0.055007,-0.696803,0.146746,0.699933,92.869054,73.594330,-94.646675
36469,-9.418283,2.897480,-0.182976,0.030987,-0.128442,0.042030,-0.040949,-0.063931,-0.012345,-0.094180,0.028980,-0.001866,1.000000,-0.000205,-0.000320,-0.000062,-0.055096,-0.696549,0.146608,0.700207,92.709698,73.597543,-94.787350
36470,-9.417040,2.847490,-0.229397,0.091842,-0.088401,0.027293,-0.040523,-0.081645,-0.011328,-0.094168,0.028480,-0.002338,1.000000,-0.000203,-0.000408,-0.000057,-0.055172,-0.696232,0.146488,0.700541,92.516325,73.600187,-94.964641
36471,-9.375342,2.813297,-0.211017,0.086394,-0.066382,-0.022676,-0.038466,-0.085195,-0.007663,-0.093751,0.028136,-0.002156,1.000000,-0.000192,-0.000426,-0.000038,-0.055253,-0.695901,0.146381,0.700886,92.316538,73.600975,-95.148941
36472,-9.346047,2.799752,-0.189700,0.075850,-0.060329,-0.054932,-0.032549,-0.089529,-0.015823,-0.093457,0.028005,-0.001943,1.000000,-0.000163,-0.000448,-0.000079,-0.055276,-0.695561,0.146278,0.701243,92.112822,73.605995,-95.342339
36473,-9.280865,2.784261,-0.209287,0.105331,-0.067995,-0.121730,-0.025191,-0.094326,-0.010624,-0.092806,0.027847,-0.002140,1.000000,-0.000126,-0.000472,-0.000053,-0.055294,-0.695204,0.146210,0.701610,91.902982,73.608290,-95.545041
36474,-9.222853,2.819298,-0.208652,0.108375,-0.118574,-0.167628,-0.030795,-0.086905,-0.006627,-0.092227,0.028196,-0.002131,1.000000,-0.000154,-0.000435,-0.000033,-0.055347,-0.694867,0.146143,0.701954,91.704499,73.607606,-95.733656
36475,-9.158971,2.853554,-0.174526,0.077671,-0.165323,-0.219637,-0.036894,-0.080912,-0.001824,-0.091589,0.028536,-0.001788,1.000000,-0.000184,-0.000405,-0.000009,-0.055447,-0.694546,0.146060,0.702280,91.513552,73.604248,-95.909676
36476,-9.118905,2.899747,-0.119252,0.024430,-0.213209,-0.245498,-0.044631,-0.065406,0.007426,-0.091190,0.028994,-0.001229,1.000000,-0.000223,-0.000327,0.000037,-0.055620,-0.694271,0.145980,0.702556,91.348087,73.594943,-96.054493
36477,-9.129830,2.860465,-0.077102,-0.004769,-0.166638,-0.246381,-0.057633,-0.048579,0.006930,-0.091299,0.028601,-0.000801,1.000000,-0.000288,-0.000243,0.000035,-0.055846,-0.694052,0.145846,0.702782,91.208004,73.585869,-96.165116
36478,-9.127491,2.782330,-0.110081,0.043660,-0.095816,-0.270492,-0.068936,-0.029185,0.015628,-0.091277,0.027816,-0.001124,1.000000,-0.000345,-0.000146,0.000078,-0.056158,-0.693891,0.145697,0.702946,91.099118,73.571321,-96.236338
36479,-9.179598,2.758958,-0.150876,0.093204,-0.062104,-0.226912,-0.072153,-0.010067,0.016311,-0.091798,0.027582,-0.001523,1.000000,-0.000361,-0.000050,0.000082,-0.056495,-0.693796,0.145534,0.703047,91.025461,73.556348,-96.269047
36480,-9.253646,2.668035,-0.210095,0.167974,0.040387,-0.181350,-0.049225,0.008992,0.021932,-0.092539,0.026670,-0.002103,1.000000,-0.000246,0.000045,0.000110,-0.056788,-0.693770,0.145467,0.703063,91.002059,73.537723,-96.263161
36481,-9.335531,2.645608,-0.179709,0.143784,0.091691,-0.109358,-0.021890,0.017130,0.021433,-0.093358,0.026446,-0.001792,1.000000,-0.000109,0.000086,0.000107,-0.056989,-0.693781,0.145491,0.703031,91.009843,73.519532,-96.240980
36482,-9.377057,2.681247,-0.190691,0.150633,0.071583,-0.059389,0.009672,0.028048,0.025092,-0.093774,0.026801,-0.001892,1.000000,0.000048,0.000140,0.000125,-0.057097,-0.693836,0.145641,0.702936,91.057186,73.498883,-96.197288
36483,-9.406320,2.683903,-0.119431,0.077580,0.090073,-0.030953,0.047284,0.039888,0.024965,-0.094067,0.026828,-0.001169,1.000000,0.000236,0.000199,0.000125,-0.057087,-0.693944,0.145914,0.702774,91.148294,73.478407,-96.129533
36484,-9.454291,2.739295,-0.097661,0.045638,0.057888,0.030658,0.065999,0.056159,0.026445,-0.094547,0.027381,-0.000941,1.000000,0.000330,0.000281,0.000132,-0.057027,-0.694113,0.146258,0.702541,91.281596,73.456563,-96.029586
36485,-9.435944,2.750224,-0.090715,0.030037,0.047854,0.016138,0.072911,0.071358,0.030987,-0.094364,0.027488,-0.000863,1.000000,0.000365,0.000357,0.000155,-0.056972,-0.694334,0.146632,0.702249,91.447250,73.432121,-95.899364
36486,-9.464787,2.765805,-0.111900,0.041974,0.043747,0.048383,0.074125,0.079506,0.033778,-0.094653,0.027642,-0.001071,1.000000,0.000371,0.000398,0.000169,-0.056933,-0.694583,0.147016,0.701926,91.628812,73.405725,-95.752776
36487,-9.434487,2.786763,-0.125719,0.043836,0.018866,0.025458,0.071900,0.080067,0.034300,-0.094350,0.027852,-0.001209,1.000000,0.000359,0.000400,0.000172,-0.056899,-0.694831,0.147395,0.701603,91.809494,73.379006,-95.606231
36488,-9.397587,2.787774,-0.175897,0.084489,0.006117,-0.009112,0.065991,0.072351,0.028844,-0.093981,0.027865,-0.001716,1.000000,0.000330,0.000362,0.000144,-0.056861,-0.695055,0.147740,0.701312,91.972217,73.355207,-95.475177
36489,-9.325791,2.805061,-0.195302,0.092551,-0.028590,-0.072692,0.067372,0.062100,0.028923,-0.093263,0.028038,-0.001915,1.000000,0.000337,0.000311,0.000145,-0.056812,-0.695243,0.148090,0.701055,92.115343,73.331697,-95.365088
36490,-9.247967,2.790503,-0.163411,0.054425,-0.028535,-0.151698,0.061425,0.056671,0.023803,-0.092483,0.027895,-0.001599,1.000000,0.000307,0.000283,0.000119,-0.056762,-0.695414,0.148406,0.700824,92.244879,73.310883,-95.265746
36491,-9.147002,2.825116,-0.185331,0.063626,-0.089074,-0.238175,0.051911,0.050477,0.025655,-0.091474,0.028240,-0.001823,1.000000,0.000260,0.000252,0.000128,-0.056745,-0.695559,0.148694,0.700620,92.356576,73.289370,-95.179197
36492,-9.064159,2.839604,-0.133857,0.004147,-0.115999,-0.313910,0.032333,0.043606,0.022941,-0.090645,0.028386,-0.001314,1.000000,0.000162,0.000218,0.000115,-0.056789,-0.695676,0.148902,0.700455,92.443786,73.269286,-95.105726
36493,-8.991706,2.795505,-0.116517,-0.012664,-0.089097,-0.396154,0.015746,0.038307,0.022616,-0.089920,0.027945,-0.001146,1.000000,0.000079,0.000192,0.000113,-0.056879,-0.695770,0.149056,0.700322,92.511416,73.249737,-95.043537
36494,-9.061924,2.783008,-0.108915,-0.019351,-0.052529,-0.332586,0.000395,0.034235,0.024055,-0.090623,0.027819,-0.001074,1.000000,0.000002,0.000171,0.000120,-0.057023,-0.695845,0.149167,0.700213,92.562529,73.229164,-94.989875
36495,-9.137744,2.771568,-0.134629,0.007745,-0.019885,-0.262942,-0.014170,0.030022,0.019838,-0.091380,0.027707,-0.001335,1.000000,-0.000071,0.000150,0.000099,-0.057201,-0.695903,0.149209,0.700131,92.597267,73.211387,-94.944126
36496,-9.206561,2.709641,-0.179316,0.061237,0.055726,-0.214343,-0.025619,0.011270,0.015663,-0.092068,0.027089,-0.001791,1.000000,-0.000128,0.000056,0.000078,-0.057395,-0.695896,0.149200,0.700124,92.590155,73.196255,-94.934787
36497,-9.270476,2.676257,-0.204656,0.093387,0.104368,-0.162488,-0.020907,-0.005855,0.004062,-0.092705,0.026760,-0.002052,1.000000,-0.000105,-0.000029,0.000020,-0.057515,-0.695839,0.149174,0.700177,92.554322,73.188433,-94.958718
36498,-9.282419,2.666744,-0.184006,0.076598,0.120161,-0.154096,-0.010437,-0.018209,-0.006123,-0.092823,0.026670,-0.001850,1.000000,-0.000052,-0.000091,-0.000031,-0.057550,-0.695749,0.149158,0.700267,92.502445,73.186496,-95.006461
36499,-9.347325,2.661815,-0.224053,0.121181,0.137992,-0.092903,-0.008099,-0.020986,-0.015196,-0.093471,0.026625,-0.002251,1.000000,-0.000040,-0.000105,-0.000076,-0.057546,-0.695657,0.149114,0.700368,92.446912,73.190061,-95.058639
36500,-9.414791,2.693374,-0.122036,0.020620,0.139484,-0.020468,-0.005499,-0.027682,-0.021232,-0.094145,0.026944,-0.001234,1.000000,-0.000027,-0.000138,-0.000106,-0.057502,-0.695546,0.149068,0.700491,92.381245,73.196999,-95.124037
36501,-9.457121,2.694117,-0.111937,0.015142,0.150254,0.020173,-0.007653,-0.036299,-0.030290,-0.094567,0.026955,-0.001138,1.000000,-0.000038,-0.000181,-0.000151,-0.057433,-0.695412,0.148977,0.700650,92.298019,73.209526,-95.205404
36502,-9.466008,2.728947,-0.000806,-0.095519,0.130928,0.037500,-0.004555,-0.034603,-0.044344,-0.094654,0.027310,-0.000025,1.000000,-0.000023,-0.000173,-0.000222,-0.057309,-0.695295,0.148845,0.700803,92.220679,73.229825,-95.281842
36503,-9.431387,2.722184,-0.038616,-0.054886,0.118088,0.002906,-0.006022,-0.029541,-0.057035,-0.094306,0.027249,-0.000401,1.000000,-0.000030,-0.000148,-0.000285,-0.057146,-0.695205,0.148666,0.700945,92.152872,73.257454,-95.348066
36504,-9.403743,2.734346,-0.040268,-0.053054,0.093203,-0.019979,0.003306,-0.023999,-0.062591,-0.094029,0.027373,-0.000414,1.000000,0.000017,-0.000120,-0.000313,-0.056938,-0.695141,0.148496,0.701061,92.101202,73.287899,-95.402626
36505,-9.369647,2.684148,0.024032,-0.109842,0.133800,-0.067661,0.010338,-0.015624,-0.067298,-0.093687,0.026873,0.000234,1.000000,0.000052,-0.000078,-0.000336,-0.056691,-0.695111,0.148334,0.701144,92.069641,73.321081,-95.440773
36506,-9.353986,2.686286,0.039659,-0.125475,0.123766,-0.082132,0.012027,-0.006058,-0.065324,-0.093531,0.026893,0.000395,1.000000,0.000060,-0.000030,-0.000327,-0.056454,-0.695114,0.148184,0.701192,92.057302,73.352704,-95.459950
36507,-9.356189,2.710870,0.023006,-0.112359,0.093850,-0.072760,0.009382,0.005239,-0.058613,-0.093554,0.027136,0.000234,1.000000,0.000047,0.000026,-0.000293,-0.056257,-0.695151,0.148043,0.701202,92.064391,73.380479,-95.457176
36508,-9.376815,2.746301,0.061051,-0.155496,0.066781,-0.043250,0.011236,0.020085,-0.052258,-0.093761,0.027487,0.000621,1.000000,0.000056,0.000100,-0.000261,-0.056082,-0.695235,0.147933,0.701156,92.101040,73.404005,-95.425635
36509,-9.407923,2.754354,0.045972,-0.143503,0.062716,-0.011001,0.017364,0.033138,-0.042417,-0.094073,0.027563,0.000478,1.000000,0.000087,0.000166,-0.000212,-0.055935,-0.695360,0.147868,0.701057,92.165296,73.421910,-95.367984
36510,-9.438845,2.763026,0.030042,-0.131516,0.058708,0.021247,0.025664,0.033484,-0.038479,-0.094383,0.027648,0.000320,1.000000,0.000128,0.000167,-0.000192,-0.055771,-0.695485,0.147852,0.700950,92.235115,73.437251,-95.310125
36511,-9.505609,2.815966,-0.048887,-0.062013,0.014992,0.101171,0.025871,0.036474,-0.034433,-0.095051,0.028176,-0.000468,1.000000,0.000129,0.000182,-0.000172,-0.055624,-0.695617,0.147843,0.700831,92.310314,73.450469,-95.246153
36512,-9.524420,2.835009,-0.084214,-0.032555,-0.003877,0.125012,0.023592,0.032337,-0.026367,-0.095241,0.028363,-0.000823,1.000000,0.000118,0.000162,-0.000132,-0.055513,-0.695729,0.147857,0.700726,92.375743,73.458909,-95.190890
36513,-9.520231,2.861540,-0.069826,-0.053192,-0.029889,0.128357,0.009073,0.025785,-0.030917,-0.095198,0.028630,-0.000685,1.000000,0.000045,0.000129,-0.000155,-0.055429,-0.695817,0.147805,0.700656,92.420602,73.470331,-95.148533
36514,-9.539659,2.910872,-0.119963,-0.011293,-0.079560,0.161590,0.000561,0.020096,-0.031015,-0.095392,0.029124,-0.001190,1.000000,0.000003,0.000100,-0.000155,-0.055374,-0.695883,0.147724,0.700612,92.449586,73.481678,-95.117278
36515,-9.452431,2.931120,-0.117285,-0.019663,-0.125399,0.083654,-0.011630,0.008412,-0.036749,-0.094519,0.029328,-0.001171,1.000000,-0.000058,0.000042,-0.000184,-0.055329,-0.695909,0.147584,0.700620,92.449613,73.496854,-95.109315
36516,-9.365386,2.950947,-0.113275,-0.028052,-0.171208,0.005728,-0.022084,-0.000617,-0.041522,-0.093648,0.029529,-0.001136,1.000000,-0.000110,-0.000003,-0.000208,-0.055297,-0.695904,0.147396,0.700667,92.426802,73.514729,-95.119225
36517,-9.276530,2.921455,-0.162238,0.023681,-0.178082,-0.087311,-0.033500,-0.014797,-0.045023,-0.092759,0.029235,-0.001634,1.000000,-0.000167,-0.000074,-0.000225,-0.055282,-0.695848,0.147157,0.700774,92.370015,73.535199,-95.157442
36518,-9.183639,2.909067,-0.104363,-0.030931,-0.189245,-0.180657,-0.036942,-0.039191,-0.053345,-0.091828,0.029115,-0.001067,1.000000,-0.000185,-0.000196,-0.000267,-0.055234,-0.695713,0.146885,0.700969,92.264583,73.560783,-95.244189
36519,-9.106932,2.869193,-0.130769,0.003333,-0.181281,-0.265295,-0.046162,-0.044677,-0.056013,-0.091061,0.028717,-0.001335,1.000000,-0.000231,-0.000223,-0.000280,-0.055202,-0.695557,0.146571,0.701192,92.142982,73.588166,-95.342405
36520,-9.029631,2.798745,-0.139661,0.025137,-0.142478,-0.359340,-0.051194,-0.061826,-0.060249,-0.090287,0.028014,-0.001432,1.000000,-0.000256,-0.000309,-0.000301,-0.055158,-0.695342,0.146237,0.701478,91.985404,73.617983,-95.475963
36521,-9.000326,2.762405,-0.191036,0.087037,-0.128485,-0.397320,-0.046511,-0.069738,-0.062285,-0.089994,0.027652,-0.001948,1.000000,-0.000233,-0.000349,-0.000311,-0.055087,-0.695102,0.145908,0.701790,91.814287,73.649286,-95.625547
36522,-9.025236,2.749471,-0.232251,0.137807,-0.120450,-0.376856,-0.039574,-0.075864,-0.064501,-0.090243,0.027523,-0.002362,1.000000,-0.000198,-0.000379,-0.000323,-0.054979,-0.694845,0.145600,0.702118,91.634915,73.681606,-95.788182
36523,-9.011784,2.800944,-0.154937,0.062018,-0.169558,-0.376113,-0.028143,-0.078421,-0.067074,-0.090108,0.028039,-0.001589,1.000000,-0.000141,-0.000392,-0.000335,-0.054822,-0.694583,0.145320,0.702447,91.456309,73.715526,-95.956484
36524,-9.072817,2.789034,-0.154737,0.072917,-0.147693,-0.321032,-0.021198,-0.084537,-0.069297,-0.090718,0.027922,-0.001589,1.000000,-0.000106,-0.000423,-0.000346,-0.054630,-0.694303,0.145059,0.702792,91.269156,73.750433,-96.137640
36525,-9.107619,2.874226,-0.120098,0.037241,-0.221519,-0.264187,-0.034470,-0.085250,-0.071378,-0.091065,0.028775,-0.001245,1.000000,-0.000172,-0.000426,-0.000357,-0.054474,-0.694018,0.144745,0.703150,91.072166,73.786587,-96.321254
36526,-9.174560,2.862941,-0.153604,0.081939,-0.203514,-0.203086,-0.032542,-0.074912,-0.073907,-0.091734,0.028663,-0.001575,1.000000,-0.000163,-0.000375,-0.000370,-0.054315,-0.693772,0.144422,0.703471,90.895921,73.823750,-96.483778
36527,-9.216529,2.797946,-0.106146,0.051647,-0.131056,-0.181264,-0.038356,-0.070485,-0.073951,-0.092155,0.028013,-0.001099,1.000000,-0.000192,-0.000352,-0.000370,-0.054175,-0.693540,0.144081,0.703781,90.724340,73.860935,-96.638552
36528,-9.300923,2.765722,-0.068184,0.027716,-0.079404,-0.109391,-0.040922,-0.063718,-0.076117,-0.092998,0.027692,-0.000717,1.000000,-0.000205,-0.000319,-0.000381,-0.054048,-0.693333,0.143715,0.704070,90.563831,73.899041,-96.779082
36529,-9.350436,2.762521,-0.088473,0.056089,-0.072404,-0.062733,-0.035793,-0.053440,-0.072889,-0.093494,0.027659,-0.000915,1.000000,-0.000179,-0.000267,-0.000364,-0.053914,-0.693160,0.143382,0.704318,90.426137,73.935297,-96.900059
36530,-9.344568,2.693780,-0.016447,-0.001891,-0.005990,-0.087584,-0.032428,-0.043523,-0.070282,-0.093436,0.026971,-0.000189,1.000000,-0.000162,-0.000218,-0.000351,-0.053784,-0.693021,0.143070,0.704529,90.309870,73.969724,-97.001125
36531,-9.398673,2.661802,-0.056773,0.047829,0.027948,-0.044351,-0.025133,-0.029175,-0.066895,-0.093978,0.026649,-0.000585,1.000000,-0.000126,-0.000146,-0.000334,-0.053652,-0.692932,0.142788,0.704683,90.225639,74.002347,-97.072792
36532,-9.423513,2.636213,-0.015987,0.013641,0.058673,-0.027553,-0.009841,-0.012842,-0.062971,-0.094227,0.026392,-0.000167,1.000000,-0.000049,-0.000064,-0.000315,-0.053491,-0.692901,0.142575,0.704769,90.182891,74.032377,-97.110967
36533,-9.406743,2.620985,-0.071453,0.070539,0.056742,-0.047787,0.012783,-0.001305,-0.053882,-0.094060,0.026235,-0.000713,1.000000,0.000064,-0.000007,-0.000269,-0.053294,-0.692911,0.142464,0.704797,90.175712,74.057463,-97.125069
36534,-9.384781,2.623599,-0.023599,0.021094,0.050544,-0.068204,0.034181,0.009013,-0.046557,-0.093842,0.026258,-0.000227,1.000000,0.000171,0.000045,-0.000233,-0.053055,-0.692957,0.142454,0.704771,90.201724,74.078104,-97.117640
36535,-9.361639,2.608889,-0.048375,0.044206,0.052474,-0.094446,0.047110,0.025751,-0.033895,-0.093612,0.026105,-0.000466,1.000000,0.000236,0.000129,-0.000169,-0.052828,-0.693057,0.142527,0.704675,90.268464,74.091679,-97.075325
36536,-9.339156,2.613489,-0.004374,-0.005255,0.046267,-0.114852,0.070610,0.044765,-0.025731,-0.093388,0.026147,-0.000014,1.000000,0.000353,0.000224,-0.000129,-0.052558,-0.693224,0.142712,0.704494,90.387445,74.100270,-96.993524
36537,-9.375470,2.612732,0.029578,-0.044418,0.061036,-0.080217,0.085492,0.067254,-0.016283,-0.093752,0.026135,0.000338,1.000000,0.000427,0.000336,-0.000081,-0.052290,-0.693468,0.142969,0.704222,90.559613,74.103510,-96.864458
36538,-9.439137,2.715072,0.034804,-0.068655,-0.017536,0.008977,0.091108,0.074284,-0.006322,-0.094390,0.027154,0.000395,1.000000,0.000456,0.000371,-0.000032,-0.052045,-0.693730,0.143280,0.703918,90.748985,74.100617,-96.720616
36539,-9.484158,2.808226,-0.016667,-0.036686,-0.098989,0.077940,0.092629,0.073915,-0.001185,-0.094841,0.028083,-0.000119,1.000000,0.000463,0.000370,-0.000006,-0.051810,-0.693988,0.143613,0.703614,90.938227,74.094921,-96.578046
36540,-9.464408,2.894981,0.060877,-0.133772,-0.174954,0.082318,0.080620,0.072080,-0.001830,-0.094644,0.028950,0.000655,1.000000,0.000403,0.000360,-0.000009,-0.051618,-0.694237,0.143900,0.703324,91.116828,74.089334,-96.438745
36541,-9.469409,2.853474,0.121249,-0.196728,-0.124492,0.075311,0.070301,0.077588,-0.009070,-0.094692,0.028539,0.001259,1.000000,0.000352,0.000388,-0.000045,-0.051435,-0.694507,0.144126,0.703024,91.300777,74.087862,-96.288369
36542,-9.419116,2.769692,0.100221,-0.176116,-0.059945,0.003950,0.070120,0.093797,-0.014943,-0.094189,0.027704,0.001056,1.000000,0.000351,0.000469,-0.000075,-0.051242,-0.694837,0.144332,0.702669,91.517834,74.089160,-96.103952
36543,-9.370420,2.564980,0.109480,-0.171507,0.123834,-0.099237,0.097005,0.107808,-0.021818,-0.093701,0.025659,0.001158,1.000000,0.000485,0.000539,-0.000109,-0.050944,-0.695229,0.144600,0.702248,91.778533,74.094176,-95.889682
36544,-9.295013,2.438571,0.079760,-0.140950,0.220126,-0.206339,0.137085,0.122002,-0.030290,-0.092946,0.024399,0.000871,1.000000,0.000685,0.000610,-0.000151,-0.050489,-0.695687,0.144975,0.701750,92.091635,74.103309,-95.644595
36545,-9.238914,2.363613,0.000287,-0.069146,0.265829,-0.280179,0.182986,0.134102,-0.030113,-0.092386,0.023650,0.000086,0.999999,0.000915,0.000671,-0.000151,-0.049881,-0.696198,0.145509,0.701176,92.455529,74.111834,-95.374267
36546,-9.285180,2.484730,-0.077031,-0.024685,0.153634,-0.201749,0.216447,0.145855,-0.017528,-0.092850,0.024856,-0.000676,0.999999,0.001082,0.000729,-0.000088,-0.049151,-0.696736,0.146261,0.700536,92.861462,74.112209,-95.089864
36547,-9.370863,2.688109,-0.077473,-0.067732,-0.014400,-0.063832,0.222975,0.136057,-0.002763,-0.093709,0.026883,-0.000681,0.999999,0.001115,0.000680,-0.000014,-0.048501,-0.697241,0.147030,0.699918,93.249655,74.104016,-94.818094
36548,-9.440086,2.931512,-0.079278,-0.114743,-0.224165,0.069207,0.196326,0.117570,0.003449,-0.094402,0.029314,-0.000709,0.999999,0.000982,0.000588,0.000017,-0.047886,-0.697656,0.147800,0.699384,93.584962,74.092211,-94.596544
36549,-9.511801,3.126221,-0.166352,-0.067815,-0.398907,0.192889,0.126766,0.088570,0.003576,-0.095119,0.031262,-0.001602,1.000000,0.000634,0.000443,0.000018,-0.047558,-0.697966,0.148266,0.698998,93.821268,74.081309,-94.425365
36550,-9.524510,3.146483,-0.173151,-0.072141,-0.413822,0.210793,0.042761,0.048179,-0.009730,-0.095244,0.031470,-0.001702,1.000000,0.000214,0.000241,-0.000049,-0.047390,-0.698112,0.148461,0.698823,93.930144,74.079239,-94.346382
36551,-9.445037,3.080542,-0.189804,-0.050463,-0.375319,0.116617,-0.018012,0.006432,-0.020332,-0.094447,0.030815,-0.001898,1.000000,-0.000090,0.000032,-0.000102,-0.047423,-0.698117,0.148356,0.698837,93.921958,74.085044,-94.343181
36552,-9.350361,2.902583,-0.153030,-0.061138,-0.228551,-0.023833,-0.067451,-0.028591,-0.032161,-0.093499,0.029040,-0.001553,1.000000,-0.000337,-0.000143,-0.000161,-0.047563,-0.697998,0.148049,0.699013,93.816922,74.098705,-94.411430
36553,-9.283796,2.716329,-0.195481,0.012116,-0.078576,-0.138020,-0.096295,-0.058218,-0.035295,-0.092833,0.027179,-0.001995,1.000000,-0.000481,-0.000291,-0.000176,-0.047769,-0.697770,0.147634,0.699314,93.635952,74.115475,-94.541245
36554,-9.231900,2.570185,-0.162715,0.007835,0.047447,-0.228430,-0.095187,-0.076801,-0.035297,-0.092314,0.025717,-0.001675,1.000000,-0.000476,-0.000384,-0.000176,-0.047957,-0.697476,0.147233,0.699678,93.417957,74.132387,-94.710760
36555,-9.171206,2.524023,-0.198164,0.058268,0.066127,-0.298844,-0.077325,-0.096753,-0.035936,-0.091707,0.025256,-0.002036,1.000000,-0.000387,-0.000484,-0.000180,-0.048067,-0.697118,0.146891,0.700099,93.169608,74.150524,-94.921896
36556,-9.136896,2.508207,-0.140882,0.013777,0.075749,-0.337041,-0.043171,-0.104942,-0.038990,-0.091363,0.025100,-0.001462,1.000000,-0.000216,-0.000525,-0.000195,-0.048048,-0.696742,0.146655,0.700524,92.923786,74.170183,-95.149688
36557,-9.157420,2.556070,-0.178898,0.055716,0.026097,-0.303742,-0.004572,-0.107217,-0.042102,-0.091568,0.025580,-0.001839,1.000000,-0.000023,-0.000536,-0.000211,-0.047875,-0.696369,0.146549,0.700930,92.695531,74.191654,-95.383223
36558,-9.103215,2.649028,-0.210808,0.083341,-0.086463,-0.330289,0.027242,-0.122482,-0.049364,-0.091024,0.026513,-0.002160,1.000000,0.000136,-0.000612,-0.000247,-0.047555,-0.695955,0.146534,0.701365,92.454853,74.217241,-95.648680
36559,-9.086435,2.622984,-0.169131,0.055201,-0.065851,-0.354117,0.057769,-0.124474,-0.052753,-0.090856,0.026254,-0.001740,1.000000,0.000289,-0.000622,-0.000264,-0.047115,-0.695543,0.146614,0.701787,92.226850,74.244691,-95.919011
36560,-9.111324,2.598734,-0.120990,0.021047,-0.035104,-0.337320,0.083589,-0.128435,-0.059166,-0.091105,0.026015,-0.001258,1.000000,0.000418,-0.000642,-0.000296,-0.046557,-0.695127,0.146769,0.702204,92.005634,74.275331,-96.198462
36561,-9.160471,2.585573,-0.051345,-0.035462,-0.005348,-0.294245,0.095498,-0.127167,-0.053984,-0.091597,0.025881,-0.000559,1.000000,0.000477,-0.000636,-0.000270,-0.045979,-0.694715,0.146977,0.702606,91.792090,74.302970,-96.476152
36562,-9.176736,2.511201,-0.024192,-0.043295,0.068166,-0.298873,0.110529,-0.111971,-0.057560,-0.091760,0.025139,-0.000279,1.000000,0.000553,-0.000560,-0.000288,-0.045345,-0.694361,0.147227,0.702945,91.617969,74.331914,-96.722486
36563,-9.235187,2.578540,0.045050,-0.113658,0.024391,-0.224880,0.114952,-0.079279,-0.054912,-0.092345,0.025811,0.000429,1.000000,0.000575,-0.000396,-0.000275,-0.044732,-0.694121,0.147489,0.703166,91.511917,74.358897,-96.900042
36564,-9.286541,2.625979,0.074813,-0.145272,-0.007360,-0.162815,0.103649,-0.047026,-0.053846,-0.092859,0.026284,0.000740,1.000000,0.000518,-0.000235,-0.000269,-0.044185,-0.693991,0.147710,0.703282,91.465354,74.384593,-97.009356
36565,-9.382182,2.735940,0.075691,-0.157951,-0.090564,-0.041132,0.061891,-0.017448,-0.049954,-0.093815,0.027383,0.000757,1.000000,0.000309,-0.000087,-0.000250,-0.043818,-0.693953,0.147789,0.703326,91.454691,74.407746,-97.056264
36566,-9.532418,2.868566,0.084776,-0.181561,-0.179435,0.139081,0.017036,0.005178,-0.052776,-0.095317,0.028711,0.000853,1.000000,0.000085,0.000026,-0.000264,-0.043613,-0.693986,0.147700,0.703325,91.465215,74.431915,-97.055076
36567,-9.600057,2.886979,0.026072,-0.124189,-0.191998,0.209494,-0.047421,0.008334,-0.055277,-0.095993,0.028896,0.000258,1.000000,-0.000237,0.000042,-0.000276,-0.043626,-0.694018,0.147370,0.703362,91.445092,74.457740,-97.046780
36568,-9.606095,2.851917,0.009998,-0.102109,-0.164136,0.205956,-0.083381,0.008445,-0.057358,-0.096053,0.028547,0.000092,1.000000,-0.000417,0.000042,-0.000287,-0.043761,-0.694044,0.146906,0.703425,91.404648,74.484511,-97.037873
36569,-9.648420,2.719161,-0.105622,0.034179,-0.048424,0.211957,-0.120154,0.013347,-0.061369,-0.096476,0.027221,-0.001066,1.000000,-0.000601,0.000067,-0.000307,-0.044009,-0.694082,0.146298,0.703498,91.353416,74.513759,-97.018617
36570,-9.647522,2.554456,-0.211527,0.163965,0.087986,0.167795,-0.125710,0.013807,-0.058388,-0.096468,0.025571,-0.002125,1.000000,-0.000629,0.000069,-0.000292,-0.044281,-0.694117,0.145691,0.703573,91.300354,74.540978,-96.999328
36571,-9.684837,2.441738,-0.223214,0.193917,0.199455,0.173833,-0.108934,0.017768,-0.046534,-0.096843,0.024439,-0.002237,1.000000,-0.000545,0.000089,-0.000233,-0.044545,-0.694162,0.145173,0.703619,91.263910,74.561680,-96.971403
36572,-9.757738,2.342106,-0.281852,0.269109,0.302315,0.217992,-0.082817,0.012867,-0.037701,-0.097573,0.023438,-0.002822,1.000000,-0.000414,0.000064,-0.000189,-0.044750,-0.694189,0.144778,0.703661,91.231830,74.577140,-96.954204
36573,-9.781523,2.330598,-0.330065,0.320020,0.310428,0.238185,-0.048082,0.006868,-0.029795,-0.097812,0.023320,-0.003303,1.000000,-0.000240,0.000034,-0.000149,-0.044854,-0.694196,0.144534,0.703697,91.206846,74.588395,-96.950563
36574,-9.737691,2.385729,-0.335569,0.317820,0.243594,0.210615,-0.011430,-0.013225,-0.026914,-0.097373,0.023870,-0.003363,1.000000,-0.000057,-0.000066,-0.000135,-0.044832,-0.694139,0.144433,0.703776,91.160744,74.597928,-96.990138
36575,-9.649458,2.389364,-0.401691,0.381641,0.205424,0.126860,0.032588,-0.021096,-0.029289,-0.096491,0.023908,-0.004023,1.000000,0.000163,-0.000105,-0.000146,-0.044638,-0.694066,0.144482,0.703850,91.123739,74.609214,-97.046908
36576,-9.528122,2.430412,-0.367624,0.340109,0.137051,0.020557,0.082081,-0.039374,-0.023205,-0.095278,0.024317,-0.003685,1.000000,0.000410,-0.000197,-0.000116,-0.044277,-0.693934,0.144735,0.703950,91.077125,74.616934,-97.143783
36577,-9.400958,2.471052,-0.299989,0.264775,0.072478,-0.091641,0.118288,-0.036365,-0.025317,-0.094006,0.024724,-0.003002,1.000000,0.000591,-0.000182,-0.000127,-0.043789,-0.693823,0.145102,0.704015,91.057146,74.626088,-97.233816
36578,-9.269364,2.541776,-0.215848,0.168057,-0.018989,-0.200210,0.135855,-0.042445,-0.015888,-0.092691,0.025427,-0.002161,1.000000,0.000679,-0.000212,-0.000079,-0.043264,-0.693687,0.145572,0.704084,91.034824,74.629743,-97.337640
36579,-9.161955,2.624272,-0.110610,0.049009,-0.111403,-0.282438,0.141488,-0.032922,-0.013882,-0.091618,0.026250,-0.001103,1.000000,0.000707,-0.000165,-0.000069,-0.042737,-0.693585,0.146059,0.704117,91.034808,74.632297,-97.420751
36580,-9.093231,2.659530,-0.053443,-0.015938,-0.154754,-0.339641,0.129536,-0.012087,-0.008758,-0.090931,0.026600,-0.000523,1.000000,0.000648,-0.000060,-0.000044,-0.042277,-0.693548,0.146530,0.704083,91.071995,74.631449,-97.459837
36581,-9.109226,2.729032,-0.000519,-0.080274,-0.208578,-0.306076,0.108461,0.010719,-0.009806,-0.091091,0.027295,0.000014,1.000000,0.000542,0.000054,-0.000049,-0.041912,-0.693588,0.146906,0.703987,91.143858,74.631212,-97.448778
36582,-9.082384,2.776671,-0.026547,-0.066160,-0.264435,-0.319216,0.079910,0.028236,-0.012839,-0.090822,0.027773,-0.000242,1.000000,0.000400,0.000141,-0.000064,-0.041644,-0.693686,0.147173,0.703851,91.236581,74.632300,-97.399937
36583,-9.171800,2.779720,-0.051044,-0.043528,-0.247071,-0.232060,0.056637,0.034668,-0.011083,-0.091717,0.027802,-0.000487,1.000000,0.000283,0.000173,-0.000055,-0.041471,-0.693800,0.147357,0.703710,91.328723,74.632478,-97.337053
36584,-9.192196,2.819478,-0.017041,-0.086524,-0.273936,-0.202085,0.038445,0.041560,-0.011178,-0.091920,0.028200,-0.000146,1.000000,0.000192,0.000208,-0.000056,-0.041363,-0.693935,0.147481,0.703557,91.425313,74.632351,-97.259470
36585,-9.238612,2.800537,-0.119112,0.014588,-0.258637,-0.161675,0.021469,0.042116,-0.014169,-0.092384,0.028012,-0.001169,1.000000,0.000107,0.000211,-0.000071,-0.041307,-0.694070,0.147529,0.703417,91.512998,74.634134,-97.180311
36586,-9.250338,2.789978,-0.103906,-0.002095,-0.242796,-0.153258,0.004432,0.040324,-0.009258,-0.092502,0.027904,-0.001020,1.000000,0.000022,0.000202,-0.000046,-0.041331,-0.694193,0.147531,0.703294,91.586936,74.632963,-97.104577
36587,-9.267765,2.779998,-0.121968,0.015017,-0.230838,-0.138949,-0.020916,0.038023,-0.008266,-0.092677,0.027804,-0.001205,1.000000,-0.000105,0.000190,-0.000041,-0.041440,-0.694301,0.147452,0.703198,91.641471,74.631378,-97.034612
36588,-9.254982,2.758709,-0.126907,0.020633,-0.214101,-0.156860,-0.043470,0.036675,-0.008608,-0.092549,0.027591,-0.001258,1.000000,-0.000217,0.000183,-0.000043,-0.041622,-0.694400,0.147297,0.703122,91.680805,74.629797,-96.967659
36589,-9.265154,2.728572,-0.180062,0.076479,-0.190186,-0.154603,-0.063835,0.039450,-0.008837,-0.092651,0.027289,-0.001791,1.000000,-0.000319,0.000197,-0.000044,-0.041879,-0.694504,0.147064,0.703052,91.713735,74.628488,-96.894596
36590,-9.292516,2.679131,-0.160178,0.063728,-0.132510,-0.141460,-0.069569,0.036873,-0.009880,-0.092924,0.026795,-0.001594,1.000000,-0.000348,0.000184,-0.000049,-0.042151,-0.694599,0.146809,0.702995,91.738476,74.627707,-96.826612
36591,-9.316806,2.579885,-0.194338,0.111065,-0.036004,-0.144036,-0.060468,0.047150,-0.006645,-0.093168,0.025801,-0.001929,1.000000,-0.000302,0.000236,-0.000033,-0.042410,-0.694730,0.146594,0.702896,91.789215,74.624984,-96.737079
36592,-9.405864,2.583697,-0.216835,0.133739,-0.018521,-0.056942,-0.048810,0.035506,-0.002242,-0.094059,0.025837,-0.002158,1.000000,-0.000244,0.000178,-0.000011,-0.042631,-0.694818,0.146443,0.702826,91.822750,74.619772,-96.673111
36593,-9.442946,2.505509,-0.248761,0.176156,0.062184,-0.041618,-0.023830,0.031775,-0.003019,-0.094429,0.025056,-0.002476,1.000000,-0.000119,0.000159,-0.000015,-0.042763,-0.694900,0.146373,0.702752,91.862169,74.615223,-96.617087
36594,-9.458601,2.466258,-0.248715,0.180803,0.104941,-0.036915,0.008166,0.017339,0.001627,-0.094586,0.024662,-0.002478,1.000000,0.000041,0.000087,0.000008,-0.042791,-0.694934,0.146435,0.702704,91.889932,74.608131,-96.592255
36595,-9.500153,2.468378,-0.243601,0.175619,0.116062,0.003668,0.045131,0.007973,0.005076,-0.095002,0.024682,-0.002427,1.000000,0.000226,0.000040,0.000025,-0.042695,-0.694941,0.146640,0.702660,91.918738,74.599384,-96.588219
36596,-9.554630,2.491283,-0.235999,0.165519,0.111421,0.062196,0.069930,-0.001098,0.008191,-0.095547,0.024910,-0.002352,1.000000,0.000350,-0.000005,0.000041,-0.042523,-0.694919,0.146942,0.702629,91.942712,74.588837,-96.603270
36597,-9.523004,2.570348,-0.242012,0.158327,0.028651,0.052756,0.093476,-0.009111,0.009871,-0.095231,0.025700,-0.002412,1.000000,0.000467,-0.000046,0.000049,-0.042263,-0.694872,0.147337,0.702608,91.963371,74.577677,-96.636417
36598,-9.497258,2.639383,-0.194469,0.099899,-0.035285,0.045854,0.100378,-0.015818,0.004017,-0.094973,0.026393,-0.001939,1.000000,0.000502,-0.000079,0.000020,-0.041944,-0.694806,0.147750,0.702606,91.975564,74.569815,-96.684304
36599,-9.416983,2.685597,-0.156184,0.052315,-0.093698,-0.019584,0.090227,-0.012090,0.000098,-0.094170,0.026857,-0.001555,1.000000,0.000451,-0.000060,0.000000,-0.041659,-0.694755,0.148100,0.702599,91.988898,74.564314,-96.723121
36600,-9.348253,2.722245,-0.098382,-0.012677,-0.137132,-0.076612,0.065857,-0.011525,-0.000576,-0.093482,0.027223,-0.000980,1.000000,0.000329,-0.000058,-0.000003,-0.041455,-0.694701,0.148367,0.702609,91.989944,74.558946,-96.760757
36601,-9.285199,2.759227,-0.074564,-0.043855,-0.184475,-0.127758,0.037088,0.000617,0.000194,-0.092852,0.027592,-0.000740,1.000000,0.000185,0.000003,0.000001,-0.041364,-0.694683,0.148529,0.702597,91.999187,74.553139,-96.772235
36602,-9.222089,2.796405,-0.051012,-0.075049,-0.231796,-0.178891,0.003206,0.012279,0.002797,-0.092221,0.027963,-0.000504,1.000000,0.000016,0.000061,0.000014,-0.041411,-0.694698,0.148579,0.702570,92.013268,74.545424,-96.758565
36603,-9.223239,2.707021,-0.035196,-0.077942,-0.142543,-0.201707,-0.026061,0.022983,0.004381,-0.092233,0.027068,-0.000345,1.000000,-0.000130,0.000115,0.000022,-0.041571,-0.694742,0.148528,0.702527,92.032331,74.536770,-96.722315
36604,-9.283436,2.730114,-0.061487,-0.054224,-0.151006,-0.137267,-0.050153,0.031865,0.003817,-0.092835,0.027299,-0.000607,1.000000,-0.000251,0.000159,0.000019,-0.041818,-0.694813,0.148393,0.702471,92.056310,74.528000,-96.667023
36605,-9.333394,2.672900,-0.090045,-0.016704,-0.086084,-0.104080,-0.068221,0.034154,0.003052,-0.093335,0.026727,-0.000894,1.000000,-0.000341,0.000171,0.000015,-0.042129,-0.694889,0.148188,0.702421,92.074355,74.519867,-96.606762
36606,-9.358858,2.604550,-0.140708,0.043101,-0.020272,-0.097265,-0.065103,0.043454,0.001848,-0.093589,0.026044,-0.001395,1.000000,-0.000326,0.000217,0.000009,-0.042429,-0.694999,0.147992,0.702335,92.113753,74.511932,-96.526761
36607,-9.383251,2.615926,-0.121008,0.021521,-0.020215,-0.070909,-0.061809,0.033609,0.002659,-0.093833,0.026158,-0.001202,1.000000,-0.000309,0.000168,0.000013,-0.042715,-0.695074,0.147807,0.702282,92.134284,74.504020,-96.467727
36608,-9.425827,2.538555,-0.186116,0.097730,0.056686,-0.049883,-0.048213,0.027692,0.003819,-0.094259,0.025383,-0.001854,1.000000,-0.000241,0.000138,0.000019,-0.042947,-0.695130,0.147685,0.702238,92.151161,74.495403,-96.421822
36609,-9.406764,2.528330,-0.243333,0.154532,0.054552,-0.070407,-0.032442,0.025889,0.005100,-0.094069,0.025281,-0.002425,1.000000,-0.000162,0.000129,0.000026,-0.043134,-0.695183,0.147613,0.702190,92.172314,74.486249,-96.379600
36610,-9.388008,2.507917,-0.213165,0.126351,0.075114,-0.094242,-0.015522,0.020043,0.003807,-0.093881,0.025077,-0.002124,1.000000,-0.000078,0.000100,0.000019,-0.043262,-0.695221,0.147593,0.702149,92.190899,74.477730,-96.348965
36611,-9.412374,2.519430,-0.193167,0.104777,0.075183,-0.067895,0.001995,0.018618,0.005715,-0.094125,0.025192,-0.001923,1.000000,0.000010,0.000093,0.000029,-0.043326,-0.695255,0.147646,0.702100,92.216677,74.468376,-96.322417
36612,-9.389476,2.528634,-0.146372,0.055215,0.068861,-0.087983,0.023889,0.017841,0.003226,-0.093895,0.025285,-0.001452,1.000000,0.000119,0.000089,0.000016,-0.043300,-0.695292,0.147776,0.702037,92.254221,74.460211,-96.297659
36613,-9.360677,2.547460,-0.153535,0.056859,0.043682,-0.110612,0.035240,0.022340,0.001640,-0.093607,0.025474,-0.001520,1.000000,0.000176,0.000112,0.000008,-0.043237,-0.695350,0.147931,0.701952,92.306968,74.453096,-96.262886
36614,-9.356418,2.577304,-0.139618,0.036219,0.017739,-0.106869,0.049192,0.022449,0.002620,-0.093565,0.025772,-0.001379,1.000000,0.000246,0.000112,0.000013,-0.043128,-0.695409,0.148143,0.701855,92.368110,74.445096,-96.228155
36615,-9.363706,2.597775,-0.106633,-0.001786,0.006705,-0.094728,0.056841,0.020837,0.003675,-0.093638,0.025976,-0.001049,1.000000,0.000284,0.000104,0.000018,-0.042996,-0.695464,0.148381,0.701758,92.429882,74.436833,-96.196860
36616,-9.312157,2.625612,-0.065973,-0.050422,-0.025695,-0.137396,0.056737,0.025451,0.004302,-0.093122,0.026254,-0.000640,1.000000,0.000284,0.000127,0.000022,-0.042865,-0.695534,0.148629,0.701644,92.501604,74.427806,-96.156292
36617,-9.342160,2.637275,-0.082136,-0.038174,-0.029464,-0.105185,0.053294,0.022382,0.002741,-0.093422,0.026372,-0.000804,1.000000,0.000266,0.000112,0.000014,-0.042743,-0.695595,0.148851,0.701544,92.564495,74.420019,-96.121723
36618,-9.336494,2.637324,-0.051418,-0.071317,-0.024664,-0.111009,0.044134,0.022011,0.004447,-0.093366,0.026371,-0.000498,1.000000,0.000221,0.000110,0.000022,-0.042647,-0.695649,0.149062,0.701451,92.622099,74.410911,-96.089359
36619,-9.296096,2.665646,-0.078450,-0.052314,-0.064825,-0.141995,0.031166,0.024768,0.001824,-0.092961,0.026656,-0.000769,1.000000,0.000156,0.000124,0.000009,-0.042601,-0.695714,0.149203,0.701360,92.677201,74.403567,-96.049712
36620,-9.290515,2.665487,-0.047386,-0.085427,-0.060051,-0.147811,0.017703,0.026090,0.000017,-0.092905,0.026655,-0.000459,1.000000,0.000089,0.000130,0.000000,-0.042598,-0.695781,0.149292,0.701274,92.727614,74.396961,-96.006872
36621,-9.261798,2.684053,-0.054577,-0.083799,-0.085254,-0.170399,-0.000320,0.026069,-0.001097,-0.092618,0.026841,-0.000534,1.000000,-0.000002,0.000130,-0.000005,-0.042651,-0.695846,0.149312,0.701203,92.767547,74.391234,-95.964239
36622,-9.260455,2.653905,-0.040241,-0.095594,-0.053605,-0.179991,-0.017593,0.038126,-0.002605,-0.092604,0.026540,-0.000387,1.000000,-0.000088,0.000191,-0.000013,-0.042766,-0.695950,0.149270,0.701101,92.822911,74.385797,-95.896099
36623,-9.254979,2.653532,-0.008804,-0.128707,-0.048879,-0.185798,-0.035325,0.034200,-0.000646,-0.092550,0.026536,-0.000077,1.000000,-0.000177,0.000171,-0.000003,-0.042949,-0.696035,0.149167,0.701027,92.859323,74.379562,-95.836296
36624,-9.304294,2.605949,-0.125640,-0.006164,-0.006519,-0.149533,-0.050861,0.034402,0.001430,-0.093043,0.026059,-0.001247,1.000000,-0.000254,0.000172,0.000007,-0.043190,-0.696116,0.149024,0.700963,92.887562,74.371849,-95.776677
36625,-9.268701,2.594318,-0.081108,-0.050839,0.002841,-0.187549,-0.042450,0.037267,-0.002525,-0.092687,0.025944,-0.000799,1.000000,-0.000212,0.000186,-0.000013,-0.043393,-0.696212,0.148889,0.700884,92.926283,74.366582,-95.710233
36626,-9.261178,2.574004,-0.119778,-0.011432,0.015664,-0.199734,-0.038151,0.035573,0.000989,-0.092612,0.025739,-0.001186,1.000000,-0.000191,0.000178,0.000005,-0.043598,-0.696300,0.148780,0.700807,92.963554,74.359120,-95.647234
36627,-9.289846,2.555466,-0.117971,-0.011647,0.042642,-0.177149,-0.015024,0.036063,0.000303,-0.092899,0.025554,-0.001165,1.000000,-0.000075,0.000180,0.000002,-0.043716,-0.696396,0.148751,0.700711,93.015142,74.352245,-95.583742
36628,-9.301440,2.546038,-0.101826,-0.028333,0.058538,-0.168765,-0.000522,0.035304,0.000183,-0.093015,0.025460,-0.001002,1.000000,-0.000003,0.000177,0.000001,-0.043778,-0.696491,0.148779,0.700606,93.074031,74.345210,-95.522085
36629,-9.302720,2.576092,-0.122571,-0.015151,0.028700,-0.159149,0.021995,0.038966,0.000947,-0.093028,0.025761,-0.001205,1.000000,0.000110,0.000195,0.000005,-0.043771,-0.696604,0.148881,0.700472,93.152572,74.337839,-95.452625
36630,-9.356081,2.568407,-0.100892,-0.037604,0.054954,-0.110176,0.030517,0.037219,-0.003625,-0.093561,0.025686,-0.000988,1.000000,0.000153,0.000186,-0.000018,-0.043719,-0.696717,0.148998,0.700338,93.233013,74.332896,-95.386094
36631,-9.334957,2.607029,-0.073909,-0.074690,0.017834,-0.120547,0.058813,0.043493,-0.001781,-0.093349,0.026071,-0.000711,1.000000,0.000294,0.000217,-0.000009,-0.043577,-0.696856,0.149219,0.700162,93.342066,74.326881,-95.306850
36632,-9.315759,2.595693,-0.135565,-0.017930,0.015688,-0.141142,0.059989,0.054030,-0.006992,-0.093157,0.025961,-0.001323,1.000000,0.000300,0.000270,-0.000035,-0.043423,-0.697036,0.149425,0.699948,93.473969,74.323181,-95.204457
36633,-9.199801,2.519587,-0.109387,-0.042216,0.061871,-0.273766,0.077331,0.068820,-0.011057,-0.091997,0.025201,-0.001052,1.000000,0.000387,0.000344,-0.000055,-0.043204,-0.697274,0.149673,0.699672,93.646271,74.321467,-95.070538
36634,-9.179308,2.477640,-0.157630,0.002050,0.090404,-0.304005,0.092226,0.098649,-0.009059,-0.091793,0.024781,-0.001520,1.000000,0.000461,0.000493,-0.000045,-0.042966,-0.697619,0.149970,0.699279,93.887515,74.317206,-94.873189
36635,-9.217346,2.428640,-0.217015,0.056996,0.140422,-0.279489,0.101052,0.125168,-0.003622,-0.092174,0.024289,-0.002100,1.000000,0.000505,0.000626,-0.000018,-0.042732,-0.698053,0.150314,0.698785,94.186875,74.308669,-94.621407
36636,-9.228831,2.458431,-0.317689,0.137800,0.102922,-0.258289,0.124553,0.146365,0.001111,-0.092291,0.024586,-0.003094,1.000000,0.000623,0.000732,0.000006,-0.042447,-0.698563,0.150756,0.698198,94.542143,74.295966,-94.325910
36637,-9.268452,2.550016,-0.346284,0.136369,0.025879,-0.194610,0.148480,0.159080,0.008325,-0.092688,0.025499,-0.003370,0.999999,0.000742,0.000795,0.000042,-0.042114,-0.699116,0.151300,0.697547,94.934687,74.278169,-94.005523
36638,-9.305423,2.582211,-0.342580,0.109977,0.010299,-0.150191,0.162298,0.175528,0.011541,-0.093059,0.025819,-0.003323,0.999999,0.000811,0.000878,0.000058,-0.041698,-0.699712,0.151962,0.696830,95.367025,74.256793,-93.661851
36639,-9.391972,2.637433,-0.298388,0.039133,-0.006786,-0.052943,0.172391,0.185876,0.017399,-0.093925,0.026369,-0.002874,0.999999,0.000862,0.000929,0.000087,-0.041333,-0.700354,0.152616,0.696063,95.823763,74.231029,-93.288930
36640,-9.409107,2.739693,-0.282997,-0.012574,-0.091068,-0.009177,0.160541,0.187006,0.020657,-0.094096,0.027389,-0.002720,0.999999,0.000803,0.000935,0.000103,-0.040969,-0.700982,0.153295,0.695303,96.273762,74.202417,-92.924923
36641,-9.487442,2.694463,-0.345493,0.036672,-0.030630,0.055885,0.147270,0.188444,0.018745,-0.094880,0.026938,-0.003346,0.999999,0.000736,0.000942,0.000094,-0.040699,-0.701625,0.153865,0.694544,96.718157,74.174132,-92.549769
36642,-9.503145,2.686286,-0.381960,0.053844,-0.018566,0.070050,0.137642,0.183719,0.017202,-0.095037,0.026857,-0.003714,0.999999,0.000688,0.000919,0.000086,-0.040391,-0.702236,0.154462,0.693812,97.146947,74.146067,-92.195610
36643,-9.464009,2.655196,-0.425482,0.081661,-0.001221,0.025599,0.137233,0.179379,0.014043,-0.094646,0.026548,-0.004152,0.999999,0.000686,0.000897,0.000070,-0.040133,-0.702847,0.154982,0.693091,97.565820,74.119586,-91.840907
36644,-9.433124,2.644483,-0.432729,0.070738,0.004271,-0.006601,0.144259,0.177351,0.008936,-0.094336,0.026444,-0.004225,0.999999,0.000721,0.000887,0.000045,-0.039761,-0.703442,0.155582,0.692375,97.985751,74.095257,-91.500962
36645,-9.363294,2.571701,-0.444992,0.074473,0.056888,-0.092908,0.153080,0.183424,0.009058,-0.093638,0.025716,-0.004344,0.999999,0.000765,0.000917,0.000045,-0.039433,-0.704072,0.156138,0.691628,98.420633,74.069843,-91.138966
36646,-9.312876,2.578378,-0.526057,0.132073,0.028502,-0.136111,0.166951,0.199287,0.008592,-0.093135,0.025784,-0.005146,0.999999,0.000835,0.000996,0.000043,-0.039004,-0.704745,0.156805,0.690815,98.894185,74.042285,-90.755772
36647,-9.316131,2.577794,-0.583704,0.166609,0.025510,-0.130354,0.182240,0.207193,0.008730,-0.093168,0.025779,-0.005717,0.999999,0.000911,0.001036,0.000044,-0.038591,-0.705461,0.157456,0.689959,99.390096,74.013269,-90.347576
36648,-9.310091,2.578243,-0.573856,0.133503,0.030250,-0.136135,0.206697,0.208625,0.014665,-0.093109,0.025781,-0.005615,0.999999,0.001033,0.001043,0.000073,-0.038056,-0.706168,0.158271,0.689078,99.899262,73.979644,-89.949712
36649,-9.312546,2.600520,-0.528849,0.061705,0.023156,-0.129635,0.235569,0.201482,0.023371,-0.093134,0.026000,-0.005164,0.999999,0.001178,0.001007,0.000117,-0.037500,-0.706860,0.159158,0.688195,100.405802,73.940971,-89.562111
36650,-9.366485,2.653758,-0.565008,0.064304,-0.011927,-0.061360,0.249568,0.195877,0.024888,-0.093674,0.026533,-0.005525,0.999999,0.001248,0.000979,0.000124,-0.036841,-0.707519,0.160158,0.687320,100.906480,73.900884,-89.198239
36651,-9.331540,2.673786,-0.559290,0.032048,-0.033325,-0.089654,0.254220,0.184446,0.023713,-0.093324,0.026734,-0.005473,0.999999,0.001271,0.000922,0.000119,-0.036207,-0.708152,0.161113,0.686478,101.386138,73.862054,-88.849590
36652,-9.346730,2.688152,-0.494082,-0.057088,-0.025340,-0.074737,0.251283,0.175324,0.025015,-0.093475,0.026876,-0.004825,0.999999,0.001256,0.000877,0.000125,-0.035520,-0.708736,0.162128,0.685672,101.844179,73.822519,-88.531921
36653,-9.283839,2.756217,-0.508373,-0.076064,-0.103613,-0.115869,0.238216,0.162772,0.021290,-0.092845,0.027558,-0.004975,0.999999,0.001191,0.000814,0.000106,-0.034917,-0.709291,0.163022,0.684917,102.270001,73.786107,-88.229648
36654,-9.273569,2.735297,-0.564735,-0.036696,-0.090862,-0.128152,0.219792,0.156686,0.020104,-0.092743,0.027350,-0.005545,0.999999,0.001099,0.000783,0.000101,-0.034302,-0.709806,0.163925,0.684199,102.673147,73.750155,-87.951722
36655,-9.206141,2.774686,-0.524466,-0.101966,-0.134540,-0.184684,0.197004,0.156837,0.015810,-0.092068,0.027745,-0.005145,0.999999,0.000985,0.000784,0.000079,-0.033821,-0.710335,0.164659,0.683497,103.063258,73.716372,-87.661942
36656,-9.221282,2.765589,-0.559363,-0.084762,-0.122508,-0.170531,0.163740,0.163759,0.019415,-0.092220,0.027651,-0.005495,0.999999,0.000819,0.000819,0.000097,-0.033421,-0.710864,0.165350,0.682799,103.444450,73.678987,-87.370963
36657,-9.227190,2.734981,-0.629370,-0.028837,-0.098714,-0.168692,0.152178,0.170954,0.022154,-0.092280,0.027344,-0.006194,0.999999,0.000761,0.000855,0.000111,-0.033133,-0.711427,0.165951,0.682081,103.829854,73.638678,-87.059213
36658,-9.300312,2.718797,-0.675122,-0.000790,-0.065065,-0.099851,0.142287,0.177785,0.021850,-0.093012,0.027183,-0.006649,0.999999,0.000711,0.000889,0.000109,-0.032829,-0.711996,0.166577,0.681349,104.220700,73.596743,-86.745353
36659,-9.344739,2.750079,-0.743311,0.040525,-0.088339,-0.043854,0.140196,0.171383,0.021512,-0.093457,0.027496,-0.007334,0.999999,0.000701,0.000857,0.000108,-0.032582,-0.712557,0.167134,0.680637,104.596897,73.555551,-86.435913
36660,-9.377363,2.755881,-0.689505,-0.032096,-0.069145,-0.014759,0.145738,0.157962,0.018266,-0.093782,0.027555,-0.006801,0.999999,0.000729,0.000790,0.000091,-0.032230,-0.713060,0.167769,0.679971,104.951478,73.517303,-86.163110
36661,-9.384685,2.749576,-0.654351,-0.082486,-0.049336,-0.012106,0.134232,0.148742,0.019132,-0.093854,0.027491,-0.006455,0.999999,0.000671,0.000744,0.000096,-0.031977,-0.713543,0.168301,0.679344,105.279969,73.479734,-85.899737
36662,-9.403354,2.738827,-0.720882,-0.031409,-0.041175,0.007761,0.123620,0.138426,0.010690,-0.094040,0.027388,-0.007127,1.000000,0.000618,0.000692,0.000053,-0.031667,-0.713981,0.168832,0.678767,105.586044,73.447674,-85.663255
36663,-9.473067,2.723170,-0.728573,-0.037119,-0.003633,0.070838,0.107322,0.132451,0.012653,-0.094737,0.027230,-0.007208,1.000000,0.000537,0.000662,0.000063,-0.031474,-0.714409,0.169252,0.678221,105.869858,73.415411,-85.430317
36664,-9.478546,2.662215,-0.774772,0.006397,0.050907,0.062932,0.094961,0.122455,0.007223,-0.094791,0.026622,-0.007677,1.000000,0.000475,0.000612,0.000036,-0.031296,-0.714804,0.169618,0.677721,106.130335,73.387148,-85.215068
36665,-9.435490,2.659592,-0.792526,0.012807,0.041276,0.022358,0.096241,0.108972,0.003781,-0.094360,0.026598,-0.007861,1.000000,0.000481,0.000545,0.000019,-0.031092,-0.715157,0.169972,0.677269,106.367516,73.362928,-85.024104
36666,-9.409123,2.675522,-0.843193,0.048161,0.012118,0.005587,0.096166,0.102711,-0.004090,-0.094095,0.026761,-0.008371,1.000000,0.000481,0.000514,-0.000020,-0.030856,-0.715495,0.170305,0.676839,106.596775,73.343452,-84.841973
36667,-9.324418,2.669270,-0.863559,0.060213,-0.008040,-0.075552,0.090793,0.100642,-0.009780,-0.093247,0.026701,-0.008577,1.000000,0.000454,0.000503,-0.000049,-0.030619,-0.715830,0.170593,0.676423,106.821912,73.327607,-84.660283
36668,-9.298289,2.683980,-0.913287,0.095561,-0.037249,-0.092323,0.091360,0.096620,-0.014799,-0.092985,0.026851,-0.009076,1.000000,0.000457,0.000483,-0.000074,-0.030363,-0.716155,0.170865,0.676021,107.042353,73.314836,-84.483499
36669,-9.255849,2.679094,-0.928843,0.101947,-0.046913,-0.132893,0.096633,0.096352,-0.020148,-0.092560,0.026805,-0.009231,1.000000,0.000483,0.000482,-0.000101,-0.030066,-0.716485,0.171136,0.675617,107.268145,73.304987,-84.304593
36670,-9.210151,2.675349,-0.910172,0.074500,-0.052625,-0.179180,0.100120,0.097998,-0.025917,-0.092102,0.026770,-0.009043,1.000000,0.000501,0.000490,-0.000130,-0.029739,-0.716825,0.171402,0.675203,107.501950,73.297496,-84.119661
36671,-9.184177,2.659469,-0.940991,0.097401,-0.051162,-0.205647,0.100128,0.094883,-0.029843,-0.091842,0.026613,-0.009353,1.000000,0.000501,0.000474,-0.000149,-0.029396,-0.717158,0.171650,0.674801,107.732244,73.292782,-83.938132
36672,-9.164636,2.667428,-0.902649,0.047767,-0.057516,-0.225461,0.107876,0.090270,-0.032403,-0.091646,0.026694,-0.008971,1.000000,0.000539,0.000451,-0.000162,-0.029011,-0.717478,0.171921,0.674409,107.960191,73.289828,-83.764228
36673,-9.109627,2.611065,-0.899232,0.046561,-0.020833,-0.293813,0.111875,0.094891,-0.042447,-0.091095,0.026135,-0.008934,1.000000,0.000559,0.000474,-0.000212,-0.028583,-0.717822,0.172164,0.673998,108.204514,73.291554,-83.575075
36674,-9.090645,2.646797,-0.880286,0.009390,-0.057896,-0.303912,0.116620,0.097906,-0.046452,-0.090905,0.026494,-0.008743,1.000000,0.000583,0.000490,-0.000232,-0.028133,-0.718181,0.172406,0.673573,108.458927,73.294375,-83.377609
36675,-9.139497,2.639928,-0.957411,0.072145,-0.054332,-0.251930,0.119006,0.103749,-0.049807,-0.091393,0.026428,-0.009511,1.000000,0.000595,0.000519,-0.000249,-0.027663,-0.718562,0.172645,0.673125,108.727954,73.297995,-83.166935
36676,-9.204909,2.708533,-0.950604,0.036163,-0.101022,-0.171182,0.113744,0.100129,-0.052070,-0.092047,0.027115,-0.009445,1.000000,0.000569,0.000501,-0.000260,-0.027204,-0.718932,0.172858,0.672694,108.988469,73.302972,-82.961668
36677,-9.276631,2.715255,-0.974121,0.042957,-0.094135,-0.098435,0.105465,0.094687,-0.056770,-0.092763,0.027184,-0.009683,1.000000,0.000527,0.000473,-0.000284,-0.026751,-0.719285,0.173027,0.672291,109.237976,73.311512,-82.763285
36678,-9.281273,2.793041,-0.920522,-0.037739,-0.158626,-0.078014,0.097177,0.089231,-0.061472,-0.092808,0.027963,-0.009150,1.000000,0.000486,0.000446,-0.000307,-0.026315,-0.719625,0.173146,0.671914,109.475654,73.323307,-82.571147
36679,-9.317367,2.764064,-0.995768,0.029906,-0.139374,-0.044136,0.085426,0.077454,-0.060885,-0.093169,0.027673,-0.009910,1.000000,0.000427,0.000387,-0.000304,-0.025905,-0.719921,0.173235,0.671590,109.685753,73.336912,-82.401938
36680,-9.334493,2.746874,-1.020022,0.047159,-0.127374,-0.030047,0.059751,0.071236,-0.072989,-0.093339,0.027506,-0.010159,1.000000,0.000299,0.000356,-0.000365,-0.025539,-0.720204,0.173197,0.671310,109.878810,73.358088,-82.235483
36681,-9.306706,2.729148,-1.012356,0.036226,-0.122025,-0.062216,0.048538,0.063226,-0.073012,-0.093060,0.027328,-0.010088,1.000000,0.000243,0.000316,-0.000365,-0.025209,-0.720458,0.173120,0.671070,110.050772,73.380681,-82.084054
36682,-9.326670,2.623308,-1.011574,0.050057,-0.021755,-0.071599,0.037305,0.059921,-0.072567,-0.093260,0.026269,-0.010083,1.000000,0.000187,0.000300,-0.000363,-0.024927,-0.720699,0.173002,0.670852,110.209660,73.403314,-81.938320
36683,-9.347032,2.632701,-1.086639,0.113618,-0.044357,-0.042118,0.026698,0.056530,-0.069524,-0.093464,0.026361,-0.010836,1.000000,0.000133,0.000283,-0.000348,-0.024682,-0.720924,0.172866,0.670654,110.355533,73.425122,-81.801091
36684,-9.387310,2.630363,-1.054813,0.074923,-0.028982,-0.007252,0.030374,0.055946,-0.064715,-0.093868,0.026336,-0.010518,1.000000,0.000152,0.000280,-0.000324,-0.024436,-0.721143,0.172765,0.670453,110.499817,73.444078,-81.668452
36685,-9.443536,2.617917,-1.038083,0.052794,-0.002487,0.041686,0.041776,0.046002,-0.062873,-0.094430,0.026211,-0.010354,1.000000,0.000209,0.000230,-0.000314,-0.024150,-0.721329,0.172705,0.670279,110.631509,73.464243,-81.555057
36686,-9.423328,2.712788,-1.016665,0.006684,-0.097032,0.045430,0.046724,0.038186,-0.053560,-0.094228,0.027155,-0.010142,1.000000,0.000234,0.000191,-0.000268,-0.023872,-0.721481,0.172697,0.670128,110.745482,73.480601,-81.463053
36687,-9.437471,2.699163,-1.001653,-0.009845,-0.081108,0.053820,0.045059,0.019698,-0.052428,-0.094369,0.027019,-0.010001,1.000000,0.000225,0.000098,-0.000262,-0.023586,-0.721570,0.172688,0.670044,110.824866,73.500395,-81.406199
36688,-9.420038,2.735308,-0.973591,-0.047042,-0.118172,0.043819,0.035071,0.009111,-0.047492,-0.094194,0.027377,-0.009727,1.000000,0.000175,0.000046,-0.000237,-0.023341,-0.721618,0.172670,0.670006,110.876463,73.519465,-81.372963
36689,-9.424001,2.699637,-0.989969,-0.024893,-0.090514,0.039777,0.013672,0.002910,-0.048553,-0.094234,0.027020,-0.009896,1.000000,0.000068,0.000015,-0.000243,-0.023166,-0.721643,0.172572,0.670010,110.905049,73.540585,-81.350338
36690,-9.417692,2.641468,-1.039224,0.035911,-0.051027,0.023286,0.006641,-0.009054,-0.045085,-0.094170,0.026436,-0.010396,1.000000,0.000033,-0.000045,-0.000225,-0.023014,-0.721623,0.172476,0.670061,110.905617,73.561709,-81.354073
36691,-9.402544,2.590493,-0.984666,-0.004767,0.000065,-0.010237,0.004369,-0.011642,-0.037799,-0.094020,0.025923,-0.009852,1.000000,0.000022,-0.000058,-0.000189,-0.022897,-0.721590,0.172387,0.670124,110.895072,73.580046,-81.366693
36692,-9.416524,2.579085,-0.964654,-0.021281,0.016034,-0.001854,0.002085,-0.011873,-0.030281,-0.094161,0.025805,-0.009652,1.000000,0.000010,-0.000059,-0.000151,-0.022817,-0.721549,0.172316,0.670189,110.877164,73.594152,-81.385084
36693,-9.472608,2.599304,-0.960009,-0.030930,0.011869,0.056821,0.000497,-0.018424,-0.017179,-0.094723,0.026001,-0.009609,1.000000,0.000002,-0.000092,-0.000086,-0.022777,-0.721475,0.172289,0.670278,110.837706,73.602830,-81.425529
36694,-9.402255,2.614465,-0.965038,-0.023859,-0.024091,-0.006161,0.002376,-0.026564,-0.013748,-0.094019,0.026151,-0.009663,1.000000,0.000012,-0.000133,-0.000069,-0.022740,-0.721371,0.172279,0.670393,110.781714,73.611159,-81.483557
36695,-9.342078,2.653004,-0.935510,-0.055482,-0.071815,-0.056675,0.010873,-0.031104,-0.002837,-0.093419,0.026532,-0.009368,1.000000,0.000054,-0.000156,-0.000014,-0.022700,-0.721242,0.172340,0.670517,110.715105,73.614704,-81.558496
36696,-9.336506,2.657381,-0.863827,-0.122396,-0.063132,-0.067984,0.000860,-0.036994,0.002571,-0.093364,0.026573,-0.008655,1.000000,0.000004,-0.000185,0.000013,-0.022712,-0.721089,0.172387,0.670670,110.628115,73.616343,-81.648330
36697,-9.378969,2.688790,-0.876149,-0.114753,-0.082354,-0.017671,-0.011539,-0.032157,0.012980,-0.093790,0.026881,-0.008778,1.000000,-0.000058,-0.000161,0.000065,-0.022804,-0.720941,0.172430,0.670815,110.535871,73.611554,-81.736604
36698,-9.349470,2.651441,-0.837724,-0.138172,-0.046295,-0.059571,-0.013821,-0.040303,0.016127,-0.093495,0.026506,-0.008398,1.000000,-0.000069,-0.000202,0.000081,-0.022909,-0.720762,0.172482,0.670990,110.425204,73.606305,-81.843021
36699,-9.298266,2.657923,-0.734290,-0.233380,-0.044371,-0.117067,0.000546,-0.041322,0.021104,-0.092984,0.026569,-0.007362,1.000000,0.000003,-0.000207,0.000106,-0.022977,-0.720577,0.172597,0.671156,110.317771,73.598890,-81.954351
36700,-9.173739,2.566001,-0.718632,-0.219494,0.012783,-0.262297,0.007701,-0.026839,0.028661,-0.091740,0.025647,-0.007198,1.000000,0.000039,-0.000134,0.000143,-0.023061,-0.720436,0.172758,0.671263,110.235649,73.584307,-82.043101
36701,-9.191237,2.499557,-0.728752,-0.193256,0.082277,-0.262108,0.011415,-0.002854,0.050265,-0.091919,0.024973,-0.007287,1.000000,0.000057,-0.000014,0.000251,-0.023222,-0.720357,0.173010,0.671278,110.185309,73.553510,-82.101418
36702,-9.269539,2.452618,-0.806335,-0.109710,0.139030,-0.191955,0.013791,0.019610,0.059310,-0.092703,0.024499,-0.008053,1.000000,0.000069,0.000098,0.000297,-0.023424,-0.720345,0.173300,0.671209,110.171306,73.513209,-82.123313
36703,-9.374384,2.504964,-0.924173,-0.010898,0.103156,-0.066034,0.024603,0.025587,0.067298,-0.093753,0.025019,-0.009227,1.000000,0.000123,0.000128,0.000336,-0.023618,-0.720348,0.173654,0.671108,110.169131,73.467620,-82.139301
36704,-9.441208,2.611865,-0.962665,-0.000442,0.022073,0.030304,0.037825,0.026398,0.074429,-0.094423,0.026085,-0.009609,1.000000,0.000189,0.000132,0.000372,-0.023788,-0.720348,0.174080,0.670991,110.171644,73.417906,-82.158701
36705,-9.475948,2.768982,-0.989549,-0.010634,-0.112063,0.108370,0.023723,0.019027,0.083009,-0.094772,0.027652,-0.009883,1.000000,0.000119,0.000095,0.000415,-0.024033,-0.720315,0.174488,0.670912,110.146861,73.365162,-82.197762
36706,-9.454928,2.846481,-0.980003,-0.035349,-0.179837,0.108247,0.013656,0.004419,0.080378,-0.094561,0.028427,-0.009796,1.000000,0.000068,0.000022,0.000402,-0.024298,-0.720234,0.174850,0.670895,110.091580,73.316599,-82.261825
36707,-9.531006,2.891417,-0.923679,-0.100858,-0.180545,0.187852,-0.008962,-0.003123,0.077587,-0.095321,0.028877,-0.009240,1.000000,-0.000045,-0.000016,0.000388,-0.024623,-0.720127,0.175132,0.670925,110.012458,73.271104,-82.338087
36708,-9.463517,2.824306,-0.940711,-0.063557,-0.132286,0.106902,-0.034653,-0.008615,0.069142,-0.094645,0.028209,-0.009416,1.000000,-0.000173,-0.000043,0.000346,-0.025005,-0.720005,0.175302,0.670997,109.914838,73.230881,-82.418879
36709,-9.441342,2.727949,-0.968461,-0.010381,-0.046643,0.062346,-0.050790,-0.010359,0.063254,-0.094422,0.027247,-0.009696,1.000000,-0.000254,-0.000052,0.000316,-0.025426,-0.719880,0.175393,0.671091,109.808948,73.194446,-82.498102
36710,-9.387458,2.680770,-0.984418,0.022104,-0.014004,-0.000486,-0.054293,-0.012768,0.065342,-0.093883,0.026774,-0.009857,1.000000,-0.000271,-0.000064,0.000327,-0.025866,-0.719745,0.175482,0.671196,109.695569,73.156960,-82.583204
36711,-9.433747,2.627987,-1.008783,0.060126,0.051096,0.031768,-0.046505,-0.009478,0.067220,-0.094346,0.026246,-0.010098,1.000000,-0.000233,-0.000047,0.000336,-0.026286,-0.719620,0.175601,0.671283,109.591997,73.118128,-82.662600
36712,-9.418981,2.614378,-1.006342,0.065697,0.067587,0.013604,-0.035059,-0.016236,0.072974,-0.094199,0.026108,-0.010076,1.000000,-0.000175,-0.000081,0.000365,-0.026678,-0.719469,0.175781,0.671382,109.479756,73.077226,-82.757970
36713,-9.478433,2.640084,-1.069082,0.123824,0.055733,0.083536,-0.014817,-0.023259,0.071088,-0.094792,0.026366,-0.010704,1.000000,-0.000074,-0.000116,0.000355,-0.026985,-0.719298,0.176021,0.671490,109.368344,73.038842,-82.864576
36714,-9.392827,2.699302,-1.111692,0.160508,-0.026070,0.021988,-0.014338,-0.028209,0.062420,-0.093935,0.026963,-0.011132,1.000000,-0.000072,-0.000141,0.000312,-0.027258,-0.719118,0.176237,0.671615,109.253993,73.005626,-82.974758
36715,-9.352619,2.700268,-1.146214,0.200607,-0.039800,-0.012948,-0.014507,-0.035449,0.050917,-0.093531,0.026978,-0.011481,1.000000,-0.000073,-0.000177,0.000255,-0.027484,-0.718924,0.176408,0.671769,109.134534,72.980328,-83.090001
36716,-9.251577,2.681475,-1.115238,0.183319,-0.040793,-0.117820,-0.020009,-0.033769,0.041988,-0.092520,0.026794,-0.011171,1.000000,-0.000100,-0.000169,0.000210,-0.027705,-0.718743,0.176529,0.671922,109.020520,72.959187,-83.196244
36717,-9.182735,2.699365,-1.153231,0.224086,-0.080827,-0.175136,-0.042636,-0.027072,0.040611,-0.091831,0.026973,-0.011550,1.000000,-0.000213,-0.000135,0.000203,-0.028005,-0.718582,0.176568,0.672071,108.906639,72.937778,-83.288823
36718,-9.098018,2.669600,-1.137200,0.223346,-0.070687,-0.266011,-0.048718,-0.036261,0.031591,-0.090982,0.026679,-0.011395,1.000000,-0.000244,-0.000181,0.000158,-0.028292,-0.718398,0.176553,0.672260,108.778725,72.922784,-83.392130
36719,-8.994316,2.651386,-1.071726,0.172167,-0.067882,-0.376485,-0.041074,-0.025261,0.027043,-0.089945,0.026499,-0.010734,1.000000,-0.000205,-0.000126,0.000135,-0.028543,-0.718255,0.176547,0.672403,108.677525,72.908293,-83.472394
36720,-8.974793,2.666043,-1.018927,0.122455,-0.074326,-0.396086,-0.043637,-0.020242,0.017110,-0.089749,0.026651,-0.010204,1.000000,-0.000218,-0.000101,0.000086,-0.028775,-0.718138,0.176498,0.672531,108.589891,72.898023,-83.537098
36721,-8.964756,2.616280,-1.031164,0.149369,-0.031143,-0.418445,-0.040750,-0.020104,0.012186,-0.089648,0.026155,-0.010326,1.000000,-0.000204,-0.000101,0.000061,-0.028979,-0.718026,0.176440,0.672657,108.507026,72.890588,-83.598382
36722,-8.909672,2.623074,-1.051245,0.172803,-0.056109,-0.467374,-0.042098,-0.013718,0.004014,-0.089097,0.026227,-0.010524,1.000000,-0.000210,-0.000069,0.000020,-0.029164,-0.717942,0.176351,0.672762,108.439966,72.886240,-83.642924
36723,-8.909847,2.594597,-1.030065,0.161063,-0.024619,-0.477174,-0.039928,-0.009632,-0.006719,-0.089097,0.025947,-0.010310,1.000000,-0.000200,-0.000048,-0.000034,-0.029312,-0.717882,0.176225,0.672853,108.387259,72.887145,-83.673148
36724,-9.003668,2.506591,-1.066883,0.214962,0.078000,-0.408700,-0.034101,-0.006165,-0.012650,-0.090035,0.025070,-0.010676,1.000000,-0.000171,-0.000031,-0.000063,-0.029415,-0.717839,0.176106,0.672925,108.348321,72.890425,-83.693663
36725,-9.020264,2.495445,-1.080394,0.232275,0.090022,-0.394747,-0.033592,-0.014988,-0.018124,-0.090200,0.024961,-0.010815,1.000000,-0.000168,-0.000075,-0.000091,-0.029497,-0.717772,0.175961,0.673032,108.296436,72.898484,-83.726825
36726,-9.092075,2.506829,-1.090093,0.239327,0.097260,-0.322083,-0.025398,-0.011986,-0.024457,-0.090917,0.025078,-0.010910,1.000000,-0.000127,-0.000060,-0.000122,-0.029530,-0.717720,0.175827,0.673120,108.258206,72.909076,-83.751064
36727,-9.070574,2.547464,-1.023420,0.168230,0.064005,-0.337463,-0.007660,-0.017086,-0.029434,-0.090701,0.025488,-0.010243,1.000000,-0.000038,-0.000085,-0.000147,-0.029478,-0.717660,0.175729,0.673212,108.223984,72.923651,-83.781288
