// General information: 
//  MT Manager version: 2022.0.0 
//  XDA version: 2022.0.0 build 7085 rev 119802 built on 2022-11-08
// Device information: 
//  DeviceId: 00B472EC
//  ProductCode: MTW2-3A7G6
//  Firmware Version: 4.4.0
//  Hardware Version: 2.0.0
// Device settings: 
//  Filter Profile: human(46.1)
//  Option Flags: Orientation Smoother Disabled, Position/Velocity Smoother Disabled, Continuous Zero Rotation Update Disabled, AHS Disabled, ICC Disabled
// Coordinate system: ENU
PacketCounter,Acc_X,Acc_Y,Acc_Z,FreeAcc_E,FreeAcc_N,FreeAcc_U,Gyr_X,Gyr_Y,Gyr_Z,VelInc_X,VelInc_Y,VelInc_Z,OriInc_q0,OriInc_q1,OriInc_q2,OriInc_q3,Quat_q0,Quat_q1,Quat_q2,Quat_q3,Roll,Pitch,Yaw
36189,-9.497517,1.785090,-0.702365,0.048525,0.001675,-0.123501,0.004865,0.057625,0.120924,-0.094988,0.017794,-0.006996,1.000000,0.000024,0.000288,0.000605,-0.144185,0.672601,-0.286316,-0.666965,110.086650,78.454729,-105.545400
36190,-9.482921,1.790358,-0.687877,0.035867,0.016432,-0.137835,0.004131,0.064622,0.117539,-0.094842,0.017848,-0.006848,1.000000,0.000021,0.000323,0.000588,-0.143679,0.672611,-0.286800,-0.666856,110.118799,78.373764,-105.514002
36191,-9.503546,1.787710,-0.626137,-0.009132,0.071745,-0.122481,0.011642,0.065310,0.122381,-0.095048,0.017819,-0.006229,1.000000,0.000058,0.000327,0.000612,-0.143182,0.672610,-0.287324,-0.666738,110.151435,78.290324,-105.486435
36192,-9.535680,1.829286,-0.602993,-0.047531,0.072021,-0.084809,-0.000748,0.063651,0.116840,-0.095369,0.018237,-0.006000,1.000000,-0.000004,0.000318,0.000584,-0.142663,0.672620,-0.287789,-0.666639,110.178077,78.209920,-105.457787
36193,-9.525809,1.819577,-0.619626,-0.026270,0.081545,-0.095256,-0.005020,0.066298,0.115089,-0.095271,0.018141,-0.006165,1.000000,-0.000025,0.000331,0.000575,-0.142133,0.672644,-0.288233,-0.666536,110.209824,78.130211,-105.421358
36194,-9.527978,1.815650,-0.656335,0.008755,0.076933,-0.091385,-0.016271,0.059927,0.109989,-0.095292,0.018104,-0.006536,1.000000,-0.000081,0.000300,0.000550,-0.141590,0.672663,-0.288619,-0.666465,110.223783,78.054222,-105.396565
36195,-9.544847,1.853007,-0.671732,0.003502,0.054269,-0.066612,-0.022418,0.062409,0.107019,-0.095460,0.018478,-0.006690,1.000000,-0.000112,0.000312,0.000535,-0.141034,0.672697,-0.288975,-0.666394,110.242474,77.979616,-105.363249
36196,-9.577964,1.855227,-0.629449,-0.027712,0.095457,-0.036923,-0.016231,0.055450,0.099304,-0.095791,0.018504,-0.006269,1.000000,-0.000081,0.000277,0.000497,-0.140533,0.672716,-0.289323,-0.666331,110.254604,77.910257,-105.340338
36197,-9.619672,1.865628,-0.666574,0.001757,0.085334,0.008498,-0.024273,0.048346,0.093295,-0.096207,0.018611,-0.006645,1.000000,-0.000121,0.000242,0.000466,-0.140036,0.672724,-0.289616,-0.666299,110.249263,77.845811,-105.330539
36198,-9.640356,1.898858,-0.621094,-0.050379,0.099813,0.031874,-0.016779,0.047388,0.089702,-0.096414,0.018945,-0.006190,1.000000,-0.000084,0.000237,0.000449,-0.139577,0.672729,-0.289924,-0.666257,110.249577,77.783212,-105.319384
36199,-9.673943,1.899710,-0.577439,-0.081568,0.140960,0.061571,-0.028029,0.041060,0.084595,-0.096749,0.018955,-0.005757,1.000000,-0.000140,0.000205,0.000423,-0.139108,0.672728,-0.290170,-0.666249,110.231926,77.724906,-105.319928
36200,-9.621105,1.886066,-0.558072,-0.088667,0.161180,0.005689,-0.028038,0.026316,0.084979,-0.096220,0.018819,-0.005571,1.000000,-0.000140,0.000132,0.000425,-0.138657,0.672677,-0.290410,-0.666289,110.178237,77.669018,-105.357438
36201,-9.533953,1.841140,-0.566932,-0.056306,0.181617,-0.087909,-0.026790,0.019649,0.070355,-0.095347,0.018377,-0.005662,1.000000,-0.000134,0.000098,0.000352,-0.138270,0.672624,-0.290597,-0.666342,110.121927,77.622591,-105.398298
36202,-9.513459,1.821096,-0.558500,-0.048845,0.205366,-0.112705,-0.023279,0.021480,0.073138,-0.095142,0.018176,-0.005577,1.000000,-0.000116,0.000107,0.000366,-0.137881,0.672571,-0.290809,-0.666383,110.070516,77.574011,-105.436281
36203,-9.496560,1.824464,-0.599362,-0.014624,0.182982,-0.125642,-0.022984,0.022465,0.068370,-0.094972,0.018211,-0.005985,1.000000,-0.000115,0.000112,0.000342,-0.137510,0.672528,-0.291005,-0.666419,110.025772,77.528090,-105.467578
36204,-9.505959,1.875263,-0.639312,-0.006886,0.128480,-0.103309,-0.032753,0.016539,0.062982,-0.095066,0.018722,-0.006388,1.000000,-0.000164,0.000083,0.000315,-0.137130,0.672479,-0.291147,-0.666484,109.966570,77.485932,-105.507995
36205,-9.506953,1.804905,-0.604186,0.008536,0.210793,-0.119372,-0.026362,0.020309,0.058963,-0.095075,0.018020,-0.006035,1.000000,-0.000132,0.000102,0.000295,-0.136782,0.672444,-0.291298,-0.666525,109.923463,77.445490,-105.535621
36206,-9.472767,1.853176,-0.611700,-0.012116,0.166920,-0.142437,-0.017460,0.020918,0.048859,-0.094733,0.018508,-0.006109,1.000000,-0.000087,0.000105,0.000244,-0.136495,0.672420,-0.291447,-0.666543,109.896497,77.410073,-105.551999
36207,-9.464632,1.836959,-0.623202,0.009119,0.176431,-0.152933,-0.042475,0.011519,0.044718,-0.094651,0.018347,-0.006230,1.000000,-0.000212,0.000058,0.000224,-0.136152,0.672387,-0.291491,-0.666627,109.835834,77.379019,-105.588193
36208,-9.467341,1.726639,-0.569508,0.031677,0.299687,-0.177059,-0.016358,0.014569,0.040848,-0.094677,0.017247,-0.005690,1.000000,-0.000082,0.000073,0.000204,-0.135905,0.672353,-0.291612,-0.666659,109.801512,77.349148,-105.612760
36209,-9.526861,1.835196,-0.649476,0.040559,0.184627,-0.090799,0.003750,0.012034,0.034034,-0.095272,0.018336,-0.006489,1.000000,0.000019,0.000060,0.000170,-0.135752,0.672306,-0.291774,-0.666666,109.778049,77.323756,-105.637896
36210,-9.487132,1.822242,-0.648489,0.047174,0.190638,-0.132387,-0.028948,0.007629,0.029396,-0.094874,0.018208,-0.006484,1.000000,-0.000145,0.000038,0.000147,-0.135511,0.672274,-0.291810,-0.666732,109.729990,77.301398,-105.669155
36211,-9.508908,1.763712,-0.713325,0.137073,0.207512,-0.118514,-0.005883,0.011141,0.019829,-0.095091,0.017627,-0.007128,1.000000,-0.000029,0.000056,0.000099,-0.135375,0.672251,-0.291891,-0.666747,109.711371,77.283846,-105.683722
36212,-9.556065,1.875637,-0.681815,0.051364,0.148963,-0.051722,0.001403,0.004774,0.010374,-0.095562,0.018751,-0.006816,1.000000,0.000007,0.000024,0.000052,-0.135303,0.672216,-0.291962,-0.666766,109.690332,77.272294,-105.705114
36213,-9.534502,1.813749,-0.713722,0.112843,0.176450,-0.083250,-0.011744,0.003663,0.001824,-0.095345,0.018136,-0.007137,1.000000,-0.000059,0.000018,0.000009,-0.135218,0.672199,-0.291958,-0.666802,109.665985,77.265906,-105.722111
36214,-9.539188,1.798849,-0.744926,0.147876,0.171846,-0.079472,0.003588,0.002734,-0.010064,-0.095391,0.017993,-0.007448,1.000000,0.000018,0.000014,-0.000050,-0.135225,0.672186,-0.291967,-0.666810,109.658818,77.265772,-105.730565
36215,-9.533525,1.850361,-0.732358,0.107919,0.136651,-0.075236,0.007736,0.001243,-0.014577,-0.095334,0.018511,-0.007322,1.000000,0.000039,0.000006,-0.000073,-0.135264,0.672171,-0.291971,-0.666816,109.653773,77.268692,-105.739202
36216,-9.475934,1.804973,-0.720900,0.120819,0.165804,-0.141655,0.014699,-0.002408,-0.029934,-0.094757,0.018064,-0.007209,1.000000,0.000073,-0.000012,-0.000150,-0.135381,0.672162,-0.291946,-0.666811,109.657639,77.280270,-105.742873
36217,-9.506379,1.846856,-0.660863,0.048601,0.171260,-0.107680,0.036448,-0.003279,-0.035170,-0.095060,0.018486,-0.006607,1.000000,0.000182,-0.000016,-0.000176,-0.135592,0.672143,-0.291974,-0.666776,109.675880,77.295171,-105.744549
36218,-9.473986,1.885980,-0.666923,0.027916,0.127374,-0.130688,0.022207,-0.004978,-0.041953,-0.094736,0.018880,-0.006669,1.000000,0.000111,-0.000025,-0.000210,-0.135779,0.672138,-0.291932,-0.666761,109.688202,77.313729,-105.743960
36219,-9.474873,1.881633,-0.666598,0.029027,0.127889,-0.130698,0.013685,-0.009008,-0.047268,-0.094744,0.018839,-0.006669,1.000000,0.000068,-0.000045,-0.000236,-0.135962,0.672133,-0.291839,-0.666770,109.689945,77.336253,-105.749141
36220,-9.464114,1.870322,-0.645722,0.016319,0.142626,-0.145014,0.017264,-0.006282,-0.057339,-0.094636,0.018731,-0.006459,1.000000,0.000086,-0.000031,-0.000287,-0.136185,0.672149,-0.291729,-0.666756,109.709568,77.363363,-105.738166
36221,-9.443960,1.914059,-0.671813,0.009440,0.084511,-0.153697,0.012173,-0.005680,-0.057665,-0.094434,0.019168,-0.006720,1.000000,0.000061,-0.000028,-0.000288,-0.136393,0.672171,-0.291598,-0.666749,109.727542,77.390857,-105.725868
36222,-9.450865,1.855576,-0.684105,0.051609,0.120791,-0.158012,0.012103,-0.009793,-0.061711,-0.094503,0.018585,-0.006845,1.000000,0.000061,-0.000049,-0.000309,-0.136618,0.672185,-0.291453,-0.666751,109.739641,77.421002,-105.719575
36223,-9.470067,1.914541,-0.711644,0.039280,0.057265,-0.125105,0.020066,-0.008459,-0.068199,-0.094694,0.019178,-0.007119,1.000000,0.000100,-0.000042,-0.000341,-0.136892,0.672208,-0.291311,-0.666734,109.764686,77.454744,-105.704558
36224,-9.487002,1.911259,-0.671765,0.007307,0.080759,-0.112130,0.011938,-0.012716,-0.072020,-0.094863,0.019147,-0.006723,1.000000,0.000060,-0.000064,-0.000360,-0.137155,0.672228,-0.291129,-0.666740,109.778714,77.491012,-105.696194
36225,-9.491989,1.927968,-0.719983,0.035207,0.035204,-0.100282,0.008482,-0.010449,-0.070776,-0.094913,0.019314,-0.007204,1.000000,0.000042,-0.000052,-0.000354,-0.137401,0.672255,-0.290938,-0.666745,109.794700,77.526519,-105.683719
36226,-9.528065,1.951439,-0.689986,-0.003045,0.035559,-0.062460,-0.001641,-0.006758,-0.075836,-0.095273,0.019550,-0.006903,1.000000,-0.000008,-0.000034,-0.000379,-0.137623,0.672310,-0.290702,-0.666747,109.818993,77.563688,-105.656878
36227,-9.546095,1.909427,-0.631890,-0.027868,0.099883,-0.057567,0.006895,-0.009632,-0.076771,-0.095453,0.019131,-0.006323,1.000000,0.000034,-0.000048,-0.000384,-0.137883,0.672350,-0.290486,-0.666747,109.841632,77.602270,-105.636685
36228,-9.551290,1.925375,-0.680021,0.000038,0.054395,-0.045719,0.022337,-0.017045,-0.080209,-0.095505,0.019293,-0.006806,1.000000,0.000112,-0.000085,-0.000401,-0.138215,0.672359,-0.290308,-0.666746,109.858576,77.643792,-105.631440
36229,-9.535655,1.964283,-0.645287,-0.053738,0.033360,-0.055663,0.008826,-0.021718,-0.079587,-0.095348,0.019681,-0.006462,1.000000,0.000044,-0.000109,-0.000398,-0.138507,0.672362,-0.290081,-0.666782,109.855217,77.686248,-105.638947
36230,-9.487180,1.922838,-0.711767,0.019786,0.011219,-0.106504,0.009063,-0.023235,-0.079944,-0.094863,0.019267,-0.007128,1.000000,0.000045,-0.000116,-0.000400,-0.138803,0.672360,-0.289855,-0.666821,109.849053,77.728831,-105.649571
36231,-9.528125,1.930761,-0.711579,0.015486,0.006341,-0.064915,0.012866,-0.020406,-0.081925,-0.095273,0.019347,-0.007124,1.000000,0.000064,-0.000102,-0.000410,-0.139115,0.672367,-0.289634,-0.666845,109.853327,77.772302,-105.651645
36232,-9.463208,1.897847,-0.726838,0.041235,0.003527,-0.133809,0.010930,-0.023082,-0.078738,-0.094624,0.019016,-0.007278,1.000000,0.000055,-0.000115,-0.000394,-0.139412,0.672362,-0.289418,-0.666882,109.847447,77.814206,-105.663068
36233,-9.479512,1.932177,-0.704025,0.002150,-0.013916,-0.112692,0.022199,-0.022059,-0.071423,-0.094787,0.019356,-0.007049,1.000000,0.000111,-0.000110,-0.000357,-0.139723,0.672341,-0.289263,-0.666905,109.843285,77.852300,-105.679241
36234,-9.437240,1.924429,-0.669626,-0.025282,-0.002787,-0.158016,0.014781,-0.023947,-0.070048,-0.094365,0.019278,-0.006706,1.000000,0.000074,-0.000120,-0.000350,-0.140006,0.672318,-0.289088,-0.666944,109.829459,77.889688,-105.701047
36235,-9.450598,1.923993,-0.688293,-0.010343,-0.016431,-0.143721,0.019922,-0.020417,-0.065693,-0.094499,0.019272,-0.006891,1.000000,0.000100,-0.000102,-0.000328,-0.140288,0.672296,-0.288946,-0.666969,109.822938,77.924385,-105.718385
36236,-9.431964,1.929130,-0.695224,-0.010113,-0.033615,-0.160455,0.011274,-0.014767,-0.062564,-0.094313,0.019321,-0.006958,1.000000,0.000056,-0.000074,-0.000313,-0.140521,0.672295,-0.288792,-0.666988,109.823288,77.955954,-105.723633
36237,-9.393950,1.907668,-0.692568,-0.003630,-0.027732,-0.202049,0.015866,-0.012334,-0.061552,-0.093933,0.019106,-0.006930,1.000000,0.000079,-0.000062,-0.000308,-0.140764,0.672296,-0.288656,-0.666994,109.830978,77.986827,-105.724113
36238,-9.449270,1.959101,-0.672696,-0.048091,-0.050482,-0.139300,0.019429,-0.006359,-0.054723,-0.094487,0.019618,-0.006728,1.000000,0.000097,-0.000032,-0.000274,-0.140986,0.672306,-0.288561,-0.666978,109.850165,78.012536,-105.714879
36239,-9.430980,1.927256,-0.662417,-0.040739,-0.026851,-0.164158,0.016175,-0.008103,-0.049404,-0.094305,0.019296,-0.006626,1.000000,0.000081,-0.000041,-0.000247,-0.141183,0.672304,-0.288469,-0.666978,109.857752,78.036074,-105.715517
36240,-9.458776,1.970128,-0.661417,-0.065973,-0.058377,-0.128703,0.020180,-0.009261,-0.047318,-0.094583,0.019724,-0.006617,1.000000,0.000101,-0.000046,-0.000237,-0.141386,0.672293,-0.288399,-0.666976,109.863253,78.058356,-105.720714
36241,-9.456143,1.968554,-0.720899,-0.017967,-0.094951,-0.127431,0.005009,0.000699,-0.040177,-0.094557,0.019705,-0.007208,1.000000,0.000025,0.000003,-0.000201,-0.141503,0.672315,-0.288308,-0.666969,109.878358,78.075183,-105.707159
36242,-9.469381,1.932744,-0.723395,0.004111,-0.067650,-0.121280,0.003178,0.004642,-0.037355,-0.094690,0.019345,-0.007231,1.000000,0.000016,0.000023,-0.000187,-0.141596,0.672348,-0.288225,-0.666952,109.900445,78.089389,-105.685448
36243,-9.536783,1.954168,-0.706746,-0.019330,-0.063704,-0.052357,0.000763,0.004988,-0.033457,-0.095365,0.019558,-0.007065,1.000000,0.000004,0.000025,-0.000167,-0.141669,0.672378,-0.288145,-0.666941,109.917959,78.101742,-105.666995
36244,-9.566257,1.910344,-0.760566,0.050545,-0.055722,-0.028236,-0.009456,0.003636,-0.029669,-0.095660,0.019117,-0.007605,1.000000,-0.000047,0.000018,-0.000148,-0.141696,0.672405,-0.288045,-0.666951,109.923193,78.112001,-105.655111
36245,-9.559263,1.887159,-0.771131,0.071750,-0.046237,-0.038833,-0.002122,0.000554,-0.022218,-0.095591,0.018882,-0.007711,1.000000,-0.000011,0.000003,-0.000111,-0.141728,0.672406,-0.287989,-0.666968,109.917275,78.119179,-105.658798
36246,-9.518811,1.920223,-0.697063,-0.009754,-0.038927,-0.077221,0.009073,-0.004983,-0.014523,-0.095187,0.019209,-0.006972,1.000000,0.000045,-0.000025,-0.000073,-0.141778,0.672369,-0.287996,-0.666991,109.897006,78.122961,-105.683825
36247,-9.507166,1.912804,-0.676417,-0.022498,-0.024264,-0.091501,0.017525,-0.004993,-0.013266,-0.095070,0.019135,-0.006765,1.000000,0.000088,-0.000025,-0.000066,-0.141856,0.672324,-0.288033,-0.667003,109.879952,78.126373,-105.710592
36248,-9.483914,1.925886,-0.744223,0.024614,-0.078541,-0.106980,0.009486,-0.003551,-0.004562,-0.094839,0.019261,-0.007443,1.000000,0.000047,-0.000018,-0.000023,-0.141873,0.672278,-0.288076,-0.667028,109.854344,78.124504,-105.741316
36249,-9.468547,1.922066,-0.783354,0.058761,-0.100966,-0.120025,-0.006289,0.001169,-0.004807,-0.094685,0.019223,-0.007834,1.000000,-0.000031,0.000006,-0.000024,-0.141833,0.672259,-0.288067,-0.667060,109.831615,78.122150,-105.759936
36250,-9.465121,1.860222,-0.716291,0.040165,-0.013470,-0.140035,0.002645,0.007574,-0.002429,-0.094651,0.018603,-0.007159,1.000000,0.000013,0.000038,-0.000012,-0.141803,0.672251,-0.288101,-0.667059,109.828640,78.116966,-105.763527
36251,-9.480046,1.901581,-0.696284,0.001122,-0.030889,-0.118817,0.016338,0.008306,0.000990,-0.094801,0.019016,-0.006957,1.000000,0.000082,0.000042,0.000005,-0.141809,0.672231,-0.288191,-0.667039,109.831626,78.110114,-105.768927
36252,-9.420605,1.897864,-0.704177,0.006632,-0.042751,-0.177144,0.010212,0.012417,0.006493,-0.094207,0.018976,-0.007035,1.000000,0.000051,0.000062,0.000032,-0.141768,0.672222,-0.288284,-0.667017,109.837146,78.099180,-105.768268
36253,-9.412859,1.877824,-0.716227,0.027811,-0.033275,-0.187760,0.011740,0.016920,0.010258,-0.094130,0.018774,-0.007153,1.000000,0.000059,0.000085,0.000051,-0.141715,0.672220,-0.288396,-0.666981,109.851025,78.085650,-105.759888
36254,-9.459354,1.914901,-0.709508,0.003539,-0.047005,-0.135528,0.005649,0.023520,0.011338,-0.094595,0.019144,-0.007083,1.000000,0.000028,0.000118,0.000057,-0.141627,0.672244,-0.288498,-0.666932,109.877772,78.069943,-105.734860
36255,-9.471410,1.883857,-0.714097,0.025630,-0.019750,-0.129434,0.003667,0.026156,0.012313,-0.094716,0.018833,-0.007128,1.000000,0.000018,0.000131,0.000062,-0.141527,0.672276,-0.288598,-0.666878,109.908659,78.053468,-105.704513
36256,-9.482873,1.891046,-0.737476,0.040606,-0.033319,-0.115160,0.000288,0.035023,0.013185,-0.094831,0.018904,-0.007358,1.000000,0.000001,0.000175,0.000066,-0.141398,0.672339,-0.288696,-0.666799,109.959728,78.034513,-105.651482
36257,-9.482395,1.892299,-0.740398,0.041713,-0.032809,-0.115162,-0.004638,0.027471,0.012896,-0.094826,0.018917,-0.007391,1.000000,-0.000023,0.000137,0.000064,-0.141266,0.672381,-0.288769,-0.666753,109.988458,78.017525,-105.618221
36258,-9.470543,1.849658,-0.704329,0.036059,0.022769,-0.137633,-0.002465,0.030265,0.017809,-0.094708,0.018488,-0.007029,1.000000,-0.000012,0.000151,0.000089,-0.141119,0.672424,-0.288871,-0.666697,110.021349,77.996999,-105.582153
36259,-9.536799,1.876115,-0.690136,0.012745,0.026781,-0.068677,0.004356,0.028565,0.017502,-0.095371,0.018753,-0.006887,1.000000,0.000022,0.000143,0.000088,-0.141001,0.672456,-0.288991,-0.666638,110.053478,77.977256,-105.550829
36260,-9.496912,1.862403,-0.691308,0.019128,0.032671,-0.110298,0.002374,0.031200,0.018474,-0.094972,0.018615,-0.006898,1.000000,0.000012,0.000156,0.000092,-0.140866,0.672497,-0.289112,-0.666572,110.090653,77.956180,-105.513210
36261,-9.429552,1.839341,-0.711338,0.044642,0.029685,-0.179269,0.002123,0.032706,0.018821,-0.094298,0.018385,-0.007098,1.000000,0.000011,0.000164,0.000094,-0.140730,0.672543,-0.289232,-0.666503,110.130676,77.934925,-105.472520
36262,-9.453976,1.776531,-0.719348,0.087717,0.083724,-0.167145,0.014996,0.041618,0.012612,-0.094542,0.017760,-0.007172,1.000000,0.000075,0.000208,0.000063,-0.140643,0.672618,-0.289382,-0.666380,110.206392,77.914931,-105.402879
36263,-9.452814,1.815712,-0.742079,0.081710,0.043369,-0.158951,0.018939,0.045767,0.012479,-0.094531,0.018152,-0.007397,1.000000,0.000095,0.000229,0.000062,-0.140565,0.672705,-0.289546,-0.666238,110.294293,77.894478,-105.323065
36264,-9.441047,1.772400,-0.708266,0.076036,0.098936,-0.181444,0.036963,0.048799,0.008824,-0.094413,0.017721,-0.007056,1.000000,0.000185,0.000244,0.000044,-0.140554,0.672794,-0.289761,-0.666056,110.403555,77.875042,-105.231975
36265,-9.454876,1.852482,-0.711449,0.029909,0.040665,-0.151943,0.041094,0.056738,0.006112,-0.094551,0.018523,-0.007084,1.000000,0.000205,0.000284,0.000031,-0.140556,0.672911,-0.289985,-0.665840,110.536806,77.855753,-105.118699
36266,-9.446117,1.870475,-0.746355,0.043967,0.009321,-0.154384,0.027296,0.060468,0.013312,-0.094465,0.018699,-0.007432,1.000000,0.000136,0.000302,0.000067,-0.140481,0.673039,-0.290192,-0.665636,110.664674,77.831474,-105.002897
36267,-9.496560,1.892904,-0.775065,0.053726,-0.009600,-0.098498,0.035344,0.060645,0.013086,-0.094969,0.018924,-0.007719,1.000000,0.000177,0.000303,0.000065,-0.140434,0.673163,-0.290422,-0.665421,110.796785,77.807549,-104.887248
36268,-9.474751,1.955497,-0.717573,-0.034048,-0.025420,-0.111761,0.046855,0.058561,0.011620,-0.094751,0.019551,-0.007143,1.000000,0.000234,0.000293,0.000058,-0.140433,0.673274,-0.290686,-0.665194,110.931761,77.784453,-104.775617
36269,-9.496588,2.018801,-0.692998,-0.093105,-0.051763,-0.079772,0.042297,0.060238,0.014626,-0.094969,0.020183,-0.006897,1.000000,0.000211,0.000301,0.000073,-0.140405,0.673388,-0.290946,-0.664970,111.064585,77.759642,-104.663534
36270,-9.503362,2.040823,-0.689151,-0.112047,-0.060145,-0.069094,0.024206,0.062510,0.016014,-0.095037,0.020401,-0.006859,1.000000,0.000121,0.000313,0.000080,-0.140308,0.673521,-0.291153,-0.664765,111.191180,77.733273,-104.547180
36271,-9.521116,2.107065,-0.724296,-0.124193,-0.123572,-0.035914,0.003097,0.069328,0.015707,-0.095215,0.021063,-0.007210,1.000000,0.000015,0.000347,0.000079,-0.140131,0.673692,-0.291291,-0.664569,111.321804,77.705907,-104.414256
36272,-9.495964,2.134950,-0.708083,-0.157967,-0.135612,-0.056183,-0.010353,0.068746,0.020346,-0.094964,0.021339,-0.007049,1.000000,-0.000052,0.000344,0.000102,-0.139893,0.673864,-0.291402,-0.664396,111.438637,77.675817,-104.287603
36273,-9.491693,2.101504,-0.755634,-0.102854,-0.131316,-0.063240,-0.030429,0.073660,0.022676,-0.094922,0.021003,-0.007525,1.000000,-0.000152,0.000368,0.000113,-0.139575,0.674062,-0.291455,-0.664239,111.552738,77.643703,-104.151898
36274,-9.522315,2.099074,-0.774440,-0.086895,-0.127078,-0.032265,-0.027950,0.073765,0.033507,-0.095230,0.020974,-0.007712,1.000000,-0.000140,0.000369,0.000168,-0.139226,0.674243,-0.291555,-0.664084,111.657795,77.605436,-104.026946
36275,-9.469099,2.107267,-0.866964,-0.020719,-0.190276,-0.075163,-0.050917,0.076751,0.042630,-0.094699,0.021050,-0.008639,1.000000,-0.000255,0.000384,0.000213,-0.138767,0.674437,-0.291609,-0.663960,111.746820,77.561935,-103.904661
36276,-9.487476,2.101050,-0.865046,-0.018657,-0.171913,-0.058457,-0.049543,0.076270,0.055228,-0.094884,0.020982,-0.008619,1.000000,-0.000248,0.000381,0.000276,-0.138270,0.674609,-0.291712,-0.663843,111.823207,77.511495,-103.796359
36277,-9.434784,2.097681,-0.757995,-0.107108,-0.109736,-0.119058,-0.034216,0.073342,0.062521,-0.094357,0.020946,-0.007549,1.000000,-0.000171,0.000367,0.000313,-0.137806,0.674751,-0.291886,-0.663720,111.893281,77.458095,-103.703337
36278,-9.424339,2.121661,-0.792873,-0.093052,-0.141079,-0.121471,-0.028154,0.072473,0.073967,-0.094254,0.021181,-0.007898,1.000000,-0.000141,0.000362,0.000370,-0.137324,0.674868,-0.292121,-0.663597,111.953409,77.398452,-103.624202
36279,-9.374265,2.131400,-0.825573,-0.073822,-0.167195,-0.165519,-0.041400,0.076133,0.090700,-0.093755,0.021270,-0.008224,1.000000,-0.000207,0.000381,0.000454,-0.136739,0.674982,-0.292370,-0.663492,111.997767,77.329395,-103.553469
36280,-9.395783,2.114754,-0.855342,-0.037813,-0.154004,-0.145248,-0.022612,0.084442,0.102612,-0.093972,0.021098,-0.008516,1.000000,-0.000113,0.000422,0.000513,-0.136164,0.675093,-0.292727,-0.663340,112.060610,77.251934,-103.474765
36281,-9.425600,2.232025,-0.870620,-0.090018,-0.235297,-0.090631,-0.020118,0.083324,0.119696,-0.094273,0.022263,-0.008669,1.000000,-0.000101,0.000417,0.000598,-0.135544,0.675173,-0.293149,-0.663200,112.104973,77.165902,-103.416458
36282,-9.433498,2.250741,-0.898377,-0.074999,-0.248840,-0.076352,-0.040898,0.082622,0.142146,-0.094355,0.022439,-0.008949,1.000000,-0.000204,0.000413,0.000711,-0.134778,0.675231,-0.293578,-0.663106,112.114294,77.067823,-103.381856
36283,-9.433885,2.262864,-0.845733,-0.120786,-0.211227,-0.077454,-0.029227,0.081018,0.163541,-0.094361,0.022550,-0.008422,1.000000,-0.000146,0.000405,0.000818,-0.133984,0.675244,-0.294114,-0.663016,112.105930,76.959016,-103.372092
36284,-9.436753,2.300139,-0.841790,-0.139715,-0.219595,-0.066725,-0.031238,0.069341,0.179596,-0.094391,0.022915,-0.008389,1.000000,-0.000156,0.000347,0.000898,-0.133146,0.675196,-0.294692,-0.662977,112.055454,76.843918,-103.404537
36285,-9.400119,2.323042,-0.834712,-0.153485,-0.222752,-0.097632,-0.043814,0.068470,0.195219,-0.094027,0.023137,-0.008320,0.999999,-0.000219,0.000342,0.000976,-0.132215,0.675130,-0.295277,-0.662971,111.981927,76.720980,-103.453024
36286,-9.377779,2.388931,-0.806739,-0.207339,-0.243746,-0.107116,-0.053200,0.072126,0.207728,-0.093805,0.023790,-0.008040,0.999999,-0.000266,0.000361,0.001039,-0.131205,0.675062,-0.295878,-0.662972,111.901497,76.590317,-103.503354
36287,-9.386664,2.339202,-0.796979,-0.178139,-0.175616,-0.109395,-0.067445,0.085484,0.215060,-0.093895,0.023288,-0.007938,0.999999,-0.000337,0.000427,0.001075,-0.130104,0.675036,-0.296463,-0.662954,111.836904,76.453149,-103.528946
36288,-9.389070,2.331171,-0.865510,-0.109128,-0.185383,-0.102292,-0.072663,0.087635,0.223071,-0.093920,0.023204,-0.008622,0.999999,-0.000363,0.000438,0.001115,-0.128955,0.675008,-0.297061,-0.662940,111.768231,76.310996,-103.555762
36289,-9.379384,2.429614,-0.908100,-0.122193,-0.266559,-0.085690,-0.097227,0.090343,0.232240,-0.093826,0.024183,-0.009050,0.999999,-0.000486,0.000452,0.001161,-0.127689,0.674990,-0.297608,-0.662958,111.684156,76.163608,-103.583929
36290,-9.390848,2.418454,-0.857373,-0.146979,-0.202147,-0.080806,-0.109740,0.096047,0.247402,-0.093942,0.024064,-0.008542,0.999999,-0.000549,0.000480,0.001237,-0.126320,0.674974,-0.298170,-0.662984,111.593791,76.006703,-103.611242
36291,-9.354159,2.409353,-0.832888,-0.153692,-0.164445,-0.119997,-0.107671,0.097471,0.258489,-0.093577,0.023968,-0.008296,0.999999,-0.000538,0.000487,0.001292,-0.124921,0.674944,-0.298774,-0.663008,111.499353,75.843806,-103.643932
36292,-9.361022,2.538776,-0.885633,-0.172862,-0.268622,-0.078399,-0.112186,0.099157,0.269448,-0.093649,0.025257,-0.008824,0.999999,-0.000561,0.000496,0.001347,-0.123466,0.674905,-0.299402,-0.663037,111.398602,75.674471,-103.680553
36293,-9.343528,2.447225,-0.877127,-0.117536,-0.168499,-0.116425,-0.132804,0.105995,0.278445,-0.093474,0.024336,-0.008738,0.999999,-0.000664,0.000530,0.001392,-0.121901,0.674885,-0.299993,-0.663079,111.294250,75.499137,-103.708569
36294,-9.326206,2.492235,-0.912299,-0.103495,-0.199833,-0.118828,-0.129520,0.109217,0.289597,-0.093303,0.024781,-0.009088,0.999999,-0.000648,0.000546,0.001448,-0.120305,0.674856,-0.300637,-0.663109,111.191368,75.316922,-103.737186
36295,-9.354786,2.513930,-0.872914,-0.134372,-0.158495,-0.088975,-0.132452,0.112501,0.302107,-0.093591,0.024992,-0.008693,0.999998,-0.000662,0.000563,0.001511,-0.118653,0.674818,-0.301312,-0.663139,111.084996,75.127530,-103.767630
36296,-9.362349,2.474281,-0.865142,-0.105177,-0.090310,-0.091329,-0.124939,0.108899,0.319082,-0.093667,0.024588,-0.008616,0.999998,-0.000625,0.000544,0.001595,-0.116975,0.674737,-0.302068,-0.663176,110.964764,74.929586,-103.816975
36297,-9.336887,2.501943,-0.911069,-0.071105,-0.112748,-0.104476,-0.129139,0.111543,0.325237,-0.093414,0.024862,-0.009075,0.999998,-0.000646,0.000558,0.001626,-0.115257,0.674654,-0.302828,-0.663214,110.844463,74.728012,-103.863677
36298,-9.346782,2.513192,-1.001509,0.011842,-0.136609,-0.083218,-0.131648,0.114572,0.347284,-0.093517,0.024963,-0.009978,0.999998,-0.000658,0.000573,0.001736,-0.113453,0.674548,-0.303658,-0.663254,110.714997,74.513755,-103.918707
36299,-9.349634,2.491724,-0.963224,0.007076,-0.063294,-0.089109,-0.116333,0.113625,0.358250,-0.093546,0.024744,-0.009594,0.999998,-0.000582,0.000568,0.001791,-0.111666,0.674410,-0.304571,-0.663278,110.586859,74.294036,-103.981366
36300,-9.339382,2.526879,-0.971079,0.008172,-0.062702,-0.089106,-0.081279,0.107529,0.373715,-0.093446,0.025090,-0.009671,0.999998,-0.000406,0.000538,0.001869,-0.109953,0.674206,-0.305651,-0.663275,110.459118,74.066947,-104.064718
36301,-9.321016,2.615391,-0.965029,-0.031776,-0.097825,-0.084265,-0.073968,0.099707,0.386608,-0.093265,0.025970,-0.009613,0.999998,-0.000370,0.000499,0.001933,-0.108236,0.673950,-0.306791,-0.663291,110.315039,73.834676,-104.169465
36302,-9.305475,2.544296,-0.867829,-0.057349,0.044593,-0.126975,-0.079713,0.101982,0.392961,-0.093109,0.025257,-0.008641,0.999998,-0.000399,0.000510,0.001965,-0.106473,0.673692,-0.307935,-0.663309,110.171131,73.598232,-104.270788
36303,-9.381027,2.516557,-0.968122,0.062586,0.068982,-0.052299,-0.057164,0.101302,0.392808,-0.093864,0.024978,-0.009641,0.999998,-0.000286,0.000507,0.001964,-0.104787,0.673416,-0.309149,-0.663293,110.042026,73.362115,-104.370160
36304,-9.343091,2.567527,-1.042801,0.109574,0.014670,-0.067913,-0.068626,0.102033,0.393559,-0.093486,0.025488,-0.010389,0.999998,-0.000343,0.000510,0.001968,-0.103058,0.673145,-0.310329,-0.663288,109.910729,73.125210,-104.465195
36305,-9.344206,2.489724,-0.998470,0.131899,0.137770,-0.092947,-0.046924,0.100487,0.388608,-0.093495,0.024713,-0.009944,0.999998,-0.000235,0.000502,0.001943,-0.101421,0.672862,-0.311560,-0.663250,109.795053,72.891434,-104.556862
36306,-9.356459,2.551250,-0.957392,0.080032,0.152431,-0.069021,-0.023539,0.093675,0.387102,-0.093618,0.025330,-0.009533,0.999998,-0.000118,0.000468,0.001936,-0.099877,0.672545,-0.312861,-0.663194,109.684857,72.659517,-104.657088
36307,-9.335080,2.604742,-0.993352,0.094062,0.121070,-0.071459,-0.019874,0.088151,0.385073,-0.093405,0.025867,-0.009895,0.999998,-0.000099,0.000441,0.001925,-0.098362,0.672207,-0.314162,-0.663148,109.571145,72.429923,-104.763228
36308,-9.303357,2.601135,-0.910871,0.040369,0.195884,-0.111764,-0.018761,0.089860,0.376996,-0.093086,0.025835,-0.009069,0.999998,-0.000094,0.000449,0.001885,-0.096873,0.671885,-0.315440,-0.663087,109.468728,72.204082,-104.858416
36309,-9.283058,2.736797,-1.002170,0.054226,0.068721,-0.083258,-0.035509,0.093098,0.361581,-0.092885,0.027198,-0.009983,0.999998,-0.000178,0.000465,0.001808,-0.095432,0.671575,-0.316667,-0.663024,109.373148,71.986116,-104.946227
36310,-9.304433,2.743471,-0.974754,0.043412,0.119066,-0.064196,-0.068208,0.104786,0.346291,-0.093097,0.027270,-0.009708,0.999998,-0.000341,0.000524,0.001731,-0.093854,0.671370,-0.317683,-0.662972,109.289464,71.773951,-104.992130
36311,-9.293804,2.691482,-0.927336,0.044754,0.215407,-0.095161,-0.062334,0.106022,0.329147,-0.092987,0.026759,-0.009232,0.999998,-0.000312,0.000530,0.001646,-0.092410,0.671162,-0.318718,-0.662888,109.222095,71.571000,-105.034414
36312,-9.273207,2.738731,-0.963004,0.058767,0.184080,-0.097597,-0.077354,0.101441,0.306939,-0.092779,0.027241,-0.009594,0.999999,-0.000387,0.000507,0.001535,-0.090937,0.671008,-0.319568,-0.662839,109.152495,71.380724,-105.060044
36313,-9.305861,2.773298,-1.004657,0.088833,0.174253,-0.052502,-0.093317,0.104361,0.294524,-0.093105,0.027591,-0.010011,0.999999,-0.000467,0.000522,0.001473,-0.089505,0.670860,-0.320381,-0.662791,109.085915,71.196804,-105.082794
36314,-9.302814,2.678969,-0.939028,0.097254,0.311472,-0.091862,-0.100248,0.099522,0.288357,-0.093071,0.026651,-0.009357,0.999999,-0.000501,0.000498,0.001442,-0.088019,0.670735,-0.321090,-0.662773,109.012166,71.016932,-105.099002
36315,-9.315707,2.637196,-0.931639,0.126557,0.379589,-0.094406,-0.076401,0.084010,0.273903,-0.093197,0.026241,-0.009287,0.999999,-0.000382,0.000420,0.001370,-0.086745,0.670542,-0.321879,-0.662754,108.936081,70.847972,-105.142095
36316,-9.272750,2.679431,-1.062531,0.220338,0.288099,-0.109048,-0.081394,0.073767,0.264617,-0.092767,0.026667,-0.010602,0.999999,-0.000407,0.000369,0.001323,-0.085442,0.670358,-0.322558,-0.662779,108.847447,70.685733,-105.185541
36317,-9.262010,2.633170,-0.980643,0.187783,0.389600,-0.143511,-0.072639,0.070358,0.249262,-0.092656,0.026213,-0.009783,0.999999,-0.000363,0.000352,0.001246,-0.084284,0.670155,-0.323270,-0.662786,108.767387,70.532642,-105.235203
36318,-9.223413,2.657099,-0.971678,0.173862,0.386472,-0.174428,-0.027128,0.062872,0.229136,-0.092268,0.026464,-0.009691,0.999999,-0.000136,0.000314,0.001146,-0.083298,0.669967,-0.324004,-0.662742,108.713490,70.391623,-105.274863
36319,-9.231052,2.731766,-1.035060,0.195805,0.317954,-0.137629,-0.037669,0.058157,0.212455,-0.092342,0.027218,-0.010329,0.999999,-0.000188,0.000291,0.001062,-0.082398,0.669766,-0.324702,-0.662717,108.655351,70.260738,-105.322592
36320,-9.234874,2.758807,-1.060522,0.210841,0.304448,-0.123444,-0.030760,0.063064,0.194441,-0.092379,0.027497,-0.010580,0.999999,-0.000154,0.000315,0.000972,-0.081515,0.669634,-0.325307,-0.662662,108.618553,70.138496,-105.341933
36321,-9.231686,2.785420,-0.974774,0.131177,0.347345,-0.127911,-0.007732,0.057953,0.168005,-0.092343,0.027776,-0.009722,1.000000,-0.000039,0.000290,0.000840,-0.080863,0.669491,-0.325954,-0.662569,108.600652,70.031781,-105.365172
36322,-9.190471,2.814805,-0.934098,0.083283,0.349437,-0.162228,-0.006972,0.049271,0.156356,-0.091929,0.028076,-0.009319,1.000000,-0.000035,0.000246,0.000782,-0.080207,0.669365,-0.326505,-0.662505,108.576512,69.932736,-105.385573
36323,-9.194118,2.861193,-1.007694,0.125211,0.289817,-0.136221,-0.007192,0.046970,0.136615,-0.091963,0.028549,-0.010056,1.000000,-0.000036,0.000235,0.000683,-0.079679,0.669234,-0.327044,-0.662434,108.558617,69.845085,-105.409151
36324,-9.174503,2.937740,-0.965636,0.051251,0.260042,-0.134670,-0.010607,0.045592,0.117688,-0.091764,0.029323,-0.009637,1.000000,-0.000053,0.000228,0.000588,-0.079145,0.669160,-0.327450,-0.662372,108.546479,69.767709,-105.414569
36325,-9.149205,2.956811,-0.976104,0.051258,0.242760,-0.151326,-0.014521,0.040400,0.101264,-0.091509,0.029521,-0.009745,1.000000,-0.000073,0.000202,0.000506,-0.078662,0.669097,-0.327786,-0.662328,108.532384,69.700466,-105.419633
36326,-9.130549,3.029942,-0.933220,-0.022705,0.212987,-0.149744,-0.017052,0.039859,0.079143,-0.091319,0.030262,-0.009317,1.000000,-0.000085,0.000199,0.000396,-0.078244,0.669069,-0.328040,-0.662280,108.527210,69.645074,-105.413689
36327,-9.107495,2.986054,-0.936842,0.004420,0.245408,-0.185621,-0.038811,0.044836,0.061854,-0.091086,0.029831,-0.009354,1.000000,-0.000194,0.000224,0.000309,-0.077803,0.669094,-0.328164,-0.662245,108.525069,69.598441,-105.391159
36328,-9.134251,2.981153,-1.044595,0.101332,0.207347,-0.150403,-0.044624,0.047860,0.050750,-0.091353,0.029786,-0.010431,1.000000,-0.000223,0.000239,0.000254,-0.077373,0.669149,-0.328235,-0.662204,108.529633,69.557017,-105.357964
36329,-9.130447,3.010681,-1.096035,0.129247,0.161850,-0.138616,-0.044862,0.045490,0.039048,-0.091313,0.030087,-0.010946,1.000000,-0.000224,0.000227,0.000195,-0.076987,0.669216,-0.328263,-0.662168,108.536002,69.522661,-105.322638
36330,-9.119867,3.040713,-1.035368,0.062405,0.172906,-0.145418,-0.043925,0.038087,0.029263,-0.091205,0.030392,-0.010343,1.000000,-0.000220,0.000190,0.000146,-0.076646,0.669274,-0.328260,-0.662150,108.537102,69.494688,-105.293554
36331,-9.146913,2.996573,-1.013903,0.071694,0.232124,-0.137231,-0.029759,0.036198,0.026181,-0.091475,0.029952,-0.010127,1.000000,-0.000149,0.000181,0.000131,-0.076368,0.669325,-0.328292,-0.662115,108.544793,69.469019,-105.266044
36332,-9.135263,2.956473,-1.037676,0.112764,0.250479,-0.158927,-0.025162,0.031591,0.021119,-0.091357,0.029554,-0.010366,1.000000,-0.000126,0.000158,0.000106,-0.076128,0.669368,-0.328321,-0.662085,108.551099,69.446652,-105.242871
36333,-9.122625,2.975034,-1.067246,0.126713,0.219084,-0.161362,0.000867,0.018487,0.011809,-0.091229,0.029745,-0.010664,1.000000,0.000004,0.000092,0.000059,-0.076030,0.669372,-0.328399,-0.662053,108.557606,69.432026,-105.235359
36334,-9.109846,3.086278,-1.060698,0.059589,0.134402,-0.137054,0.031447,0.014586,0.000399,-0.091099,0.030864,-0.010595,1.000000,0.000157,0.000073,0.000002,-0.076076,0.669371,-0.328540,-0.661979,108.581754,69.424012,-105.227769
36335,-9.070344,3.184127,-1.072015,0.011363,0.040697,-0.140188,0.018049,0.018915,-0.007391,-0.090703,0.031846,-0.010709,1.000000,0.000090,0.000095,-0.000037,-0.076097,0.669402,-0.328611,-0.661911,108.608040,69.419738,-105.209648
36336,-9.091673,3.137858,-0.939203,-0.074106,0.156474,-0.150555,0.035322,0.018726,-0.001053,-0.090917,0.031381,-0.009378,1.000000,0.000177,0.000094,-0.000005,-0.076154,0.669415,-0.328762,-0.661816,108.641076,69.411752,-105.194933
36337,-9.079917,3.153412,-0.969871,-0.060161,0.125079,-0.152962,0.075547,0.009315,-0.017049,-0.090797,0.031546,-0.009683,1.000000,0.000378,0.000047,-0.000085,-0.076416,0.669408,-0.328986,-0.661681,108.691125,69.414476,-105.186619
36338,-9.060014,3.268044,-1.194265,0.061150,-0.090451,-0.108136,0.032267,0.011538,-0.014855,-0.090598,0.032689,-0.011932,1.000000,0.000161,0.000058,-0.000074,-0.076520,0.669421,-0.329078,-0.661610,108.718746,69.415294,-105.175819
36339,-9.100831,3.108632,-1.181921,0.138645,0.054042,-0.124369,0.036382,0.031962,-0.009689,-0.091009,0.031093,-0.011799,1.000000,0.000182,0.000160,-0.000048,-0.076589,0.669492,-0.329207,-0.661467,108.775465,69.409850,-105.136407
36340,-9.204555,3.206967,-1.213910,0.117889,-0.001511,0.009132,0.080562,0.034422,-0.003036,-0.092047,0.032076,-0.012110,1.000000,0.000403,0.000172,-0.000015,-0.076778,0.669543,-0.329506,-0.661244,108.857970,69.400022,-105.096535
36341,-9.216929,3.223920,-1.149252,0.052163,0.027360,0.019034,0.094939,0.018236,0.008480,-0.092172,0.032241,-0.011469,1.000000,0.000475,0.000091,0.000042,-0.077006,0.669515,-0.329884,-0.661057,108.919425,69.387239,-105.087905
36342,-9.158427,3.210681,-0.986696,-0.084561,0.108913,-0.058724,0.151174,0.003504,0.022067,-0.091588,0.032104,-0.009841,1.000000,0.000756,0.000018,0.000110,-0.077399,0.669395,-0.330489,-0.660830,108.985336,69.369528,-105.108984
36343,-9.091377,3.426671,-0.940534,-0.248922,-0.050721,-0.054856,0.160254,-0.013130,0.039299,-0.090920,0.034256,-0.009384,1.000000,0.000801,-0.000066,0.000196,-0.077795,0.669187,-0.331173,-0.660652,109.023763,69.345897,-105.164953
36344,-9.076622,3.505773,-0.978350,-0.262075,-0.131740,-0.037892,0.104747,-0.010540,0.053469,-0.090775,0.035039,-0.009770,1.000000,0.000524,-0.000053,0.000267,-0.077953,0.668986,-0.331724,-0.660561,109.027355,69.313809,-105.224214
36345,-9.107646,3.449647,-0.988191,-0.218785,-0.077745,-0.026376,0.082822,-0.008572,0.057994,-0.091086,0.034474,-0.009872,1.000000,0.000414,-0.000043,0.000290,-0.078020,0.668792,-0.332217,-0.660502,109.018829,69.279198,-105.282964
36346,-9.129850,3.456521,-1.062867,-0.155764,-0.110556,0.005403,0.052736,-0.013003,0.056309,-0.091308,0.034542,-0.010625,1.000000,0.000264,-0.000065,0.000282,-0.077999,0.668598,-0.332604,-0.660506,108.987926,69.246024,-105.347272
36347,-9.133989,3.388320,-1.087913,-0.093605,-0.065560,-0.010598,0.030033,-0.011736,0.056030,-0.091349,0.033859,-0.010879,1.000000,0.000150,-0.000059,0.000280,-0.077901,0.668417,-0.332914,-0.660544,108.945865,69.213040,-105.409562
36348,-9.045970,3.462797,-1.073456,-0.150958,-0.140019,-0.069461,0.031050,-0.009690,0.054659,-0.090469,0.034605,-0.010734,1.000000,0.000155,-0.000048,0.000273,-0.077807,0.668244,-0.333226,-0.660573,108.908395,69.180113,-105.467631
36349,-9.011166,3.527765,-1.065780,-0.192080,-0.192905,-0.080883,-0.001063,-0.009864,0.054250,-0.090121,0.035253,-0.010662,1.000000,-0.000005,-0.000049,0.000271,-0.077609,0.668084,-0.333428,-0.660656,108.852370,69.147707,-105.525822
36350,-8.977025,3.462964,-0.963991,-0.239837,-0.095128,-0.146158,-0.008778,-0.004215,0.052067,-0.089779,0.034606,-0.009643,1.000000,-0.000044,-0.000021,0.000260,-0.077381,0.667950,-0.333602,-0.660731,108.801462,69.115138,-105.573875
36351,-8.973812,3.562579,-1.099353,-0.178184,-0.241565,-0.099822,-0.035286,0.015182,0.046666,-0.089747,0.035603,-0.010993,1.000000,-0.000176,0.000076,0.000233,-0.077051,0.667898,-0.333675,-0.660785,108.765383,69.082181,-105.589749
36352,-9.029087,3.545725,-1.308177,0.014729,-0.318259,-0.029722,-0.132662,0.034824,0.048217,-0.090302,0.035427,-0.013090,1.000000,-0.000663,0.000174,0.000241,-0.076357,0.667946,-0.333441,-0.660934,108.701012,69.044489,-105.576242
36353,-9.117244,3.269749,-1.344523,0.209513,-0.090016,-0.036638,-0.135805,0.056287,0.058090,-0.091186,0.032662,-0.013442,1.000000,-0.000679,0.000281,0.000290,-0.075585,0.668050,-0.333236,-0.661022,108.660272,68.997765,-105.535432
36354,-9.150739,3.226740,-1.262257,0.172031,0.006447,-0.029461,-0.056727,0.033083,0.067257,-0.091520,0.032233,-0.012617,1.000000,-0.000284,0.000165,0.000336,-0.075084,0.668031,-0.333316,-0.661058,108.627970,68.950063,-105.534171
36355,-8.979010,3.288895,-1.177979,0.056361,-0.047459,-0.178288,-0.032410,0.012192,0.085563,-0.089805,0.032849,-0.011780,1.000000,-0.000162,0.000061,0.000428,-0.074641,0.667903,-0.333528,-0.661130,108.571319,68.896498,-105.573881
36356,-8.897915,3.269128,-1.140370,0.033128,-0.031482,-0.264994,0.026942,0.010126,0.101290,-0.088996,0.032648,-0.011395,1.000000,0.000135,0.000051,0.000506,-0.074345,0.667721,-0.333989,-0.661115,108.538831,68.834496,-105.624214
36357,-8.896615,3.524146,-1.189319,-0.060148,-0.243650,-0.173141,0.053789,0.002607,0.118730,-0.088987,0.035192,-0.011883,1.000000,0.000269,0.000013,0.000594,-0.074096,0.667473,-0.334593,-0.661088,108.503015,68.764634,-105.694586
36358,-8.912121,3.422419,-1.310972,0.103877,-0.214341,-0.179373,-0.016327,0.031314,0.136221,-0.089147,0.034162,-0.013099,1.000000,-0.000082,0.000157,0.000681,-0.073505,0.667317,-0.335035,-0.661087,108.459562,68.679780,-105.730129
36359,-9.036802,3.314108,-1.357778,0.219711,-0.099346,-0.095049,0.008011,0.048003,0.143199,-0.090395,0.033077,-0.013555,1.000000,0.000040,0.000240,0.000716,-0.072945,0.667196,-0.335586,-0.660993,108.450013,68.588346,-105.744212
36360,-9.032689,3.431448,-1.236404,0.058986,-0.109580,-0.072180,0.077856,0.028333,0.158111,-0.090356,0.034248,-0.012338,1.000000,0.000389,0.000142,0.000791,-0.072601,0.666958,-0.336411,-0.660851,108.446737,68.492126,-105.794613
36361,-8.919120,3.626630,-1.107808,-0.161432,-0.212820,-0.124601,0.140462,0.012520,0.171982,-0.089223,0.036197,-0.011047,0.999999,0.000702,0.000063,0.000860,-0.072448,0.666621,-0.337481,-0.660662,108.451225,68.391478,-105.875222
36362,-8.801978,3.846859,-1.028986,-0.355011,-0.362056,-0.165158,0.156920,0.009846,0.181143,-0.088055,0.038397,-0.010255,0.999999,0.000785,0.000049,0.000906,-0.072322,0.666253,-0.338637,-0.660456,108.457886,68.286097,-105.963742
36363,-8.837537,3.985994,-1.194956,-0.284219,-0.527550,-0.062867,0.044443,0.030066,0.186931,-0.088414,0.039780,-0.011927,1.000000,0.000222,0.000150,0.000935,-0.071827,0.665952,-0.339504,-0.660368,108.425269,68.174123,-106.035178
36364,-8.887320,3.770487,-1.317381,-0.050846,-0.395212,-0.077303,-0.085700,0.049773,0.183039,-0.088911,0.037618,-0.013168,0.999999,-0.000429,0.000249,0.000915,-0.070820,0.665798,-0.339878,-0.660439,108.347347,68.060456,-106.065183
36365,-8.958587,3.466116,-1.265362,0.089128,-0.092843,-0.124819,-0.091964,0.068296,0.181634,-0.089622,0.034574,-0.012639,0.999999,-0.000460,0.000341,0.000908,-0.069823,0.665680,-0.340290,-0.660453,108.291651,67.944411,-106.077315
36366,-9.029178,3.408064,-1.263290,0.134810,-0.003072,-0.080338,-0.072097,0.082389,0.196910,-0.090330,0.033987,-0.012608,0.999999,-0.000360,0.000412,0.000985,-0.068759,0.665604,-0.340766,-0.660395,108.259918,67.817315,-106.065924
36367,-9.180929,3.333760,-1.374298,0.292823,0.069610,0.046393,-0.089670,0.076487,0.227637,-0.091852,0.033227,-0.013723,0.999999,-0.000448,0.000382,0.001138,-0.067604,0.665431,-0.341341,-0.660392,108.196774,67.674764,-106.087531
36368,-9.081065,3.413905,-1.452609,0.316045,-0.047352,-0.008179,0.004801,0.015013,0.258209,-0.090856,0.034022,-0.014518,0.999999,0.000024,0.000075,0.001291,-0.066708,0.665000,-0.342251,-0.660446,108.094114,67.526326,-106.200488
36369,-8.859561,3.503198,-1.212125,0.056165,-0.043259,-0.209126,0.147611,-0.016906,0.279837,-0.088643,0.034917,-0.012103,0.999999,0.000738,-0.000085,0.001399,-0.066329,0.664347,-0.343750,-0.660363,108.023286,67.371917,-106.377655
36370,-8.803836,3.601273,-1.065972,-0.113792,-0.034223,-0.241960,0.220733,-0.027564,0.296207,-0.088090,0.035894,-0.010632,0.999998,0.001104,-0.000138,0.001481,-0.066098,0.663635,-0.345483,-0.660198,107.975316,67.210201,-106.565696
36371,-8.876052,3.456322,-1.100433,0.012992,0.108671,-0.224706,0.188521,-0.013622,0.306478,-0.088813,0.034438,-0.010978,0.999998,0.000943,-0.000068,0.001532,-0.065760,0.662929,-0.347204,-0.660038,107.924142,67.040567,-106.747366
36372,-9.064192,3.270119,-1.383695,0.382043,0.190532,-0.087177,0.185526,0.003890,0.304199,-0.090692,0.032576,-0.013805,0.999998,0.000928,0.000019,0.001521,-0.065331,0.662313,-0.348855,-0.659828,107.896411,66.868840,-106.891957
36373,-9.162535,3.441199,-1.399631,0.321809,0.117527,0.068377,0.278406,-0.004867,0.299835,-0.091676,0.034294,-0.013951,0.999998,0.001392,-0.000024,0.001499,-0.065298,0.661613,-0.350851,-0.659476,107.913505,66.701239,-107.055820
36374,-9.186904,3.745263,-1.031868,-0.140076,0.130891,0.159982,0.391851,-0.021596,0.315619,-0.091927,0.037328,-0.010255,0.999997,0.001959,-0.000108,0.001578,-0.065558,0.660820,-0.353209,-0.658986,107.969151,66.527816,-107.238737
36375,-8.995765,4.091653,-0.718362,-0.606804,0.006291,0.077364,0.474140,-0.061469,0.337030,-0.090024,0.040782,-0.007114,0.999996,0.002371,-0.000307,0.001685,-0.066148,0.659794,-0.355950,-0.658480,108.014310,66.350059,-107.494733
36376,-8.763308,4.620982,-0.777579,-0.873138,-0.472760,0.075068,0.396369,-0.080136,0.353480,-0.087711,0.046070,-0.007720,0.999996,0.001982,-0.000401,0.001767,-0.066401,0.658729,-0.358423,-0.658179,107.987195,66.166445,-107.771387
36377,-8.583416,4.903311,-0.678083,-1.123440,-0.660870,0.009651,0.229676,-0.053591,0.350625,-0.085918,0.048890,-0.006748,0.999998,0.001148,-0.000268,0.001753,-0.066126,0.657776,-0.360401,-0.658080,107.900697,65.979787,-108.018855
36378,-8.561271,4.900517,-0.611986,-1.163156,-0.600099,-0.016167,0.055155,-0.008913,0.333758,-0.085694,0.048864,-0.006110,0.999999,0.000276,-0.000045,0.001669,-0.065192,0.657088,-0.361707,-0.658145,107.778146,65.794115,-108.186674
36379,-8.645513,4.661365,-0.781987,-0.860516,-0.460709,-0.008000,-0.136879,0.056921,0.313132,-0.086530,0.046473,-0.007827,0.999998,-0.000684,0.000285,0.001566,-0.063634,0.656681,-0.362389,-0.658327,107.635072,65.608226,-108.266449
36380,-8.867851,4.180020,-1.122539,-0.260859,-0.187890,0.049766,-0.353465,0.093790,0.303734,-0.088747,0.041646,-0.011257,0.999997,-0.001767,0.000469,0.001519,-0.061271,0.656511,-0.362281,-0.658780,107.417846,65.420866,-108.281533
36381,-9.002721,3.548114,-1.504888,0.448101,0.138784,-0.030938,-0.409232,0.088757,0.301404,-0.090087,0.035315,-0.015081,0.999997,-0.002046,0.000444,0.001507,-0.058799,0.656310,-0.362035,-0.659341,107.164974,65.235748,-108.310609
36382,-9.138272,3.210741,-1.581939,0.739687,0.423434,-0.035526,-0.243815,0.072363,0.308244,-0.091438,0.031947,-0.015825,0.999998,-0.001219,0.000362,0.001541,-0.056819,0.656022,-0.362293,-0.659660,106.987016,65.049480,-108.351700
36383,-9.190008,3.428003,-1.593257,0.657185,0.305945,0.097930,-0.110643,0.025909,0.309965,-0.091955,0.034129,-0.015940,0.999999,-0.000553,0.000130,0.001550,-0.055412,0.655505,-0.363038,-0.659884,106.831402,64.870111,-108.462324
36384,-8.939937,3.558879,-1.314076,0.341842,0.288970,-0.111427,-0.016051,-0.024647,0.316113,-0.089454,0.035446,-0.013155,0.999999,-0.000080,-0.000123,0.001581,-0.054329,0.654814,-0.364044,-0.660105,106.671015,64.695450,-108.628360
36385,-8.731103,3.762988,-1.270497,0.184038,0.103941,-0.223024,0.080879,-0.029986,0.312156,-0.087368,0.037499,-0.012703,0.999999,0.000404,-0.000150,0.001561,-0.053643,0.654053,-0.365410,-0.660161,106.563121,64.523840,-108.807929
36386,-8.624645,3.885976,-1.385523,0.213708,-0.068025,-0.254726,0.031475,-0.019512,0.310256,-0.086305,0.038728,-0.013858,0.999999,0.000157,-0.000098,0.001551,-0.052725,0.653373,-0.366553,-0.660275,106.441759,64.351255,-108.961366
36387,-8.587761,3.851726,-1.364223,0.226671,-0.021773,-0.305079,0.008723,0.009842,0.309175,-0.085938,0.038385,-0.013636,0.999999,0.000044,0.000049,0.001546,-0.051741,0.652764,-0.367680,-0.660328,106.342715,64.174561,-109.085711
36388,-8.570452,3.835285,-1.216231,0.126235,0.090415,-0.346056,0.057778,0.016494,0.303477,-0.085764,0.038226,-0.012144,0.999999,0.000289,0.000082,0.001517,-0.050864,0.652206,-0.368895,-0.660271,106.282746,63.999691,-109.188102
36389,-8.682700,3.744659,-1.129158,0.134018,0.276041,-0.294677,0.071793,0.009584,0.297938,-0.086883,0.037321,-0.011274,0.999999,0.000359,0.000048,0.001490,-0.050123,0.651597,-0.370191,-0.660203,106.225695,63.829103,-109.306268
36390,-8.803569,3.726610,-1.432620,0.425431,0.195779,-0.157457,0.033091,0.007893,0.285228,-0.088089,0.037143,-0.014317,0.999999,0.000165,0.000039,0.001426,-0.049242,0.651046,-0.371261,-0.660212,106.150042,63.665552,-109.410672
36391,-8.956488,3.691611,-1.417595,0.469375,0.316177,-0.038440,0.030574,0.000307,0.266560,-0.089614,0.036799,-0.014170,0.999999,0.000153,0.000002,0.001333,-0.048487,0.650472,-0.372315,-0.660240,106.071395,63.513604,-109.526891
36392,-9.023144,3.797654,-1.156102,0.219114,0.434869,0.033059,0.142573,-0.028029,0.253816,-0.090278,0.037870,-0.011547,0.999999,0.000713,-0.000140,0.001269,-0.048133,0.649832,-0.373634,-0.660151,106.030874,63.372929,-109.662423
36393,-9.011672,4.363851,-1.164917,-0.074419,0.039977,0.267158,0.172268,-0.066081,0.237522,-0.090165,0.043541,-0.011641,0.999999,0.000861,-0.000330,0.001188,-0.048058,0.649055,-0.375043,-0.660121,105.971552,63.247387,-109.848143
36394,-8.801927,4.795040,-0.996966,-0.467315,-0.244968,0.246230,0.098604,-0.097015,0.234392,-0.088071,0.047852,-0.009989,0.999999,0.000493,-0.000485,0.001172,-0.047754,0.648232,-0.376135,-0.660331,105.838709,63.128094,-110.059194
36395,-8.434946,4.694140,-0.624592,-0.756612,-0.105371,-0.169567,0.030799,-0.097703,0.219052,-0.084398,0.046850,-0.006280,0.999999,0.000154,-0.000489,0.001095,-0.047341,0.647416,-0.377008,-0.660663,105.672308,63.017310,-110.274463
36396,-8.329658,4.519887,-0.819077,-0.499148,-0.122448,-0.314304,-0.059456,-0.074065,0.198396,-0.083338,0.045114,-0.008235,0.999999,-0.000297,-0.000370,0.000992,-0.046600,0.646771,-0.377466,-0.661086,105.487712,62.913813,-110.442362
36397,-8.531014,4.425576,-1.331878,0.025349,-0.245337,-0.113360,-0.188474,-0.030425,0.185512,-0.085349,0.044164,-0.013373,0.999999,-0.000942,-0.000152,0.000928,-0.045461,0.646291,-0.377521,-0.661604,105.281144,62.810717,-110.561959
36398,-8.842926,4.448010,-1.241124,0.011364,-0.066478,0.163180,-0.257544,-0.021747,0.186649,-0.088469,0.044382,-0.012478,0.999999,-0.001288,-0.000109,0.000933,-0.044020,0.645884,-0.377296,-0.662226,105.045461,62.705324,-110.659975
36399,-8.907781,4.360285,-0.957865,-0.138470,0.191767,0.148344,-0.188079,-0.070667,0.202336,-0.089118,0.043504,-0.009651,0.999999,-0.000940,-0.000353,0.001012,-0.042902,0.645236,-0.377396,-0.662874,104.793748,62.598442,-110.830861
36400,-8.633971,4.496680,-1.005085,-0.192852,-0.039971,-0.028162,-0.140243,-0.117397,0.204736,-0.086380,0.044871,-0.010133,0.999999,-0.000701,-0.000587,0.001024,-0.041960,0.644450,-0.377596,-0.663585,104.520745,62.496497,-111.046856
36401,-8.436804,4.306733,-1.069261,-0.042066,-0.017127,-0.280175,-0.205154,-0.116682,0.216213,-0.084408,0.042965,-0.010786,0.999999,-0.001026,-0.000583,0.001081,-0.040828,0.643623,-0.377672,-0.664414,104.209776,62.387744,-111.273848
36402,-8.579091,4.026471,-1.202360,0.269553,0.179996,-0.265236,-0.154110,-0.075027,0.222457,-0.085831,0.040160,-0.012087,0.999999,-0.000771,-0.000375,0.001112,-0.039703,0.642944,-0.377890,-0.665016,103.972724,62.269062,-111.440710
36403,-8.914846,4.464218,-1.352576,0.238599,-0.056307,0.245793,-0.061332,-0.094140,0.233842,-0.089194,0.044534,-0.013581,0.999999,-0.000307,-0.000471,0.001169,-0.038932,0.642128,-0.378503,-0.665501,103.767057,62.146546,-111.642285
36404,-8.726593,4.692227,-0.928532,-0.240985,-0.051956,0.135767,-0.045384,-0.147357,0.251370,-0.087318,0.046810,-0.009360,0.999999,-0.000227,-0.000737,0.001257,-0.038196,0.641129,-0.379159,-0.666132,103.512208,62.020932,-111.900162
36405,-8.394220,4.685043,-1.006485,-0.205238,-0.221032,-0.151707,-0.008740,-0.130273,0.261275,-0.083997,0.046740,-0.010122,0.999999,-0.000044,-0.000651,0.001306,-0.037572,0.640127,-0.380027,-0.666637,103.295715,61.887199,-112.148595
36406,-8.364827,4.825205,-1.181165,-0.117348,-0.413721,-0.093476,-0.069292,-0.074863,0.280699,-0.083711,0.048130,-0.011860,0.999999,-0.000346,-0.000374,0.001403,-0.036524,0.639316,-0.380710,-0.667084,103.099875,61.734814,-112.324636
36407,-8.606403,4.764052,-1.214618,0.012815,-0.264353,0.095467,-0.147783,-0.058506,0.304412,-0.086133,0.047500,-0.012207,0.999999,-0.000739,-0.000293,0.001522,-0.035174,0.638494,-0.381263,-0.667628,102.872155,61.566929,-112.495981
36408,-8.601727,4.587184,-1.059687,0.006923,-0.035603,-0.006899,-0.138095,-0.062772,0.312854,-0.086086,0.045730,-0.010655,0.999998,-0.000690,-0.000314,0.001564,-0.033776,0.637671,-0.381818,-0.668169,102.646117,61.394412,-112.662072
36409,-8.619621,4.472326,-0.927002,-0.010831,0.147447,-0.058870,-0.101585,-0.058633,0.315219,-0.086264,0.044583,-0.009318,0.999999,-0.000508,-0.000293,0.001576,-0.032537,0.636815,-0.382558,-0.668624,102.446659,61.219910,-112.831901
36410,-8.808094,4.654387,-1.107620,0.103842,0.024150,0.210346,-0.066318,-0.076937,0.317663,-0.088150,0.046400,-0.011126,0.999999,-0.000332,-0.000385,0.001588,-0.031379,0.635919,-0.383364,-0.669070,102.250630,61.045874,-113.011239
36411,-8.707149,4.928444,-0.967828,-0.147883,-0.114484,0.237468,-0.048187,-0.100637,0.337833,-0.087150,0.049135,-0.009734,0.999998,-0.000241,-0.000503,0.001689,-0.030315,0.634867,-0.384344,-0.669555,102.038727,60.863238,-113.230843
36412,-8.428826,5.164931,-0.717419,-0.504401,-0.243795,0.082885,-0.038377,-0.102281,0.348410,-0.084374,0.051501,-0.007227,0.999998,-0.000192,-0.000511,0.001742,-0.029191,0.633819,-0.385335,-0.670029,101.831391,60.674348,-113.442117
36413,-8.118924,5.118114,-0.833621,-0.413846,-0.391783,-0.195928,-0.144383,-0.075859,0.355413,-0.081277,0.051031,-0.008404,0.999998,-0.000722,-0.000379,0.001777,-0.027715,0.632825,-0.386049,-0.670619,101.590650,60.478190,-113.632319
36414,-8.303806,4.858772,-1.095883,0.007988,-0.248242,-0.132812,-0.253472,-0.004000,0.365109,-0.083126,0.048422,-0.011022,0.999998,-0.001267,-0.000020,0.001826,-0.025664,0.632100,-0.386383,-0.671193,101.359388,60.267899,-113.730166
36415,-8.634254,4.802080,-1.008478,0.063347,0.015643,0.118222,-0.239857,0.007103,0.376256,-0.086433,0.047846,-0.010139,0.999998,-0.001199,0.000036,0.001881,-0.023656,0.631350,-0.386850,-0.671702,101.146524,60.050036,-113.825911
36416,-8.590434,4.616608,-0.821933,0.028194,0.254685,-0.029109,-0.208593,-0.021814,0.380092,-0.085991,0.045994,-0.008277,0.999998,-0.001043,-0.000109,0.001900,-0.021731,0.630524,-0.387376,-0.672241,100.925085,59.832908,-113.942541
36417,-8.501895,4.611911,-0.945579,0.145692,0.175964,-0.097043,-0.167036,-0.010053,0.369050,-0.085103,0.045954,-0.009498,0.999998,-0.000835,-0.000050,0.001845,-0.020010,0.629717,-0.388059,-0.672656,100.742750,59.620647,-114.051622
36418,-8.624367,4.761056,-0.969446,0.142481,0.142869,0.084097,-0.170816,0.006062,0.373323,-0.086333,0.047441,-0.009732,0.999998,-0.000854,0.000030,0.001867,-0.018172,0.628988,-0.388689,-0.673027,100.574984,59.403997,-114.131597
36419,-8.548457,4.729331,-0.987172,0.186704,0.147757,0.003645,-0.149789,-0.021510,0.374426,-0.085572,0.047126,-0.009916,0.999998,-0.000749,-0.000108,0.001872,-0.016510,0.628124,-0.389443,-0.673440,100.394360,59.189608,-114.250620
36420,-8.357185,4.726976,-0.778707,0.002310,0.200553,-0.181858,-0.120813,-0.024349,0.367091,-0.083657,0.047112,-0.007826,0.999998,-0.000604,-0.000122,0.001835,-0.014909,0.627295,-0.390216,-0.673803,100.231035,58.979350,-114.359169
36421,-8.327192,4.660961,-0.793971,0.069207,0.249956,-0.240346,-0.116398,-0.024939,0.356591,-0.083354,0.046456,-0.007977,0.999998,-0.000582,-0.000125,0.001783,-0.013418,0.626447,-0.391023,-0.674155,100.072935,58.775054,-114.474710
36422,-8.364266,4.660908,-0.895121,0.187520,0.237999,-0.200490,-0.113454,-0.016957,0.349930,-0.083723,0.046458,-0.008985,0.999998,-0.000567,-0.000085,0.001750,-0.011884,0.625671,-0.391764,-0.674475,99.926868,58.573442,-114.568462
36423,-8.537908,4.775231,-0.857757,0.160575,0.286923,0.001906,-0.068507,-0.019949,0.333467,-0.085458,0.047607,-0.008602,0.999999,-0.000343,-0.000100,0.001667,-0.010611,0.624877,-0.392657,-0.674712,99.807568,58.381451,-114.671124
36424,-8.492851,5.027957,-0.697052,-0.087170,0.202482,0.079030,-0.054350,-0.051522,0.322025,-0.085008,0.050141,-0.007006,0.999999,-0.000272,-0.000258,0.001610,-0.009424,0.624032,-0.393506,-0.675017,99.670832,58.198727,-114.794100
36425,-8.288972,5.167860,-0.681534,-0.191006,0.039146,-0.022885,-0.102756,-0.040785,0.304201,-0.082967,0.051549,-0.006859,0.999999,-0.000514,-0.000204,0.001521,-0.008184,0.623223,-0.394189,-0.675382,99.520062,58.025040,-114.911079
36426,-8.227658,5.210700,-0.594204,-0.273249,0.046891,-0.059642,-0.178320,-0.040143,0.282315,-0.082349,0.051985,-0.006005,0.999999,-0.000892,-0.000201,0.001412,-0.006721,0.622496,-0.394493,-0.675891,99.331513,57.863343,-115.011844
36427,-8.143125,4.983722,-0.675352,-0.083561,0.135193,-0.243009,-0.236813,-0.025223,0.271987,-0.081498,0.049718,-0.006823,0.999998,-0.001184,-0.000126,0.001360,-0.005142,0.621805,-0.394621,-0.676467,99.125498,57.706084,-115.103711
36428,-8.307962,4.958662,-0.845610,0.136309,0.155691,-0.102758,-0.266148,-0.013234,0.254360,-0.083142,0.049470,-0.008527,0.999998,-0.001331,-0.000066,0.001272,-0.003448,0.621222,-0.394540,-0.677060,98.917442,57.557414,-115.168339
36429,-8.287321,4.767235,-0.680502,0.115322,0.380487,-0.236093,-0.257271,-0.034407,0.244552,-0.082930,0.047562,-0.006881,0.999998,-0.001286,-0.000172,0.001223,-0.001916,0.620550,-0.394509,-0.677699,98.697929,57.416183,-115.262581
36430,-8.259271,4.920316,-0.868524,0.216840,0.173536,-0.163739,-0.182555,-0.039879,0.224025,-0.082646,0.049103,-0.008747,0.999999,-0.000913,-0.000199,0.001120,-0.000637,0.619932,-0.394614,-0.678206,98.520527,57.286739,-115.347887
36431,-8.086390,4.985191,-0.722351,0.047015,0.134624,-0.286763,-0.237911,-0.044246,0.216493,-0.080916,0.049756,-0.007301,0.999999,-0.001190,-0.000221,0.001082,0.000720,0.619278,-0.394560,-0.678834,98.309322,57.161942,-115.445691
36432,-8.068858,4.636054,-0.900109,0.387126,0.282234,-0.475659,-0.253703,-0.012406,0.199821,-0.080734,0.046268,-0.009065,0.999999,-0.001269,-0.000062,0.000999,0.002192,0.618798,-0.394347,-0.679393,98.120365,57.043660,-115.496448
36433,-8.306269,4.583050,-0.972504,0.550858,0.408005,-0.300892,-0.188211,-0.013483,0.191519,-0.083106,0.045742,-0.009774,0.999999,-0.000941,-0.000067,0.000958,0.003371,0.618296,-0.394382,-0.679825,97.969498,56.930271,-115.556494
36434,-8.340216,4.839475,-0.793343,0.301410,0.354904,-0.148719,-0.081783,-0.027581,0.166658,-0.083441,0.048322,-0.007965,1.000000,-0.000409,-0.000138,0.000833,0.004168,0.617830,-0.394649,-0.680089,97.871148,56.831867,-115.616807
36435,-8.097627,5.099341,-0.723389,0.074727,0.103856,-0.216764,-0.097709,-0.021155,0.150222,-0.081014,0.050929,-0.007267,1.000000,-0.000489,-0.000106,0.000751,0.004911,0.617383,-0.394863,-0.680366,97.771413,56.742432,-115.677837
36436,-8.115266,5.093726,-0.891420,0.238153,0.036267,-0.192907,-0.130984,-0.008309,0.136742,-0.081187,0.050876,-0.008951,1.000000,-0.000655,-0.000042,0.000684,0.005797,0.617039,-0.394869,-0.680667,97.665909,56.659415,-115.713106
36437,-8.306483,4.950475,-0.857594,0.337902,0.255513,-0.114190,-0.134525,0.002220,0.119211,-0.083094,0.049449,-0.008608,1.000000,-0.000673,0.000011,0.000596,0.006594,0.616730,-0.394860,-0.680945,97.569564,56.585721,-115.744916
36438,-8.425357,4.966220,-0.916091,0.420705,0.279959,-0.002804,-0.096528,-0.009979,0.104907,-0.084279,0.049614,-0.009189,1.000000,-0.000483,-0.000050,0.000525,0.007262,0.616444,-0.394885,-0.681183,97.486567,56.520848,-115.776931
36439,-8.426547,5.048627,-0.635106,0.154503,0.378418,0.022535,-0.050798,-0.022282,0.079683,-0.084285,0.050451,-0.006373,1.000000,-0.000254,-0.000111,0.000398,0.007678,0.616167,-0.394986,-0.681370,97.422027,56.471413,-115.818170
36440,-8.226969,5.195948,-0.839300,0.217762,0.074149,-0.048856,-0.033731,-0.035122,0.063992,-0.082285,0.051932,-0.008416,1.000000,-0.000169,-0.000176,0.000320,0.007963,0.615877,-0.395099,-0.681563,97.358351,56.431599,-115.870211
36441,-8.147475,5.424305,-0.629509,-0.079419,-0.008117,-0.004816,-0.039746,-0.026244,0.059257,-0.081490,0.054218,-0.006317,1.000000,-0.000199,-0.000131,0.000296,0.008267,0.615627,-0.395175,-0.681741,97.299279,56.394021,-115.912531
36442,-7.950824,5.435538,-0.581557,-0.164519,-0.085148,-0.165690,-0.048239,-0.034095,0.063526,-0.079525,0.054329,-0.005842,1.000000,-0.000241,-0.000170,0.000318,0.008597,0.615341,-0.395237,-0.681959,97.228478,56.354334,-115.963193
36443,-7.708467,5.584163,-0.477683,-0.372203,-0.249862,-0.292679,-0.078771,-0.023888,0.074483,-0.077105,0.055811,-0.004808,1.000000,-0.000394,-0.000119,0.000372,0.009078,0.615067,-0.395226,-0.682207,97.147661,56.307870,-116.004812
36444,-7.656960,5.491975,-0.541946,-0.274406,-0.242006,-0.381323,-0.154273,-0.009181,0.103824,-0.076598,0.054876,-0.005465,1.000000,-0.000771,-0.000046,0.000519,0.009921,0.614781,-0.395049,-0.682555,97.033395,56.243424,-116.034746
36445,-7.773314,5.385775,-0.575544,-0.152392,-0.122733,-0.340416,-0.149020,-0.013337,0.133801,-0.077769,0.053801,-0.005801,0.999999,-0.000745,-0.000067,0.000669,0.010841,0.614422,-0.394980,-0.682905,96.915541,56.162390,-116.072553
36446,-7.765433,5.854753,-0.234153,-0.650493,-0.260031,-0.109897,-0.026023,-0.025487,0.159256,-0.077701,0.058485,-0.002359,1.000000,-0.000130,-0.000127,0.000796,0.011447,0.613977,-0.395411,-0.683046,96.855770,56.067474,-116.125414
36447,-7.657872,6.472314,-0.674929,-0.577371,-0.957960,0.174219,-0.170680,0.008048,0.190785,-0.076641,0.064644,-0.006801,0.999999,-0.000853,0.000040,0.000954,0.012611,0.613540,-0.395495,-0.683369,96.738403,55.952491,-116.157743
36448,-7.886828,6.111141,-0.477236,-0.496550,-0.478561,0.152262,-0.278392,0.029219,0.220854,-0.078936,0.061018,-0.004846,0.999998,-0.001392,0.000146,0.001104,0.014310,0.613142,-0.395248,-0.683835,96.574892,55.818769,-116.161399
36449,-7.875794,5.841101,-0.798565,-0.075510,-0.452189,0.014523,-0.274612,0.051460,0.240254,-0.078830,0.058305,-0.008045,0.999998,-0.001373,0.000257,0.001201,0.016047,0.612746,-0.395123,-0.684224,96.430594,55.672711,-116.154328
36450,-8.140240,5.556076,-0.934192,0.262924,-0.175998,0.082060,-0.340796,0.078697,0.253631,-0.081476,0.055441,-0.009404,0.999998,-0.001704,0.000393,0.001268,0.018148,0.612443,-0.394756,-0.684655,96.270511,55.517180,-116.110505
36451,-8.550568,5.268254,-0.960518,0.543887,0.236760,0.258925,-0.220793,0.056975,0.269322,-0.085579,0.052557,-0.009639,0.999998,-0.001104,0.000285,0.001347,0.019830,0.612008,-0.394901,-0.684913,96.159910,55.354263,-116.099903
36452,-8.288567,5.764099,-0.403405,-0.204320,0.072627,0.288839,-0.054923,0.018924,0.268333,-0.082963,0.057529,-0.004042,0.999999,-0.000275,0.000095,0.001342,0.020988,0.611495,-0.395561,-0.684956,96.113599,55.194111,-116.116773
36453,-7.876769,5.673596,-0.855916,0.138253,-0.287043,-0.072862,-0.191620,0.075278,0.277126,-0.078849,0.056619,-0.008584,0.999999,-0.000958,0.000376,0.001386,0.022644,0.611107,-0.395825,-0.685097,96.034367,55.025675,-116.088227
36454,-8.309437,5.374102,-0.713325,0.279954,0.238651,0.102006,-0.170664,0.092682,0.292576,-0.083176,0.053613,-0.007141,0.999998,-0.000853,0.000463,0.001463,0.024384,0.610783,-0.396153,-0.685137,95.980239,54.847266,-116.033697
36455,-8.157756,5.815192,0.033128,-0.581759,0.268085,0.185120,0.031145,0.047310,0.285551,-0.081660,0.058035,0.000360,0.999999,0.000156,0.000237,0.001428,0.025333,0.610305,-0.397207,-0.684918,96.005316,54.675736,-116.033554
36456,-7.729791,6.149127,-0.335827,-0.511220,-0.344378,0.051094,-0.133647,0.108493,0.298477,-0.077391,0.061374,-0.003357,0.999999,-0.000668,0.000542,0.001492,0.027011,0.610024,-0.397676,-0.684833,95.984048,54.493024,-115.964491
36457,-8.196200,6.385358,-0.739425,-0.134384,-0.441039,0.593300,-0.159936,0.094391,0.311828,-0.082065,0.063720,-0.007407,0.999998,-0.000800,0.000472,0.001559,0.028726,0.609627,-0.398147,-0.684842,95.934932,54.303712,-115.920884
36458,-7.630983,7.627254,0.560884,-1.926645,-0.892872,0.780339,-0.043016,-0.030761,0.309054,-0.076428,0.076156,0.005581,0.999999,-0.000215,-0.000154,0.001545,0.029887,0.608857,-0.398976,-0.684995,95.854310,54.123236,-115.988682
36459,-6.536280,8.212034,-0.657703,-1.388657,-2.468450,0.315058,-0.441892,0.061272,0.313731,-0.065494,0.082003,-0.006738,0.999996,-0.002209,0.000306,0.001569,0.032402,0.608295,-0.398488,-0.685664,95.617867,53.934818,-115.976652
36460,-6.825858,7.181320,-1.051646,-0.459136,-1.802807,-0.024519,-1.136235,0.264619,0.348052,-0.068398,0.071633,-0.010833,0.999981,-0.005681,0.001323,0.001740,0.037610,0.608270,-0.395631,-0.687073,95.141442,53.715881,-115.759156
36461,-7.813347,3.735951,-2.191013,2.327814,0.538137,-1.204694,-1.425534,0.364373,0.386375,-0.078245,0.037052,-0.022032,0.999971,-0.007128,0.001822,0.001932,0.043966,0.608395,-0.391911,-0.688715,94.574923,53.471415,-115.456864
36462,-8.937469,1.337651,-2.080617,3.552225,2.892656,-1.749770,-0.810589,0.239564,0.380386,-0.089425,0.013122,-0.020753,0.999989,-0.004053,0.001198,0.001902,0.048244,0.608247,-0.390250,-0.689502,94.265828,53.237294,-115.262040
36463,-9.036576,1.612152,-1.629796,3.080945,3.009268,-1.544255,0.175264,0.080455,0.334589,-0.090399,0.015985,-0.016248,0.999998,0.000876,0.000402,0.001673,0.048993,0.607836,-0.391934,-0.688856,94.402113,53.036523,-115.225927
36464,-8.635533,3.918288,-0.439721,0.989692,1.807858,-0.546037,0.762283,-0.026814,0.296002,-0.086413,0.039071,-0.004260,0.999992,0.003811,-0.000134,0.001480,0.047676,0.607303,-0.395492,-0.687383,94.794578,52.862470,-115.280198
36465,-7.502159,5.689974,-0.332640,-0.150620,0.072526,-0.392462,0.851636,-0.006648,0.292570,-0.075105,0.056803,-0.003087,0.999990,0.004258,-0.000033,0.001463,0.046054,0.606821,-0.399387,-0.685665,95.252119,52.689852,-115.327133
36466,-7.430231,7.497096,-0.240081,-1.044527,-1.091961,0.636647,0.752402,0.073605,0.310962,-0.074420,0.074864,-0.002092,0.999992,0.003762,0.000368,0.001555,0.045017,0.606578,-0.402919,-0.683880,95.709801,52.502296,-115.292433
36467,-7.533968,9.502774,0.973865,-2.955757,-1.718602,1.862986,0.565228,-0.055322,0.299477,-0.075485,0.094887,0.009986,0.999995,0.002826,-0.000277,0.001497,0.044186,0.605832,-0.405852,-0.682861,95.963848,52.328882,-115.389245
36468,-6.226994,10.822521,2.109279,-4.848489,-2.709993,1.567097,-0.044326,-0.030278,0.249575,-0.062408,0.108152,0.021059,0.999999,-0.000222,-0.000151,0.001248,0.045144,0.605169,-0.406493,-0.683005,95.891028,52.182298,-115.447980
36469,-6.447425,9.707829,-1.306219,-1.293417,-3.554321,1.287319,-1.393665,0.368917,0.208566,-0.064600,0.096917,-0.013619,0.999973,-0.006968,0.001845,0.001043,0.050794,0.605595,-0.402353,-0.684680,95.341556,52.036588,-115.141031
36470,-8.044629,5.834188,-1.742041,1.237004,-0.284174,0.196135,-2.232658,0.454684,0.253544,-0.080560,0.058042,-0.017886,0.999934,-0.011163,0.002273,0.001268,0.059366,0.605992,-0.395365,-0.687703,94.372410,51.863568,-114.746032
36471,-8.734589,1.411684,-2.083589,3.544328,2.977744,-1.989791,-1.650290,0.275099,0.289061,-0.087395,0.013819,-0.020831,0.999964,-0.008251,0.001375,0.001445,0.065875,0.605777,-0.390554,-0.690045,93.605947,51.681112,-114.526698
36472,-8.766696,0.818630,-2.224300,3.922029,3.373024,-2.348576,-0.384703,0.066132,0.216607,-0.087683,0.008049,-0.022230,0.999998,-0.001924,0.000331,0.001083,0.067950,0.605412,-0.389890,-0.690540,93.418063,51.548613,-114.483945
36473,-8.237247,2.544125,-1.219890,2.246900,2.363429,-1.739362,0.331338,-0.064137,0.187980,-0.082392,0.025384,-0.012183,0.999998,0.001657,-0.000321,0.000940,0.067443,0.604859,-0.391706,-0.690046,93.547927,51.437207,-114.569310
36474,-7.583747,4.393462,-1.071356,1.234716,0.812266,-1.107564,0.769670,-0.117375,0.189674,-0.075873,0.043904,-0.010589,0.999992,0.003848,-0.000587,0.000948,0.065572,0.604295,-0.395002,-0.688841,93.890478,51.326831,-114.694047
36475,-7.280158,6.759528,-0.286729,-0.483554,-0.571289,0.097592,0.950754,-0.100909,0.195248,-0.072866,0.067537,-0.002583,0.999988,0.004754,-0.000505,0.000976,0.063143,0.603789,-0.398977,-0.687218,94.347651,51.213396,-114.815052
36476,-7.437009,8.553687,0.843186,-2.183563,-1.111090,1.286090,0.663094,-0.028266,0.196118,-0.074455,0.085435,0.008705,0.999994,0.003315,-0.000141,0.000981,0.061791,0.603464,-0.401884,-0.685932,94.690862,51.096415,-114.860936
36477,-7.663697,9.238883,1.287596,-2.807400,-1.189663,1.868506,0.174201,0.011616,0.160669,-0.076710,0.092316,0.012961,0.999999,0.000871,0.000058,0.000803,0.061812,0.603156,-0.403044,-0.685520,94.783725,50.998103,-114.878581
36478,-7.535456,9.428162,1.132003,-2.765007,-1.453355,1.900431,-0.410033,0.056335,0.117976,-0.075407,0.094260,0.011148,0.999998,-0.002050,0.000282,0.000590,0.063599,0.602940,-0.402007,-0.686155,94.576001,50.921871,-114.842292
36479,-7.554351,8.202896,0.157154,-1.364474,-1.101391,1.201174,-1.025731,0.168149,0.102353,-0.075584,0.081997,0.001214,0.999986,-0.005129,0.000841,0.000512,0.067351,0.602899,-0.398819,-0.687692,94.095210,50.849972,-114.713132
36480,-8.133675,6.369237,-0.099607,-0.207810,0.323604,0.511340,-1.217773,0.186669,0.100302,-0.081370,0.063644,-0.001308,0.999981,-0.006089,0.000933,0.000502,0.071771,0.602876,-0.394894,-0.689527,93.518193,50.779243,-114.556130
36481,-7.946766,4.923830,-0.699729,0.873932,0.909378,-0.523234,-1.045890,0.142060,0.086060,-0.079494,0.049167,-0.007198,0.999986,-0.005229,0.000710,0.000430,0.075472,0.602735,-0.391573,-0.691148,93.009310,50.719145,-114.448039
36482,-7.809785,4.280914,-1.107001,1.473414,1.084862,-1.026535,-0.792112,0.146769,0.078422,-0.078123,0.042734,-0.011182,0.999992,-0.003961,0.000734,0.000392,0.078451,0.602742,-0.389044,-0.692237,92.649971,50.663768,-114.324634
36483,-7.621909,3.965371,-1.104737,1.558032,1.198310,-1.376180,-0.470165,0.104629,0.085379,-0.076242,0.039595,-0.011101,0.999997,-0.002351,0.000523,0.000427,0.080338,0.602675,-0.387714,-0.692825,92.445440,50.606007,-114.249380
36484,-7.404624,4.319710,-1.018394,1.307489,0.875556,-1.324498,-0.105254,0.083031,0.096078,-0.074071,0.043156,-0.010176,1.000000,-0.000526,0.000415,0.000480,0.081183,0.602692,-0.387636,-0.692756,92.434797,50.542610,-114.183821
36485,-7.306077,5.017861,-0.875208,0.902459,0.414933,-0.961865,0.203885,0.086199,0.113024,-0.073093,0.050146,-0.008669,0.999999,0.001019,0.000431,0.000565,0.081099,0.602777,-0.388729,-0.692078,92.602614,50.469576,-114.126401
36486,-7.369483,5.846719,-0.449465,0.222569,0.093800,-0.397967,0.443472,0.161991,0.137005,-0.073738,0.058426,-0.004305,0.999997,0.002217,0.000810,0.000685,0.080584,0.603207,-0.390641,-0.690686,92.958937,50.380316,-113.992500
36487,-7.617630,6.473389,-0.067042,-0.312917,0.012968,0.179271,0.480676,0.229597,0.169057,-0.076232,0.064671,-0.000427,0.999996,0.002403,0.001148,0.000845,0.080139,0.603784,-0.392799,-0.689008,93.380791,50.270217,-113.810912
36488,-7.805867,7.234479,0.284861,-0.890843,-0.198074,0.794731,0.414333,0.245336,0.183108,-0.078121,0.072267,0.003094,0.999997,0.002072,0.001227,0.000916,0.080033,0.604391,-0.394710,-0.687394,93.773381,50.150437,-113.607668
36489,-7.396313,7.606016,0.551882,-1.395209,-0.533715,0.705389,0.163058,0.207007,0.205676,-0.074035,0.075979,0.005657,0.999999,0.000815,0.001035,0.001028,0.080628,0.604684,-0.395891,-0.686387,93.993183,50.018753,-113.451556
36490,-7.194677,7.633506,-0.347018,-0.663314,-1.041744,0.609833,-0.058456,0.313239,0.194254,-0.072026,0.076264,-0.003380,0.999998,-0.000292,0.001566,0.000971,0.082124,0.605307,-0.396181,-0.685492,94.157858,49.888711,-113.191415
36491,-7.559160,7.749523,0.719596,-1.565992,-0.409452,0.915492,-0.334529,0.312795,0.177867,-0.075649,0.077440,0.007185,0.999997,-0.001673,0.001564,0.000889,0.084338,0.605810,-0.395526,-0.685157,94.163595,49.767962,-112.941693
36492,-7.515832,6.635227,-0.188473,-0.342982,-0.072866,0.208616,-0.480511,0.266692,0.145796,-0.075209,0.066293,-0.001944,0.999996,-0.002403,0.001333,0.000729,0.086852,0.606188,-0.394239,-0.685251,94.055662,49.667424,-112.721003
36493,-7.428395,6.110411,-1.441528,0.965533,-0.304164,-0.139457,-0.518367,0.377431,0.088619,-0.074338,0.061034,-0.014433,0.999995,-0.002592,0.001887,0.000443,0.089443,0.607001,-0.392648,-0.685111,94.002652,49.595445,-112.409350
36494,-7.640157,5.683596,-1.380035,1.123428,0.154711,-0.257914,-0.614364,0.479297,0.094301,-0.076461,0.056758,-0.013792,0.999992,-0.003072,0.002396,0.000472,0.092604,0.608135,-0.390644,-0.684831,93.962294,49.516197,-111.998564
36495,-7.484098,4.886549,-1.517950,1.491526,0.563900,-0.887914,-0.493693,0.474547,0.111458,-0.074904,0.048786,-0.015122,0.999994,-0.002468,0.002373,0.000557,0.095386,0.609234,-0.389153,-0.684321,93.986056,49.427520,-111.603784
36496,-6.987779,4.800168,-1.777731,1.631197,0.240268,-1.309018,-0.149701,0.448072,0.142841,-0.069952,0.047938,-0.017657,0.999997,-0.000749,0.002240,0.000714,0.097235,0.610373,-0.388893,-0.683193,94.186653,49.321323,-111.225188
36497,-6.760809,5.389963,-1.757374,1.337099,-0.258707,-1.095252,0.192933,0.424918,0.189199,-0.067696,0.053852,-0.017378,0.999997,0.000965,0.002125,0.000946,0.098091,0.611473,-0.390006,-0.681451,94.563973,49.188600,-110.881745
36498,-6.808404,6.114453,-1.115479,0.480750,-0.417674,-0.615985,0.471661,0.394663,0.230369,-0.068176,0.061092,-0.010876,0.999995,0.002358,0.001973,0.001152,0.098235,0.612554,-0.392153,-0.679223,95.076243,49.031854,-110.560297
36499,-6.969210,6.359249,-0.253373,-0.395242,-0.084510,-0.383455,0.572358,0.362230,0.227701,-0.069769,0.063520,-0.002226,0.999994,0.002862,0.001811,0.001139,0.097938,0.613538,-0.394698,-0.676899,95.622126,48.876613,-110.280032
36500,-7.106363,6.148982,-0.274215,-0.313239,0.172240,-0.418138,0.443861,0.309554,0.161324,-0.071117,0.061438,-0.002496,0.999996,0.002219,0.001548,0.000807,0.097765,0.614440,-0.396574,-0.675007,96.061902,48.760458,-110.032314
36501,-7.258465,5.652055,-0.693087,0.242161,0.454355,-0.601489,0.259266,0.375665,0.099696,-0.072626,0.056493,-0.006721,0.999997,0.001296,0.001878,0.000498,0.098022,0.615558,-0.397656,-0.673313,96.441556,48.674297,-109.733473
36502,-7.695988,5.310751,-0.711863,0.443906,0.969278,-0.495909,0.283660,0.353772,0.030755,-0.076980,0.053106,-0.006907,0.999997,0.001418,0.001769,0.000154,0.097988,0.616783,-0.398563,-0.671659,96.825021,48.627283,-109.437859
36503,-7.805167,5.440608,-0.638773,0.313881,1.000796,-0.334894,0.519775,0.272698,-0.029410,-0.078052,0.054434,-0.006140,0.999996,0.002599,0.001363,-0.000147,0.096801,0.617932,-0.400167,-0.669818,97.295626,48.618948,-109.216283
36504,-7.771525,6.219785,-0.463801,-0.186129,0.553744,0.134970,0.680537,0.171049,-0.087302,-0.077692,0.062247,-0.004360,0.999994,0.003403,0.000855,-0.000437,0.094780,0.618962,-0.402124,-0.667981,97.797700,48.649633,-109.065542
36505,-7.085952,7.054378,-0.732005,-0.443067,-0.530033,0.188986,0.296218,0.071304,-0.133051,-0.070815,0.070602,-0.007190,0.999999,0.001481,0.000357,-0.000665,0.093534,0.619530,-0.402752,-0.667251,98.019684,48.713754,-109.004652
36506,-6.515862,7.004120,-1.660467,0.275860,-1.246469,-0.187641,-0.229783,0.250256,-0.108682,-0.065141,0.070058,-0.016604,0.999998,-0.001149,0.001251,-0.000543,0.094419,0.620433,-0.401563,-0.667005,98.054025,48.749371,-108.782501
36507,-6.677582,6.440669,-1.551898,0.420452,-0.727909,-0.443905,-0.402606,0.442256,-0.071108,-0.066787,0.064399,-0.015501,0.999995,-0.002013,0.002211,-0.000356,0.096291,0.621781,-0.399875,-0.666496,98.110222,48.748296,-108.409642
36508,-6.943947,6.133689,-1.254533,0.314684,-0.228841,-0.471221,-0.394501,0.519424,-0.056490,-0.069455,0.061332,-0.012486,0.999995,-0.001973,0.002597,-0.000282,0.098399,0.623389,-0.398165,-0.665709,98.219500,48.732081,-107.962287
36509,-7.465299,5.902493,-0.678189,-0.033991,0.495485,-0.284658,-0.198234,0.493054,-0.047271,-0.074656,0.059036,-0.006656,0.999996,-0.000991,0.002465,-0.000236,0.099813,0.624948,-0.397200,-0.664613,98.423104,48.712212,-107.548961
36510,-7.697995,5.890771,-0.322792,-0.326098,0.800858,-0.152627,-0.090133,0.296626,-0.029967,-0.076976,0.058918,-0.003140,0.999999,-0.000451,0.001483,-0.000150,0.100616,0.625905,-0.396691,-0.663895,98.559954,48.698135,-107.296780
36511,-7.385140,6.118047,-0.428902,-0.384478,0.413993,-0.229602,-0.080285,0.164718,-0.028209,-0.073846,0.061189,-0.004253,1.000000,-0.000401,0.000824,-0.000141,0.101072,0.626390,-0.396340,-0.663577,98.617155,48.694280,-107.168119
36512,-7.375456,6.151060,-0.054055,-0.747434,0.536716,-0.252924,0.000677,0.112919,-0.043844,-0.073741,0.061527,-0.000499,1.000000,0.000003,0.000565,-0.000219,0.101180,0.626810,-0.396181,-0.663259,98.688867,48.703430,-107.071877
36513,-7.675143,6.188964,-0.323743,-0.461743,0.589589,0.023729,-0.021908,-0.006139,-0.079984,-0.076727,0.061920,-0.003247,1.000000,-0.000110,-0.000031,-0.000400,0.101002,0.626895,-0.395892,-0.663379,98.674425,48.743538,-107.073082
36514,-7.472177,6.314465,-0.782089,-0.123739,0.183787,-0.001039,-0.159960,-0.069665,-0.124967,-0.074680,0.063185,-0.007897,0.999999,-0.000800,-0.000348,-0.000625,0.100983,0.626788,-0.395038,-0.663992,98.544172,48.814353,-107.123104
36515,-7.181870,6.567046,-1.373472,0.283758,-0.419757,0.002352,-0.360022,-0.023529,-0.128556,-0.071775,0.065692,-0.013861,0.999998,-0.001800,-0.000118,-0.000643,0.101668,0.626739,-0.393482,-0.664857,98.329177,48.883457,-107.133358
36516,-7.112324,6.576447,-1.327463,0.245584,-0.467267,-0.049580,-0.324132,-0.032351,-0.088202,-0.071092,0.065774,-0.013393,0.999999,-0.001621,-0.000162,-0.000441,0.102358,0.626597,-0.392177,-0.665655,98.124955,48.930144,-107.156620
36517,-6.971226,6.400862,-0.680588,-0.298749,-0.191745,-0.330799,-0.042533,-0.023741,-0.029031,-0.069702,0.064017,-0.006828,1.000000,-0.000213,-0.000119,-0.000145,0.102321,0.626477,-0.392043,-0.665852,98.082043,48.942757,-107.189906
36518,-7.292187,6.553128,0.012828,-0.925006,0.179811,-0.054016,0.092188,-0.006317,-0.010833,-0.072918,0.065535,0.000156,1.000000,0.000461,-0.000032,-0.000054,0.102016,0.626482,-0.392352,-0.665712,98.125997,48.943421,-107.200368
36519,-7.497348,6.893231,-0.728031,-0.324903,-0.214773,0.390507,-0.163386,-0.035030,-0.035375,-0.074960,0.068940,-0.007350,1.000000,-0.000817,-0.000175,-0.000177,0.102372,0.626309,-0.391747,-0.666176,98.007018,48.960522,-107.232672
36520,-7.457068,6.726865,-0.988529,-0.020049,-0.238074,0.275853,-0.262215,-0.019357,-0.024159,-0.074562,0.067265,-0.009981,0.999999,-0.001311,-0.000097,-0.000121,0.103107,0.626115,-0.390840,-0.666778,97.840613,48.969758,-107.252810
36521,-7.510400,6.653931,-0.438422,-0.474062,0.056167,0.219522,-0.035641,-0.073519,0.017260,-0.075108,0.066532,-0.004424,1.000000,-0.000178,-0.000368,0.000086,0.103105,0.625742,-0.390900,-0.667094,97.764915,48.959865,-107.334759
36522,-7.417012,6.656053,-0.177585,-0.722174,0.098140,0.127910,-0.053711,-0.076061,0.029456,-0.074179,0.066549,-0.001822,1.000000,-0.000269,-0.000380,0.000147,0.103254,0.625361,-0.390885,-0.667437,97.676231,48.942977,-107.410250
36523,-7.566208,6.560059,-0.964562,0.068923,-0.052730,0.247369,-0.012832,-0.037238,0.010401,-0.075664,0.065596,-0.009664,1.000000,-0.000064,-0.000186,0.000052,0.103288,0.625167,-0.390925,-0.667589,97.637896,48.934085,-107.449984
36524,-7.360675,7.194555,-0.899758,-0.251625,-0.580971,0.499921,0.095561,-0.053412,0.031708,-0.073616,0.071938,-0.008983,1.000000,0.000478,-0.000267,0.000159,0.103022,0.624934,-0.391403,-0.667568,97.649378,48.914126,-107.506086
36525,-7.268951,7.140119,-0.986199,-0.163965,-0.632891,0.403187,-0.189169,0.002247,0.054514,-0.072709,0.071372,-0.009929,1.000000,-0.000946,0.000011,0.000273,0.103831,0.624695,-0.390973,-0.667919,97.531943,48.877148,-107.516738
36526,-7.583363,6.352696,-0.758126,-0.017355,0.184758,0.107213,-0.305699,0.028557,0.051678,-0.075851,0.063496,-0.007668,0.999999,-0.001528,0.000143,0.000258,0.105046,0.624488,-0.390131,-0.668415,97.365303,48.839629,-107.504136
36527,-7.540187,6.047020,-0.521222,-0.125151,0.458019,-0.144849,-0.048123,0.014895,0.036747,-0.075413,0.060455,-0.005221,1.000000,-0.000241,0.000074,0.000184,0.105321,0.624364,-0.390163,-0.668468,97.338583,48.811781,-107.511643
36528,-7.184966,6.550635,-0.823708,-0.088811,-0.218736,-0.057826,-0.001044,-0.019416,0.035742,-0.071861,0.065493,-0.008244,1.000000,-0.000005,-0.000097,0.000179,0.105438,0.624187,-0.390314,-0.668527,97.316758,48.786842,-107.538556
36529,-6.880017,6.447660,-1.147433,0.190671,-0.463271,-0.327300,-0.184564,0.054397,0.062566,-0.068823,0.064444,-0.011515,0.999999,-0.000923,0.000272,0.000313,0.106361,0.624107,-0.389895,-0.668700,97.235369,48.741459,-107.504797
36530,-7.118027,6.015846,-1.185185,0.431473,-0.030969,-0.427900,-0.194924,0.101658,0.080244,-0.071210,0.060118,-0.011874,0.999999,-0.000975,0.000508,0.000401,0.107468,0.624144,-0.389472,-0.668735,97.177310,48.682484,-107.432130
36531,-7.365837,5.847121,-1.009271,0.381263,0.316175,-0.367177,-0.015213,0.074558,0.088068,-0.073688,0.058438,-0.010070,1.000000,-0.000076,0.000373,0.000440,0.107928,0.624138,-0.389742,-0.668509,97.203898,48.621185,-107.393748
36532,-7.309301,6.046283,-0.612734,-0.062595,0.310558,-0.312241,0.038855,0.041536,0.093239,-0.073122,0.060430,-0.006100,1.000000,0.000194,0.000208,0.000466,0.108231,0.624074,-0.390174,-0.668268,97.239722,48.559141,-107.374362
36533,-7.220384,5.981891,-0.898300,0.206778,0.197249,-0.397687,-0.039265,0.013576,0.096569,-0.072233,0.059782,-0.008990,1.000000,-0.000196,0.000068,0.000483,0.108734,0.623867,-0.390368,-0.668266,97.212421,48.497398,-107.379420
36534,-6.921187,6.030173,-1.059258,0.280537,-0.076409,-0.576710,0.094262,0.023011,0.098150,-0.069243,0.060273,-0.010556,1.000000,0.000471,0.000115,0.000491,0.108845,0.623761,-0.391010,-0.667972,97.267619,48.433896,-107.376525
36535,-7.009481,6.310759,-0.608616,-0.218361,-0.021408,-0.363838,0.152573,0.085922,0.095033,-0.070127,0.063079,-0.006008,1.000000,0.000763,0.000430,0.000475,0.108886,0.623903,-0.391800,-0.667369,97.396567,48.367746,-107.319641
36536,-7.513597,6.136113,-0.636324,-0.040845,0.416728,-0.100037,0.031626,0.092656,0.058724,-0.075157,0.061340,-0.006319,1.000000,0.000158,0.000463,0.000294,0.109196,0.624072,-0.392072,-0.667001,97.463395,48.321478,-107.253141
36537,-7.360395,5.925050,-1.194116,0.510509,0.252344,-0.305677,-0.001000,0.051244,0.030895,-0.073616,0.059239,-0.011923,1.000000,-0.000005,0.000256,0.000154,0.109434,0.624140,-0.392168,-0.666842,97.487268,48.294261,-107.219048
36538,-6.942347,6.154338,-0.826147,0.006090,-0.017973,-0.498494,0.122300,0.068243,0.028016,-0.069435,0.061539,-0.008200,1.000000,0.000612,0.000341,0.000140,0.109312,0.624337,-0.392659,-0.666388,97.592874,48.267186,-107.170133
36539,-7.089909,6.254501,-1.100224,0.241986,-0.089985,-0.297992,0.106022,0.087709,0.011604,-0.070908,0.062547,-0.010938,1.000000,0.000530,0.000439,0.000058,0.109222,0.624622,-0.393032,-0.665915,97.702796,48.248080,-107.102878
36540,-7.291766,6.331568,-1.257036,0.387379,-0.067872,-0.082113,0.123628,0.077949,-0.007589,-0.072920,0.063326,-0.012503,1.000000,0.000618,0.000390,-0.000038,0.108996,0.624922,-0.393411,-0.665448,97.818258,48.240342,-107.041745
36541,-7.445499,6.226183,-0.734989,-0.039385,0.307250,-0.084119,0.177870,0.086570,-0.027531,-0.074450,0.062279,-0.007262,1.000000,0.000889,0.000433,-0.000138,0.108550,0.625318,-0.393901,-0.664858,97.971970,48.243344,-106.970968
36542,-7.442538,6.390926,-0.480262,-0.345677,0.296670,-0.001549,0.170971,0.019402,-0.059350,-0.074407,0.063935,-0.004741,1.000000,0.000855,0.000097,-0.000297,0.107888,0.625550,-0.394306,-0.664507,98.081953,48.269468,-106.953544
36543,-7.325879,6.271051,-0.715538,-0.120204,0.207686,-0.145785,0.034858,0.022172,-0.089361,-0.073232,0.062744,-0.007136,1.000000,0.000174,0.000111,-0.000447,0.107498,0.625742,-0.394217,-0.664443,98.118426,48.312580,-106.940096
36544,-7.198976,6.068210,-0.915656,0.102957,0.177823,-0.355171,-0.005058,0.068087,-0.114618,-0.071958,0.060723,-0.009134,1.000000,-0.000025,0.000340,-0.000573,0.107299,0.626149,-0.393838,-0.664316,98.163723,48.366077,-106.874278
36545,-7.082130,6.169656,-0.871206,-0.004680,0.046577,-0.379872,0.031520,0.077294,-0.116679,-0.070789,0.061739,-0.008675,1.000000,0.000158,0.000386,-0.000583,0.106996,0.626610,-0.393567,-0.664090,98.236143,48.420156,-106.800233
36546,-7.513227,6.066892,-1.579916,0.754160,0.108945,-0.057112,0.001907,0.094513,-0.086086,-0.075114,0.060701,-0.015763,1.000000,0.000010,0.000473,-0.000430,0.106922,0.627052,-0.393286,-0.663852,98.299981,48.455201,-106.715068
36547,-7.972919,5.815497,-0.362118,-0.197274,1.039253,0.005642,0.166321,0.036253,-0.071183,-0.079709,0.058186,-0.003558,1.000000,0.000832,0.000181,-0.000356,0.106266,0.627359,-0.393628,-0.663464,98.419429,48.486778,-106.681477
36548,-7.809793,6.110516,-0.561816,-0.163742,0.657589,0.096281,0.384505,-0.147506,-0.103635,-0.078062,0.061156,-0.005558,0.999998,0.001923,-0.000738,-0.000518,0.104457,0.627235,-0.394689,-0.663239,98.549366,48.552013,-106.800794
36549,-7.099155,6.675996,-1.054904,-0.066871,-0.370419,-0.017892,0.282409,-0.075492,-0.134442,-0.070943,0.066822,-0.010481,0.999999,0.001412,-0.000377,-0.000672,0.102949,0.627320,-0.395329,-0.663013,98.669936,48.628942,-106.864438
36550,-7.361423,6.610132,-0.809842,-0.236022,-0.072988,0.110979,0.161799,0.068017,-0.179927,-0.073557,0.066174,-0.008020,0.999999,0.000809,0.000340,-0.000900,0.102011,0.627942,-0.395298,-0.662587,98.818479,48.718966,-106.788780
36551,-7.539272,6.587944,-1.242129,0.181475,-0.129157,0.273682,0.141617,0.014330,-0.199442,-0.075328,0.065963,-0.012369,0.999999,0.000708,0.000072,-0.000997,0.100907,0.628379,-0.395220,-0.662389,98.923098,48.824905,-106.766221
36552,-7.143466,6.658894,-1.132248,-0.036185,-0.396419,0.010421,0.154056,-0.007685,-0.189739,-0.071371,0.066665,-0.011274,0.999999,0.000770,-0.000038,-0.000949,0.099811,0.628763,-0.395171,-0.662219,99.019952,48.927048,-106.753525
36553,-7.063455,6.297919,-1.064099,0.005890,-0.192742,-0.291591,0.037059,0.003484,-0.186672,-0.070576,0.063047,-0.010628,1.000000,0.000185,0.000017,-0.000933,0.099056,0.629085,-0.394791,-0.662253,99.056830,49.026665,-106.741457
36554,-6.790633,6.036053,-1.449048,0.391538,-0.356159,-0.627580,0.032913,0.037639,-0.188644,-0.067852,0.060427,-0.014468,1.000000,0.000165,0.000188,-0.000943,0.098434,0.629556,-0.394321,-0.662179,99.114039,49.124070,-106.689406
36555,-6.770339,5.835324,-1.532343,0.521712,-0.278754,-0.763564,0.167063,0.086362,-0.181432,-0.067657,0.058427,-0.015245,0.999999,0.000835,0.000432,-0.000907,0.097450,0.630205,-0.394347,-0.661691,99.279542,49.213084,-106.605862
36556,-7.025521,5.589433,-1.679820,0.773858,-0.020159,-0.712017,0.195329,0.079650,-0.136455,-0.070224,0.055959,-0.016716,0.999999,0.000977,0.000398,-0.000682,0.096572,0.630791,-0.394557,-0.661137,99.452509,49.276901,-106.523977
36557,-7.361470,5.340663,-1.425906,0.675744,0.456015,-0.643036,0.376967,0.019414,-0.056339,-0.073601,0.053454,-0.014151,0.999998,0.001885,0.000097,-0.000282,0.095207,0.631071,-0.395703,-0.660382,99.681482,49.301217,-106.515556
36558,-7.345878,5.941356,0.103809,-0.971802,0.670579,-0.438351,0.812128,-0.077141,0.010112,-0.073462,0.059405,0.001251,0.999992,0.004061,-0.000386,0.000051,0.092556,0.631135,-0.398483,-0.659025,100.088988,49.297239,-106.590519
36559,-7.208507,7.300207,-0.156136,-1.324480,-0.404077,0.354031,0.917544,-0.124244,-0.007417,-0.072082,0.073011,-0.001271,0.999989,0.004588,-0.000621,-0.000037,0.089361,0.631081,-0.401623,-0.657610,100.528049,49.308569,-106.713514
36560,-7.301803,8.215982,-1.012273,-0.938731,-1.289908,1.109681,0.527736,0.002326,-0.039262,-0.073002,0.082200,-0.009905,0.999996,0.002639,0.000012,-0.000196,0.087602,0.631359,-0.403264,-0.656574,100.830664,49.324630,-106.711903
36561,-7.800592,8.075990,-0.955970,-0.867355,-0.856275,1.389955,0.019762,0.118738,-0.050422,-0.077991,0.080781,-0.009505,1.000000,0.000099,0.000594,-0.000252,0.087586,0.631782,-0.403205,-0.656206,100.919859,49.334573,-106.617901
36562,-8.023436,7.043498,-1.061548,-0.325888,-0.082530,0.911129,-0.181790,0.071065,-0.050204,-0.080220,0.070445,-0.010651,0.999999,-0.000909,0.000355,-0.000251,0.088170,0.631994,-0.402451,-0.656386,100.862426,49.349346,-106.555020
36563,-7.742429,6.266504,-1.431940,0.267274,0.094729,0.246354,-0.149847,0.013424,-0.063540,-0.077405,0.062679,-0.014361,1.000000,-0.000749,0.000067,-0.000318,0.088492,0.632057,-0.401784,-0.656691,100.787088,49.378038,-106.539812
36564,-7.457476,5.844191,-1.727617,0.649886,0.066901,-0.204027,-0.058532,0.016002,-0.076077,-0.074554,0.058465,-0.017287,1.000000,-0.000293,0.000080,-0.000380,0.088491,0.632194,-0.401378,-0.656808,100.767412,49.413354,-106.520268
36565,-7.394492,5.424195,-1.713157,0.787422,0.307243,-0.521785,0.027271,0.024745,-0.060767,-0.073931,0.054267,-0.017115,1.000000,0.000136,0.000124,-0.000304,0.088285,0.632367,-0.401296,-0.656719,100.800677,49.439287,-106.495715
36566,-7.330887,4.900257,-1.770106,1.024426,0.588988,-0.896897,0.193696,0.004645,-0.043807,-0.073299,0.049036,-0.017652,1.000000,0.000968,0.000023,-0.000219,0.087569,0.632513,-0.401824,-0.656351,100.914063,49.457652,-106.491261
36567,-6.993760,4.864523,-1.703106,0.897025,0.431370,-1.182158,0.524886,-0.000137,-0.032966,-0.069930,0.048701,-0.016903,0.999997,0.002624,-0.000001,-0.000165,0.085831,0.632764,-0.403473,-0.655326,101.212721,49.470636,-106.492698
36568,-6.623999,5.236641,-1.986422,0.901294,-0.157969,-1.186668,0.712182,0.044646,-0.007292,-0.066242,0.052439,-0.019663,0.999994,0.003561,0.000223,-0.000036,0.083674,0.633185,-0.405794,-0.653763,101.644818,49.463924,-106.459773
36569,-6.408268,5.526292,-1.921092,0.640516,-0.442004,-1.170319,0.740731,0.167920,0.031316,-0.064107,0.055323,-0.018952,0.999993,0.003704,0.000840,0.000157,0.081744,0.633898,-0.408329,-0.651735,102.168629,49.421029,-106.337670
36570,-6.579265,5.545024,-1.832683,0.534689,-0.287361,-1.036356,0.697596,0.282190,0.084658,-0.065842,0.055486,-0.018040,0.999993,0.003488,0.001411,0.000423,0.080416,0.634883,-0.410785,-0.649394,102.733837,49.333147,-106.118316
36571,-6.785363,5.695559,-1.293511,-0.024435,0.007938,-0.859884,0.764259,0.322512,0.138938,-0.067914,0.056957,-0.012608,0.999991,0.003821,0.001613,0.000695,0.079075,0.635868,-0.413662,-0.646764,103.353607,49.208486,-105.887063
36572,-7.024795,6.291760,-0.732958,-0.789703,0.057741,-0.386990,0.867096,0.277547,0.171490,-0.070312,0.062888,-0.006959,0.999989,0.004335,0.001388,0.000857,0.077476,0.636704,-0.416930,-0.644030,103.995747,49.069863,-105.693610
36573,-7.217445,7.174079,-0.862058,-1.082047,-0.396602,0.334896,0.837783,0.207244,0.175791,-0.072246,0.071712,-0.008245,0.999990,0.004189,0.001036,0.000879,0.075779,0.637245,-0.420190,-0.641574,104.573122,48.937652,-105.573351
36574,-7.403062,7.929436,-0.865619,-1.430704,-0.717115,0.951563,0.595611,0.174616,0.159424,-0.074101,0.079260,-0.008355,0.999995,0.002978,0.000873,0.000797,0.074789,0.637649,-0.422574,-0.639720,104.991979,48.818339,-105.469046
36575,-7.711394,7.858902,-1.117037,-1.155626,-0.554675,1.179696,0.211132,0.132304,0.152488,-0.077181,0.078542,-0.011036,0.999999,0.001056,0.000662,0.000762,0.074857,0.637749,-0.423773,-0.638819,105.163981,48.708985,-105.409871
36576,-8.000538,7.193364,-1.678115,-0.325057,-0.179355,1.069927,0.012349,0.116900,0.117712,-0.080057,0.071888,-0.016730,1.000000,0.000062,0.000584,0.000589,0.075470,0.637834,-0.424177,-0.638393,105.217936,48.620916,-105.346136
36577,-8.107030,6.798940,-2.171743,0.299434,-0.068019,0.984149,0.065461,0.069016,0.080380,-0.081105,0.067964,-0.021667,1.000000,0.000327,0.000345,0.000402,0.075638,0.637829,-0.424704,-0.638028,105.278404,48.560800,-105.324179
36578,-7.961454,6.738846,-2.272380,0.382652,-0.156944,0.854526,0.159119,0.018784,0.054948,-0.079635,0.067385,-0.022663,1.000000,0.000796,0.000094,0.000275,0.075375,0.637789,-0.425412,-0.637627,105.365401,48.522173,-105.328442
36579,-7.898926,6.571218,-2.134710,0.315336,-0.021990,0.676878,0.216083,0.004638,0.033969,-0.079001,0.065722,-0.021274,0.999999,0.001080,0.000023,0.000170,0.074833,0.637769,-0.426240,-0.637158,105.479709,48.497434,-105.339797
36580,-7.823123,6.326099,-1.760312,0.069958,0.256314,0.397546,0.297628,-0.037183,-0.000836,-0.078228,0.063287,-0.017523,0.999999,0.001488,-0.000186,-0.000004,0.073831,0.637720,-0.427232,-0.636659,105.620665,48.498207,-105.377978
36581,-7.612587,6.318267,-1.675902,-0.054204,0.166703,0.219753,0.340184,-0.064849,-0.044567,-0.076106,0.063228,-0.016676,0.999998,0.001701,-0.000324,-0.000223,0.072439,0.637653,-0.428284,-0.636179,105.776377,48.527603,-105.438988
36582,-7.211073,6.442354,-1.891924,-0.009575,-0.265650,0.036789,0.279282,-0.066688,-0.054204,-0.072087,0.064469,-0.018853,0.999999,0.001396,-0.000333,-0.000271,0.071263,0.637615,-0.429056,-0.635830,105.897814,48.562533,-105.489159
36583,-7.034606,6.230260,-1.624982,-0.188697,-0.126274,-0.279019,0.171891,-0.044627,-0.030256,-0.070333,0.062327,-0.016212,1.000000,0.000859,-0.000223,-0.000151,0.070496,0.637518,-0.429609,-0.635639,105.967230,48.580999,-105.536612
36584,-6.973993,5.738362,-1.284930,-0.275259,0.294974,-0.699310,0.117433,-0.074838,-0.008012,-0.069733,0.057394,-0.012842,1.000000,0.000587,-0.000374,-0.000040,0.069964,0.637296,-0.430016,-0.635646,105.982628,48.591850,-105.604495
36585,-6.781540,5.575263,-1.719457,0.139067,0.073962,-0.868161,0.240837,-0.100828,-0.009077,-0.067804,0.055776,-0.017162,0.999999,0.001204,-0.000504,-0.000045,0.068980,0.637035,-0.430819,-0.635470,106.052631,48.607574,-105.693802
36586,-6.694619,6.017590,-1.426170,-0.345623,-0.118205,-0.706106,0.319965,-0.073435,0.019432,-0.066947,0.060192,-0.014190,0.999999,0.001600,-0.000367,0.000097,0.067893,0.636826,-0.431955,-0.635025,106.179991,48.603206,-105.767103
36587,-6.827828,6.290245,-1.381114,-0.497876,-0.174243,-0.441688,0.224498,-0.041139,0.054407,-0.068293,0.062899,-0.013755,0.999999,0.001122,-0.000206,0.000272,0.067235,0.636573,-0.432943,-0.634677,106.266427,48.574660,-105.832029
36588,-7.056834,6.231514,-1.321163,-0.485680,0.043943,-0.318567,0.109503,-0.019152,0.079025,-0.070592,0.062294,-0.013184,1.000000,0.000548,-0.000096,0.000395,0.067125,0.636335,-0.433581,-0.634492,106.296257,48.528937,-105.874631
36589,-7.374810,6.239015,-1.485759,-0.289577,0.173007,-0.045045,0.085952,-0.024532,0.060789,-0.073765,0.062374,-0.014840,1.000000,0.000430,-0.000123,0.000304,0.066964,0.636072,-0.434142,-0.634388,106.312515,48.494254,-105.927317
36590,-7.575179,6.524344,-1.555823,-0.327909,0.098786,0.299370,0.142454,-0.035316,0.037588,-0.075761,0.065240,-0.015525,1.000000,0.000712,-0.000177,0.000188,0.066583,0.635883,-0.434758,-0.634196,106.358756,48.473947,-105.973261
36591,-7.712335,6.677323,-1.426493,-0.488371,0.156515,0.475103,0.089482,-0.057675,0.022460,-0.077127,0.066771,-0.014257,1.000000,0.000447,-0.000288,0.000112,0.066273,0.635637,-0.435164,-0.634196,106.363437,48.465713,-106.034128
36592,-7.694122,6.692751,-1.615515,-0.333463,0.046417,0.506661,0.019274,-0.079250,-0.009890,-0.076932,0.066933,-0.016179,1.000000,0.000096,-0.000396,-0.000049,0.066037,0.635371,-0.435253,-0.634428,106.320479,48.478595,-106.104954
36593,-7.649214,6.741062,-1.760498,-0.234312,-0.084057,0.530898,-0.028283,-0.061330,-0.028246,-0.076477,0.067419,-0.017638,1.000000,-0.000141,-0.000307,-0.000141,0.065932,0.635185,-0.435125,-0.634712,106.264579,48.498784,-106.156580
36594,-7.669986,6.611142,-1.928611,-0.018076,-0.074390,0.495055,-0.081408,-0.024101,-0.016191,-0.076692,0.066110,-0.019322,1.000000,-0.000407,-0.000121,-0.000081,0.066116,0.635073,-0.434856,-0.634989,106.199285,48.506210,-106.180175
36595,-7.762300,6.345577,-1.510725,-0.229862,0.338821,0.318171,-0.035400,-0.087439,-0.005648,-0.077615,0.063455,-0.015152,1.000000,-0.000177,-0.000437,-0.000028,0.066048,0.634752,-0.434786,-0.635365,106.118894,48.518041,-106.259028
36596,-7.268709,6.428979,-0.824629,-0.942997,0.287279,-0.123822,-0.021753,-0.193449,-0.048455,-0.072663,0.064306,-0.008324,0.999999,-0.000109,-0.000967,-0.000242,0.065572,0.634192,-0.434659,-0.636060,105.987958,48.570015,-106.415800
36597,-6.761713,6.760970,-1.623228,-0.486819,-0.629928,-0.146641,-0.227873,-0.182506,-0.112839,-0.067564,0.067629,-0.016371,0.999999,-0.001139,-0.000913,-0.000564,0.065568,0.633738,-0.433668,-0.637189,105.756580,48.655561,-106.548764
36598,-6.637383,6.437673,-2.287980,0.246007,-0.842338,-0.327798,-0.591779,-0.078114,-0.086483,-0.066337,0.064337,-0.023096,0.999995,-0.002959,-0.000391,-0.000432,0.067027,0.633436,-0.431565,-0.638763,105.377039,48.709906,-106.601356
36599,-6.877327,5.152641,-2.300099,0.932829,0.084853,-0.966201,-0.701882,0.031085,-0.038515,-0.068767,0.051459,-0.023171,0.999994,-0.003509,0.000155,-0.000193,0.069167,0.633298,-0.429275,-0.640213,104.994365,48.721214,-106.584031
36600,-7.289896,4.360393,-2.429290,1.507639,0.772836,-1.141655,-0.204038,-0.034615,-0.026854,-0.072889,0.043589,-0.024350,0.999999,-0.001020,-0.000173,-0.000134,0.069682,0.633131,-0.428581,-0.640787,104.853641,48.735735,-106.614422
36601,-7.279820,4.961778,-2.216796,1.045592,0.485305,-0.801561,0.447568,-0.131539,-0.036998,-0.072774,0.049681,-0.022105,0.999997,0.002238,-0.000658,-0.000185,0.067837,0.632862,-0.430029,-0.640280,105.026675,48.770333,-106.733995
36602,-7.244678,5.930167,-1.996888,0.385130,-0.037804,-0.247647,0.555055,-0.171151,-0.004526,-0.072428,0.059359,-0.019866,0.999996,0.002775,-0.000856,-0.000023,0.065728,0.632466,-0.431881,-0.639645,105.230877,48.792994,-106.884013
36603,-7.395210,6.102176,-1.773730,0.125139,0.056216,-0.063176,0.404047,-0.212814,0.032011,-0.073943,0.061046,-0.017693,0.999997,0.002020,-0.001064,0.000160,0.064066,0.631766,-0.433429,-0.639458,105.315901,48.802151,-107.087362
36604,-7.410202,6.318578,-1.469195,-0.246478,0.077836,0.032476,0.500540,-0.264395,0.029366,-0.074092,0.063212,-0.014632,0.999996,0.002503,-0.001322,0.000147,0.062034,0.630972,-0.435238,-0.639214,105.424109,48.820664,-107.323364
36605,-7.202875,6.868688,-1.184390,-0.806641,-0.250567,0.174784,0.557368,-0.260058,0.001439,-0.072014,0.068719,-0.011746,0.999995,0.002787,-0.001300,0.000007,0.059687,0.630226,-0.437189,-0.638842,105.572321,48.854430,-107.559338
36606,-7.184838,7.287549,-0.900606,-1.265380,-0.378982,0.375371,0.304039,-0.230472,-0.019522,-0.071831,0.072896,-0.008978,0.999998,0.001520,-0.001152,-0.000098,0.058192,0.629578,-0.438198,-0.638927,105.597688,48.895285,-107.755623
36607,-7.314327,7.235655,-1.342408,-0.837284,-0.487136,0.517742,0.057300,-0.183271,-0.053965,-0.073111,0.072380,-0.013470,1.000000,0.000287,-0.000916,-0.000270,0.057410,0.629045,-0.438351,-0.639418,105.517243,48.947954,-107.914505
36608,-7.582110,7.064826,-1.749903,-0.345532,-0.425787,0.683103,-0.076531,-0.107137,-0.057534,-0.075791,0.070663,-0.017567,1.000000,-0.000383,-0.000536,-0.000288,0.057262,0.628763,-0.437988,-0.639957,105.408904,48.990684,-107.998699
36609,-7.850930,6.765506,-1.237294,-0.568874,0.160861,0.607990,-0.262259,-0.146171,-0.044051,-0.078485,0.067656,-0.012519,0.999999,-0.001311,-0.000731,-0.000220,0.057654,0.628272,-0.437083,-0.641022,105.166590,49.031782,-108.119266
36610,-7.568793,6.001813,-1.432079,-0.065683,0.337116,-0.053531,-0.397010,-0.246452,-0.048618,-0.075656,0.060008,-0.014533,0.999997,-0.001985,-0.001232,-0.000243,0.058236,0.627428,-0.435759,-0.642695,104.783590,49.089731,-108.323861
36611,-7.115092,5.603215,-1.762797,0.340700,0.118459,-0.593260,-0.153260,-0.219676,-0.066389,-0.071113,0.056042,-0.017749,0.999999,-0.000766,-0.001098,-0.000332,0.057997,0.626740,-0.435207,-0.643761,104.559512,49.153050,-108.512662
36612,-7.280290,5.926896,-1.796584,0.259124,-0.007805,-0.258044,0.144967,-0.127457,-0.083461,-0.072767,0.059312,-0.017969,0.999999,0.000725,-0.000637,-0.000417,0.057027,0.626509,-0.435481,-0.643887,104.568111,49.212213,-108.609758
36613,-7.507227,6.207004,-1.649497,0.047825,0.021423,0.066758,0.081638,-0.181924,-0.077621,-0.075033,0.062106,-0.016538,0.999999,0.000408,-0.000910,-0.000388,0.056098,0.626033,-0.435638,-0.644325,104.504050,49.276028,-108.764697
36614,-7.322243,5.796460,-1.437938,0.033201,0.248217,-0.367102,-0.074069,-0.267376,-0.053951,-0.073187,0.057979,-0.014499,0.999999,-0.000370,-0.001337,-0.000270,0.055603,0.625224,-0.435337,-0.645356,104.291439,49.338564,-108.987844
36615,-6.951190,5.656129,-1.967846,0.490071,-0.171909,-0.652256,0.047483,-0.309120,-0.043556,-0.069469,0.056581,-0.019772,0.999999,0.000237,-0.001546,-0.000218,0.054614,0.624252,-0.435524,-0.646255,104.118974,49.400822,-109.259555
36616,-7.224182,5.656367,-1.526393,0.178233,0.201675,-0.515337,0.223982,-0.231505,-0.033912,-0.072215,0.056593,-0.015284,0.999999,0.001120,-0.001158,-0.000170,0.053330,0.623595,-0.436237,-0.646516,104.096078,49.446475,-109.457373
36617,-7.916920,5.506784,-1.263429,0.176323,0.839108,-0.124378,0.310374,-0.301602,-0.045827,-0.079137,0.055106,-0.012668,0.999998,0.001552,-0.001508,-0.000229,0.051529,0.622719,-0.437261,-0.646814,104.078627,49.508606,-109.722930
36618,-7.809193,5.439330,-1.202531,0.133001,0.832174,-0.257288,0.517481,-0.427111,-0.069910,-0.078047,0.054452,-0.012051,0.999994,0.002587,-0.002136,-0.000350,0.048787,0.621576,-0.438856,-0.647046,104.101546,49.601509,-110.081126
36619,-7.052922,6.557838,-1.554708,-0.293341,-0.499638,-0.074603,0.732041,-0.340890,-0.109511,-0.070467,0.065674,-0.015427,0.999992,0.003660,-0.001704,-0.000548,0.045382,0.620805,-0.441048,-0.646544,104.309476,49.704905,-110.367290
36620,-7.079536,8.271608,-1.602808,-1.107055,-1.556200,1.025254,0.285397,-0.231976,-0.097090,-0.070737,0.082773,-0.015992,0.999998,0.001427,-0.001160,-0.000485,0.043700,0.620289,-0.441752,-0.646674,104.330514,49.786176,-110.552703
36621,-7.084259,7.972286,-1.196665,-1.284682,-1.180538,0.776541,-0.450246,-0.229499,-0.036661,-0.070814,0.079709,-0.012227,0.999997,-0.002251,-0.001147,-0.000183,0.044443,0.619444,-0.440315,-0.648410,103.920838,49.833224,-110.759859
36622,-7.099404,6.257588,-1.243772,-0.359058,-0.177690,-0.276168,-0.586920,-0.195102,0.002809,-0.070983,0.062538,-0.012691,0.999995,-0.002935,-0.000976,0.000014,0.045870,0.618628,-0.438494,-0.650322,103.448807,49.852549,-110.936198
36623,-7.697963,5.093885,-1.727828,0.785470,0.627622,-0.475624,-0.308509,-0.143999,-0.023648,-0.076961,0.050921,-0.017412,0.999999,-0.001543,-0.000720,-0.000118,0.046404,0.618058,-0.437534,-0.651472,103.173748,49.879191,-111.073337
36624,-8.279029,4.705363,-1.501936,0.932900,1.316539,-0.308217,-0.019461,-0.183096,-0.080879,-0.082757,0.047086,-0.015100,0.999999,-0.000097,-0.000915,-0.000404,0.045830,0.617589,-0.437294,-0.652117,103.047179,49.942515,-111.222924
36625,-8.304756,4.930987,-1.253021,0.623768,1.304507,-0.181342,0.364960,-0.295903,-0.127743,-0.082997,0.049386,-0.012563,0.999997,0.001825,-0.001480,-0.000639,0.043612,0.616903,-0.438240,-0.652284,103.072487,50.046604,-111.471495
36626,-7.646378,5.951849,-1.018708,-0.232366,0.391925,-0.080178,0.577596,-0.346687,-0.147771,-0.076402,0.059604,-0.010147,0.999994,0.002888,-0.001733,-0.000739,0.040619,0.616175,-0.439771,-0.652135,103.188449,50.168579,-111.750410
36627,-7.185164,6.784573,-0.840349,-0.912881,-0.310548,0.058147,0.435664,-0.373032,-0.146235,-0.071786,0.067917,-0.008390,0.999996,0.002178,-0.001865,-0.000731,0.037951,0.615283,-0.440899,-0.652376,103.204260,50.293497,-112.063249
36628,-6.873968,6.743591,-0.967116,-0.867385,-0.553561,-0.189593,0.207552,-0.332265,-0.146597,-0.068674,0.067496,-0.009715,0.999998,0.001038,-0.001661,-0.000733,0.036132,0.614516,-0.441217,-0.652987,103.115929,50.413029,-112.331136
36629,-6.898875,6.653634,-1.355284,-0.491780,-0.710836,-0.171373,0.066863,-0.259130,-0.151625,-0.068921,0.066593,-0.013620,0.999999,0.000334,-0.001296,-0.000758,0.034832,0.613933,-0.441099,-0.653685,102.995911,50.525681,-112.545043
36630,-6.935694,7.346418,-2.660910,0.280715,-1.832514,0.469194,-0.451210,-0.138494,-0.127811,-0.069291,0.073448,-0.026823,0.999997,-0.002256,-0.000692,-0.000639,0.035523,0.613638,-0.439285,-0.655145,102.656448,50.609073,-112.648570
36631,-7.557992,6.798514,-1.053103,-0.598203,-0.307092,0.385333,-0.770544,-0.066015,-0.068772,-0.075553,0.067970,-0.010818,0.999992,-0.003853,-0.000330,-0.000344,0.037489,0.613349,-0.436641,-0.657071,102.173486,50.650118,-112.710832
36632,-7.522355,5.213736,-1.646537,0.706490,0.309081,-0.545265,-0.598718,-0.170192,-0.031634,-0.075201,0.052100,-0.016685,0.999995,-0.002994,-0.000851,-0.000158,0.038880,0.612699,-0.434638,-0.658922,101.712069,50.682331,-112.862616
36633,-7.602630,4.715379,-2.018265,1.310694,0.452676,-0.747078,-0.337676,-0.117930,-0.033780,-0.076006,0.047132,-0.020307,0.999998,-0.001688,-0.000590,-0.000169,0.039519,0.612236,-0.433527,-0.660046,101.435780,50.709216,-112.978240
36634,-8.167984,4.310945,-1.761036,1.445133,1.155682,-0.594367,-0.146910,-0.127937,-0.064056,-0.081655,0.043123,-0.017694,0.999999,-0.000735,-0.000640,-0.000320,0.039510,0.611879,-0.432901,-0.660787,101.266060,50.753882,-113.087476
36635,-8.054870,4.501716,-1.285417,0.929996,1.207449,-0.621613,0.340711,-0.233827,-0.088267,-0.080514,0.045075,-0.012872,0.999998,0.001704,-0.001169,-0.000441,0.037643,0.611282,-0.433884,-0.660804,101.305714,50.824054,-113.296837
36636,-7.953097,5.121537,-0.605166,0.019101,1.116045,-0.399817,0.884121,-0.267902,-0.118870,-0.079493,0.051289,-0.005932,0.999989,0.004421,-0.001340,-0.000594,0.033997,0.610770,-0.436518,-0.659739,101.637504,50.915594,-113.520885
36637,-8.109559,5.858032,-0.445869,-0.473394,0.843238,0.154504,1.255913,-0.301547,-0.133622,-0.081050,0.058661,-0.004213,0.999979,0.006280,-0.001508,-0.000668,0.029033,0.610185,-0.440377,-0.657950,102.161295,51.020576,-113.781617
36638,-7.640631,7.768766,-0.988544,-1.146442,-0.880726,1.032586,0.960735,-0.401074,-0.145237,-0.076330,0.077790,-0.009665,0.999986,0.004804,-0.002005,-0.000726,0.024771,0.609273,-0.443177,-0.657090,102.448978,51.145185,-114.118097
36639,-6.608033,10.431785,-0.801317,-2.939552,-2.991482,1.829493,0.032934,-0.282413,-0.138694,-0.065997,0.104365,-0.008089,0.999999,0.000165,-0.001412,-0.000693,0.023561,0.608572,-0.442979,-0.657916,102.285638,51.251973,-114.360629
36640,-6.086048,10.117064,-1.124514,-2.589701,-3.323367,1.273642,-1.245100,-0.099576,-0.052208,-0.060828,0.101114,-0.011905,0.999980,-0.006225,-0.000498,-0.000261,0.026986,0.608158,-0.438757,-0.660990,101.503676,51.287301,-114.447278
36641,-6.126428,7.273999,-1.913504,-0.395153,-2.042416,-0.337625,-1.675961,0.056020,0.035335,-0.061283,0.072566,-0.019726,0.999965,-0.008380,0.000280,0.000177,0.032295,0.607935,-0.433383,-0.664493,100.570857,51.255536,-114.420432
36642,-7.570478,3.894667,-2.388274,2.104553,0.611186,-1.246398,-1.672449,0.157299,0.087284,-0.075741,0.038712,-0.024148,0.999965,-0.008362,0.000786,0.000436,0.038039,0.607933,-0.428081,-0.667620,99.705658,51.184605,-114.299824
36643,-9.134233,1.330096,-2.713879,4.035465,2.962808,-1.596533,-1.047585,0.059483,0.078221,-0.091356,0.013123,-0.027181,0.999986,-0.005238,0.000297,0.000391,0.041584,0.607675,-0.424886,-0.669682,99.131407,51.128948,-114.274924
36644,-9.024675,1.793573,-1.686039,2.937134,3.143847,-1.506433,0.203580,-0.158706,-0.009459,-0.090232,0.017957,-0.016914,0.999999,0.001018,-0.000794,-0.000047,0.040628,0.607162,-0.425602,-0.669751,99.131432,51.142816,-114.423439
36645,-8.037193,5.227914,-1.253770,0.715171,0.621625,-0.189718,0.876219,-0.243177,-0.057186,-0.080342,0.052357,-0.012406,0.999990,0.004381,-0.001216,-0.000286,0.037231,0.606559,-0.428491,-0.668652,99.462901,51.191738,-114.651237
36646,-6.964400,7.694999,-0.442728,-1.435871,-1.108310,0.415790,0.544147,-0.190510,-0.002595,-0.069639,0.076963,-0.004284,0.999996,0.002721,-0.000953,-0.000013,0.035194,0.605983,-0.430366,-0.668080,99.634766,51.205428,-114.829507
36647,-6.587105,7.901214,-0.298972,-1.768006,-1.364523,0.233244,0.149676,-0.062835,0.041278,-0.065886,0.079001,-0.002951,1.000000,0.000748,-0.000314,0.000206,0.034715,0.605629,-0.431084,-0.667963,99.665041,51.182413,-114.909427
36648,-6.890609,8.095338,-0.331450,-1.750418,-1.326272,0.594132,-0.107663,0.034390,0.039411,-0.068923,0.080938,-0.003346,1.000000,-0.000538,0.000172,0.000197,0.035278,0.605596,-0.430867,-0.668103,99.616442,51.150975,-114.891371
36649,-7.588558,7.612302,-0.176599,-1.448144,-0.549121,0.825255,-0.476949,0.085236,0.037156,-0.075901,0.076104,-0.001915,0.999997,-0.002385,0.000426,0.000186,0.037061,0.605670,-0.429400,-0.668884,99.392097,51.115981,-114.827245
36650,-7.990697,6.947046,-0.886799,-0.395799,-0.291195,0.801336,-0.643468,0.022842,0.032338,-0.079919,0.069429,-0.009082,0.999995,-0.003217,0.000114,0.000162,0.039197,0.605511,-0.427369,-0.670206,99.029473,51.089688,-114.818208
36651,-7.816871,6.470586,-0.668178,-0.361042,0.009372,0.350373,-0.732507,0.001963,0.044290,-0.078183,0.064664,-0.006918,0.999993,-0.003663,0.000010,0.000221,0.041540,0.605194,-0.425127,-0.671775,98.599919,51.058557,-114.839489
36652,-7.522651,5.279503,-1.552571,0.901773,0.124434,-0.536638,-0.700967,-0.027437,0.054587,-0.075239,0.052720,-0.015721,0.999994,-0.003505,-0.000137,0.000273,0.043817,0.604793,-0.422971,-0.673351,98.167259,51.023937,-114.878145
36653,-7.735114,4.594954,-1.756446,1.476762,0.571711,-0.783681,-0.491799,-0.026042,0.063775,-0.077363,0.045881,-0.017687,0.999997,-0.002459,-0.000130,0.000319,0.045436,0.604379,-0.421596,-0.674477,97.854648,50.983754,-114.926509
36654,-7.863743,4.324924,-1.478125,1.414692,0.960620,-0.879372,-0.103267,-0.056347,0.061847,-0.078647,0.043217,-0.014826,1.000000,-0.000516,-0.000282,0.000309,0.045870,0.603991,-0.421477,-0.674869,97.744025,50.947015,-114.991493
36655,-7.715252,5.034928,-1.501488,1.081242,0.412095,-0.550335,0.253835,-0.071022,0.052422,-0.077160,0.050348,-0.014978,0.999999,0.001269,-0.000355,0.000262,0.045102,0.603618,-0.422589,-0.674558,97.828630,50.916887,-115.078535
36656,-7.690525,5.815527,-1.107121,0.380679,0.109701,-0.115611,0.308662,-0.065657,0.047687,-0.076915,0.058154,-0.011007,0.999999,0.001543,-0.000328,0.000238,0.044224,0.603321,-0.423818,-0.674111,97.948935,50.888980,-115.150134
36657,-7.594933,6.357986,-0.646784,-0.294937,-0.040794,0.108836,0.421755,-0.061529,0.039164,-0.075960,0.063578,-0.006357,0.999998,0.002109,-0.000308,0.000196,0.042926,0.603042,-0.425452,-0.673415,98.137596,50.865833,-115.227049
36658,-7.490348,6.814851,-0.389781,-0.765776,-0.242453,0.289501,0.368620,-0.046319,0.037834,-0.074915,0.068141,-0.003790,0.999998,0.001843,-0.000232,0.000189,0.041874,0.602840,-0.426846,-0.672780,98.306616,50.842193,-115.280180
36659,-7.499256,6.769905,-0.371230,-0.770685,-0.187018,0.265970,0.218431,-0.026083,0.035597,-0.075004,0.067690,-0.003648,0.999999,0.001092,-0.000130,0.000178,0.041251,0.602640,-0.427776,-0.672407,98.403821,50.818232,-115.325068
36660,-7.508725,6.774935,-0.234811,-0.894863,-0.102919,0.263246,0.251119,-0.035345,0.030211,-0.075097,0.067741,-0.002276,0.999999,0.001256,-0.000177,0.000151,0.040552,0.602464,-0.428748,-0.671988,98.513882,50.798126,-115.367443
36661,-7.349221,7.242605,-0.820345,-0.665949,-0.788439,0.486547,0.113911,-0.030069,0.038249,-0.073505,0.072417,-0.008173,1.000000,0.000570,-0.000150,0.000191,0.040245,0.602222,-0.429333,-0.671850,98.547942,50.773104,-115.416284
36662,-6.945307,7.753272,-0.549753,-1.231136,-1.195193,0.468778,-0.230824,-0.014582,0.062375,-0.069477,0.077505,-0.005592,0.999999,-0.001154,-0.000073,0.000312,0.041150,0.601948,-0.428778,-0.672395,98.393010,50.733024,-115.444307
36663,-6.815165,6.387391,-1.433573,0.137538,-0.878754,-0.404757,-0.511835,0.041584,0.105250,-0.068188,0.063801,-0.014485,0.999997,-0.002559,0.000208,0.000526,0.043164,0.601710,-0.427393,-0.673362,98.111713,50.663941,-115.427484
36664,-7.469863,5.535153,-1.650301,0.919741,-0.077736,-0.415441,-0.439799,0.054045,0.134803,-0.074740,0.055265,-0.016604,0.999997,-0.002199,0.000270,0.000674,0.045088,0.601464,-0.426335,-0.674127,97.877961,50.577151,-115.402628
36665,-7.705094,4.976865,-1.327704,0.986108,0.585303,-0.615653,-0.250980,0.019052,0.151637,-0.077090,0.049694,-0.013332,0.999999,-0.001255,0.000095,0.000758,0.046367,0.601066,-0.426022,-0.674592,97.726881,50.483633,-115.420748
36666,-7.585047,4.985751,-1.478102,1.089367,0.443998,-0.691747,0.046812,0.016483,0.153627,-0.075890,0.049803,-0.014763,1.000000,0.000234,0.000082,0.000768,0.046810,0.600761,-0.426668,-0.674425,97.744718,50.389124,-115.431134
36667,-7.650133,5.372127,-1.048543,0.568589,0.477193,-0.435444,0.247066,0.018084,0.164110,-0.076546,0.053671,-0.010412,0.999999,0.001235,0.000090,0.000821,0.046632,0.600448,-0.428070,-0.673827,97.877199,50.288615,-115.451593
36668,-7.673467,5.865885,-0.728465,0.071363,0.369054,-0.133845,0.411631,0.013481,0.158951,-0.076782,0.058613,-0.007159,0.999998,0.002058,0.000067,0.000795,0.045992,0.600204,-0.429960,-0.672885,98.101058,50.191355,-115.465914
36669,-7.765262,6.606805,-0.405170,-0.530104,0.154375,0.375952,0.472909,0.006781,0.143891,-0.077700,0.066021,-0.003893,0.999997,0.002365,0.000034,0.000719,0.045043,0.599942,-0.432063,-0.671835,98.356479,50.103248,-115.494976
36670,-7.589878,7.382283,-0.122666,-1.190100,-0.253697,0.705802,0.393411,-0.006020,0.121534,-0.075944,0.073779,-0.001084,0.999998,0.001967,-0.000030,0.000608,0.044289,0.599702,-0.433779,-0.670993,98.559582,50.028915,-115.522790
36671,-7.293117,8.082061,-0.171753,-1.563264,-0.863001,0.927432,0.149399,0.005705,0.115594,-0.072978,0.080780,-0.001655,1.000000,0.000747,0.000029,0.000578,0.044214,0.599421,-0.434706,-0.670649,98.631051,49.957029,-115.549771
36672,-7.136765,7.940327,-0.525705,-1.231938,-1.043894,0.753823,-0.283970,0.035917,0.118360,-0.071416,0.079353,-0.005357,0.999999,-0.001420,0.000180,0.000592,0.045571,0.599177,-0.434130,-0.671150,98.474565,49.880950,-115.540368
36673,-7.091912,6.724615,-0.953242,-0.294295,-0.543091,-0.012551,-0.529813,0.054813,0.135012,-0.070967,0.067173,-0.009691,0.999996,-0.002649,0.000274,0.000675,0.047762,0.598900,-0.432771,-0.672121,98.188389,49.793874,-115.516158
36674,-7.375444,5.788680,-1.190879,0.444499,0.079769,-0.372339,-0.504672,0.084387,0.137486,-0.073799,0.057806,-0.012024,0.999996,-0.002523,0.000422,0.000687,0.049948,0.598719,-0.431495,-0.672944,97.936838,49.703105,-115.465605
36675,-7.658553,5.017195,-1.379542,1.058316,0.632337,-0.636148,-0.453365,0.067584,0.141962,-0.076626,0.050086,-0.013883,0.999997,-0.002267,0.000338,0.000710,0.051901,0.598442,-0.430459,-0.673705,97.703282,49.611174,-115.440031
36676,-7.795108,4.574849,-1.582782,1.487850,0.890997,-0.802108,-0.249852,0.028186,0.140309,-0.077985,0.045674,-0.015874,0.999999,-0.001249,0.000141,0.000702,0.053213,0.598125,-0.430059,-0.674139,97.560576,49.523326,-115.438157
36677,-7.707648,5.123602,-1.092606,0.814774,0.760104,-0.560050,0.037487,-0.010889,0.133631,-0.077110,0.051187,-0.010921,1.000000,0.000187,-0.000054,0.000668,0.053501,0.597729,-0.430669,-0.674078,97.557049,49.442197,-115.479573
36678,-7.460550,5.383180,-0.964992,0.528897,0.530161,-0.592665,0.002013,-0.004023,0.130742,-0.074640,0.053783,-0.009651,1.000000,0.000010,-0.000020,0.000654,0.053958,0.597390,-0.431098,-0.674069,97.538288,49.362209,-115.504514
36679,-7.885554,5.800045,-0.749139,0.283248,0.643373,-0.020367,0.154129,-0.021093,0.102270,-0.078884,0.057966,-0.007455,1.000000,0.000771,-0.000105,0.000511,0.053827,0.597095,-0.431957,-0.673790,97.597847,49.299751,-115.541130
36680,-7.326465,7.458016,-0.071559,-1.189274,-0.350777,0.568390,0.264393,-0.075402,0.080944,-0.073295,0.074551,-0.000645,0.999999,0.001322,-0.000377,0.000405,0.053178,0.596693,-0.433139,-0.673439,97.686671,49.253507,-115.622522
36681,-6.720157,8.633706,-0.145278,-1.820411,-1.463032,0.876940,-0.043270,-0.007935,0.078616,-0.067235,0.086310,-0.001474,1.000000,-0.000216,-0.000040,0.000393,0.053527,0.596402,-0.433312,-0.673558,97.643859,49.203509,-115.655057
36682,-6.864723,8.168444,-0.458224,-1.277412,-1.255746,0.715797,-0.653269,0.075810,0.112386,-0.068695,0.081630,-0.004823,0.999994,-0.003266,0.000379,0.000562,0.056048,0.596191,-0.431454,-0.674731,97.303985,49.127978,-115.608269
36683,-7.390774,5.729639,-0.967286,0.426530,0.299298,-0.425663,-0.952278,0.113013,0.145503,-0.073955,0.057196,-0.009904,0.999988,-0.004761,0.000565,0.000728,0.059593,0.595902,-0.428719,-0.676424,96.814819,49.031214,-115.542077
36684,-8.046316,5.055712,-1.170376,1.116918,1.004387,-0.356640,-0.480388,0.013345,0.137408,-0.080499,0.050474,-0.011820,0.999997,-0.002402,0.000067,0.000687,0.061549,0.595464,-0.427529,-0.677388,96.532197,48.946038,-115.550561
36685,-7.041035,7.170719,-0.168982,-0.905506,-0.405166,0.189303,-0.053151,-0.095733,0.134294,-0.070458,0.071659,-0.001743,1.000000,-0.000266,-0.000479,0.000671,0.061930,0.594754,-0.427859,-0.677768,96.423629,48.869705,-115.662865
36686,-6.178613,7.803086,-0.885790,-0.775967,-1.670309,0.008507,-0.446978,0.047942,0.187097,-0.061861,0.077953,-0.009017,0.999997,-0.002235,0.000240,0.000935,0.064027,0.594332,-0.426914,-0.678539,96.179765,48.754021,-115.645307
36687,-7.135234,6.346656,-1.539312,0.720372,-0.510640,-0.180391,-0.863353,0.158638,0.254814,-0.071445,0.063308,-0.015610,0.999990,-0.004317,0.000793,0.001274,0.067767,0.593961,-0.424769,-0.679845,95.765033,48.593160,-115.547521
36688,-7.656530,4.195883,-0.888344,1.236577,1.492127,-1.253401,-0.667072,0.142704,0.271858,-0.076629,0.041825,-0.008968,0.999993,-0.003335,0.000714,0.001359,0.071006,0.593595,-0.423288,-0.680758,95.452233,48.423986,-115.453560
36689,-8.346299,4.006347,-1.434008,2.002208,1.777849,-0.835034,-0.058766,0.138296,0.256479,-0.083524,0.039952,-0.014294,0.999999,-0.000294,0.000691,0.001282,0.072319,0.593419,-0.423880,-0.680403,95.485967,48.263967,-115.371883
36690,-8.459425,6.333237,-0.379818,0.174207,0.926497,0.719510,0.494414,-0.060857,0.220990,-0.084663,0.063248,-0.003668,0.999996,0.002472,-0.000304,0.001105,0.071506,0.592876,-0.426269,-0.679470,95.711281,48.135188,-115.448327
36691,-6.510193,9.316679,0.655174,-2.520194,-1.562951,1.179032,0.672540,-0.174399,0.219802,-0.065210,0.093073,0.006808,0.999993,0.003363,-0.000872,0.001099,0.069859,0.591970,-0.429346,-0.678493,95.966289,48.013992,-115.632237
36692,-5.222905,11.009555,0.260575,-3.256113,-3.550461,1.383240,-0.083581,0.060410,0.283336,-0.052384,0.110022,0.002576,0.999999,-0.000418,0.000302,0.001417,0.071228,0.591492,-0.429909,-0.678411,95.932560,47.842797,-115.611845
36693,-6.858961,9.364549,-1.329002,-0.665263,-2.318990,1.619070,-1.265462,0.352640,0.354925,-0.068780,0.093437,-0.013761,0.999977,-0.006327,0.001763,0.001775,0.076904,0.591378,-0.426613,-0.679970,95.401154,47.614232,-115.358738
36694,-8.115798,6.285779,-0.509336,0.309921,0.774476,0.431348,-1.383593,0.295670,0.355694,-0.081277,0.062677,-0.005407,0.999973,-0.006918,0.001478,0.001778,0.082864,0.591033,-0.422865,-0.681908,94.767689,47.390024,-115.141385
36695,-7.928480,4.501061,-2.008572,2.318252,1.082546,-0.834474,-0.835708,0.243514,0.324526,-0.079382,0.044798,-0.020177,0.999989,-0.004179,0.001218,0.001623,0.086928,0.590742,-0.420951,-0.682838,94.418101,47.187162,-114.974011
36696,-8.076792,4.976974,-1.114017,1.424570,1.325378,-0.460696,-0.404453,0.166516,0.320649,-0.080857,0.049618,-0.011173,0.999996,-0.002022,0.000833,0.001603,0.089599,0.590414,-0.420474,-0.683071,94.268710,46.990496,-114.860248
36697,-7.022057,4.956412,-1.099164,1.135956,0.721186,-1.252730,-0.148649,0.129940,0.356151,-0.070316,0.049431,-0.010983,0.999998,-0.000743,0.000650,0.001781,0.091500,0.589960,-0.421040,-0.682862,94.241570,46.775224,-114.789317
36698,-6.784880,6.470079,-0.919458,0.351240,-0.258527,-0.402503,0.251153,0.113890,0.360912,-0.067971,0.064590,-0.009075,0.999997,0.001256,0.000569,0.001805,0.092262,0.589658,-0.422939,-0.681846,94.432897,46.557843,-114.722770
36699,-6.301563,7.871000,0.010477,-1.136388,-0.957368,0.159993,0.216890,0.165019,0.367653,-0.063160,0.078594,0.000242,0.999997,0.001084,0.000825,0.001838,0.093197,0.589460,-0.424767,-0.680753,94.633781,46.334131,-114.625684
36700,-6.802316,8.641745,-0.632272,-0.712980,-1.379356,1.093271,-0.079414,0.289665,0.348058,-0.068183,0.086296,-0.006258,0.999997,-0.000397,0.001448,0.001740,0.095263,0.589623,-0.425417,-0.679919,94.738971,46.115588,-114.415634
36701,-7.124697,8.468456,-0.125831,-0.978947,-0.799985,1.182466,-0.533722,0.276471,0.336092,-0.071391,0.084561,-0.001385,0.999994,-0.002669,0.001382,0.001680,0.098539,0.589509,-0.424541,-0.680099,94.575509,45.904506,-114.226339
36702,-6.689559,6.949530,-0.884288,0.174853,-0.466038,-0.139008,-0.913099,0.273908,0.312815,-0.067016,0.069349,-0.009068,0.999987,-0.004565,0.001370,0.001564,0.102906,0.589274,-0.422248,-0.681082,94.194339,45.707554,-114.026926
36703,-6.766772,5.268590,-1.709424,1.582475,0.273608,-1.216753,-0.956424,0.358274,0.289291,-0.067775,0.052506,-0.017224,0.999986,-0.004782,0.001791,0.001446,0.107437,0.589301,-0.419735,-0.681912,93.838801,45.521458,-113.766168
36704,-7.213334,4.186079,-1.852659,2.244269,1.200854,-1.657390,-0.632813,0.347667,0.290793,-0.072226,0.041697,-0.018533,0.999992,-0.003164,0.001738,0.001454,0.111054,0.589488,-0.418275,-0.682068,93.662201,45.335884,-113.503732
36705,-7.228892,4.084780,-1.454867,1.933889,1.480668,-1.742584,0.011991,0.244779,0.288732,-0.072366,0.040744,-0.014458,0.999998,0.000060,0.001224,0.001444,0.112487,0.589643,-0.419113,-0.681184,93.794670,45.155343,-113.335498
36706,-6.894421,5.245880,-0.860891,0.896940,0.835436,-1.193476,0.522203,0.175430,0.287522,-0.069027,0.052382,-0.008412,0.999995,0.002611,0.000877,0.001438,0.112326,0.589885,-0.421670,-0.679421,94.178186,44.977742,-113.215015
36707,-6.583421,6.436296,-0.413189,-0.030205,0.134839,-0.597552,0.629655,0.136155,0.282775,-0.065928,0.064282,-0.003885,0.999994,0.003148,0.000681,0.001414,0.111688,0.590020,-0.424646,-0.677553,94.599391,44.804013,-113.138019
36708,-6.587370,7.355753,-0.705804,-0.124555,-0.510821,0.072753,0.584163,0.202479,0.273009,-0.065981,0.073488,-0.006777,0.999994,0.002921,0.001012,0.001365,0.111350,0.590405,-0.427346,-0.675573,95.030807,44.632186,-112.999176
