PacketCounter,Acc_X,Acc_Y,Acc_Z,FreeAcc_E,FreeAcc_N,FreeAcc_U,Gyr_X,Gyr_Y,Gyr_Z,VelInc_X,VelInc_Y,VelInc_Z,OriInc_q0,OriInc_q1,OriInc_q2,OriInc_q3,Quat_q0,Quat_q1,Quat_q2,Quat_q3,Roll,Pitch,Yaw
48831,-1.992488,2.444655,9.007031,0.025202,-0.790636,-0.302315,0.018448,-0.196467,0.039576,-0.020018,0.024434,0.090053,0.999999,0.000092,-0.000982,0.000198,0.339445,0.157244,-0.045999,-0.926248,11.467156,15.073963,-138.224678
48832,-1.959102,2.154275,8.882648,-0.125733,-0.574973,-0.483486,0.003119,-0.139334,0.046671,-0.019658,0.021537,0.088813,1.000000,0.000016,-0.000697,0.000233,0.339592,0.156581,-0.046315,-0.926291,11.473689,14.988345,-138.218269
48833,-1.479700,2.054545,8.627796,-0.443345,-0.796303,-0.867360,-0.031630,-0.037127,0.029881,-0.014816,0.020557,0.086272,1.000000,-0.000158,-0.000186,0.000149,0.339681,0.156336,-0.046292,-0.926301,11.461237,14.962017,-138.213298
48834,-2.263860,1.907173,9.602432,-0.281472,-0.198890,0.229737,-0.001073,0.045419,0.027543,-0.022619,0.019069,0.096029,1.000000,-0.000005,0.000227,0.000138,0.339785,0.156525,-0.046259,-0.926232,11.468118,14.982321,-138.196221
48835,-3.292057,2.189423,10.065767,0.484638,0.237851,0.988212,-0.027463,-0.043683,0.012368,-0.032944,0.021906,0.100647,1.000000,-0.000137,-0.000218,0.000062,0.339775,0.156259,-0.046255,-0.926281,11.455267,14.954192,-138.203928
48836,-2.607282,1.446919,9.242958,-0.195081,0.382367,-0.110136,-0.047433,-0.048001,-0.012477,-0.026094,0.014493,0.092420,1.000000,-0.000237,-0.000240,-0.000062,0.339708,0.155947,-0.046136,-0.926364,11.426745,14.926589,-138.221111
48837,-2.253307,1.982950,9.400067,-0.165723,-0.259074,0.050180,-0.025866,-0.024192,-0.016076,-0.022543,0.019843,0.093995,1.000000,-0.000129,-0.000121,-0.000080,0.339602,0.155782,-0.046077,-0.926434,11.410985,14.912707,-138.238925
48838,-2.248215,1.740364,9.346487,-0.298887,-0.077536,-0.048221,-0.035158,0.009611,-0.028659,-0.022475,0.017423,0.093463,1.000000,-0.000176,0.000048,-0.000143,0.339464,0.155761,-0.045904,-0.926496,11.388825,14.919283,-138.258739
48839,-3.431147,1.869880,10.332010,0.319280,0.563726,1.214548,0.019829,-0.015198,-0.005886,-0.034319,0.018690,0.103319,1.000000,0.000099,-0.000076,-0.000029,0.339349,0.155711,-0.046054,-0.926540,11.401139,14.909235,-138.272444
48840,-3.175454,2.044545,9.867980,0.396883,0.278867,0.742189,-0.031466,-0.124355,-0.034131,-0.031812,0.020466,0.098657,1.000000,-0.000157,-0.000622,-0.000171,0.339151,0.155077,-0.046121,-0.926715,11.376267,14.841180,-138.311118
48841,-2.539220,1.470150,9.370152,-0.245143,0.324294,-0.002312,-0.019150,-0.116585,-0.052671,-0.025443,0.014717,0.093685,1.000000,-0.000096,-0.000583,-0.000263,0.338795,0.154501,-0.046232,-0.926936,11.356377,14.779474,-138.367697
48842,-2.120764,1.804834,9.286179,-0.306612,-0.195115,-0.124752,-0.009632,-0.089881,-0.052401,-0.021245,0.018058,0.092851,1.000000,-0.000048,-0.000449,-0.000262,0.338504,0.154068,-0.046327,-0.927110,11.342431,14.732819,-138.412897
48843,-2.441580,1.682764,9.605740,-0.245517,0.102868,0.236810,0.023728,-0.060512,-0.039118,-0.024442,0.016821,0.096052,1.000000,0.000119,-0.000303,-0.000196,0.338216,0.153825,-0.046547,-0.927244,11.350855,14.701341,-138.451659
48844,-3.056100,2.026080,10.089404,0.261059,0.232952,0.916637,0.048491,-0.107378,-0.019328,-0.030613,0.020239,0.100883,1.000000,0.000242,-0.000537,-0.000097,0.338029,0.153401,-0.046967,-0.927361,11.374624,14.641135,-138.479690
48845,-2.856903,1.625122,9.740224,-0.010434,0.429772,0.458148,0.033830,-0.154057,-0.026228,-0.028642,0.016238,0.097383,1.000000,0.000169,-0.000770,-0.000131,0.337806,0.152739,-0.047395,-0.927530,11.387854,14.555595,-138.517757
48846,-2.830313,2.150229,9.841395,0.270667,0.022188,0.647400,0.062115,-0.191328,-0.038584,-0.028393,0.021477,0.098393,0.999999,0.000311,-0.000957,-0.000193,0.337499,0.151953,-0.048005,-0.927739,11.414246,14.450437,-138.566800
48847,-2.405100,1.726294,9.298794,-0.111963,0.093559,-0.055083,-0.047973,-0.201045,-0.096095,-0.024136,0.017297,0.092960,0.999999,-0.000240,-0.001005,-0.000480,0.337017,0.150952,-0.048077,-0.928074,11.369257,14.346376,-138.648964
48848,-1.876546,1.974455,8.975132,-0.229181,-0.424940,-0.445736,0.002966,-0.152321,-0.108632,-0.018823,0.019753,0.089737,1.000000,0.000015,-0.000762,-0.000543,0.336439,0.150263,-0.048294,-0.928384,11.353037,14.271003,-138.733953
48849,-2.116230,2.118586,9.295353,-0.057828,-0.382013,-0.054556,-0.014570,-0.082759,-0.086136,-0.021192,0.021202,0.092943,1.000000,-0.000073,-0.000414,-0.000431,0.335964,0.149862,-0.048336,-0.928619,11.332346,14.232105,-138.801524
48850,-2.647494,2.265499,9.738843,0.287891,-0.157826,0.525541,0.004647,-0.082577,-0.057390,-0.026509,0.022660,0.097378,1.000000,0.000023,-0.000413,-0.000287,0.335640,0.149488,-0.048482,-0.928789,11.326527,14.190100,-138.848639
48851,-2.782005,2.123192,9.593146,0.353932,0.042580,0.392648,-0.039131,-0.124492,-0.063890,-0.027873,0.021260,0.095910,1.000000,-0.000196,-0.000622,-0.000319,0.335282,0.148847,-0.048496,-0.929020,11.293867,14.125367,-138.907343
48852,-2.008351,1.765551,9.212524,-0.298962,-0.170393,-0.226092,-0.074667,-0.108936,-0.104265,-0.020124,0.017700,0.092108,1.000000,-0.000373,-0.000545,-0.000521,0.334792,0.148229,-0.048283,-0.929307,11.235354,14.073745,-138.984586
48853,-2.291684,1.676617,9.761406,-0.303152,0.070569,0.348563,-0.075632,-0.067905,-0.124775,-0.022940,0.016817,0.097600,1.000000,-0.000378,-0.000340,-0.000624,0.334185,0.147804,-0.047989,-0.929608,11.174943,14.047393,-139.072871
48854,-2.594896,1.849751,9.798183,0.024470,0.128277,0.489856,-0.031251,-0.129042,-0.116847,-0.026001,0.018528,0.097962,1.000000,-0.000156,-0.000645,-0.000584,0.333599,0.147167,-0.048002,-0.929919,11.139123,13.985723,-139.159573
48855,-2.321333,1.619157,9.525053,-0.219785,0.137015,0.120580,-0.049087,-0.126445,-0.133166,-0.023263,0.016230,0.095232,1.000000,-0.000245,-0.000632,-0.000666,0.332928,0.146517,-0.047920,-0.930266,11.091253,13.927331,-139.258081
48856,-2.408777,2.082569,9.762148,0.063790,-0.163921,0.454147,0.028442,-0.133461,-0.104105,-0.024142,0.020824,0.097608,1.000000,0.000142,-0.000667,-0.000521,0.332356,0.145956,-0.048227,-0.930543,11.091494,13.861676,-139.337786
48857,-2.595113,1.926266,9.780538,0.112538,0.081005,0.487060,-0.029786,-0.155606,-0.102909,-0.026017,0.019291,0.097782,1.000000,-0.000149,-0.000778,-0.000515,0.331774,0.145193,-0.048312,-0.930866,11.058404,13.783426,-139.425722
48858,-2.413873,1.954418,9.569716,0.074292,-0.046964,0.248041,0.003182,-0.192199,-0.095872,-0.024221,0.019554,0.095674,0.999999,0.000016,-0.000961,-0.000479,0.331244,0.144314,-0.048605,-0.931176,11.043969,13.683782,-139.507200
48859,-1.750794,1.875306,8.950682,-0.264626,-0.393317,-0.513654,-0.009373,-0.136967,-0.084936,-0.017561,0.018765,0.089494,1.000000,-0.000047,-0.000685,-0.000425,0.330754,0.143667,-0.048763,-0.931442,11.025711,13.613940,-139.580111
48860,-2.217837,1.819416,9.679950,-0.164887,-0.051434,0.281899,0.057973,-0.084912,-0.034471,-0.022216,0.018170,0.096795,1.000000,0.000290,-0.000425,-0.000172,0.330496,0.143363,-0.049177,-0.931558,11.054077,13.567877,-139.613886
48861,-2.587930,2.400601,9.740451,0.446152,-0.258362,0.534817,0.062030,-0.152299,-0.013489,-0.025952,0.023978,0.097392,1.000000,0.000310,-0.000761,-0.000067,0.330223,0.142742,-0.049755,-0.931720,11.086312,13.481503,-139.654648
48862,-1.807695,1.750475,8.827087,-0.241346,-0.233037,-0.640075,-0.009141,-0.122622,-0.030324,-0.018128,0.017512,0.088259,1.000000,-0.000046,-0.000613,-0.000152,0.330023,0.142151,-0.049922,-0.931872,11.075867,13.413804,-139.690310
48863,-1.442770,2.166171,8.923576,-0.286657,-0.781345,-0.554642,0.028899,-0.020974,-0.026598,-0.014434,0.021651,0.089237,1.000000,0.000144,-0.000105,-0.000133,0.329834,0.142096,-0.050103,-0.931938,11.090633,13.402976,-139.712731
48864,-1.449673,2.115395,8.829779,-0.286497,-0.738504,-0.652230,-0.011857,0.068321,-0.037186,-0.014463,0.021162,0.088301,1.000000,-0.000059,0.000342,-0.000186,0.329652,0.142392,-0.049937,-0.931966,11.082747,13.443397,-139.730735
48865,-1.859912,2.238404,9.236882,-0.036519,-0.585327,-0.145953,-0.040069,0.153485,-0.042489,-0.018523,0.022406,0.092379,1.000000,-0.000200,0.000767,-0.000212,0.329453,0.143040,-0.049504,-0.931960,11.060597,13.532463,-139.746178
48866,-2.451576,2.236991,9.613997,0.280074,-0.227255,0.351622,-0.064536,0.157665,-0.048303,-0.024435,0.022407,0.096152,1.000000,-0.000323,0.000788,-0.000242,0.329278,0.143667,-0.048938,-0.931955,11.023328,13.624332,-139.760571
48867,-2.370575,2.106382,9.527558,0.159370,-0.192909,0.225648,-0.090946,0.178128,-0.037840,-0.023617,0.021112,0.095287,0.999999,-0.000455,0.000891,-0.000189,0.329158,0.144343,-0.048227,-0.931930,10.973049,13.726435,-139.768759
48868,-2.876021,2.024891,10.074723,0.312436,0.168496,0.852475,-0.065136,0.155732,-0.004394,-0.028681,0.020282,0.100763,1.000000,-0.000326,0.000779,-0.000022,0.329188,0.144949,-0.047692,-0.931853,10.941355,13.812414,-139.758090
48869,-3.037879,1.978028,9.876283,0.459139,0.295006,0.693711,-0.086959,0.085783,0.011444,-0.030338,0.019821,0.098767,1.000000,-0.000435,0.000429,0.000057,0.329287,0.145192,-0.047185,-0.931806,10.897760,13.857404,-139.746320
48870,-2.362098,1.474123,9.380702,-0.195836,0.256215,-0.032805,-0.088847,0.089978,0.013075,-0.023580,0.014781,0.093811,1.000000,-0.000444,0.000450,0.000065,0.329399,0.145449,-0.046661,-0.931753,10.853144,13.904513,-139.732970
48871,-2.227505,1.804342,9.542946,-0.149826,-0.096517,0.149917,-0.045855,0.109556,0.027888,-0.022225,0.018062,0.095438,1.000000,-0.000229,0.000548,0.000139,0.329498,0.145863,-0.046328,-0.931670,10.836173,13.961064,-139.715664
48872,-2.296583,1.807198,9.463240,-0.079101,-0.063312,0.090993,-0.040194,0.122527,0.034719,-0.022911,0.018087,0.094643,1.000000,-0.000201,0.000613,0.000174,0.329682,0.146347,-0.045993,-0.931545,10.823359,14.024169,-139.686182
48873,-2.353305,1.947754,9.506194,0.026229,-0.145971,0.171175,-0.022215,0.137205,0.041957,-0.023472,0.019483,0.095076,1.000000,-0.000111,0.000686,0.000210,0.329901,0.146928,-0.045722,-0.931390,10.822496,14.094845,-139.649561
48874,-2.274206,1.861310,9.336373,-0.041695,-0.134705,-0.025734,-0.027498,0.141938,0.043559,-0.022680,0.018621,0.093377,1.000000,-0.000137,0.000710,0.000218,0.330122,0.147521,-0.045421,-0.931233,10.818806,14.167928,-139.612788
48875,-1.954780,1.923793,9.212321,-0.211995,-0.392171,-0.211112,-0.038282,0.173404,0.043395,-0.019472,0.019251,0.092136,1.000000,-0.000191,0.000867,0.000217,0.330289,0.148241,-0.045031,-0.931078,10.810273,14.258740,-139.580779
48876,-2.111140,1.828540,9.243972,-0.175756,-0.232531,-0.160408,-0.037620,0.218383,0.056321,-0.021016,0.018297,0.092459,0.999999,-0.000188,0.001092,0.000282,0.330594,0.149170,-0.044565,-0.930844,10.804830,14.373483,-139.528105
48877,-2.656028,1.756413,9.743378,0.013011,0.145389,0.436778,-0.014011,0.232765,0.073522,-0.026453,0.017561,0.097463,0.999999,-0.000070,0.001164,0.000368,0.330899,0.150199,-0.044212,-0.930587,10.816324,14.494470,-139.471688
48878,-3.665090,1.876253,10.781408,0.490001,0.661679,1.698786,0.037041,0.146660,0.092058,-0.036580,0.018726,0.107844,1.000000,0.000185,0.000733,0.000460,0.331297,0.150909,-0.044240,-0.930329,10.857087,14.564976,-139.406111
48879,-3.587585,2.012590,10.151577,0.703097,0.517775,1.105800,-0.020281,-0.006947,0.063463,-0.035886,0.020125,0.101512,1.000000,-0.000101,-0.000035,0.000317,0.331561,0.150817,-0.044237,-0.930250,10.856857,14.552110,-139.375376
48880,-2.653695,1.461770,9.573626,-0.133984,0.368991,0.221209,-0.018612,-0.024908,0.047321,-0.026552,0.014620,0.095732,1.000000,-0.000093,-0.000125,0.000237,0.331755,0.150647,-0.044256,-0.930207,10.854421,14.530881,-139.354905
48881,-2.221146,2.034004,9.459054,-0.068131,-0.343620,0.108081,-0.011842,-0.016470,0.050515,-0.022224,0.020340,0.094588,1.000000,-0.000059,-0.000082,0.000253,0.331961,0.150528,-0.044297,-0.930151,10.856848,14.514102,-139.331460
48882,-2.152538,1.719463,9.321638,-0.265728,-0.139085,-0.097084,0.000863,0.019311,0.046918,-0.021520,0.017189,0.093219,1.000000,0.000004,0.000097,0.000235,0.332148,0.150596,-0.044333,-0.930071,10.866738,14.517796,-139.306295
48883,-2.340276,1.849017,9.377492,-0.069158,-0.121703,0.026699,0.002025,0.037471,0.050383,-0.023390,0.018483,0.093779,1.000000,0.000010,0.000187,0.000252,0.332382,0.150753,-0.044343,-0.929962,10.878503,14.531470,-139.273705
48884,-2.019796,1.624761,9.088221,-0.353932,-0.147289,-0.369795,-0.016124,0.073840,0.027844,-0.020167,0.016252,0.090888,1.000000,-0.000081,0.000369,0.000139,0.332505,0.151051,-0.044195,-0.929877,10.877420,14.567901,-139.253532
48885,-1.957550,1.757123,9.197463,-0.359938,-0.297104,-0.257847,-0.014224,0.130905,0.017558,-0.019517,0.017576,0.091986,1.000000,-0.000071,0.000655,0.000088,0.332603,0.151620,-0.043952,-0.929760,10.877739,14.637519,-139.231440
48886,-2.284244,1.803639,9.246010,-0.117033,-0.137134,-0.121090,-0.031483,0.164578,0.006602,-0.022767,0.018050,0.092476,1.000000,-0.000157,0.000823,0.000033,0.332659,0.152318,-0.043566,-0.929645,10.867341,14.727303,-139.213476
48887,-2.381103,1.816502,9.483819,-0.124278,-0.102854,0.131461,-0.026249,0.191683,-0.002200,-0.023720,0.018178,0.094859,1.000000,-0.000131,0.000958,-0.000011,0.332638,0.153152,-0.043160,-0.929534,10.859708,14.833231,-139.202279
48888,-2.926717,2.019349,9.971519,0.232166,0.062268,0.771113,-0.009966,0.159977,0.000856,-0.029187,0.020198,0.099738,1.000000,-0.000050,0.000800,0.000004,0.332649,0.153866,-0.042877,-0.929425,10.860706,14.921050,-139.188178
48889,-3.203119,1.676794,10.098823,0.177394,0.491007,0.901101,-0.012544,0.090381,-0.005705,-0.031985,0.016775,0.101002,1.000000,-0.000063,0.000452,-0.000029,0.332654,0.154255,-0.042687,-0.929368,10.857388,14.970365,-139.181001
48890,-2.996385,1.798526,9.772915,0.198467,0.268954,0.560892,-0.009939,0.031608,-0.022702,-0.029946,0.017994,0.097733,1.000000,-0.000050,0.000158,-0.000114,0.332528,0.154378,-0.042600,-0.929396,10.851173,14.988493,-139.194963
48891,-2.590578,1.585426,9.580072,-0.167382,0.179812,0.234308,-0.008984,0.013413,-0.047986,-0.025896,0.015865,0.095802,1.000000,-0.000045,0.000067,-0.000240,0.332274,0.154425,-0.042530,-0.929483,10.841456,14.999309,-139.226406
48892,-2.503507,1.709422,9.587123,-0.158374,0.026318,0.241009,-0.002646,0.003730,-0.070747,-0.025027,0.017104,0.095871,1.000000,-0.000013,0.000019,-0.000354,0.331913,0.154440,-0.042485,-0.929611,10.831362,15.006920,-139.271476
48893,-2.483605,1.836808,9.371055,-0.028264,-0.082120,0.053988,0.000722,0.012714,-0.067574,-0.024824,0.018376,0.093712,1.000000,0.000004,0.000064,-0.000338,0.331521,0.154500,-0.042453,-0.929743,10.824218,15.019190,-139.319212
48894,-2.511077,1.798876,9.505354,-0.075704,-0.040097,0.181605,0.024886,0.030127,-0.043579,-0.025093,0.017982,0.095060,1.000000,0.000124,0.000151,-0.000218,0.331271,0.154678,-0.042514,-0.929799,10.834745,15.038727,-139.345516
48895,-2.245452,1.834884,9.373102,-0.210700,-0.233632,-0.006317,0.012639,0.041683,-0.040024,-0.022431,0.018347,0.093737,1.000000,0.000063,0.000208,-0.000200,0.331066,0.154891,-0.042499,-0.929837,10.839318,15.064542,-139.366268
48896,-2.335746,1.686639,9.389362,-0.244592,-0.064277,0.005491,0.035985,0.068148,-0.046607,-0.023322,0.016855,0.093905,1.000000,0.000180,0.000341,-0.000233,0.330801,0.155264,-0.042546,-0.929867,10.856824,15.105808,-139.390090
48897,-2.426504,1.717679,9.569775,-0.224127,-0.038318,0.205657,0.034701,0.075077,-0.055849,-0.024224,0.017167,0.095710,1.000000,0.000174,0.000375,-0.000279,0.330508,0.155670,-0.042567,-0.929903,10.872511,15.151822,-139.416953
48898,-2.695603,1.994252,9.626631,0.113021,-0.088183,0.380192,0.054756,0.070303,-0.055232,-0.026917,0.019924,0.096281,1.000000,0.000274,0.000352,-0.000276,0.330189,0.156086,-0.042691,-0.929941,10.899489,15.195249,-139.445543
48899,-2.867804,2.236030,9.611783,0.381870,-0.169557,0.455512,0.032922,0.047499,-0.046973,-0.028650,0.022351,0.096128,1.000000,0.000165,0.000237,-0.000235,0.329880,0.156356,-0.042767,-0.930002,10.914820,15.224764,-139.476806
48900,-2.834798,2.415311,9.507525,0.493910,-0.328506,0.380985,0.015243,0.031324,-0.006458,-0.028332,0.024147,0.095082,1.000000,0.000076,0.000157,-0.000032,0.329810,0.156515,-0.042809,-0.929998,10.925455,15.240984,-139.481324
48901,-2.762567,2.479811,9.458769,0.493116,-0.423300,0.327688,-0.011930,0.020026,0.033448,-0.027620,0.024799,0.094589,1.000000,-0.000060,0.000100,0.000167,0.329920,0.156567,-0.042782,-0.929951,10.926551,15.246346,-139.466778
48902,-2.738872,2.372055,9.401943,0.428238,-0.352654,0.247971,-0.012524,0.027718,0.082450,-0.027385,0.023715,0.094022,1.000000,-0.000063,0.000139,0.000412,0.330284,0.156644,-0.042771,-0.929809,10.934805,15.250879,-139.419858
48903,-2.701395,2.326511,9.400392,0.372952,-0.340690,0.228348,-0.042573,0.045278,0.123177,-0.027007,0.023268,0.094005,1.000000,-0.000213,0.000226,0.000616,0.330858,0.156745,-0.042626,-0.929595,10.932852,15.260717,-139.348028
48904,-2.549739,2.271029,9.466106,0.206313,-0.395604,0.240513,-0.045492,0.064632,0.159587,-0.025485,0.022711,0.094664,1.000000,-0.000227,0.000323,0.000798,0.331614,0.156923,-0.042461,-0.929303,10.935175,15.277630,-139.251963
48905,-2.789368,2.131525,9.682809,0.226213,-0.143269,0.483383,-0.059070,0.067141,0.183894,-0.027881,0.021318,0.096831,0.999999,-0.000295,0.000336,0.000919,0.332494,0.157085,-0.042250,-0.928971,10.933825,15.293263,-139.141445
48906,-2.853399,1.886918,9.585084,0.155220,0.087811,0.362989,-0.068801,0.054897,0.192369,-0.028526,0.018875,0.095852,0.999999,-0.000344,0.000274,0.000962,0.333418,0.157173,-0.042019,-0.928635,10.927597,15.301144,-139.027345
48907,-2.653191,1.773064,9.401458,-0.001252,0.053033,0.115443,-0.066299,0.050255,0.196486,-0.026526,0.017736,0.094015,0.999999,-0.000331,0.000251,0.000982,0.334349,0.157241,-0.041814,-0.928298,10.923576,15.305884,-138.912431
48908,-2.476968,1.722031,9.540166,-0.205835,-0.024346,0.190941,-0.053509,0.063323,0.192957,-0.024756,0.017222,0.095405,0.999999,-0.000268,0.000317,0.000965,0.335265,0.157392,-0.041640,-0.927950,10.926480,15.318453,-138.797032
48909,-2.642895,1.648123,9.708331,-0.186692,0.132783,0.380467,-0.035368,0.056159,0.189685,-0.026417,0.016473,0.097088,0.999999,-0.000177,0.000281,0.000948,0.336125,0.157541,-0.041566,-0.927617,10.939417,15.327275,-138.687333
48910,-2.868684,1.557569,9.677959,-0.071313,0.349403,0.394717,-0.009424,0.024117,0.183686,-0.028689,0.015554,0.096782,1.000000,-0.000047,0.000121,0.000918,0.336954,0.157586,-0.041655,-0.927304,10.965007,15.318746,-138.581755
48911,-2.518756,1.427757,9.477478,-0.341868,0.235954,0.088457,-0.000142,0.017992,0.163350,-0.025191,0.014257,0.094777,1.000000,-0.000001,0.000090,0.000817,0.337691,0.157623,-0.041781,-0.927024,10.992801,15.308938,-138.487447
48912,-2.572444,1.462990,9.607386,-0.326564,0.243716,0.231895,0.024960,0.032059,0.142848,-0.025719,0.014600,0.096080,1.000000,0.000125,0.000160,0.000714,0.338305,0.157772,-0.041983,-0.926766,11.032013,15.309238,-138.404796
48913,-2.793665,1.496420,9.614624,-0.154093,0.365450,0.303019,0.056611,0.019084,0.124791,-0.027937,0.014920,0.096153,1.000000,0.000283,0.000095,0.000624,0.338832,0.157917,-0.042337,-0.926532,11.086278,15.304012,-138.331091
48914,-2.768693,1.603062,9.605243,-0.109530,0.275744,0.307002,0.069118,0.015028,0.116181,-0.027689,0.015981,0.096060,1.000000,0.000346,0.000075,0.000581,0.339284,0.158067,-0.042752,-0.926323,11.146162,15.297538,-138.265936
48915,-2.614423,1.788435,9.602683,-0.111691,0.043560,0.298239,0.076875,0.005659,0.111691,-0.026151,0.017833,0.096034,1.000000,0.000384,0.000028,0.000558,0.339709,0.158187,-0.043217,-0.926125,11.209722,15.286178,-138.204245
48916,-2.703184,1.738434,9.628686,-0.093000,0.147449,0.336724,0.077815,0.009787,0.114758,-0.027037,0.017331,0.096295,1.000000,0.000389,0.000049,0.000574,0.340146,0.158328,-0.043679,-0.925919,11.274184,15.276780,-138.140548
48917,-2.563853,1.615403,9.696955,-0.296806,0.159990,0.341134,0.089117,-0.008809,0.103621,-0.025651,0.016098,0.096976,1.000000,0.000446,-0.000044,0.000518,0.340565,0.158405,-0.044210,-0.925726,11.342850,15.258047,-138.079659
48918,-2.810544,1.426835,9.732850,-0.253381,0.475338,0.403634,0.133665,-0.039191,0.089099,-0.028131,0.014191,0.097332,1.000000,0.000668,-0.000196,0.000445,0.340828,0.158419,-0.044994,-0.925589,11.433822,15.223884,-138.036679
48919,-2.647943,1.252776,9.513012,-0.411592,0.523954,0.118802,0.133359,-0.050579,0.047476,-0.026506,0.012458,0.095132,1.000000,0.000667,-0.000253,0.000237,0.340884,0.158389,-0.045767,-0.925536,11.518105,15.187981,-138.020763
48920,-2.511752,1.703523,9.611198,-0.269522,0.105362,0.262145,0.177919,-0.047676,0.009287,-0.025141,0.016949,0.096121,1.000000,0.000890,-0.000238,0.000046,0.340740,0.158457,-0.046708,-0.925530,11.621936,15.158097,-138.025338
48921,-2.982007,1.952004,9.697562,0.185182,0.235373,0.514736,0.197238,-0.068221,-0.004336,-0.029853,0.019425,0.096985,0.999999,0.000986,-0.000341,-0.000022,0.340529,0.158467,-0.047760,-0.925553,11.734236,15.118266,-138.038391
48922,-2.623001,2.432938,9.460295,0.295231,-0.340877,0.291426,0.157318,-0.091785,-0.013592,-0.026272,0.024257,0.094610,1.000000,0.000787,-0.000459,-0.000068,0.340284,0.158301,-0.048662,-0.925624,11.821390,15.066333,-138.061710
48923,-2.366111,2.443822,9.282017,0.172697,-0.496976,0.058978,0.116359,-0.070539,-0.005737,-0.023693,0.024385,0.092826,1.000000,0.000582,-0.000353,-0.000029,0.340119,0.158162,-0.049344,-0.925672,11.887087,15.025345,-138.077210
48924,-2.307611,2.407189,9.208839,0.129863,-0.495254,-0.032084,0.073427,-0.036354,0.003325,-0.023093,0.024038,0.092093,1.000000,0.000367,-0.000182,0.000017,0.340032,0.158105,-0.049777,-0.925691,11.930477,15.002539,-138.084038
48925,-2.369596,2.208139,9.264848,0.031189,-0.297637,-0.002555,0.056808,-0.001184,0.013047,-0.023698,0.022054,0.092655,1.000000,0.000284,-0.000006,0.000065,0.340045,0.158182,-0.050076,-0.925657,11.967001,14.998187,-138.076869
48926,-2.494442,2.238564,9.444408,0.077217,-0.238760,0.205660,0.043842,0.013037,0.019007,-0.024940,0.022363,0.094451,1.000000,0.000219,0.000065,0.000095,0.340067,0.158300,-0.050300,-0.925616,11.997364,15.001206,-138.068545
48927,-2.675968,2.185431,9.626517,0.111686,-0.079846,0.414135,0.045656,0.008747,0.024484,-0.026758,0.021829,0.096271,1.000000,0.000228,0.000044,0.000122,0.340123,0.158401,-0.050544,-0.925565,12.029628,15.001130,-138.056104
48928,-2.894439,2.434051,9.713410,0.390850,-0.125097,0.602892,0.030226,-0.024434,0.029947,-0.028960,0.024321,0.097134,1.000000,0.000151,-0.000122,0.000150,0.340196,0.158319,-0.050777,-0.925539,12.052631,14.981837,-138.046067
48929,-2.856872,2.285683,9.527646,0.336375,-0.028999,0.387710,-0.017300,-0.056219,0.025955,-0.028598,0.022861,0.095266,1.000000,-0.000086,-0.000281,0.000130,0.340271,0.158010,-0.050846,-0.925561,12.047031,14.945113,-138.043436
48930,-2.326846,2.133466,9.203455,-0.026222,-0.247982,-0.086060,-0.034231,-0.046887,0.038149,-0.023294,0.021346,0.092025,1.000000,-0.000171,-0.000234,0.000191,0.340428,0.157713,-0.050826,-0.925555,12.033602,14.912257,-138.031423
48931,-2.170465,2.240951,9.165980,-0.055849,-0.429587,-0.140030,-0.037039,-0.010137,0.042058,-0.021714,0.022422,0.091655,1.000000,-0.000185,-0.000051,0.000210,0.340641,0.157581,-0.050730,-0.925504,12.020438,14.899441,-138.009255
48932,-2.624811,1.997115,9.619096,-0.025390,0.044076,0.356016,-0.022029,0.012358,0.065427,-0.026249,0.019973,0.096190,1.000000,-0.000110,0.000062,0.000327,0.340929,0.157572,-0.050687,-0.925402,12.019945,14.896536,-137.974098
48933,-3.044943,2.228838,9.912208,0.325860,0.137666,0.787601,-0.020414,-0.047700,0.066512,-0.030480,0.022288,0.099113,1.000000,-0.000102,-0.000239,0.000333,0.341214,0.157289,-0.050755,-0.925342,12.018817,14.859818,-137.944728
48934,-2.740868,1.908402,9.584101,0.024129,0.193881,0.334784,-0.036546,-0.080990,0.048719,-0.027452,0.019095,0.095826,1.000000,-0.000183,-0.000405,0.000244,0.341412,0.156827,-0.050790,-0.925345,12.004537,14.806596,-137.930781
48935,-2.327310,2.078068,9.313920,-0.070964,-0.197209,0.007694,-0.073349,-0.075746,0.014841,-0.023310,0.020813,0.093123,1.000000,-0.000367,-0.000379,0.000074,0.341426,0.156333,-0.050634,-0.925432,11.964753,14.760285,-137.942914
48936,-2.250658,1.604284,9.283239,-0.397462,0.111808,-0.135537,-0.113734,-0.046458,-0.031860,-0.022526,0.016099,0.092818,1.000000,-0.000569,-0.000232,-0.000159,0.341321,0.155920,-0.050190,-0.925565,11.895432,14.735984,-137.971376
48937,-2.328911,1.673320,9.652998,-0.407484,0.098389,0.248548,-0.114048,-0.038945,-0.067331,-0.023302,0.016796,0.096516,1.000000,-0.000570,-0.000195,-0.000337,0.341094,0.155551,-0.049699,-0.925737,11.821016,14.719975,-138.014497
48938,-2.727137,1.675237,9.583443,-0.087298,0.350116,0.284632,-0.071791,-0.063763,-0.089626,-0.027294,0.016799,0.095820,1.000000,-0.000359,-0.000319,-0.000448,0.340684,0.155144,-0.049434,-0.925970,11.766727,14.692668,-138.078485
48939,-2.189441,1.538886,9.251398,-0.442764,0.108219,-0.192789,-0.054273,-0.055175,-0.100513,-0.021912,0.015425,0.092504,1.000000,-0.000271,-0.000276,-0.000503,0.340231,0.154810,-0.049225,-0.926204,11.721326,14.671405,-138.145316
48940,-2.129581,1.361612,9.345130,-0.620444,0.201530,-0.153754,0.000126,-0.011941,-0.109958,-0.021294,0.013628,0.093450,1.000000,0.000001,-0.000060,-0.000550,0.339684,0.154770,-0.049190,-0.926413,11.706882,14.675450,-138.214814
48941,-2.503020,1.143079,9.832890,-0.643309,0.603680,0.359785,0.088562,0.001581,-0.116475,-0.025023,0.011402,0.098334,1.000000,0.000443,0.000008,-0.000582,0.339067,0.154945,-0.049532,-0.926592,11.742643,14.687857,-138.283200
48942,-3.037663,1.458887,10.003637,-0.123066,0.710750,0.718608,0.141960,-0.045526,-0.143791,-0.030389,0.014540,0.100040,0.999999,0.000710,-0.000228,-0.000719,0.338245,0.154998,-0.050184,-0.926848,11.803453,14.677090,-138.376372
48943,-2.696494,1.557779,9.587483,-0.179293,0.431585,0.257028,0.162772,-0.081187,-0.175996,-0.026990,0.015524,0.095877,0.999999,0.000814,-0.000406,-0.000880,0.337216,0.154928,-0.050975,-0.927192,11.870673,14.650239,-138.496431
48944,-2.344251,2.036926,9.254865,-0.040075,-0.147435,-0.051860,0.169155,-0.059527,-0.184940,-0.023451,0.020313,0.092559,0.999999,0.000846,-0.000298,-0.000925,0.336177,0.154972,-0.051744,-0.927519,11.940664,14.636694,-138.615168
48945,-2.216627,2.436246,9.161777,0.131740,-0.526579,-0.091975,0.161041,-0.011451,-0.166901,-0.022151,0.024307,0.091636,0.999999,0.000805,-0.000057,-0.000835,0.335261,0.155223,-0.052406,-0.927771,12.010232,14.648225,-138.714868
48946,-2.694530,2.710776,9.491437,0.528494,-0.428058,0.396799,0.155543,0.001692,-0.123395,-0.026928,0.027051,0.094936,1.000000,0.000778,0.000008,-0.000617,0.334533,0.155512,-0.053058,-0.927948,12.083323,14.661907,-138.790432
48947,-2.611043,2.868562,9.467170,0.561685,-0.596624,0.385452,0.107932,0.000061,-0.081630,-0.026099,0.028645,0.094687,1.000000,0.000540,0.000000,-0.000408,0.334021,0.155702,-0.053527,-0.928074,12.135425,14.669807,-138.843800
48948,-2.619241,2.704256,9.335975,0.505331,-0.459312,0.230595,0.069827,-0.009398,-0.043820,-0.026191,0.027016,0.093368,1.000000,0.000349,-0.000047,-0.000219,0.333725,0.155775,-0.053861,-0.928149,12.170710,14.667815,-138.874653
48949,-2.000271,2.200461,9.180263,-0.202509,-0.461272,-0.175958,0.033145,0.018756,-0.031935,-0.019991,0.021993,0.091808,1.000000,0.000166,0.000094,-0.000160,0.333535,0.155913,-0.053987,-0.928187,12.187748,14.680003,-138.893440
48950,-2.367910,1.901674,9.478468,-0.216877,0.001939,0.138075,0.043079,0.056737,-0.036041,-0.023649,0.019001,0.094795,1.000000,0.000215,0.000284,-0.000180,0.333314,0.156246,-0.054092,-0.928204,12.210934,14.714130,-138.911516
48951,-2.841492,1.853159,9.689717,0.024147,0.339302,0.448072,0.048905,0.029001,-0.067021,-0.028395,0.018517,0.096906,1.000000,0.000245,0.000145,-0.000335,0.332907,0.156467,-0.054254,-0.928303,12.232323,14.736472,-138.954645
48952,-2.570641,2.004836,9.591928,-0.054971,0.050906,0.317813,0.054150,0.011229,-0.093624,-0.025692,0.020034,0.095926,1.000000,0.000271,0.000056,-0.000468,0.332398,0.156622,-0.054442,-0.928449,12.251903,14.752126,-139.011756
48953,-2.781953,2.777137,9.495949,0.591508,-0.411792,0.439402,0.024851,-0.012746,-0.095547,-0.027812,0.027773,0.094961,1.000000,0.000124,-0.000064,-0.000478,0.331842,0.156615,-0.054544,-0.928643,12.254033,14.754585,-139.079669
48954,-2.431082,2.786253,9.032177,0.492641,-0.642334,-0.086522,-0.033486,0.000846,-0.062886,-0.024302,0.027885,0.090317,1.000000,-0.000167,0.000004,-0.000314,0.331541,0.156569,-0.054367,-0.928768,12.227589,14.760691,-139.120291
48955,-2.169566,3.257601,8.997270,0.596520,-1.178355,-0.090265,-0.074754,0.050449,0.013822,-0.021675,0.032608,0.089966,1.000000,-0.000374,0.000252,0.000069,0.331626,0.156662,-0.053980,-0.928745,12.190679,14.785210,-139.112285
48956,-2.088672,2.674605,8.985346,0.193443,-0.788287,-0.242229,-0.141392,0.106095,0.069299,-0.020848,0.026802,0.089846,1.000000,-0.000707,0.000530,0.000346,0.332052,0.156889,-0.053230,-0.928598,12.125302,14.834259,-139.063207
48957,-2.357641,2.123770,9.312494,-0.048270,-0.207586,0.023265,-0.134378,0.153548,0.095066,-0.023515,0.021289,0.093129,0.999999,-0.000672,0.000768,0.000475,0.332592,0.157341,-0.052458,-0.928372,12.069616,14.906806,-138.994738
48958,-2.415144,1.660599,9.519655,-0.355535,0.169259,0.140165,-0.141947,0.153818,0.068293,-0.024084,0.016665,0.095203,0.999999,-0.000710,0.000769,0.000341,0.333026,0.157789,-0.051626,-0.928187,12.005385,14.982816,-138.940418
48959,-2.711547,1.298602,9.782010,-0.447637,0.618034,0.392420,-0.107836,0.151182,0.027942,-0.027043,0.013035,0.097834,1.000000,-0.000539,0.000756,0.000140,0.333203,0.158289,-0.050934,-0.928076,11.954964,15.062107,-138.914975
48960,-3.225315,1.299265,10.166958,-0.203951,0.925529,0.890563,-0.068282,0.097440,-0.008158,-0.032203,0.013029,0.101681,1.000000,-0.000341,0.000487,-0.000041,0.333209,0.158617,-0.050477,-0.928043,11.919690,15.115665,-138.912062
48961,-3.006418,1.442867,9.777582,-0.149542,0.670411,0.495062,-0.065608,0.029425,-0.070167,-0.030045,0.014471,0.097776,1.000000,-0.000328,0.000147,-0.000351,0.332904,0.158650,-0.050099,-0.928168,11.874605,15.138361,-138.953975
48962,-2.547627,1.817711,9.539921,-0.177648,0.084061,0.225537,-0.055030,0.021922,-0.124815,-0.025454,0.018219,0.095397,1.000000,-0.000275,0.000110,-0.000624,0.332339,0.158678,-0.049736,-0.928385,11.826786,15.163304,-139.028121
48963,-2.561837,2.084810,9.419211,0.036106,-0.123739,0.168011,-0.103819,0.029311,-0.172418,-0.025587,0.020919,0.094185,0.999999,-0.000519,0.000147,-0.000862,0.331581,0.158672,-0.049101,-0.928691,11.744188,15.197813,-139.130424
48964,-2.662752,2.455163,9.458475,0.325032,-0.365055,0.303729,-0.155185,0.031653,-0.206005,-0.026587,0.024652,0.094570,0.999999,-0.000776,0.000158,-0.001030,0.330720,0.158599,-0.048192,-0.929057,11.626791,15.237431,-139.250708
48965,-2.809767,2.156194,9.749126,0.168089,-0.066558,0.558266,-0.203419,0.016853,-0.212829,-0.028066,0.021691,0.097472,0.999999,-0.001017,0.000084,-0.001064,0.329856,0.158381,-0.047082,-0.929459,11.480403,15.269290,-139.377515
48966,-2.941534,1.999082,9.654170,0.215987,0.118098,0.472802,-0.209514,-0.033286,-0.206029,-0.029411,0.020122,0.096516,0.999999,-0.001048,-0.000166,-0.001030,0.329021,0.157916,-0.046028,-0.929887,11.329698,15.271869,-139.505669
48967,-2.582450,1.812963,9.360712,-0.047415,0.023847,0.065366,-0.207214,-0.029184,-0.195161,-0.025820,0.018252,0.093584,0.999999,-0.001036,-0.000146,-0.000976,0.328243,0.157473,-0.044986,-0.930288,11.182269,15.275275,-139.625967
48968,-2.363653,2.055871,9.289697,-0.027029,-0.318921,-0.014246,-0.175551,-0.005800,-0.156216,-0.023623,0.020659,0.092878,0.999999,-0.000878,-0.000029,-0.000781,0.327618,0.157180,-0.044085,-0.930600,11.059477,15.287189,-139.721960
48969,-2.391844,2.081028,9.313902,0.010523,-0.338051,0.020213,-0.163589,0.027517,-0.110114,-0.023894,0.020900,0.093125,1.000000,-0.000818,0.000138,-0.000551,0.327204,0.157050,-0.043223,-0.930809,10.951818,15.312416,-139.787478
48970,-2.702399,2.178808,9.543001,0.231192,-0.241603,0.336559,-0.139390,0.032988,-0.069140,-0.027001,0.021864,0.095419,1.000000,-0.000697,0.000165,-0.000346,0.326964,0.156978,-0.042494,-0.930939,10.864234,15.336367,-139.828379
48971,-2.656572,2.126131,9.596984,0.155674,-0.243580,0.365541,-0.142642,0.021893,-0.034824,-0.026552,0.021334,0.095958,1.000000,-0.000713,0.000109,-0.000174,0.326901,0.156841,-0.041793,-0.931016,10.779875,15.350246,-139.848374
48972,-2.939083,2.118306,9.769415,0.311859,-0.076831,0.601904,-0.128235,0.005155,0.018474,-0.029390,0.021243,0.097681,1.000000,-0.000641,0.000026,0.000092,0.327053,0.156639,-0.041231,-0.931021,10.711367,15.349058,-139.841290
48973,-2.983102,2.071677,9.651945,0.363030,-0.016971,0.493558,-0.125977,-0.029168,0.055444,-0.029851,0.020769,0.096502,1.000000,-0.000630,-0.000146,0.000277,0.327354,0.156274,-0.040768,-0.930997,10.649186,15.324787,-139.818178
48974,-2.706465,2.181423,9.413328,0.311374,-0.272394,0.213436,-0.121572,-0.047007,0.096855,-0.027097,0.021858,0.094114,1.000000,-0.000608,-0.000235,0.000484,0.327855,0.155824,-0.040383,-0.930913,10.595063,15.285961,-139.771042
48975,-2.506230,2.383753,9.177728,0.370122,-0.551276,-0.027328,-0.126941,-0.022467,0.139754,-0.025089,0.023878,0.091759,1.000000,-0.000635,-0.000112,0.000699,0.328563,0.155471,-0.039969,-0.930740,10.545414,15.256543,-139.696367
48976,-2.274528,2.271418,9.069468,0.175280,-0.608189,-0.211258,-0.133778,0.018006,0.197753,-0.022760,0.022752,0.090682,0.999999,-0.000669,0.000090,0.000989,0.329556,0.155282,-0.039499,-0.930441,10.501619,15.243861,-139.583211
48977,-2.160530,1.931433,9.049090,-0.101512,-0.417981,-0.320620,-0.113824,0.067868,0.230257,-0.021597,0.019341,0.090487,0.999999,-0.000569,0.000339,0.001151,0.330699,0.155352,-0.039066,-0.930042,10.475910,15.255858,-139.445038
48978,-2.576117,1.526195,9.572154,-0.206260,0.136780,0.213804,-0.099388,0.104612,0.231219,-0.025729,0.015280,0.095727,0.999999,-0.000497,0.000523,0.001156,0.331836,0.155616,-0.038638,-0.929610,10.459478,15.288594,-139.302966
48979,-2.600773,1.116741,9.573973,-0.438085,0.463133,0.150528,-0.117422,0.079256,0.182010,-0.025980,0.011200,0.095743,0.999999,-0.000587,0.000396,0.000910,0.332747,0.155741,-0.038135,-0.929285,10.424764,15.312102,-139.193263
48980,-2.331912,1.029487,9.549262,-0.681473,0.353278,0.041086,-0.092609,0.110930,0.136493,-0.023273,0.010323,0.095501,1.000000,-0.000463,0.000555,0.000682,0.333439,0.156063,-0.037655,-0.929002,10.397910,15.358341,-139.105854
48981,-3.040414,1.334024,10.043242,-0.139277,0.538994,0.750481,-0.074796,0.092366,0.105592,-0.030365,0.013362,0.100441,1.000000,-0.000374,0.000462,0.000528,0.333970,0.156337,-0.037266,-0.928781,10.376287,15.397549,-139.038511
48982,-2.957619,1.734661,9.813596,0.114666,0.180364,0.580461,-0.035870,0.030408,0.102000,-0.029570,0.017349,0.098137,1.000000,-0.000179,0.000152,0.000510,0.334442,0.156387,-0.037156,-0.928607,10.374393,15.402019,-138.979887
48983,-3.074739,2.194128,9.765988,0.495770,-0.098688,0.646147,-0.040480,0.000637,0.115077,-0.030760,0.021943,0.097656,1.000000,-0.000202,0.000003,0.000575,0.334918,0.156286,-0.037099,-0.928455,10.371489,15.388317,-138.923648
48984,-2.529021,2.289755,9.396564,0.277708,-0.503632,0.167472,-0.067943,-0.008265,0.148995,-0.025311,0.022911,0.093957,1.000000,-0.000340,-0.000041,0.000745,0.335626,0.156094,-0.036942,-0.928238,10.357382,15.366157,-138.841696
48985,-2.813734,2.252381,9.596306,0.401934,-0.298735,0.425897,-0.042105,0.017014,0.211126,-0.028153,0.022514,0.095961,0.999999,-0.000211,0.000085,0.001056,0.336617,0.156051,-0.036912,-0.927887,10.368633,15.351857,-138.719499
48986,-2.833185,1.942000,9.518534,0.252308,-0.040762,0.303412,-0.068073,0.008370,0.238743,-0.028351,0.019419,0.095180,0.999999,-0.000340,0.000042,0.001194,0.337744,0.155919,-0.036796,-0.927504,10.368745,15.329812,-138.583334
48987,-2.360098,1.487312,9.256366,-0.285914,0.019432,-0.149337,-0.048627,0.035204,0.255007,-0.023604,0.014866,0.092564,0.999999,-0.000243,0.000176,0.001275,0.338977,0.155941,-0.036733,-0.927053,10.383320,15.321109,-138.429728
48988,-2.290387,1.312895,9.364440,-0.480908,0.105705,-0.095699,-0.021221,0.080578,0.234129,-0.022881,0.013112,0.093652,0.999999,-0.000106,0.000403,0.001171,0.340059,0.156223,-0.036709,-0.926610,10.411582,15.340167,-138.288535
48989,-2.506110,1.242303,9.560769,-0.437530,0.289781,0.135015,-0.017685,0.094641,0.172846,-0.025027,0.012410,0.095618,1.000000,-0.000088,0.000473,0.000864,0.340899,0.156588,-0.036623,-0.926243,10.432936,15.373405,-138.176348
48990,-2.427066,1.006065,9.559781,-0.647046,0.416141,0.071663,-0.032833,0.094662,0.105202,-0.024231,0.010064,0.095608,1.000000,-0.000164,0.000473,0.000526,0.341394,0.156939,-0.036420,-0.926010,10.435109,15.413691,-138.108935
48991,-2.861768,1.351924,10.016271,-0.271479,0.410604,0.680206,0.020340,0.077302,0.077772,-0.028584,0.013498,0.100175,1.000000,0.000102,0.000387,0.000389,0.341782,0.157308,-0.036461,-0.925802,10.463032,15.447063,-138.051451
48992,-3.318206,1.706792,10.073576,0.252951,0.433224,0.918058,0.026685,0.000807,0.048664,-0.033186,0.017046,0.100738,1.000000,0.000133,0.000004,0.000243,0.341952,0.157335,-0.036650,-0.925728,10.487875,15.440313,-138.027181
48993,-2.975840,1.705202,9.568332,0.166452,0.239218,0.347597,0.024103,-0.050073,0.032265,-0.029785,0.017036,0.095678,1.000000,0.000121,-0.000250,0.000161,0.342053,0.157127,-0.036900,-0.925716,10.507378,15.406583,-138.016188
48994,-2.340417,1.789766,9.228710,-0.128159,-0.215939,-0.128327,0.034987,-0.021411,0.034888,-0.023417,0.017877,0.092288,1.000000,0.000175,-0.000107,0.000174,0.342148,0.157069,-0.037154,-0.925680,10.534179,15.388739,-138.002389
48995,-2.463277,1.999950,9.249853,0.082213,-0.293529,-0.038518,0.031950,0.007948,0.037356,-0.024633,0.019980,0.092503,1.000000,0.000160,0.000040,0.000187,0.342266,0.157141,-0.037347,-0.925616,10.560666,15.387149,-137.983521
48996,-2.300386,2.134935,9.210022,0.058748,-0.498207,-0.095560,0.015922,0.042073,0.042762,-0.022989,0.021337,0.092107,1.000000,0.000080,0.000210,0.000214,0.342425,0.157343,-0.037411,-0.925521,10.579597,15.404223,-137.958217
48997,-2.462823,2.335818,9.372490,0.244392,-0.554594,0.137077,-0.021635,0.077608,0.052829,-0.024598,0.023362,0.093732,1.000000,-0.000108,0.000388,0.000264,0.342699,0.157644,-0.037243,-0.925375,10.579715,15.440192,-137.918990
48998,-2.455988,1.950008,9.315992,0.014720,-0.269659,0.013257,-0.090384,0.087657,0.042206,-0.024523,0.019537,0.093162,1.000000,-0.000452,0.000438,0.000211,0.342947,0.157874,-0.036737,-0.925264,10.539003,15.483004,-137.889040
48999,-2.264514,1.617520,9.315304,-0.330938,-0.152262,-0.097413,-0.109780,0.133825,0.027315,-0.022585,0.016223,0.093159,1.000000,-0.000549,0.000669,0.000137,0.343185,0.158287,-0.036045,-0.925132,10.486314,15.553222,-137.858510
49000,-2.693108,1.298013,9.860837,-0.400724,0.329613,0.478305,-0.113861,0.143140,0.017881,-0.026862,0.013034,0.098620,1.000000,-0.000569,0.000716,0.000089,0.343349,0.158738,-0.035315,-0.925022,10.429987,15.629876,-137.836858
49001,-3.131108,1.328681,9.949893,-0.099378,0.571854,0.686489,-0.080833,0.072691,-0.009652,-0.031274,0.013329,0.099505,1.000000,-0.000404,0.000363,-0.000048,0.343368,0.158925,-0.034835,-0.925002,10.386346,15.669561,-137.836335
49002,-2.592959,1.250965,9.357196,-0.343483,0.300660,-0.033266,-0.053034,0.045586,-0.053087,-0.025905,0.012541,0.093575,1.000000,-0.000265,0.000228,-0.000265,0.343138,0.159041,-0.034498,-0.925080,10.350816,15.698584,-137.866791
49003,-2.493988,1.745285,9.465236,-0.141772,-0.153141,0.127792,-0.027695,0.077444,-0.087914,-0.024896,0.017477,0.094660,1.000000,-0.000138,0.000387,-0.000440,0.342767,0.159357,-0.034190,-0.925174,10.325245,15.749208,-137.909817
49004,-3.051323,1.936916,9.984583,0.206778,0.029211,0.803833,-0.001118,0.050080,-0.070037,-0.030481,0.019380,0.099853,1.000000,-0.000006,0.000250,-0.000350,0.342418,0.159586,-0.034071,-0.925268,10.316842,15.782480,-137.949758
49005,-2.936748,2.103038,9.627234,0.342033,-0.158412,0.462954,-0.022010,-0.017643,-0.049758,-0.029371,0.021048,0.096267,1.000000,-0.000110,-0.000088,-0.000249,0.342232,0.159464,-0.033977,-0.925362,10.297684,15.775407,-137.977104
49006,-2.915046,1.899249,9.648399,0.195779,-0.019080,0.441948,-0.020875,-0.014733,-0.019765,-0.029156,0.019005,0.096480,1.000000,-0.000104,-0.000074,-0.000099,0.342120,0.159351,-0.033918,-0.925425,10.284083,15.766976,-137.994509
49007,-2.837476,2.031689,9.674871,0.218542,-0.170913,0.468615,-0.030028,-0.046919,0.010980,-0.028399,0.020330,0.096739,1.000000,-0.000150,-0.000235,0.000055,0.342205,0.159069,-0.033888,-0.925443,10.269198,15.737148,-137.990825
49008,-2.621409,1.889784,9.394132,0.069473,-0.187193,0.119730,-0.022432,-0.028887,0.026774,-0.026230,0.018905,0.093935,1.000000,-0.000112,-0.000144,0.000134,0.342307,0.158879,-0.033883,-0.925438,10.261701,15.715978,-137.982465
49009,-2.485334,1.867937,9.359889,-0.027380,-0.256938,0.046665,-0.045424,0.002200,0.020550,-0.024854,0.018698,0.093595,1.000000,-0.000227,0.000011,0.000103,0.342447,0.158796,-0.033708,-0.925407,10.241007,15.712860,-137.969221
49010,-2.637166,1.698886,9.533239,-0.076507,-0.041166,0.223047,-0.058328,0.016525,0.026715,-0.026366,0.017013,0.095330,1.000000,-0.000292,0.000083,0.000134,0.342585,0.158756,-0.033459,-0.925372,10.214235,15.717306,-137.956081
49011,-2.936368,1.764009,9.808580,0.094634,0.085750,0.576052,-0.062643,-0.014609,0.010188,-0.029372,0.017669,0.098078,1.000000,-0.000313,-0.000073,0.000051,0.342688,0.158569,-0.033223,-0.925374,10.181532,15.706023,-137.950516
49012,-2.907596,1.457193,9.785103,-0.100779,0.297104,0.493976,-0.130478,-0.047815,-0.052380,-0.029096,0.014643,0.097835,1.000000,-0.000652,-0.000239,-0.000262,0.342506,0.158121,-0.032688,-0.925537,10.099056,15.682179,-137.990463
49013,-2.478683,1.196679,9.375565,-0.427119,0.231389,-0.053531,-0.138931,-0.073986,-0.114506,-0.024815,0.012046,0.093738,1.000000,-0.000695,-0.000370,-0.000573,0.342056,0.157547,-0.032109,-0.925822,10.001389,15.649684,-138.067429
49014,-2.210446,1.107915,9.245170,-0.622893,0.126831,-0.263728,-0.054673,-0.032835,-0.123030,-0.022113,0.011118,0.092445,1.000000,-0.000273,-0.000164,-0.000615,0.341489,0.157309,-0.031843,-0.926080,9.951653,15.641196,-138.147153
49015,-2.685795,1.575400,9.576503,-0.089757,0.055248,0.256755,-0.013703,-0.022956,-0.116708,-0.026860,0.015776,0.095761,1.000000,-0.000069,-0.000115,-0.000584,0.340943,0.157186,-0.031753,-0.926306,9.926770,15.637654,-138.219542
49016,-2.828221,1.739700,9.518838,0.136390,0.020814,0.267721,-0.019603,-0.027212,-0.117000,-0.028285,0.017423,0.095183,1.000000,-0.000098,-0.000136,-0.000585,0.340377,0.157032,-0.031645,-0.926544,9.898252,15.631660,-138.295141
49017,-2.755541,1.698785,9.644122,0.022746,-0.002802,0.360190,-0.004664,-0.019823,-0.095123,-0.027557,0.017003,0.096438,1.000000,-0.000023,-0.000099,-0.000476,0.339911,0.156937,-0.031610,-0.926732,9.882101,15.627817,-138.356005
49018,-3.170174,2.001526,9.972293,0.408828,0.016711,0.833219,0.041623,-0.062074,-0.048317,-0.031728,0.020002,0.099717,1.000000,0.000208,-0.000310,-0.000242,0.339610,0.156715,-0.031899,-0.926870,9.898570,15.595357,-138.394903
49019,-3.012815,1.907099,9.619739,0.353069,0.010441,0.440541,-0.018982,-0.101868,-0.029850,-0.030174,0.019085,0.096180,1.000000,-0.000095,-0.000509,-0.000149,0.339433,0.156201,-0.031992,-0.927018,9.882418,15.538446,-138.427438
49020,-2.546502,1.716688,9.520021,-0.062533,-0.129968,0.189397,0.035757,-0.098562,0.006012,-0.025512,0.017149,0.095191,1.000000,0.000179,-0.000493,0.000030,0.339382,0.155791,-0.032358,-0.927093,9.903111,15.480044,-138.438222
49021,-3.072238,1.764895,10.050316,0.187245,0.155065,0.841103,0.033136,-0.103341,0.030422,-0.030777,0.017628,0.100490,1.000000,0.000166,-0.000517,0.000152,0.339409,0.155351,-0.032748,-0.927144,9.926338,15.416586,-138.439800
49022,-3.544522,1.816399,10.193024,0.527241,0.425212,1.109851,0.015867,-0.218726,0.020374,-0.035559,0.018152,0.101893,0.999999,0.000079,-0.001094,0.000102,0.339420,0.154348,-0.033237,-0.927290,9.934620,15.288955,-138.454523
49023,-2.611532,1.390438,9.268354,-0.107055,0.211619,-0.086459,0.010893,-0.243945,-0.003027,-0.026228,0.013900,0.092652,0.999999,0.000054,-0.001220,-0.000015,0.339317,0.153225,-0.033730,-0.927496,9.936026,15.149654,-138.486198
49024,-1.983547,1.634822,9.085317,-0.338924,-0.355571,-0.383543,0.028870,-0.180960,0.001135,-0.019918,0.016335,0.090838,1.000000,0.000144,-0.000905,0.000006,0.339234,0.152422,-0.034200,-0.927641,9.949898,15.045243,-138.508308
49025,-1.805853,1.834584,9.086201,-0.336050,-0.610784,-0.394628,0.045110,-0.110128,0.007937,-0.018109,0.018325,0.090856,1.000000,0.000226,-0.000551,0.000040,0.339124,0.151973,-0.034643,-0.927739,9.976444,14.980232,-138.526468
49026,-2.153951,1.634383,9.253048,-0.256002,-0.231919,-0.178878,0.050376,-0.053387,0.014031,-0.021565,0.016319,0.092529,1.000000,0.000252,-0.000267,0.000070,0.339107,0.151796,-0.035007,-0.927760,10.008002,14.946542,-138.527997
49027,-2.805333,1.812702,9.831253,0.149880,0.034447,0.569300,0.057874,-0.054433,0.023300,-0.028082,0.018095,0.098310,1.000000,0.000289,-0.000272,0.000117,0.339076,0.151622,-0.035426,-0.927784,10.045635,14.911170,-138.530536
49028,-2.943402,1.673152,9.858391,0.158745,0.238476,0.606950,0.029922,-0.105764,0.015285,-0.029487,0.016715,0.098571,1.000000,0.000150,-0.000529,0.000076,0.339071,0.151167,-0.035785,-0.927846,10.064262,14.847808,-138.536792
49029,-2.581969,1.814320,9.388397,0.134983,-0.074474,0.090673,0.015111,-0.124345,0.006689,-0.025879,0.018135,0.093869,1.000000,0.000076,-0.000622,0.000033,0.339020,0.150602,-0.036103,-0.927945,10.072891,14.774777,-138.551632
49030,-1.908196,1.720053,8.934359,-0.267113,-0.410483,-0.529223,0.004385,-0.066783,-0.004256,-0.019111,0.017199,0.089338,1.000000,0.000022,-0.000334,-0.000021,0.338950,0.150287,-0.036262,-0.928015,10.075021,14.735366,-138.565265
49031,-2.167792,1.973169,9.365420,-0.050848,-0.450966,-0.009736,-0.003194,-0.001677,0.005809,-0.021679,0.019733,0.093654,1.000000,-0.000016,-0.000008,0.000029,0.338951,0.150260,-0.036284,-0.928018,10.076220,14.731610,-138.565548
49032,-2.930133,2.091106,10.076840,0.359852,-0.076624,0.881505,-0.003778,-0.016614,0.033418,-0.029313,0.020908,0.100766,1.000000,-0.000019,-0.000083,0.000167,0.339071,0.150158,-0.036349,-0.927988,10.080587,14.716723,-138.552007
49033,-3.262373,2.171965,9.939833,0.697840,0.085085,0.848765,-0.002322,-0.117710,0.054596,-0.032688,0.021712,0.099379,1.000000,-0.000012,-0.000589,0.000273,0.339304,0.149588,-0.036602,-0.927985,10.086346,14.642800,-138.532361
49034,-2.335018,1.841064,9.246322,0.041498,-0.225462,-0.102707,-0.071920,-0.105031,0.040027,-0.023402,0.018439,0.092444,1.000000,-0.000360,-0.000525,0.000200,0.339490,0.148958,-0.036505,-0.928022,10.050307,14.577374,-138.524124
49035,-1.854989,1.802907,9.027514,-0.253517,-0.495664,-0.438387,-0.081882,-0.059443,0.023321,-0.018579,0.018064,0.090262,1.000000,-0.000409,-0.000297,0.000117,0.339628,0.148530,-0.036271,-0.928050,10.007476,14.539589,-138.519132
49036,-1.250945,1.733065,8.467477,-0.559853,-0.815708,-1.135838,-0.117233,0.038060,-0.001539,-0.012493,0.017380,0.084667,1.000000,-0.000586,0.000190,-0.000008,0.339680,0.148495,-0.035690,-0.928059,9.943090,14.559048,-138.520348
49037,-1.438609,1.777807,8.815276,-0.500428,-0.754202,-0.750678,-0.105647,0.158783,-0.002821,-0.014316,0.017825,0.088155,1.000000,-0.000528,0.000794,-0.000014,0.339770,0.149041,-0.034952,-0.927966,9.888385,14.646760,-138.506169
49038,-2.143862,1.828479,9.314048,-0.114942,-0.377136,-0.089752,-0.104763,0.223642,0.004617,-0.021335,0.018333,0.093155,0.999999,-0.000524,0.001118,0.000023,0.339874,0.149887,-0.034118,-0.927823,9.836824,14.770372,-138.485002
49039,-2.652872,1.696387,9.551819,0.089408,0.021370,0.244360,-0.091044,0.221922,0.015404,-0.026424,0.017005,0.095540,0.999999,-0.000455,0.001110,0.000077,0.340014,0.150746,-0.033362,-0.927660,9.794972,14.891797,-138.458133
49040,-2.656887,1.769730,9.456044,0.156053,-0.048676,0.166340,-0.113937,0.229324,0.021759,-0.026462,0.017748,0.094581,0.999999,-0.000570,0.001147,0.000109,0.340204,0.151599,-0.032489,-0.927482,9.740927,15.016984,-138.426563
49041,-2.344910,1.842921,9.317055,0.007090,-0.320689,-0.035187,-0.117024,0.261584,0.029144,-0.023330,0.018480,0.093190,0.999999,-0.000585,0.001308,0.000146,0.340420,0.152596,-0.031557,-0.927272,9.687421,15.159660,-138.389419
49042,-3.110303,1.899710,9.871018,0.413382,0.076658,0.701258,-0.136594,0.277264,0.035379,-0.030970,0.019059,0.098740,0.999999,-0.000683,0.001386,0.000177,0.340698,0.153630,-0.030507,-0.927034,9.623839,15.310676,-138.345314
49043,-3.132926,1.578683,9.855621,0.226581,0.313201,0.641558,-0.174806,0.175608,0.029215,-0.031245,0.015868,0.098570,0.999999,-0.000874,0.000878,0.000146,0.340954,0.154128,-0.029453,-0.926891,9.535075,15.404729,-138.315711
49044,-2.670510,1.768961,9.578754,0.094157,-0.136201,0.286121,-0.150025,0.160984,0.030811,-0.026631,0.017757,0.095796,0.999999,-0.000750,0.000805,0.000154,0.341202,0.154601,-0.028535,-0.926750,9.460100,15.490583,-138.286077
49045,-2.626256,1.994545,9.540531,0.213296,-0.355293,0.273213,-0.175459,0.151268,0.028880,-0.026193,0.020025,0.095408,0.999999,-0.000877,0.000756,0.000144,0.341479,0.154986,-0.027513,-0.926615,9.370196,15.571142,-138.256054
49046,-2.552945,1.638852,9.311633,0.008278,-0.139355,-0.020326,-0.198501,0.173328,0.037271,-0.025452,0.016476,0.093122,0.999999,-0.000993,0.000867,0.000186,0.341794,0.155432,-0.026355,-0.926457,9.268804,15.663465,-138.221691
49047,-2.508681,1.576584,9.380886,-0.085034,-0.148601,0.023508,-0.209108,0.206147,0.032084,-0.024993,0.015860,0.093818,0.999999,-0.001046,0.001031,0.000160,0.342114,0.156014,-0.025086,-0.926276,9.161573,15.774962,-138.185318
49048,-2.621779,1.384631,9.536540,-0.174436,0.033471,0.172547,-0.226644,0.230055,0.019999,-0.026109,0.013952,0.095380,0.999999,-0.001133,0.001150,0.000100,0.342378,0.156676,-0.023687,-0.926104,9.042781,15.901068,-138.156094
49049,-3.374611,1.277083,10.049758,0.135975,0.539647,0.850653,-0.160260,0.192070,0.031823,-0.033652,0.012846,0.100520,0.999999,-0.000801,0.000960,0.000159,0.342667,0.157275,-0.022666,-0.925921,8.963121,16.004588,-138.120144
49050,-2.999104,1.441341,9.687437,0.078082,0.175279,0.428487,-0.161405,0.150564,0.025806,-0.029920,0.014488,0.096885,0.999999,-0.000807,0.000753,0.000129,0.342896,0.157679,-0.021710,-0.925790,8.880619,16.085272,-138.095232
49051,-3.292524,1.099039,10.270078,-0.109943,0.568839,1.012626,-0.081048,0.137449,0.060796,-0.032858,0.011022,0.102719,1.000000,-0.000405,0.000687,0.000304,0.343248,0.158158,-0.021172,-0.925591,8.849717,16.155464,-138.047734
49052,-3.653141,1.130072,10.542904,0.080544,0.751611,1.376769,-0.033549,0.001370,0.086791,-0.036536,0.011303,0.105427,1.000000,-0.000168,0.000007,0.000434,0.343642,0.158084,-0.021111,-0.925459,8.846678,16.146340,-138.000660
49053,-3.320121,0.653162,9.891655,-0.256154,0.951838,0.595148,0.034317,-0.060696,0.079605,-0.033234,0.006501,0.098908,1.000000,0.000172,-0.000303,0.000398,0.344008,0.157843,-0.021454,-0.925356,8.879715,16.102768,-137.955523
49054,-2.614229,0.510773,9.487100,-0.723626,0.644659,-0.006520,0.071251,-0.085183,0.029377,-0.026183,0.005070,0.094862,1.000000,0.000356,-0.000426,0.000147,0.344044,0.157555,-0.021982,-0.925379,8.925079,16.049698,-137.950285
49055,-2.150203,0.875055,9.201564,-0.739852,0.100332,-0.352222,0.154437,-0.043962,-0.010881,-0.021522,0.008681,0.092018,1.000000,0.000772,-0.000220,-0.000054,0.343848,0.157607,-0.022791,-0.925424,9.012732,16.023593,-137.963015
49056,-2.353858,1.552720,9.231276,-0.185526,-0.274546,-0.166018,0.170014,0.001211,-0.017631,-0.023537,0.015451,0.092326,1.000000,0.000850,0.000006,-0.000088,0.343598,0.157894,-0.023590,-0.925448,9.109236,16.023633,-137.977493
49057,-2.563675,1.743331,9.305903,0.048814,-0.278448,-0.008019,0.176375,0.035243,0.006785,-0.025621,0.017350,0.093079,1.000000,0.000882,0.000176,0.000034,0.343468,0.158346,-0.024380,-0.925398,9.214411,16.040604,-137.973379
49058,-2.657511,1.988265,9.396337,0.227834,-0.401399,0.141893,0.140969,0.059180,0.029614,-0.026550,0.019812,0.093985,1.000000,0.000705,0.000296,0.000148,0.343466,0.158845,-0.024982,-0.925297,9.303492,16.069118,-137.954497
49059,-2.670136,1.671105,9.527189,-0.016315,-0.152440,0.220559,0.125012,0.063331,0.034730,-0.026674,0.016647,0.095291,1.000000,0.000625,0.000317,0.000174,0.343536,0.159336,-0.025502,-0.925173,9.384470,16.099425,-137.927832
49060,-3.160507,1.598058,9.957737,0.140041,0.200101,0.753270,0.137104,0.043127,0.041698,-0.031587,0.015906,0.099595,1.000000,0.000686,0.000216,0.000208,0.343591,0.159753,-0.026124,-0.925063,9.472917,16.117677,-137.903316
49061,-3.268673,1.635631,9.794710,0.282306,0.262757,0.634662,0.132324,-0.037655,0.031695,-0.032708,0.016286,0.097952,1.000000,0.000662,-0.000188,0.000158,0.343650,0.159791,-0.026844,-0.925014,9.554721,16.091249,-137.885505
49062,-2.552738,1.657079,9.403260,-0.097417,-0.178006,0.068734,0.131229,-0.036552,0.027378,-0.025547,0.016506,0.094039,1.000000,0.000656,-0.000183,0.000137,0.343632,0.159831,-0.027564,-0.924993,9.635277,16.065786,-137.877276
49063,-2.922468,1.910637,9.658789,0.238828,-0.134533,0.454172,0.135579,-0.041899,0.030775,-0.029248,0.019036,0.096595,1.000000,0.000678,-0.000209,0.000154,0.343597,0.159853,-0.028324,-0.924979,9.719049,16.036948,-137.871131
49064,-2.689958,1.946818,9.389437,0.177535,-0.284708,0.140951,0.073065,-0.057022,0.012597,-0.026928,0.019432,0.093894,1.000000,0.000365,-0.000285,0.000063,0.343554,0.159700,-0.028798,-0.925006,9.763286,16.001339,-137.873720
49065,-2.482707,2.100826,9.390984,0.124649,-0.528044,0.110695,0.052028,-0.020644,0.015203,-0.024838,0.020982,0.093913,1.000000,0.000260,-0.000103,0.000076,0.343569,0.159679,-0.029112,-0.924995,9.797027,15.985940,-137.868184
49066,-2.629075,1.961168,9.411667,0.133983,-0.323994,0.147974,0.012455,-0.008731,0.027735,-0.026298,0.019602,0.094117,1.000000,0.000062,-0.000044,0.000139,0.343652,0.159644,-0.029235,-0.924966,9.810326,15.976121,-137.857022
49067,-2.524377,1.806237,9.319305,-0.008491,-0.267602,0.006312,-0.022001,0.014961,0.017340,-0.025238,0.018070,0.093193,1.000000,-0.000110,0.000075,0.000087,0.343747,0.159660,-0.029146,-0.924931,9.802992,15.980531,-137.845899
49068,-2.551973,1.588508,9.425607,-0.158352,-0.091994,0.078948,-0.033837,0.021275,0.011679,-0.025511,0.015900,0.094256,1.000000,-0.000169,0.000106,0.000058,0.343797,0.159685,-0.028991,-0.924913,9.788010,15.989220,-137.841123
49069,-2.533365,1.415640,9.327810,-0.249060,0.029348,-0.047078,-0.037161,0.039260,-0.006294,-0.025315,0.014175,0.093280,1.000000,-0.000186,0.000196,-0.000031,0.343861,0.159794,-0.028758,-0.924878,9.768569,16.009810,-137.833634
49070,-2.808396,1.348482,9.708570,-0.216645,0.231643,0.378546,-0.020654,0.048884,-0.021137,-0.028059,0.013498,0.097091,1.000000,-0.000103,0.000244,-0.000106,0.343752,0.159974,-0.028590,-0.924892,9.756590,16.037280,-137.845349
49071,-3.148736,1.597006,9.822717,0.144270,0.253255,0.621189,0.011749,-0.001995,-0.023627,-0.031486,0.015968,0.098228,1.000000,0.000059,-0.000010,-0.000118,0.343585,0.159977,-0.028661,-0.924951,9.761579,16.036333,-137.865322
49072,-2.940347,1.705142,9.638486,0.122176,0.048021,0.406722,0.005427,-0.019763,-0.021271,-0.029411,0.017052,0.096382,1.000000,0.000027,-0.000099,-0.000106,0.343445,0.159885,-0.028731,-0.925017,9.762604,16.025053,-137.884055
49073,-2.838628,1.811678,9.586823,0.134329,-0.093365,0.347057,0.015661,-0.035737,-0.012576,-0.028402,0.018111,0.095865,1.000000,0.000078,-0.000179,-0.000063,0.343397,0.159737,-0.028873,-0.925056,9.770411,16.003803,-137.891677
49074,-2.474072,1.652607,9.290908,-0.129978,-0.187954,-0.059693,-0.001384,-0.024562,-0.016648,-0.024751,0.016529,0.092906,1.000000,-0.000007,-0.000123,-0.000083,0.343283,0.159610,-0.028923,-0.925119,9.768159,15.989367,-137.908177
49075,-2.600666,1.701043,9.354576,-0.028239,-0.146491,0.043420,-0.007000,0.002310,-0.020011,-0.026004,0.017016,0.093545,1.000000,-0.000035,0.000012,-0.000100,0.343130,0.159598,-0.028909,-0.925178,9.763291,15.990249,-137.927828
49076,-2.574830,1.694192,9.394612,-0.063746,-0.161479,0.073092,-0.009951,0.019932,-0.014704,-0.025738,0.016948,0.093948,1.000000,-0.000050,0.000100,-0.000074,0.343038,0.159662,-0.028845,-0.925203,9.757685,16.000746,-137.938689
49077,-2.823660,1.765755,9.689445,0.064468,-0.074408,0.432634,-0.009224,0.029558,-0.002249,-0.028222,0.017662,0.096898,1.000000,-0.000046,0.000148,-0.000011,0.343042,0.159772,-0.028772,-0.925185,9.754845,16.015483,-137.936651
49078,-3.034119,1.814842,9.689839,0.245499,0.022701,0.499040,-0.019646,-0.011091,0.013542,-0.030348,0.018156,0.096895,1.000000,-0.000098,-0.000055,0.000068,0.343085,0.159672,-0.028740,-0.925187,9.747393,16.005719,-137.934052
49079,-2.665673,1.605795,9.442572,-0.068537,-0.041174,0.129152,-0.018927,-0.001959,0.015485,-0.026659,0.016065,0.094424,1.000000,-0.000095,-0.000010,0.000077,0.343176,0.159618,-0.028689,-0.925164,9.740973,16.001023,-137.924470
49080,-2.671094,1.699523,9.489567,-0.019584,-0.112666,0.190409,-0.025225,0.006965,0.010336,-0.026709,0.017006,0.094894,1.000000,-0.000126,0.000035,0.000052,0.343211,0.159593,-0.028597,-0.925159,9.730308,16.001767,-137.921931
49081,-2.915346,1.699158,9.713939,0.084630,0.031136,0.470253,-0.019191,0.008937,0.016546,-0.029151,0.016998,0.097139,1.000000,-0.000096,0.000045,0.000083,0.343286,0.159584,-0.028535,-0.925134,9.724355,16.002721,-137.913487
49082,-3.579478,1.885911,10.222435,0.519193,0.288807,1.165223,-0.029954,-0.063831,0.014287,-0.035829,0.018872,0.102210,1.000000,-0.000150,-0.000319,0.000071,0.343333,0.159223,-0.028545,-0.925179,9.709658,15.963101,-137.915749
49083,-3.203125,1.565155,9.844853,0.179290,0.316799,0.651457,-0.048481,-0.137070,0.002853,-0.032099,0.015675,0.098423,1.000000,-0.000242,-0.000685,0.000014,0.343320,0.158493,-0.028591,-0.925307,9.680752,15.883196,-137.933249
49084,-2.522298,1.885172,9.264806,0.089023,-0.326707,-0.033229,-0.034447,-0.151948,0.011479,-0.025294,0.018866,0.092626,1.000000,-0.000172,-0.000760,0.000057,0.343345,0.157716,-0.028730,-0.925427,9.660640,15.794076,-137.945941
49085,-2.448282,1.782037,9.479379,-0.084011,-0.301649,0.133684,-0.038769,-0.088922,0.029348,-0.024528,0.017835,0.094779,1.000000,-0.000194,-0.000445,0.000147,0.343493,0.157223,-0.028750,-0.925455,9.642753,15.738878,-137.938103
49086,-3.689975,1.914755,10.448401,0.596730,0.353791,1.410948,-0.008410,-0.158851,0.075754,-0.036990,0.019138,0.104454,1.000000,-0.000042,-0.000794,0.000379,0.343793,0.156449,-0.029072,-0.925465,9.647616,15.639683,-137.913721
49087,-3.319942,1.609313,9.817038,0.355142,0.396671,0.661213,-0.051706,-0.265456,0.059004,-0.033334,0.016109,0.098122,0.999999,-0.000259,-0.001327,0.000295,0.344031,0.155110,-0.029366,-0.925592,9.622307,15.481801,-137.910024
49088,-2.204465,1.425314,9.047628,-0.299828,-0.128918,-0.397582,-0.040493,-0.236239,0.047886,-0.022155,0.014266,0.090447,0.999999,-0.000202,-0.001181,0.000239,0.344215,0.153928,-0.029651,-0.925712,9.602300,15.341568,-137.909626
49089,-2.136019,1.760271,9.186885,-0.165127,-0.423075,-0.228653,-0.011789,-0.162163,0.064172,-0.021440,0.017601,0.091850,1.000000,-0.000059,-0.000811,0.000321,0.344450,0.153135,-0.029957,-0.925746,9.603427,15.241667,-137.893850
49090,-2.265829,1.624500,9.389774,-0.208558,-0.235443,-0.022800,-0.005797,-0.118706,0.082569,-0.022721,0.016238,0.093884,1.000000,-0.000029,-0.000594,0.000413,0.344784,0.152550,-0.030226,-0.925710,9.611680,15.164514,-137.861489
49091,-3.159116,1.822099,9.993176,0.380917,0.176017,0.816871,0.032193,-0.142503,0.103319,-0.031672,0.018189,0.099912,1.000000,0.000161,-0.000713,0.000517,0.345205,0.151918,-0.030726,-0.925640,9.644347,15.071769,-137.816543
49092,-2.607568,1.525601,9.460400,-0.027404,0.082759,0.117993,-0.035610,-0.173301,0.072387,-0.026163,0.015263,0.094579,1.000000,-0.000178,-0.000867,0.000362,0.345506,0.151030,-0.030944,-0.925666,9.632450,14.964736,-137.795631
49093,-2.305872,1.567364,9.300539,-0.155777,-0.127716,-0.105313,-0.026182,-0.130806,0.048587,-0.023123,0.015680,0.092988,1.000000,-0.000131,-0.000654,0.000243,0.345722,0.150362,-0.031111,-0.925689,9.623552,14.884106,-137.781163
49094,-1.840902,1.761996,8.954060,-0.251503,-0.556190,-0.523116,-0.059054,-0.085406,0.025872,-0.018450,0.017644,0.089528,1.000000,-0.000295,-0.000427,0.000129,0.345839,0.149848,-0.031033,-0.925731,9.593436,14.831187,-137.778699
49095,-1.584791,1.569357,8.810307,-0.506483,-0.571489,-0.756594,-0.085448,0.013958,0.014156,-0.015843,0.015730,0.088097,1.000000,-0.000427,0.000070,0.000071,0.345975,0.149752,-0.030647,-0.925709,9.549057,14.835612,-137.768452
49096,-2.071978,1.496910,9.321059,-0.354532,-0.230365,-0.156745,-0.058301,0.068845,0.022968,-0.020689,0.014994,0.093213,1.000000,-0.000292,0.000344,0.000115,0.346101,0.149953,-0.030304,-0.925640,9.522838,14.870130,-137.752468
49097,-2.311599,1.319880,9.396351,-0.320382,0.048090,-0.051949,-0.048265,0.102117,0.022609,-0.023070,0.013219,0.093972,1.000000,-0.000241,0.000511,0.000113,0.346264,0.150328,-0.029944,-0.925530,9.503225,14.923554,-137.728411
49098,-2.778430,1.452621,9.856310,-0.046197,0.223174,0.527752,0.017921,0.075358,0.038606,-0.027750,0.014512,0.098575,1.000000,0.000090,0.000377,0.000193,0.346406,0.150690,-0.029954,-0.925418,9.523224,14.960278,-137.702650
49099,-2.675358,1.195607,9.678640,-0.234779,0.357660,0.290780,-0.004178,0.053543,0.032221,-0.026730,0.011954,0.096793,1.000000,-0.000021,0.000268,0.000161,0.346533,0.150913,-0.029897,-0.925336,9.529254,14.985192,-137.682518
49100,-2.990282,1.374443,9.891366,0.034011,0.417498,0.603384,0.063278,0.029162,0.036049,-0.029891,0.013708,0.098922,1.000000,0.000316,0.000146,0.000180,0.346623,0.151139,-0.030195,-0.925256,9.573706,14.996040,-137.662767
49101,-2.915392,1.381744,9.807590,0.005234,0.372826,0.505186,0.061073,-0.009656,0.025679,-0.029160,0.013784,0.098079,1.000000,0.000305,-0.000048,0.000128,0.346630,0.151184,-0.030549,-0.925234,9.614628,14.985963,-137.656587
49102,-2.790061,1.599833,9.783060,0.057720,0.134549,0.484435,0.075849,-0.024551,0.018683,-0.027914,0.015959,0.097833,1.000000,0.000379,-0.000123,0.000093,0.346621,0.151186,-0.030986,-0.925223,9.662279,14.968107,-137.652309
49103,-2.832948,1.815374,9.726277,0.238754,0.010758,0.476361,0.079559,-0.035521,0.028213,-0.028349,0.018111,0.097265,1.000000,0.000398,-0.000178,0.000141,0.346636,0.151142,-0.031470,-0.925208,9.713438,14.943060,-137.645468
49104,-2.574801,1.848640,9.402483,0.171460,-0.158662,0.106949,0.055739,-0.040820,0.031522,-0.025770,0.018456,0.094025,1.000000,0.000279,-0.000204,0.000158,0.346699,0.151032,-0.031851,-0.925189,9.751069,14.914767,-137.635349
49105,-2.235307,1.933317,9.268867,0.021260,-0.430761,-0.093623,0.052670,-0.012388,0.037920,-0.022362,0.019305,0.092692,1.000000,0.000263,-0.000062,0.000190,0.346780,0.151050,-0.032177,-0.925144,9.788863,14.902103,-137.620768
49106,-2.110754,2.076986,9.172081,0.049625,-0.612528,-0.194030,0.020476,0.023880,0.038576,-0.021101,0.020756,0.091725,1.000000,0.000102,0.000119,0.000193,0.346913,0.151177,-0.032289,-0.925070,9.809017,14.909640,-137.600034
49107,-2.174908,2.006593,9.201796,0.036835,-0.517911,-0.160740,0.030040,0.075720,0.074417,-0.021722,0.020044,0.092029,1.000000,0.000150,0.000379,0.000372,0.347274,0.151557,-0.032371,-0.924869,9.841401,14.942974,-137.545434
49108,-2.455153,2.020950,9.512085,0.144219,-0.361209,0.209314,0.005306,0.096088,0.089321,-0.024515,0.020196,0.095133,1.000000,0.000027,0.000480,0.000447,0.347664,0.151983,-0.032325,-0.924654,9.862435,14.986280,-137.487707
49109,-2.701824,1.514931,9.689384,-0.062158,0.172754,0.358120,0.012924,0.083899,0.104650,-0.026986,0.015129,0.096906,1.000000,0.000065,0.000419,0.000523,0.348115,0.152365,-0.032350,-0.924421,9.890117,15.021169,-137.422517
49110,-2.652364,1.610131,9.722612,-0.054489,0.067135,0.392667,0.023324,0.062592,0.096904,-0.026501,0.016077,0.097236,1.000000,0.000117,0.000313,0.000485,0.348521,0.152667,-0.032451,-0.924215,9.921819,15.044770,-137.363716
49111,-2.609912,1.250073,9.693066,-0.310677,0.314661,0.293465,0.041973,0.040291,0.075877,-0.026084,0.012470,0.096939,1.000000,0.000210,0.000201,0.000379,0.348827,0.152903,-0.032660,-0.924053,9.960601,15.057950,-137.317588
49112,-2.308626,1.212965,9.443754,-0.478420,0.159050,-0.028448,0.039983,0.051980,0.038765,-0.023064,0.012106,0.094446,1.000000,0.000200,0.000260,0.000194,0.348949,0.153194,-0.032812,-0.923953,9.992778,15.081263,-137.293814
49113,-2.337062,1.246381,9.521805,-0.468448,0.149272,0.058400,0.054013,0.068430,-0.010756,-0.023337,0.012439,0.095229,1.000000,0.000270,0.000342,-0.000054,0.348850,0.153595,-0.032961,-0.923919,10.026054,15.118790,-137.295450
49114,-2.220042,1.475109,9.437214,-0.388780,-0.098517,-0.014489,0.030036,0.090849,-0.066641,-0.022153,0.014744,0.094384,1.000000,0.000150,0.000454,-0.000333,0.348499,0.154065,-0.032919,-0.923974,10.037523,15.174531,-137.329235
49115,-2.366988,1.637533,9.344258,-0.160284,-0.128442,-0.037356,-0.014880,0.105196,-0.129578,-0.023610,0.016398,0.093454,1.000000,-0.000074,0.000526,-0.000648,0.347904,0.154534,-0.032596,-0.924132,10.014127,15.244522,-137.397241
49116,-2.334666,1.321961,9.443679,-0.419863,0.072065,-0.004536,-0.029869,0.121150,-0.167136,-0.023278,0.013253,0.094449,0.999999,-0.000149,0.000606,-0.000836,0.347140,0.155056,-0.032147,-0.924347,9.976505,15.327334,-137.486747
49117,-2.928306,1.845940,9.858408,0.197113,0.032560,0.633880,0.055446,0.086410,-0.146310,-0.029227,0.018453,0.098602,1.000000,0.000277,0.000432,-0.000732,0.346456,0.155564,-0.032159,-0.924518,9.989933,15.388378,-137.560795
49118,-2.935363,1.805909,9.669128,0.228086,0.070639,0.449509,0.024169,0.056196,-0.134345,-0.029314,0.018067,0.096702,1.000000,0.000121,0.000281,-0.000672,0.345791,0.155875,-0.032098,-0.924717,9.986389,15.431269,-137.637867
49119,-2.855319,2.064293,9.645023,0.335412,-0.179848,0.448685,0.056448,0.038897,-0.096477,-0.028524,0.020629,0.096462,1.000000,0.000282,0.000194,-0.000482,0.345301,0.156157,-0.032240,-0.924847,10.006757,15.460724,-137.691009
49120,-2.718692,1.823876,9.361273,0.168838,-0.073726,0.102821,0.043945,0.049296,-0.067966,-0.027158,0.018227,0.093623,1.000000,0.000220,0.000246,-0.000340,0.344926,0.156459,-0.032334,-0.924933,10.024636,15.493143,-137.729935
49121,-2.852371,2.130354,9.697758,0.344293,-0.237000,0.509435,0.061290,0.061025,-0.031635,-0.028491,0.021278,0.096993,1.000000,0.000306,0.000305,-0.000158,0.344764,0.156839,-0.032507,-0.924923,10.058503,15.528291,-137.739324
49122,-3.169492,2.176286,9.796858,0.562706,-0.070177,0.696298,0.032560,0.003108,-0.014158,-0.031692,0.021749,0.097973,1.000000,0.000163,0.000016,-0.000071,0.344639,0.156900,-0.032670,-0.924954,10.076978,15.529298,-137.751525
49123,-2.640453,1.767377,9.256999,0.095765,-0.074607,-0.026324,0.013561,0.009852,0.008292,-0.026401,0.017666,0.092572,1.000000,0.000068,0.000049,0.000041,0.344651,0.156955,-0.032749,-0.924937,10.088403,15.531801,-137.747744
49124,-2.294570,2.002944,9.230390,0.002758,-0.476942,-0.104471,-0.002808,0.048104,0.023422,-0.022926,0.020028,0.092309,1.000000,-0.000014,0.000241,0.000117,0.344735,0.157156,-0.032700,-0.924873,10.093764,15.554422,-137.733253
49125,-2.378102,1.821898,9.375508,-0.101024,-0.295490,0.024859,-0.018333,0.083884,0.035988,-0.023745,0.018223,0.093763,1.000000,-0.000092,0.000419,0.000180,0.344836,0.157493,-0.032541,-0.924784,10.093663,15.595903,-137.715010
49126,-2.629537,1.659284,9.605788,-0.101562,-0.025330,0.283247,-0.020977,0.090650,0.040245,-0.026255,0.016598,0.096068,1.000000,-0.000105,0.000453,0.000201,0.345018,0.157857,-0.032348,-0.924661,10.092481,15.640835,-137.686224
49127,-3.034273,1.420627,9.750372,-0.014927,0.408083,0.489157,0.019936,0.067220,0.041499,-0.030313,0.014190,0.097515,1.000000,0.000100,0.000336,0.000207,0.345166,0.158180,-0.032390,-0.924549,10.114592,15.672048,-137.659733
49128,-2.759901,1.475125,9.477060,-0.095956,0.201598,0.165181,0.022643,0.048340,0.022238,-0.027578,0.014737,0.094779,1.000000,0.000113,0.000242,0.000111,0.345224,0.158426,-0.032457,-0.924482,10.134396,15.694913,-137.645888
49129,-2.319011,1.842068,9.373146,-0.152830,-0.358300,0.009489,0.041221,0.069702,0.014675,-0.023159,0.018400,0.093743,1.000000,0.000206,0.000349,0.000073,0.345297,0.158806,-0.032557,-0.924387,10.164256,15.730425,-137.626788
49130,-2.827220,1.865040,9.564424,0.154865,-0.056525,0.332388,0.028491,0.072530,0.016397,-0.028239,0.018634,0.095657,1.000000,0.000142,0.000363,0.000082,0.345327,0.159175,-0.032605,-0.924310,10.187194,15.767511,-137.613796
49131,-2.741117,1.721368,9.627775,-0.022732,-0.008337,0.344590,0.005575,0.056049,0.010044,-0.027385,0.017210,0.096286,1.000000,0.000028,0.000280,0.000050,0.345359,0.159430,-0.032570,-0.924255,10.195763,15.795879,-137.604292
49132,-3.053317,1.527359,9.806014,0.016329,0.331061,0.565348,0.017714,0.038490,-0.002903,-0.030514,0.015265,0.098067,1.000000,0.000089,0.000192,-0.000015,0.345304,0.159626,-0.032612,-0.924241,10.208486,15.815723,-137.606179
49133,-2.781560,1.510094,9.587813,-0.121312,0.178682,0.281715,0.019673,0.010437,-0.024086,-0.027809,0.015095,0.095881,1.000000,0.000098,0.000052,-0.000120,0.345146,0.159700,-0.032695,-0.924284,10.218360,15.821869,-137.623142
49134,-2.766190,1.706099,9.484508,0.020916,0.026311,0.213146,0.043254,0.011890,-0.021159,-0.027654,0.017043,0.094850,1.000000,0.000216,0.000059,-0.000106,0.344981,0.159821,-0.032886,-0.924318,10.242033,15.828573,-137.638531
49135,-2.846251,1.782961,9.635459,0.073782,0.015685,0.391061,0.062298,0.010067,0.003196,-0.028458,0.017799,0.096362,1.000000,0.000311,0.000050,0.000016,0.344866,0.159961,-0.033199,-0.924325,10.280809,15.831752,-137.645584
49136,-2.871035,1.723909,9.523295,0.085610,0.087914,0.281509,0.074939,-0.010026,0.019430,-0.028717,0.017201,0.095238,1.000000,0.000375,-0.000050,0.000097,0.344860,0.160028,-0.033606,-0.924301,10.328488,15.821962,-137.639517
49137,-2.599744,1.856194,9.446360,-0.004422,-0.177489,0.157584,0.080694,-0.003128,0.031504,-0.026002,0.018520,0.094471,1.000000,0.000403,-0.000016,0.000158,0.344923,0.160136,-0.034036,-0.924243,10.381704,15.814850,-137.623472
49138,-2.886042,1.832197,9.782086,0.071657,0.018214,0.549258,0.077582,-0.003465,0.051256,-0.028867,0.018277,0.097827,1.000000,0.000388,-0.000017,0.000256,0.345063,0.160232,-0.034470,-0.924158,10.436161,15.805452,-137.598078
49139,-2.938390,1.551714,9.600679,-0.012471,0.282418,0.342856,0.071067,-0.037121,0.037648,-0.029405,0.015477,0.096007,1.000000,0.000355,-0.000186,0.000188,0.345139,0.160165,-0.034922,-0.924125,10.483921,15.778476,-137.584284
49140,-2.686350,1.642260,9.533056,-0.116446,0.063291,0.225992,0.104662,-0.029415,0.037247,-0.026881,0.016368,0.095335,1.000000,0.000523,-0.000147,0.000186,0.345188,0.160191,-0.035515,-0.924080,10.550875,15.755878,-137.569934
49141,-2.700505,2.004239,9.562290,0.106366,-0.192862,0.321343,0.099486,-0.024498,0.038824,-0.027021,0.019990,0.095630,1.000000,0.000497,-0.000122,0.000194,0.345311,0.160231,-0.036065,-0.924005,10.615211,15.735748,-137.546365
49142,-3.253538,2.065758,9.884682,0.429885,0.117495,0.787369,0.101633,-0.043731,0.065510,-0.032564,0.020597,0.098850,1.000000,0.000508,-0.000219,0.000328,0.345490,0.160180,-0.036691,-0.923922,10.684454,15.702064,-137.517114
49143,-3.504917,1.843738,10.119002,0.393699,0.455650,1.036984,0.094397,-0.125869,0.080224,-0.035120,0.018376,0.101177,1.000000,0.000472,-0.000629,0.000401,0.345699,0.159733,-0.037446,-0.923892,10.749707,15.620354,-137.491893
49144,-3.424843,1.971038,10.009179,0.458560,0.336781,0.933215,0.132716,-0.243414,0.117492,-0.034382,0.019624,0.100063,0.999999,0.000664,-0.001217,0.000587,0.346055,0.158803,-0.038602,-0.923871,10.838822,15.468635,-137.454629
49145,-2.486617,1.975332,9.065837,0.107664,-0.212955,-0.209688,0.100411,-0.245877,0.117565,-0.024989,0.019693,0.090638,0.999999,0.000502,-0.001229,0.000588,0.346371,0.157804,-0.039627,-0.923880,10.909633,15.315449,-137.425856
49146,-1.770182,1.502492,9.034305,-0.678397,-0.299114,-0.514302,0.076391,-0.176305,0.114398,-0.017790,0.014980,0.090333,0.999999,0.000382,-0.000882,0.000572,0.346769,0.157087,-0.040404,-0.923819,10.967694,15.201729,-137.383282
49147,-2.882956,0.741930,10.093326,-0.698163,0.988659,0.640647,0.150854,-0.155631,0.080324,-0.028911,0.007332,0.100916,0.999999,0.000754,-0.000778,0.000402,0.346920,0.156598,-0.041472,-0.923799,11.064083,15.103032,-137.362846
49148,-2.963927,0.531681,9.720303,-0.649004,1.240848,0.266541,0.204264,-0.263874,-0.016446,-0.029767,0.005220,0.097169,0.999999,0.001021,-0.001319,-0.000082,0.346594,0.155725,-0.042889,-0.924004,11.172790,14.954408,-137.406872
49149,-1.466546,1.230686,8.824381,-0.986340,-0.211704,-0.839544,0.233566,-0.221417,-0.124526,-0.014756,0.012213,0.088242,0.999999,0.001168,-0.001107,-0.000623,0.345766,0.155120,-0.044283,-0.924350,11.283513,14.841611,-137.507698
49150,-1.657435,2.469544,8.913585,-0.105333,-1.007426,-0.470754,0.168294,-0.110413,-0.188370,-0.016600,0.024636,0.089147,0.999999,0.000841,-0.000552,-0.000942,0.344705,0.154930,-0.045134,-0.924737,11.350649,14.798683,-137.634278
49151,-2.134207,2.865116,9.264454,0.366628,-0.997320,0.059737,0.083144,-0.054106,-0.205448,-0.021338,0.028635,0.092651,0.999999,0.000416,-0.000271,-0.001027,0.343646,0.154858,-0.045482,-0.925126,11.368388,14.789335,-137.763923
49152,-2.772874,3.194704,9.511157,0.950795,-0.839941,0.519184,-0.025731,-0.042641,-0.174652,-0.027721,0.031983,0.095102,1.000000,-0.000129,-0.000213,-0.000873,0.342813,0.154643,-0.045330,-0.925478,11.328478,14.783000,-137.874636
49153,-2.311111,3.224320,8.896134,0.837844,-1.154283,-0.177111,-0.064164,-0.033927,-0.098822,-0.023110,0.032283,0.088947,1.000000,-0.000321,-0.000170,-0.000494,0.342293,0.154384,-0.045059,-0.925727,11.278567,14.772882,-137.948878
49154,-1.831009,3.281682,9.048900,0.485223,-1.521539,-0.145522,-0.134884,0.067515,0.001225,-0.018280,0.032878,0.090473,1.000000,-0.000674,0.000338,0.000006,0.342383,0.154453,-0.044349,-0.925717,11.205457,14.808606,-137.944632
49155,-3.480760,2.677372,10.095763,0.968532,-0.027923,1.154062,-0.138127,0.043879,0.111072,-0.034800,0.026824,0.100947,1.000000,-0.000691,0.000219,0.000555,0.343038,0.154383,-0.043740,-0.925515,11.146160,14.818570,-137.872034
49156,-2.811696,1.580123,9.434247,0.023698,0.382306,0.150280,-0.158029,-0.006673,0.128529,-0.028130,0.015858,0.094329,0.999999,-0.000790,-0.000033,0.000643,0.343718,0.154041,-0.043148,-0.925347,11.076525,14.798536,-137.802313
49157,-2.107494,1.678533,9.289011,-0.366629,-0.152056,-0.148983,-0.109281,0.034623,0.124293,-0.021069,0.016823,0.092885,1.000000,-0.000546,0.000173,0.000621,0.344329,0.153973,-0.042714,-0.925152,11.035737,14.802077,-137.733007
49158,-2.159063,1.226915,9.443153,-0.658758,0.213133,-0.073045,-0.082908,0.088242,0.109491,-0.021556,0.012296,0.094436,1.000000,-0.000415,0.000441,0.000547,0.344883,0.154202,-0.042292,-0.924926,11.009083,14.837612,-137.663570
49159,-3.633846,1.571448,10.689454,0.215631,0.873531,1.550814,-0.008944,0.037915,0.112366,-0.036327,0.015699,0.106901,1.000000,-0.000045,0.000190,0.000562,0.345393,0.154325,-0.042301,-0.924715,11.024045,14.844275,-137.596951
49160,-3.689069,1.439961,10.327547,0.290036,1.026895,1.196504,0.004764,-0.139528,0.081993,-0.036969,0.014382,0.103250,1.000000,0.000024,-0.000698,0.000410,0.345704,0.153659,-0.042656,-0.924694,11.036917,14.754724,-137.569336
49161,-2.091268,1.636563,9.015838,-0.305510,-0.116658,-0.419598,-0.001586,-0.139881,0.059450,-0.020981,0.016360,0.090144,1.000000,-0.000008,-0.000699,0.000297,0.345901,0.152984,-0.042970,-0.924717,11.043034,14.667363,-137.556591
49162,-1.531808,2.091689,8.814830,-0.350407,-0.813020,-0.667249,0.011937,-0.048998,0.073765,-0.015347,0.020906,0.088146,1.000000,0.000060,-0.000245,0.000369,0.346188,0.152750,-0.043195,-0.924638,11.061322,14.629613,-137.523535
49163,-1.568721,1.729110,8.731714,-0.526130,-0.509602,-0.803968,0.006430,0.059324,0.086849,-0.015669,0.017281,0.087322,1.000000,0.000032,0.000297,0.000434,0.346529,0.153003,-0.043225,-0.924467,11.081861,14.651273,-137.474723
49164,-2.553555,1.209187,9.849286,-0.508831,0.497450,0.409095,0.056563,0.123031,0.074517,-0.025479,0.012055,0.098512,1.000000,0.000283,0.000615,0.000373,0.346822,0.153642,-0.043359,-0.924245,11.130812,14.710129,-137.421634
49165,-3.198027,1.313756,10.034050,-0.052821,0.837410,0.767079,0.076846,0.025852,0.022193,-0.031969,0.013095,0.100350,1.000000,0.000384,0.000129,0.000111,0.346818,0.153877,-0.043721,-0.924190,11.181179,14.720078,-137.412321
49166,-2.160935,1.465205,9.238356,-0.453650,0.069663,-0.223473,0.094743,0.034856,-0.023903,-0.021592,0.014611,0.092394,1.000000,0.000474,0.000174,-0.000120,0.346608,0.154195,-0.044109,-0.924198,11.234956,14.740246,-137.426461
49167,-2.150122,1.882971,9.339340,-0.240914,-0.252499,-0.052048,0.093321,0.066515,-0.033676,-0.021467,0.018790,0.093409,1.000000,0.000467,0.000333,-0.000168,0.346318,0.154659,-0.044437,-0.924213,11.287766,14.779321,-137.447743
49168,-2.417336,1.588249,9.505136,-0.299943,0.142486,0.117236,0.106003,0.092300,-0.042051,-0.024126,0.015837,0.095071,1.000000,0.000530,0.000462,-0.000210,0.346028,0.155266,-0.044763,-0.924204,11.346997,14.833830,-137.465714
49169,-2.601800,1.774822,9.616170,-0.101229,0.122496,0.304862,0.149652,0.065313,-0.054403,-0.025982,0.017683,0.096183,1.000000,0.000748,0.000327,-0.000272,0.345611,0.155825,-0.045336,-0.924238,11.428904,14.874492,-137.497442
49170,-2.557033,1.902487,9.620099,-0.069391,0.001308,0.321381,0.145112,0.072275,-0.074223,-0.025529,0.018965,0.096224,1.000000,0.000726,0.000361,-0.000371,0.345137,0.156415,-0.045852,-0.924290,11.505139,14.921465,-137.536328
49171,-2.941067,2.058378,9.864990,0.209520,0.133485,0.682221,0.142579,0.032976,-0.062805,-0.029388,0.020523,0.098669,1.000000,0.000713,0.000165,-0.000314,0.344714,0.156815,-0.046434,-0.924351,11.580592,14.945001,-137.572356
49172,-2.948136,2.234245,9.706767,0.364742,0.017017,0.568611,0.148558,-0.017753,-0.047924,-0.029485,0.022277,0.097082,1.000000,0.000743,-0.000089,-0.000240,0.344338,0.156988,-0.047142,-0.924426,11.659970,14.938515,-137.606596
49173,-2.401423,2.098383,9.219680,0.039731,-0.216327,-0.059526,0.120674,-0.013256,-0.043637,-0.024016,0.020933,0.092208,1.000000,0.000603,-0.000066,-0.000218,0.343988,0.157130,-0.047723,-0.924503,11.724404,14.933787,-137.639755
49174,-1.715516,2.396622,8.746472,-0.121256,-0.873509,-0.625205,0.122460,0.067833,-0.013872,-0.017124,0.023914,0.087485,1.000000,0.000612,0.000339,-0.000069,0.343808,0.157645,-0.048190,-0.924457,11.796588,14.971413,-137.643898
49175,-2.659928,2.701091,9.688272,0.420047,-0.505578,0.570070,0.116276,0.151647,0.035986,-0.026531,0.026950,0.096919,1.000000,0.000581,0.000758,0.000180,0.343837,0.158522,-0.048535,-0.924279,11.875762,15.049881,-137.614698
49176,-3.331301,2.323632,9.913340,0.577690,0.215153,0.882691,0.048602,0.050321,0.041309,-0.033293,0.023205,0.099147,1.000000,0.000243,0.000252,0.000207,0.343967,0.158816,-0.048735,-0.924169,11.913413,15.071181,-137.588856
49177,-2.305334,1.764817,9.106781,-0.244211,-0.011614,-0.257436,0.054572,0.059840,0.026157,-0.023028,0.017620,0.091080,1.000000,0.000273,0.000299,0.000131,0.344033,0.159166,-0.048934,-0.924074,11.952696,15.099349,-137.569547
49178,-2.004261,2.081035,9.079037,-0.262171,-0.447548,-0.299137,0.041366,0.097748,0.003373,-0.019999,0.020791,0.090804,1.000000,0.000207,0.000489,0.000017,0.344005,0.159676,-0.048988,-0.923994,11.982015,15.151707,-137.559859
49179,-1.934394,2.047083,8.985988,-0.313493,-0.470873,-0.412667,0.017986,0.160247,-0.028660,-0.019269,0.020466,0.089877,1.000000,0.000090,0.000801,-0.000143,0.343812,0.160439,-0.048813,-0.923942,11.995517,15.242695,-137.567202
49180,-2.901874,2.299380,9.718263,0.277062,-0.058666,0.583101,-0.014940,0.186714,-0.048209,-0.028922,0.023008,0.097208,1.000000,-0.000075,0.000934,-0.000241,0.343612,0.161276,-0.048413,-0.923892,11.987600,15.351052,-137.576476
49181,-3.089959,2.378516,9.456155,0.537906,-0.005253,0.401747,-0.072935,0.118561,-0.067214,-0.030836,0.023830,0.094571,1.000000,-0.000365,0.000593,-0.000336,0.343356,0.161702,-0.047849,-0.923942,11.941490,15.423324,-137.605014
49182,-2.512157,2.864681,9.171958,0.517372,-0.759628,0.076570,-0.102387,0.152953,-0.035371,-0.025046,0.028698,0.091724,1.000000,-0.000512,0.000765,-0.000177,0.343277,0.162229,-0.047113,-0.923917,11.884287,15.511223,-137.611125
49183,-2.711571,2.894298,9.537784,0.552971,-0.680227,0.479561,-0.155780,0.159157,0.008544,-0.027041,0.029016,0.095377,0.999999,-0.000779,0.000796,0.000043,0.343412,0.162680,-0.046165,-0.923835,11.803889,15.597179,-137.595046
49184,-2.834111,1.889848,9.521618,0.023327,0.142218,0.298896,-0.192452,0.139694,0.024433,-0.028277,0.018987,0.095218,0.999999,-0.000962,0.000698,0.000122,0.343679,0.162977,-0.045084,-0.923737,11.703951,15.670643,-137.568186
49185,-2.919197,1.389459,9.687676,-0.281445,0.554714,0.381254,-0.125467,0.116199,0.030778,-0.029138,0.013951,0.096885,1.000000,-0.000627,0.000581,0.000154,0.343912,0.163278,-0.044361,-0.923632,11.642885,15.730085,-137.540829
49186,-2.710980,1.335594,9.505289,-0.403232,0.451904,0.143061,-0.100666,0.097311,0.000016,-0.027064,0.013404,0.095059,1.000000,-0.000503,0.000487,0.000000,0.343981,0.163542,-0.043757,-0.923589,11.590301,15.782641,-137.533455
49187,-2.573669,1.768517,9.430936,-0.209647,0.024506,0.119554,-0.060663,0.107400,-0.008270,-0.025685,0.017715,0.094318,1.000000,-0.000303,0.000537,-0.000041,0.343995,0.163923,-0.043313,-0.923537,11.559827,15.841625,-137.528077
49188,-2.846219,1.924490,9.535314,0.041436,0.068869,0.322418,-0.055428,0.111375,-0.010018,-0.028408,0.019273,0.095364,1.000000,-0.000277,0.000557,-0.000050,0.343983,0.164332,-0.042886,-0.923489,11.532016,15.903236,-137.524946
49189,-2.965152,2.022890,9.618301,0.154694,0.057761,0.452236,-0.058629,0.106954,-0.008865,-0.029599,0.020258,0.096193,1.000000,-0.000293,0.000535,-0.000044,0.343952,0.164712,-0.042460,-0.923452,11.502709,15.961912,-137.524951
49190,-3.093373,2.285033,9.907086,0.309776,-0.077899,0.809866,-0.065936,0.063039,0.002815,-0.030903,0.022883,0.099073,1.000000,-0.000330,0.000315,0.000014,0.343998,0.164876,-0.042078,-0.923423,11.469349,15.994922,-137.520127
49191,-3.351789,2.130854,10.028859,0.358762,0.196593,0.966259,-0.071382,-0.001433,0.027288,-0.033522,0.021340,0.100281,1.000000,-0.000357,-0.000007,0.000136,0.344152,0.164731,-0.041802,-0.923405,11.434965,15.989041,-137.508063
49192,-3.046995,1.557438,9.700812,-0.097732,0.445832,0.463850,-0.050348,-0.073287,0.049408,-0.030509,0.015591,0.096993,1.000000,-0.000252,-0.000366,0.000247,0.344371,0.164283,-0.041765,-0.923404,11.413585,15.940207,-137.492152
49193,-2.555357,1.153061,9.418423,-0.597127,0.447409,-0.014252,-0.008430,-0.062197,0.024151,-0.025584,0.011531,0.094176,1.000000,-0.000042,-0.000311,0.000121,0.344482,0.163964,-0.041875,-0.923415,11.412590,15.900231,-137.484712
49194,-2.488017,1.140927,9.376259,-0.635789,0.419814,-0.074838,0.051212,-0.042710,-0.011643,-0.024900,0.011387,0.093760,1.000000,0.000256,-0.000214,-0.000058,0.344342,0.163845,-0.042204,-0.923473,11.440606,15.875498,-137.500847
49195,-2.487921,1.409391,9.410560,-0.483021,0.221735,0.008325,0.104381,-0.005761,-0.038815,-0.024879,0.014050,0.094112,1.000000,0.000522,-0.000029,-0.000194,0.343964,0.163989,-0.042711,-0.923565,11.496419,15.874242,-137.538098
49196,-2.857358,1.748963,9.636455,-0.092497,0.203745,0.387045,0.135412,0.008165,-0.045484,-0.028566,0.017431,0.096378,1.000000,0.000677,0.000041,-0.000227,0.343610,0.164257,-0.043314,-0.923621,11.568921,15.881974,-137.567974
49197,-3.089713,2.237447,9.582231,0.384857,-0.005303,0.493791,0.143680,-0.014536,-0.021699,-0.030902,0.022309,0.095836,1.000000,0.000718,-0.000073,-0.000108,0.343412,0.164432,-0.044002,-0.923631,11.649199,15.874222,-137.579451
49198,-2.762249,2.428243,9.384167,0.328506,-0.345872,0.255154,0.128650,-0.004223,0.017937,-0.027627,0.024220,0.093857,1.000000,0.000643,-0.000021,0.000090,0.343353,0.164617,-0.044646,-0.923589,11.727545,15.867721,-137.573804
49199,-2.867735,2.505464,9.549767,0.389734,-0.331433,0.455592,0.081039,-0.018664,0.039293,-0.028691,0.025010,0.095505,1.000000,0.000405,-0.000093,0.000196,0.343442,0.164648,-0.045113,-0.923528,11.781679,15.850419,-137.555789
49200,-2.804603,1.955900,9.588456,-0.011451,0.052556,0.367044,0.058407,-0.027134,0.045541,-0.028063,0.019525,0.095886,1.000000,0.000292,-0.000136,0.000228,0.343563,0.164600,-0.045495,-0.923472,11.823403,15.827823,-137.536855
49201,-2.795979,2.053026,9.508579,0.069416,-0.017288,0.308595,0.027874,-0.049440,0.024235,-0.027986,0.020514,0.095082,1.000000,0.000139,-0.000247,0.000121,0.343605,0.164402,-0.045759,-0.923479,11.843711,15.795121,-137.533164
49202,-2.644455,2.069815,9.412907,0.005557,-0.119416,0.180601,0.036246,-0.038163,0.025944,-0.026465,0.020678,0.094128,1.000000,0.000181,-0.000191,0.000130,0.343652,0.164270,-0.046041,-0.923471,11.869239,15.768629,-137.527025
49203,-3.020881,2.319677,9.608599,0.363039,-0.063708,0.516685,0.024491,-0.042274,0.036828,-0.030233,0.023179,0.096082,1.000000,0.000122,-0.000211,0.000184,0.343750,0.164097,-0.046289,-0.923453,11.889875,15.738512,-137.515866
49204,-2.927062,2.151386,9.560047,0.211600,0.010576,0.412075,-0.001474,-0.061137,0.049146,-0.029305,0.021507,0.095591,1.000000,-0.000007,-0.000306,0.000246,0.343929,0.163788,-0.046455,-0.923433,11.896676,15.696396,-137.499051
49205,-2.818523,2.066405,9.543437,0.093128,0.011163,0.350111,-0.010707,-0.078672,0.050263,-0.028228,0.020662,0.095422,1.000000,-0.000054,-0.000393,0.000251,0.344124,0.163383,-0.046611,-0.923424,11.897970,15.644280,-137.482782
49206,-2.636631,1.937699,9.384579,-0.056137,0.001047,0.125807,-0.010342,-0.079962,0.052542,-0.026409,0.019375,0.093834,1.000000,-0.000052,-0.000400,0.000263,0.344322,0.162972,-0.046772,-0.923415,11.899570,15.591208,-137.466312
49207,-2.409320,2.131509,9.263703,-0.050390,-0.284917,-0.010615,-0.016844,-0.071982,0.050874,-0.024132,0.021317,0.092627,1.000000,-0.000084,-0.000360,0.000254,0.344504,0.162584,-0.046894,-0.923409,11.897695,15.542540,-137.451644
49208,-2.409066,2.063038,9.320565,-0.106497,-0.229752,0.029493,-0.013030,-0.050409,0.054896,-0.024120,0.020630,0.093198,1.000000,-0.000065,-0.000252,0.000274,0.344721,0.162304,-0.046993,-0.923372,11.899062,15.505758,-137.430188
49209,-2.383761,2.215412,9.298243,-0.017410,-0.357695,0.032080,-0.029296,-0.045460,0.040016,-0.023863,0.022163,0.092974,1.000000,-0.000146,-0.000227,0.000200,0.344901,0.162023,-0.046995,-0.923354,11.889105,15.473496,-137.414603
49210,-2.524382,2.214181,9.338962,0.073892,-0.264558,0.107789,-0.048588,-0.041200,0.027299,-0.025266,0.022161,0.093379,1.000000,-0.000243,-0.000206,0.000136,0.345022,0.161731,-0.046892,-0.923365,11.866100,15.445140,-137.408067
49211,-2.303407,2.076587,9.148528,-0.098959,-0.301147,-0.158001,-0.080132,-0.020665,0.013348,-0.023045,0.020801,0.091475,1.000000,-0.000401,-0.000103,0.000067,0.345165,0.161484,-0.046588,-0.923371,11.823554,15.429851,-137.400237
49212,-2.481400,2.130199,9.367419,-0.005740,-0.235360,0.106395,-0.081424,0.002919,0.014272,-0.024814,0.021338,0.093666,1.000000,-0.000407,0.000015,0.000071,0.345262,0.161342,-0.046247,-0.923377,11.781151,15.427774,-137.395879
49213,-2.690076,2.124665,9.509601,0.096996,-0.104087,0.294883,-0.088796,0.010460,0.017606,-0.026898,0.021286,0.095088,1.000000,-0.000444,0.000052,0.000088,0.345317,0.161218,-0.045877,-0.923396,11.735798,15.429514,-137.396759
49214,-2.947523,2.081951,9.621403,0.221973,0.088378,0.460419,-0.083660,-0.011378,0.027133,-0.029484,0.020856,0.096204,1.000000,-0.000418,-0.000057,0.000136,0.345472,0.161003,-0.045561,-0.923391,11.693647,15.417926,-137.386639
49215,-2.761425,2.054653,9.467776,0.130252,-0.011182,0.260483,-0.079761,-0.026509,0.041557,-0.027631,0.020579,0.094666,1.000000,-0.000399,-0.000133,0.000208,0.345662,0.160719,-0.045308,-0.923382,11.655811,15.395956,-137.372979
49216,-2.534192,1.932932,9.362980,-0.065824,-0.066755,0.077457,-0.076636,-0.016314,0.049681,-0.025354,0.019359,0.093620,1.000000,-0.000383,-0.000082,0.000248,0.345915,0.160488,-0.045050,-0.923340,11.621008,15.379005,-137.350313
49217,-2.402754,1.724012,9.398672,-0.295442,0.001268,0.035824,-0.086454,0.001127,0.047694,-0.024031,0.017275,0.093979,1.000000,-0.000432,0.000006,0.000238,0.346121,0.160318,-0.044728,-0.923308,11.581265,15.371914,-137.332653
49218,-2.660614,1.630323,9.650577,-0.249615,0.229504,0.324151,-0.055374,0.014339,0.023294,-0.026601,0.016327,0.096503,1.000000,-0.000277,0.000072,0.000116,0.346242,0.160271,-0.044495,-0.923282,11.555540,15.375228,-137.321676
49219,-2.757168,1.616159,9.626476,-0.179157,0.301957,0.324359,-0.033473,-0.017835,0.010038,-0.027581,0.016176,0.096260,1.000000,-0.000167,-0.000089,0.000050,0.346295,0.160118,-0.044406,-0.923293,11.539464,15.361983,-137.319895
49220,-2.568662,1.846087,9.473116,-0.116035,0.009120,0.173926,-0.018835,-0.013177,0.004042,-0.025693,0.018469,0.094728,1.000000,-0.000094,-0.000066,0.000020,0.346291,0.160011,-0.044374,-0.923315,11.530837,15.352061,-137.323397
49221,-2.692575,1.999391,9.489969,0.064298,-0.026264,0.252213,-0.018782,-0.010199,0.001603,-0.026931,0.020003,0.094896,1.000000,-0.000094,-0.000051,0.000008,0.346229,0.159917,-0.044346,-0.923356,11.522336,15.343953,-137.333788
49222,-2.774325,1.845257,9.615056,-0.013037,0.140897,0.362337,-0.004458,-0.017565,0.012438,-0.027753,0.018453,0.096148,1.000000,-0.000022,-0.000088,0.000062,0.346251,0.159813,-0.044394,-0.923363,11.523103,15.330606,-137.332922
49223,-2.599516,1.891238,9.476116,-0.060924,-0.001801,0.193677,-0.000982,-0.032074,0.014033,-0.026012,0.018911,0.094757,1.000000,-0.000005,-0.000160,0.000070,0.346250,0.159647,-0.044492,-0.923387,11.525987,15.308847,-137.335937
49224,-2.501346,1.766365,9.395240,-0.180823,0.033693,0.067266,0.015089,-0.018705,0.008524,-0.025023,0.017655,0.093951,1.000000,0.000075,-0.000094,0.000043,0.346238,0.159573,-0.044629,-0.923398,11.537316,15.295309,-137.337486
49225,-2.503313,1.777390,9.428359,-0.183478,0.028448,0.101201,0.021282,-0.008397,-0.003121,-0.025037,0.017764,0.094284,1.000000,0.000106,-0.000042,-0.000016,0.346167,0.159561,-0.044771,-0.923420,11.550999,15.288917,-137.344904
49226,-2.518475,1.840799,9.535455,-0.169469,-0.009942,0.218630,0.036124,0.000003,-0.008112,-0.025184,0.018392,0.095358,1.000000,0.000181,0.000000,-0.000041,0.346066,0.159613,-0.044959,-0.923440,11.572413,15.287791,-137.353915
49227,-2.825001,1.947460,9.637737,0.079350,0.110989,0.416711,0.049886,-0.021454,-0.004950,-0.028260,0.019451,0.096379,1.000000,0.000249,-0.000107,-0.000025,0.345952,0.159589,-0.045255,-0.923472,11.601772,15.274237,-137.365089
49228,-2.497912,1.991679,9.334272,-0.027426,-0.122869,0.052359,0.046812,-0.028633,-0.015509,-0.024991,0.019897,0.093344,1.000000,0.000234,-0.000143,-0.000078,0.345802,0.159529,-0.045537,-0.923525,11.627279,15.257901,-137.381827
49229,-2.389231,2.012540,9.411694,-0.118398,-0.207384,0.101025,0.042677,-0.004987,-0.008922,-0.023894,0.020106,0.094121,1.000000,0.000213,-0.000025,-0.000045,0.345729,0.159570,-0.045758,-0.923534,11.652220,15.253933,-137.387126
49230,-2.736995,2.074098,9.594403,0.104846,-0.028405,0.377200,0.035925,0.002110,-0.006931,-0.027368,0.020725,0.095948,1.000000,0.000180,0.000011,-0.000035,0.345634,0.159632,-0.045943,-0.923550,11.673772,15.253867,-137.395197
49231,-2.850146,1.837946,9.758417,-0.017271,0.224379,0.515789,0.047443,-0.031358,-0.003879,-0.028516,0.018357,0.097584,1.000000,0.000237,-0.000157,-0.000019,0.345502,0.159557,-0.046251,-0.923597,11.701698,15.234634,-137.409792
49232,-2.778225,2.122337,9.542135,0.180449,-0.026820,0.348115,0.031668,-0.056077,-0.023955,-0.027806,0.021212,0.095417,1.000000,0.000158,-0.000280,-0.000120,0.345318,0.159346,-0.046504,-0.923689,11.716377,15.203909,-137.434771
49233,-2.570259,2.028991,9.481642,-0.003227,-0.086270,0.218121,0.010464,-0.045285,-0.040885,-0.025720,0.020290,0.094812,1.000000,0.000052,-0.000226,-0.000204,0.345016,0.159148,-0.046640,-0.923829,11.717088,15.180976,-137.475618
49234,-2.302201,2.145194,9.259216,-0.045289,-0.342645,-0.039479,-0.021950,-0.042650,-0.056321,-0.023036,0.021469,0.092585,1.000000,-0.000110,-0.000213,-0.000282,0.344729,0.158915,-0.046596,-0.923979,11.696568,15.161547,-137.517789
49235,-2.024930,1.879505,9.126914,-0.362343,-0.320620,-0.289067,-0.019590,0.009782,-0.065554,-0.020239,0.018811,0.091268,1.000000,-0.000098,0.000049,-0.000328,0.344428,0.158928,-0.046463,-0.924095,11.677723,15.172372,-137.556613
49236,-2.349081,2.015849,9.362256,-0.124101,-0.222854,0.044726,-0.019668,0.044142,-0.062939,-0.023464,0.020175,0.093626,1.000000,-0.000098,0.000221,-0.000315,0.344128,0.159101,-0.046274,-0.924187,11.660224,15.202382,-137.592199
49237,-2.876012,1.893769,9.848129,0.014854,0.196054,0.618266,-0.006649,0.039898,-0.055277,-0.028735,0.018949,0.098486,1.000000,-0.000033,0.000199,-0.000276,0.343866,0.159278,-0.046158,-0.924260,11.651431,15.229356,-137.622143
49238,-3.535296,2.061137,10.168035,0.484544,0.489490,1.126287,0.021546,-0.046645,-0.045568,-0.035372,0.020608,0.101674,1.000000,0.000108,-0.000233,-0.000228,0.343593,0.159098,-0.046330,-0.924384,11.657317,15.206403,-137.658530
49239,-3.066891,1.790619,9.823266,0.102789,0.401352,0.624603,-0.048202,-0.113374,-0.069336,-0.030718,0.017941,0.098211,1.000000,-0.000241,-0.000567,-0.000347,0.343284,0.158495,-0.046271,-0.924605,11.617645,15.148569,-137.712409
49240,-2.402400,1.970905,9.316515,-0.083881,-0.152336,0.006844,-0.013218,-0.121040,-0.081575,-0.024072,0.019725,0.093149,1.000000,-0.000066,-0.000605,-0.000408,0.342855,0.157919,-0.046381,-0.924857,11.595907,15.087983,-137.778575
49241,-2.112780,1.725544,9.036090,-0.343664,-0.144760,-0.381187,-0.026799,-0.072420,-0.082026,-0.021153,0.017276,0.090351,1.000000,-0.000134,-0.000362,-0.000410,0.342483,0.157545,-0.046340,-0.925061,11.567909,15.054390,-137.834430
49242,-2.136047,2.086770,9.220640,-0.158613,-0.409640,-0.130510,-0.019109,-0.011682,-0.081504,-0.021357,0.020885,0.092203,1.000000,-0.000096,-0.000058,-0.000408,0.342084,0.157465,-0.046236,-0.925227,11.546273,15.055128,-137.887481
49243,-2.556983,2.147046,9.396903,0.124268,-0.189470,0.157188,-0.006457,0.005865,-0.072004,-0.025559,0.021483,0.093969,1.000000,-0.000032,0.000029,-0.000360,0.341722,0.157483,-0.046170,-0.925361,11.534038,15.064311,-137.932972
49244,-2.480989,2.015455,9.386409,-0.007671,-0.142175,0.102037,-0.036180,0.020429,-0.063943,-0.024794,0.020179,0.093863,1.000000,-0.000181,0.000102,-0.000320,0.341425,0.157518,-0.045946,-0.925476,11.506248,15.081034,-137.972012
49245,-2.555411,2.066861,9.471907,0.050522,-0.140858,0.212115,-0.037946,0.027684,-0.064738,-0.025534,0.020695,0.094719,1.000000,-0.000190,0.000138,-0.000324,0.341115,0.157582,-0.045705,-0.925591,11.477757,15.101572,-138.012095
49246,-2.525947,1.597349,9.478843,-0.262739,0.192890,0.120799,-0.019678,0.030363,-0.061336,-0.025240,0.015991,0.094791,1.000000,-0.000098,0.000152,-0.000307,0.340819,0.157690,-0.045542,-0.925690,11.460091,15.123542,-138.048470
49247,-2.820727,1.790918,9.791321,-0.034127,0.225462,0.530516,0.022732,0.012933,-0.064018,-0.028195,0.017907,0.097917,1.000000,0.000114,0.000065,-0.000320,0.340476,0.157790,-0.045605,-0.925796,11.465940,15.135831,-138.088012
49248,-2.819103,1.544313,9.698112,-0.158517,0.415102,0.394574,0.032721,-0.010735,-0.081829,-0.028190,0.015439,0.096982,1.000000,0.000164,-0.000054,-0.000409,0.340035,0.157802,-0.045739,-0.925950,11.473902,15.137060,-138.141161
49249,-2.601641,1.843118,9.528209,-0.075962,0.052274,0.234396,0.039377,-0.039602,-0.101917,-0.026026,0.018426,0.095281,1.000000,0.000197,-0.000198,-0.000510,0.339481,0.157695,-0.045940,-0.926161,11.481928,15.124062,-138.210246
49250,-2.307467,1.712586,9.251624,-0.278503,-0.029804,-0.129122,0.030435,-0.009840,-0.118619,-0.023069,0.017125,0.092518,1.000000,0.000152,-0.000049,-0.000593,0.338871,0.157716,-0.046032,-0.926377,11.483033,15.130000,-138.284686
49251,-2.585922,1.983118,9.562338,-0.014554,-0.065297,0.289470,0.043527,0.009549,-0.116361,-0.025843,0.019825,0.095629,1.000000,0.000218,0.000048,-0.000582,0.338251,0.157847,-0.046159,-0.926574,11.492802,15.146452,-138.357170
49252,-2.844336,1.960987,9.614808,0.138390,0.116902,0.402372,0.058146,-0.011550,-0.104037,-0.028439,0.019597,0.096152,1.000000,0.000291,-0.000058,-0.000520,0.337686,0.157903,-0.046394,-0.926759,11.511919,15.149789,-138.423336
49253,-2.507051,2.067863,9.365967,0.039198,-0.175056,0.099452,0.029511,-0.013340,-0.104083,-0.025066,0.020678,0.093661,1.000000,0.000148,-0.000067,-0.000520,0.337166,0.157903,-0.046497,-0.926943,11.514663,15.151928,-138.486834
49254,-2.327820,2.137715,9.219662,-0.002365,-0.341195,-0.072343,0.029925,0.018360,-0.096955,-0.023259,0.021375,0.092202,1.000000,0.000150,0.000092,-0.000485,0.336662,0.158048,-0.046557,-0.927099,11.519600,15.171264,-138.545338
49255,-2.179778,2.066992,9.253491,-0.167863,-0.385414,-0.092900,0.008830,0.060451,-0.092577,-0.021760,0.020676,0.092542,1.000000,0.000044,0.000302,-0.000463,0.336148,0.158349,-0.046464,-0.927238,11.514788,15.213558,-138.603293
49256,-2.616398,2.066426,9.514848,0.056744,-0.116133,0.268546,0.036405,0.063962,-0.086336,-0.026125,0.020658,0.095161,1.000000,0.000182,0.000320,-0.000432,0.335699,0.158715,-0.046486,-0.927338,11.526405,15.257284,-138.650230
49257,-2.955507,1.927749,9.752472,0.134274,0.198515,0.555751,0.027781,0.051681,-0.077306,-0.029522,0.019275,0.097535,1.000000,0.000139,0.000258,-0.000387,0.335287,0.159006,-0.046498,-0.927436,11.534284,15.292949,-138.694371
49258,-3.008165,2.702977,9.726166,0.647974,-0.365752,0.694444,0.037187,-0.008870,-0.047999,-0.030079,0.027019,0.097265,1.000000,0.000186,-0.000044,-0.000240,0.334998,0.159025,-0.046676,-0.927528,11.549907,15.291411,-138.727649
49259,-2.598503,2.071788,9.225039,0.131454,-0.129717,-0.009027,-0.020734,-0.002828,-0.036567,-0.025983,0.020732,0.092248,1.000000,-0.000104,-0.000014,-0.000183,0.334821,0.158974,-0.046584,-0.927606,11.534482,15.291900,-138.752133
49260,-2.262761,2.541102,9.108623,0.210791,-0.706369,-0.117281,-0.031325,0.039724,-0.021601,-0.022607,0.025428,0.091087,1.000000,-0.000157,0.000199,-0.000108,0.334720,0.159099,-0.046383,-0.927631,11.516421,15.314612,-138.764280
49261,-2.333398,2.277278,9.300783,0.038302,-0.469378,0.031779,-0.079480,0.081306,-0.009731,-0.023295,0.022811,0.093008,1.000000,-0.000397,0.000407,-0.000049,0.334723,0.159334,-0.045900,-0.927613,11.474158,15.359451,-138.764422
49262,-3.066253,2.051477,9.917233,0.231163,0.147167,0.764971,-0.086688,0.069541,0.010523,-0.030629,0.020556,0.099174,1.000000,-0.000433,0.000348,0.000053,0.334822,0.159497,-0.045418,-0.927573,11.430247,15.395237,-138.754376
49263,-3.120354,1.831334,9.719985,0.203126,0.350230,0.550931,-0.047860,-0.010049,0.034401,-0.031212,0.018331,0.097194,1.000000,-0.000239,-0.000050,0.000172,0.334972,0.159350,-0.045273,-0.927552,11.410085,15.383638,-138.741047
49264,-2.177734,2.175948,9.181174,-0.091899,-0.505707,-0.142784,-0.069403,0.020947,0.028700,-0.021771,0.021788,0.091806,1.000000,-0.000347,0.000105,0.000144,0.335130,0.159312,-0.044967,-0.927516,11.377365,15.390082,-138.726154
49265,-2.645275,2.392433,9.611744,0.238390,-0.390489,0.429262,-0.051797,0.076617,0.069424,-0.026424,0.023940,0.096121,1.000000,-0.000259,0.000383,0.000347,0.335470,0.159549,-0.044686,-0.927366,11.362999,15.422777,-138.681689
49266,-3.497819,3.010248,9.818755,1.163783,-0.330340,0.968813,-0.051875,0.015037,0.164903,-0.034996,0.030099,0.098182,1.000000,-0.000259,0.000075,0.000825,0.336244,0.159483,-0.044580,-0.927102,11.361242,15.410535,-138.588126
49267,-2.728220,3.445347,9.149450,1.096959,-1.137366,0.213733,-0.136335,0.007697,0.250840,-0.027322,0.034482,0.091472,0.999999,-0.000682,0.000038,0.001254,0.337469,0.159219,-0.044169,-0.926722,11.324417,15.384297,-138.446962
49268,-2.617927,3.420524,9.169499,1.004291,-1.186962,0.198095,-0.133831,0.078345,0.406412,-0.026213,0.034213,0.091682,0.999998,-0.000669,0.000392,0.002032,0.339441,0.159254,-0.043769,-0.926014,11.314935,15.380528,-138.205296
49269,-3.118121,4.752337,9.274365,2.155931,-1.874669,0.682967,-0.080630,0.091622,0.622553,-0.031287,0.047463,0.092739,0.999995,-0.000403,0.000458,0.003113,0.342402,0.159393,-0.043760,-0.924900,11.369863,15.359656,-137.832330
49270,-2.457020,4.181523,8.710812,1.526049,-1.834619,-0.132521,-0.255044,0.147188,0.790564,-0.024671,0.041829,0.087073,0.999991,-0.001275,0.000736,0.003953,0.346255,0.159450,-0.042987,-0.923491,11.352203,15.351032,-137.358862
49271,-2.150113,2.893244,8.989215,0.426065,-1.063786,-0.195689,-0.296107,0.218093,0.892571,-0.021532,0.028969,0.089873,0.999988,-0.001481,0.001090,0.004463,0.350621,0.159738,-0.041985,-0.921838,11.329420,15.370758,-136.817576
49272,-2.556899,1.104230,9.701414,-0.647389,0.513509,0.246720,-0.349319,0.239225,0.857724,-0.025500,0.011102,0.097025,0.999989,-0.001747,0.001196,0.004289,0.354865,0.160035,-0.040669,-0.920220,11.271263,15.406789,-136.294168
49273,-3.485504,0.368127,10.159784,-0.623563,1.647730,0.789275,-0.308286,0.140271,0.711972,-0.034797,0.003714,0.101617,0.999992,-0.001541,0.000701,0.003560,0.358399,0.159976,-0.039599,-0.918907,11.211474,15.403884,-135.864709
49274,-2.696297,-0.241706,9.766664,-1.433971,1.567028,0.097118,-0.403007,0.075203,0.468570,-0.026921,-0.002283,0.097681,0.999995,-0.002015,0.000376,0.002343,0.360853,0.159494,-0.038016,-0.918097,11.057364,15.392224,-135.587129
49275,-1.890736,-0.340905,9.452545,-1.942009,1.087087,-0.427140,-0.313458,0.059148,0.270886,-0.018875,-0.003286,0.094536,0.999998,-0.001567,0.000296,0.001354,0.362390,0.159139,-0.036704,-0.917606,10.923495,15.393753,-135.418224
49276,-1.879357,-0.123040,9.568911,-1.835739,0.891204,-0.276076,-0.258606,0.109963,0.123588,-0.018740,-0.001118,0.095701,0.999999,-0.001293,0.000550,0.000618,0.363148,0.159140,-0.035445,-0.917356,10.799735,15.440174,-135.338036
49277,-3.388152,0.190061,10.315422,-0.828089,1.627554,0.891936,-0.140372,0.059749,0.024754,-0.033851,0.001969,0.103163,1.000000,-0.000702,0.000299,0.000124,0.363395,0.159144,-0.034734,-0.917284,10.726953,15.469002,-135.315504
49278,-2.449808,-0.124148,9.376692,-1.373098,1.259332,-0.301221,-0.114431,0.008529,-0.089268,-0.024495,-0.001177,0.093769,1.000000,-0.000572,0.000043,-0.000446,0.363044,0.158979,-0.034151,-0.917474,10.649681,15.481166,-135.370973
49279,-1.809138,0.559486,8.961946,-1.232589,0.338055,-0.742466,0.033412,0.089672,-0.161750,-0.018047,0.005594,0.089628,1.000000,0.000167,0.000448,-0.000809,0.362301,0.159470,-0.034034,-0.917687,10.648154,15.546813,-135.454269
49280,-2.354200,0.920501,9.815215,-0.903914,0.388681,0.274923,0.079878,0.154248,-0.186264,-0.023458,0.009188,0.098174,0.999999,0.000399,0.000771,-0.000931,0.361374,0.160342,-0.034001,-0.917901,10.671151,15.651281,-135.550447
49281,-4.659864,2.113647,11.166150,1.012553,0.993144,2.387850,0.212652,0.023383,-0.132673,-0.046572,0.021049,0.111689,0.999999,0.001063,0.000117,-0.000663,0.360639,0.160844,-0.034843,-0.918071,10.774499,15.676258,-135.620460
49282,-4.155820,1.256030,10.097999,0.447239,1.352406,1.086349,0.075019,-0.169803,-0.158064,-0.041634,0.012555,0.100949,0.999999,0.000375,-0.000849,-0.000790,0.359789,0.160216,-0.035395,-0.918493,10.789430,15.595511,-135.736008
49283,-2.589879,2.155622,9.155758,0.261184,-0.303778,-0.064787,0.131552,-0.181119,-0.154791,-0.025965,0.021516,0.091548,0.999999,0.000658,-0.000906,-0.000774,0.359004,0.159638,-0.036211,-0.918869,10.836788,15.507994,-135.838746
49284,-1.657757,2.508254,8.373534,0.096683,-1.140350,-0.989660,0.114817,-0.100491,-0.130012,-0.016603,0.025045,0.083741,0.999999,0.000574,-0.000502,-0.000650,0.358262,0.159394,-0.036844,-0.919176,10.881253,15.463370,-135.930179
49285,-1.459364,2.814310,8.439528,0.130824,-1.498530,-0.923762,0.076852,0.049176,-0.087407,-0.014561,0.028117,0.084410,1.000000,0.000384,0.000246,-0.000437,0.357768,0.159763,-0.037070,-0.919295,10.915282,15.498520,-135.980553
49286,-3.351045,2.981580,10.028042,1.031779,-0.430917,1.115747,0.040752,0.079093,-0.029084,-0.033466,0.029800,0.100300,1.000000,0.000204,0.000395,-0.000145,0.357582,0.160192,-0.037121,-0.919291,10.938422,15.544067,-135.992885
49287,-3.461899,1.958682,10.013769,0.451159,0.402042,0.945173,-0.018110,-0.056784,-0.015992,-0.034646,0.019599,0.100126,1.000000,-0.000091,-0.000284,-0.000080,0.357510,0.159890,-0.037151,-0.919370,10.925858,15.511586,-136.008949
49288,-2.620641,1.598359,9.317081,-0.134947,0.140499,-0.004907,-0.023690,-0.065584,-0.036450,-0.026234,0.015999,0.093160,1.000000,-0.000118,-0.000328,-0.000182,0.357315,0.159541,-0.037158,-0.919506,10.906580,15.476537,-136.041878
49289,-2.110114,1.732603,9.155873,-0.346005,-0.291701,-0.269119,-0.005722,-0.037734,-0.045999,-0.021114,0.017334,0.091554,1.000000,-0.000029,-0.000189,-0.000230,0.357113,0.159355,-0.037184,-0.919616,10.896950,15.458030,-136.071508
49290,-2.284950,1.678041,9.528539,-0.377763,-0.151164,0.120304,0.003474,0.008687,-0.044697,-0.022842,0.016784,0.095287,1.000000,0.000017,0.000043,-0.000223,0.356872,0.159397,-0.037177,-0.919703,10.894200,15.465649,-136.100887
49291,-4.020136,1.807501,10.518504,0.593923,0.871740,1.543139,0.072867,-0.061304,-0.021570,-0.040232,0.018041,0.105179,1.000000,0.000364,-0.000307,-0.000108,0.356688,0.159237,-0.037631,-0.919783,10.932821,15.431250,-136.122230
49292,-3.025157,1.480348,9.668358,-0.029635,0.497055,0.413367,-0.001852,-0.159921,-0.055330,-0.030325,0.014813,0.096659,1.000000,-0.000009,-0.000800,-0.000277,0.356370,0.158497,-0.037892,-0.920024,10.920373,15.345186,-136.176791
49293,-2.348827,1.604183,9.312408,-0.297457,-0.020938,-0.080144,0.060317,-0.136298,-0.066133,-0.023546,0.016022,0.093113,1.000000,0.000302,-0.000681,-0.000331,0.355954,0.157979,-0.038390,-0.920253,10.942830,15.273740,-136.235448
49294,-1.853881,2.028972,9.090860,-0.294531,-0.648480,-0.342204,0.053952,-0.081479,-0.065848,-0.018569,0.020271,0.090907,1.000000,0.000270,-0.000407,-0.000329,0.355558,0.157701,-0.038760,-0.920438,10.963192,15.232971,-136.287297
49295,-2.669054,2.315657,9.742642,0.250707,-0.336968,0.542446,0.082379,-0.043759,-0.022526,-0.026709,0.023119,0.097430,1.000000,0.000412,-0.000219,-0.000113,0.355349,0.157639,-0.039229,-0.920510,11.007769,15.208740,-136.309252
49296,-3.170359,2.494962,9.755286,0.712776,-0.127181,0.719045,0.045054,-0.102410,0.005548,-0.031754,0.024927,0.097542,1.000000,0.000225,-0.000512,0.000028,0.355285,0.157234,-0.039651,-0.920586,11.033362,15.148438,-136.321904
49297,-2.394228,1.832185,9.164605,-0.062005,-0.118764,-0.165861,0.027859,-0.089092,0.016834,-0.023985,0.018307,0.091638,1.000000,0.000139,-0.000445,0.000084,0.355296,0.156860,-0.039979,-0.920631,11.051381,15.094425,-136.325411
49298,-1.854586,1.941223,9.063579,-0.333745,-0.549457,-0.381727,0.018006,-0.039513,0.014685,-0.018565,0.019403,0.090634,1.000000,0.000090,-0.000198,0.000073,0.355308,0.156695,-0.040173,-0.920646,11.064735,15.068496,-136.325617
49299,-1.614282,1.676871,8.977255,-0.644985,-0.507612,-0.574980,0.020248,0.037460,0.003543,-0.016126,0.016759,0.089777,1.000000,0.000101,0.000187,0.000018,0.355274,0.156892,-0.040233,-0.920623,11.080200,15.087178,-136.324403
49300,-2.464742,1.125994,9.775227,-0.664324,0.438554,0.299890,0.046636,0.081580,-0.012627,-0.024607,0.011239,0.097765,1.000000,0.000233,0.000408,-0.000063,0.355161,0.157341,-0.040322,-0.920586,11.109413,15.132344,-136.326703
49301,-3.852891,1.239207,10.507560,0.135828,1.256663,1.376216,0.136315,-0.013539,-0.035621,-0.038534,0.012327,0.105081,1.000000,0.000682,-0.000068,-0.000178,0.354844,0.157516,-0.040977,-0.920649,11.183900,15.126640,-136.354273
49302,-2.795055,1.351994,9.614071,-0.248144,0.510791,0.274338,0.084692,-0.100820,-0.098859,-0.027992,0.013493,0.096132,1.000000,0.000423,-0.000504,-0.000494,0.354267,0.157211,-0.041497,-0.920901,11.216382,15.078890,-136.427713
49303,-2.111208,1.693396,9.214297,-0.381877,-0.173949,-0.218316,0.152646,-0.059902,-0.107273,-0.021131,0.016875,0.092150,1.000000,0.000763,-0.000300,-0.000536,0.353618,0.157217,-0.042248,-0.921115,11.287902,15.055201,-136.499868
49304,-2.178905,1.928754,9.145716,-0.169837,-0.291966,-0.221142,0.157031,-0.006300,-0.087133,-0.021784,0.019225,0.091472,1.000000,0.000785,-0.000031,-0.000436,0.353057,0.157472,-0.042943,-0.921254,11.366496,15.059390,-136.555565
49305,-2.678336,2.461242,9.348857,0.443224,-0.356660,0.202734,0.152886,0.033865,-0.055839,-0.026761,0.024548,0.093512,1.000000,0.000764,0.000169,-0.000279,0.352716,0.157901,-0.043560,-0.921283,11.448537,15.082796,-136.580411
49306,-2.207411,2.490014,9.206364,0.165294,-0.681424,-0.048554,0.102501,0.053299,-0.039885,-0.022045,0.024857,0.092082,1.000000,0.000513,0.000266,-0.000199,0.352428,0.158324,-0.043935,-0.921302,11.504840,15.115204,-136.601591
49307,-2.016521,2.376200,9.021412,0.007056,-0.716387,-0.295057,0.077929,0.101877,-0.021057,-0.020117,0.023729,0.090234,1.000000,0.000390,0.000509,-0.000105,0.352198,0.158923,-0.044140,-0.921277,11.551866,15.172840,-136.613228
49308,-2.158763,2.247520,9.112847,-0.018225,-0.532200,-0.196452,0.056875,0.160955,-0.015330,-0.021513,0.022451,0.091152,1.000000,0.000284,0.000805,-0.000077,0.352083,0.159755,-0.044135,-0.921177,11.589111,15.262888,-136.607260
49309,-2.644163,2.059162,9.508746,0.058170,-0.089479,0.268810,0.037293,0.177820,-0.029295,-0.026354,0.020578,0.095115,1.000000,0.000186,0.000889,-0.000146,0.351888,0.160633,-0.044008,-0.921105,11.613911,15.363928,-136.611707
49310,-3.217326,1.669095,9.931924,0.059928,0.560982,0.744863,0.042415,0.125459,-0.035811,-0.032108,0.016676,0.099343,1.000000,0.000212,0.000627,-0.000179,0.351682,0.161282,-0.043982,-0.921072,11.638620,15.436415,-136.621817
49311,-3.119823,2.074349,9.828840,0.271844,0.192518,0.700702,0.049997,0.063222,-0.044113,-0.031163,0.020726,0.098303,1.000000,0.000250,0.000316,-0.000221,0.351416,0.161659,-0.044096,-0.921102,11.664589,15.474996,-136.644342
49312,-2.852857,2.478978,9.618652,0.403666,-0.280377,0.510153,0.049281,0.016761,-0.030093,-0.028517,0.024770,0.096195,1.000000,0.000246,0.000084,-0.000150,0.351206,0.161818,-0.044297,-0.921144,11.690633,15.485839,-136.664139
49313,-2.641593,2.434126,9.292827,0.331233,-0.375481,0.137635,0.007485,0.020308,-0.013334,-0.026405,0.024340,0.092932,1.000000,0.000037,0.000102,-0.000067,0.351162,0.161916,-0.044305,-0.921144,11.695415,15.496482,-136.667199
49314,-2.709324,2.308466,9.463880,0.241050,-0.243404,0.292615,-0.014784,0.034802,0.021662,-0.027079,0.023089,0.094642,1.000000,-0.000074,0.000174,0.000108,0.351246,0.162033,-0.044222,-0.921095,11.693380,15.511441,-136.654686
49315,-2.708923,2.172480,9.501059,0.141805,-0.144218,0.301024,-0.020131,0.014720,0.037833,-0.027086,0.021729,0.095010,1.000000,-0.000101,0.000074,0.000189,0.351466,0.162046,-0.044152,-0.921012,11.690143,15.513009,-136.627749
49316,-2.513752,1.749142,9.368022,-0.218819,0.046993,0.040647,-0.026929,0.018256,0.031710,-0.025132,0.017500,0.093680,1.000000,-0.000135,0.000091,0.000159,0.351603,0.162064,-0.044051,-0.920962,11.682184,15.517520,-136.611379
49317,-2.570834,1.706397,9.427352,-0.226106,0.113357,0.103560,-0.009184,0.028622,0.015313,-0.025696,0.017066,0.094276,1.000000,-0.000046,0.000143,0.000077,0.351639,0.162164,-0.044003,-0.920933,11.682436,15.529704,-136.604977
49318,-2.674217,1.667640,9.516541,-0.209530,0.206186,0.207821,0.000755,0.029701,-0.017222,-0.026727,0.016678,0.095169,1.000000,0.000004,0.000149,-0.000086,0.351530,0.162294,-0.043969,-0.920953,11.683082,15.546315,-136.615723
49319,-2.683241,2.072437,9.403629,0.088357,-0.089351,0.182673,-0.001215,0.026712,-0.031805,-0.026817,0.020729,0.094040,1.000000,-0.000006,0.000134,-0.000159,0.351319,0.162408,-0.043929,-0.921015,11.680578,15.562825,-136.639856
49320,-2.715930,2.134642,9.490315,0.120039,-0.120097,0.285343,-0.010400,0.038547,-0.019709,-0.027139,0.021354,0.094907,1.000000,-0.000052,0.000193,-0.000099,0.351211,0.162560,-0.043826,-0.921034,11.674722,15.584687,-136.650989
49321,-2.971003,2.203934,9.695357,0.273575,-0.012711,0.560795,-0.013438,0.016574,-0.001909,-0.029702,0.022046,0.096955,1.000000,-0.000067,0.000083,-0.000010,0.351164,0.162600,-0.043767,-0.921048,11.669482,15.592072,-136.656557
49322,-2.676682,2.373589,9.410049,0.270219,-0.326998,0.245524,-0.041036,-0.000324,-0.006939,-0.026766,0.023756,0.094096,1.000000,-0.000205,-0.000002,-0.000035,0.351131,0.162516,-0.043602,-0.921083,11.646811,15.590640,-136.664932
49323,-2.561695,2.379980,9.366419,0.211181,-0.409964,0.174491,-0.067811,0.015165,0.013020,-0.025611,0.023830,0.093658,1.000000,-0.000339,0.000076,0.000065,0.351195,0.162452,-0.043308,-0.921084,11.612741,15.595490,-136.662222
49324,-2.731830,2.112491,9.438785,0.140702,-0.105323,0.236456,-0.091121,0.032985,0.030679,-0.027306,0.021164,0.094383,1.000000,-0.000456,0.000165,0.000153,0.351383,0.162425,-0.042884,-0.921037,11.568339,15.608413,-136.644694
49325,-2.531381,1.857519,9.474971,-0.169795,-0.054913,0.167367,-0.085515,0.035547,0.031220,-0.025300,0.018612,0.094746,1.000000,-0.000428,0.000178,0.000156,0.351609,0.162419,-0.042476,-0.920971,11.527393,15.622433,-136.621630
49326,-2.588956,1.847936,9.452454,-0.125302,-0.015144,0.159800,-0.075788,0.029039,0.027081,-0.025878,0.018512,0.094521,1.000000,-0.000379,0.000145,0.000135,0.351766,0.162402,-0.042126,-0.920930,11.491088,15.633576,-136.606684
49327,-2.573326,1.694633,9.476716,-0.239718,0.082527,0.149123,-0.061898,0.044183,0.020098,-0.025714,0.016973,0.094768,1.000000,-0.000309,0.000221,0.000100,0.351895,0.162481,-0.041808,-0.920881,11.462293,15.654002,-136.592568
49328,-2.700924,1.759495,9.480271,-0.109821,0.112657,0.199385,-0.054022,0.038988,0.020038,-0.026993,0.017618,0.094803,1.000000,-0.000270,0.000195,0.000100,0.352005,0.162549,-0.041535,-0.920839,11.437673,15.671548,-136.580563
49329,-2.659323,1.752047,9.449823,-0.133629,0.086668,0.158042,-0.042887,0.045632,0.004678,-0.026572,0.017540,0.094501,1.000000,-0.000214,0.000228,0.000023,0.352069,0.162671,-0.041285,-0.920805,11.417325,15.694438,-136.572718
49330,-2.590287,1.937574,9.460369,-0.068380,-0.103014,0.184666,-0.031079,0.042181,0.008039,-0.025884,0.019389,0.094606,1.000000,-0.000155,0.000211,0.000040,0.352105,0.162797,-0.041103,-0.920777,11.404063,15.715145,-136.567347
49331,-2.554101,2.004123,9.355618,-0.018710,-0.177347,0.088612,-0.029553,0.058999,0.004968,-0.025514,0.020054,0.093561,1.000000,-0.000148,0.000295,0.000025,0.352185,0.163008,-0.040884,-0.920719,11.391697,15.745866,-136.554870
49332,-2.754540,2.017364,9.454750,0.094664,-0.063658,0.239005,-0.032959,0.063192,0.020074,-0.027518,0.020186,0.094553,1.000000,-0.000165,0.000316,0.000100,0.352282,0.163224,-0.040666,-0.920653,11.379940,15.777016,-136.540014
49333,-2.509105,1.754381,9.425408,-0.237029,-0.034053,0.094604,-0.039433,0.075753,0.006695,-0.025056,0.017562,0.094260,1.000000,-0.000197,0.000379,0.000033,0.352304,0.163489,-0.040392,-0.920609,11.363102,15.816574,-136.534187
49334,-2.722027,2.055074,9.517367,0.069334,-0.129121,0.296296,-0.039318,0.078126,-0.006270,-0.027182,0.020570,0.095180,1.000000,-0.000197,0.000391,-0.000031,0.352289,0.163769,-0.040097,-0.920579,11.343997,15.859093,-136.532975
49335,-2.613407,2.213061,9.377876,0.136602,-0.321427,0.164792,-0.050497,0.090542,0.006483,-0.026092,0.022153,0.093785,1.000000,-0.000252,0.000453,0.000032,0.352310,0.164082,-0.039748,-0.920530,11.321265,15.907017,-136.526938
49336,-3.007181,2.105557,9.755982,0.213763,-0.003478,0.608924,-0.027102,0.094117,0.058918,-0.030032,0.021060,0.097571,1.000000,-0.000136,0.000471,0.000295,0.352588,0.164443,-0.039534,-0.920368,11.320119,15.951188,-136.485795
49337,-3.066569,1.689168,9.517632,0.064586,0.353859,0.322058,-0.021429,0.056345,0.070535,-0.030645,0.016891,0.095183,1.000000,-0.000107,0.000282,0.000353,0.352941,0.164638,-0.039418,-0.920203,11.323024,15.972575,-136.437948
49338,-2.623678,1.572824,9.472712,-0.307330,0.147634,0.135855,0.003055,0.060169,0.062812,-0.026213,0.015719,0.094735,1.000000,0.000015,0.000301,0.000314,0.353205,0.164896,-0.039406,-0.920056,11.338733,15.997229,-136.398485
49339,-2.493575,1.589793,9.356663,-0.354405,0.052519,-0.006356,0.018768,0.070360,0.043693,-0.024906,0.015884,0.093577,1.000000,0.000094,0.000352,0.000218,0.353393,0.165232,-0.039429,-0.919922,11.360817,16.029569,-136.366111
49340,-2.541009,1.563367,9.375505,-0.352273,0.101201,0.019229,0.034173,0.090619,0.029249,-0.025370,0.015614,0.093769,1.000000,0.000171,0.000453,0.000146,0.353483,0.165692,-0.039479,-0.919803,11.389975,16.075090,-136.342650
49341,-2.718279,1.577689,9.512129,-0.274626,0.200608,0.199458,0.052672,0.080869,0.003659,-0.027145,0.015751,0.095136,1.000000,0.000263,0.000404,0.000018,0.353451,0.166143,-0.039609,-0.919728,11.425457,16.117805,-136.333515
49342,-2.779316,1.668268,9.497917,-0.179925,0.173698,0.220039,0.077323,0.078295,-0.023926,-0.027754,0.016649,0.094996,1.000000,0.000387,0.000391,-0.000120,0.353258,0.166633,-0.039835,-0.919704,11.470346,16.162425,-136.342529
49343,-2.731704,1.899900,9.494389,-0.075109,-0.030476,0.247565,0.082978,0.071462,-0.040826,-0.027279,0.018965,0.094962,1.000000,0.000415,0.000357,-0.000204,0.352983,0.167102,-0.040087,-0.919714,11.515685,16.204779,-136.361861
49344,-2.847200,2.147241,9.538937,0.137153,-0.140894,0.369152,0.071290,0.069876,-0.043011,-0.028434,0.021445,0.095407,1.000000,0.000356,0.000349,-0.000215,0.352705,0.167545,-0.040284,-0.919731,11.553724,16.246872,-136.382973
49345,-3.494388,2.224200,9.925990,0.496098,0.214627,0.929328,0.087286,0.037461,-0.021746,-0.034923,0.022202,0.099276,1.000000,0.000436,0.000187,-0.000109,0.352522,0.167864,-0.040628,-0.919728,11.603486,16.268162,-136.393392
49346,-3.084799,2.175891,9.538048,0.307180,0.000287,0.440629,0.035163,-0.030129,-0.021043,-0.030860,0.021745,0.095380,1.000000,0.000176,-0.000151,-0.000105,0.352355,0.167779,-0.040853,-0.919797,11.621062,16.251622,-136.413619
49347,-2.657080,2.343798,9.291878,0.199019,-0.394350,0.121966,0.027230,-0.013257,-0.009438,-0.026576,0.023427,0.092920,1.000000,0.000136,-0.000066,-0.000047,0.352274,0.167755,-0.041020,-0.919825,11.636698,16.242945,-136.422158
49348,-2.410444,2.180627,9.167708,-0.034737,-0.429134,-0.095338,-0.008000,0.013212,0.003468,-0.024099,0.021810,0.091678,1.000000,-0.000040,0.000066,0.000017,0.352265,0.167789,-0.040991,-0.919824,11.635013,16.247903,-136.422846
49349,-2.758563,1.789751,9.502184,-0.155959,0.078686,0.240862,0.014098,0.048080,0.019561,-0.027565,0.017888,0.095030,1.000000,0.000070,0.000240,0.000098,0.352324,0.168017,-0.041018,-0.919759,11.650040,16.270132,-136.409227
49350,-3.126358,1.747772,9.667254,0.012349,0.347303,0.490897,0.043795,0.029272,0.027029,-0.031252,0.017452,0.096681,1.000000,0.000219,0.000146,0.000135,0.352383,0.168211,-0.041219,-0.919692,11.682435,16.281372,-136.394201
49351,-2.807751,1.841349,9.446044,-0.080266,0.079445,0.211734,0.062753,0.017369,0.023673,-0.028071,0.018381,0.094469,1.000000,0.000314,0.000087,0.000118,0.352466,0.168384,-0.041515,-0.919614,11.724711,16.285935,-136.375321
49352,-2.716447,1.928724,9.397349,-0.077916,-0.039748,0.157346,0.072081,0.026011,0.023011,-0.027154,0.019250,0.093984,1.000000,0.000360,0.000130,0.000115,0.352482,0.168614,-0.041849,-0.919551,11.772551,16.295793,-136.363022
49353,-2.690067,2.056282,9.365565,-0.011974,-0.146927,0.145064,0.074556,0.041780,0.031399,-0.026884,0.020524,0.093669,1.000000,0.000373,0.000209,0.000157,0.352547,0.168918,-0.042173,-0.919456,11.823898,16.313286,-136.342747
49354,-3.048133,2.049985,9.702389,0.109709,0.085311,0.560865,0.075630,0.040807,0.035782,-0.030465,0.020458,0.097038,1.000000,0.000378,0.000204,0.000179,0.352621,0.169219,-0.042507,-0.919356,11.876391,16.329918,-136.321151
49355,-3.336711,2.217627,9.819889,0.370146,0.153092,0.785486,0.069763,-0.019035,0.050239,-0.033382,0.022134,0.098203,1.000000,0.000349,-0.000095,0.000251,0.352760,0.169232,-0.042933,-0.919281,11.926019,16.311142,-136.297699
49356,-2.778874,1.879475,9.387262,-0.086008,0.062557,0.155459,0.066815,-0.044529,0.045699,-0.027814,0.018757,0.093873,1.000000,0.000334,-0.000223,0.000228,0.352869,0.169123,-0.043385,-0.919238,11.972125,16.278727,-136.280832
49357,-2.509143,1.907919,9.250844,-0.210346,-0.123212,-0.042599,0.071225,-0.030783,0.039440,-0.025109,0.019041,0.092511,1.000000,0.000356,-0.000154,0.000197,0.352964,0.169086,-0.043828,-0.919187,12.020372,16.254472,-136.264045
