PacketCounter,Acc_X,Acc_Y,Acc_Z,FreeAcc_E,FreeAcc_N,FreeAcc_U,Gyr_X,Gyr_Y,Gyr_Z,VelInc_X,VelInc_Y,VelInc_Z,OriInc_q0,OriInc_q1,OriInc_q2,OriInc_q3,Quat_q0,Quat_q1,Quat_q2,Quat_q3,Roll,Pitch,Yaw
52009,-9.767193,-0.919628,-1.387904,0.092419,0.767779,0.065167,-0.399855,0.057847,-0.129276,-0.097682,-0.009161,-0.013832,0.999998,-0.001999,0.000289,-0.000646,-0.104378,-0.731793,-0.133376,0.660148,-167.657415,83.734162,31.728550
52010,-9.889940,-1.372712,-1.526637,0.053195,1.224008,0.213520,-0.362333,0.055106,-0.110959,-0.098911,-0.013700,-0.015214,0.999998,-0.001812,0.000276,-0.000555,-0.105281,-0.731706,-0.135000,0.659771,-167.349795,83.690237,32.244670
52011,-9.951952,-1.587341,-1.522881,-0.034252,1.413920,0.280866,-0.282434,0.010268,-0.083845,-0.099527,-0.015853,-0.015201,0.999999,-0.001412,0.000051,-0.000419,-0.106017,-0.731534,-0.136231,0.659590,-167.097104,83.674086,32.659586
52012,-9.781518,-1.584462,-1.406904,-0.127599,1.378425,0.099510,-0.182652,-0.024701,-0.047330,-0.097817,-0.015834,-0.014067,1.000000,-0.000913,-0.000124,-0.000237,-0.106526,-0.731318,-0.136987,0.659591,-166.920626,83.682425,32.940217
52013,-9.599266,-1.351799,-1.135979,-0.283768,1.078415,-0.116285,-0.050885,-0.025789,-0.010686,-0.095992,-0.013516,-0.011369,1.000000,-0.000254,-0.000129,-0.000053,-0.106677,-0.731200,-0.137172,0.659660,-166.857741,83.695363,33.030624
52014,-9.546192,-1.065593,-0.833149,-0.462818,0.711442,-0.208571,0.039276,-0.010542,0.017331,-0.095461,-0.010663,-0.008339,1.000000,0.000196,-0.000053,0.000087,-0.106579,-0.731193,-0.136967,0.659725,-166.896458,83.704142,32.966813
52015,-9.599383,-0.829399,-0.618095,-0.588488,0.415775,-0.184660,0.059274,0.010386,0.031206,-0.095993,-0.008307,-0.006178,1.000000,0.000296,0.000052,0.000156,-0.106438,-0.731281,-0.136656,0.659716,-167.021022,83.702254,32.805090
52016,-9.654450,-0.638450,-0.760519,-0.396978,0.282992,-0.119559,0.029239,0.018501,0.032598,-0.096544,-0.006399,-0.007597,1.000000,0.000146,0.000093,0.000163,-0.106406,-0.731375,-0.136444,0.659660,-167.176668,83.696738,32.629424
52017,-9.699075,-0.521425,-1.065339,-0.078804,0.274394,-0.045529,0.017777,0.027289,0.029823,-0.096991,-0.005228,-0.010641,1.000000,0.000089,0.000136,0.000149,-0.106400,-0.731494,-0.136286,0.659562,-167.334808,83.685241,32.457820
52018,-9.715252,-0.315430,-1.114637,0.032889,0.096985,-0.029153,0.050252,0.030701,0.016450,-0.097154,-0.003159,-0.011132,1.000000,0.000251,0.000154,0.000082,-0.106230,-0.731628,-0.136070,0.659485,-167.409882,83.670789,32.351099
52019,-9.635360,-0.071566,-1.002003,0.015005,-0.165678,-0.126531,0.079894,0.025440,0.015125,-0.096355,-0.000719,-0.010008,1.000000,0.000399,0.000127,0.000076,-0.105949,-0.731764,-0.135760,0.659443,-167.454648,83.658412,32.257741
52020,-9.633880,0.037106,-0.891566,-0.054084,-0.305040,-0.142531,0.058889,0.030964,0.015227,-0.096340,0.000366,-0.008901,1.000000,0.000294,0.000155,0.000076,-0.105743,-0.731903,-0.135520,0.659371,-167.518205,83.643639,32.157623
52021,-9.632856,-0.025324,-0.802669,-0.161627,-0.276267,-0.151715,0.024829,0.036698,0.012898,-0.096330,-0.000258,-0.008009,1.000000,0.000124,0.000183,0.000064,-0.105649,-0.732045,-0.135405,0.659253,-167.595814,83.624734,32.062966
52022,-9.695700,-0.152409,-1.010498,-0.019530,-0.091706,-0.063732,-0.020892,0.042874,0.006500,-0.096959,-0.001528,-0.010084,1.000000,-0.000104,0.000214,0.000033,-0.105699,-0.732175,-0.135466,0.659088,-167.673568,83.602195,31.994553
52023,-9.779901,-0.328748,-1.245729,0.129234,0.146462,0.049778,-0.064097,0.041556,-0.007274,-0.097802,-0.003288,-0.012436,1.000000,-0.000320,0.000208,-0.000036,-0.105861,-0.732271,-0.135720,0.658902,-167.706248,83.578162,31.996381
52024,-9.752246,-0.435991,-1.342814,0.183195,0.279612,0.035551,-0.045500,0.032689,-0.014069,-0.097525,-0.004356,-0.013411,1.000000,-0.000228,0.000163,-0.000070,-0.105939,-0.732341,-0.135932,0.658769,-167.684230,83.558805,32.042553
52025,-9.716502,-0.399459,-1.397139,0.248077,0.263478,0.005205,-0.015198,0.013422,-0.016655,-0.097166,-0.003988,-0.013965,1.000000,-0.000076,0.000067,-0.000083,-0.105910,-0.732365,-0.136045,0.658724,-167.611706,83.549276,32.122049
52026,-9.637927,-0.265257,-1.395881,0.299562,0.140080,-0.076204,0.007824,0.005031,-0.005511,-0.096380,-0.002649,-0.013956,1.000000,0.000039,0.000025,-0.000028,-0.105840,-0.732377,-0.136036,0.658723,-167.571831,83.546440,32.155448
52027,-9.617563,-0.151604,-1.310501,0.260482,0.004648,-0.108562,0.046480,-0.002852,-0.008075,-0.096176,-0.001509,-0.013107,1.000000,0.000232,-0.000014,-0.000040,-0.105624,-0.732386,-0.135906,0.658774,-167.488774,83.546930,32.209973
52028,-9.658177,0.049482,-1.202843,0.224715,-0.224402,-0.084953,0.066224,0.000139,-0.008094,-0.096582,0.000503,-0.012028,1.000000,0.000331,0.000001,-0.000040,-0.105335,-0.732412,-0.135711,0.658832,-167.397352,83.546498,32.261572
52029,-9.735146,0.104588,-1.156474,0.193439,-0.298412,-0.014985,0.036237,-0.002638,-0.020896,-0.097351,0.001058,-0.011566,1.000000,0.000181,-0.000013,-0.000104,-0.105115,-0.732408,-0.135661,0.658882,-167.257829,83.545186,32.378836
52030,-9.770010,0.061210,-1.254416,0.269067,-0.230144,0.031348,0.011015,-0.008805,-0.040053,-0.097699,0.000632,-0.012548,1.000000,0.000055,-0.000044,-0.000200,-0.104929,-0.732353,-0.135761,0.658952,-167.030189,83.545647,32.599357
52031,-9.708109,-0.010292,-1.247978,0.247496,-0.165482,-0.029217,-0.024456,-0.013830,-0.057752,-0.097080,-0.000076,-0.012486,1.000000,-0.000122,-0.000069,-0.000289,-0.104817,-0.732256,-0.136039,0.659020,-166.732114,83.545675,32.911192
52032,-9.679153,-0.165290,-1.220002,0.175369,-0.032141,-0.057179,-0.048172,-0.019660,-0.068519,-0.096791,-0.001623,-0.012209,1.000000,-0.000241,-0.000098,-0.000343,-0.104762,-0.732115,-0.136432,0.659105,-166.385277,83.548140,33.285799
52033,-9.645348,-0.410601,-1.253497,0.131142,0.206599,-0.080643,-0.078730,-0.027460,-0.075377,-0.096453,-0.004075,-0.012547,1.000000,-0.000394,-0.000137,-0.000377,-0.104801,-0.731932,-0.136947,0.659195,-166.015542,83.552889,33.701049
52034,-9.575567,-0.423524,-1.140244,0.031483,0.179936,-0.161903,-0.063832,-0.020674,-0.071884,-0.095756,-0.004204,-0.011411,1.000000,-0.000319,-0.000103,-0.000359,-0.104792,-0.731777,-0.137403,0.659274,-165.659219,83.554916,34.094224
52035,-9.637983,-0.532017,-1.014102,-0.125189,0.230564,-0.110454,-0.051286,-0.026736,-0.067834,-0.096380,-0.005290,-0.010153,1.000000,-0.000256,-0.000134,-0.000339,-0.104754,-0.731616,-0.137800,0.659375,-165.310356,83.559706,34.472633
52036,-9.660667,-0.605473,-0.915687,-0.239864,0.260392,-0.096298,-0.035018,-0.028827,-0.061551,-0.096607,-0.006027,-0.009170,1.000000,-0.000175,-0.000144,-0.000308,-0.104680,-0.731456,-0.138119,0.659498,-164.976860,83.567231,34.826216
52037,-9.717952,-0.803027,-0.851158,-0.368451,0.416441,-0.040342,-0.030661,-0.028423,-0.053597,-0.097180,-0.008006,-0.008524,1.000000,-0.000153,-0.000142,-0.000268,-0.104614,-0.731309,-0.138396,0.659613,-164.681403,83.574619,35.138967
52038,-9.859891,-0.834417,-0.975667,-0.271612,0.474405,0.115394,0.005281,-0.018420,-0.051845,-0.098600,-0.008318,-0.009766,1.000000,0.000026,-0.000092,-0.000259,-0.104417,-0.731211,-0.138552,0.659721,-164.385156,83.577457,35.431821
52039,-9.828899,-0.883679,-0.985017,-0.273068,0.521013,0.087432,0.047926,-0.014725,-0.055240,-0.098291,-0.008807,-0.009860,1.000000,0.000240,-0.000074,-0.000276,-0.104048,-0.731149,-0.138584,0.659841,-164.052616,83.576676,35.736557
52040,-9.797061,-0.827710,-1.031430,-0.203671,0.481028,0.059419,0.082427,-0.013624,-0.050246,-0.097972,-0.008248,-0.010324,1.000000,0.000412,-0.000068,-0.000251,-0.103570,-0.731107,-0.138482,0.659984,-163.726462,83.576760,36.015026
52041,-9.688625,-0.740970,-1.038695,-0.153953,0.404372,-0.049996,0.092176,-0.010588,-0.040257,-0.096887,-0.007385,-0.010395,1.000000,0.000461,-0.000053,-0.000201,-0.103084,-0.731091,-0.138316,0.660112,-163.445834,83.575726,36.241987
52042,-9.599551,-0.660261,-1.018462,-0.134289,0.323862,-0.143061,0.090813,-0.010331,-0.031460,-0.095996,-0.006583,-0.010193,1.000000,0.000454,-0.000052,-0.000157,-0.102636,-0.731078,-0.138120,0.660238,-163.211291,83.576786,36.423431
52043,-9.549016,-0.592070,-0.943350,-0.175012,0.235258,-0.203412,0.086266,0.001437,-0.013881,-0.095491,-0.005910,-0.009435,1.000000,0.000431,0.000007,-0.000069,-0.102250,-0.731116,-0.137884,0.660305,-163.079009,83.573318,36.504501
52044,-9.638749,-0.507397,-0.940666,-0.155969,0.147250,-0.117236,0.027849,-0.003006,-0.006796,-0.096388,-0.005069,-0.009409,1.000000,0.000139,-0.000015,-0.000034,-0.102108,-0.731111,-0.137809,0.660348,-163.011449,83.574384,36.554212
52045,-9.680845,-0.416470,-1.096461,0.017669,0.109643,-0.061682,-0.018064,-0.004895,-0.007290,-0.096808,-0.004162,-0.010967,1.000000,-0.000090,-0.000024,-0.000036,-0.102129,-0.731080,-0.137891,0.660362,-162.960818,83.575486,36.613263
52046,-9.655476,-0.286304,-1.110631,0.077408,-0.006963,-0.089640,-0.019312,0.003195,-0.004421,-0.096555,-0.002862,-0.011104,1.000000,-0.000097,0.000016,-0.000022,-0.102163,-0.731072,-0.137966,0.660349,-162.941061,83.573545,36.642061
52047,-9.706014,-0.162636,-0.986581,-0.001987,-0.168430,-0.056760,-0.045487,0.004379,-0.004954,-0.097060,-0.001626,-0.009863,1.000000,-0.000227,0.000022,-0.000025,-0.102285,-0.731059,-0.138135,0.660310,-162.931376,83.569940,36.675717
52048,-9.734125,-0.245499,-0.791257,-0.215468,-0.157264,-0.047013,-0.058669,-0.003304,-0.001461,-0.097341,-0.002457,-0.007913,1.000000,-0.000293,-0.000017,-0.000007,-0.102477,-0.731013,-0.138326,0.660292,-162.938879,83.572055,36.699774
52049,-9.704962,-0.414819,-0.792592,-0.269120,0.004812,-0.070300,-0.079896,0.003799,0.007189,-0.097050,-0.004155,-0.007922,1.000000,-0.000399,0.000019,0.000036,-0.102766,-0.730988,-0.138563,0.660225,-163.007368,83.570894,36.674610
52050,-9.749592,-0.661549,-1.016247,-0.148860,0.308669,0.006046,-0.121525,0.020488,-0.004189,-0.097497,-0.006620,-0.010148,1.000000,-0.000608,0.000102,-0.000021,-0.103163,-0.730985,-0.138984,0.660077,-163.072941,83.559519,36.676471
52051,-9.819602,-0.763441,-1.243096,0.020753,0.473881,0.103346,-0.066193,0.016016,-0.029207,-0.098198,-0.007624,-0.012421,1.000000,-0.000331,0.000080,-0.000146,-0.103272,-0.730982,-0.139315,0.659994,-162.974279,83.545612,36.811614
52052,-9.790629,-0.657633,-1.111590,-0.064112,0.328765,0.057081,0.029012,0.015291,-0.037298,-0.097908,-0.006556,-0.011109,1.000000,0.000145,0.000076,-0.000186,-0.103013,-0.731016,-0.139357,0.659987,-162.786073,83.531498,36.982074
52053,-9.679951,-0.612321,-1.001875,-0.140529,0.252368,-0.066062,0.056602,0.004796,-0.041089,-0.096801,-0.006100,-0.010018,1.000000,0.000283,0.000024,-0.000205,-0.102641,-0.731031,-0.139322,0.660036,-162.543116,83.521528,37.191619
52054,-9.631683,-0.502698,-1.047234,-0.055094,0.163625,-0.112744,0.067977,0.006448,-0.031336,-0.096318,-0.005008,-0.010471,1.000000,0.000340,0.000032,-0.000157,-0.102266,-0.731060,-0.139209,0.660086,-162.349306,83.513130,37.345259
52055,-9.578971,-0.395284,-1.069402,0.007396,0.069788,-0.166360,0.065168,0.015535,-0.025378,-0.095791,-0.003937,-0.010688,1.000000,0.000326,0.000078,-0.000127,-0.101907,-0.731125,-0.139095,0.660094,-162.193776,83.499873,37.461874
52056,-9.673156,-0.309529,-1.092091,0.049310,-0.013358,-0.073293,0.055286,0.014208,-0.026761,-0.096733,-0.003079,-0.010915,1.000000,0.000276,0.000071,-0.000134,-0.101587,-0.731177,-0.139011,0.660103,-162.042058,83.487950,37.580473
52057,-9.716833,-0.344665,-1.088695,0.030586,0.012060,-0.029037,0.037317,0.009388,-0.024072,-0.097169,-0.003433,-0.010883,1.000000,0.000187,0.000047,-0.000120,-0.101338,-0.731208,-0.138980,0.660114,-161.900270,83.478202,37.699325
52058,-9.731464,-0.465482,-1.150550,0.047307,0.142128,-0.003539,0.031104,0.002874,-0.028745,-0.097315,-0.004639,-0.011505,1.000000,0.000156,0.000014,-0.000144,-0.101108,-0.731208,-0.138977,0.660149,-161.736141,83.472024,37.844366
52059,-9.714774,-0.524882,-1.260278,0.133091,0.232136,-0.006106,0.040617,-0.002486,-0.029991,-0.097148,-0.005232,-0.012605,1.000000,0.000203,-0.000012,-0.000150,-0.100836,-0.731198,-0.138951,0.660208,-161.546314,83.467570,38.009669
52060,-9.713774,-0.507522,-1.232220,0.114853,0.203174,-0.010704,0.045708,-0.007405,-0.034883,-0.097138,-0.005055,-0.012327,1.000000,0.000229,-0.000037,-0.000174,-0.100539,-0.731168,-0.138918,0.660294,-161.328885,83.465746,38.199939
52061,-9.701194,-0.433085,-1.073836,-0.004686,0.077827,-0.042949,0.059949,-0.015241,-0.038164,-0.097012,-0.004309,-0.010747,1.000000,0.000300,-0.000076,-0.000191,-0.100178,-0.731119,-0.138851,0.660416,-161.068876,83.466481,38.424728
52062,-9.713239,-0.384066,-0.938756,-0.112939,-0.017579,-0.047304,0.063340,-0.009239,-0.040174,-0.097133,-0.003818,-0.009393,1.000000,0.000317,-0.000046,-0.000201,-0.099801,-0.731088,-0.138778,0.660523,-160.813513,83.464472,38.643013
52063,-9.676818,-0.413420,-0.897707,-0.155701,-0.004755,-0.086777,0.025112,-0.004841,-0.034805,-0.096769,-0.004116,-0.008980,1.000000,0.000126,-0.000024,-0.000174,-0.099571,-0.731058,-0.138820,0.660582,-160.606451,83.460026,38.834602
52064,-9.671334,-0.612171,-0.921634,-0.197954,0.187226,-0.082085,-0.001408,0.007416,-0.034134,-0.096715,-0.006105,-0.009213,1.000000,-0.000007,0.000037,-0.000171,-0.099439,-0.731053,-0.138947,0.660581,-160.444834,83.449994,38.995871
52065,-9.693819,-0.812083,-0.966702,-0.224584,0.384831,-0.047156,-0.027744,0.018451,-0.034887,-0.096941,-0.008105,-0.009657,1.000000,-0.000139,0.000092,-0.000174,-0.099385,-0.731074,-0.139175,0.660518,-160.306970,83.432880,39.148295
52066,-9.704726,-0.980590,-1.210676,-0.053511,0.619912,-0.003414,-0.047542,0.007074,-0.026123,-0.097049,-0.009796,-0.012101,1.000000,-0.000238,0.000035,-0.000131,-0.099448,-0.731051,-0.139425,0.660481,-160.209772,83.424497,39.271335
52067,-9.716364,-1.037328,-1.190498,-0.092226,0.663360,0.008336,-0.025917,-0.001465,-0.023321,-0.097165,-0.010363,-0.011904,1.000000,-0.000130,-0.000007,-0.000117,-0.099439,-0.731014,-0.139596,0.660487,-160.090842,83.420230,39.403632
52068,-9.732870,-0.877337,-1.117765,-0.106939,0.486115,0.010761,0.031846,-0.009673,-0.008605,-0.097329,-0.008767,-0.011184,1.000000,0.000159,-0.000048,-0.000043,-0.099281,-0.730987,-0.139511,0.660558,-160.001968,83.424240,39.472507
52069,-9.709820,-0.657307,-0.894876,-0.238614,0.206635,-0.044687,0.052165,-0.009676,0.004165,-0.097098,-0.006573,-0.008955,1.000000,0.000261,-0.000048,0.000021,-0.099082,-0.730982,-0.139321,0.660635,-159.951164,83.429643,39.491170
52070,-9.720077,-0.563757,-0.856168,-0.243663,0.105989,-0.042317,0.044070,-0.003561,0.020854,-0.097200,-0.005646,-0.008565,1.000000,0.000220,-0.000018,0.000104,-0.098973,-0.731002,-0.139091,0.660678,-160.003303,83.436133,39.411050
52071,-9.709167,-0.527907,-0.904012,-0.185994,0.090507,-0.049436,0.024696,0.000484,0.030646,-0.097091,-0.005293,-0.009041,1.000000,0.000123,0.000002,0.000153,-0.098953,-0.731034,-0.138900,0.660685,-160.108754,83.441293,39.288264
52072,-9.698750,-0.515803,-1.129791,0.030401,0.156371,-0.036039,0.014976,-0.002108,0.027818,-0.096987,-0.005171,-0.011299,1.000000,0.000075,-0.000011,0.000139,-0.098973,-0.731049,-0.138742,0.660699,-160.213010,83.448324,39.172466
52073,-9.707701,-0.403196,-1.214993,0.147063,0.078932,-0.022366,0.030692,-0.001441,0.014185,-0.097077,-0.004037,-0.012151,1.000000,0.000153,-0.000007,0.000071,-0.098878,-0.731066,-0.138590,0.660726,-160.234486,83.451300,39.130748
52074,-9.687894,-0.266369,-1.102132,0.089339,-0.085111,-0.059446,0.030890,-0.012279,0.000160,-0.096878,-0.002662,-0.011028,1.000000,0.000154,-0.000061,0.000001,-0.098755,-0.731036,-0.138475,0.660802,-160.182693,83.458438,39.162846
52075,-9.623266,-0.185269,-1.078714,0.101575,-0.164917,-0.129316,0.001911,-0.012128,-0.004274,-0.096232,-0.001851,-0.010793,1.000000,0.000010,-0.000061,-0.000021,-0.098712,-0.730991,-0.138481,0.660857,-160.116189,83.463569,39.226288
52076,-9.653729,-0.331510,-0.964658,-0.056382,-0.067192,-0.105615,-0.011613,0.009071,-0.005673,-0.096538,-0.003313,-0.009642,1.000000,-0.000058,0.000045,-0.000028,-0.098710,-0.731006,-0.138539,0.660828,-160.097508,83.458060,39.249568
52077,-9.689271,-0.604401,-1.015552,-0.103321,0.202984,-0.054268,-0.043570,0.009964,-0.005425,-0.096893,-0.006044,-0.010149,1.000000,-0.000218,0.000050,-0.000027,-0.098816,-0.731011,-0.138709,0.660771,-160.089747,83.451096,39.280118
52078,-9.709736,-0.870214,-1.268745,0.043044,0.534512,0.003544,-0.072947,0.003864,-0.005376,-0.097098,-0.008704,-0.012682,1.000000,-0.000365,0.000019,-0.000027,-0.099042,-0.730979,-0.138966,0.660719,-160.098805,83.448450,39.310851
52079,-9.675948,-0.958718,-1.310648,0.055856,0.633635,-0.022065,-0.010297,-0.008095,-0.004056,-0.096759,-0.009586,-0.013110,1.000000,-0.000051,-0.000040,-0.000020,-0.099042,-0.730941,-0.139013,0.660750,-160.046879,83.451413,39.366654
52080,-9.665558,-0.814310,-1.093933,-0.096330,0.427126,-0.061222,0.071409,-0.021592,0.000274,-0.096654,-0.008139,-0.010953,1.000000,0.000357,-0.000108,0.000001,-0.098778,-0.730901,-0.138759,0.660888,-159.956256,83.463574,39.414469
52081,-9.641399,-0.680777,-0.955333,-0.176997,0.257928,-0.105224,0.094454,-0.020241,0.014085,-0.096413,-0.006810,-0.009566,1.000000,0.000472,-0.000101,0.000070,-0.098462,-0.730887,-0.138390,0.661028,-159.907254,83.476521,39.406898
52082,-9.634370,-0.513871,-0.885336,-0.184580,0.079770,-0.126174,0.089289,-0.014445,0.023270,-0.096342,-0.005146,-0.008863,1.000000,0.000446,-0.000072,0.000116,-0.098203,-0.730895,-0.137996,0.661140,-159.926680,83.489352,39.333635
52083,-9.654472,-0.434887,-0.921691,-0.125367,0.017336,-0.105399,0.089731,0.001480,0.031425,-0.096544,-0.004360,-0.009218,1.000000,0.000449,0.000007,0.000157,-0.097946,-0.730962,-0.137589,0.661188,-159.999012,83.494044,39.206662
52084,-9.747396,-0.410627,-1.001540,-0.050843,0.015537,-0.005517,0.080519,0.004785,0.026987,-0.097474,-0.004115,-0.010015,1.000000,0.000403,0.000024,0.000135,-0.097718,-0.731031,-0.137220,0.661223,-160.074388,83.497229,39.082145
52085,-9.728462,-0.507462,-0.991524,-0.091049,0.105810,-0.021665,0.074094,0.008558,0.019283,-0.097285,-0.005080,-0.009913,1.000000,0.000370,0.000043,0.000096,-0.097474,-0.731105,-0.136913,0.661240,-160.110549,83.495748,39.000598
52086,-9.736852,-0.585235,-0.974067,-0.134106,0.173420,-0.012201,0.058634,0.005287,0.010159,-0.097368,-0.005854,-0.009740,1.000000,0.000293,0.000026,0.000051,-0.097270,-0.731153,-0.136678,0.661266,-160.119834,83.495363,38.955221
52087,-9.719190,-0.515526,-1.094581,0.003902,0.147640,-0.019592,-0.000948,-0.003059,0.001632,-0.097192,-0.005156,-0.010947,1.000000,-0.000005,-0.000015,0.000008,-0.097250,-0.731140,-0.136678,0.661283,-160.095290,83.496716,38.978043
52088,-9.729186,-0.531377,-1.168842,0.068464,0.185992,-0.001147,-0.025746,-0.011313,-0.003234,-0.097291,-0.005314,-0.011693,1.000000,-0.000129,-0.000057,-0.000016,-0.097321,-0.731083,-0.136763,0.661318,-160.061194,83.502662,39.024987
52089,-9.771932,-0.328216,-1.062367,0.032251,-0.043338,0.022154,0.042558,-0.003033,0.006921,-0.097719,-0.003283,-0.010626,1.000000,0.000213,-0.000015,0.000035,-0.097159,-0.731095,-0.136600,0.661363,-160.036591,83.504998,39.022775
52090,-9.705644,-0.199776,-0.834540,-0.132868,-0.232580,-0.072865,0.014816,-0.019610,0.011225,-0.097056,-0.002003,-0.008355,1.000000,0.000074,-0.000098,0.000056,-0.097136,-0.731040,-0.136494,0.661448,-160.033319,83.518238,39.015306
52091,-9.683899,-0.237229,-0.891490,-0.088354,-0.176420,-0.086948,-0.044521,-0.011307,0.005107,-0.096838,-0.002377,-0.008920,1.000000,-0.000223,-0.000057,0.000026,-0.097292,-0.730981,-0.136622,0.661465,-160.036204,83.524739,39.035652
52092,-9.658492,-0.298487,-0.952712,-0.048237,-0.096045,-0.103327,-0.054499,-0.003138,0.006322,-0.096585,-0.002991,-0.009528,1.000000,-0.000272,-0.000016,0.000032,-0.097494,-0.730944,-0.136771,0.661445,-160.077807,83.528148,39.022988
52093,-9.658607,-0.406524,-1.064823,0.021720,0.042491,-0.087178,-0.070416,-0.003588,-0.002807,-0.096586,-0.004068,-0.010649,1.000000,-0.000352,-0.000018,-0.000014,-0.097714,-0.730892,-0.137016,0.661420,-160.071665,83.529014,39.067361
52094,-9.688085,-0.534391,-1.073287,-0.014406,0.163702,-0.052078,-0.077819,-0.012049,-0.014360,-0.096881,-0.005341,-0.010737,1.000000,-0.000389,-0.000060,-0.000072,-0.097940,-0.730799,-0.137313,0.661427,-160.013028,83.533178,39.169026
52095,-9.685633,-0.685752,-1.065440,-0.070558,0.302743,-0.049477,-0.020074,-0.002100,-0.018479,-0.096857,-0.006850,-0.010655,1.000000,-0.000100,-0.000010,-0.000092,-0.097922,-0.730766,-0.137450,0.661438,-159.906126,83.530144,39.285774
52096,-9.724844,-0.722566,-1.036548,-0.112050,0.323466,-0.012079,0.011069,-0.006883,-0.021351,-0.097249,-0.007215,-0.010369,1.000000,0.000055,-0.000034,-0.000107,-0.097797,-0.730729,-0.137482,0.661491,-159.772288,83.530108,39.411868
52097,-9.658136,-0.709365,-1.071887,-0.067189,0.325106,-0.075053,0.056417,-0.000299,-0.012249,-0.096582,-0.007085,-0.010721,1.000000,0.000282,-0.000001,-0.000061,-0.097519,-0.730743,-0.137344,0.661545,-159.653607,83.527256,39.496352
52098,-9.633383,-0.577123,-0.936106,-0.147975,0.156291,-0.119128,0.089007,0.004358,-0.011245,-0.096334,-0.005762,-0.009362,1.000000,0.000445,0.000022,-0.000056,-0.097134,-0.730788,-0.137086,0.661605,-159.542811,83.523142,39.554315
52099,-9.691600,-0.515354,-0.917679,-0.149021,0.085919,-0.065624,0.089655,0.000817,-0.005519,-0.096916,-0.005147,-0.009179,1.000000,0.000448,0.000004,-0.000028,-0.096756,-0.730826,-0.136815,0.661674,-159.438414,83.520997,39.605253
52100,-9.754215,-0.346002,-0.961128,-0.056653,-0.066113,-0.005516,0.087650,-0.004997,-0.015030,-0.097542,-0.003448,-0.009615,1.000000,0.000438,-0.000025,-0.000075,-0.096369,-0.730837,-0.136571,0.661769,-159.294077,83.521109,39.697756
52101,-9.775969,-0.314340,-1.052097,0.039623,-0.071083,0.024419,0.101613,-0.010800,-0.022499,-0.097759,-0.003127,-0.010528,1.000000,0.000508,-0.000054,-0.000112,-0.095899,-0.730830,-0.136316,0.661898,-159.081979,83.521745,39.850194
52102,-9.786845,-0.246703,-1.041199,0.052983,-0.142973,0.031297,0.130724,-0.002703,-0.036685,-0.097869,-0.002442,-0.010415,1.000000,0.000654,-0.000014,-0.000183,-0.095283,-0.730854,-0.136010,0.662023,-158.815214,83.516097,40.041073
52103,-9.734752,-0.246398,-1.025449,0.044790,-0.150128,-0.022228,0.108571,0.008518,-0.049491,-0.097349,-0.002434,-0.010252,1.000000,0.000543,0.000043,-0.000247,-0.094685,-0.730896,-0.135839,0.662098,-158.508740,83.500669,40.284496
52104,-9.690602,-0.434885,-1.103944,0.063073,0.049778,-0.050048,0.064338,0.012341,-0.063342,-0.096908,-0.004315,-0.011035,1.000000,0.000322,0.000062,-0.000317,-0.094212,-0.730919,-0.135857,0.662136,-158.184824,83.481148,40.571192
52105,-9.664206,-0.613892,-1.278370,0.173032,0.268787,-0.050220,0.035317,0.021074,-0.069497,-0.096646,-0.006103,-0.012775,1.000000,0.000177,0.000105,-0.000347,-0.093807,-0.730954,-0.136008,0.662124,-157.854471,83.454466,40.880919
52106,-9.747785,-0.840355,-1.412067,0.219591,0.511707,0.056931,0.020157,0.016256,-0.067248,-0.097482,-0.008369,-0.014114,1.000000,0.000101,0.000081,-0.000336,-0.093481,-0.730966,-0.136188,0.662119,-157.549286,83.431656,41.174268
52107,-9.786271,-0.987073,-1.343695,0.107626,0.618948,0.094696,0.064332,-0.022832,-0.063699,-0.097864,-0.009835,-0.013451,1.000000,0.000322,-0.000114,-0.000318,-0.093018,-0.730874,-0.136202,0.662284,-157.148983,83.428928,41.537685
52108,-9.725532,-0.883480,-1.164877,-0.016185,0.463470,0.011180,0.141058,-0.037947,-0.053856,-0.097255,-0.008800,-0.011673,1.000000,0.000705,-0.000190,-0.000269,-0.092331,-0.730772,-0.135908,0.662553,-156.733292,83.437256,41.872547
52109,-9.725203,-0.758681,-1.021354,-0.104245,0.295257,-0.009613,0.148085,-0.044358,-0.045998,-0.097251,-0.007557,-0.010241,1.000000,0.000740,-0.000222,-0.000230,-0.091635,-0.730658,-0.135570,0.662844,-156.321851,83.449163,42.198846
52110,-9.785102,-0.617806,-1.064963,-0.016275,0.167081,0.048138,0.129996,-0.039712,-0.040721,-0.097850,-0.006151,-0.010673,1.000000,0.000650,-0.000199,-0.000204,-0.091032,-0.730553,-0.135263,0.663106,-155.966821,83.460926,42.479015
52111,-9.769519,-0.466197,-1.097750,0.070451,0.030961,0.029059,0.113937,-0.038896,-0.038480,-0.097694,-0.004637,-0.010999,1.000000,0.000570,-0.000194,-0.000192,-0.090482,-0.730446,-0.135014,0.663350,-155.617510,83.471249,42.762452
52112,-9.723748,-0.379570,-1.167949,0.174175,-0.029132,-0.013287,0.085842,-0.044966,-0.040095,-0.097236,-0.003771,-0.011703,1.000000,0.000429,-0.000225,-0.000200,-0.090046,-0.730304,-0.134849,0.663599,-155.277455,83.485510,43.052997
52113,-9.634597,-0.260619,-1.242904,0.296702,-0.115311,-0.099971,0.062683,-0.054739,-0.045120,-0.096343,-0.002581,-0.012456,1.000000,0.000313,-0.000274,-0.000226,-0.089671,-0.730116,-0.134786,0.663869,-154.891878,83.502055,43.402483
52114,-9.615669,-0.127462,-1.128018,0.238697,-0.279228,-0.137212,0.043356,-0.052661,-0.053894,-0.096154,-0.001246,-0.011306,1.000000,0.000217,-0.000263,-0.000269,-0.089350,-0.729920,-0.134809,0.664124,-154.493766,83.516486,43.775941
52115,-9.568574,-0.118800,-0.980870,0.113027,-0.333591,-0.199687,-0.009103,-0.053086,-0.060926,-0.095683,-0.001159,-0.009834,1.000000,-0.000046,-0.000265,-0.000305,-0.089185,-0.729695,-0.135043,0.664345,-154.078787,83.527697,44.196407
52116,-9.643853,-0.239455,-0.947495,0.044023,-0.239319,-0.122498,-0.115458,-0.053706,-0.066248,-0.096437,-0.002368,-0.009499,1.000000,-0.000577,-0.000269,-0.000331,-0.089403,-0.729415,-0.135638,0.664502,-153.710134,83.538962,44.631778
52117,-9.767889,-0.527597,-1.221141,0.207848,0.104910,0.042615,-0.187729,-0.057003,-0.075989,-0.097677,-0.005250,-0.012234,0.999999,-0.000939,-0.000285,-0.000380,-0.089842,-0.729087,-0.136517,0.664623,-153.318745,83.547763,45.131500
52118,-9.860475,-0.743816,-1.244315,0.160039,0.305407,0.147818,-0.157815,-0.060848,-0.082662,-0.098604,-0.007407,-0.012467,1.000000,-0.000789,-0.000304,-0.000413,-0.090165,-0.728752,-0.137309,0.664783,-152.881106,83.557741,45.660701
52119,-9.869968,-0.888369,-1.150985,0.032388,0.406940,0.155440,-0.131092,-0.071933,-0.088719,-0.098699,-0.008847,-0.011540,1.000000,-0.000655,-0.000360,-0.000444,-0.090365,-0.728390,-0.138039,0.665002,-152.362409,83.569827,46.255861
52120,-9.759222,-0.952120,-1.146904,0.025501,0.470065,0.048485,-0.131006,-0.088802,-0.088068,-0.097591,-0.009486,-0.011506,1.000000,-0.000655,-0.000444,-0.000440,-0.090591,-0.727970,-0.138749,0.665284,-151.814657,83.591458,46.880384
52121,-9.570373,-0.940106,-1.049888,-0.038347,0.439065,-0.149155,-0.071747,-0.085295,-0.070878,-0.095703,-0.009371,-0.010536,1.000000,-0.000359,-0.000426,-0.000354,-0.090644,-0.727601,-0.139212,0.665582,-151.303404,83.613802,47.433783
52122,-9.569713,-0.940778,-0.891819,-0.178430,0.386900,-0.164979,-0.009498,-0.082468,-0.048515,-0.095696,-0.009385,-0.008957,1.000000,-0.000047,-0.000412,-0.000243,-0.090555,-0.727284,-0.139376,0.665907,-150.871453,83.641989,47.871676
52123,-9.653673,-1.055777,-0.903755,-0.201556,0.490490,-0.073918,0.016426,-0.080375,-0.038043,-0.096535,-0.010539,-0.009077,1.000000,0.000082,-0.000402,-0.000190,-0.090391,-0.726994,-0.139429,0.666234,-150.460931,83.670070,48.272828
52124,-9.687490,-1.042396,-1.062809,-0.040898,0.524159,-0.025594,0.041133,-0.071530,-0.036132,-0.096873,-0.010404,-0.010665,1.000000,0.000206,-0.000358,-0.000181,-0.090152,-0.726745,-0.139384,0.666549,-150.076288,83.695636,48.633890
52125,-9.776166,-1.007479,-1.083202,-0.007733,0.488149,0.062706,0.092742,-0.075407,-0.039043,-0.097760,-0.010051,-0.010874,1.000000,0.000464,-0.000377,-0.000195,-0.089703,-0.726505,-0.139190,0.666911,-149.622416,83.720252,49.034612
52126,-9.769916,-0.824373,-0.981494,-0.034165,0.281285,0.036876,0.121921,-0.083910,-0.042824,-0.097697,-0.008217,-0.009861,1.000000,0.000610,-0.000420,-0.000214,-0.089156,-0.726245,-0.138894,0.667329,-149.121918,83.749344,49.465623
52127,-9.793711,-0.648702,-1.049338,0.095434,0.131727,0.057076,0.128474,-0.087569,-0.044941,-0.097934,-0.006458,-0.010540,1.000000,0.000642,-0.000438,-0.000225,-0.088566,-0.725975,-0.138597,0.667762,-148.580001,83.777339,49.934271
52128,-9.795499,-0.418225,-0.941499,0.077681,-0.122967,0.035762,0.156659,-0.081264,-0.043374,-0.097952,-0.004154,-0.009458,1.000000,0.000783,-0.000406,-0.000217,-0.087889,-0.725738,-0.138189,0.668194,-148.055718,83.804105,50.369140
52129,-9.922123,-0.288588,-0.793396,-0.019323,-0.305747,0.140574,0.156391,-0.087462,-0.048634,-0.099218,-0.002856,-0.007980,1.000000,0.000782,-0.000437,-0.000243,-0.087185,-0.725478,-0.137811,0.668647,-147.473059,83.829961,50.862639
52130,-10.027957,-0.182636,-0.826657,0.049802,-0.408315,0.242532,0.103361,-0.093198,-0.069127,-0.100276,-0.001787,-0.008314,1.000000,0.000517,-0.000466,-0.000346,-0.086624,-0.725159,-0.137669,0.669095,-146.821464,83.853500,51.456233
52131,-10.034950,-0.025568,-0.949956,0.228043,-0.525209,0.250882,0.078590,-0.102231,-0.090665,-0.100345,-0.000206,-0.009551,1.000000,0.000393,-0.000511,-0.000453,-0.086073,-0.724785,-0.137696,0.669566,-146.045033,83.871976,52.189432
52132,-10.100679,0.213094,-1.028132,0.386364,-0.740427,0.308017,0.073595,-0.099677,-0.121094,-0.101000,0.002196,-0.010331,1.000000,0.000368,-0.000498,-0.000605,-0.085450,-0.724394,-0.137839,0.670039,-145.152924,83.880027,53.042034
52133,-10.164821,0.550681,-1.122269,0.592163,-1.047741,0.357754,0.053079,-0.108410,-0.154489,-0.101638,0.005588,-0.011276,1.000000,0.000265,-0.000542,-0.000772,-0.084783,-0.723944,-0.138179,0.670539,-144.089112,83.877870,54.078969
52134,-10.250502,1.062551,-1.270704,0.904377,-1.508582,0.420726,0.066534,-0.110958,-0.194291,-0.102488,0.010729,-0.012760,0.999999,0.000333,-0.000555,-0.000971,-0.083948,-0.723461,-0.138605,0.671078,-142.850008,83.862764,55.284639
52135,-10.136255,1.710404,-1.272982,1.135426,-2.130195,0.260179,0.121844,-0.150267,-0.241166,-0.101332,0.017234,-0.012795,0.999999,0.000609,-0.000751,-0.001206,-0.082774,-0.722838,-0.139007,0.671811,-141.256807,83.844276,56.814497
52136,-10.111509,2.360271,-1.056357,1.155833,-2.833461,0.165530,0.195809,-0.162167,-0.297243,-0.101071,0.023763,-0.010622,0.999998,0.000979,-0.000811,-0.001486,-0.081161,-0.722161,-0.139349,0.672665,-139.369023,83.807010,58.598231
52137,-10.496821,3.227709,-0.613154,1.002705,-3.857515,0.438719,0.247338,-0.123031,-0.371868,-0.104904,0.032480,-0.006156,0.999997,0.001237,-0.000615,-0.001859,-0.079080,-0.721587,-0.139806,0.673434,-137.330467,83.717099,60.504117
52138,-10.768094,4.053186,-0.353290,1.017357,-4.786183,0.606628,0.159936,-0.133127,-0.493262,-0.107578,0.040800,-0.003572,0.999996,0.000800,-0.000666,-0.002466,-0.076916,-0.720849,-0.140987,0.674228,-134.919025,83.576063,62.836033
52139,-10.892873,4.090261,-0.485614,1.180642,-4.846388,0.710565,-0.085771,-0.135329,-0.648292,-0.108792,0.041253,-0.004947,0.999994,-0.000429,-0.000677,-0.003241,-0.075122,-0.719900,-0.143547,0.674904,-132.238805,83.360509,65.581098
52140,-10.913486,3.168428,-0.711329,1.153116,-3.971289,0.796160,-0.275796,-0.099945,-0.779347,-0.109007,0.032099,-0.007212,0.999991,-0.001379,-0.000500,-0.003897,-0.073536,-0.718888,-0.147238,0.675362,-129.563149,83.060160,68.432548
52141,-10.799247,1.741564,-1.012381,1.041363,-2.594361,0.811144,-0.357730,-0.010013,-0.905761,-0.107912,0.017886,-0.010161,0.999988,-0.001789,-0.000050,-0.004529,-0.071768,-0.718050,-0.151674,0.675462,-127.165712,82.658124,71.053280
52142,-10.397663,0.040694,-1.741244,1.242034,-0.806380,0.625286,-0.326110,0.117562,-0.983292,-0.103983,0.000890,-0.017353,0.999986,-0.001631,0.000588,-0.004916,-0.069508,-0.717569,-0.156339,0.675146,-125.249831,82.163308,73.172343
52143,-9.534573,-1.061676,-3.342905,2.449892,0.751330,0.018037,-0.299097,0.283362,-0.940573,-0.095442,-0.010218,-0.033278,0.999987,-0.001495,0.001417,-0.004703,-0.067185,-0.717681,-0.160794,0.674215,-124.208809,81.629781,74.395034
52144,-9.312954,-1.562497,-3.426954,2.373582,1.197148,-0.125119,-0.006897,0.285900,-0.746695,-0.093236,-0.015278,-0.034136,0.999992,-0.000034,0.001429,-0.003733,-0.064443,-0.718030,-0.163585,0.673439,-123.523838,81.182834,75.089542
52145,-9.447601,-1.878268,-2.609688,1.491674,1.147732,-0.012034,0.519835,0.302706,-0.482618,-0.094560,-0.018487,-0.026002,0.999993,0.002599,0.001514,-0.002413,-0.060704,-0.718826,-0.163640,0.672924,-123.190467,80.857865,75.123658
52146,-9.711164,-1.953001,-1.961444,0.848364,0.926865,0.206756,1.113957,0.244885,-0.172182,-0.097152,-0.019337,-0.019604,0.999983,0.005570,0.001224,-0.000861,-0.055901,-0.719829,-0.160576,0.673006,-122.934277,80.698205,74.734360
52147,-9.561927,-1.501032,-0.952507,0.048340,0.205775,-0.089205,1.705317,0.071757,0.100036,-0.095615,-0.014976,-0.009619,0.999963,0.008526,0.000359,0.000500,-0.050038,-0.720612,-0.154470,0.674057,-122.369080,80.725124,74.315177
52148,-9.250091,-0.610743,-0.136919,-0.447984,-0.803702,-0.587221,2.098369,0.021472,0.328744,-0.092491,-0.006245,-0.001424,0.999944,0.010492,0.000107,0.001644,-0.043547,-0.721417,-0.146204,0.675489,-121.838614,80.877682,73.632379
52149,-8.893920,0.550554,0.114606,-0.375546,-1.886454,-1.111074,2.156769,0.087612,0.527479,-0.088953,0.005258,0.001243,0.999938,0.010784,0.000438,0.002637,-0.037479,-0.722534,-0.137006,0.676587,-121.889637,81.108698,72.327708
52150,-8.689138,1.513900,0.498538,-0.542621,-2.821974,-1.459066,2.017336,0.122336,0.732600,-0.086943,0.014769,0.005189,0.999942,0.010086,0.000612,0.003663,-0.032564,-0.723780,-0.127543,0.677359,-122.565997,81.425979,70.471784
52151,-8.496399,2.375166,0.929811,-0.822215,-3.649176,-1.768988,1.843149,0.111536,0.986435,-0.085074,0.023245,0.009561,0.999945,0.009216,0.000558,0.004932,-0.029164,-0.725056,-0.117717,0.677927,-123.999140,81.864895,67.954090
52152,-8.577611,3.332867,1.096370,-0.869546,-4.530621,-1.775206,1.517132,0.145300,1.228982,-0.085970,0.032716,0.011276,0.999952,0.007586,0.000726,0.006145,-0.027723,-0.726453,-0.108128,0.678090,-126.550879,82.391534,64.498374
52153,-9.263496,3.987751,0.967037,-0.742285,-5.115871,-1.099226,1.008741,0.192206,1.399710,-0.092901,0.039178,0.009958,0.999962,0.005044,0.000961,0.006998,-0.028709,-0.727981,-0.099614,0.677714,-130.549731,82.952944,59.882197
52154,-10.289950,4.327765,1.004174,-0.860717,-5.436831,-0.049562,0.476275,0.245549,1.432074,-0.103193,0.042515,0.010270,0.999971,0.002381,0.001228,0.007160,-0.031685,-0.729567,-0.092814,0.676840,-135.838316,83.455249,54.279265
52155,-11.000515,4.368370,1.082136,-1.041267,-5.421346,0.712890,-0.183498,0.273437,1.317936,-0.110275,0.042968,0.010932,0.999977,-0.000917,0.001367,0.006590,-0.036707,-0.731063,-0.088626,0.675533,-142.016764,83.837132,48.166910
52156,-10.451077,3.682874,0.689714,-0.769542,-4.514221,0.301294,-0.938229,0.180941,1.166852,-0.104717,0.036250,0.006821,0.999972,-0.004691,0.000905,0.005834,-0.043977,-0.731993,-0.087555,0.674230,-148.311548,84.134431,42.375689
52157,-9.179831,2.218610,0.461204,-0.728979,-2.843219,-0.824468,-1.436134,0.120474,1.114354,-0.091917,0.021707,0.004510,0.999959,-0.007181,0.000602,0.005572,-0.052965,-0.732542,-0.088290,0.672890,-155.106303,84.380300,36.372292
52158,-8.865388,0.580364,0.386333,-0.973137,-1.114239,-1.043882,-1.781619,0.197739,1.125590,-0.088681,0.005339,0.003902,0.999944,-0.008908,0.000989,0.005628,-0.063167,-0.733187,-0.090202,0.671052,-162.719013,84.507291,29.747126
52159,-9.512950,-1.324698,-0.295515,-0.827690,0.953597,-0.286790,-2.182420,0.237654,1.091318,-0.095059,-0.013796,-0.002694,0.999925,-0.010912,0.001188,0.005456,-0.074751,-0.733730,-0.093538,0.668807,-170.702726,84.521451,22.981611
52160,-10.115614,-3.547351,-1.122805,-0.709431,3.381942,0.396467,-2.318309,0.228148,1.005382,-0.100988,-0.036108,-0.010697,0.999920,-0.011591,0.001141,0.005027,-0.086485,-0.734033,-0.097674,0.666465,-178.088738,84.448316,16.893570
52161,-10.006018,-5.773211,-1.524401,-1.035968,5.730051,0.280098,-2.101343,0.201464,0.911399,-0.099810,-0.058343,-0.014533,0.999934,-0.010506,0.001007,0.004557,-0.097159,-0.734189,-0.101363,0.664269,175.361676,84.321934,11.520861
52162,-9.038096,-7.588275,-1.625011,-1.503786,7.590174,-0.755358,-1.535073,0.122372,0.797211,-0.090087,-0.076364,-0.015610,0.999962,-0.007675,0.000612,0.003986,-0.105356,-0.734221,-0.103584,0.662638,170.075084,84.195453,7.089396
52163,-7.765795,-8.221086,-1.543445,-1.751965,8.239443,-2.110929,-0.794605,0.106693,0.742751,-0.077360,-0.082559,-0.015066,0.999985,-0.003973,0.000533,0.003714,-0.110690,-0.734525,-0.103510,0.661442,165.664878,84.046999,3.111960
52164,-7.177734,-7.746588,-1.519644,-1.629857,7.827103,-2.747396,-0.133238,0.177593,0.699842,-0.071519,-0.077727,-0.015081,0.999993,-0.000666,0.000888,0.003499,-0.113382,-0.735392,-0.101471,0.660338,162.231430,83.839442,-0.266196
52165,-7.134757,-6.891876,-1.429658,-1.466523,7.027657,-2.819284,0.432283,0.189945,0.635535,-0.071142,-0.069114,-0.014378,0.999992,0.002161,0.000950,0.003178,-0.113789,-0.736576,-0.097795,0.659503,159.658335,83.618602,-3.105858
52166,-7.652892,-6.026977,-1.181115,-1.485890,6.173306,-2.331486,0.916059,0.223454,0.572838,-0.076369,-0.060434,-0.012002,0.999985,0.004580,0.001117,0.002864,-0.112173,-0.738098,-0.092783,0.658801,157.912587,83.381697,-5.393371
52167,-8.491604,-5.245615,-1.023793,-1.474219,5.431373,-1.506153,1.272065,0.231176,0.518373,-0.084792,-0.052610,-0.010474,0.999976,0.006360,0.001156,0.002592,-0.109057,-0.739790,-0.086801,0.658242,156.759787,83.146554,-7.290265
52168,-8.904937,-4.389109,-0.587812,-1.662681,4.536786,-1.120138,1.558526,0.142443,0.428706,-0.088959,-0.044035,-0.006158,0.999967,0.007793,0.000712,0.002144,-0.104618,-0.741266,-0.080154,0.658145,156.078925,82.974769,-8.877931
52169,-9.150829,-3.626292,0.001070,-2.015793,3.694721,-0.914768,1.731092,0.128266,0.357303,-0.091443,-0.036425,-0.000245,0.999961,0.008655,0.000641,0.001786,-0.099292,-0.742701,-0.073201,0.658163,155.828542,82.826560,-10.132128
52170,-9.615235,-3.021544,0.351477,-2.227598,3.075587,-0.470077,1.693704,0.109881,0.275358,-0.096109,-0.030376,0.003311,0.999963,0.008468,0.000549,0.001377,-0.093844,-0.743972,-0.066650,0.658222,155.874953,82.705863,-11.065774
52171,-10.436779,-2.995584,0.701273,-2.630669,3.025586,0.302496,1.479708,0.089073,0.119059,-0.104347,-0.030069,0.006837,0.999972,0.007398,0.000445,0.000595,-0.088662,-0.744968,-0.061388,0.658326,156.423062,82.634838,-11.370418
52172,-11.587590,-3.490039,-0.078697,-2.097373,3.709917,1.514108,1.066261,0.188591,-0.173697,-0.115907,-0.034795,-0.000863,0.999985,0.005331,0.000943,-0.000868,-0.084039,-0.745993,-0.058601,0.658026,158.070502,82.574961,-10.327431
52173,-12.810615,-1.407360,-4.235719,2.184903,2.487121,3.343047,0.549785,0.554643,-0.429950,-0.128253,-0.013682,-0.042040,0.999990,0.002749,0.002773,-0.002150,-0.080366,-0.747901,-0.058645,0.656313,161.005025,82.367287,-7.687732
52174,-13.542980,2.876754,-6.157795,4.731704,-1.428027,4.511298,0.644582,0.449897,-0.542076,-0.135489,0.029332,-0.061179,0.999989,0.003223,0.002249,-0.002710,-0.076023,-0.749464,-0.058731,0.655038,164.142231,82.215528,-4.896843
52175,-11.267459,6.192956,-2.692776,2.218338,-5.466161,1.924369,1.297064,0.150404,-0.087093,-0.112668,0.062151,-0.026440,0.999979,0.006485,0.000752,-0.000435,-0.070786,-0.750400,-0.054882,0.654887,165.435850,82.148007,-4.343976
52176,-10.764181,7.527057,1.916927,-2.060190,-7.608718,0.867243,0.889527,0.030818,0.475123,-0.107817,0.074928,0.019520,0.999987,0.004448,0.000154,0.002376,-0.068975,-0.750932,-0.050191,0.654847,164.093211,82.060602,-6.216229
52177,-9.591604,4.746259,2.341294,-2.800390,-4.925938,-0.437169,-0.943542,0.096808,0.259032,-0.095966,0.047448,0.023236,0.999988,-0.004718,0.000484,0.001295,-0.073309,-0.750971,-0.052344,0.654163,162.670518,81.967407,-7.109350
52178,-8.610287,0.858821,-1.040190,-0.036896,-0.505260,-1.112116,-1.843429,0.317531,-0.081140,-0.086116,0.008528,-0.010344,0.999956,-0.009217,0.001588,-0.000406,-0.079859,-0.751275,-0.058787,0.652497,162.317078,81.809098,-6.401707
52179,-9.506462,-0.476126,-1.103896,-0.384841,0.831222,-0.274399,-1.702042,0.326172,-0.190285,-0.095087,-0.004764,-0.010843,0.999962,-0.008510,0.001631,-0.000951,-0.085507,-0.751563,-0.065182,0.650840,162.458465,81.666696,-5.275629
52180,-9.822263,-1.617772,-0.753027,-1.051950,1.852189,-0.059557,-1.909124,0.245346,-0.433618,-0.098267,-0.016035,-0.007256,0.999951,-0.009545,0.001227,-0.002168,-0.091166,-0.751363,-0.073120,0.649458,163.268980,81.606767,-3.353028
52181,-10.183844,-4.136083,-2.343310,-0.217252,4.638572,0.421796,-1.632147,0.240986,-0.456897,-0.101961,-0.041317,-0.022973,0.999963,-0.008161,0.001205,-0.002284,-0.095694,-0.751195,-0.080246,0.648159,164.307117,81.550166,-1.360521
52182,-10.439805,-4.893022,-2.459617,-0.393710,5.377426,0.671064,-0.538809,0.156871,-0.197260,-0.104465,-0.048893,-0.024382,0.999996,-0.002694,0.000784,-0.000986,-0.096995,-0.751359,-0.082802,0.647453,164.897376,81.494703,-0.453846
52183,-10.195710,-3.105022,-1.259047,-1.085839,3.326626,0.332919,0.150524,0.202312,-0.090070,-0.101984,-0.030995,-0.012511,0.999999,0.000753,0.001012,-0.000450,-0.096016,-0.752037,-0.082762,0.646817,165.537915,81.398705,0.104105
52184,-10.263399,-1.619798,-1.729340,-0.293773,1.992456,0.526340,0.255084,0.276450,-0.044571,-0.102661,-0.016153,-0.017172,0.999998,0.001275,0.001382,-0.000223,-0.094778,-0.753030,-0.082232,0.645911,166.108462,81.252554,0.531179
52185,-10.335274,-0.729308,-2.952797,1.065979,1.416349,0.813994,0.453329,0.248004,-0.013557,-0.103390,-0.007219,-0.029416,0.999997,0.002267,0.001240,-0.000068,-0.092880,-0.754025,-0.080951,0.645187,166.663291,81.119318,0.827068
52186,-9.949789,-0.052430,-2.691630,1.026534,0.674450,0.421433,0.764101,0.124996,-0.019723,-0.099515,-0.000412,-0.026856,0.999993,0.003820,0.000625,-0.000099,-0.089865,-0.754765,-0.078613,0.645038,167.282037,81.053239,1.007996
52187,-9.421471,0.349969,-1.646839,0.194596,0.012741,-0.243957,0.941410,0.083303,-0.053221,-0.094221,0.003602,-0.016412,0.999989,0.004707,0.000417,-0.000266,-0.086061,-0.755417,-0.075830,0.645126,168.106940,81.015734,1.294222
52188,-9.157119,0.689196,-1.706107,0.364150,-0.328452,-0.485412,0.900298,0.050696,-0.115398,-0.091571,0.007021,-0.017006,0.999990,0.004501,0.000253,-0.000577,-0.082248,-0.755912,-0.073377,0.645328,169.076662,81.001462,1.751525
52189,-8.853129,0.993855,-2.414493,1.157478,-0.502801,-0.669234,0.869228,0.019108,-0.178660,-0.088525,0.010122,-0.024093,0.999990,0.004346,0.000096,-0.000893,-0.078333,-0.756248,-0.071271,0.645657,170.255192,81.011482,2.437680
52190,-8.966743,1.519650,-2.974006,1.784129,-0.943625,-0.459465,0.794157,0.088046,-0.248946,-0.089661,0.015426,-0.029640,0.999991,0.003971,0.000440,-0.001245,-0.074474,-0.756744,-0.069677,0.645707,171.657736,80.985166,3.394786
52191,-9.546375,1.924044,-3.386642,2.162732,-1.314447,0.182267,0.627741,0.132899,-0.317275,-0.095455,0.019498,-0.033742,0.999994,0.003139,0.000664,-0.001586,-0.070984,-0.757283,-0.068913,0.645549,173.243284,80.935360,4.633277
52192,-10.216683,2.138557,-3.447225,2.146906,-1.578667,0.852007,0.537795,0.097579,-0.361794,-0.102145,0.021663,-0.034364,0.999995,0.002689,0.000488,-0.001809,-0.067726,-0.757656,-0.068576,0.645498,174.886121,80.902214,5.982687
52193,-10.620840,2.296342,-2.971877,1.648122,-1.888498,1.170231,0.523558,0.005169,-0.356149,-0.106168,0.023230,-0.029655,0.999995,0.002618,0.000026,-0.001781,-0.064551,-0.757719,-0.068247,0.645784,176.486186,80.915575,7.296550
52194,-10.471706,2.532622,-2.139792,0.914342,-2.321494,0.884227,0.376363,-0.110686,-0.347358,-0.104661,0.025548,-0.021408,0.999997,0.001882,-0.000553,-0.001737,-0.062021,-0.757358,-0.068307,0.646449,177.939814,80.989573,8.547899
52195,-9.925054,2.494051,-1.635293,0.521811,-2.401759,0.255097,0.031963,-0.196416,-0.376923,-0.099187,0.025130,-0.016446,0.999998,0.000160,-0.000982,-0.001885,-0.060713,-0.756599,-0.069576,0.647326,179.334754,81.107719,9.938850
52196,-9.355897,1.923002,-1.506074,0.408861,-1.879811,-0.336508,-0.332806,-0.222889,-0.416219,-0.093502,0.019399,-0.015197,0.999996,-0.001664,-0.001114,-0.002081,-0.060682,-0.755624,-0.072154,0.648185,-179.310809,81.236307,11.500260
52197,-9.169535,0.951181,-1.418094,0.201207,-0.964926,-0.537754,-0.540590,-0.196416,-0.457857,-0.091659,0.009683,-0.014297,0.999993,-0.002703,-0.000982,-0.002289,-0.061281,-0.754651,-0.075578,0.648872,-177.871733,81.342709,13.266959
52198,-9.316070,-0.277052,-1.318672,-0.129684,0.183721,-0.402368,-0.629987,-0.147496,-0.499494,-0.093158,-0.002580,-0.013247,0.999992,-0.003150,-0.000737,-0.002497,-0.062072,-0.753780,-0.079455,0.649346,-176.309418,81.413455,15.209979
52199,-9.468197,-1.461890,-1.333523,-0.360183,1.303348,-0.234924,-0.606601,-0.113768,-0.520589,-0.094712,-0.014413,-0.013345,0.999992,-0.003033,-0.000569,-0.002603,-0.062684,-0.753006,-0.083352,0.649696,-174.630264,81.455094,17.257068
52200,-9.404006,-2.209344,-1.315887,-0.514617,1.993232,-0.283252,-0.443749,-0.097669,-0.496866,-0.094088,-0.021889,-0.013156,0.999994,-0.002219,-0.000488,-0.002484,-0.062760,-0.752334,-0.086628,0.650039,-172.947343,81.480721,19.213684
52201,-9.272012,-2.552488,-1.407034,-0.472689,2.314545,-0.384832,-0.226395,-0.087321,-0.443183,-0.092770,-0.025335,-0.014082,0.999997,-0.001132,-0.000437,-0.002216,-0.062177,-0.751782,-0.089007,0.650412,-171.328734,81.495573,20.978927
52202,-9.269734,-2.440055,-1.499236,-0.347714,2.188929,-0.367205,0.018236,-0.071424,-0.374068,-0.092737,-0.024226,-0.015028,0.999998,0.000091,-0.000357,-0.001870,-0.060903,-0.751382,-0.090326,0.650812,-169.848347,81.501623,22.462964
52203,-9.266135,-2.104486,-1.537987,-0.222809,1.837125,-0.366484,0.206461,-0.058510,-0.324206,-0.092691,-0.020879,-0.015429,0.999998,0.001032,-0.000293,-0.001621,-0.059062,-0.751103,-0.090862,0.651230,-168.440793,81.499291,23.763890
52204,-9.369507,-1.609760,-1.463084,-0.188323,1.302742,-0.284470,0.316327,-0.039269,-0.274809,-0.093714,-0.015946,-0.014675,0.999998,0.001582,-0.000196,-0.001374,-0.056977,-0.750937,-0.090847,0.651609,-167.187901,81.488711,24.845227
52205,-9.526109,-1.293352,-1.210875,-0.373154,0.905642,-0.172862,0.357726,-0.031944,-0.228416,-0.095274,-0.012803,-0.012147,0.999998,0.001789,-0.000160,-0.001142,-0.054864,-0.750826,-0.090540,0.651961,-166.075561,81.475713,25.760007
52206,-9.841148,-1.263934,-0.936231,-0.662574,0.779361,0.100727,0.391373,-0.034735,-0.185126,-0.098421,-0.012530,-0.009404,0.999998,0.001957,-0.000174,-0.000926,-0.052787,-0.750729,-0.089944,0.652326,-165.122182,81.469221,26.495066
52207,-10.128478,-1.102483,-0.863164,-0.725471,0.568238,0.370502,0.376845,-0.055801,-0.170462,-0.101292,-0.010922,-0.008681,0.999998,0.001884,-0.000279,-0.000852,-0.050800,-0.750563,-0.089351,0.652756,-164.191204,81.473591,27.215375
52208,-10.139067,-0.828948,-0.830900,-0.689528,0.275244,0.367047,0.329236,-0.072362,-0.172714,-0.101395,-0.008188,-0.008359,0.999998,0.001646,-0.000362,-0.000864,-0.049013,-0.750327,-0.088901,0.653226,-163.279842,81.486247,27.943934
52209,-9.945206,-0.527559,-0.731814,-0.687954,-0.044383,0.149527,0.259590,-0.065528,-0.188303,-0.099455,-0.005172,-0.007357,0.999999,0.001298,-0.000328,-0.000942,-0.047411,-0.750085,-0.088755,0.653641,-162.336621,81.489633,28.744517
52210,-9.786381,-0.279357,-0.580976,-0.755280,-0.323299,-0.039570,0.166054,-0.044195,-0.192189,-0.097865,-0.002695,-0.005834,0.999999,0.000830,-0.000221,-0.000961,-0.046160,-0.749889,-0.088917,0.653934,-161.478635,81.480033,29.513633
52211,-9.735351,0.003690,-0.788657,-0.484160,-0.577617,-0.074568,0.034297,-0.027268,-0.196455,-0.097352,0.000134,-0.007900,0.999999,0.000171,-0.000136,-0.000982,-0.045360,-0.749713,-0.089547,0.654106,-160.683773,81.457834,30.294787
52212,-9.750757,0.352349,-1.038553,-0.168756,-0.891965,-0.042534,-0.097654,-0.030991,-0.193512,-0.097502,0.003613,-0.010402,0.999999,-0.000488,-0.000155,-0.000968,-0.045087,-0.749497,-0.090579,0.654230,-159.994436,81.437742,31.046225
52213,-9.726319,0.634041,-1.242480,0.095176,-1.145394,-0.054305,-0.199303,-0.029981,-0.208400,-0.097255,0.006429,-0.012446,0.999999,-0.000997,-0.000150,-0.001042,-0.045126,-0.749250,-0.092016,0.654309,-159.296468,81.411928,31.864880
52214,-9.776604,0.609083,-1.403052,0.248790,-1.111513,0.017070,-0.247678,-0.043600,-0.222502,-0.097756,0.006182,-0.014059,0.999999,-0.001238,-0.000218,-0.001113,-0.045326,-0.748943,-0.093644,0.654416,-158.580994,81.389883,32.729780
52215,-9.851914,0.282758,-1.529134,0.306688,-0.792985,0.124892,-0.238330,-0.050574,-0.250669,-0.098512,0.002933,-0.015320,0.999998,-0.001192,-0.000253,-0.001253,-0.045385,-0.748597,-0.095360,0.654560,-157.739858,81.362997,33.716023
52216,-9.865407,-0.235404,-1.613315,0.291510,-0.292939,0.177989,-0.183489,-0.042562,-0.281439,-0.098654,-0.002230,-0.016152,0.999999,-0.000917,-0.000213,-0.001407,-0.045151,-0.748275,-0.096998,0.654703,-156.794903,81.323591,34.775978
52217,-9.710190,-0.706285,-1.871871,0.475711,0.204207,0.087941,-0.080646,-0.057199,-0.325247,-0.097108,-0.006912,-0.018744,0.999999,-0.000403,-0.000286,-0.001626,-0.044380,-0.747903,-0.098474,0.654961,-155.614506,81.277929,36.014264
52218,-9.475324,-1.023382,-1.945065,0.523462,0.517594,-0.113702,0.053758,-0.076125,-0.372219,-0.094765,-0.010052,-0.019489,0.999998,0.000269,-0.000381,-0.001861,-0.042977,-0.747476,-0.099667,0.655362,-154.196924,81.227335,37.415131
52219,-9.402445,-1.447441,-1.891999,0.409393,0.890445,-0.162813,0.184586,-0.059746,-0.409791,-0.094048,-0.014264,-0.018961,0.999997,0.000923,-0.000299,-0.002049,-0.040939,-0.747107,-0.100588,0.655772,-152.612629,81.152028,38.908717
52220,-9.405142,-1.664689,-2.124632,0.609135,1.105149,-0.109629,0.322519,-0.066766,-0.423050,-0.094079,-0.016414,-0.021304,0.999996,0.001613,-0.000334,-0.002115,-0.038360,-0.746733,-0.101091,0.656277,-150.935192,81.071370,40.417272
52221,-9.454942,-1.400757,-2.282167,0.832849,0.825624,-0.056111,0.484184,-0.101039,-0.433760,-0.094568,-0.013747,-0.022903,0.999995,0.002421,-0.000505,-0.002169,-0.035142,-0.746265,-0.101111,0.656986,-149.085164,80.996001,42.006701
52222,-9.645722,-0.843931,-2.179345,0.846872,0.192388,0.074033,0.622388,-0.116513,-0.437734,-0.096463,-0.008160,-0.021875,0.999993,0.003112,-0.000583,-0.002189,-0.031421,-0.745759,-0.100673,0.657816,-147.157393,80.920418,43.595402
52223,-9.903717,-0.176699,-2.025797,0.822041,-0.568728,0.248087,0.676379,-0.141466,-0.440615,-0.099026,-0.001480,-0.020333,0.999992,0.003382,-0.000707,-0.002203,-0.027482,-0.745167,-0.100077,0.658753,-145.158462,80.845395,45.224775
52224,-10.105028,0.350021,-1.954827,0.854656,-1.173314,0.382804,0.660918,-0.184320,-0.460078,-0.101024,0.003797,-0.019629,0.999991,0.003305,-0.000922,-0.002300,-0.023577,-0.744408,-0.099583,0.659836,-143.065714,80.776511,46.958890
52225,-10.130834,0.932128,-1.942404,0.971671,-1.804515,0.339890,0.617002,-0.215467,-0.485848,-0.101264,0.009627,-0.019504,0.999992,0.003085,-0.001077,-0.002429,-0.019748,-0.743518,-0.099337,0.661002,-140.880926,80.700354,48.811772
52226,-9.996136,1.595644,-1.889760,1.078490,-2.503446,0.117532,0.523937,-0.260891,-0.530138,-0.099894,0.016271,-0.018986,0.999992,0.002620,-0.001304,-0.002651,-0.016158,-0.742432,-0.099544,0.662287,-138.573252,80.618019,50.843986
52227,-9.927352,2.176047,-1.676243,1.006028,-3.155770,-0.059437,0.412652,-0.299638,-0.604873,-0.099182,0.022095,-0.016866,0.999992,0.002063,-0.001498,-0.003024,-0.012740,-0.741164,-0.100402,0.663652,-136.088532,80.507552,53.120659
52228,-10.373610,2.642613,-1.596489,0.997026,-3.747829,0.291921,0.350729,-0.323150,-0.677754,-0.103620,0.026806,-0.016086,0.999991,0.001754,-0.001616,-0.003389,-0.009334,-0.739761,-0.101722,0.665071,-133.473503,80.362161,55.566520
52229,-10.984059,3.652522,-2.419805,1.956561,-4.772584,0.828709,0.227810,-0.367908,-0.792107,-0.109650,0.036987,-0.024358,0.999990,0.001139,-0.001840,-0.003961,-0.006020,-0.738137,-0.103875,0.666580,-130.649710,80.165107,58.296844
52230,-11.064853,5.555058,-2.823419,2.714011,-6.671487,0.646050,0.135373,-0.512419,-0.953196,-0.110309,0.056096,-0.028479,0.999985,0.000677,-0.002562,-0.004766,-0.002590,-0.735920,-0.106919,0.668568,-127.303794,79.924819,61.612883
52231,-10.615888,6.842965,-2.742891,2.961168,-7.963586,-0.073222,-0.093510,-0.567870,-1.151046,-0.105684,0.069026,-0.027762,0.999979,-0.000468,-0.002839,-0.005755,0.000624,-0.733393,-0.111445,0.670608,-123.772120,79.576891,65.254191
52232,-10.442497,6.945952,-2.290625,2.645233,-8.201234,-0.417028,-0.204308,-0.598003,-1.367060,-0.103878,0.070147,-0.023289,0.999972,-0.001022,-0.002990,-0.006835,0.004145,-0.730599,-0.117136,0.672672,-120.134073,79.092905,69.072980
52233,-10.471801,6.069439,-1.968822,2.290214,-7.515460,-0.397689,-0.288663,-0.601569,-1.563105,-0.104180,0.061481,-0.020090,0.999964,-0.001443,-0.003008,-0.007815,0.007993,-0.727647,-0.123800,0.674641,-116.630685,78.470230,72.811422
52234,-11.001499,4.570733,-1.454115,1.612585,-6.384421,0.220924,-0.334011,-0.570683,-1.823949,-0.109550,0.046683,-0.014932,0.999953,-0.001670,-0.002853,-0.009120,0.012596,-0.724565,-0.131574,0.676414,-113.323070,77.659973,76.385331
52235,-11.990301,2.551183,-1.414242,1.283871,-4.833503,1.468231,-0.319653,-0.450869,-2.104139,-0.119594,0.026748,-0.014454,0.999941,-0.001598,-0.002254,-0.010520,0.018241,-0.721643,-0.140262,0.677661,-110.492190,76.641215,79.475161
52236,-13.219263,0.327111,-1.722078,1.240054,-3.174421,3.079135,-0.178020,-0.296698,-2.301625,-0.132118,0.004776,-0.017421,0.999932,-0.000890,-0.001483,-0.011508,0.025207,-0.718984,-0.149182,0.678359,-108.183590,75.452150,81.956627
52237,-14.333149,-1.472128,-2.118257,1.356911,-1.970894,4.552473,0.107762,-0.193490,-2.368344,-0.143472,-0.013011,-0.021329,0.999929,0.000539,-0.000967,-0.011841,0.033458,-0.716509,-0.157302,0.678786,-106.258226,74.193630,83.886165
52238,-14.476464,-2.446447,-2.746313,1.884627,-1.318128,4.945206,0.445173,-0.119840,-2.351032,-0.145022,-0.022699,-0.027602,0.999928,0.002226,-0.000599,-0.011755,0.042954,-0.714120,-0.164217,0.679132,-104.560155,72.912316,85.388322
52239,-13.511529,-2.423901,-2.673584,1.933633,-1.398123,3.967069,0.795438,-0.183565,-2.280392,-0.135354,-0.022590,-0.026952,0.999927,0.003977,-0.000918,-0.011402,0.053357,-0.711417,-0.169642,0.679897,-102.822723,71.673121,86.732506
52240,-11.293716,-2.291830,-2.094574,1.521565,-1.204228,1.737895,1.054743,-0.229628,-2.197631,-0.113155,-0.021564,-0.021192,0.999925,0.005274,-0.001148,-0.010988,0.064400,-0.708429,-0.173916,0.680980,-101.077290,70.467540,87.936429
52241,-8.587549,-2.572096,-1.680223,1.182810,-0.324936,-0.775174,1.207273,-0.140815,-2.045421,-0.086120,-0.024739,-0.017014,0.999929,0.006036,-0.000704,-0.010227,0.075485,-0.705752,-0.177039,0.681816,-99.600563,69.334860,88.771336
52242,-6.516522,-2.941432,-1.147412,0.680191,0.510580,-2.621827,1.380277,0.077314,-1.790076,-0.065429,-0.028749,-0.011649,0.999936,0.006901,0.000387,-0.008950,0.086540,-0.703856,-0.178604,0.682054,-98.501122,68.314069,89.099881
52243,-5.541288,-2.423810,-1.097026,0.744881,0.272273,-3.717246,1.633852,0.428102,-1.311604,-0.055593,-0.023784,-0.011047,0.999943,0.008169,0.002140,-0.006558,0.097112,-0.703419,-0.177410,0.681393,-97.905702,67.540913,88.731443
52244,-5.571638,-1.420119,-1.297480,1.078665,-0.721298,-4.062978,2.099628,0.527065,-0.703011,-0.055800,-0.013869,-0.012975,0.999935,0.010498,0.002635,-0.003515,0.107371,-0.703517,-0.172456,0.681025,-97.286848,67.100748,88.095954
52245,-5.675243,0.639467,-1.018296,0.978489,-2.722560,-4.784347,2.669327,0.546729,0.025810,-0.056781,0.006521,-0.009941,0.999907,0.013346,0.002734,0.000129,0.117107,-0.703925,-0.162926,0.681344,-96.504618,67.083301,87.284201
52246,-6.221482,3.638377,-0.254358,0.320563,-5.740799,-5.459768,2.792798,0.644618,0.783637,-0.062364,0.036169,-0.001837,0.999890,0.013963,0.003223,0.003918,0.124798,-0.705037,-0.150253,0.681742,-95.892746,67.488779,86.210431
52247,-7.208723,5.748668,0.332341,-0.370580,-8.039946,-5.302593,2.359582,0.694472,1.372183,-0.072465,0.056944,0.004249,0.999901,0.011798,0.003472,0.006861,0.128914,-0.706919,-0.136878,0.681844,-95.717929,68.237081,84.939187
52248,-8.154456,6.837972,0.500327,-0.729667,-9.318026,-4.699963,1.541316,0.698750,1.798138,-0.082135,0.067600,0.005813,0.999924,0.007706,0.003494,0.008990,0.128719,-0.709475,-0.124802,0.681543,-96.125896,69.219577,83.551383
52249,-9.074957,7.183676,0.188876,-0.587345,-9.852748,-3.765503,0.495259,0.604197,2.112751,-0.091495,0.070867,0.002341,0.999937,0.002476,0.003021,0.010564,0.123598,-0.712515,-0.115163,0.681016,-97.168647,70.390381,82.137685
52250,-9.313324,6.185158,-0.684384,0.217644,-8.863934,-2.968686,-0.510484,0.535894,2.250024,-0.093839,0.060781,-0.006749,0.999930,-0.002552,0.002679,0.011250,0.114438,-0.715892,-0.108541,0.680163,-98.861536,71.623264,80.654426
52251,-9.429971,3.848117,-1.444046,0.951791,-6.517423,-1.911431,-1.049858,0.496500,2.257709,-0.094761,0.037337,-0.014404,0.999919,-0.005249,0.002482,0.011288,0.103199,-0.719376,-0.103662,0.679045,-101.051168,72.858875,78.986759
52252,-10.036682,1.665580,-1.519347,0.945111,-4.401669,-0.563654,-1.037222,0.549271,2.215481,-0.100584,0.015464,-0.015000,0.999921,-0.005186,0.002746,0.011077,0.092243,-0.722859,-0.098918,0.677629,-103.584970,74.031167,76.961213
52253,-11.152318,0.230877,-0.695072,-0.029967,-3.089559,0.927836,-0.936317,0.592202,2.173902,-0.111559,0.001065,-0.006627,0.999926,-0.004681,0.002961,0.010869,0.081708,-0.726346,-0.093871,0.675969,-106.506255,75.157629,74.487598
52254,-12.057129,-0.816455,0.085581,-0.969092,-2.056106,2.056407,-1.097090,0.481215,2.189422,-0.120470,-0.009478,0.001195,0.999922,-0.005485,0.002406,0.010947,0.070563,-0.729384,-0.089418,0.674555,-109.687036,76.263884,71.851825
52255,-12.260072,-1.785737,0.382083,-1.384361,-0.893062,2.472406,-1.203776,0.303846,2.272444,-0.122381,-0.019225,0.004120,0.999916,-0.006019,0.001519,0.011362,0.058564,-0.731812,-0.084990,0.673645,-113.134382,77.424193,69.019975
52256,-12.082582,-2.524140,0.781420,-1.863695,0.136514,2.413163,-1.099533,0.173937,2.429692,-0.120501,-0.026663,0.008063,0.999911,-0.005498,0.000870,0.012148,0.046446,-0.733680,-0.079740,0.673200,-116.963555,78.643037,65.747725
52257,-11.374055,-2.862024,0.826355,-1.924516,0.888549,1.752018,-1.098872,0.082107,2.605387,-0.113352,-0.030052,0.008473,0.999900,-0.005494,0.000411,0.013027,0.033600,-0.735195,-0.073768,0.672992,-121.719664,79.932672,61.548148
52258,-10.591702,-2.984232,0.609334,-1.701187,1.428701,0.981699,-1.155183,0.026752,2.687230,-0.105503,-0.031226,0.006285,0.999893,-0.005776,0.000134,0.013436,0.020338,-0.736385,-0.067759,0.672854,-127.724502,81.190425,56.130097
52259,-10.454391,-2.611894,-0.034962,-1.075103,1.402398,0.816888,-1.076221,0.121892,2.672039,-0.104183,-0.027514,-0.000140,0.999896,-0.005381,0.000609,0.013360,0.007355,-0.737745,-0.061438,0.672237,-135.795528,82.297001,48.597789
52260,-10.965310,-1.894988,-0.359690,-0.798952,0.944077,1.251753,-0.994362,0.221268,2.533347,-0.109405,-0.020354,-0.003377,0.999907,-0.004972,0.001106,0.012666,-0.004740,-0.739229,-0.055416,0.671153,-145.778118,83.119231,39.106578
52261,-11.357444,-1.253499,-0.686571,-0.518901,0.581339,1.607492,-1.071308,0.264693,2.349162,-0.113425,-0.013904,-0.006643,0.999916,-0.005356,0.001323,0.011745,-0.016576,-0.740689,-0.050249,0.669761,-157.316707,83.634757,28.108447
52262,-11.440750,-0.800810,-1.340114,0.096141,0.452185,1.724564,-1.415356,0.295540,2.158844,-0.114331,-0.009336,-0.013169,0.999916,-0.007077,0.001478,0.010794,-0.028951,-0.742036,-0.047008,0.668083,-169.361991,83.828662,16.804800
52263,-11.097088,-0.561597,-2.166539,0.904589,0.572835,1.456846,-1.887799,0.260715,1.990328,-0.110934,-0.006923,-0.021460,0.999905,-0.009439,0.001304,0.009951,-0.042604,-0.743037,-0.045883,0.666315,178.854785,83.774670,6.040110
52264,-10.436338,-1.016150,-2.771340,1.444022,1.358204,0.850074,-2.257420,0.184540,1.854609,-0.104287,-0.011440,-0.027493,0.999893,-0.011287,0.000923,0.009273,-0.057102,-0.743512,-0.046542,0.664653,168.163745,83.549776,-3.417213
52265,-9.905381,-2.158732,-3.105935,1.577317,2.776203,0.297837,-2.447831,0.172387,1.728270,-0.098887,-0.022820,-0.030700,0.999887,-0.012239,0.000862,0.008641,-0.071960,-0.743709,-0.048218,0.662868,158.749512,83.168894,-11.483447
52266,-9.740328,-3.497608,-3.148124,1.291594,4.317724,0.020995,-2.433613,0.243784,1.597611,-0.097156,-0.036131,-0.030928,0.999893,-0.012168,0.001219,0.007988,-0.086218,-0.743943,-0.050420,0.660737,151.165176,82.655442,-17.723128
52267,-9.831389,-4.840708,-3.078256,0.800368,5.818242,-0.062512,-2.335614,0.301362,1.460697,-0.098001,-0.049477,-0.030061,0.999904,-0.011678,0.001507,0.007303,-0.099701,-0.744233,-0.052755,0.658326,145.140848,82.061116,-22.451941
52268,-9.717645,-6.522838,-3.002495,0.204317,7.596083,-0.418708,-2.161218,0.283030,1.313882,-0.096785,-0.066183,-0.029176,0.999919,-0.010806,0.001415,0.006569,-0.111965,-0.744370,-0.055110,0.656003,140.439569,81.477869,-25.953115
52269,-9.083474,-8.294558,-3.178395,-0.141270,9.443668,-1.315453,-1.756287,0.291642,1.244598,-0.090361,-0.083783,-0.030919,0.999941,-0.008781,0.001458,0.006223,-0.122539,-0.744649,-0.056336,0.653689,136.662349,80.874588,-28.758322
52270,-8.619541,-9.201933,-3.253097,-0.395181,10.405047,-1.994145,-1.074887,0.362086,1.230073,-0.085685,-0.092720,-0.031878,0.999965,-0.005374,0.001810,0.006150,-0.130435,-0.745491,-0.055483,0.651270,133.916295,80.232650,-30.919980
52271,-8.480614,-8.869201,-2.970905,-0.669823,10.084444,-2.245443,-0.317213,0.397516,1.152735,-0.084352,-0.089226,-0.029400,0.999980,-0.001586,0.001988,0.005764,-0.135281,-0.746891,-0.052430,0.648926,132.118754,79.589559,-32.562716
52272,-8.306142,-8.129265,-2.388213,-1.054305,9.271421,-2.484058,0.321554,0.380339,0.991567,-0.082703,-0.081665,-0.023856,0.999985,0.001608,0.001902,0.004958,-0.137176,-0.748587,-0.047934,0.646917,131.168744,79.021615,-33.719243
52273,-8.193732,-7.485570,-1.479499,-1.735962,8.459648,-2.686673,0.890315,0.385401,0.830330,-0.081655,-0.075129,-0.014971,0.999980,0.004452,0.001927,0.004152,-0.136439,-0.750638,-0.042177,0.645096,130.938439,78.514635,-34.476171
52274,-8.313315,-6.898203,-0.367748,-2.642266,7.677364,-2.677733,1.179731,0.381009,0.662648,-0.082911,-0.069234,-0.003927,0.999975,0.005899,0.001905,0.003313,-0.134045,-0.752789,-0.036138,0.643455,131.206911,78.086429,-34.894533
52275,-8.037430,-6.285769,0.146848,-2.907914,6.981156,-2.961425,1.214779,0.368636,0.521881,-0.080207,-0.063075,0.001234,0.999976,0.006074,0.001843,0.002609,-0.131072,-0.754874,-0.030492,0.641915,131.719832,77.721040,-35.084175
52276,-7.754626,-5.374873,0.496040,-2.961856,6.030478,-3.169644,1.203255,0.348476,0.374763,-0.077437,-0.053923,0.004771,0.999979,0.006016,0.001742,0.001874,-0.127657,-0.756820,-0.025437,0.640532,132.431331,77.429311,-35.063820
52277,-7.694836,-4.228660,1.360908,-3.525836,4.758476,-3.189292,1.177349,0.318533,0.232159,-0.076878,-0.042455,0.013482,0.999981,0.005887,0.001593,0.001161,-0.123881,-0.758612,-0.020983,0.639313,133.304891,77.207840,-34.862458
52278,-7.987050,-3.675494,2.569578,-4.624315,4.033117,-3.011618,0.948665,0.257152,0.049627,-0.079828,-0.036896,0.025624,0.999988,0.004743,0.001286,0.000248,-0.120393,-0.760014,-0.017915,0.638406,134.231244,77.086830,-34.472075
52279,-8.501338,-3.938312,2.192442,-4.394814,4.445784,-2.497602,0.581518,0.214037,-0.154945,-0.085020,-0.039381,0.021901,0.999995,0.002908,0.001070,-0.000775,-0.117640,-0.761031,-0.016776,0.637740,135.224630,77.065301,-33.797345
52280,-10.918984,-4.391814,0.336018,-3.133207,5.536073,0.094876,0.220871,0.252118,-0.445419,-0.109283,-0.043679,0.003450,0.999996,0.001104,0.001261,-0.002227,-0.115336,-0.761921,-0.017909,0.637066,136.593587,77.140564,-32.525050
52281,-20.896975,-1.323484,-4.259092,-0.154249,4.532860,11.067835,-0.210445,1.249073,-0.804121,-0.209281,-0.012438,-0.041271,0.999972,-0.001052,0.006245,-0.004021,-0.113424,-0.765682,-0.022370,0.632745,140.044749,76.915437,-28.862574
52282,-27.566749,4.114892,-2.575526,-2.323049,-0.667774,18.073409,0.477542,0.727158,-1.235596,-0.275497,0.042911,-0.024652,0.999971,0.002388,0.003636,-0.006178,-0.107582,-0.768090,-0.025996,0.630705,143.841188,77.025258,-25.248980
52283,-15.612439,5.587680,1.931695,-3.932431,-4.350426,5.817629,0.309597,-1.589296,-0.488817,-0.156135,0.056230,0.018163,0.999964,0.001548,-0.007946,-0.002444,-0.105014,-0.763148,-0.026052,0.637101,142.587681,77.925744,-26.717505
52284,-9.166637,1.774721,4.463234,-5.677742,-1.747986,-1.338950,-0.283536,-0.880178,-0.380257,-0.091827,0.017985,0.044203,0.999988,-0.001418,-0.004401,-0.001901,-0.104977,-0.760133,-0.027938,0.640622,141.773012,78.459131,-27.386063
52285,-6.805729,-2.303277,0.936285,-2.560868,2.649959,-3.574238,-1.624520,0.769510,-0.787729,-0.068110,-0.022686,0.009810,0.999952,-0.008122,0.003847,-0.003939,-0.108481,-0.761586,-0.036546,0.637874,143.906883,78.384513,-24.260125
52286,-7.559022,-7.673544,-2.378025,-0.623476,8.581774,-2.910459,-0.815505,0.171467,-0.632408,-0.075853,-0.076592,-0.023403,0.999986,-0.004078,0.000857,-0.003162,-0.109516,-0.761561,-0.041642,0.637414,145.166836,78.516131,-22.499482
52287,-6.709228,-4.617815,1.442928,-3.530281,4.681015,-3.977896,0.927984,-0.266147,-0.542099,-0.067236,-0.046062,0.014126,0.999985,0.004640,-0.001331,-0.002710,-0.104264,-0.761082,-0.040619,0.638931,146.570623,78.821585,-21.612690
52288,-6.514038,-0.789433,1.070523,-2.369022,0.980258,-3.678485,-0.183403,0.423324,-0.791005,-0.065148,-0.007627,0.010850,0.999990,-0.000917,0.002117,-0.003955,-0.102328,-0.762167,-0.044430,0.637696,149.069549,78.859053,-18.960760
52289,-9.188261,-0.931997,-2.425881,0.449436,1.951981,-0.476499,-0.119990,0.661135,-0.991656,-0.092007,-0.008878,-0.023949,0.999982,-0.000600,0.003306,-0.004958,-0.099425,-0.763962,-0.048950,0.635673,152.471393,78.811489,-15.425984
52290,-11.915962,0.007177,-3.699043,1.315511,1.340358,2.522008,0.549175,0.412256,-0.774391,-0.119234,0.000634,-0.036743,0.999987,0.002746,0.002061,-0.003872,-0.094744,-0.765342,-0.050361,0.634617,155.329482,78.795878,-12.835469
52291,-12.847339,0.861318,-3.643426,1.236632,0.421311,3.505078,0.592388,0.189811,-0.611757,-0.128481,0.009114,-0.036286,0.999990,0.002962,0.000949,-0.003059,-0.090435,-0.766047,-0.050934,0.634349,157.539552,78.841368,-10.931546
52292,-11.048537,-0.011071,-4.248954,1.996791,1.240570,1.788915,0.659342,-0.005428,-0.469178,-0.110484,0.000289,-0.042492,0.999992,0.003297,-0.000027,-0.002346,-0.086402,-0.766199,-0.050631,0.634753,159.190114,78.944645,-9.636715
52293,-9.433031,-0.709356,-3.784368,1.736845,1.705580,0.080776,0.914792,0.099684,-0.404305,-0.094363,-0.006730,-0.037828,0.999987,0.004574,0.000498,-0.002022,-0.081535,-0.766784,-0.049342,0.634791,160.958248,78.974269,-8.372297
52294,-8.682926,-0.799372,-2.539124,0.667460,1.476895,-0.876671,0.801345,0.119124,-0.375643,-0.086859,-0.007729,-0.025371,0.999990,0.004007,0.000596,-0.001878,-0.077220,-0.767384,-0.048281,0.634687,162.582522,78.977994,-7.187505
52295,-8.545659,-0.330567,-2.264182,0.516820,0.912247,-1.028350,0.706320,-0.013245,-0.381625,-0.085461,-0.003063,-0.022659,0.999992,0.003532,-0.000066,-0.001908,-0.073246,-0.767504,-0.047522,0.635070,164.086287,79.051827,-6.071090
52296,-8.553786,0.483111,-1.784642,0.198325,-0.018763,-1.063646,0.673450,-0.086440,-0.417906,-0.085520,0.005070,-0.017867,0.999992,0.003367,-0.000432,-0.002090,-0.069334,-0.767367,-0.046950,0.635717,165.612507,79.163397,-4.912056
52297,-9.229766,0.833948,-2.193728,0.532405,-0.338744,-0.310161,0.460400,0.036719,-0.505933,-0.092280,0.008623,-0.021901,0.999994,0.002302,0.000184,-0.002530,-0.065896,-0.767508,-0.047464,0.635875,167.410944,79.214039,-3.352879
52298,-10.120638,1.363727,-3.165659,1.389413,-0.760269,0.760842,0.424234,0.135593,-0.568363,-0.101188,0.013992,-0.031559,0.999993,0.002121,0.000678,-0.002842,-0.062407,-0.767934,-0.048335,0.635646,169.416720,79.204460,-1.560692
52299,-10.396578,1.442420,-3.356486,1.531697,-0.882446,1.064358,0.327219,0.082053,-0.615837,-0.103934,0.014799,-0.033498,0.999994,0.001636,0.000410,-0.003079,-0.059120,-0.768132,-0.049707,0.635615,171.504261,79.219419,0.370346
52300,-9.836906,1.806751,-3.092663,1.442101,-1.352451,0.467609,0.232262,-0.054407,-0.580870,-0.098308,0.018389,-0.030932,0.999995,0.001161,-0.000272,-0.002904,-0.056374,-0.767875,-0.051179,0.636058,173.362103,79.295214,2.123628
52301,-9.062316,2.026333,-2.906895,1.456312,-1.649756,-0.334352,0.025846,-0.132789,-0.564640,-0.090546,0.020523,-0.029126,0.999996,0.000129,-0.000664,-0.002823,-0.054461,-0.767303,-0.053246,0.636746,175.080156,79.405595,3.853559
52302,-8.730235,1.737861,-2.796066,1.388075,-1.421910,-0.696417,-0.191551,-0.119442,-0.542570,-0.087238,0.017589,-0.028030,0.999996,-0.000958,-0.000597,-0.002713,-0.053480,-0.766718,-0.055900,0.637306,176.616723,79.497364,5.525930
52303,-8.978095,1.498424,-2.355492,0.901556,-1.295159,-0.543954,-0.393680,-0.117037,-0.527132,-0.089727,0.015174,-0.023637,0.999994,-0.001968,-0.000585,-0.002636,-0.053293,-0.766080,-0.059161,0.637794,178.038927,79.579890,7.198464
52304,-9.239774,0.832638,-2.166292,0.588750,-0.708326,-0.330544,-0.519404,-0.125874,-0.528788,-0.092362,0.008514,-0.021743,0.999993,-0.002597,-0.000629,-0.002644,-0.053613,-0.765374,-0.062803,0.638266,179.394336,79.659731,8.876728
52305,-9.572018,0.234878,-1.730808,0.030563,-0.237058,-0.085555,-0.556389,-0.115744,-0.556152,-0.095703,0.002567,-0.017370,0.999992,-0.002782,-0.000579,-0.002781,-0.053957,-0.764668,-0.066691,0.638689,-179.141742,79.726362,10.685654
52306,-9.649665,-0.598967,-1.494981,-0.337692,0.497938,-0.048079,-0.561136,-0.084196,-0.595910,-0.096508,-0.005744,-0.014974,0.999992,-0.002806,-0.000421,-0.002980,-0.054207,-0.764038,-0.070733,0.638987,-177.560357,79.765650,12.617186
52307,-9.716595,-1.346303,-1.641758,-0.330169,1.204814,0.054393,-0.488583,-0.038072,-0.633741,-0.097205,-0.013195,-0.016404,0.999992,-0.002443,-0.000190,-0.003169,-0.054015,-0.763546,-0.074719,0.639137,-175.795270,79.767105,14.692258
52308,-9.765149,-1.975400,-1.823442,-0.271571,1.796355,0.151464,-0.276872,-0.030911,-0.667055,-0.097714,-0.019453,-0.018222,0.999993,-0.001384,-0.000155,-0.003335,-0.052931,-0.763114,-0.078137,0.639336,-173.829284,79.750997,16.849026
52309,-9.648949,-2.395974,-1.923414,-0.221023,2.170597,0.075776,0.072932,-0.067983,-0.666994,-0.096562,-0.023631,-0.019276,0.999994,0.000365,-0.000340,-0.003335,-0.050499,-0.762643,-0.080447,0.639808,-171.632571,79.741597,19.035849
52310,-9.426431,-2.317388,-2.107485,0.032409,2.074288,-0.098512,0.405736,-0.086717,-0.648178,-0.094329,-0.022825,-0.021162,0.999993,0.002029,-0.000434,-0.003241,-0.046893,-0.762197,-0.081593,0.640469,-169.322883,79.729880,21.144601
52311,-9.485493,-1.783583,-2.044595,0.092093,1.465306,-0.056665,0.798916,-0.099756,-0.631939,-0.094900,-0.017454,-0.020564,0.999987,0.003995,-0.000499,-0.003160,-0.041813,-0.761789,-0.081438,0.641325,-166.812266,79.710686,23.227793
52312,-9.645088,-0.841987,-1.669624,-0.096857,0.392021,0.003661,1.134664,-0.100202,-0.617746,-0.096468,-0.008027,-0.016791,0.999979,0.005673,-0.000501,-0.003089,-0.035530,-0.761432,-0.080124,0.642292,-164.189029,79.678259,25.231017
52313,-10.000115,0.149286,-1.343766,-0.277106,-0.738266,0.247529,1.168592,-0.124112,-0.626952,-0.099987,0.001885,-0.013489,0.999978,0.005843,-0.000621,-0.003135,-0.029064,-0.760964,-0.078755,0.643340,-161.488596,79.639439,27.292235
52314,-10.099412,0.904623,-1.150434,-0.340638,-1.594676,0.261062,1.039774,-0.163545,-0.650092,-0.100954,0.009434,-0.011539,0.999981,0.005199,-0.000818,-0.003250,-0.023060,-0.760313,-0.077853,0.644462,-158.796669,79.601529,29.421034
52315,-9.970698,1.589745,-1.138960,-0.211779,-2.337051,0.073271,0.877752,-0.168905,-0.682201,-0.099642,0.016287,-0.011403,0.999984,0.004389,-0.000845,-0.003411,-0.017541,-0.759583,-0.077616,0.645525,-156.098058,79.539981,31.650499
52316,-9.895079,1.949512,-1.080724,-0.189269,-2.768418,-0.056631,0.585190,-0.163575,-0.736782,-0.098869,0.019891,-0.010830,0.999989,0.002926,-0.000818,-0.003684,-0.012983,-0.758806,-0.078505,0.646438,-153.478356,79.445293,33.971614
52317,-9.841725,1.743374,-1.266115,-0.004870,-2.614913,-0.083168,0.223461,-0.178236,-0.811002,-0.098334,0.017847,-0.012729,0.999991,0.001117,-0.000891,-0.004055,-0.009539,-0.757908,-0.080863,0.647260,-150.875152,79.317651,36.486928
52318,-9.770703,1.437580,-1.437834,0.162575,-2.365008,-0.118345,0.021420,-0.196452,-0.885425,-0.097628,0.014810,-0.014473,0.999990,0.000107,-0.000982,-0.004427,-0.006651,-0.756902,-0.084133,0.648057,-148.251759,79.157888,39.142534
52319,-9.709077,1.119094,-1.332024,0.059069,-2.141116,-0.184385,-0.049908,-0.218047,-0.955785,-0.097021,0.011651,-0.013429,0.999988,-0.000250,-0.001090,-0.004779,-0.003794,-0.755771,-0.087915,0.648896,-145.529261,78.962246,41.941688
52320,-9.779817,0.814968,-1.283253,-0.002896,-1.946167,-0.108704,-0.051995,-0.248495,-1.011887,-0.097739,0.008641,-0.012956,0.999986,-0.000260,-0.001242,-0.005059,-0.000796,-0.754503,-0.091897,0.649830,-142.742147,78.737984,44.810511
52321,-9.775374,0.809478,-1.366250,0.120346,-2.025756,-0.119356,-0.000260,-0.286794,-1.071884,-0.097689,0.008618,-0.013803,0.999985,-0.000001,-0.001434,-0.005359,0.002591,-0.753056,-0.095947,0.650918,-139.832050,78.480875,47.776459
52322,-9.664581,1.024434,-1.407791,0.250876,-2.315850,-0.272863,0.076346,-0.294359,-1.134544,-0.096565,0.010798,-0.014216,0.999983,0.000382,-0.001472,-0.005673,0.006449,-0.751533,-0.099968,0.652045,-136.884737,78.174823,50.739048
52323,-9.636309,1.568567,-1.795194,0.757368,-2.906782,-0.351334,0.192122,-0.292800,-1.247839,-0.096236,0.016304,-0.018077,0.999979,0.000961,-0.001464,-0.006239,0.011126,-0.749922,-0.104043,0.653199,-133.813455,77.790447,53.763912
52324,-9.630019,2.280884,-2.080283,1.185340,-3.689232,-0.471916,0.348158,-0.323139,-1.376363,-0.096106,0.023507,-0.020918,0.999974,0.001741,-0.001616,-0.006882,0.016778,-0.748105,-0.108077,0.654505,-130.581826,77.330213,56.866635
52325,-9.570360,3.072001,-2.020235,1.291421,-4.591340,-0.737455,0.497536,-0.364508,-1.528306,-0.095428,0.031500,-0.020299,0.999966,0.002488,-0.001823,-0.007641,0.023471,-0.746009,-0.112193,0.655998,-127.184696,76.778558,60.057278
52326,-9.773746,3.726884,-1.703541,1.092536,-5.452597,-0.791026,0.655922,-0.397548,-1.685932,-0.097384,0.038147,-0.017105,0.999957,0.003280,-0.001988,-0.008430,0.031243,-0.743643,-0.116367,0.657630,-123.705837,76.123083,63.246778
52327,-11.382522,3.286841,-2.547226,1.743633,-5.460935,0.863758,0.654125,-0.364737,-1.886911,-0.113461,0.034024,-0.025569,0.999948,0.003271,-0.001824,-0.009434,0.039685,-0.741197,-0.121277,0.659048,-120.372827,75.316993,66.296892
52328,-14.643056,3.622571,-4.344746,3.291221,-6.616817,4.036290,0.764571,-0.315664,-2.095900,-0.145970,0.037923,-0.043535,0.999937,0.003823,-0.001578,-0.010479,0.049250,-0.738679,-0.126575,0.660232,-117.208789,74.350862,69.118789
52329,-16.406770,3.840812,-3.527645,2.428715,-7.688480,5.397528,0.855167,-0.476576,-2.402626,-0.163505,0.040526,-0.035496,0.999916,0.004276,-0.002383,-0.012013,0.060043,-0.735308,-0.132718,0.661893,-113.827225,73.226547,72.127863
52330,-17.257329,1.753324,-2.711868,1.431946,-6.396128,6.474210,0.981802,-0.626755,-2.598963,-0.172239,0.019908,-0.027565,0.999899,0.004909,-0.003134,-0.012994,0.071851,-0.731132,-0.139194,0.664009,-110.406673,71.981129,75.120290
52331,-15.689126,-0.145249,-1.770662,0.572103,-4.615262,5.275704,1.702705,-0.708375,-2.639343,-0.156827,0.000771,-0.018262,0.999870,0.008513,-0.003542,-0.013196,0.086333,-0.726235,-0.143403,0.666757,-106.861243,70.679666,77.830823
52332,-13.857317,-0.970977,-1.514729,0.519327,-3.652492,3.664617,2.086038,-0.652455,-2.651021,-0.138634,-0.007711,-0.015687,0.999852,0.010430,-0.003262,-0.013254,0.102284,-0.721143,-0.146330,0.669386,-103.574333,69.311070,80.054210
52333,-12.843428,-1.311216,-1.622952,0.784297,-3.341979,2.737633,2.179802,-0.372249,-2.663555,-0.128561,-0.011221,-0.016598,0.999850,0.010898,-0.001861,-0.013317,0.118762,-0.716726,-0.148779,0.670868,-100.965651,67.868085,81.512865
52334,-14.059279,-1.340523,-2.264400,1.429538,-4.126887,3.807096,2.011011,-0.050378,-2.630740,-0.140745,-0.011326,-0.022800,0.999863,0.010055,-0.000252,-0.013153,0.134758,-0.713299,-0.151465,0.670898,-99.118092,66.387960,82.265004
52335,-14.767175,-1.368372,-2.649245,1.813194,-4.779915,4.358037,1.790091,0.048890,-2.606615,-0.147838,-0.011520,-0.026566,0.999875,0.008950,0.000244,-0.013033,0.149892,-0.710197,-0.154673,0.670246,-97.671522,64.910160,82.725407
52336,-14.092197,-1.306713,-3.005823,2.229762,-4.951300,3.597428,1.785702,0.049007,-2.525330,-0.141077,-0.011018,-0.030128,0.999880,0.008928,0.000245,-0.012626,0.164734,-0.706975,-0.157596,0.669487,-96.336759,63.469643,83.069034
52337,-12.428368,-0.555794,-2.043136,1.375624,-5.209524,1.584974,2.141636,-0.033337,-2.355151,-0.124333,-0.003875,-0.020500,0.999873,0.010708,-0.000167,-0.011775,0.180120,-0.703162,-0.158723,0.669273,-94.818200,62.133238,83.395474
52338,-10.436591,0.851351,-0.450661,-0.133023,-5.713087,-1.026964,2.378361,-0.112207,-2.073767,-0.104267,0.009648,-0.004455,0.999875,0.011891,-0.000561,-0.010368,0.195328,-0.698901,-0.158132,0.669611,-93.180187,60.951408,83.706043
52339,-8.405772,2.943926,-0.341684,-0.261517,-6.698716,-3.939280,2.158461,0.038117,-1.653862,-0.083811,0.030167,-0.003078,0.999908,0.010792,0.000191,-0.008269,0.208391,-0.695560,-0.156591,0.669514,-91.908791,60.009658,83.744889
52340,-6.821621,6.293907,-1.382362,0.556665,-8.958836,-7.076685,1.481629,0.485188,-1.077014,-0.067908,0.063405,-0.013190,0.999955,0.007408,0.002426,-0.005385,0.217538,-0.694755,-0.154860,0.667840,-91.500083,59.383490,83.232463
52341,-5.681292,9.672062,-1.672877,0.560510,-11.327344,-9.843508,0.265332,0.763604,-0.425045,-0.056670,0.096863,-0.016384,0.999990,0.001327,0.003818,-0.002125,0.220430,-0.696696,-0.154567,0.664932,-92.072276,59.133933,82.389179
52342,-3.556547,10.099082,-1.889600,0.897674,-10.634835,-11.887486,-1.145017,0.706076,0.053407,-0.035660,0.100871,-0.019348,0.999977,-0.005725,0.003530,0.000267,0.216823,-0.700320,-0.157402,0.661638,-93.403172,59.144103,81.600458
52343,-2.117239,6.732400,-2.484527,1.930021,-7.068534,-11.325876,-2.139041,0.735618,0.443986,-0.021414,0.067006,-0.025485,0.999934,-0.010695,0.003678,0.002220,0.208373,-0.705395,-0.162052,0.657828,-95.371194,59.375317,80.736532
52344,-3.084940,2.739304,-3.343225,2.968741,-4.148495,-8.338529,-2.251409,0.816460,0.902038,-0.031108,0.026875,-0.033610,0.999918,-0.011257,0.004082,0.004510,0.198129,-0.711088,-0.165407,0.654017,-97.548774,59.835235,79.704959
52345,-5.837219,0.217672,-2.653310,2.096771,-3.189825,-4.656394,-1.918532,0.615735,1.533242,-0.058467,0.001475,-0.026370,0.999920,-0.009592,0.003079,0.007666,0.186724,-0.716236,-0.165538,0.651719,-99.491498,60.662540,78.733919
52346,-8.735240,-2.103207,-0.751622,-0.100195,-2.300076,-1.095519,-1.748272,0.210738,2.033127,-0.087140,-0.021983,-0.007235,0.999910,-0.008741,0.001054,0.010165,0.174015,-0.720163,-0.163738,0.651364,-101.084146,61.786213,78.057256
52347,-10.337251,-5.432243,-0.306760,-0.795509,0.165750,1.840398,-1.731787,-0.056780,2.400562,-0.102710,-0.055582,-0.002619,0.999890,-0.008659,-0.000284,0.012002,0.159828,-0.723393,-0.160694,0.652177,-102.562994,63.150236,77.509170
52348,-10.563070,-8.369693,-0.784726,-0.467651,3.023544,3.335428,-1.056487,-0.400627,2.796780,-0.104431,-0.085204,-0.007610,0.999886,-0.005282,-0.002003,0.013983,0.146566,-0.725086,-0.154321,0.654945,-103.443982,64.762346,77.199970
52349,-9.699293,-7.725864,-0.304905,-0.820792,3.178184,2.148541,0.157240,-0.530387,3.096431,-0.095773,-0.078745,-0.003366,0.999876,0.000786,-0.002652,0.015482,0.136505,-0.725552,-0.142880,0.659186,-103.626380,66.568929,76.901145
52350,-8.510657,-5.323956,0.301630,-1.170643,1.773511,0.002702,0.860641,-0.359071,3.195964,-0.084246,-0.054602,0.002632,0.999861,0.004303,-0.001795,0.015979,0.128838,-0.725955,-0.128671,0.663200,-103.688995,68.396031,76.297200
52351,-7.898938,-3.654504,0.455648,-1.172947,0.741839,-1.209042,1.150750,-0.092878,3.322243,-0.078370,-0.037876,0.004305,0.999845,0.005753,-0.000464,0.016610,0.121861,-0.726946,-0.112769,0.666320,-104.113769,70.266498,75.138430
52352,-8.431341,-1.961433,0.803827,-1.528828,-0.721215,-1.285363,1.225266,0.247557,3.494255,-0.083943,-0.021132,0.008016,0.999828,0.006126,0.001238,0.017470,0.114812,-0.728860,-0.095812,0.668132,-105.304316,72.166353,73.137282
52353,-9.226903,0.332715,1.060325,-1.895073,-2.812739,-1.160649,0.857288,0.343381,3.664502,-0.092290,0.001590,0.010771,0.999821,0.004286,0.001717,0.018321,0.105782,-0.731153,-0.079313,0.669279,-107.400979,74.135646,70.433375
52354,-9.902275,2.724838,0.939491,-1.927346,-4.967179,-0.983041,-0.003552,0.328763,3.728194,-0.099492,0.025397,0.009558,0.999825,-0.000018,0.001644,0.018640,0.093426,-0.733597,-0.065503,0.669937,-110.689197,76.093440,67.031362
52355,-10.733264,4.112204,0.463176,-1.589571,-6.181683,-0.243287,-1.153849,0.448183,3.659532,-0.108051,0.039176,0.004644,0.999813,-0.005769,0.002241,0.018297,0.077004,-0.736707,-0.055652,0.669504,-115.996845,77.928126,62.263263
52356,-11.073822,3.832603,0.279862,-1.418882,-5.621860,0.373755,-2.289747,0.389029,3.600346,-0.111399,0.036355,0.002591,0.999771,-0.011448,0.001945,0.018000,0.056630,-0.739717,-0.049887,0.668673,-123.427728,79.611194,56.023659
52357,-10.088205,1.916264,-1.349260,0.330541,-3.232071,0.020688,-3.286009,0.348266,3.498549,-0.101218,0.017171,-0.013610,0.999711,-0.016428,0.001741,0.017491,0.032783,-0.742473,-0.047742,0.667368,-133.613069,81.068612,47.602740
52358,-10.640533,-0.240527,-3.727446,2.539010,-0.676012,1.153052,-3.883932,0.587020,3.378565,-0.106445,-0.004922,-0.036883,0.999664,-0.019417,0.002935,0.016891,0.007243,-0.745619,-0.048042,0.664599,-147.348890,82.045895,35.965415
52359,-12.896912,-2.979382,-3.295205,1.531371,2.359240,3.533732,-3.880627,0.540209,3.175406,-0.128555,-0.032464,-0.031992,0.999682,-0.019401,0.002701,0.015875,-0.017717,-0.748080,-0.048983,0.661561,-162.840330,82.540519,22.577825
52360,-15.111845,-6.256079,-2.848547,0.217269,5.987368,5.669195,-4.027322,0.491823,2.864770,-0.150264,-0.065269,-0.026819,0.999692,-0.020135,0.002459,0.014322,-0.042108,-0.749816,-0.051612,0.658285,-177.879970,82.538269,9.735808
52361,-16.504602,-11.143476,-3.793537,-0.114291,11.426343,6.930849,-4.045126,0.067708,2.435083,-0.163679,-0.114169,-0.035589,0.999721,-0.020224,0.000339,0.012174,-0.065322,-0.749603,-0.055722,0.656295,169.204758,82.393920,-0.953548
52362,-12.431603,-15.553378,-2.281251,-2.234847,15.867199,2.223270,-3.007275,-0.826308,2.067731,-0.122608,-0.157132,-0.020967,0.999825,-0.015035,-0.004131,0.010338,-0.083576,-0.746350,-0.057554,0.657772,157.889345,82.514047,-10.631470
52363,-7.034658,-15.696332,0.099053,-4.175417,15.564304,-3.798128,-1.719434,-0.616575,2.040438,-0.068746,-0.157655,0.002130,0.999906,-0.008597,-0.003083,0.010202,-0.096914,-0.744116,-0.055274,0.658668,147.827023,82.292110,-19.789381
52364,-6.091006,-13.084310,0.317305,-3.880392,13.000593,-4.881169,-0.821400,0.313457,1.881296,-0.059670,-0.131394,0.003806,0.999946,-0.004107,0.001567,0.009406,-0.106054,-0.745226,-0.051122,0.656336,141.886329,81.525295,-25.316455
52365,-6.348861,-11.210058,-0.563920,-2.750902,11.459360,-4.577840,-0.518566,0.271299,1.460870,-0.062675,-0.112574,-0.005262,0.999969,-0.002593,0.001356,0.007304,-0.112728,-0.746184,-0.047483,0.654406,138.065580,80.866068,-28.883188
52366,-5.869184,-11.103929,-0.824615,-2.469484,11.429316,-5.154837,-0.420741,0.116391,0.921557,-0.058184,-0.111325,-0.007978,0.999987,-0.002104,0.000582,0.004608,-0.117264,-0.746533,-0.045481,0.653352,135.759697,80.458041,-30.977947
52367,-7.347061,-10.991185,-1.612161,-1.942305,11.659916,-3.676090,-0.180434,0.355904,0.484459,-0.073232,-0.110104,-0.015892,0.999995,-0.000902,0.001780,0.002422,-0.119441,-0.747688,-0.044446,0.651706,135.318279,80.117989,-31.322426
52368,-8.930449,-9.719887,-0.657860,-2.842908,10.355614,-2.109375,0.023615,0.220367,0.030018,-0.089297,-0.097211,-0.006492,0.999999,0.000118,0.001102,0.000150,-0.119381,-0.748423,-0.044382,0.650877,135.769770,80.017258,-30.880040
52369,-8.585266,-8.921112,-0.061604,-3.206976,9.392905,-2.410983,-0.290168,-0.030455,-0.388820,-0.086026,-0.089045,-0.000500,0.999997,-0.001451,-0.000152,-0.001944,-0.119194,-0.748053,-0.046753,0.651171,136.450329,80.185927,-30.022333
52370,-7.985971,-10.030997,-1.585099,-1.933993,10.738612,-2.895290,-0.555644,-0.089138,-0.641798,-0.080174,-0.100097,-0.015608,0.999991,-0.002778,-0.000446,-0.003209,-0.119182,-0.747272,-0.050903,0.651759,137.508724,80.475604,-28.627980
52371,-13.287185,-12.085751,-5.002168,-0.027450,13.900037,2.613817,-1.148228,0.676891,-0.946316,-0.133609,-0.120509,-0.048878,0.999967,-0.005741,0.003384,-0.004732,-0.120183,-0.748518,-0.058585,0.649496,140.828683,80.539901,-24.597199
52372,-25.687896,-11.846299,-13.448645,5.864310,16.420540,16.206324,-1.145049,1.877640,-1.700702,-0.259121,-0.117024,-0.131388,0.999903,-0.005725,0.009388,-0.008503,-0.118364,-0.753353,-0.069785,0.643101,148.547465,80.225815,-16.105642
52373,-22.820993,-2.727983,-7.912296,3.193117,5.534614,13.639089,1.401564,0.073809,-2.138441,-0.228509,-0.024283,-0.079216,0.999918,0.007008,0.000369,-0.010692,-0.106122,-0.753609,-0.073390,0.644535,155.979882,80.762536,-9.387376
52374,-9.751596,3.492722,-0.225405,-0.454811,-3.113401,0.058608,2.593441,-0.830058,-0.957631,-0.097338,0.035422,-0.002201,0.999896,0.012967,-0.004150,-0.004788,-0.093537,-0.751876,-0.068187,0.649064,159.563956,81.411711,-7.265883
52375,-7.523528,2.262432,4.992886,-5.432048,-3.191412,-2.960053,1.412255,-0.103447,-0.504765,-0.075204,0.022461,0.050049,0.999972,0.007061,-0.000517,-0.002524,-0.086570,-0.752005,-0.065471,0.650160,162.107382,81.564801,-5.515428
52376,-6.787378,-4.537997,4.399731,-6.220040,3.526256,-3.905483,-1.047507,0.131097,-0.742854,-0.068012,-0.044896,0.044278,0.999979,-0.005237,0.000655,-0.003714,-0.088029,-0.751715,-0.071719,0.649640,164.418613,81.616660,-2.574619
52377,-6.655183,-9.039514,-0.701286,-2.314575,8.997563,-3.473716,-0.425729,-0.174364,-0.264079,-0.066665,-0.090322,-0.006879,0.999996,-0.002129,-0.000872,-0.001320,-0.088781,-0.750854,-0.074040,0.650273,165.033634,81.755896,-1.709518
52378,-8.739684,-5.467868,1.170267,-3.608652,5.073370,-1.512837,-0.111641,-0.262986,-0.432086,-0.087530,-0.054483,0.011618,0.999997,-0.000558,-0.001315,-0.002160,-0.087872,-0.749782,-0.075902,0.651417,166.395268,81.964188,-0.271641
52379,-7.923748,-5.776360,0.204695,-2.629154,5.531290,-2.152052,-0.523193,-0.075717,-1.118348,-0.079560,-0.057314,0.002167,0.999981,-0.002616,-0.000379,-0.005592,-0.086155,-0.748855,-0.081794,0.652000,170.585339,82.137854,4.258548
52380,-9.330665,-4.633493,-0.294749,-2.060701,4.429886,-0.606930,1.177766,0.399747,-1.046463,-0.093553,-0.045828,-0.003032,0.999967,0.005889,0.001999,-0.005232,-0.078148,-0.750208,-0.082037,0.651422,175.734731,81.982781,8.774155
52381,-10.722278,-1.085676,0.123543,-1.860738,0.759580,0.776043,1.827917,0.713111,-0.687153,-0.107254,-0.010501,0.001521,0.999946,0.009139,0.003565,-0.003436,-0.068687,-0.752907,-0.078971,0.649752,179.683825,81.592518,11.702579
52382,-12.049498,1.115794,-0.255303,-1.279515,-1.426884,2.138326,1.036653,0.565997,-0.363945,-0.120481,0.011389,-0.002153,0.999981,0.005183,0.002830,-0.001820,-0.063357,-0.754939,-0.077160,0.648151,-178.353917,81.266712,13.084090
52383,-11.976517,1.810913,-1.098733,-0.374545,-1.989325,2.180041,0.396529,0.457764,-0.139404,-0.119777,0.018214,-0.010677,0.999995,0.001983,0.002289,-0.000697,-0.061163,-0.756472,-0.076581,0.646641,-177.615680,81.003998,13.597884
52384,-11.375913,2.125810,-1.613754,0.237800,-2.205240,1.659668,-0.343322,0.301316,-0.203103,-0.113762,0.021346,-0.016003,0.999997,-0.001717,0.001507,-0.001016,-0.061669,-0.757257,-0.078546,0.645438,-177.125456,80.827064,14.291309
52385,-9.752443,1.038297,-2.582821,1.207312,-0.903193,0.216559,-1.065966,-0.014552,-0.389841,-0.097502,0.010435,-0.025891,0.999984,-0.005330,-0.000073,-0.001949,-0.064386,-0.756698,-0.083489,0.645207,-176.298932,80.824662,15.743842
52386,-8.582965,-0.406253,-3.144013,1.644371,0.667352,-0.836731,-0.900982,-0.256080,-0.464515,-0.085799,-0.004005,-0.031532,0.999986,-0.004505,-0.001280,-0.002323,-0.066383,-0.755373,-0.088064,0.645949,-175.082027,80.951818,17.496885
52387,-8.273021,-0.897299,-2.439225,0.921852,1.000298,-1.248377,-0.797534,-0.217513,-0.393948,-0.082721,-0.008907,-0.024447,0.999990,-0.003988,-0.001088,-0.001970,-0.068153,-0.754208,-0.092086,0.646564,-173.990981,81.055742,19.060812
52388,-9.180033,-1.553789,-3.008081,1.184939,1.709890,-0.251935,-0.960160,0.047363,-0.361716,-0.091836,-0.015516,-0.029985,0.999987,-0.004801,0.000237,-0.001809,-0.070562,-0.753853,-0.096563,0.646067,-173.245322,81.006524,20.370408
52389,-9.717605,-2.326494,-4.247983,2.087602,2.704887,0.493386,-0.708925,0.200311,-0.360594,-0.097260,-0.023240,-0.042300,0.999992,-0.003545,0.001002,-0.001803,-0.071906,-0.754055,-0.100315,0.645110,-172.402004,80.867503,21.632291
52390,-9.708897,-2.270072,-4.244814,2.077394,2.628121,0.493218,-0.167897,0.108493,-0.335873,-0.097150,-0.022573,-0.042376,0.999998,-0.000839,0.000542,-0.001679,-0.071381,-0.754170,-0.102156,0.644745,-171.363333,80.779539,22.779637
52391,-9.244598,-1.698934,-3.490211,1.569549,1.887543,-0.091366,0.282500,-0.059000,-0.351476,-0.092465,-0.016778,-0.034953,0.999997,0.001412,-0.000295,-0.001757,-0.069144,-0.753888,-0.102584,0.645251,-169.888450,80.779792,24.106297
52392,-8.558201,-0.915731,-3.039275,1.451255,1.024874,-0.859373,0.692094,-0.088038,-0.322425,-0.085583,-0.008914,-0.030462,0.999993,0.003460,-0.000440,-0.001612,-0.065520,-0.753667,-0.101529,0.646053,-168.304571,80.795072,25.306915
52393,-8.576793,0.284752,-2.375798,1.114019,-0.340231,-0.984896,0.970843,-0.007429,-0.266024,-0.085763,0.003077,-0.023747,0.999987,0.004854,-0.000037,-0.001330,-0.060935,-0.753807,-0.099427,0.646666,-166.770486,80.765267,26.293951
52394,-9.080298,1.494082,-1.408820,0.387205,-1.807489,-0.688446,0.927695,0.046525,-0.246712,-0.090788,0.015118,-0.013997,0.999988,0.004638,0.000233,-0.001234,-0.056597,-0.754103,-0.097365,0.647028,-165.426799,80.706053,27.114605
52395,-9.275507,2.064135,-1.073707,0.154036,-2.486103,-0.579920,0.616210,0.020652,-0.284228,-0.092727,0.020806,-0.010664,0.999994,0.003081,0.000103,-0.001421,-0.053275,-0.754192,-0.096481,0.647339,-164.083213,80.650445,28.114841
52396,-9.179494,2.345729,-1.293850,0.437455,-2.743365,-0.662711,0.281803,0.033210,-0.334611,-0.091758,0.023629,-0.012890,0.999998,0.001409,0.000166,-0.001673,-0.051093,-0.754206,-0.096834,0.647445,-162.832375,80.578178,29.216762
52397,-9.265133,2.294642,-1.145190,0.271488,-2.768552,-0.610470,-0.073095,0.102441,-0.429152,-0.092608,0.023141,-0.011413,0.999997,-0.000365,0.000512,-0.002146,-0.049866,-0.754300,-0.098744,0.647143,-161.533556,80.445603,30.572625
52398,-9.662917,1.824533,-1.204029,0.173936,-2.374600,-0.195963,-0.326154,0.145349,-0.526769,-0.096589,0.018480,-0.012000,0.999995,-0.001631,0.000727,-0.002634,-0.049300,-0.754420,-0.101817,0.646571,-160.192688,80.268470,32.120019
52399,-10.120843,1.633732,-1.401845,0.264364,-2.241579,0.285375,-0.446865,0.122937,-0.625383,-0.101165,0.016622,-0.013993,0.999992,-0.002234,0.000615,-0.003127,-0.048841,-0.754373,-0.105676,0.646041,-158.613437,80.074889,33.979306
52400,-10.309219,1.835845,-1.282597,0.179812,-2.542274,0.424475,-0.463833,0.096617,-0.719520,-0.103032,0.018699,-0.012819,0.999991,-0.002319,0.000483,-0.003598,-0.048195,-0.754179,-0.109905,0.645609,-156.830548,79.867771,36.057490
52401,-10.264668,1.740602,-1.041369,-0.046840,-2.566313,0.330729,-0.678257,0.052309,-0.811264,-0.102578,0.017787,-0.010447,0.999986,-0.003391,0.000262,-0.004056,-0.048049,-0.753719,-0.115188,0.645237,-154.902124,79.648574,38.408798
52402,-10.370441,0.964751,-0.790399,-0.459282,-1.956501,0.437293,-0.775298,0.010524,-0.857014,-0.103662,0.010061,-0.007937,0.999983,-0.003876,0.000053,-0.004285,-0.048179,-0.753055,-0.120914,0.644955,-152.961949,79.427666,40.831238
52403,-10.422284,0.087887,-0.554761,-0.880945,-1.252548,0.511744,-0.602283,-0.008033,-0.897071,-0.104217,0.001330,-0.005555,0.999985,-0.003011,-0.000040,-0.004485,-0.047506,-0.752320,-0.126251,0.644840,-150.861210,79.187809,43.317120
52404,-10.131034,-0.954329,-0.374682,-1.255146,-0.342912,0.286583,-0.493122,0.014691,-0.944448,-0.101354,-0.009074,-0.003717,0.999986,-0.002466,0.000073,-0.004722,-0.046287,-0.751638,-0.131389,0.644697,-148.738982,78.908507,45.764232
52405,-9.641350,-1.501202,-0.774218,-0.930678,0.251681,-0.072133,-0.362503,0.006907,-0.998077,-0.096487,-0.014545,-0.007712,0.999986,-0.001813,0.000035,-0.004990,-0.044376,-0.750898,-0.136328,0.644669,-146.498554,78.596812,48.257163
52406,-8.989719,-0.887407,-1.076674,-0.375933,-0.259397,-0.726850,-0.067402,0.016322,-1.034190,-0.089942,-0.008413,-0.010757,0.999987,-0.000337,0.000082,-0.005171,-0.041264,-0.750215,-0.140424,0.644791,-144.174248,78.252150,50.666869
52407,-8.901800,0.200692,-1.246478,0.105039,-1.339239,-0.922770,0.153654,0.085619,-1.073272,-0.089011,0.002494,-0.012425,0.999985,0.000768,0.000428,-0.005366,-0.037117,-0.749745,-0.143989,0.644804,-141.877058,77.840670,52.921836
52408,-9.442119,0.894178,-1.583606,0.560346,-2.113290,-0.448931,0.295623,0.103551,-1.134259,-0.094377,0.009500,-0.015773,0.999983,0.001478,0.000518,-0.005671,-0.032257,-0.749298,-0.147300,0.644837,-139.579178,77.383287,55.098786
52409,-10.030078,1.324749,-1.856142,0.881360,-2.682576,0.078127,0.510229,0.078061,-1.212532,-0.100225,0.013903,-0.018487,0.999978,0.002551,0.000390,-0.006063,-0.026331,-0.748709,-0.150223,0.645115,-137.120192,76.885600,57.318115
52410,-10.252158,1.872075,-2.029395,1.185527,-3.341024,0.195308,0.703085,0.041013,-1.331285,-0.102398,0.019474,-0.020205,0.999972,0.003515,0.000205,-0.006656,-0.019354,-0.747907,-0.152935,0.645656,-134.480357,76.336753,59.615294
52411,-10.196734,2.550020,-2.120849,1.479187,-4.106493,-0.018805,0.844115,-0.020296,-1.501839,-0.101769,0.026354,-0.021109,0.999963,0.004221,-0.000101,-0.007509,-0.011321,-0.746734,-0.155831,0.646512,-131.583800,75.713149,62.098777
52412,-9.970677,3.466340,-2.050067,1.692346,-5.108715,-0.503207,1.025489,-0.103097,-1.662667,-0.099403,0.035595,-0.020371,0.999952,0.005127,-0.000515,-0.008313,-0.002178,-0.745121,-0.158706,0.647768,-128.468480,75.021219,64.708902
52413,-10.150758,4.215152,-1.411596,1.261155,-6.171196,-0.695685,1.278330,-0.183824,-1.830003,-0.101103,0.043167,-0.013935,0.999937,0.006392,-0.000919,-0.009150,0.008401,-0.743028,-0.161379,0.649458,-125.129829,74.242483,67.408871
52414,-12.814607,3.911420,-1.126667,0.668679,-6.823336,1.753232,1.444335,-0.183075,-2.060916,-0.127723,0.040512,-0.011095,0.999920,0.007221,-0.000915,-0.010304,0.020330,-0.740644,-0.164335,0.651174,-121.757364,73.314325,70.056859
52415,-19.834305,3.856002,-3.889629,2.678393,-8.508108,8.729574,1.191065,0.273332,-2.185669,-0.197957,0.040954,-0.038386,0.999922,0.005955,0.001367,-0.010928,0.032105,-0.739547,-0.168510,0.650879,-119.447455,72.155485,71.758426
52416,-26.267837,4.444129,-1.940334,0.338703,-11.805655,14.145304,1.578975,-0.049824,-2.506767,-0.262088,0.047880,-0.019100,0.999890,0.007895,-0.000249,-0.012533,0.046075,-0.736931,-0.172625,0.651929,-116.445913,70.899316,73.966655
52417,-23.958564,3.792658,-1.226188,-0.066144,-11.171413,11.752424,1.542801,-1.060672,-2.716523,-0.238972,0.041275,-0.013221,0.999864,0.007714,-0.005303,-0.013582,0.059704,-0.730663,-0.177815,0.656467,-112.214765,69.731529,77.518935
52418,-16.436422,3.095348,1.454054,-1.968221,-8.837726,4.324205,2.375041,-1.487855,-3.000105,-0.163981,0.033249,0.013705,0.999789,0.011874,-0.007439,-0.014999,0.076911,-0.722242,-0.181381,0.662988,-107.233402,68.399713,81.392435
52419,-11.766289,2.939449,2.162007,-2.256332,-7.408250,-0.232643,1.980253,-0.925106,-3.170825,-0.117279,0.031043,0.021379,0.999815,0.009901,-0.004625,-0.015853,0.093717,-0.715394,-0.186566,0.666799,-103.679114,66.791933,84.007004
52420,-11.133554,1.405897,1.943440,-2.153260,-6.011302,-0.382522,1.260302,-0.226811,-3.186551,-0.111116,0.015708,0.019404,0.999853,0.006301,-0.001134,-0.015932,0.108642,-0.710961,-0.193835,0.667203,-101.768871,65.038651,85.305801
52421,-13.499088,0.986182,-0.555969,0.216485,-6.683285,1.967819,0.762365,0.293950,-2.927025,-0.134835,0.011857,-0.005319,0.999885,0.003812,0.001470,-0.014635,0.121379,-0.708597,-0.201485,0.665253,-100.983181,63.364932,85.690800
52422,-14.447712,1.150909,-2.000981,1.646106,-7.469018,2.659462,0.723523,0.222542,-2.766109,-0.144321,0.013578,-0.019803,0.999897,0.003617,0.001113,-0.013830,0.133373,-0.706029,-0.208718,0.663454,-100.243251,61.782764,86.054834
52423,-12.192560,2.484143,-1.998327,1.886103,-7.880754,-0.161266,1.015658,0.006888,-2.500935,-0.121602,0.026464,-0.019847,0.999909,0.005078,0.000034,-0.012504,0.145232,-0.702692,-0.214116,0.662786,-99.224704,60.374713,86.551211
52424,-9.709987,5.140620,-2.164044,2.408038,-9.140490,-3.809296,1.009994,-0.043538,-2.007546,-0.096572,0.052486,-0.021398,0.999937,0.005050,-0.000218,-0.010038,0.155395,-0.699611,-0.217836,0.662529,-98.298425,59.240730,86.950766
52425,-8.180736,8.197050,-2.880844,3.429809,-11.024939,-6.796082,0.830473,-0.059095,-1.248472,-0.081285,0.082598,-0.028490,0.999972,0.004152,-0.000295,-0.006242,0.162338,-0.697387,-0.219446,0.662677,-97.599101,58.543447,87.209633
52426,-7.220502,11.752577,-2.455689,3.315557,-13.610521,-9.589915,0.330747,-0.086657,-0.329607,-0.072001,0.117685,-0.024394,0.999997,0.001654,-0.000433,-0.001648,0.164506,-0.696457,-0.219564,0.663081,-97.285636,58.361630,87.352504
52427,-5.541895,12.518679,-0.248524,1.262515,-13.521442,-11.564044,-0.756349,-0.211784,0.316688,-0.055614,0.125088,-0.003017,0.999991,-0.003782,-0.001059,0.001583,0.160544,-0.696722,-0.221083,0.663269,-97.558567,58.566030,87.539054
52428,-3.668323,9.244638,-0.422293,1.313326,-9.740988,-11.388388,-2.183477,0.096552,0.714232,-0.037015,0.092261,-0.005213,0.999934,-0.010917,0.000483,0.003571,0.150683,-0.699528,-0.225739,0.661057,-98.993028,58.962050,87.321966
52429,-4.646307,4.705397,-3.641055,4.096307,-6.031455,-7.857066,-2.833603,0.469202,1.185744,-0.046825,0.046256,-0.036960,0.999879,-0.014167,0.002346,0.005928,0.137305,-0.704474,-0.230508,0.657062,-101.261162,59.594577,86.570863
52430,-7.199626,0.693706,-6.007874,5.812009,-3.455226,-3.279251,-2.241110,-0.038309,2.017888,-0.072045,0.005536,-0.060160,0.999886,-0.011205,-0.000192,0.010089,0.122741,-0.708122,-0.230758,0.655933,-102.925970,60.728766,86.129458
52431,-8.298924,-0.943432,-3.936202,3.452058,-2.593134,-1.651285,-1.114772,-0.729612,2.675957,-0.082707,-0.010763,-0.039607,0.999888,-0.005574,-0.003648,0.013379,0.109096,-0.709432,-0.225288,0.658824,-103.460095,62.328685,86.247734
52432,-8.144243,-2.647570,-2.150710,1.410913,-1.009467,-1.155481,-0.699116,-0.974602,3.049570,-0.080920,-0.027788,-0.021807,0.999866,-0.003495,-0.004873,0.015247,0.095477,-0.709933,-0.217271,0.663078,-103.589834,64.157230,86.548565
52433,-7.828899,-4.567985,-1.821578,0.771368,1.090845,-0.664893,-0.114390,-1.099847,3.416807,-0.077392,-0.047018,-0.018616,0.999839,-0.000572,-0.005499,0.017083,0.082465,-0.709950,-0.205936,0.668402,-103.316593,66.219787,86.921016
52434,-7.645449,-4.425780,-1.549711,0.578586,1.328809,-0.962196,0.585782,-1.003386,3.806038,-0.075515,-0.045654,-0.016010,0.999802,0.002929,-0.005017,0.019029,0.070794,-0.710125,-0.190836,0.674013,-102.815369,68.473116,87.097983
52435,-8.414536,-2.350200,-1.291080,0.711368,-0.542840,-1.027301,0.773550,-0.705683,4.144818,-0.083589,-0.025187,-0.013302,0.999772,0.003867,-0.003528,0.020723,0.058819,-0.711275,-0.173644,0.678584,-102.727657,70.890118,86.717995
52436,-9.737214,-1.615089,-1.633753,1.150248,-1.214835,0.050208,0.544425,-0.454544,4.397976,-0.096949,-0.018241,-0.016606,0.999752,0.002722,-0.002273,0.021988,0.045444,-0.713206,-0.156242,0.681807,-103.390116,73.402865,85.692184
52437,-11.053032,-1.596759,-2.102913,1.556222,-1.069948,1.392362,0.382223,-0.216503,4.620619,-0.110100,-0.018474,-0.021182,0.999731,0.001911,-0.001082,0.023101,0.030810,-0.715807,-0.138393,0.683753,-105.122524,76.011176,83.668677
52438,-11.554136,-1.000692,-0.821755,0.313677,-1.428139,1.720395,0.088757,-0.129735,4.705253,-0.115258,-0.012717,-0.008298,0.999723,0.000444,-0.000649,0.023524,0.014964,-0.718400,-0.121226,0.684823,-108.180344,78.615522,80.480800
52439,-11.354200,-0.941036,-2.234449,1.639291,-0.705949,1.658399,-0.789725,0.115628,4.621953,-0.113296,-0.012119,-0.022235,0.999725,-0.003948,0.000578,0.023108,-0.003696,-0.721465,-0.107208,0.684091,-114.364019,81.073542,74.659000
52440,-11.738759,-2.277722,-3.861184,2.897761,1.338658,2.339598,-1.018338,0.156699,4.533820,-0.116858,-0.025626,-0.038394,0.999730,-0.005091,0.000783,0.022667,-0.022770,-0.724211,-0.094305,0.682720,-124.871350,83.295357,64.642305
52441,-12.155402,-1.717872,-1.630645,0.644277,0.944971,2.517319,-0.687426,0.225905,4.519049,-0.121142,-0.019975,-0.016104,0.999738,-0.003437,0.001129,0.022593,-0.040635,-0.726851,-0.080211,0.680883,-144.179661,85.083494,45.633332
52442,-12.983373,-1.226058,-0.631781,-0.461550,0.793304,3.210350,-1.620260,0.549196,4.352127,-0.129542,-0.015130,-0.005847,0.999727,-0.008101,0.002746,0.021759,-0.061087,-0.729933,-0.069995,0.677176,-175.738089,85.663583,14.906152
52443,-12.492300,-3.136353,-3.421531,1.722164,3.750591,2.857546,-2.860633,0.649549,4.036318,-0.124359,-0.034358,-0.033334,0.999689,-0.014302,0.003247,0.020179,-0.085006,-0.732446,-0.065049,0.672358,155.530500,84.867865,-12.275610
52444,-12.004573,-6.032211,-5.727846,3.071271,7.609106,2.267562,-3.164396,0.693894,3.719112,-0.119081,-0.063434,-0.055877,0.999696,-0.015820,0.003469,0.018594,-0.108823,-0.734417,-0.062336,0.667011,138.444061,83.361502,-27.629641
52445,-13.356915,-10.075881,-6.745412,2.508406,12.365078,3.078795,-2.924256,0.772434,3.293824,-0.132130,-0.103910,-0.065438,0.999750,-0.014620,0.003862,0.016468,-0.130330,-0.736247,-0.060326,0.661298,129.185744,81.682665,-35.277388
52446,-14.086316,-16.398172,-5.536346,-0.868170,18.573640,2.523878,-2.237214,0.126582,2.760772,-0.138610,-0.166510,-0.053422,0.999842,-0.011185,0.000633,0.013803,-0.147614,-0.735921,-0.057627,0.658262,122.419706,80.357263,-40.831325
52447,-10.933506,-21.393480,-1.443101,-6.065202,22.020266,-2.223635,-0.988339,-0.496908,2.464119,-0.106653,-0.215329,-0.013636,0.999909,-0.004942,-0.002484,0.012320,-0.159522,-0.734205,-0.051385,0.657918,116.586892,79.261179,-46.183498
52448,-5.545349,-21.020519,0.603990,-7.193472,20.457206,-8.166485,0.769450,-0.139775,2.372439,-0.052959,-0.210864,0.005192,0.999922,0.003847,-0.000699,0.011862,-0.164505,-0.734908,-0.040023,0.656694,113.780950,78.066069,-49.496962
52449,-5.926624,-15.217711,2.175886,-6.927283,14.720718,-7.217061,1.910197,0.526225,1.775973,-0.057856,-0.152895,0.020454,0.999912,0.009551,0.002631,0.008880,-0.163200,-0.738501,-0.027624,0.653619,114.244728,77.011211,-50.144995
52450,-7.535637,-11.635132,2.466838,-6.332763,11.680286,-5.153321,1.661175,0.516674,1.057973,-0.074676,-0.116948,0.023892,0.999948,0.008306,0.002583,0.005290,-0.160424,-0.741651,-0.018702,0.651052,115.260622,76.338188,-50.081389
52451,-8.808204,-10.129818,2.714902,-6.292080,10.526649,-3.716273,1.348490,0.371559,0.365179,-0.087847,-0.101639,0.026628,0.999974,0.006742,0.001858,0.001826,-0.156559,-0.743957,-0.013242,0.649494,116.442078,76.057211,-49.662680
52452,-9.596594,-8.500511,3.564828,-6.795914,8.966290,-2.707608,1.061267,0.299858,-0.263122,-0.096025,-0.085067,0.035341,0.999984,0.005306,0.001499,-0.001316,-0.151714,-0.745730,-0.011002,0.648652,117.946051,76.114203,-48.741959
52453,-9.092863,-6.476512,4.247223,-6.901747,6.775226,-2.803699,0.564516,0.152958,-0.898110,-0.091186,-0.064476,0.042360,0.999986,0.002823,0.000765,-0.004491,-0.146660,-0.746589,-0.012635,0.648795,119.604579,76.525480,-47.370201
52454,-7.424869,-5.140140,4.234999,-6.333468,5.139089,-4.071601,-0.327177,-0.045110,-1.480775,-0.074636,-0.050780,0.042417,0.999971,-0.001636,-0.000226,-0.007404,-0.143056,-0.746086,-0.019184,0.650018,121.166596,77.271954,-45.576278
52455,-5.737455,-5.284675,0.620433,-2.645823,5.763906,-5.229471,-1.255628,0.061577,-1.833493,-0.057854,-0.052277,0.006551,0.999938,-0.006278,0.000308,-0.009167,-0.141733,-0.745155,-0.030155,0.650958,123.153291,78.146834,-42.808957
52456,-11.592600,2.247808,-17.248152,15.223117,3.927992,3.962330,-2.637176,1.829921,-1.333240,-0.117356,0.020990,-0.171695,0.999849,-0.013185,0.009149,-0.006666,-0.146901,-0.748926,-0.044991,0.644597,127.831521,78.161517,-36.487517
52457,-42.070156,11.022111,-16.083395,10.661016,-1.433689,35.288851,-0.297490,3.183092,-1.946521,-0.422094,0.114092,-0.154291,0.999825,-0.001487,0.015915,-0.009732,-0.140960,-0.758395,-0.055578,0.633939,137.513588,77.747189,-26.417150
52458,-32.837097,12.704307,14.489966,-16.521829,-12.630466,22.078137,4.318795,-3.215632,0.720650,-0.331120,0.122762,0.142272,0.999631,0.021591,-0.016076,0.003603,-0.127690,-0.751164,-0.036866,0.646598,132.308545,78.759235,-34.262622
52459,-6.847360,9.497856,9.863932,-8.114665,-10.945671,-2.836511,-5.153477,-2.947810,-0.840601,-0.069486,0.097751,0.095125,0.999551,-0.025764,-0.014737,-0.004202,-0.144781,-0.737846,-0.054787,0.656978,123.799777,80.184372,-39.915266
52460,0.620927,-9.921713,-12.537999,8.775234,13.358857,-10.434589,-8.127087,2.058640,-3.815429,0.002989,-0.104279,-0.121252,0.998940,-0.040621,0.010290,-0.019070,-0.161487,-0.736895,-0.096970,0.649234,133.085359,81.171845,-25.790509
52461,-5.867984,-27.974457,-8.731691,-3.200874,29.455919,-5.915400,-3.676945,1.664446,-2.296377,-0.062594,-0.280577,-0.081653,0.999730,-0.018383,0.008321,-0.011481,-0.166698,-0.738011,-0.118687,0.643013,141.512996,81.367117,-15.135611
52462,-4.109285,-24.026417,-3.384230,-6.834886,23.520906,-7.435711,0.470276,0.024010,-1.270992,-0.042622,-0.239916,-0.034402,0.999977,0.002351,0.000120,-0.006355,-0.160839,-0.737705,-0.121876,0.644258,145.804908,81.789241,-11.071596
52463,-0.689696,-18.318668,-3.201366,-4.169356,18.132916,-10.138415,1.205082,-0.119343,-0.757289,-0.007570,-0.182962,-0.033121,0.999975,0.006025,-0.000597,-0.003786,-0.153958,-0.737804,-0.120722,0.646040,148.863364,82.085526,-8.683211
52464,-5.798972,-10.826922,-0.666528,-4.081500,10.414835,-4.698539,3.791491,0.591068,-0.669836,-0.058375,-0.107924,-0.008541,0.999810,0.018956,0.002955,-0.003349,-0.137403,-0.742084,-0.111371,0.646551,154.601157,81.970304,-5.085255
52465,-8.894838,-3.754445,0.009759,-2.488537,3.618856,-1.214758,4.239288,0.836705,-0.489311,-0.089041,-0.037323,-0.000323,0.999764,0.021195,0.004183,-0.002446,-0.119511,-0.747244,-0.100079,0.646010,160.177996,81.640006,-1.908633
52466,-12.770410,2.129613,-0.147711,-1.150084,-1.965330,2.932988,3.758746,0.816189,-0.272234,-0.127678,0.021486,-0.000553,0.999814,0.018793,0.004081,-0.001361,-0.104138,-0.751846,-0.089419,0.644892,164.274579,81.243481,0.053966
52467,-15.583430,4.859338,-0.233861,-0.943062,-4.654269,5.806393,2.634506,0.558618,-0.073867,-0.155821,0.048672,-0.001263,0.999909,0.013172,0.002793,-0.000369,-0.093653,-0.754905,-0.081533,0.643972,166.626772,80.948444,0.903136
52468,-16.046131,6.144059,-2.801572,1.569167,-5.313121,6.691330,1.228123,0.564574,0.356957,-0.160648,0.061323,-0.027186,0.999976,0.006141,0.002823,0.001785,-0.089914,-0.757420,-0.076488,0.642168,166.575149,80.587526,0.135706
52469,-13.191359,4.177066,-0.458598,-0.750359,-3.944869,3.436653,0.175093,-0.122473,0.228405,-0.131958,0.041624,-0.004630,0.999999,0.000875,-0.000612,0.001142,-0.089954,-0.757178,-0.075048,0.642618,165.864111,80.628650,-0.690372
52470,-8.878662,0.973893,-0.566809,-0.663442,-0.796035,-0.923004,-0.435277,-0.290074,-0.066814,-0.088775,0.009756,-0.005818,0.999997,-0.002176,-0.001450,-0.000334,-0.091475,-0.756018,-0.076563,0.643589,165.598531,80.800324,-0.709007
52471,-7.102372,-0.844800,-1.754117,0.347495,1.240528,-2.561853,-0.034987,0.118223,-0.233577,-0.071044,-0.008368,-0.017498,0.999999,-0.000175,0.000591,-0.001168,-0.090737,-0.756278,-0.077653,0.643258,166.535577,80.771037,0.257055
52472,-7.895449,1.014400,-1.996097,0.875527,-0.528041,-1.669832,0.099570,0.284581,-0.169839,-0.078974,0.010221,-0.019844,0.999999,0.000498,0.001423,-0.000849,-0.089683,-0.757167,-0.078098,0.642305,167.403933,80.635267,1.076924
52473,-8.756731,3.150694,-2.142094,1.369933,-2.597339,-0.725729,-0.583182,0.191666,-0.467024,-0.087514,0.031649,-0.021429,0.999993,-0.002916,0.000958,-0.002335,-0.090242,-0.757319,-0.081864,0.641578,168.845763,80.586613,2.873410
52474,-8.789189,2.824281,-4.018986,3.099086,-1.851276,-0.413379,-1.182007,0.208982,-0.827205,-0.087817,0.028368,-0.040265,0.999973,-0.005910,0.001045,-0.004136,-0.091956,-0.757093,-0.088874,0.640668,171.112089,80.552264,5.855054
52475,-9.259954,2.050805,-4.967871,3.746922,-0.893081,0.177069,-1.117526,0.253732,-0.833123,-0.092577,0.020616,-0.049676,0.999975,-0.005588,0.001269,-0.004166,-0.093332,-0.756991,-0.095758,0.639597,173.473089,80.474750,8.894367
52476,-9.788230,1.645463,-4.442685,3.061901,-0.673714,0.600059,-0.976497,0.128576,-0.637291,-0.097858,0.016550,-0.044445,0.999983,-0.004882,0.000643,-0.003186,-0.094907,-0.756624,-0.101346,0.638938,175.126707,80.438732,11.136292
52477,-9.382258,0.612167,-3.878833,2.320408,0.171339,0.088484,-0.952566,-0.056701,-0.369491,-0.093800,0.006110,-0.038844,0.999987,-0.004763,-0.000284,-0.001847,-0.097289,-0.755786,-0.105792,0.638851,175.874030,80.489055,12.443906
52478,-8.899216,-0.134742,-3.308051,1.651728,0.750418,-0.492491,-0.761068,-0.029820,-0.183724,-0.088988,-0.001392,-0.033089,0.999992,-0.003805,-0.000149,-0.000919,-0.099573,-0.755213,-0.108896,0.638655,176.066884,80.514491,13.079325
52479,-9.262742,-0.260677,-2.692443,0.969141,0.680497,-0.235983,-0.516773,0.136024,-0.140013,-0.092648,-0.002611,-0.026855,0.999996,-0.002584,0.000680,-0.000700,-0.100935,-0.755305,-0.111176,0.637939,176.330436,80.442781,13.643144
52480,-9.294464,-0.508886,-2.357588,0.563254,0.807667,-0.261005,-0.381756,0.131697,-0.231574,-0.092966,-0.005026,-0.023505,0.999997,-0.001909,0.000658,-0.001158,-0.101544,-0.755398,-0.113328,0.637354,176.930346,80.376235,14.471151
52481,-8.761238,-1.010514,-1.839861,0.006881,1.128545,-0.874468,-0.192647,0.091773,-0.387459,-0.087640,-0.009953,-0.018349,0.999998,-0.000963,0.000459,-0.001937,-0.100916,-0.755366,-0.115485,0.637104,178.189369,80.333470,15.856509
52482,-8.891046,-1.257136,-1.487019,-0.418914,1.211468,-0.801640,0.193022,0.143169,-0.496517,-0.088952,-0.012336,-0.014819,0.999996,0.000965,0.000716,-0.002483,-0.098503,-0.755626,-0.116812,0.636932,179.979583,80.256925,17.558273
52483,-9.540015,-0.878573,-1.598324,-0.298070,0.793102,-0.136934,0.606311,0.153559,-0.566126,-0.095437,-0.008467,-0.015936,0.999991,0.003032,0.000768,-0.002831,-0.094249,-0.756071,-0.117128,0.636989,-177.752205,80.162455,19.503759
52484,-10.027291,-0.145094,-1.792632,0.035053,0.050208,0.374406,0.837920,0.125940,-0.634458,-0.100288,-0.001058,-0.017868,0.999986,0.004190,0.000630,-0.003172,-0.088965,-0.756480,-0.116910,0.637303,-175.206202,80.068943,21.598548
52485,-10.283947,0.950766,-1.793803,0.322688,-1.099770,0.606859,0.990800,0.107950,-0.677955,-0.102816,0.009945,-0.017834,0.999982,0.004954,0.000540,-0.003390,-0.082923,-0.756848,-0.116396,0.637774,-172.432160,79.964807,23.835090
52486,-10.242081,2.169644,-1.444393,0.346307,-2.451555,0.461703,0.948718,0.064003,-0.719279,-0.102346,0.022133,-0.014307,0.999982,0.004744,0.000320,-0.003596,-0.076981,-0.757009,-0.116112,0.638380,-169.622626,79.865025,26.134356
52487,-10.139158,3.098535,-0.992140,0.189906,-3.544880,0.226479,0.638967,0.055261,-0.754711,-0.101276,0.031399,-0.009794,0.999988,0.003195,0.000276,-0.003774,-0.072053,-0.756977,-0.116980,0.638835,-166.891631,79.744622,28.533536
52488,-10.068804,3.357666,-0.779641,0.075042,-3.925915,0.078900,0.299613,0.062060,-0.788857,-0.100557,0.033985,-0.007714,0.999991,0.001498,0.000310,-0.003944,-0.068342,-0.756810,-0.119025,0.639063,-164.356389,79.598539,30.933785
52489,-9.785530,3.116550,-0.686038,-0.018277,-3.772291,-0.236206,0.059325,0.030645,-0.844189,-0.097724,0.031580,-0.006836,0.999991,0.000297,0.000153,-0.004221,-0.065340,-0.756411,-0.122067,0.639275,-161.807596,79.439279,33.487761
52490,-9.599445,2.799528,-0.454996,-0.270156,-3.587804,-0.472039,-0.109079,0.036110,-0.918224,-0.095865,0.028433,-0.004548,0.999989,-0.000545,0.000181,-0.004591,-0.062775,-0.755917,-0.125893,0.639374,-159.261268,79.244897,36.140118
52491,-9.734184,2.618346,-0.201378,-0.550374,-3.580745,-0.403909,-0.259937,0.047088,-1.015217,-0.097208,0.026674,-0.002025,0.999986,-0.001300,0.000235,-0.005076,-0.060425,-0.755328,-0.130598,0.639353,-156.621917,78.999515,38.976064
52492,-9.986891,2.209431,-0.044796,-0.813385,-3.357598,-0.185362,-0.460154,0.073600,-1.141737,-0.099741,0.022663,-0.000463,0.999981,-0.002301,0.000368,-0.005709,-0.058444,-0.754659,-0.136395,0.639117,-153.952040,78.687981,41.963811
52493,-10.439510,1.561913,-0.154225,-0.918606,-2.885755,0.300362,-0.564133,0.108402,-1.294374,-0.104292,0.016290,-0.001531,0.999975,-0.002821,0.000542,-0.006472,-0.056309,-0.753929,-0.143130,0.638697,-151.153614,78.288945,45.146298
52494,-10.582212,0.842413,-0.701190,-0.588841,-2.208567,0.577604,-0.505874,0.095971,-1.446039,-0.105761,0.009171,-0.006984,0.999971,-0.002529,0.000480,-0.007230,-0.053508,-0.753030,-0.150214,0.638371,-148.184678,77.823124,48.474874
52495,-10.241164,0.167278,-1.249553,-0.179733,-1.510050,0.393009,-0.407729,0.038470,-1.561449,-0.102397,0.002447,-0.012480,0.999967,-0.002039,0.000192,-0.007807,-0.049980,-0.751835,-0.157418,0.638330,-145.058378,77.310209,51.912280
52496,-9.623306,0.104897,-1.682859,0.338908,-1.370507,-0.145426,-0.197134,0.013722,-1.622272,-0.096222,0.001813,-0.016824,0.999967,-0.000986,0.000069,-0.008111,-0.045511,-0.750522,-0.164138,0.638517,-141.938451,76.750829,55.227441
52497,-9.184772,0.476535,-2.235689,1.078288,-1.629816,-0.551781,0.086194,-0.001101,-1.675088,-0.091803,0.005544,-0.022355,0.999965,0.000431,-0.000006,-0.008375,-0.039793,-0.749125,-0.170159,0.638964,-138.799433,76.136504,58.402447
52498,-8.889487,0.998220,-2.591512,1.660764,-2.108386,-0.894746,0.395565,-0.035251,-1.724654,-0.088800,0.010799,-0.025910,0.999961,0.001978,-0.000176,-0.008623,-0.032811,-0.747588,-0.175336,0.639760,-135.642223,75.479893,61.422898
52499,-8.891769,1.910745,-2.381952,1.789243,-3.178682,-1.147820,0.837981,-0.033006,-1.812164,-0.088735,0.020012,-0.023752,0.999950,0.004190,-0.000165,-0.009061,-0.023866,-0.745982,-0.179428,0.640895,-132.379643,74.743383,64.298890
52500,-10.189560,2.959368,-1.848475,1.490570,-4.793740,-0.284023,1.418692,-0.048015,-1.959732,-0.101594,0.030720,-0.018294,0.999927,0.007093,-0.000240,-0.009798,-0.012317,-0.744179,-0.182168,0.642543,-128.879058,73.908646,67.087997
52501,-15.067223,3.020096,-4.162466,3.219244,-5.803202,4.658448,1.527048,0.285382,-2.196314,-0.150385,0.032169,-0.041169,0.999910,0.007635,0.001427,-0.010981,0.000720,-0.743110,-0.185444,0.642960,-125.870169,72.806692,69.312224
52502,-23.312849,3.833853,-4.407379,2.840976,-9.279224,12.173668,1.965687,0.401657,-2.389759,-0.232732,0.041549,-0.043208,0.999878,0.009828,0.002008,-0.011948,0.016097,-0.742081,-0.187975,0.643212,-122.922051,71.546312,71.223430
52503,-24.687437,4.218576,-3.506808,2.024581,-10.868103,12.931668,1.718524,-0.170125,-2.636200,-0.246257,0.045735,-0.034895,0.999876,0.008592,-0.000851,-0.013180,0.030817,-0.738817,-0.192221,0.645175,-119.426786,70.302538,73.877072
52504,-18.276996,1.483902,-2.137851,0.839541,-7.101891,7.206427,1.951596,-0.756302,-2.928179,-0.182442,0.017724,-0.021905,0.999838,0.009757,-0.003781,-0.014640,0.046758,-0.733135,-0.196823,0.649298,-115.187899,69.009506,77.202622
52505,-10.994426,0.021306,-0.692982,-0.131301,-3.883317,0.495102,2.418658,-0.479596,-2.991562,-0.109907,0.001943,-0.007177,0.999812,0.012093,-0.002398,-0.014957,0.064871,-0.727923,-0.200005,0.652624,-111.459832,67.543714,79.721258
52506,-8.273483,-0.856672,-0.557138,-0.168229,-2.354288,-1.817782,2.155031,0.112694,-2.894546,-0.082850,-0.007308,-0.005608,0.999837,0.010775,0.000563,-0.014472,0.082279,-0.724570,-0.203433,0.653333,-109.024990,65.964556,81.024764
52507,-9.518598,-1.434012,-1.373782,0.481130,-2.468614,-0.420394,1.931661,0.628743,-2.631542,-0.095405,-0.012954,-0.013568,0.999862,0.009658,0.003144,-0.013157,0.098514,-0.723044,-0.206360,0.651858,-107.627747,64.420139,81.342348
52508,-12.526789,-1.153637,-2.410984,1.337653,-4.178055,2.220931,1.901797,0.972034,-2.356007,-0.125506,-0.009833,-0.023599,0.999874,0.009509,0.004860,-0.011780,0.114077,-0.722743,-0.208169,0.649072,-106.801371,62.965115,81.046154
52509,-13.429579,-0.745937,-2.232488,1.104593,-5.293540,2.702981,2.195110,0.950902,-2.113478,-0.134467,-0.005798,-0.021756,0.999873,0.010975,0.004754,-0.010567,0.129851,-0.722278,-0.208102,0.646643,-105.886791,61.650447,80.656370
52510,-12.222548,1.664829,-2.713012,1.905292,-7.096159,0.460040,2.414721,0.859562,-1.740706,-0.122187,0.018034,-0.026393,0.999880,0.012073,0.004298,-0.008703,0.145097,-0.721582,-0.205993,0.644852,-104.879843,60.557368,80.223683
52511,-10.480915,4.221364,-2.004884,1.509739,-8.717593,-2.504555,2.520231,0.455374,-1.139481,-0.104610,0.043056,-0.019271,0.999902,0.012601,0.002277,-0.005697,0.158319,-0.719973,-0.201611,0.644925,-103.594554,59.861995,80.038827
52512,-8.742685,6.646479,-0.647932,0.361094,-10.092387,-5.449205,2.851202,0.077061,-0.294466,-0.087331,0.066676,-0.005496,0.999897,0.014256,0.000385,-0.001472,0.169612,-0.717583,-0.193391,0.647230,-101.966609,59.686811,80.029707
52513,-7.338797,9.252189,0.474253,-0.685903,-11.670022,-8.074351,2.328052,-0.020545,0.482888,-0.073612,0.092281,0.005810,0.999929,0.011640,-0.000103,0.002414,0.176361,-0.715957,-0.184102,0.649930,-100.704826,59.963512,79.944662
52514,-6.088182,9.809167,1.888934,-2.145105,-11.495368,-9.486923,1.316689,-0.001068,0.959726,-0.061351,0.097671,0.019533,0.999967,0.006583,-0.000005,0.004799,0.177967,-0.715642,-0.176379,0.651978,-100.118978,60.503515,79.747937
52515,-4.580605,8.090121,0.928846,-1.179121,-9.268269,-9.765171,0.237869,0.117009,1.346653,-0.046344,0.080579,0.009411,0.999976,0.001189,0.000585,0.006733,0.174505,-0.716983,-0.170639,0.652967,-100.345917,61.256002,79.330724
52516,-4.539356,5.751877,-1.558511,1.246239,-7.240651,-8.350825,-0.425127,0.217740,1.800804,-0.045926,0.057074,-0.015657,0.999957,-0.002126,0.001089,0.009004,0.167299,-0.719560,-0.165370,0.653374,-101.171827,62.245450,78.667188
52517,-5.542237,3.933996,-3.179140,2.733658,-6.065019,-6.342840,-0.509923,0.171597,2.281539,-0.055893,0.038623,-0.031843,0.999931,-0.002550,0.000858,0.011407,0.158110,-0.722386,-0.158628,0.654215,-102.167896,63.512229,77.875219
52518,-6.820992,2.511178,-3.050941,2.454848,-5.223503,-4.443760,-0.299541,-0.076574,2.723091,-0.068531,0.024134,-0.030572,0.999906,-0.001498,-0.000383,0.013615,0.148065,-0.724454,-0.149814,0.656353,-102.950351,65.043787,77.194830
52519,-7.625255,1.450531,-1.852395,1.168785,-4.390789,-3.252965,-0.188997,-0.220259,3.069312,-0.076443,0.013316,-0.018621,0.999881,-0.000945,-0.001101,0.015346,0.137088,-0.726089,-0.139412,0.659216,-103.692271,66.791361,76.500016
52520,-8.694807,0.668679,-1.165016,0.381487,-3.833101,-1.903298,-0.358584,-0.231570,3.370334,-0.087030,0.005200,-0.011761,0.999856,-0.001793,-0.001158,0.016851,0.124516,-0.727807,-0.128493,0.662029,-104.737168,68.695075,75.590761
52521,-9.993898,0.067421,-0.883576,-0.014685,-3.416023,-0.379631,-0.602917,-0.237900,3.617418,-0.099918,-0.001160,-0.008953,0.999831,-0.003014,-0.001189,0.018086,0.110133,-0.729600,-0.117398,0.664659,-106.228225,70.736705,74.368861
52522,-11.226002,-0.355445,-0.937858,-0.066109,-3.025325,1.043480,-0.900124,-0.241349,3.783701,-0.112154,-0.005720,-0.009491,0.999810,-0.004500,-0.001207,0.018917,0.094133,-0.731368,-0.106693,0.666976,-108.292432,72.847415,72.736796
52523,-11.998469,-1.032892,-1.894258,0.804589,-2.130645,2.162719,-1.318461,-0.225837,3.954959,-0.119726,-0.012823,-0.018999,0.999782,-0.006592,-0.001129,0.019773,0.075938,-0.733189,-0.096653,0.668824,-111.298553,75.031833,70.394454
52524,-12.334468,-1.960529,-2.243948,1.079058,-0.784613,2.805266,-1.423866,-0.245625,4.156038,-0.122872,-0.022322,-0.022438,0.999758,-0.007119,-0.001228,0.020779,0.056704,-0.734731,-0.086245,0.670460,-115.413614,77.274027,66.995012
