// General information: 
//  MT Manager version: 2022.0.0 
//  XDA version: 2022.0.0 build 7085 rev 119802 built on 2022-11-08
// Device information: 
//  DeviceId: 00B472EC
//  ProductCode: MTW2-3A7G6
//  Firmware Version: 4.4.0
//  Hardware Version: 2.0.0
// Device settings: 
//  Filter Profile: human(46.1)
//  Option Flags: Orientation Smoother Disabled, Position/Velocity Smoother Disabled, Continuous Zero Rotation Update Disabled, AHS Disabled, ICC Disabled
// Coordinate system: ENU
PacketCounter,Acc_X,Acc_Y,Acc_Z,FreeAcc_E,FreeAcc_N,FreeAcc_U,Gyr_X,Gyr_Y,Gyr_Z,VelInc_X,VelInc_Y,VelInc_Z,OriInc_q0,OriInc_q1,OriInc_q2,OriInc_q3,Quat_q0,Quat_q1,Quat_q2,Quat_q3,Roll,Pitch,Yaw
08329,-9.511437,1.947453,0.124400,-0.017816,0.012567,-0.103156,0.006263,0.012580,-0.010813,-0.095113,0.019480,0.001251,1.000000,0.000031,0.000063,-0.000054,0.709947,0.083852,0.696865,0.057654,85.785009,78.465623,83.651292
08330,-9.534986,1.952147,0.118920,-0.023243,0.012640,-0.079225,0.003158,0.008079,-0.008776,-0.095349,0.019526,0.001193,1.000000,0.000016,0.000040,-0.000044,0.709941,0.083866,0.696869,0.057650,85.790020,78.464870,83.654799
08331,-9.512438,1.959167,0.142859,0.001667,0.022803,-0.099568,0.006597,0.008448,-0.006797,-0.095124,0.019595,0.001433,1.000000,0.000033,0.000042,-0.000034,0.709931,0.083899,0.696876,0.057643,85.799841,78.462917,83.661386
08332,-9.513208,1.971964,0.162424,0.021811,0.034020,-0.095975,0.001383,0.007766,-0.005499,-0.095131,0.019722,0.001628,1.000000,0.000007,0.000039,-0.000027,0.709926,0.083919,0.696878,0.057656,85.803629,78.460277,83.664684
08333,-9.529579,1.996622,0.144495,0.004616,0.055182,-0.075275,-0.003140,0.010967,-0.006951,-0.095295,0.019970,0.001450,1.000000,-0.000016,0.000055,-0.000035,0.709912,0.083917,0.696890,0.057684,85.814329,78.458400,83.677757
08334,-9.521990,2.002146,0.110646,-0.028731,0.063172,-0.082101,-0.014208,0.009297,-0.008345,-0.095219,0.020026,0.001109,1.000000,-0.000071,0.000046,-0.000042,0.709909,0.083871,0.696894,0.057742,85.812883,78.457451,83.684829
08335,-9.535754,1.948623,0.115116,-0.026729,0.007711,-0.079229,-0.015538,0.005109,-0.009585,-0.095357,0.019491,0.001152,1.000000,-0.000078,0.000026,-0.000048,0.709922,0.083818,0.696882,0.057801,85.798539,78.456748,83.679539
08336,-9.513953,1.993323,0.056587,-0.083646,0.057974,-0.092529,-0.016954,0.005905,-0.008132,-0.095139,0.019937,0.000567,1.000000,-0.000085,0.000030,-0.000041,0.709932,0.083764,0.696872,0.057868,85.786074,78.455535,83.676970
08337,-9.527678,1.939926,0.061123,-0.081633,0.002508,-0.089672,-0.016984,0.007565,-0.007235,-0.095276,0.019403,0.000613,1.000000,-0.000085,0.000038,-0.000036,0.709936,0.083713,0.696868,0.057943,85.778636,78.453571,83.679707
08338,-9.522015,1.985617,0.089164,-0.052424,0.047035,-0.085692,-0.009990,0.001660,-0.006867,-0.095219,0.019859,0.000891,1.000000,-0.000050,0.000008,-0.000034,0.709958,0.083689,0.696845,0.057988,85.758554,78.451456,83.665291
08339,-9.484586,2.018672,0.068212,-0.071961,0.087299,-0.116077,-0.011074,0.005229,-0.006339,-0.094845,0.020190,0.000683,1.000000,-0.000055,0.000026,-0.000032,0.709968,0.083663,0.696834,0.058043,85.748153,78.449017,83.661456
08340,-9.514533,1.990576,0.055794,-0.086470,0.054036,-0.092531,-0.004775,0.002344,-0.008164,-0.095145,0.019910,0.000559,1.000000,-0.000024,0.000012,-0.000041,0.709985,0.083653,0.696815,0.058066,85.732711,78.447670,83.648726
08341,-9.485554,2.030584,0.088284,-0.052477,0.097506,-0.112454,0.000080,0.001918,-0.007637,-0.094855,0.020309,0.000884,1.000000,0.000000,0.000010,-0.000038,0.710000,0.083662,0.696798,0.058078,85.720431,78.445772,83.636693
08342,-9.533093,2.054302,0.099604,-0.041814,0.110734,-0.060973,0.004268,0.002850,-0.010201,-0.095330,0.020548,0.000998,1.000000,0.000021,0.000014,-0.000051,0.710013,0.083677,0.696784,0.058063,85.711163,78.445609,83.624977
08343,-9.517708,2.041500,0.136713,-0.005097,0.099799,-0.078049,0.005295,0.002603,-0.008933,-0.095176,0.020419,0.001369,1.000000,0.000026,0.000013,-0.000045,0.710024,0.083699,0.696772,0.058049,85.703541,78.444748,83.614469
08344,-9.518595,2.053850,0.156643,0.015045,0.111007,-0.074416,0.003571,0.005867,-0.012395,-0.095185,0.020544,0.001570,1.000000,0.000018,0.000029,-0.000062,0.710027,0.083702,0.696770,0.058030,85.701845,78.445968,83.610890
08345,-9.517547,2.025843,0.115351,-0.027338,0.085637,-0.081656,-0.001227,0.002968,-0.014720,-0.095174,0.020265,0.001155,1.000000,-0.000006,0.000015,-0.000074,0.710041,0.083682,0.696758,0.058021,85.689710,78.448080,83.599719
08346,-9.516524,1.997664,0.074160,-0.069744,0.060326,-0.088908,0.003987,0.003653,-0.016016,-0.095164,0.019984,0.000744,1.000000,0.000020,0.000018,-0.000080,0.710053,0.083676,0.696750,0.057987,85.681298,78.451273,83.589041
08347,-9.531030,1.956851,0.098980,-0.046846,0.017050,-0.082471,0.011284,0.002185,-0.015674,-0.095309,0.019576,0.000992,1.000000,0.000056,0.000011,-0.000078,0.710065,0.083696,0.696740,0.057930,85.674357,78.454046,83.575843
08348,-9.515734,1.943593,0.135891,-0.010173,0.006124,-0.099548,0.020964,0.002998,-0.013721,-0.095156,0.019442,0.001362,1.000000,0.000105,0.000015,-0.000069,0.710071,0.083758,0.696733,0.057844,85.674316,78.455900,83.563782
08349,-9.515342,1.928882,0.114724,-0.031692,-0.007044,-0.103186,0.028619,0.002638,-0.015204,-0.095152,0.019296,0.001151,1.000000,0.000143,0.000013,-0.000076,0.710074,0.083842,0.696730,0.057729,85.678536,78.458414,83.551766
08350,-9.547434,1.940175,0.162690,0.016324,-0.003818,-0.068768,0.031327,0.007686,-0.014522,-0.095473,0.019408,0.001634,1.000000,0.000157,0.000038,-0.000073,0.710060,0.083936,0.696743,0.057606,85.697380,78.460928,83.552919
08351,-9.530727,1.900488,0.158024,0.011334,-0.039125,-0.093124,0.035432,0.006701,-0.009450,-0.095306,0.019009,0.001587,1.000000,0.000177,0.000034,-0.000047,0.710045,0.084063,0.696753,0.057490,85.717979,78.460268,83.553678
08352,-9.531609,1.912995,0.177169,0.031473,-0.027919,-0.089481,0.033016,0.006077,-0.010166,-0.095315,0.019135,0.001778,1.000000,0.000165,0.000030,-0.000051,0.710034,0.084179,0.696759,0.057376,85.734209,78.460223,83.551174
08353,-9.525401,1.945183,0.183973,0.039861,0.004367,-0.089044,0.025062,0.002000,-0.008654,-0.095253,0.019456,0.001843,1.000000,0.000125,0.000010,-0.000043,0.710039,0.084274,0.696749,0.057297,85.735828,78.458796,83.538675
08354,-9.534805,1.989036,0.153662,0.010832,0.046666,-0.071533,0.020625,0.000206,-0.012802,-0.095347,0.019896,0.001539,1.000000,0.000103,0.000001,-0.000064,0.710055,0.084338,0.696732,0.057214,85.727978,78.460008,83.518841
08355,-9.505323,2.015328,0.165119,0.024009,0.078001,-0.095006,0.006301,0.009235,-0.012623,-0.095052,0.020159,0.001656,1.000000,0.000032,0.000046,-0.000063,0.710043,0.084349,0.696745,0.057189,85.738994,78.461329,83.526922
08356,-9.482218,2.008659,0.168807,0.028065,0.076064,-0.118922,-0.004092,0.006205,-0.010924,-0.094821,0.020092,0.001691,1.000000,-0.000020,0.000031,-0.000055,0.710047,0.084331,0.696742,0.057202,85.734163,78.461723,83.524624
08357,-9.475348,2.027358,0.155706,0.015618,0.096191,-0.122117,-0.018014,0.007787,-0.008516,-0.094753,0.020278,0.001559,1.000000,-0.000090,0.000039,-0.000043,0.710050,0.084271,0.696740,0.057276,85.727602,78.460508,83.528967
08358,-9.505957,2.012458,0.163657,0.021922,0.075056,-0.094978,-0.028081,0.007524,-0.007748,-0.095059,0.020128,0.001637,1.000000,-0.000140,0.000038,-0.000039,0.710059,0.084179,0.696733,0.057385,85.713380,78.459144,83.531112
08359,-9.498342,2.017965,0.130272,-0.011381,0.083006,-0.101836,-0.031614,0.012131,-0.007040,-0.094983,0.020183,0.001305,1.000000,-0.000158,0.000061,-0.000035,0.710052,0.084075,0.696742,0.057514,85.711280,78.457212,83.548022
08360,-9.528959,2.003002,0.138191,-0.005083,0.061863,-0.074704,-0.038822,0.008603,-0.010080,-0.095289,0.020035,0.001382,1.000000,-0.000194,0.000043,-0.000050,0.710063,0.083935,0.696737,0.057652,85.693436,78.457227,83.552752
08361,-9.498065,2.002580,0.109409,-0.033598,0.068876,-0.105491,-0.033256,0.010393,-0.013203,-0.094979,0.020032,0.001096,1.000000,-0.000166,0.000052,-0.000066,0.710064,0.083804,0.696742,0.057763,85.684550,78.458906,83.563604
08362,-9.505360,1.981885,0.121669,-0.022529,0.046768,-0.102288,-0.034038,0.011495,-0.007761,-0.095053,0.019823,0.001219,1.000000,-0.000170,0.000057,-0.000039,0.710062,0.083689,0.696747,0.057893,85.678028,78.457721,83.577091
08363,-9.512621,1.961355,0.133730,-0.011457,0.024594,-0.099088,-0.027442,0.013044,-0.009613,-0.095125,0.019618,0.001341,1.000000,-0.000137,0.000065,-0.000048,0.710052,0.083591,0.696761,0.057998,85.679515,78.457281,83.595072
08364,-9.496526,1.959632,0.046550,-0.098253,0.029430,-0.116512,-0.018728,0.010786,-0.010720,-0.094964,0.019601,0.000469,1.000000,-0.000094,0.000054,-0.000054,0.710047,0.083520,0.696769,0.058065,85.679156,78.457756,83.605897
08365,-9.481905,1.960097,0.103855,-0.040687,0.030653,-0.129883,-0.006540,0.007247,-0.010740,-0.094818,0.019606,0.001041,1.000000,-0.000033,0.000036,-0.000054,0.710047,0.083493,0.696769,0.058090,85.676749,78.457844,83.607785
08366,-9.505492,1.964565,0.098568,-0.046173,0.030642,-0.105960,0.008712,0.009872,-0.011895,-0.095054,0.019651,0.000991,1.000000,0.000044,0.000049,-0.000059,0.710034,0.083516,0.696783,0.058057,85.689307,78.458951,83.615747
08367,-9.492323,2.016174,0.092549,-0.049563,0.084089,-0.108657,0.019809,0.009900,-0.011387,-0.094922,0.020167,0.000932,1.000000,0.000099,0.000050,-0.000057,0.710015,0.083580,0.696800,0.057989,85.709149,78.459502,83.624828
08368,-9.522972,2.001035,0.099580,-0.043279,0.062923,-0.081540,0.020541,0.005223,-0.010090,-0.095229,0.020015,0.001000,1.000000,0.000103,0.000026,-0.000050,0.710013,0.083653,0.696800,0.057918,85.715860,78.459378,83.619904
08369,-9.553585,1.986042,0.106884,-0.037015,0.041703,-0.054426,0.020183,0.004113,-0.008266,-0.095535,0.019864,0.001073,1.000000,0.000101,0.000021,-0.000041,0.710014,0.083732,0.696794,0.057857,85.719345,78.457868,83.611969
08370,-9.516291,2.018951,0.085333,-0.056484,0.082092,-0.084722,0.020571,0.003558,-0.010990,-0.095162,0.020195,0.000857,1.000000,0.000103,0.000018,-0.000055,0.710018,0.083801,0.696788,0.057783,85.721224,78.458186,83.602097
08371,-9.523606,1.998126,0.097311,-0.045412,0.059917,-0.081531,0.014720,0.002555,-0.013691,-0.095235,0.019988,0.000976,1.000000,0.000074,0.000013,-0.000068,0.710027,0.083842,0.696778,0.057722,85.716770,78.459651,83.589375
08372,-9.500521,1.991332,0.101191,-0.041328,0.058017,-0.105450,0.009831,0.004633,-0.013326,-0.095004,0.019920,0.001015,1.000000,0.000049,0.000023,-0.000067,0.710033,0.083865,0.696774,0.057677,85.715013,78.461350,83.582072
08373,-9.500801,1.990030,0.100504,-0.042030,0.057021,-0.105447,0.003915,0.006954,-0.014231,-0.095007,0.019907,0.001009,1.000000,0.000020,0.000035,-0.000071,0.710032,0.083865,0.696777,0.057652,85.716419,78.463469,83.581507
08374,-9.500311,1.975445,0.079438,-0.063581,0.043900,-0.109150,0.007029,0.004564,-0.011319,-0.095002,0.019760,0.000797,1.000000,0.000035,0.000023,-0.000057,0.710038,0.083885,0.696771,0.057624,85.713282,78.464018,83.574434
08375,-9.484978,1.962628,0.116273,-0.026806,0.032953,-0.126180,0.004551,0.007265,-0.010239,-0.094849,0.019631,0.001167,1.000000,0.000023,0.000036,-0.000051,0.710032,0.083899,0.696776,0.057615,85.718766,78.463737,83.578055
08376,-9.532671,1.986002,0.127142,-0.016266,0.046002,-0.074628,0.000789,0.004115,-0.011296,-0.095326,0.019865,0.001273,1.000000,0.000004,0.000021,-0.000056,0.710042,0.083897,0.696766,0.057608,85.710802,78.464254,83.569705
08377,-9.508752,1.966182,0.110966,-0.032970,0.031942,-0.102258,-0.002336,0.001278,-0.008360,-0.095087,0.019666,0.001110,1.000000,-0.000012,0.000006,-0.000042,0.710060,0.083894,0.696746,0.057623,85.695167,78.462922,83.555513
08378,-9.479274,1.992882,0.123010,-0.019803,0.063367,-0.125638,-0.002013,0.004046,-0.009288,-0.094792,0.019933,0.001232,1.000000,-0.000010,0.000020,-0.000046,0.710071,0.083890,0.696735,0.057634,85.685830,78.462288,83.547399
08379,-9.502834,1.997450,0.118295,-0.025320,0.063302,-0.101714,0.000465,0.001345,-0.010368,-0.095027,0.019979,0.001184,1.000000,0.000002,0.000007,-0.000052,0.710091,0.083892,0.696715,0.057631,85.669965,78.462008,83.531185
08380,-9.518669,1.983874,0.184045,0.039198,0.044345,-0.087916,0.003198,0.004737,-0.010582,-0.095186,0.019844,0.001843,1.000000,0.000016,0.000024,-0.000053,0.710098,0.083901,0.696708,0.057619,85.665272,78.462143,83.524764
08381,-9.541458,1.975137,0.158488,0.012885,0.032079,-0.067714,0.004158,0.007818,-0.007517,-0.095414,0.019755,0.001589,1.000000,0.000021,0.000039,-0.000038,0.710090,0.083923,0.696713,0.057621,85.671928,78.460336,83.529748
08382,-9.518290,1.968760,0.162241,0.016984,0.030201,-0.091629,0.004581,0.005600,-0.011138,-0.095182,0.019693,0.001626,1.000000,0.000023,0.000028,-0.000056,0.710094,0.083935,0.696709,0.057602,85.670328,78.460826,83.525675
08383,-9.517758,1.954301,0.140943,-0.004542,0.017045,-0.095354,0.006252,0.010895,-0.011725,-0.095176,0.019549,0.001415,1.000000,0.000031,0.000054,-0.000059,0.710077,0.083949,0.696727,0.057581,85.685211,78.461678,83.537607
08384,-9.534300,1.978432,0.122964,-0.021831,0.038142,-0.074605,0.008052,0.004319,-0.010050,-0.095342,0.019789,0.001232,1.000000,0.000040,0.000022,-0.000050,0.710083,0.083977,0.696719,0.057553,85.682244,78.461491,83.530109
08385,-9.527465,1.997144,0.109571,-0.034296,0.058275,-0.077771,0.010784,0.007710,-0.010264,-0.095274,0.019976,0.001100,1.000000,0.000054,0.000039,-0.000051,0.710075,0.084015,0.696726,0.057520,85.690834,78.461248,83.532999
08386,-9.504317,1.990669,0.113352,-0.030190,0.056408,-0.101685,0.005641,0.003694,-0.010766,-0.095042,0.019912,0.001136,1.000000,0.000028,0.000018,-0.000054,0.710084,0.084032,0.696716,0.057499,85.684585,78.461443,83.523561
08387,-9.529478,2.021836,0.149074,0.006007,0.080625,-0.070282,-0.001338,0.007913,-0.012047,-0.095294,0.020224,0.001494,1.000000,-0.000007,0.000040,-0.000060,0.710081,0.084018,0.696721,0.057501,85.687089,78.462430,83.527408
08388,-9.492257,2.054701,0.127691,-0.013418,0.121073,-0.100520,-0.009349,0.007153,-0.008747,-0.094922,0.020551,0.001279,1.000000,-0.000047,0.000036,-0.000044,0.710084,0.083988,0.696718,0.057540,85.682359,78.461621,83.528287
08389,-9.522087,2.026156,0.115019,-0.028016,0.087643,-0.077175,-0.017643,0.007182,-0.011268,-0.095220,0.020267,0.001152,1.000000,-0.000088,0.000036,-0.000056,0.710090,0.083921,0.696715,0.057603,85.672743,78.461941,83.529277
08390,-9.505219,1.986465,0.111510,-0.032976,0.052478,-0.101672,-0.022465,0.005931,-0.012701,-0.095051,0.019871,0.001116,1.000000,-0.000112,0.000030,-0.000064,0.710104,0.083831,0.696705,0.057673,85.656240,78.463338,83.525810
08391,-9.505476,1.985250,0.111259,-0.033666,0.051450,-0.101669,-0.021119,0.008456,-0.012360,-0.095053,0.019858,0.001115,1.000000,-0.000106,0.000042,-0.000062,0.710107,0.083748,0.696706,0.057745,85.648394,78.464280,83.530624
08392,-9.480740,1.952002,0.074491,-0.071228,0.025300,-0.133091,-0.016655,0.008598,-0.009103,-0.094806,0.019524,0.000747,1.000000,-0.000083,0.000043,-0.000046,0.710108,0.083690,0.696707,0.057809,85.643448,78.463736,83.535554
08393,-9.542528,1.936027,0.110539,-0.037212,-0.004094,-0.075190,-0.006588,0.008880,-0.009858,-0.095424,0.019365,0.001109,1.000000,-0.000033,0.000044,-0.000049,0.710104,0.083666,0.696712,0.057838,85.645172,78.463415,83.541586
08394,-9.495989,1.924189,0.118810,-0.028262,-0.006825,-0.123024,0.008016,0.005986,-0.009149,-0.094959,0.019246,0.001192,1.000000,0.000040,0.000030,-0.000046,0.710104,0.083697,0.696710,0.057815,85.647040,78.462785,83.539044
08395,-9.495369,1.909957,0.097618,-0.049766,-0.020022,-0.126789,0.016700,0.005403,-0.009350,-0.094953,0.019104,0.000980,1.000000,0.000084,0.000027,-0.000047,0.710100,0.083759,0.696710,0.057766,85.653722,78.461758,83.536737
08396,-9.529039,1.972710,0.082931,-0.062826,0.035238,-0.081507,0.020528,0.005231,-0.010087,-0.095289,0.019732,0.000834,1.000000,0.000103,0.000026,-0.000050,0.710098,0.083831,0.696710,0.057696,85.660448,78.461630,83.531837
08397,-9.561231,1.984417,0.130963,-0.014874,0.038233,-0.046904,0.022581,0.004749,-0.007545,-0.095612,0.019848,0.001314,1.000000,0.000113,0.000024,-0.000038,0.710093,0.083919,0.696709,0.057631,85.669242,78.459766,83.528202
08398,-9.524003,2.017445,0.109312,-0.034276,0.078711,-0.077119,0.019497,0.005467,-0.011361,-0.095239,0.020180,0.001098,1.000000,0.000097,0.000027,-0.000057,0.710091,0.083983,0.696710,0.057560,85.675768,78.460376,83.523701
08399,-9.509479,2.018237,0.166458,0.023296,0.079974,-0.090330,0.012513,0.004463,-0.006791,-0.095094,0.020185,0.001668,1.000000,0.000063,0.000022,-0.000034,0.710093,0.084039,0.696703,0.057530,85.676621,78.458134,83.517559
08400,-9.531431,1.995936,0.120627,-0.023929,0.055586,-0.073959,0.001174,0.003544,-0.014027,-0.095313,0.019966,0.001208,1.000000,0.000006,0.000018,-0.000070,0.710106,0.084030,0.696693,0.057512,85.666704,78.460185,83.506991
08401,-9.484946,1.983862,0.129401,-0.014909,0.052824,-0.121782,-0.006837,0.002781,-0.010729,-0.094848,0.019844,0.001295,1.000000,-0.000034,0.000014,-0.000054,0.710121,0.084003,0.696678,0.057539,85.652355,78.459969,83.496999
08402,-9.477318,1.989159,0.096002,-0.048216,0.060880,-0.128706,-0.001700,0.006798,-0.010226,-0.094772,0.019896,0.000963,1.000000,-0.000008,0.000034,-0.000051,0.710123,0.083995,0.696677,0.057546,85.650703,78.459989,83.496546
08403,-9.515759,1.967668,0.136401,-0.009386,0.030576,-0.094716,-0.000354,0.009325,-0.009885,-0.095157,0.019681,0.001368,1.000000,-0.000002,0.000047,-0.000049,0.710114,0.083993,0.696686,0.057553,85.657590,78.459784,83.504145
08404,-9.508921,1.986520,0.123006,-0.021855,0.050775,-0.097857,-0.002091,0.007355,-0.007503,-0.095088,0.019869,0.001233,1.000000,-0.000010,0.000037,-0.000038,0.710113,0.083993,0.696686,0.057571,85.657849,78.458272,83.505871
08405,-9.494402,1.987382,0.180318,0.035754,0.052010,-0.111044,-0.000673,0.006558,-0.008955,-0.094943,0.019878,0.001806,1.000000,-0.000003,0.000033,-0.000045,0.710112,0.083994,0.696685,0.057584,85.657571,78.457167,83.506566
08406,-9.533489,2.003664,0.137487,-0.007250,0.061775,-0.070145,-0.002801,0.010359,-0.009706,-0.095334,0.020041,0.001380,1.000000,-0.000014,0.000052,-0.000049,0.710102,0.083983,0.696696,0.057598,85.665358,78.457044,83.516392
08407,-9.533723,2.002586,0.137011,-0.007940,0.060755,-0.070139,-0.010275,0.002389,-0.012721,-0.095336,0.020032,0.001370,1.000000,-0.000051,0.000012,-0.000064,0.710122,0.083938,0.696678,0.057628,85.646700,78.458001,83.503827
08408,-9.510582,1.996082,0.141327,-0.003796,0.058941,-0.094046,-0.011768,0.006507,-0.009476,-0.095105,0.019965,0.001415,1.000000,-0.000059,0.000033,-0.000047,0.710128,0.083898,0.696673,0.057673,85.638626,78.457579,83.502707
08409,-9.533303,1.987253,0.115962,-0.030199,0.046653,-0.073930,-0.009359,0.007133,-0.008759,-0.095332,0.019877,0.001162,1.000000,-0.000047,0.000036,-0.000044,0.710131,0.083869,0.696670,0.057713,85.633846,78.456603,83.503579
08410,-9.485100,1.948616,0.083635,-0.062868,0.019717,-0.129357,-0.003758,0.007272,-0.012773,-0.094850,0.019492,0.000839,1.000000,-0.000019,0.000036,-0.000064,0.710133,0.083845,0.696671,0.057718,85.631797,78.458098,83.503924
08411,-9.508707,1.952914,0.078468,-0.068398,0.019525,-0.105449,0.002125,0.006626,-0.010963,-0.095086,0.019534,0.000788,1.000000,0.000011,0.000033,-0.000055,0.710132,0.083849,0.696672,0.057714,85.632936,78.458121,83.504375
08412,-9.494259,1.953531,0.135747,-0.010813,0.020838,-0.118611,0.009428,0.005185,-0.010604,-0.094942,0.019540,0.001361,1.000000,0.000047,0.000026,-0.000053,0.710134,0.083880,0.696668,0.057681,85.633064,78.458286,83.499232
08413,-9.517823,1.958070,0.130358,-0.016324,0.020703,-0.094699,0.014208,0.008100,-0.008272,-0.095177,0.019585,0.001309,1.000000,0.000071,0.000041,-0.000041,0.710122,0.083934,0.696678,0.057642,85.646299,78.457225,83.504873
08414,-9.518837,1.970736,0.149738,0.003804,0.031878,-0.090884,0.017681,0.006827,-0.007180,-0.095188,0.019711,0.001502,1.000000,0.000088,0.000034,-0.000036,0.710114,0.084006,0.696681,0.057592,85.656479,78.455505,83.505162
08415,-9.536226,2.008495,0.151795,0.007365,0.064987,-0.066282,0.019378,0.010456,-0.008666,-0.095361,0.020089,0.001525,1.000000,0.000097,0.000052,-0.000043,0.710091,0.084077,0.696701,0.057538,85.679325,78.454457,83.517843
08416,-9.520921,1.995908,0.188399,0.044115,0.054162,-0.083237,0.010491,0.003279,-0.010231,-0.095208,0.019964,0.001887,1.000000,0.000052,0.000016,-0.000051,0.710099,0.084113,0.696690,0.057501,85.674816,78.454327,83.507345
08417,-9.514142,2.014571,0.175120,0.031669,0.074308,-0.086355,0.003504,0.007484,-0.011522,-0.095140,0.020151,0.001755,1.000000,0.000018,0.000037,-0.000058,0.710095,0.084120,0.696695,0.057489,85.678557,78.454801,83.509567
08418,-9.506518,2.019764,0.141509,-0.001631,0.082374,-0.093296,-0.006523,0.005531,-0.011669,-0.095064,0.020203,0.001417,1.000000,-0.000033,0.000028,-0.000058,0.710104,0.084091,0.696688,0.057508,85.670294,78.455590,83.505187
08419,-9.495649,1.947145,0.130132,-0.015587,0.013910,-0.118605,-0.003049,0.004259,-0.010575,-0.094955,0.019476,0.001303,1.000000,-0.000015,0.000021,-0.000053,0.710113,0.084078,0.696679,0.057522,85.662042,78.455316,83.499130
08420,-9.505227,1.990941,0.099842,-0.044679,0.056105,-0.100941,-0.004153,0.007820,-0.010055,-0.095051,0.019914,0.001002,1.000000,-0.000021,0.000039,-0.000050,0.710112,0.084062,0.696681,0.057539,85.661880,78.455282,83.501632
08421,-9.511556,1.956939,0.091351,-0.054429,0.021768,-0.101651,-0.001745,0.008447,-0.009337,-0.095115,0.019574,0.000917,1.000000,-0.000009,0.000042,-0.000047,0.710105,0.084057,0.696687,0.057555,85.666329,78.454479,83.507822
08422,-9.488355,1.950750,0.095074,-0.050259,0.019991,-0.125561,0.001691,0.008838,-0.007346,-0.094883,0.019511,0.000955,1.000000,0.000008,0.000044,-0.000037,0.710097,0.084071,0.696693,0.057561,85.672936,78.452941,83.513816
08423,-9.520623,1.962591,0.143075,-0.002362,0.022901,-0.090858,0.002718,0.008600,-0.006073,-0.095206,0.019629,0.001435,1.000000,0.000014,0.000043,-0.000030,0.710087,0.084092,0.696700,0.057573,85.681607,78.450466,83.521710
08424,-9.507657,2.014686,0.137351,-0.005745,0.076411,-0.093249,0.007965,0.007636,-0.008258,-0.095076,0.020151,0.001378,1.000000,0.000040,0.000038,-0.000041,0.710081,0.084125,0.696704,0.057553,85.688253,78.449397,83.524075
08425,-9.561572,2.005017,0.140150,-0.004441,0.055871,-0.042311,0.002795,0.005276,-0.007867,-0.095615,0.020054,0.001404,1.000000,0.000014,0.000026,-0.000039,0.710084,0.084142,0.696698,0.057554,85.686130,78.447892,83.520641
08426,-9.531403,2.018411,0.131358,-0.012023,0.075267,-0.069327,-0.001393,0.009546,-0.011168,-0.095313,0.020189,0.001318,1.000000,-0.000007,0.000048,-0.000056,0.710076,0.084131,0.696707,0.057558,85.692140,78.448567,83.527830
08427,-9.532493,2.030879,0.151229,0.008138,0.086361,-0.065470,-0.007231,0.003319,-0.008017,-0.095324,0.020313,0.001513,1.000000,-0.000036,0.000017,-0.000040,0.710089,0.084114,0.696693,0.057596,85.679418,78.446776,83.519610
08428,-9.530918,2.003155,0.110236,-0.034238,0.061131,-0.073166,-0.012762,0.005061,-0.011660,-0.095308,0.020037,0.001103,1.000000,-0.000064,0.000025,-0.000058,0.710102,0.084062,0.696683,0.057635,85.666274,78.447539,83.513896
08429,-9.507789,1.996622,0.114508,-0.030036,0.059348,-0.097069,-0.011382,0.005926,-0.012215,-0.095077,0.019972,0.001147,1.000000,-0.000057,0.000030,-0.000061,0.710110,0.084013,0.696678,0.057671,85.656929,78.448564,83.511429
08430,-9.501063,2.015069,0.101692,-0.042496,0.079557,-0.100175,-0.013752,0.003634,-0.013832,-0.095009,0.020157,0.001017,1.000000,-0.000069,0.000018,-0.000069,0.710129,0.083951,0.696663,0.057706,85.638762,78.450505,83.501167
08431,-9.506511,1.967415,0.073321,-0.073070,0.033108,-0.104783,-0.007908,0.004655,-0.011120,-0.095064,0.019679,0.000735,1.000000,-0.000040,0.000023,-0.000056,0.710138,0.083919,0.696655,0.057734,85.628906,78.450662,83.496229
08432,-9.477277,1.994049,0.084901,-0.059803,0.064657,-0.127934,0.001324,0.012939,-0.011379,-0.094772,0.019946,0.000855,1.000000,0.000007,0.000065,-0.000057,0.710117,0.083916,0.696677,0.057729,85.645912,78.451607,83.513051
08433,-9.491440,1.953782,0.109324,-0.036986,0.021297,-0.121721,0.000031,0.003544,-0.006758,-0.094914,0.019541,0.001095,1.000000,0.000000,0.000018,-0.000034,0.710127,0.083929,0.696664,0.057744,85.637629,78.449206,83.504991
08434,-9.517670,1.998665,0.165417,0.019907,0.057509,-0.086210,0.007608,0.006536,-0.006428,-0.095176,0.019990,0.001658,1.000000,0.000038,0.000033,-0.000032,0.710125,0.083967,0.696663,0.057732,85.641391,78.447044,83.504621
08435,-9.522999,1.951489,0.136636,-0.010662,0.011052,-0.090843,0.002832,0.003614,-0.008764,-0.095229,0.019519,0.001368,1.000000,0.000014,0.000018,-0.000044,0.710133,0.083981,0.696653,0.057732,85.635476,78.445768,83.497559
08436,-9.516170,1.970459,0.123574,-0.023120,0.031262,-0.093944,0.006267,0.004008,-0.006771,-0.095161,0.019708,0.001238,1.000000,0.000031,0.000020,-0.000034,0.710139,0.084015,0.696643,0.057723,85.631334,78.443691,83.489905
08437,-9.516321,1.969772,0.122960,-0.023832,0.030243,-0.093943,0.009028,0.005740,-0.007880,-0.095162,0.019701,0.001233,1.000000,0.000045,0.000029,-0.000039,0.710139,0.084055,0.696640,0.057703,85.633430,78.441994,83.487140
08438,-9.545923,1.941331,0.109881,-0.038526,-0.003246,-0.070819,0.016331,0.004307,-0.007516,-0.095458,0.019417,0.001102,1.000000,0.000082,0.000022,-0.000038,0.710141,0.084122,0.696634,0.057656,85.635732,78.440356,83.480178
08439,-9.540926,1.987099,0.137353,-0.009329,0.041140,-0.066154,0.018778,0.003274,-0.007694,-0.095408,0.019875,0.001377,1.000000,0.000094,0.000016,-0.000038,0.710145,0.084198,0.696625,0.057604,85.636598,78.438327,83.470546
08440,-9.494394,1.975371,0.145803,-0.000224,0.038630,-0.113957,0.013639,0.004450,-0.014065,-0.094943,0.019760,0.001461,1.000000,0.000068,0.000022,-0.000070,0.710149,0.084232,0.696622,0.057543,85.636364,78.440436,83.462569
08441,-9.501598,1.954629,0.157851,0.010815,0.016431,-0.110859,0.007685,0.003208,-0.008225,-0.095015,0.019550,0.001581,1.000000,0.000038,0.000016,-0.000041,0.710159,0.084267,0.696609,0.057526,85.630590,78.438796,83.452553
08442,-9.511171,1.998686,0.127444,-0.018301,0.058589,-0.093140,0.010052,0.005500,-0.006609,-0.095111,0.019990,0.001278,1.000000,0.000050,0.000027,-0.000033,0.710159,0.084314,0.696605,0.057504,85.632822,78.436692,83.449192
08443,-9.487904,1.992867,0.131139,-0.014101,0.056811,-0.117038,0.010998,0.008588,-0.003543,-0.094879,0.019930,0.001317,1.000000,0.000055,0.000043,-0.000018,0.710146,0.084376,0.696611,0.057494,85.644890,78.432674,83.455437
08444,-9.488933,2.005836,0.150655,0.006022,0.067973,-0.113137,0.003776,0.006696,-0.005701,-0.094889,0.020061,0.001510,1.000000,0.000019,0.000033,-0.000029,0.710145,0.084403,0.696609,0.057498,85.647055,78.430103,83.455678
08445,-9.513344,2.024127,0.165894,0.021244,0.079854,-0.085329,-0.002812,0.005130,-0.003860,-0.095133,0.020243,0.001661,1.000000,-0.000014,0.000026,-0.000019,0.710150,0.084415,0.696600,0.057534,85.642067,78.426183,83.452671
08446,-9.513441,2.023713,0.165389,0.020536,0.078889,-0.085319,-0.011184,0.008457,-0.004604,-0.095134,0.020239,0.001657,1.000000,-0.000056,0.000042,-0.000023,0.710148,0.084392,0.696600,0.057595,85.640808,78.423062,83.458167
08447,-9.512655,2.009668,0.144527,-0.000982,0.065732,-0.089214,-0.018054,0.007665,-0.008593,-0.095126,0.020101,0.001447,1.000000,-0.000090,0.000038,-0.000043,0.710151,0.084333,0.696597,0.057669,85.633413,78.421783,83.461662
08448,-9.542232,1.981215,0.131456,-0.015694,0.032220,-0.066129,-0.014391,0.014145,-0.005740,-0.095422,0.019815,0.001320,1.000000,-0.000072,0.000071,-0.000029,0.710131,0.084294,0.696616,0.057739,85.645932,78.419558,83.483098
08449,-9.542427,1.980325,0.130734,-0.016387,0.031254,-0.066127,-0.021139,0.008366,-0.012420,-0.095423,0.019809,0.001309,1.000000,-0.000106,0.000042,-0.000062,0.710135,0.084209,0.696617,0.057807,85.637555,78.420916,83.487142
08450,-9.487038,1.961524,0.085883,-0.060650,0.025731,-0.124834,-0.013959,0.011919,-0.009363,-0.094869,0.019620,0.000863,1.000000,-0.000070,0.000060,-0.000047,0.710124,0.084160,0.696630,0.057862,85.643346,78.420664,83.501457
08451,-9.533994,1.971245,0.076276,-0.071185,0.026221,-0.077036,-0.015526,0.003305,-0.010567,-0.095339,0.019718,0.000763,1.000000,-0.000078,0.000017,-0.000053,0.710142,0.084102,0.696613,0.057918,85.624815,78.420503,83.492126
08452,-9.479498,1.966034,0.052199,-0.094610,0.032831,-0.131837,-0.008346,0.006861,-0.007509,-0.094794,0.019664,0.000524,1.000000,-0.000042,0.000034,-0.000038,0.710145,0.084081,0.696609,0.057958,85.620114,78.418972,83.492448
08453,-9.488501,1.972469,0.105143,-0.041888,0.034894,-0.120919,-0.003842,0.005362,-0.005135,-0.094884,0.019727,0.001054,1.000000,-0.000019,0.000027,-0.000026,0.710150,0.084083,0.696602,0.057993,85.615212,78.415838,83.490166
08454,-9.518960,1.957601,0.112635,-0.035781,0.013489,-0.093942,0.002394,0.005831,-0.005143,-0.095189,0.019578,0.001129,1.000000,0.000012,0.000029,-0.000026,0.710152,0.084108,0.696596,0.058003,85.614303,78.412910,83.488077
08455,-9.529417,2.015430,0.102458,-0.044067,0.067720,-0.072270,0.008194,0.008522,-0.001530,-0.095294,0.020155,0.001029,1.000000,0.000041,0.000043,-0.000008,0.710140,0.084166,0.696601,0.058009,85.625503,78.407917,83.495051
08456,-9.545373,2.002351,0.167638,0.020366,0.048624,-0.058258,0.005195,0.005903,-0.007148,-0.095453,0.020027,0.001680,1.000000,0.000026,0.000030,-0.000036,0.710140,0.084194,0.696597,0.058003,85.625968,78.406138,83.492727
08457,-9.529602,2.014635,0.100893,-0.045469,0.065752,-0.072263,0.009263,0.006626,-0.001152,-0.095296,0.020147,0.001013,1.000000,0.000046,0.000033,-0.000006,0.710134,0.084257,0.696595,0.058007,85.632624,78.400764,83.494560
08458,-9.514257,2.002541,0.137828,-0.008670,0.054990,-0.089151,0.005237,0.004240,-0.008046,-0.095142,0.020029,0.001381,1.000000,0.000026,0.000021,-0.000040,0.710141,0.084282,0.696586,0.057996,85.628297,78.399425,83.487319
08459,-9.490085,1.983076,0.121437,-0.025239,0.041135,-0.116981,0.011473,0.004709,-0.008054,-0.094900,0.019835,0.001218,1.000000,0.000057,0.000024,-0.000040,0.710142,0.084329,0.696582,0.057968,85.629751,78.397843,83.482611
08460,-9.490283,1.982171,0.120730,-0.025945,0.040173,-0.116979,0.013246,0.005014,-0.011334,-0.094902,0.019827,0.001211,1.000000,0.000066,0.000025,-0.000057,0.710144,0.084371,0.696579,0.057918,85.631467,78.398417,83.476854
08461,-9.506895,2.006276,0.102673,-0.043346,0.061063,-0.096148,0.019086,0.006043,-0.008617,-0.095068,0.020067,0.001032,1.000000,0.000095,0.000030,-0.000043,0.710139,0.084444,0.696580,0.057861,85.639867,78.397158,83.474668
08462,-9.522932,1.992919,0.167886,0.021081,0.041958,-0.082120,0.014947,0.003443,-0.006956,-0.095229,0.019932,0.001682,1.000000,0.000075,0.000017,-0.000035,0.710144,0.084508,0.696570,0.057821,85.639118,78.395162,83.465400
08463,-9.517071,2.025432,0.174932,0.029492,0.074222,-0.081232,0.012455,0.006133,-0.005885,-0.095170,0.020257,0.001753,1.000000,0.000062,0.000031,-0.000029,0.710139,0.084566,0.696571,0.057798,85.645897,78.392288,83.465633
08464,-9.517187,2.024934,0.174377,0.028783,0.073257,-0.081222,-0.002773,0.003462,-0.004760,-0.095171,0.020252,0.001745,1.000000,-0.000014,0.000017,-0.000024,0.710151,0.084575,0.696555,0.057827,85.635517,78.389038,83.456898
08465,-9.539712,2.016316,0.149027,0.002331,0.060852,-0.061270,-0.004871,0.005590,-0.006415,-0.095396,0.020166,0.001492,1.000000,-0.000024,0.000028,-0.000032,0.710155,0.084569,0.696548,0.057862,85.630602,78.386620,83.455214
08466,-9.508581,2.016447,0.120221,-0.025993,0.068250,-0.092178,-0.006531,0.005495,-0.011692,-0.095085,0.020170,0.001204,1.000000,-0.000033,0.000027,-0.000058,0.710164,0.084540,0.696542,0.057880,85.622254,78.387419,83.450751
08467,-9.514764,1.982432,0.112192,-0.035759,0.033893,-0.093071,-0.011063,0.003458,-0.007304,-0.095147,0.019828,0.001122,1.000000,-0.000055,0.000017,-0.000037,0.710178,0.084511,0.696526,0.057935,85.607707,78.385080,83.443040
08468,-9.492549,1.989653,0.136816,-0.010687,0.044336,-0.113004,-0.011474,0.009212,-0.010447,-0.094924,0.019902,0.001371,1.000000,-0.000057,0.000046,-0.000052,0.710175,0.084467,0.696531,0.057976,85.607124,78.385330,83.449396
08469,-9.515166,1.980561,0.111189,-0.037156,0.031917,-0.093070,-0.009026,0.008183,-0.010622,-0.095151,0.019811,0.001115,1.000000,-0.000045,0.000041,-0.000053,0.710174,0.084432,0.696533,0.058011,85.605765,78.385367,83.453734
08470,-9.546690,1.978620,0.139107,-0.010260,0.022576,-0.062151,-0.008307,0.005188,-0.008413,-0.095466,0.019790,0.001393,1.000000,-0.000042,0.000026,-0.000042,0.710184,0.084408,0.696524,0.058047,85.596247,78.384278,83.449115
08471,-9.493131,1.986975,0.135406,-0.012775,0.041351,-0.112994,-0.007280,0.004954,-0.007138,-0.094931,0.019873,0.001356,1.000000,-0.000036,0.000025,-0.000036,0.710192,0.084392,0.696513,0.058087,85.587456,78.382160,83.444830
08472,-9.515679,1.978165,0.109934,-0.039268,0.028975,-0.093069,-0.006972,0.007715,-0.008071,-0.095156,0.019786,0.001102,1.000000,-0.000035,0.000039,-0.000040,0.710192,0.084373,0.696513,0.058120,85.585799,78.380988,83.447456
08473,-9.540202,1.996158,0.125173,-0.024118,0.040757,-0.065199,-0.007324,0.006614,-0.006242,-0.095401,0.019965,0.001254,1.000000,-0.000037,0.000033,-0.000031,0.710195,0.084361,0.696508,0.058164,85.581405,78.378404,83.447646
08474,-9.553222,1.942898,0.129618,-0.022178,-0.014695,-0.063072,-0.005577,0.003387,-0.002757,-0.095532,0.019430,0.001297,1.000000,-0.000028,0.000017,-0.000014,0.710208,0.084366,0.696490,0.058210,85.569670,78.374005,83.439167
08475,-9.540390,1.995296,0.124581,-0.025505,0.038775,-0.065195,-0.003803,0.003693,-0.006037,-0.095403,0.019956,0.001247,1.000000,-0.000019,0.000018,-0.000030,0.710218,0.084367,0.696477,0.058241,85.560195,78.371232,83.432207
08476,-9.553453,1.941797,0.129062,-0.023566,-0.016678,-0.063079,-0.001001,0.003765,-0.008041,-0.095534,0.019422,0.001292,1.000000,-0.000005,0.000019,-0.000040,0.710229,0.084370,0.696464,0.058252,85.551003,78.369867,83.423648
08477,-9.553588,1.941157,0.128699,-0.024224,-0.017699,-0.063082,-0.001397,0.004326,-0.005315,-0.095535,0.019414,0.001289,1.000000,-0.000007,0.000022,-0.000027,0.710235,0.084380,0.696455,0.058280,85.545420,78.366691,83.419458
08478,-9.553711,1.940573,0.128362,-0.024934,-0.018666,-0.063086,0.002476,0.002505,-0.006939,-0.095536,0.019409,0.001285,1.000000,0.000012,0.000013,-0.000035,0.710249,0.084400,0.696438,0.058282,85.534970,78.364639,83.407579
08479,-9.494236,1.981869,0.132733,-0.018340,0.033474,-0.112972,0.004382,-0.002173,-0.012909,-0.094941,0.019825,0.001327,1.000000,0.000022,-0.000011,-0.000065,0.710280,0.084408,0.696408,0.058256,85.511494,78.365658,83.381400
08480,-9.439731,1.976611,0.108844,-0.041651,0.040247,-0.167792,0.002827,0.003604,-0.008769,-0.094396,0.019770,0.001090,1.000000,0.000014,0.000018,-0.000044,0.710290,0.084422,0.696396,0.058252,85.503899,78.364700,83.372232
08481,-9.458347,2.027565,0.132214,-0.017404,0.085290,-0.138947,0.000113,0.000209,-0.008559,-0.094583,0.020280,0.001322,1.000000,0.000001,0.000001,-0.000043,0.710312,0.084429,0.696372,0.058260,85.486147,78.363047,83.354578
08482,-9.475929,2.065310,0.135083,-0.014000,0.118296,-0.114089,0.002387,0.005826,-0.005147,-0.094759,0.020656,0.001354,1.000000,0.000012,0.000029,-0.000026,0.710314,0.084454,0.696367,0.058271,85.485261,78.360120,83.352517
08483,-9.506351,2.050476,0.142783,-0.007915,0.096817,-0.087148,-0.006912,0.000856,-0.003102,-0.095063,0.020506,0.001428,1.000000,-0.000035,0.000004,-0.000016,0.710334,0.084454,0.696341,0.058319,85.466790,78.355863,83.337992
08484,-9.530766,2.069031,0.158573,0.007216,0.108620,-0.059243,-0.008731,0.002212,0.001075,-0.095308,0.020690,0.001586,1.000000,-0.000044,0.000011,0.000005,0.710352,0.084462,0.696317,0.058389,85.450897,78.349218,83.327111
08485,-9.554176,2.074184,0.153973,0.001531,0.108268,-0.035341,-0.014221,0.002273,-0.003477,-0.095541,0.020744,0.001539,1.000000,-0.000071,0.000011,-0.000017,0.710371,0.084435,0.696294,0.058464,85.431496,78.344902,83.316057
08486,-9.537895,2.048449,0.171385,0.017540,0.085443,-0.056184,-0.014414,-0.000279,-0.011104,-0.095378,0.020490,0.001712,1.000000,-0.000072,-0.000001,-0.000056,0.710403,0.084382,0.696264,0.058510,85.402778,78.345097,83.295407
08487,-9.529214,2.040073,0.118178,-0.036527,0.081448,-0.067236,-0.018221,0.003409,-0.017143,-0.095290,0.020409,0.001182,1.000000,-0.000091,0.000017,-0.000086,0.710424,0.084292,0.696250,0.058550,85.381312,78.348811,83.284555
08488,-9.513109,2.013481,0.135506,-0.020513,0.058630,-0.088087,-0.016121,0.001282,-0.015489,-0.095130,0.020142,0.001354,1.000000,-0.000081,0.000006,-0.000077,0.710453,0.084216,0.696227,0.058587,85.354945,78.351579,83.267304
08489,-9.480071,1.986238,0.066338,-0.090415,0.041872,-0.127061,-0.015467,0.005141,-0.018252,-0.094799,0.019871,0.000664,1.000000,-0.000077,0.000026,-0.000091,0.710468,0.084133,0.696220,0.058614,85.339323,78.355904,83.260728
08490,-9.488350,1.978326,0.099243,-0.058568,0.031815,-0.120011,-0.001549,0.000113,-0.013840,-0.094882,0.019790,0.000992,1.000000,-0.000008,0.000001,-0.000069,0.710493,0.084115,0.696196,0.058605,85.318420,78.357674,83.240531
08491,-9.507121,2.028763,0.122666,-0.034363,0.076808,-0.091103,0.006021,0.003121,-0.013499,-0.095070,0.020294,0.001229,1.000000,0.000030,0.000016,-0.000067,0.710505,0.084126,0.696186,0.058577,85.310448,78.358876,83.229438
08492,-9.497878,1.982726,0.152047,-0.006611,0.032804,-0.108931,0.008472,0.002096,-0.013673,-0.094977,0.019834,0.001522,1.000000,0.000042,0.000010,-0.000068,0.710519,0.084144,0.696172,0.058535,85.300812,78.360641,83.214883
08493,-9.522523,2.000275,0.167521,0.008509,0.044513,-0.081009,0.010178,0.000532,-0.009290,-0.095224,0.020007,0.001676,1.000000,0.000051,0.000003,-0.000046,0.710537,0.084185,0.696152,0.058505,85.289192,78.359425,83.197515
08494,-9.521693,1.985981,0.146860,-0.013019,0.031450,-0.085037,0.009149,0.000763,-0.010567,-0.095216,0.019865,0.001470,1.000000,0.000046,0.000004,-0.000053,0.710555,0.084216,0.696133,0.058471,85.276956,78.359353,83.179910
08495,-9.522908,1.998490,0.166963,0.007097,0.042526,-0.080999,0.006302,0.002348,-0.007667,-0.095228,0.019988,0.001671,1.000000,0.000032,0.000012,-0.000038,0.710567,0.084248,0.696117,0.058460,85.268455,78.357383,83.167928
08496,-9.528005,1.950895,0.138566,-0.023520,-0.003829,-0.086049,0.003702,-0.000843,-0.016019,-0.095278,0.019517,0.001386,1.000000,0.000019,-0.000004,-0.000080,0.710595,0.084242,0.696093,0.058425,85.247396,78.360346,83.144500
08497,-9.551683,1.954754,0.133711,-0.029222,-0.004172,-0.062164,0.003565,0.004140,-0.013328,-0.095515,0.019554,0.001339,1.000000,0.000018,0.000021,-0.000067,0.710603,0.084243,0.696085,0.058402,85.241062,78.361944,83.136231
08498,-9.499325,1.975920,0.150235,-0.010827,0.026888,-0.108916,0.006715,0.005313,-0.017163,-0.094992,0.019767,0.001506,1.000000,0.000034,0.000027,-0.000086,0.710609,0.084242,0.696084,0.058355,85.238517,78.365851,83.129944
08499,-9.484177,1.962977,0.187326,0.026023,0.016150,-0.125735,0.008073,0.002653,-0.010949,-0.094841,0.019635,0.001875,1.000000,0.000040,0.000013,-0.000055,0.710620,0.084269,0.696072,0.058325,85.230960,78.365851,83.117818
08500,-9.495032,2.019904,0.177458,0.017670,0.070308,-0.103832,0.007393,0.003981,-0.014057,-0.094949,0.020206,0.001777,1.000000,0.000037,0.000020,-0.000070,0.710629,0.084281,0.696065,0.058286,85.225824,78.367921,83.108489
08501,-9.495288,2.018743,0.176939,0.017002,0.069321,-0.103824,0.003168,0.004699,-0.010603,-0.094952,0.020192,0.001772,1.000000,0.000016,0.000023,-0.000053,0.710634,0.084290,0.696059,0.058276,85.222251,78.367947,83.103389
08502,-9.488611,2.037420,0.163928,0.004568,0.089558,-0.106831,-0.004096,0.004446,-0.011878,-0.094885,0.020380,0.001641,1.000000,-0.000020,0.000022,-0.000059,0.710645,0.084268,0.696050,0.058285,85.212325,78.368795,83.095890
08503,-9.520169,2.035381,0.191604,0.031428,0.080091,-0.075865,-0.005705,0.011884,-0.006840,-0.095201,0.020357,0.001921,1.000000,-0.000029,0.000059,-0.000034,0.710628,0.084257,0.696066,0.058321,85.224415,78.367054,83.111927
08504,-9.518258,2.007782,0.150192,-0.010915,0.054942,-0.083975,-0.019066,0.006162,-0.010804,-0.095181,0.020083,0.001503,1.000000,-0.000095,0.000031,-0.000054,0.710639,0.084185,0.696057,0.058387,85.210922,78.367371,83.109543
08505,-9.525361,1.987118,0.162708,0.000157,0.032692,-0.080959,-0.024623,0.004347,-0.007696,-0.095253,0.019875,0.001627,1.000000,-0.000123,0.000022,-0.000038,0.710655,0.084105,0.696042,0.058488,85.191816,78.365377,83.105257
08506,-9.500034,1.954311,0.126335,-0.037164,0.006931,-0.112971,-0.024020,0.009864,-0.009563,-0.094999,0.019548,0.001266,1.000000,-0.000120,0.000049,-0.000048,0.710655,0.084020,0.696045,0.058577,85.186039,78.365163,83.113650
08507,-9.523623,1.958613,0.121190,-0.042833,0.006539,-0.089088,-0.005568,0.006899,-0.009531,-0.095235,0.019591,0.001215,1.000000,-0.000028,0.000034,-0.000048,0.710655,0.084000,0.696045,0.058603,85.184475,78.364593,83.115870
08508,-9.523830,1.957662,0.120339,-0.043540,0.005574,-0.089091,0.007206,0.010630,-0.010465,-0.095237,0.019582,0.001209,1.000000,0.000036,0.000053,-0.000052,0.710640,0.084022,0.696060,0.058580,85.198502,78.364931,83.126215
08509,-9.525124,1.969996,0.139504,-0.023439,0.016678,-0.085020,0.019724,0.009940,-0.011364,-0.095250,0.019705,0.001402,1.000000,0.000099,0.000050,-0.000057,0.710622,0.084086,0.696077,0.058511,85.217418,78.365626,83.134231
08510,-9.519516,2.002120,0.146001,-0.015055,0.049003,-0.083949,0.020751,0.009708,-0.010087,-0.095194,0.020026,0.001467,1.000000,0.000104,0.000049,-0.000050,0.710604,0.084158,0.696092,0.058442,85.236738,78.365702,83.142058
08511,-9.513923,2.034211,0.152542,-0.006646,0.081281,-0.082869,0.017315,0.009296,-0.012091,-0.095138,0.020348,0.001532,1.000000,0.000087,0.000046,-0.000060,0.710588,0.084212,0.696107,0.058379,85.253366,78.366649,83.149261
08512,-9.508347,2.066247,0.159348,0.001739,0.113606,-0.081782,0.010778,0.006050,-0.011158,-0.095082,0.020668,0.001597,1.000000,0.000054,0.000030,-0.000056,0.710587,0.084246,0.696107,0.058340,85.256581,78.367162,83.146479
08513,-9.500621,2.071519,0.125446,-0.031479,0.121715,-0.088855,0.003767,0.010212,-0.012473,-0.095005,0.020721,0.001260,1.000000,0.000019,0.000051,-0.000062,0.710573,0.084248,0.696122,0.058324,85.268013,78.368397,83.156429
08514,-9.507778,2.050649,0.137041,-0.020463,0.099546,-0.085846,-0.003893,0.010517,-0.011024,-0.095077,0.020512,0.001375,1.000000,-0.000019,0.000053,-0.000055,0.710563,0.084229,0.696134,0.058338,85.275247,78.369045,83.166330
08515,-9.536139,2.008279,0.103270,-0.056090,0.053730,-0.067137,-0.008751,0.010898,-0.011578,-0.095360,0.020088,0.001037,1.000000,-0.000044,0.000054,-0.000058,0.710552,0.084191,0.696147,0.058371,85.281555,78.369656,83.178453
08516,-9.543288,1.987372,0.115036,-0.045076,0.031559,-0.064139,-0.011158,0.010257,-0.012304,-0.095432,0.019880,0.001154,1.000000,-0.000056,0.000051,-0.000062,0.710546,0.084141,0.696156,0.058405,85.283613,78.371022,83.187320
08517,-9.542443,1.972841,0.093955,-0.066576,0.018446,-0.068234,-0.010082,0.008366,-0.011924,-0.095423,0.019734,0.000943,1.000000,-0.000050,0.000042,-0.000060,0.710545,0.084098,0.696160,0.058440,85.282033,78.371745,83.192166
08518,-9.501702,1.928138,0.094844,-0.066295,-0.016981,-0.117103,-0.003799,0.007193,-0.012820,-0.095016,0.019287,0.000951,1.000000,-0.000019,0.000036,-0.000064,0.710547,0.084074,0.696160,0.058446,85.279687,78.373261,83.192232
08519,-9.518476,1.951781,0.076885,-0.083747,0.003774,-0.096221,0.005237,0.007757,-0.014820,-0.095183,0.019525,0.000773,1.000000,0.000026,0.000039,-0.000074,0.710542,0.084075,0.696167,0.058417,85.284390,78.375540,83.194543
08520,-9.520946,1.977283,0.116852,-0.042827,0.026975,-0.088020,0.008322,0.007072,-0.010985,-0.095208,0.019778,0.001173,1.000000,0.000042,0.000035,-0.000055,0.710538,0.084100,0.696170,0.058387,85.289074,78.376003,83.194696
08521,-9.515412,2.009267,0.123860,-0.034444,0.059210,-0.086904,0.016030,0.005107,-0.013330,-0.095153,0.020099,0.001243,1.000000,0.000080,0.000026,-0.000067,0.710539,0.084146,0.696170,0.058326,85.292423,78.377191,83.189333
08522,-9.547041,2.007002,0.151393,-0.007666,0.049694,-0.055924,0.007973,0.005973,-0.009155,-0.095469,0.020074,0.001518,1.000000,0.000040,0.000030,-0.000046,0.710539,0.084177,0.696168,0.058303,85.294274,78.376557,83.186799
08523,-9.493528,2.015650,0.147546,-0.009978,0.068744,-0.106665,0.006249,0.004007,-0.006771,-0.094935,0.020160,0.001478,1.000000,0.000031,0.000020,-0.000034,0.710545,0.084211,0.696158,0.058297,85.290914,78.374223,83.180168
08524,-9.525102,2.013646,0.175391,0.016797,0.059223,-0.075680,0.001787,0.003821,-0.010055,-0.095250,0.020141,0.001756,1.000000,0.000009,0.000019,-0.000050,0.710555,0.084217,0.696148,0.058291,85.283044,78.374002,83.171327
08525,-9.528842,1.952838,0.126242,-0.034572,0.000732,-0.085039,0.003113,0.006350,-0.009711,-0.095287,0.019533,0.001266,1.000000,0.000016,0.000032,-0.000049,0.710553,0.084228,0.696148,0.058289,85.284985,78.373301,83.172201
08526,-9.516386,2.004828,0.120900,-0.037906,0.054264,-0.086888,0.004191,0.004461,-0.009329,-0.095163,0.020053,0.001212,1.000000,0.000021,0.000022,-0.000047,0.710560,0.084245,0.696140,0.058278,85.280437,78.372695,83.165346
08527,-9.529230,1.951009,0.125227,-0.035967,-0.001237,-0.085044,0.004240,0.002800,-0.010226,-0.095291,0.019515,0.001254,1.000000,0.000021,0.000014,-0.000051,0.710572,0.084259,0.696128,0.058266,85.271828,78.372314,83.154571
08528,-9.492246,1.984526,0.104295,-0.055054,0.039656,-0.114886,0.010077,0.003855,-0.007496,-0.094922,0.019849,0.001046,1.000000,0.000050,0.000019,-0.000037,0.710577,0.084304,0.696118,0.058240,85.269391,78.370632,83.146429
08529,-9.547228,1.987655,0.127101,-0.033297,0.030627,-0.060024,0.005813,0.009746,-0.009922,-0.095471,0.019881,0.001276,1.000000,0.000029,0.000049,-0.000050,0.710563,0.084323,0.696132,0.058228,85.282037,78.370353,83.156553
08530,-9.526291,2.008334,0.171707,0.012678,0.053259,-0.075639,0.010423,0.004949,-0.009328,-0.095262,0.020088,0.001720,1.000000,0.000052,0.000025,-0.000047,0.710566,0.084362,0.696127,0.058195,85.282417,78.369769,83.151083
08531,-9.526500,2.007384,0.171222,0.011990,0.052257,-0.075633,-0.000619,0.003175,-0.010783,-0.095264,0.020079,0.001714,1.000000,-0.000003,0.000016,-0.000054,0.710578,0.084358,0.696114,0.058197,85.271937,78.369739,83.141122
08532,-9.489589,2.040638,0.150378,-0.007088,0.093161,-0.105454,-0.002726,0.005289,-0.012446,-0.094895,0.020412,0.001506,1.000000,-0.000014,0.000026,-0.000062,0.710586,0.084339,0.696109,0.058199,85.265010,78.370952,83.135884
08533,-9.512118,2.031204,0.124884,-0.033633,0.080579,-0.085707,-0.007585,0.005665,-0.013002,-0.095120,0.020318,0.001251,1.000000,-0.000038,0.000028,-0.000065,0.710593,0.084302,0.696104,0.058223,85.257694,78.371995,83.133533
08534,-9.495855,2.005093,0.141576,-0.017555,0.057856,-0.106605,-0.003856,0.008837,-0.011933,-0.094957,0.020057,0.001420,1.000000,-0.000019,0.000044,-0.000060,0.710588,0.084280,0.696111,0.058232,85.260081,78.373082,83.138465
08535,-9.496067,2.004139,0.140815,-0.018237,0.056825,-0.106600,-0.000771,0.008157,-0.008095,-0.094960,0.020045,0.001412,1.000000,-0.000004,0.000041,-0.000040,0.710583,0.084283,0.696115,0.058249,85.264196,78.371564,83.143688
08536,-9.474027,2.011408,0.165140,0.006939,0.067394,-0.126324,-0.003857,0.008835,-0.011934,-0.094739,0.020120,0.001655,1.000000,-0.000019,0.000044,-0.000060,0.710578,0.084261,0.696121,0.058258,85.266579,78.372651,83.148616
08537,-9.526768,1.987585,0.147119,-0.012964,0.034203,-0.079748,0.000603,0.009024,-0.008648,-0.095267,0.019880,0.001476,1.000000,0.000003,0.000045,-0.000043,0.710569,0.084266,0.696129,0.058266,85.274126,78.371776,83.156399
08538,-9.520098,2.006466,0.133612,-0.025388,0.054450,-0.082713,0.008262,0.008725,-0.010093,-0.095200,0.020069,0.001341,1.000000,0.000041,0.000044,-0.000050,0.710559,0.084294,0.696138,0.058240,85.283571,78.371807,83.161447
08539,-9.504963,1.993859,0.170280,0.011500,0.043768,-0.099462,0.006204,0.009176,-0.012653,-0.095048,0.019945,0.001708,1.000000,0.000031,0.000046,-0.000063,0.710550,0.084305,0.696148,0.058215,85.292501,78.373077,83.167355
08540,-9.520611,2.004154,0.131695,-0.026809,0.052477,-0.082706,0.006255,0.007514,-0.013550,-0.095205,0.020048,0.001321,1.000000,0.000031,0.000038,-0.000068,0.710546,0.084314,0.696154,0.058183,85.296645,78.375025,83.168167
08541,-9.520879,2.002940,0.130831,-0.027497,0.051483,-0.082702,0.004828,0.008305,-0.012102,-0.095208,0.020035,0.001313,1.000000,0.000024,0.000042,-0.000061,0.710539,0.084324,0.696161,0.058162,85.303198,78.376025,83.172330
08542,-9.522283,2.015246,0.150286,-0.007396,0.062588,-0.078536,0.000947,0.010115,-0.010484,-0.095222,0.020157,0.001508,1.000000,0.000005,0.000051,-0.000052,0.710528,0.084323,0.696173,0.058161,85.312221,78.376344,83.181227
08543,-9.527093,1.967441,0.121091,-0.037988,0.016210,-0.083901,0.003116,0.009849,-0.016495,-0.095269,0.019682,0.001216,1.000000,0.000016,0.000049,-0.000082,0.710518,0.084310,0.696187,0.058134,85.321175,78.379769,83.189071
08544,-9.498268,1.994252,0.132515,-0.024515,0.048008,-0.106566,0.005752,0.011400,-0.009030,-0.094982,0.019947,0.001331,1.000000,0.000029,0.000057,-0.000045,0.710500,0.084332,0.696204,0.058121,85.336853,78.379317,83.201952
08545,-9.477477,2.014770,0.176665,0.021511,0.070624,-0.122093,0.009244,0.013664,-0.014699,-0.094773,0.020155,0.001774,1.000000,0.000046,0.000068,-0.000073,0.710473,0.084346,0.696234,0.058080,85.360528,78.381999,83.221158
08546,-9.506822,1.985616,0.162635,0.006621,0.036895,-0.099429,0.010902,0.013779,-0.009410,-0.095067,0.019861,0.001634,1.000000,0.000055,0.000069,-0.000047,0.710444,0.084384,0.696261,0.058049,85.385681,78.381872,83.240700
08547,-9.513874,1.965029,0.173986,0.017659,0.014628,-0.096470,0.005455,0.008642,-0.008095,-0.095138,0.019654,0.001745,1.000000,0.000027,0.000043,-0.000040,0.710434,0.084408,0.696269,0.058047,85.395013,78.380272,83.247821
08548,-9.523748,2.008842,0.143010,-0.011564,0.056610,-0.078503,0.009578,0.011247,-0.009754,-0.095236,0.020093,0.001436,1.000000,0.000048,0.000056,-0.000049,0.710415,0.084441,0.696286,0.058018,85.412295,78.380223,83.260103
08549,-9.522776,1.994488,0.121552,-0.033056,0.043542,-0.082681,0.005853,0.008072,-0.010825,-0.095227,0.019950,0.001220,1.000000,0.000029,0.000040,-0.000054,0.710408,0.084458,0.696293,0.058000,85.419210,78.380449,83.264176
08550,-9.492760,2.008052,0.112626,-0.040380,0.063286,-0.109501,0.007519,0.011694,-0.012317,-0.094926,0.020086,0.001133,1.000000,0.000038,0.000058,-0.000062,0.710389,0.084474,0.696313,0.057970,85.435988,78.381883,83.277145
08551,-9.524471,2.005650,0.139626,-0.013679,0.053622,-0.078489,0.003689,0.011842,-0.011597,-0.095243,0.020062,0.001402,1.000000,0.000018,0.000059,-0.000058,0.710371,0.084481,0.696331,0.057958,85.450972,78.382582,83.290614
08552,-9.500097,1.986172,0.122380,-0.030095,0.040088,-0.106546,0.008680,0.019205,-0.009289,-0.095000,0.019866,0.001234,1.000000,0.000043,0.000096,-0.000046,0.710324,0.084510,0.696377,0.057937,85.489953,78.382623,83.325573
08553,-9.531757,1.984071,0.148949,-0.003359,0.030437,-0.075533,0.008147,0.012035,-0.008308,-0.095317,0.019845,0.001496,1.000000,0.000041,0.000060,-0.000042,0.710302,0.084542,0.696397,0.057922,85.509869,78.381591,83.341669
08554,-9.530700,1.970028,0.127240,-0.024874,0.017406,-0.079726,0.007747,0.012602,-0.005580,-0.095306,0.019703,0.001279,1.000000,0.000039,0.000063,-0.000028,0.710277,0.084582,0.696418,0.057916,85.530776,78.379212,83.358721
08555,-9.547383,1.994290,0.108690,-0.042410,0.038128,-0.058802,0.005398,0.010296,-0.007204,-0.095473,0.019946,0.001092,1.000000,0.000027,0.000051,-0.000036,0.710263,0.084610,0.696429,0.057912,85.543289,78.377486,83.368656
08556,-9.484225,1.958401,0.134694,-0.016093,0.014461,-0.127465,0.000701,0.005685,-0.010451,-0.094841,0.019589,0.001350,1.000000,0.000004,0.000028,-0.000052,0.710267,0.084611,0.696425,0.057909,85.539882,78.377581,83.365007
08557,-9.524340,1.987562,0.112074,-0.038704,0.035628,-0.082669,-0.009812,0.007565,-0.006116,-0.095243,0.019879,0.001123,1.000000,-0.000049,0.000038,-0.000031,0.710267,0.084589,0.696423,0.057964,85.537443,78.374860,83.368845
08558,-9.554693,1.972447,0.119409,-0.032814,0.013931,-0.055859,-0.011586,0.007265,-0.002835,-0.095547,0.019726,0.001196,1.000000,-0.000058,0.000036,-0.000014,0.710269,0.084572,0.696418,0.058033,85.533035,78.370675,83.371362
08559,-9.523323,1.973229,0.090732,-0.060908,0.021591,-0.086878,-0.008386,0.006772,-0.007565,-0.095232,0.019736,0.000910,1.000000,-0.000042,0.000034,-0.000038,0.710272,0.084549,0.696414,0.058076,85.528752,78.368923,83.372420
08560,-9.548096,1.991037,0.105667,-0.045925,0.033172,-0.058800,-0.007120,0.010961,-0.006327,-0.095480,0.019913,0.001061,1.000000,-0.000036,0.000055,-0.000032,0.710260,0.084535,0.696425,0.058117,85.536403,78.366897,83.384636
08561,-9.524833,1.985318,0.109949,-0.041500,0.031681,-0.082667,-0.014910,0.003519,-0.006638,-0.095248,0.019856,0.001100,1.000000,-0.000075,0.000018,-0.000033,0.710276,0.084493,0.696407,0.058186,85.519621,78.364490,83.376799
08562,-9.485408,1.992318,0.048651,-0.102114,0.048561,-0.120841,-0.012163,0.005256,-0.007743,-0.094853,0.019927,0.000488,1.000000,-0.000061,0.000026,-0.000039,0.710287,0.084458,0.696397,0.058237,85.508249,78.363018,83.372543
08563,-9.487967,2.018634,0.089487,-0.061201,0.071668,-0.112402,-0.011036,-0.001790,-0.001470,-0.094880,0.020187,0.000893,1.000000,-0.000055,-0.000009,-0.000007,0.710319,0.084451,0.696359,0.058307,85.479842,78.357356,83.350356
08564,-9.486386,1.967442,0.152688,-0.000864,0.018622,-0.123244,-0.013492,-0.000776,-0.001304,-0.094864,0.019675,0.001525,1.000000,-0.000067,-0.000004,-0.000007,0.710349,0.084435,0.696324,0.058384,85.452416,78.351933,83.330486
08565,-9.517002,1.990463,0.077734,-0.076779,0.036890,-0.089825,-0.014184,-0.002962,0.002363,-0.095170,0.019904,0.000775,1.000000,-0.000071,-0.000015,0.000012,0.710383,0.084428,0.696281,0.058479,85.421064,78.344099,83.307376
08566,-9.525019,1.984346,0.111326,-0.044977,0.026760,-0.082668,-0.012074,-0.005070,0.004029,-0.095251,0.019842,0.001110,1.000000,-0.000060,-0.000025,0.000020,0.710426,0.084437,0.696229,0.058568,85.383808,78.335428,83.276638
08567,-9.493488,1.985866,0.083739,-0.073078,0.034447,-0.113694,-0.011383,-0.002885,0.000362,-0.094935,0.019859,0.000835,1.000000,-0.000057,-0.000014,0.000002,0.710463,0.084436,0.696186,0.058645,85.352100,78.328667,83.251274
08568,-9.512479,2.037530,0.107689,-0.049010,0.079287,-0.084291,-0.006524,-0.003254,0.000926,-0.095125,0.020375,0.001075,1.000000,-0.000033,-0.000016,0.000005,0.710498,0.084453,0.696143,0.058704,85.322429,78.321846,83.225033
08569,-9.494688,1.999339,0.104922,-0.053667,0.044553,-0.109461,0.003539,-0.002899,0.000219,-0.094947,0.019993,0.001048,1.000000,0.000018,-0.000014,0.000001,0.710527,0.084503,0.696105,0.058728,85.300029,78.315309,83.200502
08570,-9.549522,2.003326,0.128473,-0.032127,0.035340,-0.054567,0.010400,-0.002055,0.004241,-0.095496,0.020031,0.001285,1.000000,0.000052,-0.000010,0.000021,0.710550,0.084591,0.696070,0.058741,85.284176,78.306647,83.178468
08571,-9.512346,2.038141,0.107923,-0.051093,0.076317,-0.084278,0.014522,0.000552,0.002585,-0.095124,0.020380,0.001081,1.000000,0.000073,0.000003,0.000013,0.710561,0.084688,0.696046,0.058737,85.278264,78.298789,83.164391
08572,-9.506282,2.033877,0.198590,0.039146,0.068608,-0.089558,0.012065,0.001567,0.002751,-0.095063,0.020337,0.001988,1.000000,0.000060,0.000008,0.000014,0.710571,0.084776,0.696025,0.058740,85.273051,78.291147,83.152246
08573,-9.535243,2.006162,0.185624,0.024228,0.034745,-0.067011,0.013093,0.001342,0.004032,-0.095353,0.020060,0.001858,1.000000,0.000065,0.000007,0.000020,0.710580,0.084872,0.696004,0.058749,85.269017,78.282369,83.141051
08574,-9.528327,2.026272,0.172564,0.011816,0.055004,-0.069926,0.008526,0.004465,0.002531,-0.095283,0.020261,0.001729,1.000000,0.000043,0.000022,0.000013,0.710581,0.084946,0.695992,0.058765,85.269724,78.274989,83.137023
08575,-9.533943,1.993201,0.164464,0.002022,0.020689,-0.071254,0.008742,-0.002177,-0.001051,-0.095339,0.019932,0.001644,1.000000,0.000044,-0.000011,-0.000005,0.710606,0.085011,0.695959,0.058769,85.252088,78.268950,83.114442
08576,-9.491220,2.060775,0.151397,-0.007853,0.095010,-0.099610,0.006708,0.009326,-0.000075,-0.094912,0.020608,0.001519,1.000000,0.000034,0.000047,-0.000000,0.710592,0.085068,0.695965,0.058784,85.264532,78.263289,83.123467
08577,-9.514673,2.065652,0.146163,-0.013689,0.094457,-0.075739,-0.007942,0.001041,-0.004408,-0.095146,0.020659,0.001461,1.000000,-0.000040,0.000005,-0.000022,0.710614,0.085060,0.695939,0.058833,85.245333,78.259530,83.108877
08578,-9.514733,2.065381,0.146091,-0.014397,0.093490,-0.075730,-0.020622,0.006685,-0.000848,-0.095147,0.020654,0.001462,1.000000,-0.000103,0.000033,-0.000004,0.710621,0.085018,0.695928,0.058940,85.234690,78.254185,83.110314
08579,-9.507918,2.084962,0.133631,-0.026821,0.113690,-0.078635,-0.035437,0.003378,-0.002498,-0.095079,0.020851,0.001334,1.000000,-0.000177,0.000017,-0.000012,0.710646,0.084920,0.695901,0.059093,85.205911,78.249252,83.102016
08580,-9.508019,2.084470,0.134126,-0.027528,0.112724,-0.078625,-0.054531,0.005940,-0.006591,-0.095079,0.020848,0.001338,1.000000,-0.000273,0.000030,-0.000033,0.710672,0.084738,0.695880,0.059297,85.172490,78.247150,83.100031
08581,-9.570218,2.105737,0.087378,-0.076170,0.122237,-0.014214,-0.056422,0.008945,-0.001524,-0.095702,0.021058,0.000872,1.000000,-0.000282,0.000045,-0.000008,0.710686,0.084566,0.695867,0.059526,85.147796,78.242302,83.108010
08582,-9.508125,2.083926,0.135067,-0.028929,0.110789,-0.078607,-0.059525,0.006098,0.001403,-0.095081,0.020839,0.001347,1.000000,-0.000298,0.000030,0.000007,0.710711,0.084393,0.695841,0.059775,85.113826,78.235644,83.108388
08583,-9.514864,2.064643,0.147953,-0.017905,0.088542,-0.075690,-0.052151,0.010590,0.011229,-0.095150,0.020641,0.001479,1.000000,-0.000261,0.000053,0.000056,0.710713,0.084280,0.695830,0.060039,85.099744,78.223325,83.124963
08584,-9.527101,2.012838,0.152814,-0.016011,0.033066,-0.074147,-0.043019,0.004340,0.014226,-0.095272,0.020122,0.001526,1.000000,-0.000215,0.000022,0.000071,0.710733,0.084212,0.695798,0.060275,85.073461,78.209261,83.123532
08585,-9.493680,1.964694,0.187511,0.017020,-0.011268,-0.116053,-0.024432,0.005656,0.022847,-0.094939,0.019636,0.001875,1.000000,-0.000122,0.000028,0.000114,0.710736,0.084238,0.695773,0.060483,85.064449,78.190035,83.129226
08586,-9.468598,1.948505,0.171253,0.000676,-0.024701,-0.144195,-0.002052,0.012003,0.024879,-0.094688,0.019473,0.001718,1.000000,-0.000010,0.000060,0.000124,0.710709,0.084350,0.695775,0.060618,85.085062,78.170266,83.151726
08587,-9.469321,1.964425,0.190269,0.020789,-0.013691,-0.139912,0.006077,0.017028,0.030153,-0.094696,0.019630,0.001911,1.000000,0.000030,0.000085,0.000151,0.710658,0.084508,0.695796,0.060751,85.125839,78.147302,83.190369
08588,-9.419486,1.930552,0.157018,-0.011187,-0.039579,-0.196207,0.004535,0.021127,0.033393,-0.094198,0.019290,0.001581,1.000000,0.000023,0.000106,0.000167,0.710594,0.084670,0.695829,0.060897,85.176771,78.123109,83.239998
08589,-9.393553,2.001566,0.228226,0.064793,0.028409,-0.205805,0.012916,0.034071,0.031854,-0.093938,0.020001,0.002300,1.000000,0.000065,0.000170,0.000159,0.710480,0.084853,0.695912,0.061018,85.267792,78.100104,83.325887
08590,-9.455000,2.026457,0.177843,0.016109,0.037877,-0.141416,-0.008205,0.031916,0.031056,-0.094553,0.020250,0.001793,1.000000,-0.000041,0.000160,0.000155,0.710385,0.084959,0.695981,0.061205,85.339614,78.077724,83.404334
08591,-9.602898,2.053668,0.179302,0.016928,0.030123,0.008929,-0.026279,0.034258,0.028222,-0.096032,0.020523,0.001807,1.000000,-0.000131,0.000171,0.000141,0.710288,0.084989,0.696054,0.061450,85.407310,78.056718,83.489474
08592,-9.752093,2.093947,0.201255,0.038502,0.034441,0.163573,-0.028285,0.033045,0.024755,-0.097523,0.020928,0.002026,1.000000,-0.000141,0.000165,0.000124,0.710199,0.085001,0.696123,0.061685,85.468792,78.037950,83.569124
08593,-9.801013,2.170866,0.148068,-0.012789,0.098297,0.226466,-0.053049,0.013374,0.017509,-0.098012,0.021700,0.001481,1.000000,-0.000265,0.000067,0.000088,0.710189,0.084906,0.696119,0.061977,85.462395,78.022073,83.594193
08594,-9.771853,2.237531,0.078171,-0.081095,0.170191,0.210597,-0.075181,0.007446,-0.001697,-0.097718,0.022376,0.000777,1.000000,-0.000376,0.000037,-0.000008,0.710217,0.084667,0.696094,0.062270,85.422239,78.017246,83.597418
08595,-9.636850,2.335209,0.023574,-0.131266,0.294949,0.097833,-0.088736,0.011822,-0.008921,-0.096367,0.023356,0.000231,1.000000,-0.000444,0.000059,-0.000045,0.710235,0.084353,0.696084,0.062591,85.385742,78.016488,83.612629
08596,-9.462066,2.364279,0.074327,-0.077555,0.357730,-0.066301,-0.105082,0.010919,-0.008290,-0.094620,0.023647,0.000736,1.000000,-0.000525,0.000055,-0.000041,0.710265,0.083984,0.696064,0.062966,85.336391,78.015589,83.623967
08597,-9.316261,2.365729,0.112710,-0.038037,0.387537,-0.207977,-0.135937,0.015278,-0.000864,-0.093162,0.023658,0.001118,1.000000,-0.000680,0.000076,-0.000004,0.710287,0.083529,0.696049,0.063486,85.284962,78.009950,83.651899
08598,-9.262995,2.251664,0.104436,-0.050494,0.285575,-0.283791,-0.183578,0.026736,0.020241,-0.092632,0.022508,0.001036,1.000000,-0.000918,0.000134,0.000101,0.710285,0.082976,0.696048,0.064243,85.239481,77.993511,83.713174
08599,-9.354038,2.124200,0.038045,-0.123890,0.140631,-0.222246,-0.229592,0.045248,0.033060,-0.093544,0.021227,0.000377,0.999999,-0.001148,0.000226,0.000165,0.710232,0.082297,0.696093,0.065215,85.220844,77.970521,83.829022
08600,-9.579324,2.062691,-0.050658,-0.219304,0.031298,-0.016177,-0.214701,0.061913,0.045919,-0.095798,0.020604,-0.000499,0.999999,-0.001074,0.000310,0.000230,0.710110,0.081710,0.696194,0.066185,85.257187,77.941099,83.992206
08601,-9.817735,2.086257,-0.108287,-0.280907,0.000835,0.220916,-0.178945,0.053787,0.037201,-0.098182,0.020843,-0.001075,1.000000,-0.000895,0.000269,0.000186,0.710003,0.081223,0.696282,0.067001,85.290811,77.915926,84.131913
08602,-9.921118,2.168667,-0.137531,-0.310135,0.056254,0.338729,-0.176688,0.053722,0.022566,-0.099214,0.021674,-0.001368,1.000000,-0.000883,0.000269,0.000113,0.709901,0.080693,0.696376,0.067752,85.321175,77.899416,84.266738
08603,-9.904367,2.145171,-0.121917,-0.293935,0.033548,0.317741,-0.177132,0.050270,0.008098,-0.099045,0.021447,-0.001213,1.000000,-0.000886,0.000251,0.000040,0.709813,0.080111,0.696463,0.068458,85.340053,77.890634,84.390481
08604,-9.871866,2.055672,-0.006625,-0.179035,-0.050717,0.269224,-0.133750,0.036006,-0.002819,-0.098718,0.020558,-0.000062,1.000000,-0.000669,0.000180,-0.000014,0.709763,0.079651,0.696517,0.068963,85.342112,77.887777,84.471204
08605,-9.752156,2.087456,0.066471,-0.103012,0.003698,0.160066,-0.100670,0.027979,-0.009434,-0.097520,0.020879,0.000668,1.000000,-0.000503,0.000140,-0.000047,0.709726,0.079286,0.696560,0.069330,85.343087,77.888170,84.531843
08606,-9.638843,2.178213,-0.012843,-0.179091,0.116967,0.066904,-0.101883,0.027883,-0.002182,-0.096388,0.021783,-0.000126,1.000000,-0.000509,0.000139,-0.000011,0.709691,0.078944,0.696596,0.069723,85.341911,77.884571,84.590584
08607,-9.457845,2.280088,-0.036687,-0.197969,0.253113,-0.089122,-0.066655,0.030959,0.012765,-0.094580,0.022795,-0.000360,1.000000,-0.000333,0.000155,0.000064,0.709624,0.078778,0.696649,0.070054,85.373156,77.872012,84.662298
08608,-9.411872,2.506740,0.113036,-0.043982,0.478301,-0.083907,0.009765,0.020372,0.046771,-0.094124,0.025045,0.001141,1.000000,0.000049,0.000102,0.000234,0.709554,0.079005,0.696678,0.070229,85.426306,77.840098,84.711180
08609,-9.346379,2.645822,0.320470,0.167197,0.617738,-0.114837,0.048303,0.002130,0.080344,-0.093474,0.026420,0.003212,1.000000,0.000242,0.000011,0.000402,0.709518,0.079492,0.696643,0.070386,85.461193,77.787834,84.719121
08610,-9.197857,2.701210,0.530552,0.380938,0.689240,-0.244071,0.046306,-0.006860,0.120005,-0.091995,0.026956,0.005309,1.000000,0.000232,-0.000034,0.000600,0.709502,0.080113,0.696558,0.070682,85.478301,77.712846,84.709717
08611,-9.082720,2.693955,0.463326,0.315347,0.693138,-0.358167,-0.008519,0.002020,0.159787,-0.090849,0.026867,0.004633,1.000000,-0.000043,0.000010,0.000799,0.709460,0.080675,0.696471,0.071320,85.496808,77.615112,84.734306
08612,-9.105740,2.670053,0.429031,0.279594,0.647234,-0.340062,-0.044140,0.017655,0.206474,-0.091085,0.026607,0.004292,0.999999,-0.000221,0.000088,0.001032,0.709363,0.081268,0.696405,0.072248,85.542922,77.491832,84.807669
08613,-9.138297,2.761648,0.324465,0.175006,0.708149,-0.288597,-0.046582,0.022380,0.260012,-0.091418,0.027498,0.003248,0.999999,-0.000233,0.000112,0.001300,0.709228,0.082037,0.696334,0.073382,85.610041,77.337613,84.904461
08614,-9.186981,2.857243,0.305652,0.156144,0.762757,-0.218334,-0.019676,0.019820,0.314342,-0.091914,0.028428,0.003063,0.999999,-0.000098,0.000099,0.001572,0.709072,0.083091,0.696238,0.074608,85.693297,77.152765,85.001622
08615,-9.248249,2.918145,0.310466,0.160681,0.774793,-0.142329,0.018825,0.011730,0.363798,-0.092535,0.029013,0.003113,0.999998,0.000094,0.000059,0.001819,0.708905,0.084456,0.696106,0.075877,85.785959,76.938848,85.086218
08616,-9.274148,3.017579,0.439947,0.291243,0.825099,-0.089344,0.032135,0.012372,0.416484,-0.092804,0.029982,0.004410,0.999998,0.000161,0.000062,0.002082,0.708709,0.086052,0.695956,0.077281,85.893086,76.695252,85.177575
08617,-9.328276,3.050272,0.382649,0.233414,0.800966,-0.026416,-0.002516,0.009576,0.469203,-0.093354,0.030284,0.003831,0.999997,-0.000013,0.000048,0.002346,0.708510,0.087709,0.695758,0.078999,85.980992,76.420659,85.270298
08618,-9.411986,3.139520,0.292934,0.141726,0.820118,0.078470,-0.036127,0.006721,0.514536,-0.094200,0.031153,0.002927,0.999997,-0.000181,0.000034,0.002573,0.708318,0.089405,0.695510,0.080985,86.045087,76.120731,85.357828
08619,-9.469442,3.215066,0.188412,0.034525,0.826764,0.155136,-0.051499,0.003890,0.561746,-0.094784,0.031885,0.001878,0.999996,-0.000257,0.000019,0.002809,0.708113,0.091211,0.695223,0.083197,86.100412,75.793054,85.446051
08620,-9.414002,3.198505,0.294222,0.137813,0.763823,0.103850,-0.050258,-0.009201,0.608623,-0.094237,0.031699,0.002930,0.999995,-0.000251,-0.000046,0.003043,0.707931,0.093189,0.694859,0.085557,86.129061,75.438688,85.505597
08621,-9.387090,3.146222,0.366797,0.206011,0.655772,0.070525,-0.048074,-0.019188,0.649930,-0.093973,0.031158,0.003651,0.999995,-0.000240,-0.000096,0.003250,0.707756,0.095324,0.694435,0.088058,86.142017,75.059407,85.548222
08622,-9.363527,3.078541,0.307701,0.141660,0.530573,0.033418,-0.061999,-0.021961,0.684949,-0.093740,0.030465,0.003057,0.999994,-0.000310,-0.000110,0.003425,0.707576,0.097529,0.693970,0.090720,86.144197,74.660909,85.587523
08623,-9.450208,3.040572,0.315243,0.142264,0.400107,0.110524,-0.033499,-0.019304,0.729340,-0.094612,0.030061,0.003138,0.999993,-0.000167,-0.000097,0.003647,0.707339,0.099988,0.693499,0.093452,86.174978,74.236086,85.640270
08624,-9.581549,3.112602,0.314105,0.133637,0.358576,0.259358,0.007382,-0.048351,0.758380,-0.095933,0.030762,0.003119,0.999993,0.000037,-0.000242,0.003792,0.707163,0.102703,0.692917,0.096118,86.171214,73.794594,85.632200
08625,-9.580286,3.206503,0.335353,0.148579,0.369712,0.287645,0.060186,-0.084786,0.785615,-0.095929,0.031687,0.003322,0.999992,0.000301,-0.000424,0.003928,0.707058,0.105718,0.692209,0.098687,86.133124,73.335077,85.557306
08626,-9.519663,3.360613,0.294405,0.101142,0.453669,0.276305,0.077060,-0.111218,0.806947,-0.095333,0.033221,0.002904,0.999992,0.000385,-0.000556,0.004035,0.707017,0.108875,0.691392,0.101247,86.059631,72.863367,85.434596
08627,-9.419885,3.494465,0.297514,0.096663,0.527667,0.224527,0.050871,-0.125608,0.822027,-0.094343,0.034556,0.002925,0.999991,0.000254,-0.000628,0.004110,0.707018,0.111997,0.690491,0.103948,85.953376,72.381858,85.293371
08628,-9.340674,3.648772,0.318727,0.107726,0.614116,0.201002,0.004668,-0.135579,0.838312,-0.093561,0.036096,0.003125,0.999991,0.000023,-0.000678,0.004192,0.707060,0.115014,0.689507,0.106852,85.811402,71.891091,85.141643
08629,-9.164169,3.674577,0.307038,0.085163,0.608328,0.046362,-0.076055,-0.131077,0.858551,-0.091800,0.036353,0.002996,0.999990,-0.000380,-0.000655,0.004293,0.707107,0.117812,0.688473,0.110112,85.642201,71.388344,85.009924
08630,-9.056466,3.512612,0.442516,0.205473,0.401894,-0.099321,-0.134211,-0.115972,0.871297,-0.090719,0.034734,0.004349,0.999990,-0.000671,-0.000580,0.004356,0.707117,0.120437,0.687438,0.113618,85.474056,70.879349,84.913745
08631,-8.918550,3.459125,0.479833,0.229691,0.311180,-0.242623,-0.132004,-0.112436,0.876659,-0.089339,0.034203,0.004725,0.999990,-0.000660,-0.000562,0.004383,0.707095,0.123084,0.686400,0.117141,85.320732,70.366890,84.832040
08632,-8.828919,3.553249,0.367622,0.104387,0.346812,-0.295400,-0.152447,-0.097834,0.888799,-0.088448,0.035142,0.003606,0.999990,-0.000762,-0.000489,0.004444,0.707014,0.125689,0.685380,0.120779,85.185604,69.848604,84.781476
08633,-8.750812,3.675105,0.238809,-0.037809,0.403929,-0.327176,-0.196696,-0.084083,0.905860,-0.087674,0.036356,0.002315,0.999989,-0.000983,-0.000420,0.004529,0.706887,0.128186,0.684356,0.124640,85.053453,69.320722,84.761377
08634,-8.782663,3.793930,0.260468,-0.033364,0.415891,-0.251193,-0.198037,-0.076450,0.930580,-0.088003,0.037533,0.002534,0.999989,-0.000990,-0.000382,0.004653,0.706705,0.130754,0.683327,0.128589,84.938228,68.779586,84.759745
08635,-8.690963,3.961897,0.306467,-0.001433,0.514333,-0.270249,-0.214488,-0.083168,0.963300,-0.087100,0.039203,0.002986,0.999988,-0.001072,-0.000416,0.004816,0.706517,0.133377,0.682226,0.132708,84.811455,68.218936,84.756238
08636,-8.643297,4.040032,0.269580,-0.055320,0.510576,-0.281864,-0.259332,-0.083662,1.007681,-0.086636,0.039968,0.002608,0.999986,-0.001297,-0.000418,0.005038,0.706314,0.135990,0.681045,0.137128,84.667013,67.633434,84.760964
08637,-8.619085,3.997009,0.368117,0.024637,0.381423,-0.312514,-0.277220,-0.093591,1.047376,-0.086400,0.039523,0.003586,0.999985,-0.001386,-0.000468,0.005237,0.706108,0.138678,0.679771,0.141743,84.507883,67.024252,84.761316
08638,-8.566477,4.093719,0.355101,-0.008452,0.389685,-0.319725,-0.301449,-0.093171,1.086574,-0.085887,0.040476,0.003450,0.999984,-0.001507,-0.000466,0.005433,0.705869,0.141409,0.678432,0.146570,84.344093,66.393250,84.771292
08639,-8.540470,4.094111,0.262617,-0.122098,0.295287,-0.343407,-0.331957,-0.102754,1.127862,-0.085635,0.040463,0.002515,0.999983,-0.001660,-0.000514,0.005639,0.705627,0.144175,0.676985,0.151639,84.160268,65.737660,84.778942
08640,-8.509130,4.041202,0.289297,-0.116182,0.151440,-0.390223,-0.319410,-0.111478,1.162450,-0.085326,0.039921,0.002781,0.999982,-0.001597,-0.000557,0.005812,0.705357,0.147103,0.675467,0.156771,83.981206,65.062370,84.783542
08641,-8.457958,3.932750,0.346967,-0.076392,-0.035563,-0.479102,-0.293726,-0.120072,1.182317,-0.084812,0.038832,0.003362,0.999981,-0.001469,-0.000600,0.005912,0.705052,0.150190,0.673899,0.161880,83.813620,64.374727,84.785003
08642,-8.471242,3.916280,0.383345,-0.060172,-0.166814,-0.473862,-0.219238,-0.118239,1.185768,-0.084945,0.038664,0.003741,0.999982,-0.001096,-0.000591,0.005929,0.704657,0.153544,0.672369,0.166739,83.694444,63.685756,84.792426
08643,-8.635923,4.130405,0.216158,-0.257466,-0.161077,-0.242273,-0.205425,-0.102285,1.176198,-0.086601,0.040797,0.002075,0.999982,-0.001027,-0.000511,0.005881,0.704178,0.156896,0.670890,0.171530,83.602750,63.002737,84.822197
08644,-8.901736,4.488022,-0.045905,-0.559060,-0.080343,0.140462,-0.249865,-0.093419,1.169998,-0.089278,0.044358,-0.000556,0.999982,-0.001249,-0.000467,0.005850,0.703686,0.160057,0.669384,0.176443,83.495776,62.324357,84.863198
08645,-9.052256,4.778531,-0.050396,-0.599222,-0.011904,0.405913,-0.248197,-0.101268,1.166110,-0.090799,0.047256,-0.000609,0.999982,-0.001241,-0.000506,0.005831,0.703195,0.163213,0.667831,0.181330,83.382650,61.647205,84.896804
08646,-9.077337,4.878136,0.237525,-0.336292,-0.053391,0.489425,-0.194631,-0.119859,1.166924,-0.091057,0.048253,0.002274,0.999982,-0.000973,-0.000599,0.005835,0.702697,0.166569,0.666236,0.186013,83.282128,60.968891,84.909604
08647,-8.926061,4.976143,0.503047,-0.088516,-0.011604,0.418658,-0.169390,-0.147270,1.165282,-0.089552,0.049244,0.004923,0.999982,-0.000847,-0.000736,0.005826,0.702244,0.170029,0.664546,0.190582,83.170443,60.289167,84.893473
08648,-8.651280,4.925607,0.579390,-0.019641,-0.036875,0.159227,-0.188408,-0.166089,1.156823,-0.086801,0.048760,0.005676,0.999982,-0.000942,-0.000830,0.005784,0.701855,0.173406,0.662754,0.195157,83.030964,59.613447,84.857321
08649,-8.445589,4.858884,0.670576,0.062124,-0.104165,-0.046900,-0.159570,-0.164743,1.150606,-0.084739,0.048107,0.006598,0.999983,-0.000798,-0.000824,0.005753,0.701415,0.176856,0.660978,0.199614,82.912304,58.940815,84.826296
08650,-8.301885,5.003724,0.706946,0.078604,-0.017934,-0.094109,-0.139458,-0.159893,1.141740,-0.083308,0.049567,0.006968,0.999983,-0.000697,-0.000799,0.005709,0.700929,0.180336,0.659224,0.203965,82.811131,58.274042,84.801655
08651,-8.290377,5.159677,0.560249,-0.093629,0.007012,-0.032266,-0.163426,-0.138843,1.128685,-0.083197,0.051132,0.005503,0.999984,-0.000817,-0.000694,0.005643,0.700381,0.183662,0.657508,0.208367,82.716514,57.615689,84.801148
08652,-8.410666,5.405953,0.500088,-0.190968,0.039083,0.196044,-0.195637,-0.120084,1.100512,-0.084405,0.053600,0.004898,0.999984,-0.000978,-0.000600,0.005503,0.699811,0.186757,0.655829,0.212782,82.618256,56.975215,84.817867
08653,-8.519617,5.573900,0.594081,-0.131004,0.011962,0.384706,-0.210984,-0.109296,1.075783,-0.085498,0.055286,0.005836,0.999985,-0.001055,-0.000546,0.005379,0.699220,0.189699,0.654173,0.217168,82.519399,56.349110,84.844881
08654,-8.540969,5.759587,0.608504,-0.148811,0.045418,0.505551,-0.241003,-0.111084,1.055713,-0.085715,0.057151,0.005968,0.999985,-0.001205,-0.000555,0.005279,0.698667,0.192467,0.652478,0.221569,82.400526,55.734796,84.868326
08655,-8.481148,5.769150,0.675533,-0.103838,-0.020039,0.466278,-0.322134,-0.114968,1.039542,-0.085114,0.057260,0.006614,0.999985,-0.001611,-0.000575,0.005198,0.698199,0.194898,0.650675,0.226174,82.232282,55.128905,84.888795
08656,-8.425956,5.748650,0.649267,-0.153701,-0.112135,0.406319,-0.379405,-0.105233,1.030631,-0.084558,0.057063,0.006340,0.999985,-0.001897,-0.000526,0.005153,0.697747,0.197082,0.648830,0.230930,82.040096,54.529370,84.919908
08657,-8.305806,5.730870,0.609068,-0.216331,-0.162278,0.293063,-0.422160,-0.109038,1.016388,-0.083351,0.056898,0.005925,0.999985,-0.002111,-0.000545,0.005082,0.697340,0.199069,0.646916,0.235770,81.821569,53.937183,84.949329
08658,-8.078359,5.805433,0.525474,-0.322925,-0.072979,0.143645,-0.389132,-0.102089,1.015055,-0.081080,0.057653,0.005101,0.999985,-0.001946,-0.000510,0.005075,0.696862,0.201153,0.645046,0.240492,81.629238,53.346882,84.987649
08659,-7.597005,5.878268,0.605219,-0.250727,0.173855,-0.192871,-0.367219,-0.077271,1.026393,-0.076273,0.058403,0.005915,0.999985,-0.001836,-0.000386,0.005132,0.696243,0.203314,0.643259,0.245207,81.471482,52.751829,85.054156
08660,-7.347507,5.492529,0.896301,0.062978,-0.072121,-0.596011,-0.271193,-0.033095,1.068955,-0.073769,0.054544,0.008877,0.999985,-0.001356,-0.000165,0.005345,0.695314,0.205886,0.641680,0.249793,81.406074,52.136996,85.167945
08661,-7.532549,5.527363,0.849378,-0.008355,-0.259092,-0.434818,-0.224474,-0.008235,1.087337,-0.075625,0.054873,0.008429,0.999985,-0.001122,-0.000041,0.005437,0.694210,0.208641,0.640207,0.254316,81.386247,51.513443,85.306957
08662,-7.950836,5.896115,0.367472,-0.552472,-0.351828,0.070885,-0.302005,0.006583,1.088489,-0.079828,0.058533,0.003589,0.999984,-0.001510,0.000033,0.005442,0.693118,0.211106,0.638664,0.259093,81.330370,50.891057,85.457584
08663,-8.290102,6.308159,0.408298,-0.578096,-0.354678,0.590404,-0.226221,-0.016566,1.082203,-0.083241,0.062636,0.004005,0.999985,-0.001131,-0.000083,0.005411,0.692004,0.213837,0.637127,0.263579,81.299601,50.269822,85.586155
08664,-8.217032,6.684139,0.727488,-0.301047,-0.120029,0.799591,-0.101208,-0.054500,1.069339,-0.082528,0.066404,0.007219,0.999986,-0.000506,-0.000273,0.005347,0.690875,0.217002,0.635617,0.267568,81.311239,49.653079,85.677400
08665,-7.922919,6.795284,0.919153,-0.112518,0.048873,0.664779,-0.046257,-0.070578,1.061541,-0.079592,0.067533,0.009148,0.999986,-0.000231,-0.000353,0.005308,0.689726,0.220348,0.634115,0.271336,81.341512,49.038872,85.752842
08666,-7.633659,6.681559,0.741830,-0.267924,0.034454,0.355515,-0.025022,-0.065910,1.056244,-0.076690,0.066412,0.007385,0.999986,-0.000125,-0.000330,0.005281,0.688528,0.223737,0.632646,0.275010,81.384481,48.428507,85.829392
08667,-7.501197,6.453218,0.677683,-0.302797,-0.159173,0.099592,0.088974,-0.070848,1.061774,-0.075356,0.064130,0.006779,0.999986,0.000445,-0.000354,0.005309,0.687188,0.227537,0.631292,0.278334,81.488377,47.814052,85.901064
08668,-7.318749,6.458381,0.787331,-0.176792,-0.134861,-0.022677,0.229818,-0.072232,1.053548,-0.073529,0.064188,0.007921,0.999985,0.001149,-0.000361,0.005268,0.685686,0.231790,0.630120,0.281171,81.668276,47.204499,85.966775
08669,-7.194607,6.605969,0.838615,-0.117427,-0.045515,-0.010255,0.303820,-0.057397,1.046002,-0.072293,0.065669,0.008465,0.999985,0.001519,-0.000287,0.005230,0.684039,0.236246,0.629093,0.283762,81.895872,46.599820,86.040660
08670,-7.165604,6.831779,0.903270,-0.052063,0.035688,0.128643,0.299846,-0.031403,1.039031,-0.072011,0.067931,0.009123,0.999985,0.001499,-0.000157,0.005195,0.682307,0.240621,0.628138,0.286360,82.132070,46.001434,86.130054
08671,-7.075330,7.058048,0.841090,-0.111180,0.153711,0.214618,0.205437,-0.018215,1.035983,-0.071118,0.070204,0.008477,0.999986,0.001027,-0.000091,0.005180,0.680629,0.244639,0.627079,0.289255,82.318306,45.405112,86.226389
08672,-7.065564,7.017599,1.122707,0.187087,0.035164,0.206905,0.133206,0.005016,1.030296,-0.071016,0.069803,0.011275,0.999987,0.000666,0.000025,0.005151,0.678958,0.248353,0.625983,0.292374,82.472491,44.814051,86.336620
08673,-7.135971,7.042575,1.427960,0.496673,-0.091952,0.301807,0.097168,0.006634,1.008431,-0.071713,0.070058,0.014316,0.999987,0.000486,0.000033,0.005042,0.677338,0.251868,0.624851,0.295530,82.602594,44.234872,86.443355
08674,-7.106726,7.196235,1.148996,0.212686,-0.072225,0.363771,-0.032076,0.016168,0.966704,-0.071413,0.071620,0.011484,0.999988,-0.000160,0.000081,0.004834,0.675898,0.254793,0.623596,0.298948,82.658264,43.680451,86.550369
08675,-7.037045,7.415066,0.861440,-0.090742,0.023421,0.445760,-0.096810,0.014292,0.942647,-0.070718,0.073822,0.008584,0.999989,-0.000484,0.000071,0.004713,0.674564,0.257422,0.622256,0.302482,82.672706,43.139050,86.652694
08676,-6.909907,7.446219,0.755718,-0.198772,0.037840,0.371732,-0.123151,-0.002049,0.937481,-0.069447,0.074142,0.007511,0.999989,-0.000616,-0.000010,0.004687,0.673310,0.259965,0.620811,0.306047,82.661498,42.599854,86.740278
08677,-6.865684,7.213097,0.904516,-0.035041,-0.177832,0.184860,-0.116400,-0.016027,0.929430,-0.068992,0.071816,0.008998,0.999989,-0.000582,-0.000080,0.004647,0.672085,0.262521,0.619328,0.309545,82.645652,42.063758,86.816375
08678,-6.878603,6.817719,0.946084,0.033981,-0.541616,-0.096906,-0.110490,-0.051015,0.894103,-0.069092,0.067874,0.009406,0.999990,-0.000552,-0.000255,0.004471,0.671003,0.265036,0.617768,0.312848,82.612104,41.545653,86.861368
08679,-6.764128,6.641549,0.819528,-0.078764,-0.661328,-0.321053,-0.080540,-0.065069,0.845714,-0.067924,0.066132,0.008147,0.999991,-0.000403,-0.000325,0.004229,0.669984,0.267519,0.616261,0.315876,82.585530,41.053568,86.891608
08680,-6.647937,6.591163,0.851974,-0.041092,-0.684564,-0.437530,0.015863,-0.065137,0.797219,-0.066744,0.065645,0.008503,0.999992,0.000079,-0.000326,0.003986,0.668905,0.270170,0.614958,0.318434,82.610489,40.589487,86.916242
08681,-6.576330,6.755448,0.853369,-0.050776,-0.597317,-0.365326,0.080279,-0.059183,0.746810,-0.066017,0.067305,0.008541,0.999993,0.000401,-0.000296,0.003734,0.667787,0.272869,0.613838,0.320633,82.671789,40.154037,86.940434
08682,-6.427033,7.045083,0.853711,-0.066964,-0.367348,-0.245612,0.081607,-0.037930,0.716543,-0.064524,0.070216,0.008554,0.999993,0.000408,-0.000190,0.003583,0.666645,0.275441,0.612823,0.322747,82.741224,39.737751,86.976119
08683,-6.235238,7.021467,0.890530,-0.017299,-0.303038,-0.385083,0.006804,-0.019053,0.709624,-0.062602,0.069993,0.008902,0.999994,0.000034,-0.000095,0.003548,0.665546,0.277709,0.611752,0.325093,82.775846,39.326313,87.024942
08684,-6.196530,6.875280,1.141493,0.248952,-0.425009,-0.499980,0.013174,-0.010338,0.686145,-0.062201,0.068539,0.011416,0.999994,0.000066,-0.000052,0.003431,0.664446,0.279908,0.610745,0.327345,82.815870,38.929245,87.076774
08685,-6.161371,6.855016,1.007142,0.117458,-0.476781,-0.553818,-0.074249,-0.010091,0.648674,-0.061836,0.068354,0.010043,0.999995,-0.000371,-0.000050,0.003243,0.663517,0.281699,0.609641,0.329741,82.803475,38.553074,87.125497
08686,-6.100590,6.885088,0.870358,-0.021865,-0.473765,-0.584797,-0.043009,0.001008,0.625335,-0.061221,0.068662,0.008689,0.999995,-0.000215,0.000005,0.003127,0.662545,0.283500,0.608652,0.331971,82.812023,38.191380,87.179341
08687,-6.029918,7.102790,0.898762,-0.012187,-0.340993,-0.458511,-0.027402,0.008894,0.615394,-0.060517,0.070843,0.008981,0.999995,-0.000137,0.000044,0.003077,0.661534,0.285308,0.607723,0.334134,82.832197,37.835491,87.238133
08688,-6.073476,7.110725,0.941280,0.028670,-0.426962,-0.423749,0.006741,0.000075,0.602541,-0.060949,0.070924,0.009415,0.999995,0.000034,0.000000,0.003013,0.660519,0.287201,0.606834,0.336130,82.866539,37.486658,87.288402
08689,-6.067611,7.032376,0.971980,0.069978,-0.525630,-0.488872,0.059585,-0.024821,0.583114,-0.060882,0.070144,0.009733,0.999996,0.000298,-0.000124,0.002916,0.659527,0.289249,0.605974,0.337867,82.918968,37.146687,87.319104
08690,-6.065973,7.194439,0.984499,0.072972,-0.480620,-0.363419,0.113914,-0.031086,0.552569,-0.060860,0.071771,0.009876,0.999996,0.000570,-0.000155,0.002763,0.658525,0.291392,0.605224,0.339322,82.997486,36.824006,87.341516
08691,-6.042994,7.327697,1.107601,0.193060,-0.430759,-0.261946,0.160767,-0.033258,0.502186,-0.060616,0.073116,0.011125,0.999997,0.000804,-0.000166,0.002511,0.657538,0.293538,0.604616,0.340468,83.099023,36.529426,87.357817
08692,-5.838877,7.423275,1.121379,0.216584,-0.256576,-0.307842,0.161488,-0.026113,0.445860,-0.058556,0.074093,0.011266,0.999997,0.000807,-0.000131,0.002229,0.656623,0.295502,0.604110,0.341431,83.200427,36.267731,87.373173
08693,-5.639200,7.476689,1.096348,0.203876,-0.106511,-0.386638,0.106529,-0.009730,0.402145,-0.056543,0.074647,0.011001,0.999998,0.000533,-0.000049,0.002011,0.655809,0.297124,0.603627,0.342442,83.274837,36.031628,87.396365
08694,-5.509879,7.634345,0.915966,0.020415,0.048645,-0.353401,0.031700,0.004440,0.376179,-0.055242,0.076238,0.009173,0.999998,0.000159,0.000022,0.001881,0.655107,0.298397,0.603097,0.343610,83.310465,35.811598,87.426533
08695,-5.575533,7.823894,0.880146,-0.034078,0.070061,-0.165492,-0.042057,0.019391,0.352263,-0.055892,0.078142,0.008790,0.999998,-0.000210,0.000097,0.001761,0.654506,0.299330,0.602524,0.344947,83.308825,35.605804,87.465534
08696,-5.603318,7.958300,0.915024,-0.019445,0.093671,-0.037221,-0.167739,0.021229,0.319944,-0.056159,0.079501,0.009089,0.999998,-0.000839,0.000106,0.001600,0.654144,0.299749,0.601785,0.346555,83.234099,35.418907,87.502745
08697,-5.577513,7.784805,1.059188,0.128777,-0.012303,-0.178534,-0.185927,0.029763,0.295977,-0.055889,0.077775,0.010528,0.999998,-0.000930,0.000149,0.001480,0.653820,0.300021,0.601078,0.348154,83.151487,35.245902,87.544626
08698,-5.595703,7.545979,0.965817,0.045757,-0.195103,-0.370957,-0.165046,0.010690,0.282081,-0.056063,0.075389,0.009599,0.999999,-0.000825,0.000053,0.001410,0.653548,0.300352,0.600363,0.349612,83.072338,35.079904,87.571798
08699,-5.518038,7.237883,0.750852,-0.145692,-0.341108,-0.687895,-0.113486,-0.010915,0.276679,-0.055281,0.072307,0.007464,0.999999,-0.000567,-0.000055,0.001383,0.653267,0.300872,0.599675,0.350868,83.014112,34.915142,87.584175
08700,-5.417350,7.052586,0.637899,-0.239959,-0.393584,-0.908698,0.024163,-0.011465,0.274443,-0.054271,0.070451,0.006384,0.999999,0.000121,-0.000057,0.001372,0.652787,0.301835,0.599227,0.351698,83.034220,34.751981,87.595550
08701,-5.395444,7.072117,0.850752,-0.022094,-0.384342,-0.885137,0.186802,-0.011707,0.273403,-0.054052,0.070639,0.008570,0.999999,0.000934,-0.000059,0.001367,0.652059,0.303327,0.599066,0.352040,83.147405,34.589031,87.606884
08702,-5.384442,7.399062,0.964757,0.076630,-0.212596,-0.613887,0.267832,-0.016296,0.263545,-0.053943,0.073907,0.009742,0.999998,0.001339,-0.000081,0.001318,0.651240,0.305059,0.599045,0.352096,83.304256,34.431711,87.613287
08703,-5.419283,7.934882,1.090868,0.171956,0.038494,-0.143673,0.279063,-0.001590,0.255292,-0.054294,0.079264,0.011019,0.999998,0.001395,-0.000008,0.001276,0.650369,0.306776,0.599102,0.352115,83.472771,34.279700,87.629074
08704,-5.500334,8.387482,1.266347,0.324396,0.204094,0.289796,0.237852,0.005541,0.242676,-0.055105,0.083793,0.012765,0.999999,0.001189,0.000028,0.001213,0.649563,0.308308,0.599127,0.352224,83.619344,34.135641,87.647799
08705,-5.542803,8.653408,1.229398,0.277533,0.291965,0.529133,0.104399,-0.001975,0.221990,-0.055524,0.086466,0.012339,0.999999,0.000522,-0.000010,0.001110,0.649017,0.309358,0.598923,0.352656,83.685634,34.002509,87.659873
08706,-5.570781,8.635226,1.226654,0.279587,0.236311,0.530009,-0.010481,0.004140,0.184836,-0.055787,0.086301,0.012263,1.000000,-0.000052,0.000021,0.000924,0.648698,0.309911,0.598593,0.353317,83.686592,33.891264,87.672761
08707,-5.637516,8.525918,1.198192,0.253164,0.101946,0.474879,-0.108967,-0.010842,0.136471,-0.056434,0.085227,0.011932,1.000000,-0.000545,-0.000054,0.000682,0.648658,0.310027,0.598115,0.354095,83.623548,33.806262,87.672195
08708,-5.539599,8.211294,1.055343,0.129448,-0.008022,0.147705,-0.174515,-0.011267,0.108653,-0.055441,0.082092,0.010479,0.999999,-0.000873,-0.000056,0.000543,0.648773,0.309847,0.597562,0.354976,83.521488,33.737424,87.668891
08709,-5.412009,7.885797,0.906413,-0.000527,-0.096789,-0.206032,-0.182840,-0.019116,0.094209,-0.054158,0.078841,0.008987,0.999999,-0.000914,-0.000096,0.000471,0.648947,0.309612,0.596990,0.355825,83.411321,33.675936,87.659683
08710,-5.325571,7.664526,0.839467,-0.056985,-0.158518,-0.443430,-0.131581,-0.005593,0.087545,-0.053289,0.076627,0.008343,1.000000,-0.000658,-0.000028,0.000438,0.649014,0.309497,0.596563,0.356516,83.335248,33.619478,87.658873
08711,-5.400125,7.578475,0.995700,0.097065,-0.273118,-0.458435,-0.040042,-0.000677,0.078660,-0.054031,0.075765,0.009942,1.000000,-0.000200,-0.000003,0.000393,0.648938,0.309645,0.596330,0.356917,83.313304,33.568050,87.661210
08712,-5.364195,7.671066,0.868091,-0.039800,-0.203084,-0.414252,-0.013152,-0.006410,0.074433,-0.053671,0.076691,0.008674,1.000000,-0.000066,-0.000032,0.000372,0.648848,0.309878,0.596131,0.357211,83.304241,33.518998,87.658870
08713,-5.367961,7.867997,0.822313,-0.103129,-0.106266,-0.253679,0.050488,-0.009318,0.066051,-0.053706,0.078660,0.008240,1.000000,0.000252,-0.000047,0.000330,0.648680,0.310297,0.596050,0.357287,83.330355,33.474176,87.654299
08714,-5.409365,8.087198,0.889076,-0.053755,-0.025516,-0.042789,0.086091,-0.004829,0.059603,-0.054118,0.080852,0.008924,1.000000,0.000430,-0.000024,0.000298,0.648457,0.310804,0.596057,0.357240,83.378078,33.433670,87.651815
08715,-5.495089,8.210445,0.897675,-0.053674,-0.035388,0.107449,0.071831,-0.007226,0.045828,-0.054970,0.082089,0.009004,1.000000,0.000359,-0.000036,0.000229,0.648286,0.311228,0.596052,0.357190,83.416297,33.400504,87.647004
08716,-5.419184,8.245650,0.992575,0.043652,0.044367,0.103946,0.028370,-0.004049,0.031060,-0.054205,0.082447,0.009936,1.000000,0.000142,-0.000020,0.000155,0.648201,0.311462,0.596002,0.357223,83.429979,33.376298,87.642752
08717,-5.297770,8.080456,0.930200,0.000300,0.049295,-0.105835,-0.024320,-0.014841,0.026087,-0.052989,0.080799,0.009288,1.000000,-0.000122,-0.000074,0.000130,0.648237,0.311529,0.595831,0.357384,83.409396,33.353870,87.631185
08718,-5.191222,8.060914,0.928661,0.001872,0.123800,-0.180751,-0.012132,-0.006708,0.026819,-0.051923,0.080603,0.009280,1.000000,-0.000061,-0.000034,0.000134,0.648231,0.311623,0.595707,0.357520,83.398702,33.331902,87.624799
08719,-5.200516,7.984484,1.047341,0.126382,0.072957,-0.227648,0.011574,0.006815,0.026496,-0.052015,0.079837,0.010480,1.000000,0.000058,0.000034,0.000132,0.648146,0.311770,0.595670,0.357609,83.406821,33.310662,87.628030
08720,-5.166040,8.008175,0.859803,-0.062205,0.107037,-0.244889,-0.033823,0.002612,0.029373,-0.051672,0.080076,0.008585,1.000000,-0.000169,0.000013,0.000147,0.648141,0.311784,0.595533,0.357832,83.387300,33.287853,87.628198
08721,-5.180396,7.917167,0.903865,-0.011714,0.041760,-0.308313,-0.003098,0.016116,0.040166,-0.051819,0.079161,0.009042,1.000000,-0.000015,0.000081,0.000201,0.648027,0.311907,0.595478,0.358024,83.391078,33.259445,87.638844
08722,-5.301887,8.055470,0.978048,0.047806,0.013157,-0.119663,0.064812,0.002091,0.035744,-0.053033,0.080542,0.009807,1.000000,0.000324,0.000010,0.000179,0.647859,0.312261,0.595506,0.357973,83.428147,33.232975,87.639153
08723,-5.257799,8.148061,0.812613,-0.121433,0.092503,-0.082714,0.004097,-0.006738,0.035816,-0.052593,0.081471,0.008126,1.000000,0.000020,-0.000034,0.000179,0.647808,0.312436,0.595397,0.358093,83.427318,33.205537,87.633878
08724,-5.289145,8.178220,1.146194,0.209095,0.085236,-0.008550,0.065884,0.000366,0.038030,-0.052907,0.081768,0.011489,1.000000,0.000329,0.000002,0.000190,0.647639,0.312803,0.595417,0.358044,83.464447,33.177653,87.633172
08725,-5.284371,8.375271,1.064264,0.113328,0.191217,0.144872,0.033873,-0.009813,0.020152,-0.052853,0.083746,0.010654,1.000000,0.000169,-0.000049,0.000101,0.647580,0.313033,0.595376,0.358020,83.478858,33.158933,87.624566
08726,-5.259592,8.329714,0.853591,-0.094577,0.180034,0.073399,-0.099272,0.003885,0.010686,-0.052600,0.083299,0.008496,1.000000,-0.000496,0.000019,0.000053,0.647707,0.312777,0.595155,0.358379,83.421500,33.146844,87.624116
08727,-5.273109,8.056456,1.057390,0.125333,0.022082,-0.126923,-0.084691,0.010362,0.002987,-0.052732,0.080568,0.010543,1.000000,-0.000423,0.000052,0.000015,0.647804,0.312536,0.594993,0.358684,83.374758,33.139206,87.627907
08728,-5.314090,8.040532,1.140150,0.201378,-0.019095,-0.109661,-0.066873,-0.003657,-0.017715,-0.053134,0.080414,0.011374,1.000000,-0.000334,-0.000018,-0.000089,0.647954,0.312314,0.594850,0.358843,83.331944,33.142780,87.620105
08729,-5.293642,7.900962,1.107197,0.176917,-0.077586,-0.239996,-0.049359,-0.009027,-0.033728,-0.052924,0.079021,0.011050,1.000000,-0.000247,-0.000045,-0.000169,0.648119,0.312113,0.594746,0.358894,83.296643,33.154746,87.607800
08730,-5.296562,8.100146,1.087632,0.134339,0.030909,-0.074624,-0.031374,-0.013430,-0.034948,-0.052952,0.081012,0.010860,1.000000,-0.000157,-0.000067,-0.000175,0.648273,0.311973,0.594662,0.358876,83.269774,33.167462,87.591969
08731,-5.225024,8.222196,1.017864,0.048338,0.157879,-0.019110,-0.125860,-0.012718,-0.022667,-0.052242,0.082234,0.010124,1.000000,-0.000629,-0.000064,-0.000113,0.648548,0.311562,0.594391,0.359184,83.189734,33.172871,87.578018
08732,-5.334039,8.171307,1.169991,0.191586,0.043307,0.013428,-0.074975,-0.001814,-0.012661,-0.053335,0.081721,0.011669,1.000000,-0.000375,-0.000009,-0.000063,0.648696,0.311326,0.594231,0.359386,83.143175,33.173673,87.571864
08733,-5.472636,8.097585,1.089364,0.107438,-0.114435,0.020049,-0.057111,-0.009796,-0.014537,-0.054721,0.080983,0.010868,1.000000,-0.000286,-0.000049,-0.000073,0.648841,0.311157,0.594081,0.359520,83.103965,33.174632,87.560550
08734,-5.484896,8.110112,1.036657,0.048490,-0.117923,0.031925,-0.026910,-0.026633,-0.030776,-0.054838,0.081111,0.010348,1.000000,-0.000135,-0.000133,-0.000154,0.649020,0.311068,0.593955,0.359482,83.074898,33.184020,87.536036
08735,-5.436567,8.092435,1.109706,0.121238,-0.083469,-0.001798,-0.013755,-0.019169,-0.037091,-0.054352,0.080935,0.011086,1.000000,-0.000069,-0.000096,-0.000185,0.649165,0.310990,0.593887,0.359400,83.056014,33.197152,87.516478
08736,-5.380193,8.175281,1.028288,0.031362,0.010274,0.027942,-0.009705,-0.033921,-0.052254,-0.053782,0.081767,0.010270,1.000000,-0.000049,-0.000170,-0.000261,0.649378,0.310906,0.593801,0.359230,83.033096,33.218234,87.485212
08737,-5.216253,8.376508,1.083211,0.067839,0.263121,0.110754,-0.052124,-0.022440,-0.059099,-0.052139,0.083783,0.010804,1.000000,-0.000261,-0.000112,-0.000295,0.649632,0.310643,0.593688,0.359185,82.989977,33.243639,87.461568
08738,-5.240142,8.361692,1.102302,0.079057,0.240724,0.113432,-0.116992,-0.004453,-0.065140,-0.052374,0.083640,0.010973,1.000000,-0.000585,-0.000022,-0.000326,0.649946,0.310119,0.593525,0.359337,82.915928,33.274077,87.449199
08739,-5.314066,8.236207,0.993193,-0.033073,0.113610,0.038546,-0.179598,-0.011562,-0.073043,-0.053111,0.082390,0.009855,1.000000,-0.000898,-0.000058,-0.000365,0.650390,0.309382,0.593239,0.359642,82.803104,33.308124,87.431670
08740,-5.363175,8.211957,0.865382,-0.175251,0.062570,0.031809,-0.172299,-0.011481,-0.070148,-0.053603,0.082146,0.008580,1.000000,-0.000861,-0.000057,-0.000351,0.650820,0.308675,0.592961,0.359930,82.694414,33.340863,87.413948
08741,-5.451855,8.062425,1.076194,0.033361,-0.083072,-0.021079,-0.108669,-0.020739,-0.056913,-0.054497,0.080646,0.010712,1.000000,-0.000543,-0.000104,-0.000285,0.651152,0.308232,0.592747,0.360062,82.619475,33.365016,87.391437
08742,-5.306102,8.025485,0.985933,-0.056774,0.019888,-0.141515,-0.076546,-0.045112,-0.047230,-0.053044,0.080271,0.009817,1.000000,-0.000383,-0.000226,-0.000236,0.651491,0.307966,0.592496,0.360090,82.554098,33.382206,87.352742
08743,-5.128995,8.028523,1.033686,-0.010422,0.172809,-0.231335,-0.051713,-0.030850,-0.026998,-0.051281,0.080295,0.010308,1.000000,-0.000259,-0.000154,-0.000135,0.651711,0.307815,0.592306,0.360135,82.509426,33.388569,87.325945
08744,-5.142922,8.166495,1.045777,-0.019123,0.238355,-0.108164,-0.046073,-0.020567,-0.013425,-0.051425,0.081671,0.010434,1.000000,-0.000230,-0.000103,-0.000067,0.651870,0.307704,0.592137,0.360219,82.472335,33.388340,87.306939
08745,-5.231533,8.279007,1.012880,-0.072422,0.225537,0.030113,-0.054083,-0.009325,-0.007262,-0.052313,0.082795,0.010104,1.000000,-0.000270,-0.000047,-0.000036,0.651994,0.307565,0.591982,0.360369,82.435336,33.385076,87.296557
08746,-5.341727,8.344215,0.950867,-0.150429,0.167638,0.137859,-0.045292,-0.013665,-0.006404,-0.053415,0.083446,0.009486,1.000000,-0.000226,-0.000068,-0.000032,0.652118,0.307464,0.591827,0.360485,82.401627,33.381362,87.282882
08747,-5.503155,8.254340,1.077151,-0.025706,-0.013578,0.166203,-0.016800,-0.020192,-0.012079,-0.055028,0.082548,0.010759,1.000000,-0.000084,-0.000101,-0.000060,0.652225,0.307452,0.591710,0.360491,82.381690,33.379994,87.264682
08748,-5.400353,8.215224,1.164980,0.067002,0.054093,0.086983,-0.006253,-0.031148,-0.039691,-0.053989,0.082163,0.011639,1.000000,-0.000031,-0.000156,-0.000198,0.652401,0.307412,0.591619,0.360356,82.362139,33.393843,87.236088
08749,-5.281321,8.143211,1.148376,0.058687,0.116837,-0.039975,-0.047272,-0.028297,-0.061914,-0.052790,0.081451,0.011457,1.000000,-0.000236,-0.000141,-0.000310,0.652669,0.307168,0.591498,0.360278,82.319187,33.420140,87.207811
08750,-5.223168,8.077930,1.041533,-0.043605,0.132207,-0.137986,-0.048666,-0.010908,-0.076554,-0.052201,0.080802,0.010393,1.000000,-0.000243,-0.000055,-0.000383,0.652917,0.306844,0.591454,0.360179,82.281012,33.456444,87.189560
08751,-5.209966,8.203455,1.045331,-0.058527,0.218899,-0.041209,-0.060052,-0.018628,-0.075291,-0.052070,0.082057,0.010424,1.000000,-0.000300,-0.000093,-0.000376,0.653200,0.306501,0.591361,0.360110,82.233620,33.491043,87.166560
08752,-5.231363,8.165436,1.097423,-0.009562,0.187035,-0.055087,-0.054188,-0.010574,-0.061472,-0.052289,0.081673,0.010949,1.000000,-0.000271,-0.000053,-0.000307,0.653428,0.306202,0.591284,0.360077,82.193120,33.518788,87.149860
08753,-5.278179,8.109231,1.138781,0.030188,0.121899,-0.071032,-0.042406,-0.029054,-0.042151,-0.052766,0.081106,0.011363,1.000000,-0.000212,-0.000145,-0.000211,0.653654,0.306034,0.591139,0.360047,82.153573,33.533728,87.122791
08754,-5.249232,7.918653,1.119778,0.028081,0.042501,-0.246560,-0.036764,-0.028753,-0.034228,-0.052480,0.079198,0.011176,1.000000,-0.000184,-0.000144,-0.000171,0.653860,0.305905,0.590992,0.360024,82.117596,33.544566,87.096224
08755,-5.292051,7.858223,1.104574,0.014623,-0.025020,-0.274516,0.009767,-0.033049,-0.036232,-0.052908,0.078591,0.011041,1.000000,0.000049,-0.000165,-0.000181,0.654008,0.305932,0.590918,0.359854,82.106722,33.555805,87.066966
08756,-5.267716,7.935087,1.120242,0.021988,0.040356,-0.222731,0.022454,-0.029839,-0.039548,-0.052663,0.079360,0.011203,1.000000,0.000112,-0.000149,-0.000198,0.654136,0.305984,0.590883,0.359637,82.103971,33.569565,87.039142
08757,-5.334695,8.070795,1.148701,0.031058,0.062984,-0.070445,-0.007581,-0.033063,-0.042678,-0.053332,0.080720,0.011475,1.000000,-0.000038,-0.000165,-0.000213,0.654322,0.305934,0.590787,0.359496,82.082795,33.584453,87.009251
08758,-5.359460,7.901623,1.112597,0.008986,-0.049540,-0.200466,-0.019851,-0.041317,-0.043451,-0.053580,0.079029,0.011107,1.000000,-0.000099,-0.000207,-0.000217,0.654555,0.305857,0.590644,0.359374,82.051251,33.599504,86.973216
08759,-5.435706,7.867490,1.016027,-0.089243,-0.131313,-0.197522,0.018534,-0.039113,-0.049072,-0.054340,0.078687,0.010157,1.000000,0.000093,-0.000196,-0.000245,0.654730,0.305885,0.590586,0.359126,82.042391,33.617520,86.938567
08760,-5.451610,7.731115,1.180333,0.089922,-0.212902,-0.282212,0.088070,-0.027121,-0.057316,-0.054496,0.077322,0.011830,1.000000,0.000440,-0.000136,-0.000287,0.654781,0.306094,0.590703,0.358661,82.077279,33.641559,86.910872
08761,-5.373542,7.798760,1.060186,-0.026879,-0.109703,-0.283425,0.135847,-0.044743,-0.057975,-0.053715,0.077996,0.010643,1.000000,0.000679,-0.000224,-0.000290,0.654809,0.306490,0.590850,0.358029,82.133022,33.664219,86.871542
08762,-5.240529,7.989567,1.146996,0.053720,0.112147,-0.189983,0.140119,-0.022298,-0.054922,-0.052385,0.079902,0.011520,1.000000,0.000701,-0.000111,-0.000275,0.654762,0.306867,0.591073,0.357425,82.199683,33.687319,86.847400
08763,-5.275833,8.159490,1.249770,0.146020,0.182102,-0.018856,0.149279,-0.039338,-0.045604,-0.052742,0.081598,0.012548,1.000000,0.000746,-0.000197,-0.000228,0.654730,0.307333,0.591242,0.356801,82.265806,33.703448,86.812951
08764,-5.207689,8.284653,1.166500,0.060099,0.309033,0.037039,0.071902,-0.038299,-0.044101,-0.052061,0.082854,0.011685,1.000000,0.000360,-0.000191,-0.000221,0.654815,0.307548,0.591274,0.356409,82.287889,33.719210,86.778933
08765,-5.301422,8.103416,1.156857,0.067380,0.132494,-0.061449,0.039825,-0.023963,-0.040870,-0.052999,0.081043,0.011578,1.000000,0.000199,-0.000120,-0.000204,0.654897,0.307642,0.591290,0.356148,82.297356,33.733855,86.755428
08766,-5.431024,8.030838,1.035605,-0.049398,-0.015595,-0.062807,0.068943,-0.035893,-0.036794,-0.054297,0.080315,0.010374,1.000000,0.000345,-0.000179,-0.000184,0.654966,0.307864,0.591313,0.355793,82.319015,33.745669,86.723726
08767,-5.530865,7.986886,1.195363,0.114464,-0.118711,-0.025834,0.127515,-0.040736,-0.034693,-0.055297,0.079871,0.011993,1.000000,0.000638,-0.000204,-0.000173,0.654952,0.308294,0.591421,0.355267,82.372673,33.755543,86.689344
08768,-5.530950,8.142506,1.236595,0.147315,-0.029811,0.106909,0.134147,-0.053954,-0.043803,-0.055295,0.081429,0.012406,1.000000,0.000671,-0.000270,-0.000219,0.654985,0.308741,0.591510,0.354668,82.424477,33.770010,86.644679
08769,-5.368643,8.185947,1.177329,0.097555,0.130366,0.045895,0.081151,-0.050019,-0.047086,-0.053670,0.081867,0.011793,1.000000,0.000406,-0.000250,-0.000235,0.655092,0.308998,0.591524,0.354224,82.447406,33.786270,86.602831
08770,-5.336119,8.444580,1.168149,0.068015,0.304519,0.239791,0.074096,-0.045893,-0.052963,-0.053342,0.084456,0.011701,1.000000,0.000370,-0.000229,-0.000265,0.655210,0.309206,0.591548,0.353784,82.467385,33.806584,86.562847
08771,-5.328861,8.385370,1.130220,0.036761,0.279732,0.182761,0.000495,-0.045684,-0.039293,-0.053275,0.083864,0.011290,1.000000,0.000002,-0.000228,-0.000196,0.655414,0.309215,0.591421,0.353611,82.446115,33.818750,86.524661
08772,-5.320086,8.147146,1.082370,0.010007,0.155664,-0.023587,-0.001890,-0.045307,-0.039951,-0.053187,0.081482,0.010811,1.000000,-0.000009,-0.000227,-0.000200,0.655625,0.309211,0.591291,0.353439,82.423408,33.831704,86.486236
08773,-5.346701,8.000524,1.011452,-0.049812,0.052769,-0.137287,0.017068,-0.048395,-0.034699,-0.053456,0.080014,0.010108,1.000000,0.000085,-0.000242,-0.000173,0.655803,0.309292,0.591177,0.353228,82.410809,33.841027,86.446598
08774,-5.425728,7.918510,1.016492,-0.040223,-0.057315,-0.160243,0.076299,-0.049818,-0.026344,-0.054249,0.079188,0.010182,1.000000,0.000381,-0.000249,-0.000132,0.655882,0.309594,0.591150,0.352863,82.431857,33.845905,86.406314
08775,-5.452496,7.882472,1.090829,0.041098,-0.098747,-0.166883,0.136713,-0.049959,-0.019630,-0.054520,0.078823,0.010949,1.000000,0.000684,-0.000250,-0.000098,0.655853,0.310114,0.591219,0.352345,82.487972,33.846576,86.366975
08776,-5.471781,8.164313,1.060019,-0.008484,0.042029,0.072564,0.169064,-0.058786,-0.016806,-0.054714,0.081639,0.010653,1.000000,0.000845,-0.000294,-0.000084,0.655797,0.310763,0.591310,0.351722,82.559235,33.845426,86.321423
08777,-5.629045,8.523931,1.189445,0.088456,0.113533,0.470191,0.160001,-0.049969,-0.026353,-0.056282,0.085237,0.011949,1.000000,0.000800,-0.000250,-0.000132,0.655743,0.311340,0.591430,0.351113,82.628357,33.849994,86.281479
08778,-5.639731,8.514949,1.159429,0.067214,0.100584,0.465472,0.118998,-0.062152,-0.045248,-0.056382,0.085155,0.011627,1.000000,0.000595,-0.000311,-0.000226,0.655824,0.311746,0.591466,0.350539,82.668239,33.864842,86.231104
08779,-5.547279,8.485645,1.127372,0.048310,0.163618,0.386349,0.094836,-0.060995,-0.061784,-0.055450,0.084868,0.011297,1.000000,0.000474,-0.000305,-0.000309,0.655965,0.312023,0.591489,0.349989,82.694060,33.888787,86.180494
08780,-5.425881,8.280357,1.184461,0.134156,0.153554,0.155555,0.086758,-0.060426,-0.065779,-0.054235,0.082816,0.011864,1.000000,0.000434,-0.000302,-0.000329,0.656127,0.312260,0.591506,0.349446,82.715088,33.915470,86.129492
08781,-5.378840,8.169566,1.007838,-0.025084,0.133862,0.019449,0.101861,-0.068691,-0.064773,-0.053765,0.081708,0.010102,1.000000,0.000509,-0.000343,-0.000324,0.656284,0.312565,0.591520,0.348853,82.741803,33.940585,86.073344
08782,-5.439475,8.244985,1.189701,0.150294,0.130033,0.134350,0.102261,-0.056619,-0.053768,-0.054376,0.082458,0.011924,1.000000,0.000511,-0.000283,-0.000269,0.656389,0.312881,0.591557,0.348309,82.773719,33.960756,86.025997
08783,-5.428497,8.172855,1.039695,0.012649,0.100737,0.053153,0.104425,-0.071789,-0.041750,-0.054272,0.081734,0.010420,1.000000,0.000522,-0.000359,-0.000209,0.656511,0.313267,0.591529,0.347778,82.801803,33.972606,85.969729
08784,-5.477512,8.320685,1.047546,0.009973,0.144304,0.202969,0.125378,-0.075370,-0.027685,-0.054768,0.083208,0.010507,1.000000,0.000627,-0.000377,-0.000138,0.656589,0.313769,0.591504,0.347222,82.841030,33.976650,85.911794
08785,-5.428101,8.322252,1.022579,-0.008132,0.185937,0.174063,0.077060,-0.075274,-0.017306,-0.054278,0.083223,0.010237,1.000000,0.000385,-0.000376,-0.000087,0.656722,0.314143,0.591378,0.346847,82.853275,33.974401,85.855252
08786,-5.404646,8.193100,0.838363,-0.176647,0.133249,0.035712,0.083012,-0.063004,-0.025119,-0.054039,0.081934,0.008401,1.000000,0.000415,-0.000315,-0.000126,0.656824,0.314491,0.591315,0.346444,82.873089,33.977900,85.806018
08787,-5.613252,8.326818,0.888355,-0.147049,0.036507,0.267527,0.086214,-0.045247,-0.029552,-0.056122,0.083273,0.008907,1.000000,0.000431,-0.000226,-0.000148,0.656874,0.314807,0.591323,0.346049,82.901497,33.984772,85.769017
08788,-5.756910,8.322596,0.913013,-0.126763,-0.083412,0.346947,0.104166,-0.071344,-0.037221,-0.057557,0.083232,0.009153,1.000000,0.000521,-0.000357,-0.000186,0.656989,0.315204,0.591288,0.345530,82.929646,33.994601,85.713028
08789,-5.613735,8.242915,0.910993,-0.108606,-0.008204,0.201189,0.134648,-0.093639,-0.043807,-0.056124,0.082435,0.009139,1.000000,0.000673,-0.000468,-0.000219,0.657130,0.315720,0.591242,0.344868,82.966564,34.006207,85.641630
08790,-5.313963,8.027496,0.873673,-0.102717,0.120011,-0.147427,0.174355,-0.098639,-0.037634,-0.053129,0.080277,0.008781,0.999999,0.000872,-0.000493,-0.000188,0.657214,0.316392,0.591238,0.344097,83.024420,34.014428,85.566884
08791,-5.131407,7.851801,0.834570,-0.104565,0.171995,-0.397907,0.249057,-0.085354,-0.015832,-0.051311,0.078512,0.008422,0.999999,0.001245,-0.000427,-0.000079,0.657100,0.317352,0.591371,0.343201,83.131379,34.010828,85.503527
08792,-5.168807,7.831737,1.040442,0.115457,0.125633,-0.373087,0.266496,-0.062121,-0.010708,-0.051687,0.078306,0.010493,0.999999,0.001332,-0.000311,-0.000054,0.656882,0.318343,0.591601,0.342302,83.257302,34.006425,85.456086
08793,-5.318770,7.821592,1.032906,0.114918,-0.006161,-0.298474,0.249234,-0.082902,-0.014071,-0.053187,0.078207,0.010404,0.999999,0.001246,-0.000415,-0.000070,0.656755,0.319304,0.591738,0.341414,83.365387,34.002198,85.394548
08794,-5.300921,8.334636,0.960433,0.020661,0.297208,0.106968,0.185730,-0.077180,-0.022710,-0.053003,0.083343,0.009661,0.999999,0.000929,-0.000386,-0.000114,0.656729,0.320019,0.591798,0.340690,83.438714,34.003778,85.335799
08795,-5.428325,8.306471,1.329508,0.387802,0.169654,0.189942,0.072314,-0.070627,-0.029601,-0.054276,0.083068,0.013306,1.000000,0.000362,-0.000353,-0.000148,0.656874,0.320331,0.591697,0.340294,83.449451,34.009307,85.281454
08796,-5.378775,8.237316,1.056150,0.120692,0.178830,0.079405,-0.028880,-0.097285,-0.056713,-0.053770,0.082390,0.010523,1.000000,-0.000144,-0.000486,-0.000284,0.657308,0.320274,0.591379,0.340060,83.390564,34.028936,85.206194
08797,-5.330427,8.279931,0.939282,-0.005290,0.249001,0.076242,-0.104756,-0.060322,-0.050413,-0.053286,0.082818,0.009333,1.000000,-0.000524,-0.000302,-0.000252,0.657741,0.319925,0.591044,0.340136,83.302824,34.046909,85.157223
08798,-5.472540,7.990140,1.074710,0.128910,-0.031385,-0.069565,-0.045570,-0.092624,-0.031177,-0.054718,0.079912,0.010704,1.000000,-0.000228,-0.000463,-0.000156,0.658144,0.319881,0.590672,0.340043,83.237244,34.052157,85.087145
08799,-5.503747,7.766034,1.133665,0.193907,-0.183619,-0.230600,0.024815,-0.118550,-0.030842,-0.055032,0.077667,0.011314,1.000000,0.000124,-0.000593,-0.000154,0.658508,0.320115,0.590333,0.339706,83.202202,34.054963,84.999729
08800,-5.439481,7.730837,1.011116,0.074847,-0.146190,-0.307470,0.035271,-0.105530,-0.050534,-0.054381,0.077320,0.010096,1.000000,0.000176,-0.000528,-0.000253,0.658852,0.320302,0.590087,0.339291,83.177062,34.070265,84.919181
08801,-5.332873,8.010435,0.986558,0.036901,0.103337,-0.139640,0.046464,-0.076600,-0.058737,-0.053309,0.080118,0.009864,1.000000,0.000232,-0.000383,-0.000294,0.659105,0.320453,0.589967,0.338865,83.169229,34.091743,84.858245
08802,-5.340046,8.246579,1.000589,0.030363,0.234143,0.059880,-0.030577,-0.074605,-0.049169,-0.053384,0.082480,0.009973,1.000000,-0.000153,-0.000373,-0.000246,0.659461,0.320374,0.589708,0.338697,83.118263,34.108330,84.799004
08803,-5.337080,8.042061,0.838960,-0.125029,0.127454,-0.126040,-0.085574,-0.069611,-0.031511,-0.053361,0.080433,0.008337,1.000000,-0.000428,-0.000348,-0.000158,0.659857,0.320159,0.589345,0.338762,83.038680,34.114716,84.745077
08804,-5.463862,8.001562,0.774949,-0.205836,0.003083,-0.094820,-0.069726,-0.067841,-0.019399,-0.054633,0.080024,0.007703,1.000000,-0.000349,-0.000339,-0.000097,0.660205,0.320027,0.588994,0.338819,82.969252,34.114725,84.692932
08805,-5.508273,7.700518,0.989793,0.016364,-0.208361,-0.295595,-0.052393,-0.079436,-0.013890,-0.055081,0.077012,0.009856,1.000000,-0.000262,-0.000397,-0.000069,0.660548,0.319989,0.588625,0.338828,82.905732,34.110286,84.633743
08806,-5.461034,7.700054,0.776654,-0.199041,-0.163722,-0.344293,-0.003728,-0.086349,-0.032099,-0.054601,0.077009,0.007742,1.000000,-0.000019,-0.000432,-0.000160,0.660866,0.320069,0.588345,0.338618,82.866381,34.116114,84.567801
08807,-5.534329,7.864889,0.820492,-0.174886,-0.130244,-0.163287,0.069652,-0.067953,-0.039178,-0.055331,0.078657,0.008214,1.000000,0.000348,-0.000340,-0.000196,0.661022,0.320341,0.588261,0.338203,82.875989,34.126818,84.514322
08808,-5.522821,8.008262,0.919284,-0.083550,-0.039599,-0.041795,0.107014,-0.092149,-0.056765,-0.055210,0.080093,0.009210,1.000000,0.000535,-0.000461,-0.000284,0.661221,0.320723,0.588188,0.337577,82.896634,34.146259,84.442263
08809,-5.432906,8.045952,0.944402,-0.050644,0.058927,-0.058731,0.107568,-0.090778,-0.072332,-0.054304,0.080474,0.009463,1.000000,0.000538,-0.000454,-0.000362,0.661438,0.321061,0.588146,0.336903,82.917535,34.174230,84.370250
08810,-5.385341,8.134668,0.908360,-0.087191,0.154940,-0.016350,0.043706,-0.071871,-0.084707,-0.053822,0.081367,0.009082,1.000000,0.000219,-0.000359,-0.000424,0.661726,0.321118,0.588078,0.336403,82.908319,34.211018,84.309706
08811,-5.413927,8.133347,0.829883,-0.167046,0.139700,-0.009463,0.050343,-0.047302,-0.090008,-0.054105,0.081356,0.008307,1.000000,0.000252,-0.000237,-0.000450,0.661936,0.321141,0.588111,0.335909,82.912297,34.252114,84.266026
08812,-5.481267,8.185069,0.886840,-0.119050,0.119099,0.076588,0.031254,-0.053852,-0.087735,-0.054779,0.081873,0.008866,1.000000,0.000156,-0.000269,-0.000439,0.662196,0.321117,0.588086,0.335464,82.902678,34.291893,84.217559
08813,-5.365521,8.052766,0.666867,-0.322711,0.152745,-0.119747,-0.034073,-0.061176,-0.084137,-0.053623,0.080551,0.006639,1.000000,-0.000170,-0.000306,-0.000421,0.662572,0.320901,0.587921,0.335215,82.853110,34.328641,84.164770
08814,-5.349725,7.880028,0.651676,-0.330058,0.074433,-0.272006,-0.024132,-0.035667,-0.074045,-0.053469,0.078821,0.006498,1.000000,-0.000121,-0.000178,-0.000370,0.662844,0.320703,0.587841,0.335007,82.819381,34.361887,84.129907
08815,-5.430566,7.802228,0.718173,-0.267453,-0.033402,-0.283315,0.031307,-0.036346,-0.056447,-0.054285,0.078036,0.007184,1.000000,0.000157,-0.000182,-0.000282,0.662996,0.320744,0.587824,0.334698,82.818202,34.384625,84.096548
08816,-5.406819,7.812627,0.669354,-0.311761,-0.003421,-0.293146,0.108722,-0.047059,-0.040636,-0.054054,0.078134,0.006723,1.000000,0.000544,-0.000235,-0.000203,0.663032,0.321104,0.587875,0.334192,82.857760,34.398066,84.056711
08817,-5.558343,7.955422,0.715812,-0.279382,-0.046224,-0.085607,0.174599,-0.039868,-0.038617,-0.055569,0.079559,0.007216,1.000000,0.000873,-0.000199,-0.000193,0.662934,0.321677,0.588057,0.333515,82.938186,34.410456,84.022490
08818,-5.537837,8.102229,0.768709,-0.220422,0.053851,0.028712,0.246197,-0.054202,-0.043128,-0.055363,0.081025,0.007772,0.999999,0.001231,-0.000271,-0.000216,0.662773,0.322497,0.588316,0.332584,83.053612,34.424906,83.977550
08819,-5.532933,8.486689,0.860173,-0.135261,0.275677,0.350128,0.245982,-0.045588,-0.055003,-0.055308,0.084871,0.008694,0.999999,0.001230,-0.000228,-0.000275,0.662602,0.323267,0.588623,0.331632,83.171956,34.446332,83.938071
08820,-5.474743,8.544172,0.935889,-0.043076,0.354894,0.371798,0.185529,-0.058860,-0.037566,-0.054734,0.085443,0.009422,1.000000,0.000928,-0.000294,-0.000188,0.662542,0.323909,0.588756,0.330890,83.251067,34.457442,83.890422
08821,-5.511008,8.454495,0.892230,-0.072123,0.275944,0.314721,0.195581,-0.066412,-0.029691,-0.055101,0.084544,0.008987,0.999999,0.000978,-0.000332,-0.000148,0.662470,0.324620,0.588867,0.330136,83.333597,34.463163,83.838708
08822,-5.658656,8.444555,1.088706,0.124319,0.140986,0.408898,0.213913,-0.055545,-0.032633,-0.056576,0.084443,0.010962,0.999999,0.001070,-0.000278,-0.000163,0.662344,0.325365,0.589049,0.329332,83.430497,34.471801,83.793774
08823,-5.596547,8.418713,1.001121,0.058536,0.180748,0.344192,0.222613,-0.074729,-0.036698,-0.055954,0.084186,0.010084,0.999999,0.001113,-0.000374,-0.000183,0.662263,0.326158,0.589187,0.328461,83.524947,34.481102,83.735782
08824,-5.396335,8.473477,0.992285,0.077130,0.376966,0.274771,0.164451,-0.065569,-0.038355,-0.053950,0.084737,0.009975,1.000000,0.000822,-0.000328,-0.000192,0.662255,0.326737,0.589262,0.327766,83.589335,34.492465,83.683500
08825,-5.280677,8.469663,0.823281,-0.076336,0.478771,0.190486,0.007350,-0.047733,-0.034360,-0.052794,0.084705,0.008223,1.000000,0.000037,-0.000239,-0.000172,0.662442,0.326780,0.589133,0.327580,83.571100,34.502241,83.644351
08826,-5.255420,8.111532,0.751027,-0.132186,0.299993,-0.123881,-0.044181,-0.029136,-0.026208,-0.052545,0.081124,0.007485,1.000000,-0.000221,-0.000146,-0.000131,0.662647,0.326644,0.588966,0.327600,83.530725,34.509030,83.618175
08827,-5.386568,8.029581,0.646407,-0.249369,0.152177,-0.126523,-0.042949,-0.021239,-0.023069,-0.053857,0.080303,0.006441,1.000000,-0.000215,-0.000106,-0.000115,0.662818,0.326510,0.588823,0.327643,83.494531,34.514041,83.598208
08828,-5.457472,7.925743,0.698526,-0.202252,0.032798,-0.166581,-0.002412,-0.021698,-0.006559,-0.054573,0.079259,0.006978,1.000000,-0.000012,-0.000108,-0.000033,0.662901,0.326559,0.588718,0.327616,83.481868,34.510104,83.578709
08829,-5.493379,7.904052,0.723831,-0.179675,-0.011071,-0.161637,0.044280,-0.036475,-0.003511,-0.054934,0.079040,0.007246,1.000000,0.000221,-0.000182,-0.000018,0.662943,0.326796,0.588635,0.327443,83.490575,34.502981,83.549766
08830,-5.428500,7.852635,0.861112,-0.031189,0.004672,-0.227646,0.114821,-0.050736,-0.005606,-0.054285,0.078523,0.008642,1.000000,0.000574,-0.000254,-0.000028,0.662918,0.327284,0.588624,0.327027,83.533766,34.496628,83.510284
08831,-5.411198,7.863883,0.840469,-0.043124,0.024978,-0.230119,0.154870,-0.047799,-0.018901,-0.054107,0.078637,0.008453,1.000000,0.000774,-0.000239,-0.000095,0.662837,0.327861,0.588710,0.326458,83.600731,34.497575,83.472314
08832,-5.452970,8.021920,0.859626,-0.025243,0.079582,-0.075231,0.168742,-0.038404,-0.022873,-0.054522,0.080218,0.008653,1.000000,0.000844,-0.000192,-0.000114,0.662715,0.328455,0.588855,0.325846,83.678880,34.501910,83.440006
08833,-5.434197,8.290584,0.915740,0.030606,0.244927,0.139294,0.137200,-0.024503,-0.015665,-0.054337,0.082904,0.009208,1.000000,0.000686,-0.000123,-0.000078,0.662589,0.328945,0.588983,0.325378,83.744981,34.502554,83.418384
08834,-5.479797,8.268386,0.967555,0.085471,0.191465,0.151578,0.067319,-0.026463,-0.013476,-0.054794,0.082684,0.009696,1.000000,0.000337,-0.000132,-0.000067,0.662582,0.329212,0.588986,0.325115,83.770101,34.502335,83.395049
08835,-5.448459,8.091782,0.861300,-0.007310,0.120904,-0.020354,0.033476,-0.024557,-0.003719,-0.054484,0.080917,0.008620,1.000000,0.000167,-0.000123,-0.000019,0.662607,0.329393,0.588925,0.324992,83.777263,34.496184,83.374297
08836,-5.557027,8.246262,0.976121,0.092758,0.113158,0.177948,0.071394,-0.013856,-0.008346,-0.055568,0.082461,0.009787,1.000000,0.000357,-0.000069,-0.000042,0.662548,0.329667,0.588969,0.324755,83.809874,34.493836,83.360062
08837,-5.607285,8.403193,1.035121,0.142956,0.157897,0.340214,0.034311,-0.024850,-0.014466,-0.056068,0.084034,0.010359,1.000000,0.000172,-0.000124,-0.000072,0.662589,0.329820,0.588926,0.324593,83.816943,34.493797,83.338299
08838,-5.586996,8.434249,0.953525,0.060858,0.197324,0.346921,-0.024032,-0.033161,-0.022458,-0.055862,0.084350,0.009516,1.000000,-0.000120,-0.000166,-0.000112,0.662767,0.329768,0.588774,0.324558,83.786721,34.498294,83.309662
08839,-5.464563,8.366451,0.937476,0.053173,0.261346,0.220591,-0.081065,-0.024015,-0.026526,-0.054636,0.083676,0.009334,1.000000,-0.000405,-0.000120,-0.000133,0.663016,0.329502,0.588566,0.324697,83.727488,34.505151,83.287562
08840,-5.473600,8.127079,0.830599,-0.052846,0.124881,0.019973,-0.112000,-0.004981,-0.017896,-0.054729,0.081280,0.008259,1.000000,-0.000560,-0.000025,-0.000089,0.663248,0.329126,0.588357,0.324983,83.658082,34.508779,83.278734
08841,-5.451824,7.956927,0.822527,-0.060097,0.046924,-0.132512,-0.081883,-0.017114,-0.010991,-0.054515,0.079576,0.008188,1.000000,-0.000409,-0.000086,-0.000055,0.663452,0.328892,0.588145,0.325187,83.601748,34.507180,83.262584
08842,-5.450892,7.913706,0.935070,0.047335,0.017369,-0.158114,-0.052337,-0.010078,-0.008136,-0.054506,0.079142,0.009327,1.000000,-0.000262,-0.000050,-0.000041,0.663586,0.328750,0.587999,0.325321,83.564957,34.504911,83.250985
08843,-5.475752,7.965145,0.808564,-0.087301,0.032868,-0.113591,-0.020051,-0.020315,-0.000919,-0.054758,0.079653,0.008072,1.000000,-0.000100,-0.000102,-0.000005,0.663681,0.328756,0.587861,0.325372,83.543247,34.497353,83.233412
08844,-5.483939,8.114249,0.830059,-0.075521,0.108862,0.015134,0.003401,-0.011444,0.010308,-0.054844,0.081140,0.008299,1.000000,0.000017,-0.000057,0.000052,0.663697,0.328856,0.587771,0.325401,83.538678,34.484488,83.222315
08845,-5.505761,8.133681,0.860713,-0.049097,0.097879,0.046269,-0.000743,-0.011417,0.018444,-0.055066,0.081332,0.008604,1.000000,-0.000004,-0.000057,0.000092,0.663702,0.328968,0.587661,0.325474,83.532382,34.466473,83.212414
08846,-5.514733,8.193484,0.895987,-0.018812,0.119914,0.103639,-0.002570,-0.005971,0.019241,-0.055155,0.081930,0.008957,1.000000,-0.000013,-0.000030,0.000096,0.663697,0.329066,0.587565,0.325559,83.526936,34.448873,83.205803
08847,-5.562878,8.183798,0.865316,-0.054914,0.073684,0.120111,-0.023125,0.014979,0.020178,-0.055636,0.081833,0.008648,1.000000,-0.000116,0.000075,0.000101,0.663660,0.329065,0.587504,0.325747,83.518211,34.431571,83.214271
08848,-5.590098,8.065286,0.818771,-0.099394,-0.016467,0.034051,-0.006306,0.013710,0.017124,-0.055907,0.080648,0.008189,1.000000,-0.000032,0.000069,0.000086,0.663606,0.329112,0.587471,0.325868,83.518216,34.416448,83.221084
08849,-5.510982,8.037682,0.854136,-0.053260,0.027959,-0.029990,0.048343,0.016638,0.012852,-0.055114,0.080371,0.008565,1.000000,0.000242,0.000083,0.000064,0.663458,0.329325,0.587544,0.325824,83.550756,34.403423,83.230118
08850,-5.433343,8.061476,0.833610,-0.061880,0.103120,-0.056199,0.080391,0.008612,0.019773,-0.054341,0.080606,0.008371,1.000000,0.000402,0.000043,0.000099,0.663272,0.329676,0.587630,0.325692,83.598550,34.386460,83.233599
08851,-5.522239,8.228113,0.931530,0.026590,0.116305,0.139723,0.096956,0.009551,0.016425,-0.055229,0.082272,0.009358,1.000000,0.000485,0.000048,0.000082,0.663058,0.330071,0.587752,0.325505,83.656323,34.370934,83.237993
08852,-5.472702,8.309057,1.012771,0.113368,0.195120,0.185596,0.020464,0.007258,0.021655,-0.054736,0.083084,0.010138,1.000000,0.000102,0.000036,0.000108,0.662972,0.330231,0.587733,0.325552,83.669314,34.352809,83.240651
08853,-5.389044,8.312252,1.033566,0.142575,0.260720,0.142979,-0.000802,0.004157,0.027747,-0.053902,0.083115,0.010336,1.000000,-0.000004,0.000021,0.000139,0.662917,0.330345,0.587660,0.325682,83.669453,34.330487,83.242176
08854,-5.396719,8.381383,1.125746,0.226011,0.284731,0.212646,-0.116213,0.037016,0.047047,-0.053985,0.083808,0.011219,1.000000,-0.000581,0.000185,0.000235,0.662928,0.330077,0.587475,0.326264,83.616802,34.299792,83.267307
08855,-5.578565,8.196782,1.189098,0.267923,0.023026,0.169759,-0.184357,0.014153,0.047398,-0.055804,0.081966,0.011819,1.000000,-0.000922,0.000071,0.000237,0.663114,0.329624,0.587103,0.327014,83.516529,34.266914,83.277293
08856,-5.501327,8.137125,0.881549,-0.042696,0.064714,0.048778,-0.149316,-0.040817,0.049121,-0.055035,0.081364,0.008744,1.000000,-0.000747,-0.000204,0.000246,0.663404,0.329380,0.586602,0.327571,83.414868,34.230028,83.249083
08857,-5.347529,8.152743,0.881721,-0.042426,0.194819,-0.024892,-0.138742,-0.019009,0.055819,-0.053499,0.081519,0.008756,1.000000,-0.000694,-0.000095,0.000279,0.663597,0.329156,0.586179,0.328160,83.328336,34.190189,83.237042
08858,-5.422864,8.242873,0.857542,-0.091096,0.180866,0.089170,-0.152354,0.012396,0.042744,-0.054246,0.082424,0.008516,1.000000,-0.000762,0.000062,0.000214,0.663746,0.328795,0.585859,0.328793,83.245325,34.160422,83.245080
08859,-5.485454,8.286881,0.677409,-0.293757,0.160927,0.142677,-0.213462,0.003563,0.021346,-0.054863,0.082870,0.006687,0.999999,-0.001067,0.000018,0.000107,0.664051,0.328185,0.585444,0.329523,83.123205,34.141689,83.245892
08860,-5.413716,8.179295,0.657737,-0.320009,0.159094,0.011470,-0.263911,0.023165,0.011515,-0.054141,0.081798,0.006476,0.999999,-0.001320,0.000116,0.000058,0.664401,0.327344,0.585027,0.330395,82.979038,34.130458,83.258858
08861,-5.384494,7.928781,0.693693,-0.287794,0.039389,-0.207733,-0.268937,0.032542,0.006603,-0.053846,0.079295,0.006839,0.999999,-0.001345,0.000163,0.000033,0.664735,0.326458,0.584639,0.331285,82.835668,34.122154,83.278432
08862,-5.343173,7.552486,0.633638,-0.337900,-0.137774,-0.546735,-0.183049,0.023945,0.019444,-0.053438,0.075525,0.006274,1.000000,-0.000915,0.000120,0.000097,0.664935,0.325906,0.584343,0.331948,82.738547,34.106521,83.292682
08863,-5.260662,7.396168,0.619987,-0.341652,-0.160495,-0.723146,-0.040535,0.024153,0.031554,-0.052618,0.073955,0.006191,1.000000,-0.000203,0.000121,0.000158,0.664879,0.325865,0.584265,0.332239,82.724057,34.083479,83.308711
