// General information: 
//  MT Manager version: 2022.0.0 
//  XDA version: 2022.0.0 build 7085 rev 119802 built on 2022-11-08
// Device information: 
//  DeviceId: 00B4737C
//  ProductCode: MTW2-3A7G6
//  Firmware Version: 4.14.0
//  Hardware Version: 2.0.0
// Device settings: 
//  Filter Profile: human(46.1)
//  Option Flags: Orientation Smoother Disabled, Position/Velocity Smoother Disabled, Continuous Zero Rotation Update Disabled, AHS Disabled, ICC Disabled
// Coordinate system: ENU
PacketCounter,Acc_X,Acc_Y,Acc_Z,FreeAcc_E,FreeAcc_N,FreeAcc_U,Gyr_X,Gyr_Y,Gyr_Z,VelInc_X,VelInc_Y,VelInc_Z,OriInc_q0,OriInc_q1,OriInc_q2,OriInc_q3,Quat_q0,Quat_q1,Quat_q2,Quat_q3,Roll,Pitch,Yaw
51234,-3.850531,2.909669,8.927280,0.258964,0.429616,0.323261,0.073981,-0.104788,-0.003652,-0.038552,0.029064,0.089263,1.000000,0.000370,-0.000524,-0.000018,-0.052310,-0.188862,0.158391,0.967733,20.377807,20.424065,-170.102985
51235,-3.690968,3.059692,8.939170,0.122171,0.274317,0.326520,0.120564,-0.100782,-0.017379,-0.036952,0.030546,0.089392,1.000000,0.000603,-0.000504,-0.000087,-0.052077,-0.188396,0.158957,0.967744,20.433154,20.369986,-170.130319
51236,-3.427554,3.003646,8.789731,-0.056956,0.251381,0.084936,0.102382,-0.133593,-0.030667,-0.034330,0.029997,0.087890,1.000000,0.000512,-0.000668,-0.000153,-0.051771,-0.187776,0.159432,0.967802,20.473021,20.300976,-170.172307
51237,-3.598308,2.880983,8.736653,0.126450,0.388371,0.056971,0.127506,-0.129080,-0.043486,-0.036033,0.028762,0.087362,1.000000,0.000638,-0.000645,-0.000217,-0.051383,-0.187194,0.160015,0.967840,20.525107,20.236990,-170.220701
51238,-3.440251,3.068708,8.770617,-0.015312,0.207392,0.093511,0.157457,-0.135515,-0.045998,-0.034455,0.030626,0.087707,0.999999,0.000787,-0.000678,-0.000230,-0.050950,-0.186591,0.160741,0.967859,20.593379,20.170117,-170.271904
51239,-3.235300,3.037627,8.705536,-0.172443,0.197830,-0.044791,0.158966,-0.128025,-0.064577,-0.032399,0.030318,0.087059,0.999999,0.000795,-0.000640,-0.000323,-0.050431,-0.186040,0.161456,0.967873,20.659484,20.111055,-170.332229
51240,-3.512846,3.266193,8.628492,0.129692,0.017103,0.058576,0.189882,-0.117531,-0.062546,-0.035169,0.032591,0.086295,0.999999,0.000949,-0.000588,-0.000313,-0.049902,-0.185545,0.162318,0.967851,20.744448,20.057285,-170.389084
51241,-3.354094,3.544963,8.527263,0.037469,-0.286449,0.008079,0.169233,-0.116355,-0.065011,-0.033579,0.035388,0.085283,0.999999,0.000846,-0.000582,-0.000325,-0.049381,-0.185052,0.163079,0.967844,20.817281,20.004716,-170.447258
51242,-3.300792,3.357455,8.677362,-0.069120,-0.060011,0.059290,0.174730,-0.090282,-0.055817,-0.033038,0.033508,0.086788,0.999999,0.000874,-0.000451,-0.000279,-0.048921,-0.184680,0.163868,0.967806,20.896967,19.964315,-170.494521
51243,-3.999072,3.721628,8.882883,0.520465,-0.216762,0.600324,0.205092,-0.122458,-0.017255,-0.040042,0.037129,0.088842,0.999999,0.001025,-0.000612,-0.000086,-0.048592,-0.184127,0.164847,0.967761,20.999210,19.898857,-170.526969
51244,-3.159071,3.381334,8.570127,-0.144298,-0.103451,-0.074686,0.176311,-0.130384,-0.003634,-0.031646,0.033738,0.085710,0.999999,0.000882,-0.000652,-0.000018,-0.048350,-0.183517,0.165701,0.967743,21.086984,19.826443,-170.553492
51245,-3.107599,3.318406,8.588763,-0.192758,-0.030054,-0.096837,0.186923,-0.098108,0.001171,-0.031118,0.033104,0.085903,0.999999,0.000935,-0.000491,0.000006,-0.048147,-0.183062,0.166603,0.967685,21.184176,19.770291,-170.570329
51246,-3.330746,3.262805,8.692598,-0.019722,0.104521,0.050866,0.177776,-0.085576,-0.019000,-0.033342,0.032554,0.086941,1.000000,0.000889,-0.000428,-0.000095,-0.047866,-0.182682,0.167439,0.967626,21.273158,19.725057,-170.595916
51247,-3.269984,3.218516,8.707173,-0.077446,0.155335,0.027859,0.156906,-0.091709,-0.046916,-0.032732,0.032125,0.087082,1.000000,0.000785,-0.000459,-0.000235,-0.047463,-0.182291,0.168150,0.967596,21.344404,19.682381,-170.638773
51248,-2.858570,3.213968,8.413593,-0.347301,0.016960,-0.369773,0.133352,-0.076580,-0.088425,-0.028604,0.032096,0.084146,1.000000,0.000667,-0.000383,-0.000442,-0.046894,-0.182002,0.168706,0.967582,21.395344,19.656497,-170.701779
51249,-2.689612,3.311343,8.215364,-0.428311,-0.153595,-0.566922,0.123246,-0.026394,-0.122428,-0.026887,0.033079,0.082170,1.000000,0.000616,-0.000132,-0.000612,-0.046212,-0.181981,0.169170,0.967538,21.437802,19.664535,-170.772969
51250,-2.685071,3.305447,8.310203,-0.473190,-0.112014,-0.487529,0.139631,0.038218,-0.133047,-0.026813,0.033014,0.083130,1.000000,0.000698,0.000191,-0.000665,-0.045519,-0.182286,0.169688,0.967422,21.492403,19.709273,-170.835706
51251,-2.980486,3.640306,8.493163,-0.267913,-0.316043,-0.112313,0.157231,0.079808,-0.112850,-0.029750,0.036353,0.084972,0.999999,0.000786,0.000399,-0.000564,-0.044942,-0.182779,0.170300,0.967249,21.564078,19.772032,-170.877768
51252,-2.956546,3.617979,8.303646,-0.234583,-0.349164,-0.294047,0.132228,0.117123,-0.099393,-0.029499,0.036140,0.083078,0.999999,0.000661,0.000586,-0.000497,-0.044485,-0.183435,0.170795,0.967058,21.626801,19.851799,-170.903705
51253,-3.236267,3.838068,8.688232,-0.128511,-0.385721,0.213490,0.118582,0.149969,-0.087915,-0.032281,0.038343,0.086929,0.999999,0.000593,0.000750,-0.000440,-0.044124,-0.184237,0.171227,0.966846,21.686435,19.946735,-170.915761
51254,-3.497040,3.885316,8.454684,0.185134,-0.457366,0.115211,0.111276,0.125605,-0.047029,-0.034908,0.038814,0.084590,1.000000,0.000556,0.000628,-0.000235,-0.043947,-0.184883,0.171667,0.966653,21.747962,20.019942,-170.910028
51255,-3.465617,3.919999,8.433927,0.149408,-0.494979,0.098956,0.071320,0.153059,-0.040565,-0.034584,0.039177,0.084380,1.000000,0.000357,0.000765,-0.000203,-0.043860,-0.185649,0.171914,0.966466,21.789990,20.106483,-170.894377
51256,-3.224615,3.778757,8.583536,-0.148026,-0.347114,0.097500,0.052752,0.150126,-0.012574,-0.032179,0.037767,0.085869,1.000000,0.000264,0.000751,-0.000063,-0.043923,-0.186371,0.172098,0.966291,21.826744,20.185403,-170.863548
51257,-3.558159,3.939022,8.683512,0.113658,-0.411187,0.355782,0.060051,0.133560,0.020674,-0.035528,0.039360,0.086871,1.000000,0.000300,0.000668,0.000103,-0.044127,-0.186987,0.172351,0.966118,21.872867,20.248495,-170.817477
51258,-3.125615,4.093230,8.318037,-0.157444,-0.733204,-0.058132,-0.002176,0.136347,0.020772,-0.031204,0.040930,0.083201,1.000000,-0.000011,0.000682,0.000104,-0.044390,-0.187602,0.172304,0.965995,21.883772,20.312925,-170.770828
51259,-3.254229,4.261198,8.374813,-0.067757,-0.854889,0.094374,-0.041764,0.171399,0.040051,-0.032479,0.042623,0.083767,1.000000,-0.000209,0.000857,0.000200,-0.044815,-0.188361,0.172075,0.965868,21.878507,20.391975,-170.705073
51260,-3.928177,3.963095,8.663047,0.428192,-0.385911,0.475792,-0.071940,0.169783,0.088159,-0.039226,0.039645,0.086650,0.999999,-0.000360,0.000849,0.000441,-0.045496,-0.189063,0.171748,0.965758,21.865657,20.459779,-170.612684
51261,-3.728146,3.526578,8.577465,0.256106,-0.040510,0.179383,-0.129721,0.151291,0.091521,-0.037233,0.035304,0.085780,0.999999,-0.000649,0.000756,0.000458,-0.046235,-0.189660,0.171147,0.965712,21.818769,20.517205,-170.522284
51262,-4.048103,3.342983,8.781719,0.461395,0.236424,0.405555,-0.121046,0.123304,0.081471,-0.040441,0.033466,0.087822,1.000000,-0.000605,0.000617,0.000407,-0.046890,-0.190132,0.170588,0.965687,21.772938,20.561856,-170.444364
51263,-4.081598,3.245837,8.969520,0.412379,0.382814,0.547360,-0.117242,0.083830,0.064737,-0.040789,0.032498,0.089693,1.000000,-0.000586,0.000419,0.000324,-0.047430,-0.190429,0.170037,0.965699,21.722584,20.589205,-170.384536
51264,-4.563035,3.252959,9.195143,0.770060,0.513026,0.915663,-0.109799,0.004415,0.056016,-0.045637,0.032567,0.091935,1.000000,-0.000549,0.000022,0.000280,-0.047850,-0.190352,0.169534,0.965782,21.668654,20.576136,-170.348032
51265,-3.739128,2.472871,8.814161,0.139313,0.988954,0.025410,-0.111837,-0.042803,0.033504,-0.037414,0.024772,0.088120,1.000000,-0.000559,-0.000214,0.000168,-0.048126,-0.190065,0.169010,0.965917,21.605087,20.542750,-170.334605
51266,-3.906307,2.591573,9.069430,0.206107,0.975637,0.347810,-0.043141,-0.064419,-0.015342,-0.039090,0.025938,0.090676,1.000000,-0.000216,-0.000322,-0.000077,-0.048081,-0.189732,0.168777,0.966025,21.569571,20.508179,-170.354075
51267,-3.758934,2.207843,8.898560,0.133120,1.255475,0.015567,-0.017015,-0.112566,-0.067505,-0.037632,0.022099,0.088963,1.000000,-0.000085,-0.000563,-0.000338,-0.047721,-0.189216,0.168631,0.966169,21.534740,20.458894,-170.413737
51268,-3.649382,1.899774,9.105071,-0.045809,1.590626,0.051249,0.082176,-0.117759,-0.113577,-0.036537,0.018981,0.091037,1.000000,0.000411,-0.000589,-0.000568,-0.047039,-0.188738,0.168922,0.966246,21.547248,20.416586,-170.500797
51269,-3.400501,1.802647,9.014610,-0.234479,1.622259,-0.148867,0.186657,-0.144262,-0.185742,-0.034053,0.017974,0.090138,0.999999,0.000933,-0.000721,-0.000929,-0.045888,-0.188217,0.169656,0.966274,21.603295,20.375347,-170.634783
51270,-3.473535,3.018295,8.884014,-0.079310,0.464808,0.181256,0.257313,-0.166485,-0.251558,-0.034771,0.030112,0.088850,0.999998,0.001287,-0.000832,-0.001258,-0.044337,-0.187661,0.170671,0.966276,21.684977,20.336407,-170.810896
51271,-2.875099,3.585468,8.256198,-0.379839,-0.340963,-0.377327,0.215482,-0.154780,-0.282059,-0.028764,0.035806,0.082578,0.999998,0.001077,-0.000774,-0.001410,-0.042684,-0.187177,0.171455,0.966305,21.737870,20.310283,-171.001975
51272,-3.135967,3.944301,8.352381,-0.169025,-0.596641,-0.077725,0.249315,-0.086340,-0.233677,-0.031350,0.039375,0.083559,0.999998,0.001247,-0.000432,-0.001168,-0.041295,-0.186990,0.172430,0.966229,21.824902,20.310553,-171.149789
51273,-3.341680,4.143146,8.523516,-0.043275,-0.685432,0.212835,0.213899,-0.073054,-0.186082,-0.033409,0.041371,0.085267,0.999999,0.001069,-0.000365,-0.000930,-0.040178,-0.186817,0.173277,0.966158,21.902254,20.307884,-171.267911
51274,-3.399734,3.835437,8.484487,0.018635,-0.389570,0.092017,0.191439,-0.067816,-0.168468,-0.033994,0.038302,0.084870,0.999999,0.000957,-0.000339,-0.000842,-0.039172,-0.186649,0.174030,0.966096,21.970503,20.304395,-171.374659
51275,-3.417858,4.090729,8.510645,0.026647,-0.608457,0.211082,0.148071,-0.067724,-0.160908,-0.034175,0.040872,0.085125,0.999999,0.000740,-0.000339,-0.000805,-0.038243,-0.186466,0.174581,0.966069,22.015523,20.299407,-171.477303
51276,-3.176403,4.100914,8.378915,-0.148963,-0.687889,0.016752,0.111457,-0.064883,-0.137322,-0.031763,0.040984,0.083802,1.000000,0.000557,-0.000324,-0.000687,-0.037464,-0.186270,0.174976,0.966066,22.044377,20.290940,-171.565845
51277,-3.187692,4.079299,8.230458,-0.084271,-0.709140,-0.115651,0.094741,-0.028296,-0.087865,-0.031871,0.040768,0.082319,1.000000,0.000474,-0.000141,-0.000439,-0.036971,-0.186203,0.175330,0.966034,22.076337,20.291282,-171.618089
51278,-3.464990,4.035620,8.317254,0.138495,-0.594797,0.041049,0.111366,0.011986,-0.004727,-0.034644,0.040311,0.083197,1.000000,0.000557,0.000060,-0.000024,-0.036899,-0.186261,0.175834,0.965933,22.137374,20.295118,-171.614057
51279,-3.205916,3.936706,8.366789,-0.122950,-0.511914,-0.040199,0.090457,0.033443,0.051890,-0.032055,0.039321,0.083691,1.000000,0.000452,0.000167,0.000259,-0.037139,-0.186369,0.176286,0.965821,22.199236,20.298097,-171.573007
51280,-3.304884,4.033843,8.500050,-0.082364,-0.535603,0.144789,0.088127,0.047917,0.070128,-0.033043,0.040289,0.085026,1.000000,0.000441,0.000240,0.000351,-0.037481,-0.186530,0.176742,0.965693,22.264594,20.304746,-171.518445
51281,-3.591617,3.674071,8.670316,0.115002,-0.093108,0.264563,0.086102,0.060610,0.095242,-0.035907,0.036686,0.086730,1.000000,0.000431,0.000303,0.000476,-0.037959,-0.186730,0.177209,0.965551,22.334664,20.312614,-171.446582
51282,-4.693486,3.978273,9.152706,0.959872,-0.049308,1.173835,0.134052,-0.010340,0.161845,-0.046972,0.039683,0.091551,0.999999,0.000670,-0.000052,0.000809,-0.038648,-0.186537,0.177983,0.965418,22.439630,20.268243,-171.353819
51283,-3.232190,3.498944,8.533653,-0.158426,0.003130,-0.040904,0.040145,-0.089121,0.150000,-0.032386,0.034948,0.085329,1.000000,0.000201,-0.000446,0.000750,-0.039300,-0.185957,0.178307,0.965444,22.481873,20.184653,-171.286002
51284,-3.248431,3.483685,8.842856,-0.248908,0.134833,0.227447,0.140519,-0.040274,0.135523,-0.032526,0.034753,0.088446,1.000000,0.000703,-0.000201,0.000678,-0.039829,-0.185644,0.179094,0.965337,22.582756,20.130041,-171.215328
51285,-4.725198,3.806713,9.237099,0.990428,0.201160,1.192812,0.221317,-0.122987,0.239679,-0.047354,0.037908,0.092384,0.999998,0.001107,-0.000615,0.001198,-0.040715,-0.184855,0.180381,0.965212,22.743088,20.008524,-171.105373
51286,-3.315135,3.454994,8.490477,-0.024378,0.107645,-0.065740,0.227209,-0.177403,0.311548,-0.033280,0.034402,0.084914,0.999998,0.001136,-0.000887,0.001558,-0.041890,-0.183739,0.181776,0.965113,22.915863,19.842063,-170.968666
51287,-3.129997,3.003734,8.679077,-0.252475,0.597960,-0.131559,0.296680,-0.117767,0.313712,-0.031398,0.029859,0.086817,0.999997,0.001483,-0.000589,0.001569,-0.043068,-0.182922,0.183493,0.964891,23.132953,19.706058,-170.817005
51288,-3.978236,2.824674,9.222215,0.350788,1.117625,0.554667,0.367536,-0.159815,0.295044,-0.039898,0.028018,0.092242,0.999997,0.001838,-0.000799,0.001475,-0.044051,-0.181934,0.185544,0.964641,23.383208,19.551621,-170.686780
51289,-3.914267,2.374759,9.066096,0.363467,1.520607,0.222771,0.443303,-0.242173,0.260357,-0.039283,0.023496,0.090666,0.999996,0.002217,-0.001211,0.001302,-0.044723,-0.180596,0.187944,0.964397,23.663043,19.361225,-170.596579
51290,-3.185159,2.429829,9.028027,-0.274796,1.393746,-0.038421,0.472928,-0.281469,0.133672,-0.031995,0.024063,0.090292,0.999996,0.002365,-0.001407,0.000668,-0.044720,-0.179194,0.190380,0.964181,23.932756,19.179229,-170.587374
51291,-3.580680,2.912399,8.818627,0.204186,0.983807,0.089923,0.518288,-0.330650,0.014345,-0.035955,0.028893,0.088202,0.999995,0.002591,-0.001653,0.000072,-0.044054,-0.177676,0.192937,0.963984,24.202621,18.999230,-170.657359
51292,-3.134099,3.506233,8.644489,-0.114893,0.351174,0.021270,0.485443,-0.355682,-0.071185,-0.031482,0.034864,0.086474,0.999995,0.002427,-0.001778,-0.000356,-0.042982,-0.176113,0.195262,0.963851,24.436094,18.826767,-170.781245
51293,-3.147689,3.343860,8.804380,-0.136190,0.593884,0.098675,0.330849,-0.384194,-0.198565,-0.031613,0.033324,0.088038,0.999996,0.001654,-0.001921,-0.000993,-0.041402,-0.174500,0.196736,0.963914,24.556551,18.669931,-170.983169
51294,-3.591877,3.359716,8.820855,0.299449,0.674728,0.259638,0.383434,-0.417644,-0.333630,-0.036047,0.033488,0.088198,0.999995,0.001917,-0.002088,-0.001668,-0.039096,-0.172870,0.198348,0.963974,24.680958,18.528443,-171.267499
51295,-3.378113,3.805842,8.462519,0.253345,0.121316,0.058043,0.327347,-0.486736,-0.375530,-0.033916,0.037984,0.084605,0.999994,0.001637,-0.002434,-0.001878,-0.036564,-0.170934,0.199667,0.964146,24.761418,18.361393,-171.592700
51296,-2.233360,3.994161,8.026493,-0.647803,-0.358366,-0.603035,0.269875,-0.466947,-0.445710,-0.022432,0.039883,0.080266,0.999994,0.001349,-0.002335,-0.002229,-0.033766,-0.169153,0.200641,0.964360,24.799014,18.221965,-171.950765
51297,-1.891609,3.824858,7.865896,-0.899788,-0.297257,-0.914258,0.237434,-0.374871,-0.502596,-0.018967,0.038203,0.078669,0.999994,0.001187,-0.001874,-0.002513,-0.030808,-0.167863,0.201395,0.964527,24.816566,18.144108,-172.316994
51298,-2.412584,3.674499,8.256438,-0.531998,0.063793,-0.474369,0.252377,-0.292829,-0.519482,-0.024151,0.036704,0.082575,0.999995,0.001262,-0.001464,-0.002597,-0.027844,-0.166988,0.202189,0.964603,24.846351,18.113183,-172.671120
51299,-2.840292,3.753257,8.357081,-0.160261,0.088083,-0.223028,0.238821,-0.267874,-0.559840,-0.028410,0.037512,0.083578,0.999994,0.001194,-0.001339,-0.002799,-0.024717,-0.166269,0.202882,0.964667,24.863869,18.105027,-173.041462
51300,-2.421487,3.903361,7.912355,-0.413317,-0.266525,-0.676861,0.180766,-0.218698,-0.601540,-0.024184,0.039035,0.079132,0.999994,0.000904,-0.001093,-0.003008,-0.021491,-0.165822,0.203248,0.964744,24.844555,18.132498,-173.421632
51301,-2.787664,4.241478,7.999989,-0.115151,-0.505105,-0.352633,0.162273,-0.132621,-0.591996,-0.027804,0.042432,0.080016,0.999995,0.000811,-0.000663,-0.002960,-0.018409,-0.165775,0.203525,0.964757,24.823012,18.202277,-173.775437
51302,-2.514824,4.154934,7.958769,-0.372313,-0.474394,-0.508595,0.115916,-0.061094,-0.547417,-0.025059,0.041572,0.079604,0.999996,0.000580,-0.000305,-0.002737,-0.015658,-0.166024,0.203605,0.964747,24.787431,18.298364,-174.086444
51303,-2.791819,3.892951,8.349699,-0.248816,-0.062566,-0.189750,0.084171,0.022373,-0.550025,-0.027802,0.038971,0.083517,0.999996,0.000421,0.000112,-0.002750,-0.013001,-0.166673,0.203523,0.964691,24.739404,18.438296,-174.378546
51304,-3.709613,3.595987,8.941974,0.413678,0.512649,0.493488,0.058956,0.033046,-0.570709,-0.036979,0.036039,0.089436,0.999996,0.000295,0.000165,-0.002854,-0.010280,-0.167391,0.203299,0.964647,24.673141,18.588413,-174.679240
51305,-3.518174,3.076255,8.870175,0.262279,0.928790,0.166762,0.056683,-0.025944,-0.586668,-0.035103,0.030840,0.088706,0.999996,0.000283,-0.000130,-0.002933,-0.007420,-0.167840,0.203053,0.964647,24.597409,18.711312,-175.004472
51306,-2.055779,2.333071,7.966897,-0.798041,1.126489,-1.372604,0.073441,0.015369,-0.655995,-0.020475,0.023369,0.079679,0.999995,0.000367,0.000077,-0.003280,-0.004258,-0.168559,0.202824,0.964589,24.521141,18.871834,-175.357350
51307,-0.961830,1.720810,7.190593,-1.560131,1.298523,-2.638379,0.134049,0.182016,-0.779751,-0.009486,0.017197,0.071926,0.999992,0.000670,0.000910,-0.003899,-0.000612,-0.170204,0.202779,0.964319,24.469807,19.148279,-175.737822
51308,-0.109519,1.415757,6.423980,-2.124082,1.224766,-3.707614,0.227388,0.484871,-0.908344,-0.000875,0.014089,0.064258,0.999986,0.001137,0.002424,-0.004542,0.003417,-0.173438,0.203065,0.963676,24.470564,19.612896,-176.113221
51309,-0.800289,2.189168,6.788654,-1.718988,0.712829,-2.880513,0.296764,0.929996,-1.083409,-0.007569,0.021833,0.067955,0.999973,0.001484,0.004650,-0.005417,0.007907,-0.178985,0.203538,0.962535,24.512616,20.351444,-176.475430
51310,-8.788767,3.750424,12.256032,3.606675,1.886515,5.185559,0.292890,1.065237,-1.240276,-0.086999,0.037866,0.123081,0.999966,0.001464,0.005326,-0.006201,0.012997,-0.185332,0.203838,0.961214,24.527856,21.197641,-176.890814
51311,-10.902850,2.670703,12.715861,5.381284,3.089802,5.973099,0.042800,0.184220,-1.264670,-0.108740,0.027368,0.127265,0.999980,0.000214,0.000921,-0.006323,0.018883,-0.187476,0.202852,0.960910,24.308190,21.589608,-177.548704
51312,-6.167976,0.168906,10.448336,2.030274,4.197053,1.390094,0.053293,-0.167129,-1.459197,-0.061753,0.002112,0.104432,0.999973,0.000266,-0.000836,-0.007296,0.026057,-0.188123,0.201683,0.960862,24.015745,21.840923,-178.406749
51313,-6.699575,0.881181,10.471494,2.436078,3.486783,1.901419,0.300783,-0.308683,-1.628907,-0.067083,0.009201,0.104625,0.999965,0.001504,-0.001543,-0.008144,0.034432,-0.188214,0.201520,0.960614,23.812649,22.053918,-179.399972
51314,-7.066102,2.228829,9.813865,2.822779,1.904683,2.003096,0.289188,-0.499372,-1.708636,-0.070713,0.022750,0.097995,0.999959,0.001446,-0.002497,-0.008543,0.043352,-0.187463,0.201166,0.960474,23.563303,22.181915,179.514023
51315,-6.908539,3.121839,7.721072,3.244424,0.134222,0.509282,-0.070008,-0.480583,-1.699648,-0.069002,0.031832,0.077034,0.999961,-0.000350,-0.002403,-0.008498,0.051886,-0.186850,0.199097,0.960602,23.110107,22.311235,178.434060
51316,-6.537999,4.075329,6.038033,3.262317,-1.536912,-0.712968,-0.690920,-0.069050,-1.438363,-0.065104,0.041430,0.060215,0.999968,-0.003455,-0.000345,-0.007192,0.058157,-0.188110,0.194367,0.960965,22.389828,22.590471,177.600863
51317,-6.411626,4.524187,6.716748,2.762580,-1.810297,-0.025915,-1.210895,0.420548,-0.860718,-0.063779,0.045923,0.067025,0.999970,-0.006054,0.002103,-0.004304,0.060699,-0.191292,0.187828,0.961480,21.539086,22.994858,177.206595
51318,-5.302709,2.316466,6.502960,2.161224,0.090772,-1.381005,-1.138259,0.726325,-0.177889,-0.052770,0.023582,0.065088,0.999977,-0.005691,0.003632,-0.000889,0.059729,-0.195280,0.182362,0.961791,20.906997,23.417096,177.272216
51319,-5.182640,2.530176,7.634357,1.539155,0.275035,-0.373421,-0.769100,0.976963,0.380974,-0.051501,0.025497,0.076498,0.999979,-0.003845,0.004885,0.001905,0.056210,-0.199835,0.179295,0.961644,20.640024,23.859592,177.715888
51320,-4.954676,3.016130,8.766597,0.757892,0.231867,0.669226,-0.713534,0.978341,0.823622,-0.049242,0.030271,0.087799,0.999973,-0.003568,0.004892,0.004118,0.050607,-0.203986,0.176918,0.961524,20.512428,24.216187,178.420309
51321,-3.169973,3.067437,9.728370,-1.294974,0.552124,0.775844,-0.818861,0.810921,1.183161,-0.031488,0.030886,0.097285,0.999966,-0.004094,0.004055,0.005916,0.043319,-0.207016,0.174360,0.961700,20.401114,24.411152,179.299683
51322,-0.257224,1.893804,9.360451,-3.661517,1.497437,-1.116643,-0.784769,0.585393,1.425875,-0.002435,0.019287,0.093537,0.999963,-0.003924,0.002927,0.007129,0.035086,-0.208740,0.172143,0.962062,20.348662,24.438798,-179.725833
51323,0.742509,3.565025,9.003433,-4.673841,-0.274305,-1.303755,-0.709069,0.460020,1.520401,0.007359,0.036025,0.089890,0.999962,-0.003545,0.002300,0.007602,0.026590,-0.209739,0.170366,0.962433,20.352187,24.379547,-178.724027
51324,1.543578,5.215728,9.105327,-5.609378,-1.911679,-1.016540,-0.982251,0.276574,1.537690,0.015158,0.052721,0.090774,0.999957,-0.004911,0.001383,0.007688,0.017865,-0.209868,0.167241,0.963155,20.183655,24.220271,-177.751259
51325,2.361015,4.566479,8.669557,-6.046871,-1.596239,-1.908640,-0.908487,0.065415,1.692593,0.023249,0.046256,0.086479,0.999954,-0.004542,0.000327,0.008463,0.008660,-0.208817,0.164613,0.963962,20.073133,23.918316,-176.735642
51326,3.024057,6.352001,7.506634,-6.241955,-3.809020,-2.576022,-0.686374,-0.093262,1.864067,0.029610,0.064055,0.074861,0.999951,-0.003432,-0.000466,0.009320,-0.001027,-0.206834,0.163200,0.964668,20.108740,23.497956,-175.654171
51327,1.496860,4.489051,4.829687,-3.553710,-2.851526,-4.816959,-0.213114,0.006795,1.825930,0.014559,0.045076,0.048248,0.999958,-0.001066,0.000034,0.009130,-0.010105,-0.205344,0.164027,0.964794,20.407711,23.135935,-174.579753
51328,-6.252281,5.296864,-0.892644,5.845989,-4.689924,-6.381686,1.418282,0.374669,1.459341,-0.062923,0.052571,-0.008435,0.999946,0.007091,0.001873,0.007297,-0.016057,-0.205991,0.172304,0.963131,21.582558,23.032937,-173.641762
51329,-12.716548,23.566086,8.074700,7.339691,-18.050860,10.250702,1.748922,1.014636,0.414351,-0.127234,0.234675,0.083447,0.999947,0.008744,0.005073,0.002072,-0.017169,-0.210627,0.181035,0.960504,22.770807,23.478113,-173.159574
51330,-11.058887,3.688756,16.474375,3.153261,3.277541,9.850029,-1.509452,0.069571,0.538470,-0.110633,0.037832,0.164499,0.999968,-0.007547,0.000348,0.002692,-0.021439,-0.210312,0.174323,0.961728,22.034242,23.394000,-172.829474
51331,4.392554,-2.570760,9.011219,-7.624556,4.856229,-4.773980,0.355188,-0.270170,0.443665,0.043861,-0.025770,0.090126,0.999995,0.001776,-0.001351,0.002218,-0.023009,-0.208640,0.176500,0.961659,22.311274,23.151169,-172.632745
51332,-3.900261,-0.321142,11.839572,-1.279357,4.664734,1.680534,0.110152,-0.018155,-0.412457,-0.039020,-0.003196,0.118390,0.999998,0.000551,-0.000091,-0.002062,-0.020937,-0.208904,0.176577,0.961635,22.276582,23.227637,-172.871164
51333,-4.556188,2.714792,8.740389,0.498750,0.872705,0.361443,0.472698,-0.458618,-0.692742,-0.045668,0.027099,0.087363,0.999989,0.002363,-0.002293,-0.003464,-0.016752,-0.207334,0.178146,0.961767,22.344870,23.131663,-173.375064
51334,-2.303320,3.019605,7.037298,-0.872540,-0.227300,-1.867006,0.021892,-0.218362,-0.709447,-0.023003,0.030270,0.070351,0.999993,0.000109,-0.001092,-0.003547,-0.013171,-0.206893,0.177504,0.962036,22.173550,23.166287,-173.831378
51335,-2.257296,3.357189,7.203404,-1.012709,-0.496521,-1.628376,0.281170,0.070986,-0.580289,-0.022450,0.033536,0.072089,0.999995,0.001406,0.000355,-0.002901,-0.010197,-0.207743,0.178225,0.961756,22.206406,23.325970,-174.145649
51336,-4.624967,4.623836,8.953999,0.341480,-0.862151,1.236485,0.226386,0.204743,-0.414617,-0.046062,0.046233,0.089640,0.999997,0.001132,0.001024,-0.002073,-0.008198,-0.209084,0.178844,0.961370,22.257371,23.520782,-174.332525
51337,-5.535920,4.370350,8.923985,1.167169,-0.544638,1.488856,0.244138,0.111755,-0.231004,-0.055259,0.043658,0.089324,0.999998,0.001221,0.000559,-0.001155,-0.006978,-0.209814,0.179744,0.961052,22.351846,23.626700,-174.435543
51338,-5.197603,3.505785,8.398479,1.109347,0.065807,0.608688,0.200752,0.032202,-0.125930,-0.051940,0.035006,0.084028,0.999999,0.001004,0.000161,-0.000630,-0.006237,-0.210065,0.180549,0.960852,22.438128,23.667648,-174.496529
51339,-4.448188,4.052107,8.208884,0.462104,-0.559337,0.339420,0.279960,-0.021254,-0.076146,-0.044475,0.040423,0.082141,0.999999,0.001400,-0.000106,-0.000381,-0.005603,-0.210017,0.181788,0.960632,22.576247,23.669530,-174.541567
51340,-4.325432,5.991397,8.623938,0.050629,-2.222873,1.324402,0.120160,-0.030467,-0.104614,-0.043236,0.059885,0.086269,1.000000,0.000601,-0.000152,-0.000523,-0.004991,-0.209946,0.182230,0.960568,22.615320,23.672907,-174.605297
51341,-5.305450,4.893739,8.557807,1.048356,-1.146324,1.274213,-0.197614,-0.128847,-0.090712,-0.053087,0.049046,0.085495,0.999999,-0.000988,-0.000644,-0.000454,-0.004690,-0.209381,0.181162,0.960894,22.466106,23.621076,-174.684539
51342,-4.194171,3.756881,8.244747,0.251047,-0.310281,0.163370,-0.208487,-0.151308,-0.023110,-0.042000,0.037660,0.082376,0.999999,-0.001042,-0.000757,-0.000116,-0.004701,-0.208646,0.180116,0.961251,22.324504,23.542481,-174.730316
51343,-3.137821,3.899877,7.954074,-0.591111,-0.659746,-0.456540,-0.337340,-0.130328,-0.053907,-0.031419,0.039141,0.079454,0.999998,-0.001687,-0.000652,-0.000270,-0.004722,-0.208037,0.178414,0.961700,22.103920,23.481479,-174.788212
51344,-2.983204,3.636941,7.651250,-0.585930,-0.566708,-0.868200,-0.444749,-0.016508,-0.124400,-0.029816,0.036558,0.076429,0.999997,-0.002224,-0.000083,-0.000622,-0.004611,-0.208033,0.176123,0.962123,21.816501,23.495884,-174.860577
51345,-3.135629,2.856051,7.516697,-0.345573,0.086465,-1.189300,-0.558832,0.087101,-0.201985,-0.031295,0.028802,0.075100,0.999995,-0.002794,0.000436,-0.001010,-0.004343,-0.208593,0.173195,0.962535,21.454905,23.581431,-174.953732
51346,-2.440429,3.506509,7.541025,-1.047024,-0.631502,-1.232309,-0.673789,0.195367,-0.410812,-0.024258,0.035369,0.075315,0.999992,-0.003369,0.000977,-0.002054,-0.003278,-0.209849,0.169495,0.962925,20.988138,23.767502,-175.145439
51347,-3.329525,4.138089,7.574190,-0.320387,-1.233995,-0.650189,-1.005748,0.277357,-0.673407,-0.033050,0.041873,0.075578,0.999981,-0.005029,0.001387,-0.003367,-0.001371,-0.211711,0.163912,0.963488,20.274126,24.048727,-175.474976
51348,-1.546683,3.229125,6.050827,-1.299316,-1.092855,-2.990065,-1.446378,0.426999,-0.922670,-0.015187,0.032798,0.060305,0.999961,-0.007232,0.002135,-0.004613,0.001153,-0.214482,0.155936,0.964199,19.256453,24.454289,-175.926256
51349,-0.592274,4.417173,6.856691,-2.639288,-2.186766,-2.388063,-2.076405,0.777570,-1.345176,-0.005357,0.044918,0.068125,0.999916,-0.010382,0.003888,-0.006726,0.004759,-0.219251,0.144448,0.964905,17.792256,25.118281,-176.570927
51350,-8.846164,8.818140,12.077161,2.199463,-4.767257,6.749130,-2.148794,0.698530,-0.987750,-0.087600,0.089908,0.120119,0.999924,-0.010744,0.003493,-0.004939,0.006625,-0.223345,0.132984,0.965603,16.358313,25.663578,-177.035926
51351,-6.942312,3.520562,9.347401,1.985484,-0.791875,2.161760,-2.663659,-0.045877,-0.451749,-0.069363,0.036603,0.092977,0.999909,-0.013318,-0.000229,-0.002259,0.005815,-0.223470,0.119580,0.967330,14.706609,25.704471,-177.315874
51352,-7.157319,-3.382629,9.253262,2.665249,5.678318,0.624887,-1.563238,-0.075788,-0.275345,-0.071654,-0.033003,0.092766,0.999968,-0.007816,-0.000379,-0.001377,0.005412,-0.223284,0.111689,0.968318,13.730861,25.698077,-177.494284
51353,-3.675560,-0.303668,9.644931,-0.829854,2.513103,0.168385,-0.761541,-0.090109,-0.085467,-0.036800,-0.002654,0.096443,0.999993,-0.003808,-0.000451,-0.000427,0.004979,-0.222894,0.107877,0.968843,13.263673,25.656361,-177.555795
51354,-4.230762,-0.077332,9.352123,-0.216953,2.188023,0.213917,-0.556874,0.017447,-0.024629,-0.042300,-0.000508,0.093527,0.999996,-0.002784,0.000087,-0.000123,0.004429,-0.222984,0.105131,0.969126,12.937320,25.666434,-177.564592
51355,-4.021790,-0.691701,8.805647,-0.140683,2.631630,-0.472058,-0.275952,0.040364,0.055463,-0.040198,-0.006807,0.088074,0.999999,-0.001380,0.000202,0.000277,0.003784,-0.223136,0.103830,0.969234,12.794422,25.679009,-177.519775
51356,-3.567625,1.119689,8.800539,-0.649325,0.829004,-0.308884,-0.057163,0.049626,0.092645,-0.035660,0.011206,0.088011,1.000000,-0.000286,0.000248,0.000463,0.003201,-0.223310,0.103632,0.969218,12.787562,25.692136,-177.450883
51357,-3.843175,2.711142,8.682532,-0.437115,-0.741392,0.024279,-0.023789,0.068202,0.091059,-0.038414,0.027104,0.086835,1.000000,-0.000119,0.000341,0.000455,0.002651,-0.223574,0.103593,0.969163,12.800435,25.715799,-177.380079
51358,-4.224501,3.255056,8.512550,-0.049969,-1.294903,0.148539,-0.102494,0.037404,0.064080,-0.042240,0.032581,0.085117,1.000000,-0.000512,0.000187,0.000320,0.002161,-0.223703,0.103144,0.969182,12.759204,25.725677,-177.330533
51359,-4.575471,2.544948,8.543835,0.289211,-0.590021,0.186164,-0.187175,0.004391,0.027613,-0.045756,0.025523,0.085415,1.000000,-0.000936,0.000022,0.000138,0.001769,-0.223691,0.102242,0.969281,12.657516,25.721766,-177.308047
51360,-4.627058,1.915121,8.532015,0.374493,0.011517,0.073274,-0.153225,-0.025231,-0.011858,-0.046280,0.019219,0.085300,1.000000,-0.000766,-0.000126,-0.000059,0.001624,-0.223556,0.101462,0.969394,12.563079,25.706262,-177.314563
51361,-4.501556,1.995047,8.740575,0.171237,-0.044913,0.217792,-0.125875,-0.043418,-0.043336,-0.045030,0.020015,0.087383,1.000000,-0.000629,-0.000217,-0.000217,0.001669,-0.223348,0.100777,0.969514,12.474555,25.684489,-177.342696
51362,-4.470910,1.947276,8.840834,0.108219,0.003772,0.283327,-0.176278,-0.068746,-0.061404,-0.044733,0.019564,0.088376,1.000000,-0.000881,-0.000344,-0.000307,0.001761,-0.223027,0.099829,0.969685,12.351044,25.650744,-177.385887
51363,-4.267751,1.418455,8.767196,-0.010568,0.481597,0.028926,-0.150285,-0.072829,-0.053262,-0.042706,0.014262,0.087646,1.000000,-0.000751,-0.000364,-0.000266,0.001841,-0.222682,0.099014,0.969848,12.244220,25.613620,-177.424056
51364,-4.291448,1.631488,8.826639,-0.018531,0.270230,0.132887,-0.123924,-0.060441,-0.046484,-0.042937,0.016380,0.088243,1.000000,-0.000620,-0.000302,-0.000232,0.001915,-0.222393,0.098337,0.969983,12.155280,25.582583,-177.456656
51365,-4.303178,1.759947,8.858958,-0.022167,0.137804,0.191131,-0.120319,-0.053203,-0.025843,-0.043053,0.017658,0.088568,1.000000,-0.000602,-0.000266,-0.000129,0.001885,-0.222129,0.097698,0.970108,12.074207,25.553047,-177.475030
51366,-4.536135,1.208613,8.819785,0.235214,0.667867,0.153480,-0.120926,-0.033271,-0.030426,-0.045374,0.012146,0.088183,1.000000,-0.000605,-0.000166,-0.000152,0.001871,-0.221964,0.097053,0.970211,11.992890,25.535231,-177.493900
51367,-4.253254,1.263528,8.731509,0.018096,0.577449,-0.035563,-0.037461,-0.013690,-0.026877,-0.042537,0.012657,0.087310,1.000000,-0.000187,-0.000068,-0.000134,0.001919,-0.221891,0.096815,0.970251,11.961305,25.527924,-177.507625
51368,-4.324351,1.422110,8.694374,0.091584,0.415642,-0.007923,0.016551,0.000986,-0.007860,-0.043243,0.014216,0.086945,1.000000,0.000083,0.000005,-0.000039,0.001930,-0.221879,0.096861,0.970249,11.966687,25.526623,-177.507827
51369,-4.225320,1.789388,8.854909,-0.083543,0.084098,0.159805,0.044678,-0.001229,0.006636,-0.042254,0.017873,0.088553,1.000000,0.000223,-0.000006,0.000033,0.001901,-0.221850,0.097059,0.970236,11.991844,25.522315,-177.499095
51370,-4.310097,1.700069,8.914880,-0.028900,0.190832,0.232461,0.066029,0.008503,-0.020436,-0.043095,0.016976,0.089156,1.000000,0.000330,0.000043,-0.000102,0.002023,-0.221881,0.097332,0.970202,12.022609,25.526727,-177.506064
51371,-4.392732,1.355525,8.651395,0.174283,0.488477,-0.029478,0.110902,0.007011,-0.033663,-0.043922,0.013515,0.086523,1.000000,0.000555,0.000035,-0.000168,0.002259,-0.221910,0.097806,0.970147,12.075393,25.531847,-177.521269
51372,-4.281896,1.700818,8.806926,-0.009925,0.187335,0.124824,0.197901,0.002791,-0.024557,-0.042816,0.016926,0.088087,1.000000,0.000990,0.000014,-0.000123,0.002550,-0.221914,0.098713,0.970053,12.180250,25.533576,-177.531486
51373,-4.200132,1.965672,8.644188,-0.026784,-0.090077,-0.003605,0.195775,-0.006337,0.005557,-0.042005,0.019571,0.086460,1.000000,0.000979,-0.000032,0.000028,0.002696,-0.221858,0.099642,0.969971,12.291386,25.526504,-177.524132
51374,-4.359238,2.221004,8.862184,0.011099,-0.275197,0.306514,0.171139,-0.012292,0.014106,-0.043599,0.022131,0.088638,1.000000,0.000856,-0.000061,0.000071,0.002778,-0.221769,0.100461,0.969906,12.390359,25.515088,-177.512396
51375,-4.512422,1.900311,8.783290,0.200772,0.046335,0.241010,0.207327,-0.025483,-0.009286,-0.045135,0.018914,0.087847,0.999999,0.001037,-0.000127,-0.000046,0.003018,-0.221627,0.101430,0.969837,12.503007,25.499113,-177.516893
51376,-4.413606,1.488879,8.866107,0.099806,0.482383,0.190404,0.271585,-0.037441,-0.012640,-0.044152,0.014771,0.088673,0.999999,0.001358,-0.000187,-0.000063,0.003354,-0.221428,0.102706,0.969747,12.650889,25.476936,-177.525291
51377,-4.151818,1.480194,8.725951,-0.072383,0.481114,-0.048776,0.381533,-0.033865,0.013583,-0.041534,0.014633,0.087280,0.999998,0.001908,-0.000169,0.000068,0.003681,-0.221230,0.104544,0.969595,12.868892,25.453405,-177.516904
51378,-4.048351,1.904881,8.825238,-0.228954,0.117479,0.078531,0.399675,-0.008416,0.038418,-0.040491,0.018865,0.088288,0.999998,0.001998,-0.000042,0.000192,0.003894,-0.221142,0.106497,0.969402,13.105386,25.440914,-177.489671
51379,-4.438669,1.917386,8.777396,0.143395,0.148846,0.206195,0.417340,-0.002032,0.042690,-0.044392,0.018981,0.087813,0.999998,0.002087,-0.000010,0.000213,0.004103,-0.221081,0.108541,0.969188,13.353515,25.431261,-177.458900
51380,-4.184249,2.113474,8.753684,-0.086773,-0.019389,0.116747,0.404908,-0.005088,0.042729,-0.041849,0.020949,0.087578,0.999998,0.002025,-0.000025,0.000214,0.004299,-0.221004,0.110523,0.968981,13.594283,25.419836,-177.428607
51381,-4.513924,2.816795,8.730379,0.179937,-0.661225,0.388277,0.364613,-0.000712,0.024686,-0.045143,0.028003,0.087355,0.999998,0.001823,-0.000004,0.000123,0.004536,-0.220959,0.112291,0.968787,13.807475,25.413132,-177.408827
51382,-4.244861,2.714709,8.537917,0.025502,-0.588117,0.083673,0.220555,-0.022610,0.009168,-0.042460,0.027051,0.085404,0.999999,0.001103,-0.000113,0.000046,0.004702,-0.220819,0.113342,0.968695,13.932594,25.396384,-177.402033
51383,-4.403747,2.238902,8.521421,0.205180,-0.105595,0.034496,0.148298,-0.008194,-0.001506,-0.044041,0.022326,0.085229,1.000000,0.000741,-0.000041,-0.000008,0.004831,-0.220756,0.114032,0.968628,14.014418,25.389059,-177.399560
51384,-4.235964,1.944927,8.551777,0.059049,0.192849,-0.075217,0.139839,-0.007595,-0.002004,-0.042363,0.019390,0.085530,1.000000,0.000699,-0.000038,-0.000010,0.004954,-0.220697,0.114681,0.968564,14.091344,25.382201,-177.397470
51385,-4.111636,2.454100,8.466928,-0.046913,-0.316408,-0.090821,0.120910,-0.014191,-0.019217,-0.041120,0.024494,0.084681,1.000000,0.000605,-0.000071,-0.000096,0.005141,-0.220616,0.115219,0.968518,14.152401,25.374014,-177.406837
51386,-3.722533,3.098536,8.510943,-0.455922,-0.943570,-0.076356,0.052823,-0.007667,-0.043276,-0.037222,0.030971,0.085116,1.000000,0.000264,-0.000038,-0.000216,0.005369,-0.220582,0.115401,0.968503,14.168591,25.372896,-177.430163
51387,-4.238185,3.411077,8.455319,0.013626,-1.243729,0.164438,-0.093212,-0.000509,-0.059610,-0.042372,0.034163,0.084537,1.000000,-0.000466,-0.000003,-0.000298,0.005508,-0.220596,0.114858,0.968563,14.097228,25.377963,-177.462253
51388,-4.070491,2.388274,8.365854,-0.036610,-0.289665,-0.211906,-0.183752,-0.007335,-0.054041,-0.040702,0.023971,0.083635,1.000000,-0.000919,-0.000037,-0.000270,0.005528,-0.220576,0.113884,0.968683,13.975166,25.378455,-177.492347
51389,-4.068714,2.109577,8.426598,-0.046502,-0.022881,-0.220524,-0.183826,0.000875,-0.037678,-0.040683,0.021181,0.084247,1.000000,-0.000919,0.000004,-0.000188,0.005460,-0.220586,0.112925,0.968793,13.857750,25.381160,-177.510748
51390,-4.070719,1.776415,8.438463,-0.029596,0.287937,-0.281147,-0.164677,0.008479,-0.021567,-0.040702,0.017838,0.084372,1.000000,-0.000823,0.000042,-0.000108,0.005335,-0.220623,0.112080,0.968883,13.756228,25.385899,-177.518478
51391,-3.866777,1.756127,8.409279,-0.201637,0.281549,-0.398231,-0.092219,0.038398,-0.005485,-0.038651,0.017601,0.084092,1.000000,-0.000461,0.000192,-0.000027,0.005192,-0.220795,0.111602,0.968900,13.702217,25.405057,-177.511407
51392,-3.883370,2.276516,8.620384,-0.311295,-0.186419,-0.094537,-0.080980,0.059951,0.018529,-0.038810,0.022796,0.086206,1.000000,-0.000405,0.000300,0.000093,0.004935,-0.221056,0.111207,0.968887,13.662532,25.432991,-177.486639
51393,-4.324181,2.199453,8.784651,0.015778,-0.065522,0.222335,-0.103848,0.072370,0.020948,-0.043212,0.022036,0.087851,1.000000,-0.000519,0.000362,0.000105,0.004632,-0.221378,0.110702,0.968873,13.611040,25.467504,-177.458218
51394,-4.206892,2.734792,8.952007,-0.198015,-0.567442,0.432031,-0.154598,0.067848,0.003722,-0.042039,0.027416,0.089513,1.000000,-0.000773,0.000339,0.000019,0.004361,-0.221687,0.109935,0.968891,13.525765,25.501857,-177.441466
51395,-4.803363,1.435338,9.041701,0.371241,0.728719,0.493427,-0.170070,0.044134,-0.010010,-0.048013,0.014433,0.090415,1.000000,-0.000850,0.000221,-0.000050,0.004150,-0.221890,0.109074,0.968943,13.426287,25.524843,-177.436427
51396,-4.197272,0.938667,8.764077,-0.031070,1.121441,-0.114820,-0.002083,0.025450,-0.014818,-0.041961,0.009391,0.087646,1.000000,-0.000010,0.000127,-0.000074,0.004162,-0.222001,0.109024,0.968923,13.420733,25.538081,-177.437456
51397,-4.173492,1.733206,8.840875,-0.134501,0.365390,0.108578,0.108395,0.061670,-0.011358,-0.041707,0.017287,0.088431,1.000000,0.000542,0.000308,-0.000057,0.004257,-0.222283,0.109511,0.968803,13.481562,25.571021,-177.430669
51398,-4.166756,1.602386,8.787465,-0.116844,0.492702,0.030717,0.147493,0.078391,0.003164,-0.041633,0.015958,0.087903,1.000000,0.000737,0.000392,0.000016,0.004317,-0.222638,0.110205,0.968643,13.569835,25.611337,-177.412535
51399,-4.109910,1.438362,8.848913,-0.194593,0.680950,0.024075,0.226947,0.124377,0.014164,-0.041045,0.014280,0.088531,0.999999,0.001135,0.000622,0.000071,0.004385,-0.223207,0.111297,0.968387,13.709542,25.675723,-177.380461
51400,-4.389244,1.775600,9.042028,-0.060120,0.429697,0.384771,0.270157,0.169105,0.034377,-0.043819,0.017626,0.090481,0.999999,0.001351,0.000846,0.000172,0.004380,-0.223980,0.112621,0.968055,13.882506,25.762159,-177.328924
51401,-4.499854,1.930485,9.112859,-0.017784,0.328463,0.527107,0.315832,0.184229,0.039816,-0.044918,0.019152,0.091200,0.999998,0.001579,0.000921,0.000199,0.004390,-0.224822,0.114171,0.967678,14.084334,25.856096,-177.271330
51402,-4.491465,1.545667,9.254283,-0.083435,0.772842,0.560337,0.448577,0.213618,0.044677,-0.044819,0.015239,0.092625,0.999997,0.002243,0.001068,0.000223,0.004508,-0.225799,0.116370,0.967188,14.365815,25.965451,-177.205582
51403,-4.747158,2.451250,9.334496,0.032073,-0.023015,0.942542,0.665604,0.229397,0.024934,-0.047367,0.024196,0.093480,0.999994,0.003328,0.001147,0.000125,0.004959,-0.226857,0.119595,0.966545,14.767904,26.086046,-177.148762
51404,-4.533821,3.853767,9.339666,-0.280060,-1.327378,1.178018,0.661070,0.236223,-0.024183,-0.045223,0.038234,0.093577,0.999994,0.003305,0.001181,-0.000121,0.005636,-0.227975,0.122741,0.965883,15.155017,26.217331,-177.119977
51405,-4.574743,5.270342,9.612550,-0.491401,-2.580648,1.771976,0.420296,0.221415,-0.108945,-0.045612,0.052526,0.096287,0.999997,0.002101,0.001107,-0.000545,0.006459,-0.229078,0.124626,0.965376,15.380426,26.353080,-177.145266
51406,-4.282621,5.455490,9.168881,-0.603458,-2.859247,1.306308,0.107629,0.199954,-0.197419,-0.042681,0.054548,0.091761,0.999999,0.000538,0.001000,-0.000987,0.007365,-0.230141,0.124902,0.965081,15.400991,26.490433,-177.228694
51407,-3.253028,6.230690,9.524640,-1.776368,-3.580801,1.329330,-0.204601,0.387132,-0.245896,-0.032269,0.062444,0.095245,0.999997,-0.001023,0.001936,-0.001229,0.008028,-0.232148,0.123619,0.964760,15.242912,26.738513,-177.310496
51408,-2.816365,5.764250,10.821292,-2.747986,-2.863858,2.124882,-0.236174,0.225657,-0.161656,-0.027995,0.057793,0.108176,0.999998,-0.001181,0.001128,-0.000808,0.008354,-0.233323,0.122281,0.964644,15.077850,26.884300,-177.368878
51409,-0.655006,7.758982,11.433399,-5.091547,-4.727356,2.148969,0.418870,-0.056845,0.533621,-0.006789,0.077332,0.114494,0.999994,0.002094,-0.000284,0.002668,0.006257,-0.232683,0.124895,0.964479,15.460558,26.769289,-177.043332
51410,2.114332,11.817171,10.129639,-7.195522,-9.019871,0.845075,0.991680,-0.181167,1.258375,0.020309,0.117797,0.101900,0.999968,0.004958,-0.000906,0.006292,0.001419,-0.230958,0.131115,0.964088,16.360670,26.468150,-176.296099
51411,-0.045059,10.181632,12.003972,-5.869626,-6.719887,3.154526,0.840593,-0.332126,1.624770,-0.001475,0.101301,0.120464,0.999957,0.004203,-0.001661,0.008124,-0.005272,-0.228255,0.137009,0.963898,17.252281,26.013624,-175.359372
51412,1.027686,6.150791,10.779412,-5.934600,-3.105110,0.685825,1.135121,-0.683265,1.747665,0.009373,0.060979,0.108174,0.999940,0.005675,-0.003416,0.008738,-0.011958,-0.223747,0.144476,0.963805,18.302810,25.330631,-174.431669
51413,-0.303350,5.426431,10.436000,-4.425133,-2.234821,0.858183,1.330887,-0.780025,1.654627,-0.003886,0.053539,0.104704,0.999936,0.006654,-0.003900,0.008273,-0.017925,-0.218836,0.152752,0.963564,19.413422,24.597937,-173.597081
51414,-2.510677,4.812522,10.379705,-2.247774,-1.255307,1.613970,1.347426,-0.955324,1.572451,-0.025977,0.047223,0.103995,0.999935,0.006737,-0.004777,0.007862,-0.023323,-0.213098,0.161033,0.963386,20.481139,23.770912,-172.871306
51415,-3.251692,3.790328,8.852780,-0.765966,-0.472184,0.311428,1.299922,-1.153708,1.545533,-0.033316,0.037072,0.088580,0.999932,0.006499,-0.005768,0.007727,-0.028498,-0.206411,0.169039,0.963332,21.477592,22.833187,-172.224600
51416,-2.831531,2.953141,7.208672,-0.339584,-0.092960,-1.531567,1.254827,-1.083883,1.439171,-0.028915,0.028872,0.072114,0.999940,0.006274,-0.005419,0.007196,-0.033244,-0.200097,0.176706,0.963136,22.415017,21.943559,-171.646622
51417,-3.782260,2.165935,6.840705,0.782281,0.789226,-1.778076,1.239794,-0.890416,1.323397,-0.038267,0.020983,0.068369,0.999949,0.006199,-0.004452,0.006617,-0.037633,-0.194812,0.184113,0.962671,23.320353,21.175232,-171.104613
51418,-4.667631,1.787878,6.606178,1.767140,1.324062,-1.828521,1.223180,-0.733270,1.249283,-0.047027,0.017182,0.065996,0.999955,0.006116,-0.003666,0.006246,-0.041804,-0.190310,0.191339,0.961990,24.204817,20.496757,-170.583150
51419,-4.472338,1.969056,6.227789,1.794934,1.117527,-2.184299,1.015329,-0.563066,1.156100,-0.045010,0.019115,0.062249,0.999966,0.005077,-0.002815,0.005780,-0.045903,-0.186676,0.197407,0.961288,24.956033,19.924140,-170.080446
51420,-4.148466,1.514498,5.900412,1.654529,1.458962,-2.780499,0.630856,-0.291876,1.025835,-0.041647,0.014746,0.058990,0.999981,0.003154,-0.001459,0.005129,-0.049983,-0.184358,0.201450,0.960693,25.481024,19.516958,-169.589686
51421,-5.347891,1.294855,6.568202,2.532442,2.183000,-1.923538,0.327710,-0.039156,0.930586,-0.053551,0.012592,0.065692,0.999988,0.001639,-0.000196,0.004653,-0.054154,-0.183287,0.203863,0.960163,25.831558,19.262112,-169.086741
51422,-6.146322,1.053642,6.919579,3.142707,2.740111,-1.483050,0.100547,0.016532,0.913805,-0.061505,0.010221,0.069206,0.999989,0.000503,0.000083,0.004569,-0.058493,-0.182418,0.205165,0.959797,26.052324,19.036292,-168.582269
51423,-5.782578,0.819361,6.603904,2.918097,2.822003,-1.986968,0.002535,0.051306,0.903904,-0.057845,0.007931,0.066054,0.999990,0.000013,0.000257,0.004520,-0.062924,-0.181709,0.205958,0.959481,26.214703,18.830769,-168.073349
51424,-5.679767,1.017627,7.109236,2.639354,2.860426,-1.524860,0.011858,0.163087,0.915084,-0.056785,0.009912,0.071139,0.999989,0.000059,0.000815,0.004575,-0.067501,-0.181512,0.206778,0.959031,26.393095,18.677192,-167.531292
51425,-6.059261,1.563041,7.795760,2.758141,2.751160,-0.606432,-0.064278,0.118129,0.970105,-0.060621,0.015361,0.077988,0.999988,-0.000321,0.000591,0.004851,-0.072376,-0.181025,0.207281,0.958659,26.530649,18.486287,-166.970860
51426,-5.134510,0.934663,7.936580,1.809902,3.219171,-1.061280,-0.117899,0.094413,0.989121,-0.051353,0.009139,0.079385,0.999987,-0.000589,0.000472,0.004946,-0.077353,-0.180371,0.207558,0.958333,26.637236,18.276309,-166.409017
51427,-5.844742,1.217453,8.388709,2.315972,3.333937,-0.350417,-0.075777,0.044719,0.996854,-0.058488,0.011915,0.083896,0.999987,-0.000379,0.000224,0.004984,-0.082287,-0.179492,0.208047,0.957981,26.761866,18.038740,-165.856280
51428,-5.644116,1.678671,8.367116,2.189087,2.907547,-0.250443,-0.167250,-0.071067,0.932766,-0.056549,0.016593,0.083637,0.999989,-0.000836,-0.000355,0.004664,-0.086867,-0.178076,0.208090,0.957832,26.811553,17.757030,-165.371447
51429,-6.546692,0.722458,8.820739,2.778543,4.189360,-0.019050,-0.107263,-0.119683,0.824901,-0.065549,0.007002,0.088164,0.999991,-0.000536,-0.000598,0.004124,-0.090831,-0.176569,0.208335,0.957690,26.871071,17.478600,-164.957863
51430,-8.601748,1.552624,8.689247,4.838940,3.954384,0.810426,0.006143,-0.445303,0.755365,-0.086268,0.015198,0.086701,0.999990,0.000031,-0.002227,0.003777,-0.094019,-0.173619,0.209207,0.957731,26.955680,17.050977,-164.671382
51431,-6.469611,-0.477722,4.309407,4.325759,3.657318,-4.467903,-0.031025,-0.535424,0.443973,-0.064800,-0.004914,0.042921,0.999994,-0.000155,-0.002677,0.002220,-0.095654,-0.170547,0.209668,0.958020,26.961297,16.658370,-164.576205
51432,-4.986973,1.795364,4.283428,3.233710,1.256886,-3.947168,0.497447,-0.071058,-0.042655,-0.049881,0.017858,0.042861,0.999997,0.002487,-0.000355,-0.000213,-0.094995,-0.170462,0.212021,0.957583,27.231027,16.629515,-164.614603
51433,-4.962660,6.617742,10.699309,1.367242,-0.623913,3.627507,0.489402,0.029503,-0.309939,-0.049508,0.065992,0.107162,0.999996,0.002447,0.000148,-0.001550,-0.093167,-0.171136,0.214059,0.957189,27.463325,16.722237,-164.767606
51434,-1.363577,8.772690,12.586808,-2.450463,-2.682194,5.155540,0.503007,-0.311717,-0.355952,-0.013676,0.087434,0.126067,0.999994,0.002515,-0.001559,-0.001780,-0.090741,-0.170233,0.216278,0.957084,27.669332,16.654725,-165.039159
51435,-2.209746,8.610263,11.619639,-1.323652,-2.676890,4.509244,-0.152827,-0.297573,-0.220886,-0.022175,0.086216,0.116098,0.999998,-0.000764,-0.001488,-0.001104,-0.089535,-0.168950,0.215467,0.957608,27.521569,16.558364,-165.235085
51436,-4.123106,4.151217,7.329886,1.590581,0.112129,-0.570542,-0.072783,-0.250596,0.160710,-0.041356,0.041506,0.073232,0.999999,-0.000364,-0.001253,0.000804,-0.090134,-0.167516,0.215342,0.957832,27.481382,16.384700,-165.215993
51437,-3.874103,5.965594,7.958780,1.343446,-1.310440,0.695260,0.066579,-0.071552,0.422698,-0.038895,0.059547,0.079594,0.999998,0.000333,-0.000358,0.002113,-0.092068,-0.166720,0.216020,0.957634,27.573611,16.232531,-165.008429
51438,-1.782537,4.150811,7.756967,-0.686729,-0.272313,-0.866661,-0.014806,-0.068433,0.532116,-0.017962,0.041466,0.077560,0.999996,-0.000074,-0.000342,0.002661,-0.094590,-0.165782,0.216399,0.957466,27.635105,16.052829,-164.743310
51439,-1.137955,3.134047,7.999452,-1.466804,0.573320,-1.290469,0.059471,0.091254,0.469098,-0.011416,0.031290,0.080009,0.999997,0.000297,0.000456,0.002345,-0.096927,-0.165711,0.217002,0.957108,27.741214,15.970348,-164.466919
51440,-2.706032,2.639237,8.769492,-0.347383,1.728018,-0.427305,0.146221,0.124700,0.368239,-0.027054,0.026278,0.087731,0.999998,0.000731,0.000624,0.001841,-0.098740,-0.165950,0.217922,0.956672,27.884835,15.931310,-164.235266
51441,-2.589772,2.744947,8.898501,-0.495202,1.675845,-0.306309,0.196950,0.080969,0.199916,-0.025889,0.027336,0.089022,0.999999,0.000985,0.000405,0.001000,-0.099664,-0.166189,0.218964,0.956297,28.029503,15.914682,-164.103942
51442,-2.204652,3.583879,8.420782,-0.585775,0.667543,-0.441162,0.190457,0.021368,0.001961,-0.022038,0.035758,0.084244,1.000000,0.000952,0.000107,0.000010,-0.099579,-0.166356,0.219839,0.956076,28.137357,15.921153,-164.093611
51443,-2.787908,4.264243,8.307305,0.065423,0.189035,-0.069614,0.170349,0.046714,-0.139773,-0.027830,0.042591,0.083116,0.999999,0.000852,0.000234,-0.000699,-0.098863,-0.166789,0.220487,0.955925,28.215148,15.978643,-164.150408
51444,-3.974721,4.506091,8.738727,1.025070,0.464757,0.732541,0.178195,-0.025181,-0.128657,-0.039729,0.045009,0.087422,0.999999,0.000891,-0.000126,-0.000643,-0.098114,-0.166870,0.221218,0.955819,28.293445,15.997006,-164.221637
51445,-1.958682,3.108102,8.237033,-0.820660,0.986274,-0.885245,0.138678,-0.050622,-0.118316,-0.019589,0.031035,0.082387,1.000000,0.000693,-0.000253,-0.000592,-0.097419,-0.166799,0.221780,0.955773,28.348599,15.999706,-164.294561
51446,-1.668158,2.798515,8.409680,-1.194982,1.266180,-0.963625,0.304508,0.062279,-0.198305,-0.016628,0.027874,0.084144,0.999998,0.001523,0.000311,-0.000992,-0.096329,-0.167437,0.223012,0.955485,28.495919,16.081359,-164.377298
51447,-1.780391,2.797377,8.019877,-0.968594,1.163767,-1.267459,0.372477,0.112181,-0.287766,-0.017719,0.027850,0.080261,0.999997,0.001862,0.000561,-0.001439,-0.094810,-0.168444,0.224469,0.955118,28.673076,16.212744,-164.492556
51448,-1.798173,4.002718,8.015159,-0.854658,0.127186,-0.715922,0.430587,0.218731,-0.384054,-0.017817,0.039889,0.080257,0.999995,0.002153,0.001094,-0.001920,-0.092905,-0.170096,0.226069,0.954636,28.877549,16.424624,-164.626741
51449,-2.694005,4.846523,8.194306,-0.051242,-0.295934,0.076836,0.386913,0.235756,-0.441394,-0.026737,0.048366,0.082068,0.999995,0.001935,0.001179,-0.002207,-0.090778,-0.171871,0.227403,0.954205,29.049714,16.661312,-164.785895
51450,-2.907592,5.136863,8.037534,0.183734,-0.547356,0.142705,0.321817,0.243412,-0.436981,-0.028866,0.051302,0.080493,0.999996,0.001609,0.001217,-0.002185,-0.088740,-0.173647,0.228423,0.953832,29.185196,16.901028,-164.939543
51451,-3.128278,5.518176,8.322150,0.266395,-0.703584,0.624186,0.296041,0.261591,-0.434099,-0.031054,0.055126,0.083344,0.999996,0.001480,0.001308,-0.002170,-0.086753,-0.175492,0.229314,0.953463,29.307584,17.149339,-165.086500
51452,-3.738559,5.776793,8.439228,0.759886,-0.728064,1.025257,0.220474,0.227390,-0.368684,-0.037183,0.057743,0.084498,0.999997,0.001102,0.001137,-0.001843,-0.085108,-0.177067,0.229915,0.953175,29.393227,17.362476,-165.208681
51453,-4.482594,6.114454,8.676800,1.345244,-0.742957,1.606826,0.189730,0.160196,-0.245652,-0.044681,0.061117,0.086862,0.999998,0.000949,0.000801,-0.001228,-0.083996,-0.178165,0.230507,0.952926,29.474422,17.507589,-165.286472
51454,-3.655808,5.975862,8.339804,0.673318,-0.956072,1.016011,0.089294,0.105815,-0.142829,-0.036471,0.059747,0.083444,1.000000,0.000446,0.000529,-0.000714,-0.083401,-0.178843,0.230734,0.952796,29.509279,17.596748,-165.326400
51455,-3.664252,5.713804,8.228270,0.689017,-0.770168,0.803847,0.010550,0.077740,-0.074085,-0.036589,0.057147,0.082300,1.000000,0.000053,0.000389,-0.000370,-0.083171,-0.179275,0.230659,0.952753,29.507388,17.652424,-165.338727
51456,-3.476381,4.986428,8.367070,0.400101,-0.122309,0.520875,-0.026684,0.069322,-0.021678,-0.034729,0.049879,0.083676,1.000000,-0.000133,0.000347,-0.000108,-0.083212,-0.179592,0.230458,0.952739,29.491772,17.689246,-165.326327
51457,-3.531474,4.934224,8.566374,0.368892,0.014596,0.678468,-0.039318,0.011221,0.012100,-0.035313,0.049357,0.085656,1.000000,-0.000197,0.000056,0.000061,-0.083361,-0.179587,0.230251,0.952777,29.469013,17.687437,-165.313254
51458,-2.640897,5.043418,7.886247,-0.182816,-0.578504,-0.105205,-0.051184,0.010193,0.026991,-0.026412,0.050451,0.078851,1.000000,-0.000256,0.000051,0.000135,-0.083588,-0.179555,0.230002,0.952823,29.441798,17.681087,-165.292931
51459,-2.678386,5.405137,7.778972,-0.077781,-0.937474,-0.013874,-0.099089,0.060149,0.058991,-0.026776,0.054082,0.077771,1.000000,-0.000495,0.000301,0.000295,-0.084069,-0.179704,0.229532,0.952866,29.396646,17.690513,-165.240841
51460,-2.724940,5.385421,7.744373,-0.022791,-0.931634,-0.038492,-0.134083,0.112797,0.091954,-0.027231,0.053894,0.077423,1.000000,-0.000670,0.000564,0.000460,-0.084796,-0.180052,0.228903,0.952887,29.341566,17.717140,-165.156347
51461,-3.005222,4.869654,7.980233,0.103353,-0.326989,0.001149,-0.218304,0.136971,0.087771,-0.030019,0.048770,0.079770,0.999999,-0.001092,0.000685,0.000439,-0.085610,-0.180483,0.227858,0.952983,29.239638,17.756999,-165.066556
51462,-3.041761,4.183845,8.265178,-0.031019,0.383203,-0.069885,-0.218165,0.146808,0.056774,-0.030369,0.041920,0.082628,0.999999,-0.001091,0.000734,0.000284,-0.086283,-0.180996,0.226783,0.953082,29.133941,17.810714,-164.990756
51463,-3.216167,3.927026,8.501358,0.012319,0.727986,0.061937,-0.208743,0.118766,0.004440,-0.032112,0.039358,0.084992,0.999999,-0.001044,0.000594,0.000022,-0.086670,-0.181439,0.225715,0.953216,29.022550,17.864977,-164.950229
51464,-2.843441,4.003805,8.506533,-0.330154,0.549309,-0.011364,-0.202877,0.073221,-0.060443,-0.028391,0.040133,0.085035,0.999999,-0.001014,0.000366,-0.000302,-0.086688,-0.181740,0.224637,0.953412,28.900083,17.914619,-164.957677
51465,-3.175526,3.976854,8.432300,-0.003352,0.604747,0.017738,-0.163317,0.072299,-0.119697,-0.031701,0.039856,0.084302,0.999999,-0.000817,0.000361,-0.000598,-0.086390,-0.182120,0.223692,0.953588,28.790389,17.980033,-164.996346
51466,-3.151619,4.244918,8.431458,-0.007861,0.339802,0.133464,-0.173767,0.033618,-0.164639,-0.031467,0.042548,0.084283,0.999999,-0.000869,0.000168,-0.000823,-0.085841,-0.182362,0.222674,0.953830,28.663898,18.038442,-165.070380
51467,-3.099020,4.362233,8.324188,-0.010019,0.159254,0.081736,-0.137243,0.030155,-0.187708,-0.030937,0.043708,0.083217,0.999999,-0.000686,0.000151,-0.000939,-0.085147,-0.182627,0.221809,0.954043,28.554035,18.101164,-165.157506
51468,-3.256370,4.692452,8.201696,0.203693,-0.163315,0.178442,-0.135417,0.019101,-0.169247,-0.032516,0.047008,0.081988,0.999999,-0.000677,0.000096,-0.000846,-0.084526,-0.182821,0.220975,0.954255,28.447200,18.153248,-165.238390
51469,-2.700586,4.682330,7.956528,-0.217515,-0.403982,-0.204713,-0.147342,0.033548,-0.148135,-0.026958,0.046902,0.079535,0.999999,-0.000737,0.000168,-0.000741,-0.084034,-0.183055,0.220096,0.954456,28.338151,18.206585,-165.303852
51470,-2.526904,4.397902,7.840058,-0.361239,-0.258492,-0.485526,-0.168581,0.078971,-0.172314,-0.025200,0.044067,0.078373,0.999999,-0.000843,0.000395,-0.000862,-0.083493,-0.183523,0.219076,0.954649,28.216940,18.289405,-165.369584
51471,-2.917966,3.911873,8.255973,-0.211903,0.407156,-0.233145,-0.161067,0.119572,-0.195852,-0.029092,0.039214,0.082546,0.999999,-0.000805,0.000598,-0.000979,-0.082880,-0.184213,0.218051,0.954804,28.099477,18.398844,-165.436227
51472,-3.741241,4.104707,8.750591,0.355053,0.602508,0.527971,-0.093843,0.086205,-0.184610,-0.037337,0.041123,0.087503,0.999999,-0.000469,0.000431,-0.000923,-0.082220,-0.184759,0.217372,0.954910,28.019310,18.488375,-165.506817
51473,-2.955712,3.859498,8.365521,-0.246801,0.469735,-0.151823,-0.088051,0.078420,-0.205840,-0.029485,0.038662,0.083650,0.999999,-0.000440,0.000392,-0.001029,-0.081447,-0.185293,0.216703,0.955025,27.937931,18.579478,-165.590892
51474,-3.240861,4.453357,8.500807,-0.005929,0.043341,0.316348,-0.060933,0.102635,-0.196904,-0.032321,0.044591,0.085011,0.999999,-0.000305,0.000513,-0.000985,-0.080716,-0.185945,0.216162,0.955083,27.875639,18.680461,-165.663613
51475,-3.439063,4.670284,8.324790,0.247042,-0.186084,0.328572,-0.079121,0.099171,-0.158411,-0.034312,0.046763,0.083246,0.999999,-0.000396,0.000496,-0.000792,-0.080184,-0.186530,0.215571,0.955147,27.809035,18.769195,-165.716776
51476,-3.239815,4.108823,8.445255,-0.036315,0.298757,0.117597,-0.126792,0.121349,-0.149162,-0.032316,0.041166,0.084446,0.999999,-0.000634,0.000607,-0.000746,-0.079762,-0.187193,0.214752,0.955237,27.718629,18.866760,-165.759021
51477,-3.353345,2.730016,9.088466,-0.298483,1.789785,0.087094,-0.029574,0.157270,-0.150282,-0.033441,0.027339,0.090907,0.999999,-0.000148,0.000786,-0.000751,-0.079284,-0.188066,0.214381,0.955189,27.686863,18.982678,-165.791758
51478,-5.669153,3.841479,10.939630,1.156341,2.032199,2.880018,0.124568,0.107952,-0.147220,-0.056604,0.038388,0.109451,0.999999,0.000623,0.000540,-0.000736,-0.078624,-0.188762,0.214768,0.955019,27.739295,19.072902,-165.836631
51479,-4.931982,4.974785,9.214435,1.237069,0.188503,1.694391,-0.026512,-0.174848,-0.106278,-0.049374,0.049786,0.092095,0.999999,-0.000133,-0.000874,-0.000531,-0.077997,-0.188003,0.214584,0.955262,27.686382,19.008639,-165.939371
51480,-2.094883,5.513461,7.262249,-0.550666,-1.699200,-0.629195,-0.104624,-0.127693,-0.133021,-0.020958,0.055187,0.072580,0.999999,-0.000523,-0.000638,-0.000665,-0.077368,-0.187470,0.213981,0.955553,27.588339,18.975542,-166.042840
51481,-1.283185,6.375230,7.593640,-1.365634,-2.552066,-0.243183,-0.259935,0.009810,-0.205005,-0.012763,0.063864,0.075854,0.999999,-0.001300,0.000049,-0.001025,-0.076686,-0.187608,0.212517,0.955907,27.401382,19.030876,-166.146706
51482,-1.882156,6.020986,8.137531,-1.059668,-1.930315,0.245394,-0.367970,0.104832,-0.254970,-0.018702,0.060383,0.081274,0.999997,-0.001840,0.000524,-0.001275,-0.075966,-0.188212,0.210453,0.956303,27.152145,19.147474,-166.251503
51483,-1.729086,6.663763,8.723961,-1.400408,-2.376963,0.952605,-0.479064,0.133129,-0.327826,-0.017123,0.066875,0.087091,0.999996,-0.002395,0.000666,-0.001639,-0.075033,-0.188983,0.207776,0.956810,26.828364,19.296839,-166.388468
51484,-1.266878,6.000242,8.772815,-1.902990,-1.930717,0.542052,-0.606551,0.175336,-0.392544,-0.012474,0.060293,0.087557,0.999993,-0.003033,0.000877,-0.001963,-0.073949,-0.189973,0.204413,0.957422,26.423119,19.483599,-166.550725
51485,-1.444307,6.324553,8.977883,-1.823060,-2.185201,0.891946,-0.565666,0.254502,-0.415502,-0.014197,0.063529,0.089618,0.999993,-0.002828,0.001273,-0.002078,-0.072800,-0.191379,0.201188,0.957913,26.042962,19.715826,-166.705294
51486,0.938576,7.348333,10.569221,-4.598787,-3.141203,1.830794,-0.611958,0.237850,-0.382150,0.009652,0.073788,0.105455,0.999993,-0.003060,0.001189,-0.001911,-0.071831,-0.192649,0.197782,0.958441,25.640106,19.929930,-166.848671
51487,2.340763,5.846834,10.025157,-5.774411,-2.336642,0.255299,-0.525433,0.127193,-0.238558,0.023541,0.058703,0.100083,0.999996,-0.002627,0.000636,-0.001193,-0.071364,-0.193278,0.194962,0.958927,25.302646,20.050749,-166.942877
51488,5.066461,8.290184,9.847546,-8.058822,-5.247351,0.131705,-0.134592,0.098960,-0.183155,0.050789,0.082922,0.098395,0.999999,-0.000673,0.000495,-0.000916,-0.070749,-0.193849,0.194085,0.959035,25.197213,20.142375,-167.015296
51489,4.341563,8.047089,10.348782,-7.619385,-4.706852,0.698859,-0.001650,-0.003713,-0.057435,0.043437,0.080459,0.103488,1.000000,-0.000008,-0.000019,-0.000287,-0.070516,-0.193860,0.193996,0.959068,25.182107,20.150716,-167.044204
51490,4.570904,7.794021,9.878110,-7.651286,-4.671900,0.129548,0.216246,-0.153562,0.119708,0.045587,0.077861,0.098900,0.999999,0.001081,-0.000768,0.000599,-0.070767,-0.193044,0.195187,0.958972,25.312808,20.036737,-167.015567
51491,3.766493,7.449175,9.911727,-6.929676,-4.146672,0.321586,0.238724,-0.225278,0.227196,0.037469,0.074416,0.099248,0.999998,0.001194,-0.001126,0.001136,-0.071450,-0.191800,0.196605,0.958882,25.469260,19.860561,-166.945584
51492,1.847775,6.406502,9.785874,-5.153554,-2.795330,0.475536,0.308137,-0.328894,0.341316,0.018207,0.063945,0.097987,0.999996,0.001541,-0.001644,0.001707,-0.072501,-0.189951,0.198513,0.958778,25.677931,19.600333,-166.842379
51493,0.601047,5.975214,9.180197,-3.755834,-2.303825,0.233510,0.355111,-0.440317,0.386733,0.005693,0.059600,0.091921,0.999994,0.001776,-0.002202,0.001934,-0.073624,-0.187557,0.200716,0.958705,25.910091,19.272991,-166.743513
51494,-0.779695,5.140203,8.948298,-2.403976,-1.277474,0.171809,0.401002,-0.480186,0.337763,-0.008099,0.051209,0.089567,0.999994,0.002005,-0.002401,0.001689,-0.074418,-0.185014,0.203119,0.958632,26.156340,18.934590,-166.685258
51495,-2.012578,4.680236,8.875964,-1.223056,-0.561035,0.332590,0.483653,-0.576773,0.250728,-0.020440,0.046562,0.088814,0.999992,0.002418,-0.002884,0.001254,-0.074630,-0.182146,0.205856,0.958581,26.424462,18.570872,-166.700150
51496,-2.536950,4.122664,8.555403,-0.602477,-0.001093,-0.001271,0.511988,-0.669589,0.129294,-0.025683,0.040991,0.085574,0.999991,0.002560,-0.003348,0.000646,-0.074126,-0.178942,0.208664,0.958616,26.680904,18.188149,-166.809110
51497,-2.676773,3.893435,8.006300,-0.231898,0.086097,-0.519509,0.553791,-0.695597,0.015612,-0.027049,0.038711,0.080077,0.999990,0.002769,-0.003478,0.000078,-0.073022,-0.175768,0.211562,0.958653,26.939283,17.824570,-166.986118
51498,-3.590627,3.931934,8.028058,0.658180,0.307063,-0.206723,0.556288,-0.655133,-0.030271,-0.036163,0.039102,0.080271,0.999991,0.002781,-0.003276,-0.000151,-0.071728,-0.172810,0.214428,0.958651,27.196711,17.491749,-167.179656
51499,-5.220699,4.186867,8.352147,2.124073,0.598073,0.659851,0.534317,-0.661441,0.063908,-0.052496,0.041629,0.083460,0.999991,0.002672,-0.003307,0.000320,-0.070906,-0.169734,0.217252,0.958626,27.455620,17.134385,-167.324246
51500,-6.193641,4.591206,7.699251,3.353301,0.234090,0.551613,0.433137,-0.736359,0.288442,-0.062286,0.045656,0.076863,0.999990,0.002166,-0.003682,0.001442,-0.071152,-0.165993,0.219820,0.958678,27.686880,16.677555,-167.373395
51501,-5.108093,4.213107,5.774255,3.053962,-0.377202,-1.583746,0.228228,-0.640166,0.513946,-0.051373,0.041933,0.057626,0.999991,0.001141,-0.003201,0.002570,-0.072765,-0.162411,0.221539,0.958774,27.840917,16.211926,-167.276344
51502,-5.346769,4.196799,5.061381,3.577198,-0.555811,-2.150249,0.088720,-0.349937,0.790309,-0.053721,0.041734,0.050539,0.999991,0.000444,-0.001750,0.003952,-0.076122,-0.159840,0.222719,0.958672,27.977561,15.816701,-166.956223
51503,-5.624599,3.298499,4.993281,3.837803,0.328934,-2.559296,-0.062800,-0.103480,1.126162,-0.056456,0.032683,0.049893,0.999984,-0.000314,-0.000517,0.005631,-0.081496,-0.158035,0.223327,0.958388,28.089930,15.457195,-166.390250
51504,-6.126969,1.409005,5.527454,3.988051,2.403615,-2.856017,-0.044902,0.069781,1.420070,-0.061348,0.013667,0.055293,0.999975,-0.000225,0.000349,0.007100,-0.088436,-0.156714,0.224188,0.957789,28.263181,15.102421,-165.626154
51505,-6.599111,-0.724858,5.563374,4.194571,4.505108,-3.718974,0.020096,0.087078,1.658296,-0.065904,-0.007801,0.055662,0.999966,0.000100,0.000435,0.008291,-0.096499,-0.155247,0.225510,0.956939,28.500062,14.690738,-164.733168
51506,-5.877929,-3.369982,4.382104,3.567370,6.257680,-6.176226,-0.107514,0.197677,1.691740,-0.058448,-0.034172,0.043897,0.999964,-0.000538,0.000988,0.008459,-0.104923,-0.154184,0.226190,0.956063,28.670258,14.320951,-163.796650
51507,-9.505543,-7.882177,1.503456,7.221500,10.128623,-9.861064,-0.211123,0.596164,1.394724,-0.094457,-0.079466,0.015400,0.999971,-0.001056,0.002981,0.006974,-0.112466,-0.155312,0.225910,0.955089,28.766033,14.232581,-162.900723
51508,-14.750754,-14.891098,-9.041755,14.660962,13.666449,-20.738084,0.279213,1.425530,0.308736,-0.147918,-0.149014,-0.089572,0.999972,0.001396,0.007128,0.001544,-0.115369,-0.161886,0.226654,0.953473,29.065617,14.857129,-162.330015
51509,-13.212600,7.434004,23.031929,4.369772,6.670072,16.580523,2.939882,3.334983,-2.087083,-0.127488,0.072269,0.233544,0.999699,0.014698,0.016673,-0.010434,-0.106827,-0.181766,0.236961,0.948366,30.722820,17.105589,-162.414402
51510,-7.918349,12.662465,28.884155,-2.697494,3.108663,22.442382,-0.331000,-0.468499,-0.920795,-0.079274,0.127467,0.288445,0.999985,-0.001655,-0.002342,-0.004604,-0.102254,-0.180429,0.234772,0.949669,30.347654,17.138470,-163.028477
51511,5.659969,-0.793809,-0.333987,-5.127620,-0.998412,-12.155181,-0.220990,0.128153,-1.088389,0.056553,-0.008250,-0.003367,0.999984,-0.001105,0.000641,-0.005442,-0.097477,-0.182170,0.232646,0.950362,30.061234,17.511620,-163.550976
51512,-9.203746,4.452919,8.156245,5.586141,1.918575,1.856626,1.079955,0.959539,-1.158230,-0.091386,0.044617,0.082243,0.999957,0.005400,0.004798,-0.005791,-0.092157,-0.188567,0.236213,0.948764,30.580907,18.316977,-163.856561
51513,-2.253520,10.060095,7.898334,-0.327294,-4.904693,2.208232,0.487854,0.468267,-0.998531,-0.021848,0.100518,0.079280,0.999982,0.002439,0.002341,-0.004993,-0.087555,-0.192160,0.237341,0.948197,30.737874,18.835452,-164.228073
51514,-3.111026,5.658838,6.059654,0.747573,-1.625462,-1.139830,0.176766,0.664268,-0.992045,-0.030628,0.056687,0.060749,0.999982,0.000884,0.003321,-0.004960,-0.083518,-0.196533,0.236902,0.947775,30.733701,19.448997,-164.535187
51515,-4.425838,7.863995,7.687526,1.299335,-2.577299,1.684971,0.138682,0.807529,-0.852733,-0.043612,0.078773,0.077107,0.999983,0.000693,0.004038,-0.004264,-0.080339,-0.201396,0.236355,0.947165,30.744155,20.092334,-164.726761
51516,-5.961121,6.672025,8.118879,2.319709,-1.018656,2.000318,-0.071699,0.749430,-0.684878,-0.059077,0.066952,0.081387,0.999987,-0.000358,0.003747,-0.003424,-0.078098,-0.205696,0.234995,0.946767,30.656074,20.657834,-164.849248
51517,-5.108142,7.546037,8.721523,1.237884,-1.804917,2.609455,-0.282630,0.608098,-0.598143,-0.050590,0.075735,0.087263,0.999990,-0.001413,0.003040,-0.002991,-0.076314,-0.209136,0.232778,0.946706,30.446092,21.128027,-164.972185
51518,-4.707497,5.955317,8.427010,0.850486,-0.695281,1.475944,-0.451662,0.556289,-0.568435,-0.046671,0.059876,0.084265,0.999990,-0.002258,0.002781,-0.002842,-0.074783,-0.212229,0.229807,0.946866,30.137366,21.563597,-165.098351
51519,-6.844912,6.539275,9.329456,2.347497,-0.424478,3.262547,-0.602406,0.330181,-0.477269,-0.068138,0.065836,0.093209,0.999991,-0.003012,0.001651,-0.002386,-0.073585,-0.214086,0.226298,0.947387,29.732522,21.859977,-165.248340
51520,-4.962196,5.691827,8.459184,0.977212,-0.560289,1.470419,-0.735833,0.140835,-0.364005,-0.049458,0.057319,0.084416,0.999991,-0.003679,0.000704,-0.001820,-0.072845,-0.214865,0.222347,0.948203,29.251063,22.029123,-165.398264
51521,-5.385618,5.242010,9.002485,1.096099,0.058995,1.863043,-0.759336,0.060301,-0.248788,-0.053764,0.052828,0.089841,0.999992,-0.003797,0.000302,-0.001244,-0.072592,-0.215122,0.218431,0.949074,28.769361,22.124500,-165.511158
51522,-4.397907,3.660614,8.613921,0.321501,1.012938,0.473782,-0.718915,-0.046174,-0.143083,-0.043973,0.036947,0.085997,0.999993,-0.003595,-0.000231,-0.000715,-0.072673,-0.214771,0.214859,0.949962,28.320385,22.136800,-165.599658
51523,-4.392168,3.426840,8.894475,0.197585,1.264616,0.604007,-0.527943,-0.066316,-0.076212,-0.043938,0.034520,0.088839,0.999996,-0.002640,-0.000332,-0.000381,-0.072850,-0.214318,0.212268,0.950633,27.992108,22.119987,-165.656961
51524,-3.756066,3.544750,8.417256,-0.141818,0.789487,0.030073,-0.415922,-0.115287,-0.039449,-0.037602,0.035630,0.084077,0.999998,-0.002080,-0.000576,-0.000197,-0.073025,-0.213635,0.210267,0.951218,27.730440,22.068598,-165.708671
51525,-3.565958,3.442579,8.292585,-0.247695,0.760065,-0.184849,-0.290038,-0.072967,-0.012294,-0.035688,0.034548,0.082863,0.999999,-0.001450,-0.000365,-0.000061,-0.073244,-0.213167,0.208876,0.951612,27.551044,22.030943,-165.732682
51526,-3.699293,3.470032,8.466618,-0.190771,0.808503,0.021916,-0.186907,-0.071205,0.005290,-0.037024,0.034778,0.084621,0.999999,-0.000935,-0.000356,0.000026,-0.073435,-0.212730,0.207994,0.951889,27.434641,21.989819,-165.746707
51527,-3.749728,3.677998,8.471814,-0.126792,0.622530,0.134982,-0.086204,-0.070642,0.015040,-0.037530,0.036814,0.084689,1.000000,-0.000431,-0.000353,0.000075,-0.073569,-0.212319,0.207601,0.952056,27.377987,21.946046,-165.754884
51528,-4.006689,4.150446,8.465199,0.141987,0.246374,0.427356,-0.061349,-0.091394,0.020507,-0.040110,0.041526,0.084621,1.000000,-0.000307,-0.000457,0.000103,-0.073680,-0.211816,0.207339,0.952216,27.334498,21.890611,-165.766000
51529,-3.855496,4.333968,8.069091,0.198702,-0.103321,0.122512,-0.069892,-0.098273,-0.005595,-0.038593,0.043369,0.080657,1.000000,-0.000349,-0.000491,-0.000028,-0.073670,-0.211301,0.207012,0.952403,27.280107,21.838182,-165.793236
51530,-3.565778,4.532086,7.875650,0.043452,-0.429025,-0.061049,-0.142882,-0.111616,-0.056103,-0.035689,0.045387,0.078704,1.000000,-0.000714,-0.000558,-0.000281,-0.073481,-0.210751,0.206287,0.952696,27.172227,21.792515,-165.851957
51531,-4.007442,4.339764,7.909142,0.426852,-0.161501,0.048314,-0.193927,-0.098885,-0.129649,-0.040085,0.043500,0.079029,0.999999,-0.000970,-0.000494,-0.000648,-0.073010,-0.210315,0.205238,0.953055,27.021539,21.772057,-165.947283
51532,-4.227917,4.404291,8.169612,0.526194,-0.107683,0.371958,-0.312891,-0.123302,-0.249029,-0.042275,0.044223,0.081601,0.999998,-0.001564,-0.000617,-0.001245,-0.072067,-0.209844,0.203505,0.953602,26.775853,21.770127,-166.115202
51533,-3.388966,3.407702,7.831861,-0.125549,0.443096,-0.635365,-0.439480,-0.170767,-0.372123,-0.033893,0.034312,0.078214,0.999995,-0.002197,-0.000854,-0.001861,-0.070624,-0.209222,0.201055,0.954366,26.427582,21.774288,-166.363949
51534,-1.719492,2.016651,7.613067,-1.602312,1.218968,-2.006991,-0.403751,-0.065382,-0.549448,-0.017164,0.020367,0.076084,0.999994,-0.002019,-0.000327,-0.002747,-0.068401,-0.209295,0.198550,0.955037,26.073719,21.876508,-166.682358
51535,-1.603416,1.708236,9.486495,-2.531395,2.094049,-0.609999,-0.214049,0.143992,-0.687141,-0.015907,0.017239,0.094858,0.999993,-0.001070,0.000720,-0.003436,-0.065531,-0.210564,0.196733,0.955335,25.819852,22.119167,-167.021472
51536,-5.138004,7.299156,11.545697,-0.022816,-1.611974,4.691806,-0.136723,0.125042,-0.691055,-0.051055,0.073247,0.115439,0.999994,-0.000684,0.000625,-0.003455,-0.062544,-0.211771,0.195282,0.955566,25.605415,22.351975,-167.369098
51537,-3.217597,9.420321,9.112710,-0.665554,-4.872651,2.755129,-0.691317,-0.116657,-0.624741,-0.031934,0.094617,0.090782,0.999989,-0.003457,-0.000583,-0.003124,-0.060221,-0.211579,0.191327,0.956557,25.061461,22.440977,-167.746129
51538,-0.128480,11.835073,7.084258,-2.509060,-8.508742,0.750261,-1.088939,-0.044446,-0.559103,-0.000969,0.118737,0.070197,0.999981,-0.005445,-0.000222,-0.002795,-0.058697,-0.211545,0.185513,0.957804,24.309961,22.548079,-168.069093
51539,2.037022,11.470880,6.880060,-4.379330,-8.790738,-0.506402,-1.374409,0.373628,-0.300057,0.020670,0.115147,0.067972,0.999974,-0.006872,0.001868,-0.001500,-0.059104,-0.213178,0.178473,0.958754,23.490356,22.809787,-168.141513
51540,2.667020,14.110135,11.519879,-6.797622,-10.085774,4.006833,-1.479898,0.577158,0.210268,0.026852,0.141976,0.114073,0.999968,-0.007399,0.002886,0.001051,-0.062230,-0.215283,0.171412,0.959374,22.742374,23.062765,-167.878116
51541,4.736325,10.120054,11.918621,-8.908074,-6.900327,2.016311,-1.709569,0.376103,0.900580,0.047127,0.102426,0.118225,0.999952,-0.008548,0.001880,0.004503,-0.068755,-0.215747,0.164030,0.960115,21.998313,23.062095,-167.266328
51542,9.085271,9.411743,10.118818,-11.932569,-7.856113,-1.481726,-0.624961,0.257248,1.258377,0.090387,0.095002,0.100776,0.999974,-0.003125,0.001286,0.006292,-0.075699,-0.215693,0.162288,0.959900,21.946072,22.924458,-166.479037
51543,8.557397,11.111251,10.592927,-11.413030,-9.333089,-0.245394,-0.077408,0.284440,1.238525,0.085034,0.111681,0.105765,0.999980,-0.000387,0.001422,0.006193,-0.082001,-0.215994,0.163116,0.959174,22.202235,22.805260,-165.694822
51544,8.317179,9.645052,10.805607,-11.311196,-7.926347,-0.421621,0.141286,0.204302,1.218481,0.082693,0.096879,0.108040,0.999981,0.000706,0.001022,0.006092,-0.087871,-0.215986,0.165023,0.958330,22.571309,22.641926,-164.946466
51545,5.149560,8.813313,11.922042,-8.973240,-6.098196,1.528357,0.497696,0.046104,1.339616,0.050933,0.088179,0.119428,0.999974,0.002488,0.000231,0.006698,-0.093834,-0.215289,0.168805,0.957262,23.151055,22.364479,-164.165820
51546,3.081634,8.215395,11.471898,-6.898990,-5.095547,1.807578,0.608636,-0.292881,1.511592,0.030028,0.082033,0.115013,0.999966,0.003043,-0.001464,0.007558,-0.100173,-0.212833,0.173482,0.956332,23.794690,21.858881,-163.381071
51547,1.588004,6.196286,10.498959,-5.272852,-3.038273,0.869438,0.657396,-0.422449,1.526064,0.015186,0.061735,0.105225,0.999963,0.003287,-0.002112,0.007630,-0.106445,-0.209784,0.178430,0.955418,24.444938,21.276979,-162.625434
51548,-2.399072,5.455636,10.826358,-1.865005,-1.023005,2.361112,0.876196,-0.632435,1.488028,-0.024736,0.053899,0.108423,0.999958,0.004381,-0.003162,0.007440,-0.112073,-0.205830,0.184513,0.954478,25.184016,20.582899,-161.960845
51549,-3.113849,4.362175,9.659176,-0.764392,-0.011585,1.207132,0.947475,-0.977397,1.357424,-0.031904,0.042949,0.096642,0.999954,0.004737,-0.004887,0.006787,-0.116714,-0.200407,0.190946,0.953811,25.892996,19.738543,-161.466727
51550,-3.440085,2.795754,8.483235,-0.095682,1.284945,-0.328348,1.123426,-1.083405,1.124298,-0.035015,0.027285,0.084798,0.999954,0.005617,-0.005417,0.005621,-0.119917,-0.194748,0.198060,0.953134,26.641841,18.889247,-161.147038
51551,-5.690701,2.695376,8.772884,1.881966,2.326097,0.563064,1.318169,-1.188410,0.950687,-0.057553,0.026104,0.087562,0.999949,0.006591,-0.005942,0.004753,-0.122025,-0.188895,0.205945,0.952373,27.452639,18.031270,-160.958411
51552,-5.466039,1.686284,7.686538,2.077311,2.938510,-0.932900,1.298256,-1.397354,0.877638,-0.055268,0.016123,0.076587,0.999945,0.006491,-0.006987,0.004388,-0.123542,-0.182054,0.213801,0.951779,28.217563,17.080965,-160.885289
51553,-4.909508,-0.881063,6.129871,1.886282,4.582383,-3.656694,1.409870,-1.327022,0.828270,-0.049462,-0.009445,0.060906,0.999945,0.007049,-0.006635,0.004141,-0.124818,-0.175685,0.222047,0.950921,29.037776,16.182276,-160.827288
51554,-7.509303,-0.976782,6.798556,4.049590,5.858412,-2.543580,1.603531,-1.233747,0.881471,-0.075465,-0.010642,0.067438,0.999939,0.008017,-0.006169,0.004407,-0.126238,-0.169767,0.231200,0.949626,29.980525,15.310977,-160.733046
51555,-6.535121,-1.013306,5.755261,3.631950,5.283909,-3.834053,1.272081,-1.311494,1.028354,-0.065672,-0.010834,0.057055,0.999945,0.006360,-0.006557,0.005142,-0.128560,-0.163115,0.238902,0.948573,30.740100,14.360751,-160.596711
51556,-5.800448,-2.247724,4.212936,3.376751,5.545881,-6.033037,0.726707,-0.980811,1.190186,-0.058074,-0.022975,0.041762,0.999964,0.003633,-0.004904,0.005951,-0.132458,-0.157443,0.243934,0.947715,31.227501,13.520929,-160.292295
51557,-8.715263,-3.118270,4.020178,5.963537,7.228282,-6.067360,0.251400,-0.613785,1.471251,-0.087043,-0.031874,0.039895,0.999967,0.001257,-0.003069,0.007356,-0.138520,-0.152871,0.246656,0.946892,31.493481,12.777830,-159.737844
51558,-11.478394,-5.044361,1.059935,9.131504,8.620507,-9.024039,-0.292858,-0.293419,1.561593,-0.114401,-0.051322,0.010506,0.999967,-0.001464,-0.001467,0.007808,-0.145800,-0.149294,0.246645,0.946372,31.472187,12.160692,-159.045179
51559,-19.146933,-14.308873,-17.409199,20.682081,11.454420,-27.574028,-0.926905,0.530226,0.680456,-0.191439,-0.144543,-0.172917,0.999980,-0.004634,0.002651,0.003402,-0.150403,-0.150254,0.242349,0.946609,31.043607,12.213994,-158.539746
51560,-13.171897,-5.113985,-2.391598,11.852047,7.931372,-11.203620,3.335218,5.340677,-3.717944,-0.133225,-0.048304,-0.021193,0.999332,0.016672,0.026697,-0.018586,-0.136710,-0.182397,0.251142,0.940728,32.905326,15.932462,-158.730000
51561,-35.804421,23.687844,44.824149,17.167569,11.227880,48.765239,-0.537469,1.161519,-1.366345,-0.353801,0.240512,0.449661,0.999956,-0.002687,0.005808,-0.006832,-0.132268,-0.189169,0.246539,0.941243,32.505887,16.911279,-159.038725
51562,17.320004,3.301851,-0.950951,-14.567754,-9.060031,-13.993946,-1.933704,0.056947,-0.795277,0.173326,0.032235,-0.009873,0.999945,-0.009668,0.000285,-0.003976,-0.130457,-0.189100,0.236610,0.944054,31.281415,17.175924,-159.422224
51563,-18.939525,3.636718,9.712528,13.212649,7.174850,5.685162,0.962196,2.571616,-0.466624,-0.188039,0.036331,0.099724,0.999903,0.004811,0.012858,-0.002333,-0.130417,-0.202370,0.238986,0.940704,32.005407,18.566451,-158.845936
51564,-0.730181,14.871327,10.857319,-1.977131,-8.121835,6.609779,-0.083639,0.896124,0.284698,-0.007027,0.148749,0.108543,0.999989,-0.000418,0.004481,0.001423,-0.132950,-0.206159,0.238271,0.939707,32.093749,18.911193,-158.409259
51565,-4.455242,1.139023,6.547397,1.095298,3.142082,-2.536573,-0.470395,1.254593,0.245986,-0.044155,0.011490,0.065725,0.999977,-0.002352,0.006273,0.001230,-0.136125,-0.211413,0.235451,0.938796,31.995285,19.441586,-157.875726
51566,-6.173513,6.922883,11.683415,1.012095,0.760973,5.051205,-0.268747,1.273928,0.081133,-0.061018,0.069361,0.117131,0.999979,-0.001344,0.006370,0.000406,-0.138323,-0.217080,0.233383,0.937697,31.991376,20.032007,-157.420521
51567,-6.144368,-0.456022,9.644236,0.674770,6.218182,-0.228817,-0.618742,0.683413,-0.007580,-0.061114,-0.004259,0.096665,0.999989,-0.003094,0.003417,-0.000038,-0.139798,-0.219832,0.229976,0.937679,31.708452,20.362783,-157.201000
51568,-5.638170,2.935634,9.924925,0.572081,3.209747,1.513418,0.194677,0.711143,-0.084081,-0.056016,0.029283,0.099477,0.999993,0.000973,0.003556,-0.000420,-0.140049,-0.223370,0.230275,0.936731,31.882103,20.730657,-157.012230
51569,-5.521636,5.925863,9.259035,1.201626,0.373686,2.424562,0.177213,0.418228,0.017031,-0.055028,0.059172,0.092758,0.999997,0.000886,0.002091,0.000085,-0.140456,-0.225402,0.230808,0.936052,32.032006,20.924671,-156.864382
51570,-5.450865,6.352549,8.600010,1.489533,-0.245373,2.093108,0.091448,0.329637,0.151002,-0.054415,0.063445,0.086119,0.999998,0.000457,0.001648,0.000755,-0.141484,-0.226808,0.231149,0.935473,32.147882,21.035000,-156.674869
51571,-4.724330,5.636793,8.277681,0.891333,-0.010087,1.224438,-0.009890,0.190737,0.192749,-0.047219,0.056327,0.082819,0.999999,-0.000049,0.000954,0.000964,-0.142661,-0.227440,0.231164,0.935137,32.197565,21.064555,-156.509075
51572,-4.138072,4.822210,8.000516,0.390554,0.369597,0.390081,-0.053352,0.070513,0.150742,-0.041389,0.048212,0.080007,1.000000,-0.000267,0.000353,0.000754,-0.143552,-0.227532,0.231012,0.935017,32.200376,21.049072,-156.404285
51573,-3.574636,4.422688,7.931997,-0.121628,0.477503,-0.065279,0.011729,0.024227,0.073992,-0.035753,0.044209,0.079327,1.000000,0.000059,0.000121,0.000370,-0.143956,-0.227537,0.231111,0.934928,32.220717,21.034074,-156.354648
51574,-3.215412,4.593538,7.762303,-0.317209,0.140642,-0.243340,0.075320,-0.011625,0.013598,-0.032162,0.045904,0.077638,1.000000,0.000377,-0.000058,0.000068,-0.143964,-0.227496,0.231462,0.934850,32.261961,21.020653,-156.347907
51575,-3.602436,5.149077,7.707573,0.131643,-0.200905,0.129120,0.076953,-0.034643,-0.010745,-0.036035,0.051463,0.077089,1.000000,0.000385,-0.000173,-0.000054,-0.143830,-0.227371,0.231812,0.934814,32.296953,21.003010,-156.361568
51576,-2.721550,4.481235,7.599768,-0.677543,0.004207,-0.604773,0.071785,-0.028817,-0.007753,-0.027225,0.044786,0.076010,1.000000,0.000359,-0.000144,-0.000039,-0.143723,-0.227271,0.232135,0.934775,32.330173,20.987784,-156.371561
51577,-2.821304,3.303050,7.762735,-0.868105,1.112207,-1.029788,0.159385,0.032696,-0.038306,-0.028194,0.032974,0.077658,1.000000,0.000797,0.000163,-0.000192,-0.143445,-0.227553,0.232791,0.934586,32.415198,21.011203,-156.377409
51578,-3.307245,3.462472,8.004750,-0.558942,1.265173,-0.588294,0.366440,0.074332,-0.091175,-0.033027,0.034493,0.080123,0.999998,0.001832,0.000372,-0.000456,-0.142734,-0.228243,0.234321,0.934145,32.613858,21.071498,-156.396417
51579,-2.712815,4.277587,7.579131,-0.749512,0.219510,-0.730273,0.474155,0.077756,-0.154973,-0.027066,0.042617,0.075903,0.999997,0.002371,0.000389,-0.000775,-0.141603,-0.229095,0.236280,0.933614,32.862959,21.152818,-156.447415
51580,-3.029591,5.020387,7.878663,-0.543314,-0.147979,-0.007652,0.538975,0.128594,-0.234586,-0.030186,0.050027,0.078941,0.999995,0.002695,0.000643,-0.001173,-0.140090,-0.230327,0.238409,0.932998,33.140348,21.284066,-156.521432
51581,-4.587056,5.275315,7.718822,0.867065,0.183585,0.563466,0.498873,0.130497,-0.241627,-0.045756,0.052616,0.077349,0.999996,0.002494,0.000652,-0.001208,-0.138587,-0.231542,0.240343,0.932425,33.393928,21.418323,-156.598479
51582,-3.760492,5.040379,7.276407,0.310639,-0.072134,-0.200664,0.386670,0.119384,-0.289330,-0.037489,0.050317,0.072884,0.999997,0.001933,0.000597,-0.001447,-0.136981,-0.232688,0.241701,0.932026,33.572663,21.563062,-156.702708
51583,-3.893394,6.211673,7.261926,0.572074,-1.005773,0.441096,0.280462,-0.014845,-0.215847,-0.038872,0.062057,0.072703,0.999998,0.001402,-0.000074,-0.001079,-0.135675,-0.233041,0.242745,0.931858,33.687708,21.620253,-156.815339
51584,-2.386694,5.781824,7.055323,-0.694678,-1.273108,-0.496040,0.071650,0.114842,-0.326207,-0.023732,0.057832,0.070588,0.999998,0.000358,0.000574,-0.001631,-0.134257,-0.233994,0.242595,0.931863,33.678229,21.774895,-156.939821
51585,-4.249748,5.401322,7.910329,0.389555,0.048066,0.658883,0.122602,0.100023,-0.403759,-0.042349,0.054050,0.079158,0.999998,0.000613,0.000500,-0.002019,-0.132397,-0.235001,0.242604,0.931874,33.680974,21.946650,-157.109821
51586,-4.764598,5.330938,8.168156,0.671639,0.371670,1.015505,-0.067487,-0.049855,-0.434446,-0.047550,0.053440,0.081652,0.999998,-0.000337,-0.000249,-0.002172,-0.130436,-0.235224,0.241787,0.932306,33.549049,22.056869,-157.346944
51587,-4.188070,4.971357,8.033381,0.191479,0.390300,0.512063,-0.026171,-0.084453,-0.447768,-0.041803,0.049818,0.080310,0.999997,-0.000131,-0.000422,-0.002239,-0.128321,-0.235324,0.241171,0.932734,33.433310,22.153870,-157.603495
51588,-4.434577,5.260324,7.823618,0.539047,0.125160,0.591119,-0.016200,-0.143072,-0.421917,-0.044291,0.052703,0.078200,0.999998,-0.000081,-0.000715,-0.002110,-0.126245,-0.235129,0.240665,0.933197,33.320212,22.214661,-157.866629
51589,-4.027998,4.626884,7.792514,0.129266,0.482572,0.092181,-0.145958,-0.164068,-0.448775,-0.040240,0.046416,0.077858,0.999997,-0.000730,-0.000820,-0.002244,-0.124169,-0.234781,0.239537,0.933853,33.124567,22.272702,-158.151445
51590,-3.995471,5.375704,7.866489,0.155212,-0.170451,0.516419,-0.074965,-0.152377,-0.441346,-0.039896,0.053875,0.078614,0.999997,-0.000375,-0.000762,-0.002207,-0.122059,-0.234525,0.238738,0.934400,32.972029,22.333722,-158.428365
51591,-4.006337,5.592396,7.578666,0.332859,-0.494385,0.405263,-0.144085,-0.150175,-0.392915,-0.040010,0.056057,0.075716,0.999998,-0.000720,-0.000751,-0.001965,-0.120257,-0.234174,0.237672,0.934993,32.789542,22.379500,-158.680045
51592,-3.811038,6.041538,7.576103,0.219083,-0.979260,0.551409,-0.202615,-0.105333,-0.311613,-0.038056,0.060551,0.075680,0.999998,-0.001013,-0.000527,-0.001558,-0.118957,-0.233905,0.236398,0.935550,32.595020,22.421464,-158.874253
51593,-3.917884,5.852417,7.535730,0.315180,-0.829188,0.463540,-0.241215,-0.088742,-0.211157,-0.039150,0.058656,0.075269,0.999999,-0.001206,-0.000444,-0.001056,-0.118190,-0.233566,0.235053,0.936071,32.400469,22.439421,-159.010912
51594,-3.304397,4.073371,8.036963,-0.652615,0.661652,-0.260704,-0.297224,-0.020762,-0.158032,-0.033020,0.040879,0.080306,0.999999,-0.001486,-0.000104,-0.000790,-0.117816,-0.233453,0.233465,0.936543,32.192941,22.474076,-159.097237
51595,-4.717900,3.467070,9.302948,-0.123025,2.111515,0.973895,-0.088265,0.056630,-0.114729,-0.047133,0.034739,0.093028,1.000000,-0.000441,0.000283,-0.000574,-0.117492,-0.233770,0.232862,0.936655,32.123537,22.532391,-159.135465
51596,-4.666655,5.214520,8.656251,0.346400,0.328186,1.308099,-0.038174,-0.065214,-0.034593,-0.046686,0.052170,0.086537,1.000000,-0.000191,-0.000326,-0.000173,-0.117345,-0.233458,0.232655,0.936803,32.083388,22.507621,-159.171401
51597,-2.136161,5.233157,6.774289,-0.904436,-1.246746,-1.125472,-0.187018,0.024380,-0.011337,-0.021350,0.052396,0.067697,1.000000,-0.000935,0.000122,-0.000057,-0.117583,-0.233446,0.231729,0.937005,31.974095,22.518773,-159.166018
51598,-1.729800,5.513383,6.982064,-1.329960,-1.561498,-0.984794,-0.168542,0.248745,-0.048562,-0.017198,0.055197,0.069796,0.999999,-0.000843,0.001244,-0.000243,-0.117886,-0.234543,0.230711,0.936944,31.896020,22.650762,-159.106275
51599,-2.154903,5.479104,7.603848,-1.293264,-1.181670,-0.356806,-0.217445,0.396461,-0.080297,-0.021376,0.054882,0.076021,0.999997,-0.001087,0.001982,-0.000401,-0.118266,-0.236335,0.229341,0.936783,31.802414,22.863868,-159.015323
51600,-2.875023,5.973209,8.648060,-1.166158,-1.019730,0.973131,-0.326572,0.455099,-0.143608,-0.028511,0.059894,0.086448,0.999996,-0.001633,0.002275,-0.000718,-0.118545,-0.238411,0.227348,0.936707,31.640842,23.125130,-158.938918
51601,-2.082360,4.376943,8.721753,-2.096501,0.076184,-0.057623,-0.504793,0.441673,-0.271797,-0.020571,0.044018,0.087152,0.999993,-0.002524,0.002208,-0.001359,-0.118419,-0.240458,0.224374,0.936917,31.348501,23.418160,-158.936169
51602,-2.091099,4.567955,9.084364,-2.286103,-0.023282,0.313378,-0.459449,0.461658,-0.475905,-0.020592,0.045937,0.090786,0.999992,-0.002297,0.002308,-0.002380,-0.117305,-0.242854,0.221351,0.937158,31.040309,23.781753,-159.037607
51603,0.067001,9.794832,12.034491,-5.086686,-4.338060,4.190078,-0.579850,0.410792,-0.581092,0.001202,0.098294,0.120058,0.999989,-0.002899,0.002054,-0.002905,-0.115784,-0.245050,0.217663,0.937639,30.631832,24.150437,-159.214971
51604,2.360111,5.176443,11.689252,-7.386222,-1.330133,0.802081,-1.992716,0.311253,-0.408733,0.023890,0.052877,0.116332,0.999947,-0.009963,0.001556,-0.002044,-0.116687,-0.245758,0.207606,0.939621,29.436132,24.417877,-159.335931
51605,5.215168,2.901615,11.461462,-9.947905,-0.508012,-1.580936,-1.320632,0.265776,-0.360610,0.052357,0.029678,0.114351,0.999976,-0.006603,0.001329,-0.001803,-0.116933,-0.246576,0.200776,0.940859,28.628040,24.647320,-159.449666
51606,3.436446,8.221001,12.788133,-8.465386,-4.384062,2.518034,-0.662013,0.104926,-0.436591,0.034611,0.082557,0.127590,0.999992,-0.003310,0.000525,-0.002183,-0.115852,-0.247085,0.197037,0.941649,28.157686,24.814454,-159.656226
51607,5.887977,8.343885,11.870009,-10.049555,-5.652668,0.781589,-0.958331,-0.320303,-0.506992,0.058902,0.083857,0.118393,0.999984,-0.004792,-0.001602,-0.002535,-0.114377,-0.245490,0.192059,0.943274,27.447682,24.783712,-160.029862
51608,7.108660,7.105047,10.856179,-10.695389,-5.286635,-1.064465,-0.532938,-0.441302,-0.397097,0.070988,0.071199,0.108529,0.999992,-0.002665,-0.002207,-0.001985,-0.112785,-0.243443,0.189288,0.944556,26.993264,24.657523,-160.375885
51609,5.515000,7.855225,10.858793,-9.214289,-5.491767,-0.067409,-0.279286,-0.465375,-0.217143,0.054983,0.078644,0.108606,0.999996,-0.001396,-0.002327,-0.001086,-0.111704,-0.241265,0.187944,0.945511,26.724813,24.472015,-160.626605
51610,2.805048,6.633361,10.877897,-7.004940,-3.556382,0.602736,-0.013310,-0.522507,0.068775,0.027743,0.066350,0.108847,0.999997,-0.000067,-0.002613,0.000344,-0.111604,-0.238675,0.188238,0.946121,26.669779,24.180637,-160.731825
51611,0.190136,7.457446,10.691321,-4.502068,-3.530691,1.901352,0.279333,-0.642616,0.379872,0.001416,0.074428,0.107022,0.999992,0.001397,-0.003213,0.001899,-0.112507,-0.235404,0.190347,0.946412,26.839866,23.750047,-160.696765
51612,-1.044456,6.260045,10.125145,-3.226955,-2.193157,1.482155,0.173908,-0.729197,0.505343,-0.010972,0.062485,0.101266,0.999990,0.000870,-0.003646,0.002527,-0.114047,-0.231517,0.192157,0.946820,26.967104,23.239746,-160.617931
51613,-2.559531,5.431096,10.136972,-1.932444,-0.916539,1.773103,0.335925,-0.852809,0.526607,-0.026170,0.054072,0.101350,0.999986,0.001680,-0.004264,0.002633,-0.115375,-0.227134,0.194818,0.947177,27.176425,22.663486,-160.563950
51614,-1.884051,5.203806,9.570338,-2.180525,-1.027226,0.976633,0.295183,-1.026605,0.410785,-0.019438,0.051857,0.095681,0.999984,0.001476,-0.005133,0.002054,-0.116031,-0.221985,0.197256,0.947813,27.318358,22.025867,-160.625627
51615,-1.761064,3.683714,9.246272,-2.240407,0.257734,0.040115,0.373787,-1.079837,0.220890,-0.018150,0.036645,0.092434,0.999983,0.001869,-0.005399,0.001104,-0.115640,-0.216835,0.199873,0.948505,27.461057,21.414427,-160.807389
51616,-2.280423,3.797792,9.323655,-1.709860,0.411802,0.358824,0.536094,-1.163686,0.063353,-0.023359,0.037721,0.093203,0.999979,0.002680,-0.005818,0.000317,-0.114243,-0.211504,0.203137,0.949184,27.658942,20.799456,-161.100250
51617,-2.413372,3.840833,8.793822,-1.256138,0.307131,-0.002775,0.521783,-1.218486,-0.073819,-0.024655,0.038188,0.087889,0.999978,0.002609,-0.006092,-0.000369,-0.112145,-0.206061,0.206203,0.949970,27.819486,20.197338,-161.483527
51618,-2.255383,3.881361,8.020391,-0.967488,0.015717,-0.672590,0.450296,-1.175137,-0.188385,-0.022988,0.038655,0.080157,0.999980,0.002251,-0.005876,-0.000942,-0.109623,-0.200867,0.208786,0.950812,27.926093,19.645426,-161.916324
51619,-2.407316,4.287962,7.388687,-0.440069,-0.484687,-0.961387,0.314297,-1.062768,-0.300640,-0.024401,0.042800,0.073825,0.999984,0.001571,-0.005314,-0.001503,-0.106810,-0.196269,0.210532,0.951707,27.948973,19.184263,-162.376602
51620,-1.808359,4.113692,6.454397,-0.557729,-0.817756,-2.010639,0.148198,-0.881497,-0.451710,-0.018275,0.041130,0.064494,0.999987,0.000741,-0.004407,-0.002259,-0.103636,-0.192571,0.211245,0.952655,27.870825,18.851882,-162.865069
51621,-2.819597,4.594279,7.560741,-0.010429,-0.557164,-0.543828,0.185788,-0.606138,-0.535530,-0.028302,0.045948,0.075564,0.999991,0.000929,-0.003031,-0.002678,-0.100309,-0.190316,0.211902,0.953318,27.826898,18.684246,-163.319394
51622,-5.303633,5.447271,9.453507,1.609160,0.061306,2.211317,0.327069,-0.710165,-0.330907,-0.053282,0.054406,0.094435,0.999991,0.001635,-0.003551,-0.001655,-0.097716,-0.187389,0.213484,0.953814,27.891602,18.405897,-163.693374
51623,-5.485208,5.234693,9.390831,1.851752,0.313430,2.109934,0.488265,-1.016742,0.056624,-0.055344,0.052102,0.093755,0.999984,0.002441,-0.005084,0.000283,-0.096485,-0.182687,0.216333,0.954210,28.088075,17.872351,-163.947393
51624,-4.477195,5.215143,7.931181,1.600682,-0.419797,0.551038,0.563734,-1.202005,0.339860,-0.045336,0.051851,0.079187,0.999977,0.002819,-0.006010,0.001699,-0.096336,-0.176798,0.219891,0.954521,28.359725,17.166368,-164.105799
51625,-3.764991,4.023949,6.534697,1.446755,-0.027449,-1.388028,0.461311,-1.098117,0.397227,-0.038088,0.040014,0.065231,0.999980,0.002307,-0.005491,0.001986,-0.096658,-0.171310,0.222942,0.954781,28.590613,16.500858,-164.206717
51626,-5.040890,3.681144,6.331902,2.740589,0.582864,-1.374495,0.524753,-0.908069,0.400754,-0.050769,0.036544,0.063185,0.999984,0.002624,-0.004540,0.002004,-0.097152,-0.166726,0.226209,0.954774,28.874360,15.927276,-164.254557
51627,-5.862487,4.256376,6.125254,3.707369,0.261525,-1.083963,0.436186,-0.786146,0.391573,-0.058948,0.042315,0.061114,0.999988,0.002181,-0.003931,0.001958,-0.097810,-0.162711,0.228971,0.954741,29.114798,15.420583,-164.274097
51628,-5.955247,3.533578,5.509681,3.987866,0.711239,-1.945130,0.323528,-0.616927,0.324677,-0.059779,0.035150,0.054970,0.999993,0.001618,-0.003085,0.001623,-0.098432,-0.159499,0.231062,0.954716,29.294650,15.014532,-164.281874
51629,-5.756784,3.308752,5.175158,3.932129,0.749849,-2.406838,0.300912,-0.380967,0.244129,-0.057707,0.032939,0.051691,0.999996,0.001505,-0.001905,0.001221,-0.098958,-0.157517,0.232853,0.954555,29.467657,14.751714,-164.263196
51630,-5.478745,3.356693,5.081468,3.728750,0.623035,-2.545395,0.286644,-0.111960,0.163151,-0.054843,0.033449,0.050832,0.999998,0.001433,-0.000560,0.000816,-0.099420,-0.156883,0.234387,0.954236,29.642136,14.643357,-164.209405
51631,-5.805211,3.690377,5.792177,3.822256,0.739086,-1.706349,0.259958,0.160682,0.101924,-0.058024,0.036799,0.058016,0.999999,0.001300,0.000803,0.000510,-0.099932,-0.157630,0.235601,0.953760,29.812949,14.690336,-164.106450
51632,-7.393531,4.070137,7.503092,4.728761,1.575374,0.320601,0.275138,0.275345,0.141544,-0.073861,0.040546,0.075188,0.999998,0.001376,0.001377,0.000708,-0.100752,-0.158865,0.236869,0.953155,30.006998,14.780480,-163.950210
51633,-9.155275,5.019742,8.946292,5.958193,1.869752,2.437079,0.192248,0.029957,0.299516,-0.091614,0.049974,0.089525,0.999998,0.000961,0.000150,0.001498,-0.102103,-0.158721,0.237981,0.952758,30.155132,14.705287,-163.784442
51634,-7.467801,3.975373,7.544779,4.780374,1.765705,0.312796,0.001076,-0.289312,0.410054,-0.074868,0.039600,0.075340,0.999997,0.000005,-0.001447,0.002050,-0.103746,-0.156809,0.238441,0.952782,30.184081,14.438151,-163.658561
51635,-6.390027,2.796107,6.132157,4.160039,1.919125,-1.734017,-0.014462,-0.266422,0.353092,-0.064031,0.027853,0.061234,0.999998,-0.000072,-0.001332,0.001765,-0.105164,-0.155081,0.238760,0.952830,30.197452,14.200435,-163.554010
51636,-7.346273,3.017076,6.170508,5.091609,2.026707,-1.379806,0.022202,-0.251416,0.322197,-0.073589,0.030045,0.061616,0.999998,0.000111,-0.001257,0.001611,-0.106415,-0.153468,0.239228,0.952834,30.229125,13.977666,-163.462186
51637,-7.764962,3.114973,6.840461,5.294739,2.368485,-0.694280,0.049270,-0.300854,0.444142,-0.077821,0.030960,0.068295,0.999996,0.000246,-0.001504,0.002221,-0.108175,-0.151499,0.239936,0.952773,30.286688,13.696504,-163.321973
51638,-9.184347,3.635204,7.143001,6.635387,2.488812,0.105270,-0.060752,-0.535591,0.789457,-0.092177,0.036010,0.071172,0.999989,-0.000304,-0.002678,0.003947,-0.111371,-0.147927,0.240511,0.952821,30.305257,13.198386,-163.077486
51639,-7.060922,0.899504,3.601470,5.515654,2.779103,-4.763940,-0.563366,-0.663069,1.124772,-0.070778,0.008698,0.035755,0.999975,-0.002817,-0.003315,0.005624,-0.116387,-0.143068,0.238995,0.953345,30.062638,12.541934,-162.698711
51640,-7.875468,-6.070498,-5.264476,8.094120,5.324753,-15.532772,-0.656679,0.076231,0.993506,-0.078471,-0.061268,-0.052414,0.999982,-0.003283,0.000381,0.004968,-0.121714,-0.141824,0.236505,0.953487,29.796682,12.291307,-162.169109
51641,-2.426029,-5.973192,-7.982963,3.985890,2.504334,-18.930232,1.185448,1.842982,-0.541999,-0.025158,-0.059191,-0.079952,0.999936,0.005927,0.009215,-0.002710,-0.120502,-0.151933,0.240609,0.951054,30.532108,13.356271,-161.897018
51642,-9.410638,14.056112,30.932846,-0.488523,3.815884,25.230622,0.977586,3.171910,-1.724489,-0.087970,0.139818,0.311441,0.999825,0.004888,0.015859,-0.008622,-0.115389,-0.169622,0.241971,0.948348,31.110321,15.419209,-161.809222
51643,-10.265482,0.545098,17.853155,2.767661,10.030749,7.967443,-0.803452,-0.190656,-0.560894,-0.102808,0.006456,0.178409,0.999988,-0.004017,-0.000953,-0.002804,-0.113221,-0.168901,0.237767,0.949800,30.554888,15.486049,-162.150332
51644,-3.705606,-4.278907,4.461717,1.159347,6.613956,-7.193768,0.087928,0.721136,-1.268567,-0.037165,-0.042573,0.044732,0.999973,0.000440,0.003606,-0.006343,-0.108025,-0.173853,0.236668,0.949786,30.483527,16.207347,-162.578988
51645,-5.749876,2.892129,11.285831,1.262935,3.808085,2.544411,0.886382,0.507542,-1.402629,-0.057010,0.028821,0.113131,0.999962,0.004432,0.002538,-0.007013,-0.101232,-0.178366,0.239350,0.949025,30.826906,16.863205,-163.142173
51646,-0.404265,8.369272,7.744264,-1.813551,-3.894093,0.757393,0.358178,0.436533,-1.502132,-0.003245,0.083580,0.077600,0.999968,0.001791,0.002183,-0.007511,-0.094362,-0.182389,0.239446,0.948944,30.839301,17.515516,-163.776333
51647,-4.246814,6.173187,6.022602,2.036412,-1.709630,-0.574494,0.437543,0.621801,-1.245977,-0.041895,0.061862,0.060492,0.999973,0.002188,0.003109,-0.006230,-0.088836,-0.187003,0.240061,0.948424,30.948445,18.183709,-164.224429
51648,-3.626069,10.686779,7.084542,1.264175,-5.363791,2.318923,0.379335,0.756812,-0.804212,-0.035562,0.106877,0.071184,0.999983,0.001897,0.003784,-0.004021,-0.085627,-0.191700,0.240736,0.947610,31.104917,18.789142,-164.400575
51649,-4.311870,8.736560,6.962493,1.673972,-3.555889,1.498747,0.120767,0.859928,-0.399905,-0.042644,0.087409,0.069862,0.999989,0.000604,0.004300,-0.002000,-0.084693,-0.196276,0.240529,0.946810,31.191291,19.325241,-164.335097
51650,-6.328833,9.511194,9.260709,2.509905,-2.778267,4.409066,-0.292352,0.807754,-0.257700,-0.062791,0.095329,0.092722,0.999990,-0.001462,0.004039,-0.001288,-0.084773,-0.200259,0.238521,0.946476,31.060734,19.794101,-164.212015
51651,-5.263994,4.548736,8.320589,1.550255,0.816231,0.890706,-0.688481,0.481517,-0.296038,-0.052372,0.045851,0.083175,0.999990,-0.003442,0.002408,-0.001480,-0.084678,-0.202569,0.234735,0.946940,30.661726,20.113860,-164.213001
51652,-4.905257,5.124228,8.623673,1.093293,0.267458,1.296747,-0.557350,0.445743,-0.362857,-0.048767,0.051571,0.086202,0.999992,-0.002787,0.002229,-0.001814,-0.084085,-0.204843,0.231514,0.947297,30.321119,20.435936,-164.262872
51653,-5.077224,6.088341,8.771443,1.215978,-0.558481,1.934360,-0.688687,0.260796,-0.307664,-0.050564,0.061263,0.087570,0.999992,-0.003443,0.001304,-0.001538,-0.083678,-0.206115,0.227800,0.947957,29.894475,20.649594,-164.342252
51654,-4.030247,5.310296,8.343913,0.392919,-0.393022,0.852845,-0.772564,0.215089,-0.194123,-0.040161,0.053464,0.083276,0.999991,-0.003863,0.001075,-0.000971,-0.083835,-0.207006,0.223823,0.948696,29.435462,20.808360,-164.377480
51655,-4.038381,4.382837,8.437517,0.293526,0.387278,0.505881,-0.750227,0.204229,-0.110592,-0.040273,0.044167,0.084251,0.999992,-0.003751,0.001021,-0.000553,-0.084358,-0.207755,0.220037,0.949371,29.003354,20.937435,-164.372033
51656,-3.919832,3.508669,8.338758,0.166058,1.027811,-0.008278,-0.659521,0.164301,-0.076159,-0.039116,0.035376,0.083303,0.999994,-0.003298,0.000822,-0.000381,-0.084899,-0.208315,0.216733,0.949960,28.625388,21.037650,-164.361457
51657,-3.445522,3.772071,8.196385,-0.184072,0.564913,-0.172788,-0.501657,0.173552,-0.062297,-0.034372,0.037937,0.081899,0.999996,-0.002508,0.000868,-0.000311,-0.085358,-0.208966,0.214187,0.950353,28.341229,21.138135,-164.340697
51658,-3.503872,4.421622,8.394927,-0.176560,0.022748,0.300212,-0.511263,0.185121,-0.087743,-0.034942,0.044446,0.083868,0.999996,-0.002556,0.000926,-0.000439,-0.085712,-0.209697,0.211561,0.950748,28.047689,21.252116,-164.331300
51659,-3.936935,4.431143,8.213308,0.287649,0.005736,0.312031,-0.491939,0.130413,-0.093662,-0.039295,0.044532,0.082049,0.999997,-0.002460,0.000652,-0.000468,-0.085964,-0.210177,0.209043,0.951176,27.758082,21.339358,-164.341063
51660,-3.908062,4.776708,8.434879,0.190032,-0.282895,0.633398,-0.512793,0.127740,-0.084001,-0.039007,0.048000,0.084251,0.999996,-0.002564,0.000639,-0.000420,-0.086276,-0.210629,0.206436,0.951618,27.458024,21.423300,-164.347222
51661,-4.009879,4.484216,8.209450,0.361637,-0.127801,0.357614,-0.558212,0.037992,-0.066510,-0.040068,0.045084,0.081977,0.999996,-0.002791,0.000190,-0.000333,-0.086630,-0.210609,0.203668,0.952186,27.125948,21.456248,-164.369227
51662,-3.336485,4.136362,8.080420,-0.204666,-0.080449,-0.143860,-0.545292,0.050758,-0.056522,-0.033333,0.041593,0.080699,0.999996,-0.002726,0.000254,-0.000283,-0.087025,-0.210649,0.200965,0.952715,26.804566,21.493685,-164.382879
51663,-3.481829,3.845407,8.304848,-0.191229,0.248979,-0.025856,-0.457494,0.080731,-0.082534,-0.034769,0.038658,0.082974,0.999997,-0.002287,0.000404,-0.000413,-0.087239,-0.210889,0.198639,0.953130,26.531120,21.552411,-164.402287
51664,-3.576923,3.883252,8.422165,-0.150088,0.227952,0.123717,-0.547794,0.021916,-0.163181,-0.035728,0.039092,0.084119,0.999996,-0.002739,0.000110,-0.000816,-0.087099,-0.210894,0.195821,0.953725,26.183557,21.602022,-164.483100
51665,-3.214484,2.893003,8.120164,-0.421481,0.880054,-0.664625,-0.526398,0.034098,-0.265953,-0.032092,0.029186,0.081131,0.999996,-0.002632,0.000170,-0.001330,-0.086464,-0.211059,0.192990,0.954323,25.828195,21.682601,-164.617469
51666,-4.163526,3.814215,8.633411,0.282655,0.391816,0.491939,-0.418886,0.012832,-0.305195,-0.041571,0.038386,0.086257,0.999997,-0.002094,0.000064,-0.001526,-0.085502,-0.211211,0.190638,0.954849,25.523874,21.761871,-164.780192
51667,-3.732717,4.135777,8.167903,0.129672,-0.213039,0.071138,-0.471126,-0.050555,-0.293244,-0.037287,0.041605,0.081572,0.999996,-0.002356,-0.000253,-0.001466,-0.084596,-0.211021,0.188075,0.955480,25.185516,21.803891,-164.953255
51668,-3.524755,4.153653,8.074639,-0.010183,-0.363908,-0.079047,-0.477066,0.004012,-0.285745,-0.035186,0.041779,0.080648,0.999996,-0.002385,0.000020,-0.001429,-0.083779,-0.211084,0.185467,0.956047,24.850333,21.872142,-165.108494
51669,-3.450359,4.267649,8.162524,-0.103110,-0.515111,0.009142,-0.535651,0.011302,-0.290776,-0.034437,0.042945,0.081512,0.999995,-0.002678,0.000057,-0.001454,-0.083009,-0.211156,0.182569,0.956656,24.480864,21.943843,-165.264914
51670,-3.420922,4.060604,8.171586,-0.148674,-0.390734,-0.076625,-0.575360,0.042284,-0.308713,-0.034129,0.040894,0.081606,0.999995,-0.002877,0.000211,-0.001544,-0.082218,-0.211378,0.179448,0.957266,24.087402,22.035630,-165.424547
51671,-3.927862,3.326003,8.534422,0.089737,0.450598,0.142978,-0.612111,0.042891,-0.311824,-0.039208,0.033582,0.085250,0.999994,-0.003061,0.000214,-0.001559,-0.081455,-0.211584,0.176145,0.957899,23.671720,22.126766,-165.586198
51672,-3.907392,2.331186,8.718556,-0.088595,1.358897,-0.073045,-0.504893,0.037667,-0.280267,-0.039025,0.023587,0.087134,0.999996,-0.002524,0.000188,-0.001401,-0.080720,-0.211784,0.173389,0.958420,23.323249,22.207586,-165.732357
51673,-3.463778,2.267625,8.641691,-0.458835,1.245203,-0.322824,-0.343090,0.033979,-0.268967,-0.034592,0.022871,0.086384,0.999998,-0.001715,0.000170,-0.001345,-0.079869,-0.212015,0.171421,0.958794,23.069174,22.282564,-165.873147
51674,-3.828149,2.548015,8.613534,-0.102238,1.026149,-0.103075,-0.160675,0.077610,-0.239685,-0.038217,0.025595,0.086130,0.999999,-0.000803,0.000388,-0.001198,-0.079001,-0.212507,0.170339,0.958950,22.929550,22.374189,-165.987086
51675,-3.775479,2.490968,8.633721,-0.170926,1.052411,-0.124371,-0.082973,0.059346,-0.218723,-0.037702,0.024987,0.086338,0.999999,-0.000415,0.000297,-0.001094,-0.078136,-0.212919,0.169660,0.959049,22.837167,22.450650,-166.093683
51676,-3.757532,2.170186,8.632628,-0.221908,1.336373,-0.246295,0.076094,0.092275,-0.221350,-0.037511,0.021711,0.086352,0.999999,0.000380,0.000461,-0.001107,-0.077118,-0.213559,0.169725,0.958978,22.838004,22.545646,-166.193775
51677,-4.444050,2.715913,8.935365,0.289589,1.067319,0.470477,0.158733,0.058830,-0.271773,-0.044377,0.027149,0.089388,0.999999,0.000794,0.000294,-0.001359,-0.075740,-0.214107,0.170148,0.958891,22.872035,22.633591,-166.331010
51678,-4.112854,3.180577,8.665392,0.133004,0.481063,0.280455,0.104871,-0.019295,-0.324375,-0.041085,0.031827,0.086667,0.999999,0.000524,-0.000096,-0.001622,-0.074105,-0.214310,0.170282,0.958949,22.855887,22.692680,-166.516760
51679,-3.314675,3.705326,8.278873,-0.387801,-0.298946,-0.168182,0.086624,-0.009256,-0.353279,-0.033085,0.037076,0.082803,0.999998,0.000433,-0.000046,-0.001766,-0.072355,-0.214573,0.170297,0.959021,22.823864,22.762767,-166.717236
51680,-3.604584,2.920026,8.143844,-0.133395,0.451070,-0.452106,0.164507,0.052484,-0.324188,-0.035977,0.029192,0.081472,0.999998,0.000823,0.000262,-0.001621,-0.070717,-0.215140,0.170690,0.958947,22.848093,22.859619,-166.885767
51681,-3.989051,5.169307,8.639979,0.116407,-1.413095,0.923843,0.205192,0.065532,-0.244740,-0.039799,0.051653,0.086466,0.999999,0.001026,0.000328,-0.001224,-0.069424,-0.215710,0.171362,0.958793,22.914606,22.945139,-167.006161
51682,-4.623696,3.836283,8.460190,0.670414,-0.092930,0.541652,0.040259,0.027193,-0.181889,-0.046191,0.038388,0.084616,1.000000,0.000201,0.000136,-0.000909,-0.068580,-0.215990,0.171320,0.958798,22.896663,22.997085,-167.099435
51683,-3.913520,3.176186,8.534226,-0.043471,0.397029,0.090710,0.110952,-0.013293,-0.150878,-0.039117,0.031744,0.085357,1.000000,0.000555,-0.000066,-0.000754,-0.067771,-0.216069,0.171669,0.958776,22.922526,23.020124,-167.185160
51684,-4.060666,2.522892,8.719389,-0.035322,1.098018,0.070370,0.217792,0.016545,-0.204372,-0.040574,0.025175,0.087225,0.999999,0.001089,0.000083,-0.001022,-0.066618,-0.216377,0.172458,0.958646,23.000125,23.071581,-167.293909
51685,-4.610842,3.364076,8.741567,0.487209,0.441385,0.606510,0.224388,-0.071293,-0.255471,-0.046097,0.033602,0.087437,0.999998,0.001122,-0.000356,-0.001277,-0.065134,-0.216305,0.173255,0.958620,23.061847,23.087649,-167.453707
51686,-3.928724,3.203909,8.396617,0.015825,0.352569,-0.010722,0.130375,-0.111591,-0.306219,-0.039285,0.032045,0.083965,0.999998,0.000652,-0.000558,-0.001531,-0.063478,-0.216058,0.173556,0.958732,23.054093,23.094601,-167.651872
51687,-3.661563,2.726961,8.241678,-0.180776,0.701216,-0.418848,0.267159,-0.077852,-0.333245,-0.036602,0.027220,0.082439,0.999998,0.001336,-0.000389,-0.001666,-0.061569,-0.216033,0.174476,0.958696,23.122115,23.124833,-167.857859
51688,-4.157052,3.908858,8.160398,0.343408,-0.321234,0.133729,0.278241,-0.094274,-0.403056,-0.041530,0.039059,0.081639,0.999997,0.001391,-0.000471,-0.002015,-0.059304,-0.215999,0.175372,0.958682,23.178701,23.163012,-168.107205
51689,-3.561733,4.682386,8.055270,-0.127538,-1.187274,0.090451,0.119849,-0.084133,-0.402596,-0.035557,0.046847,0.080566,0.999998,0.000599,-0.000421,-0.002013,-0.057217,-0.215959,0.175511,0.958793,23.145793,23.205809,-168.354546
51690,-4.031068,5.042808,8.214872,0.226369,-1.387347,0.540455,0.176577,-0.032962,-0.255327,-0.040260,0.050407,0.082187,0.999999,0.000883,-0.000165,-0.001277,-0.055821,-0.216056,0.176062,0.958752,23.183133,23.243035,-168.504508
51691,-3.859396,3.996503,8.368000,-0.035771,-0.392921,0.223982,0.089138,-0.000882,-0.140144,-0.038566,0.039955,0.083698,1.000000,0.000446,-0.000004,-0.000701,-0.055098,-0.216175,0.176313,0.958721,23.199775,23.270576,-168.581066
51692,-4.156563,3.328848,8.737430,0.047396,0.402526,0.411629,0.105055,-0.011107,-0.101866,-0.041554,0.033264,0.087389,1.000000,0.000525,-0.000056,-0.000509,-0.054533,-0.216221,0.176681,0.958675,23.232956,23.284763,-168.637932
51693,-3.936697,3.799273,8.817647,-0.175889,-0.041616,0.562778,0.182269,-0.017708,-0.103882,-0.039355,0.037933,0.088208,0.999999,0.000911,-0.000089,-0.000519,-0.053867,-0.216252,0.177422,0.958569,23.309503,23.295337,-168.697834
51694,-5.105877,5.627792,9.324094,0.701999,-1.362395,2.117602,0.134620,-0.026428,-0.067141,-0.051052,0.056232,0.093272,1.000000,0.000673,-0.000132,-0.000336,-0.053423,-0.216202,0.177973,0.958503,23.365971,23.293686,-168.738528
51695,-4.681130,7.170416,8.549644,0.704916,-3.124309,1.856330,-0.164200,-0.178188,0.008180,-0.046890,0.071772,0.085396,0.999999,-0.000821,-0.000891,0.000041,-0.053527,-0.215271,0.177217,0.958847,23.253761,23.194447,-168.773825
51696,-3.304081,6.587043,7.895292,-0.243134,-3.063020,0.541071,-0.446281,-0.132635,0.040885,-0.033107,0.066040,0.078784,0.999997,-0.002231,-0.000663,0.000204,-0.054127,-0.214459,0.175131,0.959378,22.991823,23.112400,-168.779145
51697,-3.504720,5.451590,8.473782,-0.313614,-1.844791,0.689965,-0.783335,-0.120490,-0.008799,-0.035096,0.054849,0.084502,0.999992,-0.003917,-0.000602,-0.000044,-0.054864,-0.213650,0.171369,0.960196,22.527018,23.047102,-168.809210
51698,-2.286032,4.451085,7.739937,-1.104008,-1.419648,-0.773322,-0.697474,-0.120545,-0.084320,-0.022888,0.044790,0.077230,0.999994,-0.003487,-0.000603,-0.000422,-0.055137,-0.212930,0.167939,0.960946,22.094770,22.998584,-168.883051
51699,-1.307717,6.374082,8.295108,-2.140923,-3.304642,-0.032966,-0.849337,0.013854,-0.200810,-0.013007,0.064105,0.082680,0.999990,-0.004247,0.000069,-0.001004,-0.055133,-0.212904,0.163614,0.961698,21.561400,23.045205,-168.991813
51700,-0.412657,5.906699,8.139939,-2.892985,-3.158203,-0.703705,-0.934964,0.181148,-0.251453,-0.003978,0.059452,0.081126,0.999988,-0.004675,0.000906,-0.001257,-0.055101,-0.213698,0.158777,0.962334,20.982167,23.191149,-169.093953
51701,0.256258,6.871220,8.034693,-3.419069,-4.315323,-0.783714,-1.046192,0.407298,-0.241630,0.002809,0.069128,0.079980,0.999984,-0.005231,0.002036,-0.001208,-0.055424,-0.215533,0.153345,0.962787,20.359861,23.454909,-169.141135
51702,3.725752,7.239575,9.724535,-7.276728,-4.928665,-0.668600,-1.139441,0.674459,-0.263657,0.037680,0.072898,0.096704,0.999977,-0.005697,0.003372,-0.001318,-0.055928,-0.218637,0.147368,0.962992,19.700838,23.866479,-169.149129
51703,4.320979,7.214455,13.336185,-9.416392,-4.219971,2.107625,-0.940929,0.611009,0.025621,0.043607,0.072776,0.132888,0.999984,-0.004705,0.003055,0.000128,-0.057575,-0.221269,0.142667,0.963001,19.217422,24.188304,-169.002020
51704,6.201808,9.908469,12.977799,-10.818265,-7.310454,1.788413,-0.239859,0.251405,0.244207,0.062060,0.099316,0.129581,0.999998,-0.001199,0.001257,0.001221,-0.059224,-0.222206,0.141695,0.962829,19.159096,24.274538,-168.802873
51705,5.367949,9.371870,11.751595,-9.534440,-6.995682,0.906527,-0.078188,0.097714,0.342943,0.053576,0.093857,0.117453,0.999998,-0.000391,0.000489,0.001715,-0.061077,-0.222386,0.141645,0.962679,19.203820,24.259505,-168.574832
51706,3.710182,8.645728,11.415848,-7.916427,-6.088936,1.100173,0.246201,-0.001809,0.457100,0.036903,0.086401,0.114265,0.999997,0.001231,-0.000009,0.002285,-0.063026,-0.222091,0.143330,0.962372,19.454564,24.167201,-168.302564
51707,2.572136,7.615110,11.368177,-6.907424,-4.878563,1.247511,0.355417,-0.095029,0.558419,0.025455,0.076020,0.113829,0.999994,0.001777,-0.000475,0.002792,-0.065296,-0.221320,0.145664,0.962048,19.782294,24.005109,-167.988210
51708,1.681359,6.821645,11.229822,-6.056780,-3.943435,1.288432,0.397096,-0.235021,0.661282,0.016456,0.068048,0.112453,0.999992,0.001985,-0.001175,0.003306,-0.067886,-0.219793,0.148377,0.961804,20.146015,23.743901,-167.647970
51709,2.134200,5.029194,10.441422,-6.181984,-2.491791,-0.094430,0.332849,-0.285704,0.664518,0.021026,0.050188,0.104528,0.999992,0.001664,-0.001429,0.003323,-0.070549,-0.218012,0.150779,0.961644,20.465387,23.454822,-167.316096
51710,1.934016,4.357938,10.697109,-6.118811,-1.712265,0.025408,0.337002,-0.286202,0.593275,0.019058,0.043456,0.107072,0.999993,0.001685,-0.001431,0.002966,-0.072837,-0.216259,0.153143,0.961496,20.769675,23.175852,-167.031666
51711,2.190854,3.833584,10.569830,-6.290467,-1.271952,-0.324305,0.219068,-0.331571,0.510343,0.021636,0.038275,0.105776,0.999995,0.001095,-0.001658,0.002552,-0.074845,-0.214328,0.154843,0.961502,20.979992,22.890688,-166.804202
51712,3.283372,3.445357,9.733565,-6.898450,-1.339452,-1.565846,0.139266,-0.283999,0.450629,0.032618,0.034459,0.097406,0.999996,0.000696,-0.001420,0.002253,-0.076665,-0.212613,0.156097,0.961536,21.135240,22.639794,-166.605218
51713,3.463645,4.138411,9.949004,-7.068450,-1.968272,-1.194752,0.028801,-0.104208,0.418820,0.034498,0.041442,0.099514,0.999998,0.000144,-0.000521,0.002094,-0.078612,-0.211771,0.156695,0.961468,21.233139,22.493921,-166.382172
51714,2.930511,4.140845,9.726419,-6.468787,-1.929338,-1.165719,-0.173265,-0.003529,0.464153,0.029207,0.041561,0.097229,0.999997,-0.000866,-0.000018,0.002321,-0.081049,-0.211266,0.156351,0.961432,21.234745,22.388938,-166.113394
51715,3.801555,3.694397,8.592806,-6.782467,-2.046026,-2.619053,-0.364280,0.218072,0.483381,0.038019,0.037192,0.085819,0.999995,-0.001821,0.001090,0.002417,-0.083973,-0.211762,0.154996,0.961291,21.148413,22.401832,-165.781147
51716,2.981358,3.453734,8.221559,-5.907144,-1.791190,-2.719898,-0.464130,0.622632,0.495466,0.029983,0.034802,0.082042,0.999989,-0.002321,0.003113,0.002477,-0.087356,-0.214115,0.153024,0.960785,21.044267,22.625233,-165.353860
51717,1.273656,3.324875,8.367919,-4.485247,-1.299934,-2.009406,-0.433432,1.024183,0.567067,0.013070,0.033467,0.083540,0.999981,-0.002167,0.005121,0.002835,-0.091371,-0.218382,0.151073,0.959759,21.009734,23.052921,-164.792200
51718,-1.527296,3.034699,10.647992,-3.123952,0.172297,0.917264,-0.151017,1.328367,0.792915,-0.014686,0.030368,0.106556,0.999970,-0.000755,0.006642,0.003965,-0.096373,-0.224020,0.150600,0.958043,21.222903,23.591616,-164.030329
51719,-8.918647,3.486457,13.871825,1.830395,2.478549,6.759183,0.511589,1.027015,1.325283,-0.088699,0.033920,0.139262,0.999962,0.002558,0.005135,0.006626,-0.102964,-0.228154,0.154010,0.955837,21.918899,23.856166,-163.018571
51720,-8.000188,4.686490,12.383040,1.815594,0.944007,5.520753,0.495165,-0.004407,1.744116,-0.080407,0.045858,0.123943,0.999959,0.002476,-0.000022,0.008720,-0.110761,-0.226974,0.158358,0.954535,22.605926,23.467496,-162.007865
51721,-3.723497,2.659967,8.916327,-0.532859,0.888889,0.155548,0.281462,-0.277518,1.576344,-0.037566,0.026179,0.089148,0.999967,0.001407,-0.001388,0.007882,-0.117787,-0.224523,0.161615,0.953728,23.095117,22.966634,-161.165401
51722,-3.577216,1.194464,7.162231,-0.034820,1.825544,-1.926840,0.290849,-0.134101,1.147718,-0.035888,0.011635,0.071615,0.999982,0.001454,-0.000671,0.005739,-0.122860,-0.223061,0.164361,0.952961,23.501046,22.628236,-160.541153
51723,-4.390843,1.720309,6.842725,0.909865,1.574468,-1.703759,0.428503,0.039217,0.752215,-0.043959,0.016891,0.068472,0.999991,0.002143,0.000196,0.003761,-0.126042,-0.222864,0.167192,0.952099,23.911485,22.471881,-160.100146
51724,-4.984341,3.132638,7.187880,1.487432,0.621487,-0.662620,0.412810,0.184571,0.453824,-0.049848,0.031065,0.071989,0.999995,0.002064,0.000923,0.002269,-0.127936,-0.223560,0.169538,0.951268,24.261961,22.454604,-159.794233
51725,-8.022747,4.894033,9.260255,3.427262,0.582878,2.914541,0.177928,0.176140,0.210631,-0.080197,0.048773,0.092717,0.999999,0.000890,0.000881,0.001053,-0.128933,-0.224306,0.170484,0.950788,24.423889,22.493117,-159.626334
51726,-8.209770,4.006499,9.547724,3.317487,1.535954,2.885593,-0.224782,-0.294948,0.044565,-0.082247,0.040154,0.095311,0.999998,-0.001124,-0.001475,0.000223,-0.129183,-0.222660,0.169647,0.951291,24.273906,22.321111,-159.674313
51727,-7.231832,1.747711,9.724099,2.056646,3.314543,1.793158,0.012702,-0.535929,-0.097679,-0.072570,0.017506,0.097048,0.999996,0.000064,-0.002680,-0.000488,-0.128294,-0.220173,0.169921,0.951941,24.206214,22.060412,-159.861691
51728,-9.776428,2.840890,10.257616,4.302850,3.309579,3.581273,0.649147,-1.056394,-0.037551,-0.098299,0.028095,0.102149,0.999981,0.003246,-0.005282,-0.000188,-0.126541,-0.215531,0.173634,0.952567,24.468433,21.510544,-160.148887
51729,-6.468632,4.564411,8.651096,2.557997,0.327684,1.626960,0.691999,-1.597417,-0.043583,-0.065365,0.045360,0.086148,0.999962,0.003460,-0.007987,-0.000218,-0.124241,-0.208363,0.177863,0.953684,24.706417,20.684961,-160.577566
51730,-5.034119,3.746718,6.883169,2.067011,0.179776,-0.732374,0.744294,-1.602682,-0.133338,-0.050866,0.037245,0.068564,0.999961,0.003721,-0.008013,-0.000667,-0.121440,-0.201238,0.182250,0.954746,24.962424,19.876709,-161.060066
51731,-5.557993,4.614805,6.600218,2.893987,-0.470832,-0.477129,0.913804,-1.536691,-0.174496,-0.056046,0.045896,0.065783,0.999960,0.004569,-0.007683,-0.000872,-0.118327,-0.194580,0.187338,0.955532,25.318571,19.118388,-161.549125
51732,-5.897370,5.065199,6.276038,3.495512,-0.820315,-0.488989,0.875995,-1.531362,-0.171610,-0.059410,0.050429,0.062528,0.999961,0.004380,-0.007657,-0.000858,-0.115253,-0.187880,0.192243,0.956274,25.659962,18.361863,-162.039351
51733,-5.537421,3.974019,5.176365,3.537085,-0.257972,-2.023437,0.845831,-1.471970,-0.188926,-0.055717,0.039574,0.051522,0.999964,0.004229,-0.007360,-0.000945,-0.112179,-0.181477,0.196926,0.956923,25.990463,17.646087,-162.524435
51734,-5.724923,3.563294,4.647507,3.924429,0.013130,-2.624544,0.862349,-1.303728,-0.306781,-0.057497,0.035521,0.046254,0.999968,0.004312,-0.006519,-0.001534,-0.108673,-0.175965,0.201488,0.957408,26.330154,17.046499,-163.033082
51735,-6.065485,2.577474,4.353465,4.269502,0.898018,-3.228562,0.820953,-1.173381,-0.466204,-0.060849,0.025738,0.043284,0.999972,0.004105,-0.005867,-0.002331,-0.104577,-0.171231,0.205613,0.957845,26.634643,16.560031,-163.592386
51736,-6.017094,2.286879,4.083835,4.335147,1.045298,-3.629921,0.927063,-1.025325,-0.596218,-0.060311,0.022860,0.040635,0.999972,0.004635,-0.005127,-0.002981,-0.099899,-0.167361,0.210062,0.958063,26.996158,16.183502,-164.185060
51737,-5.866540,2.795892,4.238032,4.235647,0.603024,-3.340455,0.912878,-0.880097,-0.685789,-0.058756,0.027967,0.042250,0.999974,0.004564,-0.004400,-0.003429,-0.094966,-0.164289,0.214269,0.958165,27.349202,15.910470,-164.784865
51738,-5.685455,3.154215,4.666723,3.975656,0.395258,-2.878015,0.847572,-0.696480,-0.744469,-0.056899,0.031556,0.046603,0.999978,0.004238,-0.003482,-0.003722,-0.089980,-0.162099,0.218032,0.958170,27.673093,15.747532,-165.368671
51739,-5.636094,3.411158,5.231295,3.767750,0.372192,-2.300462,0.807229,-0.547456,-0.725711,-0.056380,0.034105,0.052296,0.999982,0.004036,-0.002737,-0.003629,-0.085293,-0.160599,0.221527,0.958050,27.987793,15.660359,-165.899258
51740,-5.374529,4.005398,5.564214,3.461706,-0.079594,-1.818972,0.757450,-0.376060,-0.664370,-0.053717,0.040022,0.055693,0.999986,0.003787,-0.001880,-0.003322,-0.081106,-0.159806,0.224767,0.957791,28.297098,15.644131,-166.352700
51741,-5.149708,4.700086,5.586690,3.287182,-0.728305,-1.537099,0.605663,-0.194843,-0.552690,-0.051422,0.046974,0.055959,0.999991,0.003028,-0.000974,-0.002763,-0.077798,-0.159710,0.227276,0.957489,28.547831,15.692736,-166.693682
51742,-4.676463,4.553522,5.240937,2.927263,-0.838822,-2.015333,0.365970,0.077486,-0.390698,-0.046655,0.045530,0.052511,0.999996,0.001830,0.000387,-0.001953,-0.075740,-0.160620,0.228675,0.957169,28.705996,15.833397,-166.875531
51743,-4.780687,4.042384,5.110567,3.000371,-0.411942,-2.319914,0.203349,0.463822,-0.164762,-0.047655,0.040411,0.051257,0.999996,0.001017,0.002319,-0.000824,-0.075361,-0.163077,0.229312,0.956631,28.832175,16.107820,-166.825136
51744,-7.286135,3.253631,6.357461,4.803926,1.373864,-0.917443,0.228669,0.819535,0.151485,-0.072625,0.032408,0.063910,0.999991,0.001143,0.004098,0.000757,-0.076851,-0.166861,0.230209,0.955644,29.049847,16.471364,-166.509513
51745,-10.373524,3.742015,7.820880,7.131364,2.308716,1.438585,0.255028,0.704855,0.580070,-0.103566,0.037020,0.078621,0.999989,0.001275,0.003524,0.002900,-0.080263,-0.169629,0.231612,0.954536,29.337634,16.657824,-165.997888
51746,-9.619337,3.033791,6.489351,6.812972,2.304341,-0.214787,0.058015,0.467525,0.950775,-0.096184,0.029862,0.065127,0.999986,0.000290,0.002338,0.004754,-0.085303,-0.170737,0.232495,0.953687,29.550007,16.618327,-165.365749
51747,-8.190993,2.176896,3.982203,6.308215,1.764198,-3.120708,-0.340467,0.640621,1.060497,-0.081896,0.021403,0.040048,0.999979,-0.001702,0.003203,0.005302,-0.091435,-0.172382,0.231472,0.953071,29.563601,16.633877,-164.621794
51748,-8.534390,1.452184,1.170723,7.568270,1.424313,-5.688754,-0.938989,1.161388,0.971058,-0.085344,0.014164,0.012136,0.999960,-0.004695,0.005807,0.004855,-0.098221,-0.176316,0.227285,0.952684,29.268336,16.935726,-163.774797
51749,-5.943759,-2.062065,-2.984333,6.359623,2.288611,-11.486326,-1.824112,2.012656,0.720835,-0.059657,-0.021103,-0.029053,0.999901,-0.009120,0.010063,0.003604,-0.105583,-0.184142,0.218195,0.952541,28.506821,17.741926,-162.808934
51750,-5.280620,-6.732675,4.869777,1.912035,9.266577,-7.093676,-1.027618,4.015911,0.139562,-0.051763,-0.067108,0.050089,0.999785,-0.005138,0.020078,0.000698,-0.111559,-0.202497,0.211255,0.949695,28.311240,19.723794,-161.579462
51751,-24.024948,4.015224,27.605393,9.462397,13.376470,23.153740,-0.025051,3.315154,-0.375875,-0.235554,0.040633,0.279979,0.999861,-0.000125,0.016575,-0.001879,-0.113329,-0.218565,0.208853,0.946450,28.562878,21.492694,-160.811928
51752,-14.126597,1.713437,25.395652,0.997182,11.208146,17.034325,-2.619684,-0.193236,-1.108914,-0.141401,0.021241,0.253560,0.999898,-0.013098,-0.000966,-0.005544,-0.110757,-0.217275,0.195316,0.949935,26.816584,21.686527,-161.470598
51753,-4.804277,-13.031136,4.824002,0.471662,14.688193,-9.376595,-1.214305,-0.525879,-1.494082,-0.049141,-0.129651,0.048900,0.999950,-0.006071,-0.002629,-0.007470,-0.104505,-0.215525,0.188183,0.952478,25.758756,21.791696,-162.436803
51754,-4.003927,-0.133942,7.434992,0.167314,3.557647,-2.154787,0.416868,0.454830,-1.568935,-0.039880,-0.001181,0.074438,0.999964,0.002084,0.002274,-0.007845,-0.097061,-0.219358,0.188202,0.952387,25.711500,22.413851,-163.183781
51755,-2.258312,7.648941,10.057731,-1.854855,-3.182750,2.483342,0.427581,0.444737,-1.050293,-0.021958,0.076390,0.100790,0.999981,0.002138,0.002224,-0.005251,-0.092052,-0.222641,0.188843,0.951996,25.773680,22.900969,-163.647437
51756,-2.912490,7.145689,5.664999,0.583612,-3.966210,-1.119957,0.139958,0.681321,-0.649901,-0.028699,0.071511,0.056798,0.999989,0.000700,0.003407,-0.003249,-0.089500,-0.226541,0.188438,0.951399,25.779891,23.411426,-163.822474
51757,-6.242821,8.982939,7.859090,2.552349,-4.125100,2.753102,-0.039199,0.907543,-0.434012,-0.061876,0.089980,0.078855,0.999987,-0.000196,0.004538,-0.002170,-0.088378,-0.231220,0.187328,0.950597,25.755695,23.984028,-163.816352
51758,-9.224652,7.995002,10.316106,3.848678,-1.764258,5.598678,-0.686174,0.384666,-0.309974,-0.091924,0.080446,0.103063,0.999991,-0.003431,0.001923,-0.001550,-0.088102,-0.233013,0.183510,0.950930,25.330592,24.256502,-163.883869
51759,-4.673594,4.109305,8.025908,0.618511,-0.157157,0.323199,-0.831158,0.057437,-0.254983,-0.046660,0.041486,0.080101,0.999991,-0.004156,0.000287,-0.001275,-0.087955,-0.233125,0.179211,0.951735,24.798318,24.344466,-164.009884
