PacketCounter,Acc_X,Acc_Y,Acc_Z,FreeAcc_E,FreeAcc_N,FreeAcc_U,Gyr_X,Gyr_Y,Gyr_Z,VelInc_X,VelInc_Y,VelInc_Z,OriInc_q0,OriInc_q1,OriInc_q2,OriInc_q3,Quat_q0,Quat_q1,Quat_q2,Quat_q3,Roll,Pitch,Yaw
15375,-9.823220,0.841772,-0.767535,-0.514460,-0.074858,0.062689,-0.272458,0.013570,0.038045,-0.098234,0.008389,-0.007680,0.999999,-0.001362,0.000068,0.000190,0.697127,0.029735,0.715431,0.035878,105.338006,84.478282,105.836355
15376,-9.839414,0.808901,-0.842973,-0.591693,-0.116741,0.077472,-0.242878,-0.008122,0.039038,-0.098395,0.008060,-0.008444,0.999999,-0.001214,-0.000041,0.000195,0.697208,0.029066,0.715327,0.036919,105.035712,84.453238,105.672787
15377,-9.822831,0.757930,-0.854566,-0.606535,-0.171830,0.056220,-0.201497,-0.011215,0.018712,-0.098229,0.007561,-0.008559,0.999999,-0.001007,-0.000056,0.000094,0.697297,0.028469,0.715222,0.037738,104.772982,84.440004,105.524911
15378,-9.749469,0.774445,-0.820230,-0.577811,-0.152119,-0.016378,-0.133948,-0.020967,0.014059,-0.097494,0.007732,-0.008218,1.000000,-0.000670,-0.000105,0.000070,0.697411,0.028093,0.715095,0.038300,104.500510,84.430517,105.328590
15379,-9.667742,0.781783,-0.745307,-0.508551,-0.139007,-0.099091,-0.060538,-0.021120,0.010847,-0.096677,0.007810,-0.007466,1.000000,-0.000303,-0.000106,0.000054,0.697516,0.027962,0.714983,0.038586,104.275491,84.422863,105.137364
15380,-9.553224,0.825393,-0.611468,-0.381375,-0.084998,-0.212345,0.020343,-0.026666,0.012161,-0.095532,0.008249,-0.006127,1.000000,0.000102,-0.000133,0.000061,0.697629,0.028118,0.714866,0.038589,104.063119,84.415074,104.912601
15381,-9.544507,0.844707,-0.504761,-0.278015,-0.065392,-0.221840,0.090757,-0.029531,0.017938,-0.095445,0.008441,-0.005058,1.000000,0.000454,-0.000148,0.000090,0.697740,0.028538,0.714753,0.038361,103.870079,84.404543,104.666937
15382,-9.568567,0.894995,-0.429281,-0.205358,-0.018993,-0.194983,0.144771,-0.036188,0.024589,-0.095686,0.008941,-0.004304,1.000000,0.000724,-0.000181,0.000123,0.697867,0.029174,0.714625,0.037961,103.659123,84.390983,104.371954
15383,-9.592956,0.986803,-0.389298,-0.168907,0.067948,-0.162973,0.178624,-0.046794,0.023885,-0.095930,0.009860,-0.003907,1.000000,0.000893,-0.000234,0.000119,0.698026,0.029930,0.714466,0.037433,103.410628,84.379219,104.019320
15384,-9.665994,1.136163,-0.298347,-0.081044,0.208837,-0.078154,0.201220,-0.051677,0.007804,-0.096660,0.011361,-0.002997,0.999999,0.001006,-0.000258,0.000039,0.698202,0.030706,0.714296,0.036771,103.168922,84.376820,103.660929
15385,-9.625278,1.261153,-0.235949,-0.023933,0.336805,-0.108144,0.197608,-0.054993,0.001824,-0.096252,0.012613,-0.002373,0.999999,0.000988,-0.000275,0.000009,0.698389,0.031447,0.714115,0.036100,102.917060,84.378205,103.294538
15386,-9.706471,1.375795,-0.150263,0.059606,0.443779,-0.018277,0.160108,-0.048264,-0.014321,-0.097063,0.013766,-0.001515,1.000000,0.000801,-0.000241,-0.000072,0.698562,0.032000,0.713951,0.035507,102.699669,84.387439,102.984251
15387,-9.763577,1.453870,-0.105977,0.101578,0.516989,0.045041,0.113590,-0.044407,-0.015846,-0.097634,0.014547,-0.001073,1.000000,0.000568,-0.000222,-0.000079,0.698728,0.032384,0.713793,0.035074,102.480326,84.397111,102.698567
15388,-9.706050,1.425805,-0.017585,0.185194,0.496194,-0.016763,0.054195,-0.040069,-0.029138,-0.097058,0.014272,-0.000191,1.000000,0.000271,-0.000200,-0.000146,0.698890,0.032512,0.713641,0.034809,102.265689,84.413400,102.452033
15389,-9.624755,1.347143,-0.002056,0.195549,0.428065,-0.105513,-0.009774,-0.028116,-0.040115,-0.096245,0.013491,-0.000035,1.000000,-0.000049,-0.000141,-0.000201,0.699021,0.032374,0.713523,0.034736,102.097728,84.434450,102.289394
15390,-9.592308,1.177198,-0.022913,0.171063,0.264797,-0.153531,-0.072948,-0.017129,-0.041551,-0.095921,0.011792,-0.000242,1.000000,-0.000365,-0.000086,-0.000208,0.699124,0.032010,0.713431,0.034886,101.954885,84.454811,102.188202
15391,-9.632987,1.006787,-0.043541,0.148851,0.094316,-0.128736,-0.118047,-0.008569,-0.044303,-0.096328,0.010089,-0.000445,1.000000,-0.000590,-0.000043,-0.000222,0.699205,0.031480,0.713361,0.035184,101.838604,84.475728,102.139157
15392,-9.632710,0.826325,-0.060490,0.129896,-0.082674,-0.145636,-0.159246,-0.008638,-0.035046,-0.096326,0.008280,-0.000616,1.000000,-0.000796,-0.000043,-0.000175,0.699290,0.030835,0.713282,0.035666,101.686081,84.491403,102.077921
15393,-9.665610,0.731648,-0.112987,0.075777,-0.178734,-0.120711,-0.167361,-0.009984,-0.023668,-0.096655,0.007327,-0.001141,1.000000,-0.000837,-0.000050,-0.000118,0.699378,0.030205,0.713195,0.036213,101.507669,84.500908,101.995020
15394,-9.707050,0.645668,-0.206013,-0.018880,-0.268191,-0.085721,-0.165715,-0.016684,-0.021552,-0.097070,0.006465,-0.002074,1.000000,-0.000829,-0.000083,-0.000108,0.699489,0.029588,0.713083,0.036763,101.287296,84.509877,101.869347
15395,-9.739952,0.619654,-0.230243,-0.045735,-0.296537,-0.054940,-0.137118,-0.022291,-0.024736,-0.097398,0.006207,-0.002318,1.000000,-0.000686,-0.000111,-0.000124,0.699615,0.029059,0.712959,0.037200,101.055595,84.521253,101.715958
15396,-9.723818,0.629352,-0.213534,-0.033302,-0.283881,-0.070377,-0.107820,-0.026816,-0.028816,-0.097237,0.006306,-0.002152,1.000000,-0.000539,-0.000134,-0.000144,0.699755,0.028621,0.712823,0.037517,100.815857,84.535312,101.537512
15397,-9.651215,0.681568,-0.215164,-0.040657,-0.223476,-0.137710,-0.080844,-0.023635,-0.030990,-0.096511,0.006830,-0.002166,1.000000,-0.000404,-0.000118,-0.000155,0.699878,0.028266,0.712704,0.037731,100.614022,84.550282,101.381810
15398,-9.602681,0.701687,-0.203882,-0.033726,-0.197055,-0.184320,-0.062135,-0.017670,-0.029171,-0.096026,0.007030,-0.002049,1.000000,-0.000311,-0.000088,-0.000146,0.699979,0.027984,0.712609,0.037885,100.452944,84.563463,101.256096
15399,-9.570464,0.710237,-0.206904,-0.039873,-0.184281,-0.215527,-0.041924,-0.011113,-0.021293,-0.095704,0.007112,-0.002076,1.000000,-0.000210,-0.000056,-0.000106,0.700050,0.027799,0.712540,0.037995,100.335011,84.571609,101.162094
15400,-9.595344,0.717941,-0.228201,-0.062443,-0.178745,-0.189679,-0.020975,-0.004002,-0.011684,-0.095953,0.007185,-0.002285,1.000000,-0.000105,-0.000020,-0.000058,0.700093,0.027721,0.712498,0.038065,100.258833,84.573483,101.097975
15401,-9.644467,0.681246,-0.268393,-0.102418,-0.220766,-0.143528,-0.000715,-0.005740,-0.002753,-0.096444,0.006814,-0.002687,1.000000,-0.000004,-0.000029,-0.000014,0.700136,0.027745,0.712453,0.038093,100.176235,84.570660,101.015719
15402,-9.652575,0.715808,-0.244570,-0.080150,-0.187957,-0.132675,0.026289,-0.007713,0.007431,-0.096526,0.007155,-0.002448,1.000000,0.000131,-0.000039,0.000037,0.700181,0.027901,0.712403,0.038062,100.084895,84.562110,100.909167
15403,-9.759363,0.800833,-0.277438,-0.113793,-0.115383,-0.017933,0.045832,-0.016753,0.007941,-0.097594,0.008005,-0.002781,1.000000,0.000229,-0.000084,0.000040,0.700256,0.028128,0.712327,0.037959,99.952707,84.554350,100.750210
15404,-9.775986,0.924592,-0.232975,-0.073091,0.005349,0.009415,0.051908,-0.027921,0.005450,-0.097760,0.009244,-0.002341,1.000000,0.000260,-0.000140,0.000027,0.700370,0.028371,0.712212,0.037827,99.759203,84.548852,100.526283
15405,-9.720041,1.022020,-0.252303,-0.098025,0.106243,-0.036877,0.031733,-0.037082,-0.002896,-0.097200,0.010222,-0.002539,1.000000,0.000159,-0.000185,-0.000014,0.700520,0.028514,0.712064,0.037735,99.510543,84.549036,100.258509
15406,-9.671083,1.057498,-0.208240,-0.059342,0.146293,-0.083012,-0.000495,-0.036883,-0.008759,-0.096710,0.010579,-0.002100,1.000000,-0.000002,-0.000184,-0.000044,0.700676,0.028524,0.711910,0.037738,99.248340,84.552230,99.995731
15407,-9.614063,1.058241,-0.187526,-0.043564,0.152562,-0.140041,-0.032028,-0.028348,-0.011370,-0.096140,0.010588,-0.001891,1.000000,-0.000160,-0.000142,-0.000057,0.700806,0.028414,0.711780,0.037843,99.022208,84.556147,99.787069
15408,-9.580914,0.959268,-0.181938,-0.040746,0.057102,-0.182407,-0.040299,-0.022467,-0.009422,-0.095808,0.009597,-0.001832,1.000000,-0.000201,-0.000112,-0.000047,0.700917,0.028280,0.711669,0.037987,98.822879,84.558236,99.610362
15409,-9.563366,0.875161,-0.126897,0.012460,-0.024809,-0.208563,-0.030595,-0.012709,0.000309,-0.095634,0.008751,-0.001276,1.000000,-0.000153,-0.000064,0.000002,0.700988,0.028209,0.711594,0.038133,98.680948,84.554074,99.486011
15410,-9.635677,0.766208,-0.116683,0.022945,-0.141420,-0.146952,-0.011038,-0.018109,0.009571,-0.096357,0.007657,-0.001176,1.000000,-0.000055,-0.000091,0.000048,0.701075,0.028244,0.711501,0.038241,98.507346,84.544934,99.318304
15411,-9.748869,0.735770,-0.082188,0.057374,-0.183883,-0.037645,0.014407,-0.014960,0.012077,-0.097489,0.007352,-0.000829,1.000000,0.000072,-0.000075,0.000060,0.701146,0.028375,0.711425,0.038266,98.367408,84.534218,99.169783
15412,-9.839293,0.833317,-0.100412,0.036759,-0.097763,0.061788,0.030225,-0.025717,0.012124,-0.098393,0.008327,-0.001016,1.000000,0.000151,-0.000129,0.000061,0.701253,0.028565,0.711313,0.038235,98.171379,84.524167,98.955791
15413,-9.790522,0.924489,-0.060915,0.070997,-0.003551,0.021318,0.036253,-0.035337,0.001873,-0.097905,0.009244,-0.000625,1.000000,0.000181,-0.000177,0.000009,0.701396,0.028741,0.711170,0.038144,97.933075,84.520757,98.695855
15414,-9.710671,1.053209,-0.093436,0.031780,0.131362,-0.045556,0.022697,-0.036963,-0.017135,-0.097106,0.010541,-0.000951,1.000000,0.000113,-0.000185,-0.000086,0.701550,0.028803,0.711021,0.038035,97.690942,84.528029,98.439879
15415,-9.638172,1.105916,-0.095194,0.024505,0.191893,-0.112737,-0.009630,-0.030028,-0.029723,-0.096380,0.011073,-0.000967,1.000000,-0.000048,-0.000150,-0.000149,0.701686,0.028704,0.710893,0.037998,97.482699,84.541958,98.236638
15416,-9.614585,1.134952,-0.106155,0.009555,0.224894,-0.133382,-0.044959,-0.017506,-0.034338,-0.096144,0.011366,-0.001073,1.000000,-0.000225,-0.000088,-0.000172,0.701784,0.028463,0.710802,0.038072,97.329258,84.557393,98.108709
15417,-9.566068,1.087313,-0.123998,-0.010656,0.183709,-0.185984,-0.066749,-0.004410,-0.028189,-0.095659,0.010886,-0.001246,1.000000,-0.000334,-0.000022,-0.000141,0.701836,0.028163,0.710753,0.038249,97.238829,84.568424,98.056946
15418,-9.573746,0.997710,-0.123703,-0.011146,0.094680,-0.186772,-0.081583,-0.009194,-0.013437,-0.095737,0.009983,-0.001246,1.000000,-0.000408,-0.000046,-0.000067,0.701905,0.027867,0.710681,0.038527,97.097245,84.571333,97.962009
15419,-9.621612,0.865129,-0.123399,-0.010471,-0.042064,-0.151569,-0.082283,-0.006633,-0.003805,-0.096216,0.008653,-0.001241,1.000000,-0.000411,-0.000033,-0.000019,0.701963,0.027603,0.710617,0.038841,96.964643,84.568650,97.876272
15420,-9.630789,0.792377,-0.222997,-0.110650,-0.117786,-0.148135,-0.065068,-0.004864,-0.003452,-0.096308,0.007925,-0.002235,1.000000,-0.000325,-0.000024,-0.000017,0.702013,0.027399,0.710562,0.039097,96.851093,84.565539,97.799990
15421,-9.677402,0.699305,-0.127753,-0.014781,-0.213731,-0.111576,-0.031423,-0.003940,-0.007618,-0.096774,0.006997,-0.001281,1.000000,-0.000157,-0.000020,-0.000038,0.702055,0.027298,0.710518,0.039217,96.767080,84.564875,97.733940
15422,-9.709857,0.687482,-0.122684,-0.009984,-0.228578,-0.080439,0.023130,0.000483,-0.011028,-0.097098,0.006880,-0.001226,1.000000,0.000116,0.000002,-0.000055,0.702075,0.027376,0.710499,0.039134,96.741517,84.565696,97.695281
15423,-9.691060,0.708917,0.053791,0.165665,-0.201972,-0.099096,0.080697,0.001402,-0.019307,-0.096910,0.007098,0.000541,1.000000,0.000403,0.000007,-0.000097,0.702085,0.027626,0.710498,0.038816,96.762130,84.571258,97.669868
15424,-9.666910,0.752020,0.071317,0.182459,-0.155358,-0.119270,0.116600,0.002937,-0.026466,-0.096668,0.007533,0.000719,1.000000,0.000583,0.000015,-0.000132,0.702086,0.027977,0.710508,0.038347,96.815772,84.580698,97.656974
15425,-9.626409,0.807126,0.101752,0.212423,-0.094999,-0.154768,0.136849,0.007428,-0.021683,-0.096263,0.008081,0.001027,1.000000,0.000684,0.000037,-0.000108,0.702067,0.028414,0.710538,0.037823,96.906582,84.587205,97.669850
15426,-9.593858,0.829036,0.126515,0.238038,-0.068566,-0.185431,0.138302,0.015772,-0.027467,-0.095937,0.008303,0.001278,1.000000,0.000692,0.000079,-0.000137,0.702019,0.028835,0.710597,0.037275,97.050786,84.596325,97.735435
15427,-9.586172,0.860295,0.128225,0.241730,-0.035640,-0.190237,0.144331,0.023816,-0.018132,-0.095861,0.008611,0.001300,1.000000,0.000722,0.000119,-0.000091,0.701939,0.029307,0.710685,0.036740,97.242208,84.599620,97.845177
15428,-9.621215,0.984540,0.053442,0.169572,0.084625,-0.142939,0.124789,0.035418,-0.018087,-0.096211,0.009854,0.000558,1.000000,0.000624,0.000177,-0.000090,0.701821,0.029710,0.710809,0.036276,97.490253,84.601924,98.022841
15429,-9.671357,1.068480,0.031813,0.152239,0.164269,-0.085013,0.092466,0.045946,-0.021933,-0.096712,0.010695,0.000345,1.000000,0.000462,0.000230,-0.000110,0.701670,0.029984,0.710964,0.035913,97.787658,84.605642,98.268613
15430,-9.738835,1.181002,-0.039482,0.085510,0.270658,-0.006533,0.034705,0.047085,-0.024188,-0.097387,0.011822,-0.000370,1.000000,0.000174,0.000235,-0.000121,0.701525,0.030047,0.711113,0.035749,98.059807,84.610324,98.522330
15431,-9.740995,1.260486,-0.115711,0.012406,0.350672,0.003935,-0.043305,0.043698,-0.031250,-0.097408,0.012620,-0.001139,1.000000,-0.000217,0.000218,-0.000156,0.701404,0.029810,0.711238,0.035838,98.275468,84.619303,98.764449
15432,-9.742251,1.217313,-0.214029,-0.083469,0.308853,0.002442,-0.117459,0.033715,-0.036731,-0.097421,0.012190,-0.002131,1.000000,-0.000587,0.000169,-0.000184,0.701331,0.029297,0.711315,0.036169,98.392125,84.632036,98.949548
15433,-9.694130,1.142728,-0.298373,-0.167113,0.240552,-0.051273,-0.176598,0.030587,-0.040310,-0.096939,0.011444,-0.002979,1.000000,-0.000883,0.000153,-0.000202,0.701277,0.028563,0.711370,0.036698,98.461814,84.647141,99.121733
15434,-9.604114,1.017195,-0.342426,-0.211163,0.125420,-0.151910,-0.206391,0.026135,-0.036637,-0.096040,0.010186,-0.003422,0.999999,-0.001032,0.000131,-0.000183,0.701243,0.027740,0.711403,0.037345,98.482832,84.660418,99.261943
15435,-9.569486,0.794602,-0.364762,-0.231000,-0.091701,-0.206557,-0.202528,0.029901,-0.032919,-0.095694,0.007958,-0.003641,0.999999,-0.001013,0.000150,-0.000165,0.701193,0.026944,0.711448,0.037990,98.526845,84.671373,99.422798
15436,-9.624896,0.614085,-0.404502,-0.266445,-0.276038,-0.167370,-0.169437,0.027711,-0.025701,-0.096249,0.006150,-0.004037,1.000000,-0.000847,0.000139,-0.000129,0.701145,0.026290,0.711491,0.038543,98.569366,84.678303,99.563335
15437,-9.606478,0.461246,-0.381763,-0.240434,-0.425594,-0.199989,-0.098236,0.022580,-0.016342,-0.096065,0.004618,-0.003809,1.000000,-0.000491,0.000113,-0.000082,0.701103,0.025917,0.711528,0.038876,98.615166,84.680436,99.666383
15438,-9.653961,0.408626,-0.324768,-0.180856,-0.481128,-0.158299,-0.000177,0.015573,-0.010360,-0.096540,0.004091,-0.003240,1.000000,-0.000001,0.000078,-0.000052,0.701072,0.025913,0.711558,0.038880,98.666905,84.679700,99.718779
15439,-9.726250,0.365250,-0.289728,-0.143245,-0.530205,-0.090772,0.103861,0.008324,-0.007449,-0.097262,0.003658,-0.002891,1.000000,0.000519,0.000042,-0.000037,0.701053,0.026285,0.711583,0.038521,98.732880,84.678087,99.725427
15440,-9.734867,0.479139,-0.207367,-0.062037,-0.416153,-0.072915,0.182509,0.005619,-0.005404,-0.097349,0.004796,-0.002067,1.000000,0.000913,0.000028,-0.000027,0.701033,0.026941,0.711612,0.037891,98.824098,84.675403,99.712348
15441,-9.719681,0.625057,-0.139160,0.004948,-0.268004,-0.075624,0.243254,0.007779,-0.014621,-0.097196,0.006259,-0.001380,0.999999,0.001216,0.000039,-0.000073,0.700996,0.027775,0.711662,0.037012,98.974002,84.677908,99.723279
15442,-9.688113,0.795864,-0.026542,0.116791,-0.092540,-0.093046,0.274946,0.006523,-0.021029,-0.096880,0.007969,-0.000251,0.999999,0.001375,0.000033,-0.000105,0.700961,0.028698,0.711712,0.035998,99.138662,84.683989,99.730768
15443,-9.689595,0.915969,-0.005706,0.138873,0.028271,-0.080925,0.263918,0.009074,-0.020616,-0.096895,0.009170,-0.000041,0.999999,0.001320,0.000045,-0.000103,0.700917,0.029585,0.711768,0.035022,99.313619,84.689786,99.754687
15444,-9.715739,1.058432,0.023990,0.170681,0.169068,-0.042389,0.221313,0.011787,-0.021904,-0.097156,0.010595,0.000257,0.999999,0.001107,0.000059,-0.000110,0.700869,0.030316,0.711825,0.034197,99.480870,84.695865,99.795639
15445,-9.645075,1.220631,0.007280,0.154541,0.338008,-0.097785,0.164411,0.007675,-0.020856,-0.096449,0.012216,0.000087,1.000000,0.000822,0.000038,-0.000104,0.700842,0.030851,0.711858,0.033577,99.591844,84.701880,99.812970
15446,-9.655463,1.348345,-0.012603,0.136039,0.465361,-0.075588,0.069010,0.009641,-0.024506,-0.096553,0.013495,-0.000117,1.000000,0.000345,0.000048,-0.000123,0.700824,0.031040,0.711881,0.033284,99.661798,84.709620,99.843845
15447,-9.649238,1.406519,-0.077246,0.071749,0.525199,-0.075589,-0.045263,0.013367,-0.028613,-0.096490,0.014079,-0.000769,1.000000,-0.000226,0.000067,-0.000143,0.700811,0.030813,0.711899,0.033383,99.694814,84.719441,99.903272
15448,-9.617605,1.387901,-0.146125,0.002201,0.510909,-0.107796,-0.132492,0.021927,-0.029144,-0.096174,0.013892,-0.001460,1.000000,-0.000662,0.000110,-0.000146,0.700782,0.030277,0.711932,0.033793,99.729541,84.728608,100.014713
15449,-9.674699,1.288630,-0.254458,-0.105734,0.407554,-0.058312,-0.220245,0.020583,-0.025006,-0.096746,0.012896,-0.002549,0.999999,-0.001101,0.000103,-0.000125,0.700768,0.029446,0.711945,0.034530,99.703935,84.735797,100.116318
15450,-9.721283,1.073567,-0.313654,-0.164138,0.189387,-0.030486,-0.284639,0.026436,-0.024872,-0.097212,0.010743,-0.003139,0.999999,-0.001423,0.000132,-0.000124,0.700742,0.028391,0.711965,0.035497,99.674949,84.742120,100.251315
15451,-9.718551,0.801480,-0.424325,-0.273719,-0.082363,-0.056102,-0.296213,0.013901,-0.020910,-0.097185,0.008019,-0.004248,0.999999,-0.001481,0.000070,-0.000105,0.700760,0.027312,0.711938,0.036517,99.559973,84.747546,100.306632
15452,-9.675428,0.600875,-0.471625,-0.320918,-0.279087,-0.116476,-0.257663,0.006251,-0.021837,-0.096754,0.006013,-0.004721,0.999999,-0.001288,0.000031,-0.000109,0.700800,0.026366,0.711889,0.037396,99.419229,84.754104,100.313878
15453,-9.681725,0.431127,-0.531860,-0.380365,-0.449387,-0.124658,-0.184000,-0.006483,-0.027585,-0.096816,0.004320,-0.005326,1.000000,-0.000920,-0.000032,-0.000138,0.700874,0.025661,0.711810,0.037988,99.249057,84.765169,100.248969
15454,-9.673337,0.408018,-0.521632,-0.372194,-0.470564,-0.135288,-0.085840,-0.014904,-0.027076,-0.096732,0.004091,-0.005225,1.000000,-0.000429,-0.000075,-0.000135,0.700966,0.025303,0.711719,0.038235,99.080857,84.776625,100.129785
15455,-9.706542,0.475158,-0.454373,-0.308461,-0.404204,-0.097201,0.018270,-0.027681,-0.022532,-0.097064,0.004763,-0.004557,1.000000,0.000091,-0.000138,-0.000113,0.701088,0.025326,0.711604,0.038125,98.890870,84.786751,99.929056
15456,-9.667198,0.624210,-0.326904,-0.187755,-0.248880,-0.124858,0.096183,-0.037528,-0.015561,-0.096671,0.006251,-0.003284,1.000000,0.000481,-0.000188,-0.000078,0.701236,0.025651,0.711467,0.037761,98.674137,84.793593,99.656417
15457,-9.693699,0.779477,-0.257010,-0.124209,-0.094511,-0.085556,0.137558,-0.052213,-0.017056,-0.096936,0.007805,-0.002590,1.000000,0.000688,-0.000261,-0.000085,0.701429,0.026118,0.711287,0.037241,98.392355,84.802560,99.294516
15458,-9.719396,0.867447,-0.215389,-0.087925,-0.007862,-0.052681,0.157059,-0.048723,-0.011370,-0.097193,0.008682,-0.002171,1.000000,0.000785,-0.000244,-0.000057,0.701607,0.026674,0.711120,0.036673,98.135427,84.807724,98.946500
15459,-9.712570,0.980054,-0.147163,-0.025256,0.106355,-0.050299,0.154896,-0.048335,-0.013394,-0.097125,0.009808,-0.001488,1.000000,0.000774,-0.000242,-0.000067,0.701781,0.027212,0.710956,0.036107,97.883811,84.813996,98.605262
15460,-9.730599,1.101457,-0.101421,0.015355,0.226926,-0.022064,0.131745,-0.048413,-0.018351,-0.097305,0.011024,-0.001031,1.000000,0.000659,-0.000242,-0.000092,0.701962,0.027654,0.710786,0.035605,97.618884,84.822816,98.263784
15461,-9.746542,1.126832,-0.015869,0.096736,0.252939,-0.004948,0.083043,-0.046566,-0.024891,-0.097464,0.011281,-0.000177,1.000000,0.000415,-0.000233,-0.000124,0.702142,0.027900,0.710616,0.035253,97.344547,84.835185,97.940982
15462,-9.706928,1.168656,-0.011880,0.095020,0.299807,-0.040715,0.019368,-0.049565,-0.030216,-0.097067,0.011701,-0.000142,1.000000,0.000097,-0.000248,-0.000151,0.702344,0.027905,0.710424,0.035109,97.014811,84.850525,97.599094
15463,-9.691252,1.164657,-0.025185,0.075820,0.298994,-0.056547,-0.053332,-0.050900,-0.030700,-0.096911,0.011661,-0.000280,1.000000,-0.000267,-0.000254,-0.000153,0.702559,0.027654,0.710215,0.035219,96.635247,84.866151,97.248901
15464,-9.648860,1.029647,-0.039457,0.055893,0.170025,-0.110616,-0.116263,-0.051277,-0.031155,-0.096487,0.010311,-0.000425,1.000000,-0.000581,-0.000256,-0.000156,0.702786,0.027180,0.709992,0.035553,96.213306,84.881729,96.892478
15465,-9.639957,0.924977,-0.084465,0.005143,0.067605,-0.128324,-0.176925,-0.047407,-0.025809,-0.096398,0.009261,-0.000876,1.000000,-0.000885,-0.000237,-0.000129,0.703004,0.026509,0.709773,0.036122,95.777880,84.893869,96.557519
15466,-9.630745,0.834077,-0.097887,-0.013907,-0.021235,-0.145430,-0.197817,-0.043760,-0.022383,-0.096306,0.008351,-0.001008,0.999999,-0.000989,-0.000219,-0.000112,0.703213,0.025779,0.709560,0.036777,95.347458,84.903546,96.239508
15467,-9.637212,0.757551,-0.061610,0.017362,-0.096638,-0.146050,-0.189505,-0.039763,-0.019599,-0.096371,0.007584,-0.000642,1.000000,-0.000948,-0.000199,-0.000098,0.703403,0.025084,0.709362,0.037412,94.947007,84.911381,95.946954
15468,-9.627612,0.680163,-0.044383,0.030051,-0.171881,-0.162555,-0.168461,-0.038782,-0.019203,-0.096275,0.006810,-0.000468,1.000000,-0.000842,-0.000194,-0.000096,0.703588,0.024467,0.709171,0.037975,94.561124,84.918607,95.656779
15469,-9.725404,0.605806,-0.120945,-0.049673,-0.255605,-0.071163,-0.139201,-0.039470,-0.014678,-0.097253,0.006064,-0.001233,1.000000,-0.000696,-0.000197,-0.000073,0.703769,0.023966,0.708983,0.038451,94.187383,84.923188,95.362230
15470,-9.717946,0.638003,-0.110905,-0.045997,-0.222692,-0.075845,-0.104645,-0.047159,-0.010896,-0.097179,0.006385,-0.001135,1.000000,-0.000523,-0.000236,-0.000054,0.703974,0.023604,0.708772,0.038815,93.778826,84.925652,95.012589
15471,-9.677132,0.626830,-0.101874,-0.043126,-0.229836,-0.117561,-0.081380,-0.052772,-0.017754,-0.096770,0.006276,-0.001047,1.000000,-0.000407,-0.000264,-0.000089,0.704195,0.023298,0.708548,0.039074,93.352736,84.932193,94.632292
15472,-9.590706,0.721833,-0.154897,-0.104938,-0.128251,-0.195036,-0.059003,-0.049602,-0.019205,-0.095906,0.007227,-0.001575,1.000000,-0.000295,-0.000248,-0.000096,0.704404,0.023068,0.708338,0.039247,92.956379,84.939039,94.268651
15473,-9.585162,0.782043,-0.212406,-0.169181,-0.068406,-0.195061,-0.034486,-0.041125,-0.020125,-0.095850,0.007830,-0.002145,1.000000,-0.000172,-0.000206,-0.000101,0.704579,0.022917,0.708164,0.039331,92.630932,84.946135,93.962291
15474,-9.701088,0.830152,-0.246016,-0.207714,-0.030646,-0.075300,-0.003215,-0.035428,-0.020369,-0.097010,0.008311,-0.002477,1.000000,-0.000016,-0.000177,-0.000102,0.704731,0.022876,0.708015,0.039305,92.356802,84.952924,93.689273
15475,-9.724916,0.889091,-0.135826,-0.103460,0.029072,-0.046860,0.016440,-0.048507,-0.012805,-0.097248,0.008897,-0.001381,1.000000,0.000082,-0.000243,-0.000064,0.704925,0.022934,0.707824,0.039232,92.008683,84.955649,93.330588
15476,-9.741407,0.875747,-0.144249,-0.117314,0.014245,-0.031646,0.001687,-0.058594,-0.012442,-0.097413,0.008764,-0.001471,1.000000,0.000008,-0.000293,-0.000062,0.705158,0.022944,0.707593,0.039213,91.584101,84.958021,92.903717
15477,-9.735626,0.949353,-0.168097,-0.149849,0.087656,-0.030980,-0.022765,-0.069157,-0.014530,-0.097355,0.009500,-0.001716,1.000000,-0.000114,-0.000346,-0.000073,0.705430,0.022862,0.707322,0.039270,91.078517,84.961519,92.409355
15478,-9.687351,0.971293,-0.152163,-0.142662,0.114441,-0.077295,-0.060741,-0.074158,-0.017970,-0.096872,0.009721,-0.001561,1.000000,-0.000304,-0.000371,-0.000090,0.705725,0.022635,0.707024,0.039451,90.516462,84.966528,91.880390
15479,-9.680512,0.990065,-0.171406,-0.170669,0.133777,-0.082585,-0.087673,-0.068752,-0.019093,-0.096804,0.009909,-0.001752,1.000000,-0.000438,-0.000344,-0.000095,0.706003,0.022307,0.706742,0.039724,89.975926,84.971801,91.388627
15480,-9.673708,1.008931,-0.190584,-0.198715,0.153100,-0.087876,-0.100267,-0.070960,-0.017605,-0.096736,0.010097,-0.001945,1.000000,-0.000501,-0.000355,-0.000088,0.706291,0.021940,0.706447,0.040046,89.410045,84.975715,90.878562
15481,-9.637931,0.947948,-0.085712,-0.100457,0.098740,-0.128896,-0.096650,-0.062982,-0.021260,-0.096378,0.009489,-0.000892,1.000000,-0.000483,-0.000315,-0.000106,0.706550,0.021572,0.706183,0.040343,88.899687,84.981425,90.422166
15482,-9.683243,0.839230,-0.016760,-0.036490,-0.011073,-0.093205,-0.089029,-0.068350,-0.016748,-0.096832,0.008400,-0.000204,1.000000,-0.000445,-0.000342,-0.000084,0.706826,0.021248,0.705900,0.040629,88.355753,84.984052,89.927676
15483,-9.630004,0.723562,0.072475,0.047763,-0.119269,-0.156121,-0.067208,-0.074073,-0.005618,-0.096300,0.007239,0.000687,1.000000,-0.000336,-0.000370,-0.000028,0.707117,0.021040,0.705600,0.040877,87.792375,84.979908,89.401332
15484,-9.610385,0.558995,0.070086,0.042118,-0.282287,-0.190036,-0.040427,-0.069102,-0.002493,-0.096104,0.005591,0.000667,1.000000,-0.000202,-0.000346,-0.000012,0.707388,0.020938,0.705322,0.041041,87.275505,84.973531,88.906053
15485,-9.639591,0.531155,0.180917,0.146543,-0.310622,-0.162889,-0.001736,-0.063533,0.002550,-0.096397,0.005310,0.001779,1.000000,-0.000009,-0.000318,0.000013,0.707633,0.020990,0.705072,0.041087,86.822760,84.964096,88.452875
15486,-9.657113,0.573835,0.170074,0.128180,-0.271384,-0.141702,0.033877,-0.054967,0.001684,-0.096572,0.005737,0.001675,1.000000,0.000169,-0.000275,0.000008,0.707845,0.021163,0.704859,0.041006,86.444600,84.955124,88.054094
15487,-9.713302,0.677026,0.283584,0.233250,-0.171674,-0.075997,0.071030,-0.049431,-0.001883,-0.097134,0.006770,0.002814,1.000000,0.000355,-0.000247,-0.000009,0.708033,0.021451,0.704674,0.040783,86.126391,84.948283,87.694351
15488,-9.715741,0.785679,0.281313,0.223566,-0.064561,-0.063949,0.094685,-0.040402,-0.009821,-0.097158,0.007860,0.002797,1.000000,0.000473,-0.000202,-0.000049,0.708190,0.021796,0.704525,0.040448,85.874155,84.946083,87.387000
15489,-9.674114,0.867866,0.380518,0.317170,0.023209,-0.097476,0.089383,-0.035469,-0.012133,-0.096741,0.008683,0.003792,1.000000,0.000447,-0.000177,-0.000061,0.708328,0.022110,0.704395,0.040126,85.652891,84.945450,87.114119
15490,-9.667200,0.887264,0.355630,0.289129,0.042537,-0.102741,0.075658,-0.021069,-0.017066,-0.096672,0.008880,0.003549,1.000000,0.000378,-0.000105,-0.000085,0.708420,0.022358,0.704311,0.039834,85.511251,84.948044,86.928739
15491,-9.609200,0.901274,0.405506,0.336983,0.062895,-0.158883,0.051014,-0.017143,-0.010878,-0.096092,0.009017,0.004049,1.000000,0.000255,-0.000086,-0.000054,0.708499,0.022538,0.704237,0.039651,85.385858,84.947437,86.773894
15492,-9.563259,0.952521,0.347177,0.276246,0.116641,-0.200516,0.005936,-0.003289,-0.014414,-0.095632,0.009532,0.003470,1.000000,0.000030,-0.000016,-0.000072,0.708535,0.022545,0.704202,0.039617,85.320356,84.949276,86.705053
15493,-9.547606,0.950709,0.328370,0.257102,0.115885,-0.216390,-0.029352,0.009463,-0.007826,-0.095476,0.009511,0.003287,1.000000,-0.000147,0.000047,-0.000039,0.708528,0.022446,0.704206,0.039731,85.322390,84.948086,86.724400
15494,-9.573589,0.946247,0.273572,0.202651,0.107572,-0.191295,-0.072103,0.021841,-0.004106,-0.095735,0.009465,0.002743,1.000000,-0.000361,0.000109,-0.000021,0.708483,0.022207,0.704243,0.040011,85.379899,84.945206,86.823937
15495,-9.632320,0.917983,0.191512,0.121810,0.071621,-0.135860,-0.113131,0.024927,0.001104,-0.096323,0.009180,0.001922,1.000000,-0.000566,0.000125,0.000006,0.708428,0.021839,0.704284,0.040455,85.438594,84.939651,86.948561
15496,-9.714321,0.857472,0.122473,0.055100,0.001444,-0.059983,-0.134880,0.033683,0.001394,-0.097143,0.008575,0.001235,1.000000,-0.000674,0.000168,0.000007,0.708347,0.021395,0.704350,0.040976,85.539006,84.934141,87.127280
15497,-9.697873,0.789427,0.072584,0.008744,-0.066973,-0.082700,-0.120669,0.032851,-0.002716,-0.096979,0.007896,0.000737,1.000000,-0.000603,0.000164,-0.000014,0.708266,0.020985,0.704416,0.041433,85.641726,84.931094,87.300339
15498,-9.747677,0.739943,-0.002410,-0.063279,-0.123097,-0.037946,-0.111754,0.034373,-0.009687,-0.097476,0.007404,-0.000011,1.000000,-0.000559,0.000172,-0.000048,0.708181,0.020584,0.704490,0.041834,85.754046,84.931888,87.477713
15499,-9.750782,0.755646,-0.103693,-0.163622,-0.110819,-0.034117,-0.098090,0.023620,-0.009363,-0.097508,0.007561,-0.001029,1.000000,-0.000490,0.000118,-0.000047,0.708131,0.020233,0.704529,0.042186,85.806391,84.932195,87.587001
15500,-9.754049,0.850961,-0.142798,-0.205047,-0.017321,-0.022710,-0.101748,0.020342,-0.015372,-0.097540,0.008516,-0.001422,1.000000,-0.000509,0.000102,-0.000077,0.708096,0.019850,0.704555,0.042530,85.831428,84.935618,87.670993
15501,-9.709933,0.944437,-0.237000,-0.301987,0.076947,-0.059031,-0.104558,0.013943,-0.015026,-0.097099,0.009450,-0.002368,1.000000,-0.000523,0.000070,-0.000075,0.708082,0.019459,0.704558,0.042884,85.815301,84.938786,87.715320
15502,-9.622383,0.998784,-0.260294,-0.327393,0.138291,-0.141634,-0.092498,0.007295,-0.017168,-0.096223,0.009995,-0.002604,1.000000,-0.000462,0.000036,-0.000086,0.708091,0.019105,0.704540,0.043187,85.760668,84.942691,87.714008
15503,-9.663576,1.007012,-0.263088,-0.331579,0.143306,-0.099937,-0.063381,0.002580,-0.019212,-0.096635,0.010079,-0.002633,1.000000,-0.000317,0.000013,-0.000096,0.708113,0.018846,0.704513,0.043382,85.693622,84.947710,87.683724
15504,-9.685725,0.918099,-0.246926,-0.313542,0.054015,-0.085616,-0.031289,-0.002003,-0.017464,-0.096856,0.009189,-0.002472,1.000000,-0.000156,-0.000010,-0.000087,0.708150,0.018710,0.704475,0.043468,85.613699,84.951380,87.621818
15505,-9.723091,0.842341,-0.179901,-0.245242,-0.021928,-0.054625,-0.000691,-0.006158,-0.013530,-0.097230,0.008430,-0.001802,1.000000,-0.000003,-0.000031,-0.000068,0.708196,0.018698,0.704429,0.043459,85.528104,84.952678,87.536489
15506,-9.685316,0.726347,-0.079548,-0.142425,-0.130256,-0.101766,0.036712,-0.017186,-0.015131,-0.096853,0.007271,-0.000802,1.000000,0.000184,-0.000086,-0.000076,0.708279,0.018814,0.704352,0.043312,85.389953,84.954308,87.377014
15507,-9.696025,0.586572,0.012555,-0.047505,-0.266503,-0.102700,0.076105,-0.016642,-0.020274,-0.096960,0.005876,0.000120,1.000000,0.000381,-0.000083,-0.000101,0.708356,0.019051,0.704287,0.043008,85.277132,84.959020,87.220323
15508,-9.637363,0.532344,0.033013,-0.026816,-0.313732,-0.165713,0.127510,-0.018630,-0.021411,-0.096373,0.005334,0.000325,1.000000,0.000638,-0.000093,-0.000107,0.708436,0.019467,0.704224,0.042520,85.177928,84.964110,87.047723
15509,-9.611115,0.546416,0.119636,0.058123,-0.293799,-0.189968,0.178057,-0.011340,-0.019592,-0.096111,0.005473,0.001196,1.000000,0.000890,-0.000057,-0.000098,0.708484,0.020067,0.704199,0.041859,85.157525,84.968615,86.925012
15510,-9.593174,0.594990,0.229101,0.165890,-0.240184,-0.202783,0.208539,-0.002011,-0.015494,-0.095931,0.005955,0.002296,0.999999,0.001043,-0.000010,-0.000077,0.708496,0.020788,0.704210,0.041107,85.215452,84.971114,86.863547
15511,-9.634577,0.684092,0.286010,0.220614,-0.153954,-0.153367,0.205706,0.000341,-0.005294,-0.096346,0.006841,0.002867,0.999999,0.001029,0.000002,-0.000026,0.708495,0.021533,0.704229,0.040402,85.294738,84.968053,86.825201
15512,-9.604180,0.830214,0.337513,0.269096,-0.005556,-0.170540,0.174528,-0.000285,-0.003706,-0.096042,0.008301,0.003382,1.000000,0.000873,-0.000001,-0.000019,0.708500,0.022174,0.704238,0.039812,85.350735,84.963914,86.781361
15513,-9.598182,0.918156,0.337765,0.268303,0.081468,-0.168852,0.122903,0.010016,-0.003688,-0.095981,0.009181,0.003388,1.000000,0.000615,0.000050,-0.000018,0.708473,0.022628,0.704273,0.039405,85.445966,84.960430,86.806715
15514,-9.635233,1.057312,0.298638,0.227615,0.214893,-0.120071,0.070392,0.024444,-0.001913,-0.096352,0.010573,0.003002,1.000000,0.000352,0.000122,-0.000010,0.708402,0.022902,0.704348,0.039191,85.603223,84.956387,86.924426
15515,-9.652566,1.112428,0.310830,0.240965,0.267679,-0.097934,0.023988,0.030364,-0.002233,-0.096525,0.011125,0.003124,1.000000,0.000120,0.000152,-0.000011,0.708314,0.023006,0.704435,0.039141,85.774164,84.952889,87.082795
15516,-9.620548,1.123669,0.302223,0.235039,0.280792,-0.128947,-0.038993,0.043228,-0.002111,-0.096205,0.011238,0.003041,1.000000,-0.000195,0.000216,-0.000011,0.708190,0.022888,0.704555,0.039313,85.989709,84.949667,87.321938
15517,-9.676153,1.079147,0.316993,0.253812,0.231428,-0.077442,-0.096630,0.051680,-0.002169,-0.096761,0.010794,0.003190,1.000000,-0.000483,0.000258,-0.000011,0.708041,0.022564,0.704694,0.039689,86.227860,84.946859,87.616860
15518,-9.700183,0.940257,0.201296,0.144911,0.087751,-0.066434,-0.142223,0.058134,-0.000711,-0.097001,0.009404,0.002034,1.000000,-0.000711,0.000291,-0.000004,0.707875,0.022082,0.704845,0.040232,86.480586,84.943206,87.952710
15519,-9.689983,0.771903,0.115539,0.067021,-0.082225,-0.091900,-0.164374,0.053280,0.008694,-0.096900,0.007716,0.001175,1.000000,-0.000822,0.000266,0.000043,0.707725,0.021556,0.704974,0.040884,86.693358,84.934000,88.261079
15520,-9.721625,0.588552,-0.037906,-0.077959,-0.273457,-0.077342,-0.153097,0.053317,0.009039,-0.097217,0.005881,-0.000358,1.000000,-0.000765,0.000267,0.000045,0.707574,0.021071,0.705104,0.041500,86.910930,84.924384,88.567900
15521,-9.721036,0.509693,-0.103338,-0.137518,-0.355694,-0.085223,-0.123854,0.048059,0.009732,-0.097211,0.005092,-0.001013,1.000000,-0.000619,0.000240,0.000049,0.707438,0.020692,0.705223,0.042013,87.112161,84.914257,88.841566
15522,-9.714779,0.506102,-0.198425,-0.229001,-0.363537,-0.092202,-0.074610,0.045944,0.009237,-0.097148,0.005056,-0.001964,1.000000,-0.000373,0.000230,0.000046,0.707304,0.020487,0.705342,0.042352,87.325401,84.904126,89.098898
15523,-9.734573,0.578799,-0.285613,-0.315382,-0.297502,-0.066380,-0.030437,0.034736,0.008953,-0.097346,0.005783,-0.002840,1.000000,-0.000152,0.000174,0.000045,0.707204,0.020438,0.705433,0.042532,87.492650,84.893946,89.284681
15524,-9.779614,0.752978,-0.300058,-0.333259,-0.130466,-0.006068,-0.000401,0.022265,0.009738,-0.097797,0.007525,-0.002990,1.000000,-0.000002,0.000111,0.000049,0.707146,0.020502,0.705485,0.042608,87.595322,84.882818,89.388325
15525,-9.727311,0.986676,-0.263752,-0.303410,0.106263,-0.037192,0.020769,0.005202,0.006237,-0.097273,0.009864,-0.002634,1.000000,0.000104,0.000026,0.000031,0.707146,0.020632,0.705482,0.042594,87.601472,84.873468,89.382867
15526,-9.700615,1.216426,-0.280113,-0.327435,0.335578,-0.043334,0.014285,-0.007051,-0.000049,-0.097006,0.012164,-0.002804,1.000000,0.000071,-0.000035,-0.000000,0.707192,0.020720,0.705434,0.042580,87.522555,84.867225,89.295745
15527,-9.694231,1.316235,-0.244475,-0.296509,0.436174,-0.040677,-0.006474,-0.013775,-0.011930,-0.096941,0.013168,-0.002452,1.000000,-0.000032,-0.000069,-0.000060,0.707265,0.020692,0.705360,0.042596,87.387550,84.867774,89.164256
15528,-9.701448,1.294569,-0.216071,-0.269791,0.414770,-0.035373,-0.023544,-0.016242,-0.009536,-0.097014,0.012950,-0.002170,1.000000,-0.000118,-0.000081,-0.000048,0.707350,0.020615,0.705273,0.042682,87.225914,84.866679,89.015844
15529,-9.655579,1.145530,-0.138289,-0.189716,0.272911,-0.094092,-0.046733,-0.011195,-0.013247,-0.096555,0.011461,-0.001391,1.000000,-0.000234,-0.000056,-0.000066,0.707418,0.020440,0.705200,0.042836,87.083964,84.867965,88.900516
15530,-9.640434,0.930381,-0.053094,-0.099891,0.062816,-0.128037,-0.055691,-0.009085,-0.010849,-0.096404,0.009309,-0.000538,1.000000,-0.000278,-0.000045,-0.000054,0.707481,0.020243,0.705131,0.043031,86.949117,84.867766,88.797495
15531,-9.641771,0.598664,-0.107600,-0.145652,-0.269546,-0.156609,-0.022101,-0.012558,-0.005565,-0.096417,0.005989,-0.001083,1.000000,-0.000111,-0.000063,-0.000028,0.707550,0.020183,0.705058,0.043125,86.815360,84.864542,88.676233
15532,-9.668352,0.368472,-0.090614,-0.122929,-0.500919,-0.150649,0.055249,-0.009517,-0.007815,-0.096683,0.003689,-0.000910,1.000000,0.000276,-0.000048,-0.000039,0.707602,0.020389,0.705011,0.042939,86.742513,84.862556,88.571640
15533,-9.689431,0.305741,-0.009704,-0.041435,-0.563038,-0.134882,0.151382,-0.011772,-0.005363,-0.096894,0.003060,-0.000100,1.000000,0.000757,-0.000059,-0.000027,0.707650,0.020944,0.704977,0.042422,86.713254,84.859247,88.455399
15534,-9.696579,0.377191,0.111373,0.075935,-0.489622,-0.120793,0.215680,-0.017804,-0.003582,-0.096966,0.003772,0.001109,0.999999,0.001078,-0.000089,-0.000018,0.707713,0.021734,0.704934,0.041685,86.681380,84.854553,88.299653
15535,-9.657164,0.607576,0.299002,0.255746,-0.252817,-0.138493,0.239023,-0.020299,0.000880,-0.096572,0.006072,0.002987,0.999999,0.001195,-0.000101,0.000004,0.707779,0.022621,0.704887,0.040881,86.651254,84.847466,88.132371
15536,-9.678173,0.839968,0.337495,0.287156,-0.024394,-0.096545,0.215346,-0.020560,0.005360,-0.096782,0.008393,0.003374,0.999999,0.001077,-0.000103,0.000027,0.707849,0.023442,0.704831,0.040176,86.605556,84.837547,87.962932
15537,-9.610046,1.073997,0.354805,0.298556,0.212690,-0.143253,0.154898,-0.014385,0.011808,-0.096101,0.010732,0.003549,1.000000,0.000774,-0.000072,0.000059,0.707900,0.024070,0.704784,0.039707,86.568802,84.824325,87.837131
15538,-9.637891,1.193333,0.325786,0.266681,0.325921,-0.104867,0.085997,-0.002870,0.009366,-0.096380,0.011927,0.003262,1.000000,0.000430,-0.000014,0.000047,0.707921,0.024444,0.704764,0.039474,86.562988,84.812706,87.782148
15539,-9.641550,1.277191,0.253875,0.193524,0.405822,-0.093993,0.012420,0.014668,0.003627,-0.096416,0.012770,0.002547,1.000000,0.000062,0.000073,0.000018,0.707889,0.024532,0.704793,0.039483,86.625215,84.805141,87.837887
15540,-9.666718,1.286428,0.230460,0.170713,0.410967,-0.068180,-0.062466,0.023816,0.003706,-0.096667,0.012863,0.002312,1.000000,-0.000312,0.000119,0.000019,0.707834,0.024355,0.704838,0.039757,86.699998,84.797659,87.949247
15541,-9.657800,1.172280,0.144656,0.088327,0.295090,-0.087802,-0.135789,0.031990,0.004220,-0.096578,0.011722,0.001454,1.000000,-0.000679,0.000160,0.000021,0.707759,0.023919,0.704899,0.040291,86.785442,84.790253,88.113421
15542,-9.705754,1.068549,0.074165,0.020708,0.184729,-0.049778,-0.198412,0.031859,0.001872,-0.097058,0.010685,0.000747,0.999999,-0.000992,0.000159,0.000009,0.707692,0.023253,0.704945,0.041038,86.831609,84.784050,88.274265
15543,-9.696766,0.954710,-0.011248,-0.061667,0.068859,-0.069468,-0.236226,0.028286,0.004309,-0.096968,0.009545,-0.000110,0.999999,-0.001181,0.000141,0.000022,0.707640,0.022460,0.704970,0.041927,86.836228,84.776493,88.415306
15544,-9.679286,0.807622,-0.120512,-0.166895,-0.080689,-0.100788,-0.241943,0.025838,0.007156,-0.096793,0.008071,-0.001202,0.999999,-0.001210,0.000129,0.000036,0.707597,0.021660,0.704984,0.042846,86.821146,84.767071,88.539694
15545,-9.703768,0.737964,-0.204009,-0.248595,-0.156746,-0.083198,-0.215532,0.017291,0.006210,-0.097038,0.007374,-0.002040,0.999999,-0.001078,0.000086,0.000031,0.707579,0.020950,0.704973,0.043667,86.768984,84.758093,88.611691
15546,-9.719004,0.659949,-0.246967,-0.289694,-0.239307,-0.075420,-0.172087,0.010157,0.007911,-0.097190,0.006594,-0.002470,1.000000,-0.000860,0.000051,0.000040,0.707582,0.020403,0.704944,0.044340,86.696247,84.747746,88.637993
15547,-9.726807,0.615164,-0.284269,-0.326404,-0.287877,-0.072020,-0.110849,0.001415,0.005235,-0.097268,0.006148,-0.002845,1.000000,-0.000554,0.000007,0.000026,0.707608,0.020064,0.704899,0.044787,86.605083,84.738777,88.610523
15548,-9.726368,0.628515,-0.251384,-0.295327,-0.275319,-0.071155,-0.034802,-0.006576,0.008228,-0.097264,0.006281,-0.002518,1.000000,-0.000174,-0.000033,0.000041,0.707655,0.020008,0.704841,0.044976,86.507552,84.727681,88.532934
15549,-9.648742,0.572385,-0.118173,-0.161449,-0.321597,-0.152960,0.053084,-0.011905,0.016206,-0.096488,0.005716,-0.001186,1.000000,0.000265,-0.000060,0.000081,0.707709,0.020290,0.704785,0.044882,86.432983,84.712016,88.427935
15550,-9.628386,0.514684,-0.002207,-0.044566,-0.375994,-0.177991,0.149049,-0.009538,0.022183,-0.096284,0.005136,-0.000023,1.000000,0.000745,-0.000048,0.000111,0.707745,0.020933,0.704756,0.044473,86.428607,84.692818,88.338106
15551,-9.544051,0.468135,0.071201,0.030232,-0.415442,-0.265980,0.230228,-0.005890,0.025628,-0.095441,0.004668,0.000715,0.999999,0.001151,-0.000029,0.000128,0.707757,0.021874,0.704758,0.043788,86.496560,84.672016,88.274202
15552,-9.583167,0.439144,0.101807,0.062152,-0.451087,-0.229736,0.295103,0.003573,0.034924,-0.095832,0.004373,0.001026,0.999999,0.001476,0.000018,0.000175,0.707726,0.023077,0.704805,0.042910,86.660938,84.646001,88.269808
15553,-9.616550,0.578747,0.194768,0.152826,-0.317495,-0.183214,0.340797,0.009963,0.036473,-0.096166,0.005767,0.001962,0.999999,0.001704,0.000050,0.000182,0.707664,0.024444,0.704883,0.041876,86.892027,84.619513,88.306159
15554,-9.609265,0.696929,0.256894,0.215448,-0.203329,-0.179313,0.355863,0.026162,0.045807,-0.096094,0.006943,0.002594,0.999998,0.001779,0.000131,0.000229,0.707540,0.025895,0.705018,0.040825,87.229164,84.587939,88.440326
15555,-9.659998,0.881802,0.328402,0.288297,-0.029645,-0.111297,0.353138,0.038342,0.060913,-0.096602,0.008783,0.003318,0.999998,0.001766,0.000192,0.000305,0.707367,0.027384,0.705191,0.039838,87.641310,84.548154,88.651559
15556,-9.710538,1.068127,0.397362,0.361097,0.143992,-0.043235,0.306836,0.056719,0.065861,-0.097108,0.010643,0.004018,0.999999,0.001534,0.000284,0.000329,0.707134,0.028726,0.705417,0.039035,88.130734,84.505565,88.966946
15557,-9.796374,1.484699,0.164872,0.130663,0.539212,0.081382,0.181902,0.063006,0.060764,-0.097968,0.014816,0.001693,0.999999,0.000910,0.000315,0.000304,0.706895,0.029605,0.705641,0.038654,88.580970,84.465965,89.315026
15558,-9.814755,1.667263,0.194409,0.166528,0.713500,0.117577,0.021773,0.095711,0.039037,-0.098150,0.016653,0.001993,1.000000,0.000109,0.000479,0.000195,0.706569,0.029837,0.705951,0.038767,89.122179,84.438688,89.846579
15559,-9.822151,1.598145,0.567017,0.551494,0.645538,0.118544,-0.048173,0.155637,0.010511,-0.098218,0.015978,0.005743,1.000000,-0.000241,0.000778,0.000053,0.706046,0.029707,0.706465,0.039035,89.971142,84.427589,90.727864
15560,-9.669241,1.609855,0.975257,0.973993,0.676101,-0.033568,-0.085161,0.180841,0.013290,-0.096685,0.016096,0.009833,0.999999,-0.000426,0.000904,0.000066,0.705440,0.029454,0.707058,0.039447,90.940504,84.413248,91.751198
15561,-9.587191,1.455864,0.909096,0.926443,0.528349,-0.131636,-0.225642,0.228065,0.036601,-0.095864,0.014551,0.009184,0.999999,-0.001128,0.001140,0.000183,0.704681,0.028779,0.707786,0.040443,92.095091,84.383149,93.041397
15562,-9.730390,1.266816,0.351373,0.393679,0.313264,-0.006791,-0.417719,0.308995,0.064367,-0.097302,0.012644,0.003638,0.999997,-0.002089,0.001545,0.000322,0.703655,0.027508,0.708752,0.042230,93.583224,84.331811,94.777606
15563,-9.984113,1.171031,-0.023553,0.048954,0.176936,0.238214,-0.484356,0.340712,0.104711,-0.099847,0.011658,-0.000094,0.999995,-0.002422,0.001704,0.000524,0.702511,0.026138,0.709805,0.044399,95.163338,84.251632,96.644929
15564,-10.133908,1.022668,0.049116,0.155574,0.003529,0.371617,-0.404900,0.330582,0.143903,-0.101345,0.010155,0.000638,0.999996,-0.002024,0.001653,0.000720,0.701379,0.025189,0.710829,0.046422,96.656475,84.144615,98.379269
15565,-9.855530,1.017928,-0.026166,0.104203,0.009130,0.094750,-0.290623,0.302508,0.161925,-0.098564,0.010099,-0.000127,0.999997,-0.001453,0.001513,0.000810,0.700324,0.024712,0.711774,0.048096,97.989100,84.025269,99.886582
15566,-9.460203,1.458694,-0.439377,-0.303150,0.455864,-0.246263,-0.258231,0.324365,0.191924,-0.094623,0.014491,-0.004259,0.999997,-0.001291,0.001622,0.000960,0.699176,0.024449,0.712797,0.049765,99.372928,83.883240,101.427261
15567,-9.246905,1.837628,-0.622319,-0.475660,0.824361,-0.412503,-0.165111,0.340151,0.282356,-0.092505,0.018241,-0.006081,0.999997,-0.000826,0.001701,0.001412,0.697934,0.024830,0.713882,0.051418,100.735173,83.684833,102.892957
15568,-9.170636,2.082974,-0.102843,0.061648,1.062918,-0.468378,0.078825,0.291057,0.422976,-0.091751,0.020636,-0.000887,0.999997,0.000394,0.001455,0.002115,0.696796,0.026577,0.714838,0.052686,101.763167,83.409561,103.882382
15569,-9.034753,2.208429,0.378223,0.561657,1.174499,-0.595759,0.243379,0.210389,0.573579,-0.090406,0.021820,0.003904,0.999995,0.001217,0.001052,0.002868,0.695879,0.029456,0.715529,0.053878,102.275928,83.058113,104.258528
15570,-9.084551,2.183949,0.202486,0.412737,1.076968,-0.538580,0.308136,0.155695,0.727581,-0.090923,0.021506,0.002129,0.999992,0.001541,0.000778,0.003638,0.695098,0.033126,0.716014,0.055367,102.395634,82.626866,104.201569
15571,-9.526739,2.253000,-0.172530,0.071924,1.002683,-0.073417,0.397720,0.104452,0.847594,-0.095363,0.022129,-0.001631,0.999989,0.001989,0.000522,0.004238,0.694437,0.037550,0.716313,0.056943,102.247347,82.134638,103.822506
15572,-10.109586,2.592396,-0.333619,-0.057763,1.168266,0.563564,0.591843,0.029361,0.926714,-0.101215,0.025465,-0.003246,0.999985,0.002959,0.000147,0.004634,0.693968,0.042952,0.716372,0.058083,101.888018,81.606913,103.117325
15573,-10.490031,3.121120,-0.099403,0.198551,1.542205,1.021205,0.737002,-0.055795,0.984326,-0.105052,0.030698,-0.000910,0.999981,0.003685,-0.000279,0.004922,0.693733,0.049089,0.716141,0.058883,101.326660,81.055720,102.122674
15574,-10.575676,3.384144,0.027266,0.340590,1.680134,1.158098,0.708053,-0.122104,1.040441,-0.105931,0.033290,0.000327,0.999980,0.003540,-0.000611,0.005202,0.693698,0.055342,0.715629,0.059961,100.581437,80.478654,100.957006
15575,-10.475920,3.446725,-0.016395,0.302374,1.640016,1.088817,0.641424,-0.164403,1.090135,-0.104945,0.033896,-0.000141,0.999980,0.003207,-0.000822,0.005451,0.693790,0.061554,0.714907,0.061437,99.747182,79.875200,99.737688
15576,-10.458753,3.615272,0.052727,0.374598,1.685708,1.117784,0.578543,-0.188078,1.148053,-0.104793,0.035550,0.000532,0.999979,0.002893,-0.000940,0.005740,0.693939,0.067758,0.714036,0.063328,98.896615,79.238315,98.536080
15577,-10.431990,3.756368,0.236653,0.555436,1.698034,1.132603,0.480066,-0.239885,1.202577,-0.104546,0.036930,0.002330,0.999978,0.002400,-0.001199,0.006013,0.694259,0.073832,0.712903,0.065742,97.937985,78.571131,97.279179
15578,-10.279039,3.887900,0.374935,0.679642,1.720206,1.026702,0.352439,-0.273413,1.241373,-0.103034,0.038233,0.003676,0.999978,0.001762,-0.001367,0.006207,0.694702,0.079606,0.711568,0.068728,96.930063,77.880719,96.043679
15579,-10.120199,3.955810,0.434975,0.717660,1.681486,0.907014,0.201531,-0.289393,1.263675,-0.101455,0.038913,0.004243,0.999978,0.001008,-0.001447,0.006318,0.695221,0.084940,0.710086,0.072325,95.914335,77.173503,94.885679
15580,-9.905164,3.925478,0.371086,0.623016,1.563275,0.714693,0.056810,-0.287935,1.287579,-0.099307,0.038615,0.003579,0.999978,0.000284,-0.001440,0.006438,0.695759,0.089849,0.708515,0.076510,94.928817,76.449104,93.840391
15581,-9.746357,3.849995,0.371519,0.588222,1.389859,0.563853,-0.126449,-0.267578,1.319104,-0.097720,0.037858,0.003560,0.999977,-0.000632,-0.001338,0.006595,0.696264,0.094222,0.706897,0.081463,93.984429,75.701363,92.942498
15582,-9.613373,3.609699,0.261071,0.435647,1.054224,0.395748,-0.310262,-0.251393,1.346156,-0.096377,0.035453,0.002434,0.999975,-0.001551,-0.001257,0.006731,0.696753,0.098037,0.705214,0.087161,93.060095,74.934686,92.171093
15583,-9.513649,3.367981,0.098277,0.229119,0.710989,0.252240,-0.438072,-0.236813,1.371568,-0.095365,0.033028,0.000797,0.999973,-0.002190,-0.001184,0.006858,0.697207,0.101489,0.703476,0.093404,92.172921,74.149476,91.511479
15584,-9.380249,2.990227,-0.159037,-0.073703,0.247851,0.030445,-0.577884,-0.225334,1.399346,-0.094007,0.029240,-0.001781,0.999971,-0.002889,-0.001127,0.006997,0.697639,0.104536,0.701659,0.100232,91.301066,73.346173,90.948581
15585,-9.296228,2.717480,-0.216893,-0.171543,-0.128585,-0.127444,-0.569543,-0.201279,1.420889,-0.093150,0.026507,-0.002339,0.999970,-0.002848,-0.001006,0.007104,0.697929,0.107673,0.699877,0.107117,90.542259,72.527551,90.496637
15586,-9.388300,2.742444,-0.331378,-0.319866,-0.274558,-0.035598,-0.505406,-0.199035,1.456024,-0.094076,0.026731,-0.003475,0.999970,-0.002527,-0.000995,0.007280,0.698116,0.111146,0.698076,0.113890,89.877171,71.687811,90.102403
15587,-9.409998,2.794907,-0.426100,-0.446724,-0.378338,-0.004703,-0.433374,-0.201380,1.479709,-0.094299,0.027242,-0.004415,0.999970,-0.002167,-0.001007,0.007398,0.698214,0.114951,0.696251,0.120491,89.294483,70.832641,89.749749
15588,-9.285340,2.867445,-0.469942,-0.521643,-0.417404,-0.106380,-0.351164,-0.226287,1.504810,-0.093060,0.027966,-0.004854,0.999970,-0.001756,-0.001131,0.007524,0.698294,0.119134,0.694332,0.126867,88.759087,69.962366,89.395359
15589,-9.109080,2.899446,-0.430129,-0.511435,-0.475056,-0.269208,-0.260759,-0.249300,1.531703,-0.091304,0.028290,-0.004452,0.999969,-0.001304,-0.001246,0.007658,0.698339,0.123737,0.692330,0.133005,88.277304,69.074770,89.040994
15590,-8.871815,2.962940,-0.320514,-0.429537,-0.477074,-0.475829,-0.169171,-0.262628,1.550692,-0.088940,0.028938,-0.003347,0.999969,-0.000846,-0.001313,0.007753,0.698317,0.128723,0.690288,0.138872,87.862524,68.175656,88.700030
15591,-8.660432,3.082030,-0.252764,-0.387707,-0.433077,-0.635203,-0.072240,-0.269554,1.570071,-0.086839,0.030138,-0.002656,0.999968,-0.000361,-0.001348,0.007850,0.698199,0.134115,0.688231,0.144463,87.523265,67.263967,88.378559
15592,-8.623867,3.201346,-0.200973,-0.360975,-0.454445,-0.630017,0.042828,-0.289255,1.589712,-0.086486,0.031327,-0.002128,0.999967,0.000214,-0.001446,0.007948,0.698011,0.139978,0.686132,0.149700,87.249360,66.340405,88.054233
15593,-8.503810,3.463175,-0.069583,-0.253251,-0.312779,-0.639389,0.137746,-0.291697,1.604235,-0.085311,0.033949,-0.000797,0.999967,0.000689,-0.001458,0.008021,0.697707,0.146217,0.684038,0.154653,87.049021,65.407450,87.748663
15594,-8.491522,3.641091,-0.002897,-0.207542,-0.294948,-0.580595,0.185053,-0.290176,1.623710,-0.085207,0.035720,-0.000119,0.999966,0.000925,-0.001451,0.008118,0.697300,0.152674,0.681926,0.159500,86.896872,64.463511,87.464018
15595,-8.595406,3.920472,0.064045,-0.163848,-0.240765,-0.369787,0.209723,-0.293767,1.637963,-0.086272,0.038498,0.000554,0.999965,0.001049,-0.001469,0.008190,0.696826,0.159260,0.679761,0.164302,86.771037,63.510545,87.190706
15596,-8.738938,4.422521,0.019999,-0.236094,-0.014446,-0.021366,0.156941,-0.307677,1.647405,-0.087750,0.043503,0.000100,0.999965,0.000785,-0.001538,0.008237,0.696384,0.165692,0.677448,0.169290,86.614576,62.551896,86.914639
15597,-8.797032,4.684506,0.156027,-0.129547,0.027177,0.154101,0.023832,-0.335990,1.648128,-0.088355,0.046118,0.001418,0.999965,0.000119,-0.001680,0.008241,0.696097,0.171678,0.674875,0.174698,86.367653,61.590946,86.620128
15598,-8.862768,4.790197,0.568491,0.248416,-0.078184,0.274316,-0.013544,-0.350528,1.631360,-0.089024,0.047177,0.005526,0.999965,-0.000068,-0.001753,0.008157,0.695857,0.177474,0.672185,0.180147,86.101030,60.638886,86.324871
15599,-8.852233,5.304786,0.347795,-0.016381,0.211654,0.510893,-0.210211,-0.348420,1.581470,-0.088944,0.052349,0.003268,0.999967,-0.001051,-0.001742,0.007907,0.695781,0.182408,0.669323,0.186075,85.739172,59.714203,86.047024
15600,-8.808035,5.686646,-0.137893,-0.554676,0.402222,0.649939,-0.431134,-0.319365,1.553938,-0.088516,0.056176,-0.001642,0.999966,-0.002156,-0.001597,0.007770,0.695787,0.186438,0.666336,0.192658,85.296128,58.806054,85.819354
15601,-8.631329,5.952249,0.206625,-0.265367,0.557165,0.655766,-0.516740,-0.308332,1.538854,-0.086771,0.058861,0.001780,0.999966,-0.002584,-0.001542,0.007694,0.695803,0.190100,0.663273,0.199473,84.831669,57.905700,85.621978
15602,-8.352018,5.734745,0.626061,0.109834,0.362678,0.330763,-0.626045,-0.310747,1.536154,-0.083967,0.056723,0.005952,0.999964,-0.003130,-0.001554,0.007681,0.695885,0.193359,0.660049,0.206622,84.319883,57.006374,85.440778
15603,-8.133123,5.413592,0.490231,-0.068486,0.059939,-0.030837,-0.684924,-0.313582,1.521039,-0.081747,0.053531,0.004590,0.999964,-0.003425,-0.001568,0.007605,0.695997,0.196354,0.656720,0.213899,83.788214,56.114151,85.274345
15604,-8.130592,5.112984,0.298943,-0.307105,-0.335883,-0.214281,-0.636906,-0.314636,1.491116,-0.081689,0.050531,0.002700,0.999966,-0.003184,-0.001573,0.007455,0.696049,0.199403,0.653422,0.220894,83.296472,55.238603,85.121195
15605,-8.142275,4.948386,0.411564,-0.240510,-0.618950,-0.299024,-0.507140,-0.312326,1.472611,-0.081790,0.048893,0.003864,0.999968,-0.002536,-0.001562,0.007363,0.695937,0.202830,0.650250,0.227391,82.893006,54.372613,84.983461
15606,-8.186210,5.017884,0.283166,-0.421334,-0.730201,-0.243944,-0.424938,-0.315718,1.455866,-0.082229,0.049587,0.002596,0.999970,-0.002125,-0.001579,0.007279,0.695730,0.206477,0.647136,0.233542,82.543530,53.515868,84.852755
15607,-8.131596,4.992660,0.283865,-0.459119,-0.857957,-0.316295,-0.354560,-0.315280,1.446255,-0.081678,0.049342,0.002622,0.999971,-0.001773,-0.001576,0.007231,0.695416,0.210328,0.644077,0.239421,82.243601,52.663759,84.732119
15608,-8.138758,5.029846,0.519241,-0.263980,-0.968012,-0.283788,-0.196698,-0.313542,1.446215,-0.081756,0.049713,0.005015,0.999972,-0.000983,-0.001568,0.007231,0.694893,0.214710,0.641177,0.244777,82.042978,51.811934,84.621324
15609,-8.091715,5.549415,0.428197,-0.419558,-0.672062,-0.023625,-0.176693,-0.343246,1.436502,-0.081320,0.054915,0.004094,0.999972,-0.000883,-0.001716,0.007182,0.694414,0.219158,0.638171,0.249992,81.838321,50.962623,84.489359
15610,-7.959900,5.846454,0.565926,-0.328388,-0.499343,0.061639,-0.128166,-0.342318,1.439196,-0.080026,0.057893,0.005485,0.999972,-0.000641,-0.001712,0.007196,0.693839,0.223766,0.635191,0.255046,81.668657,50.111970,84.365147
15611,-7.655809,6.424377,0.703560,-0.245948,-0.003212,0.203135,-0.140270,-0.346495,1.428368,-0.077026,0.063700,0.006858,0.999973,-0.000701,-0.001732,0.007142,0.693264,0.228294,0.632158,0.260084,81.494248,49.266536,84.242198
15612,-7.213103,6.387296,0.819618,-0.134449,0.114513,-0.144944,-0.242656,-0.309646,1.443885,-0.072602,0.063360,0.008007,0.999972,-0.001213,-0.001548,0.007219,0.692631,0.232452,0.629066,0.265525,81.292325,48.415549,84.159107
15613,-7.056281,6.410689,0.896396,-0.086553,0.095913,-0.238079,-0.272154,-0.299085,1.457597,-0.071041,0.063602,0.008771,0.999971,-0.001361,-0.001495,0.007288,0.691941,0.236527,0.625920,0.271105,81.086893,47.557202,84.092856
15614,-6.824941,6.442781,0.741991,-0.266611,0.133411,-0.402630,-0.371829,-0.282479,1.471393,-0.068731,0.063937,0.007204,0.999970,-0.001859,-0.001412,0.007357,0.691258,0.240261,0.622642,0.277046,80.840711,46.692710,84.048091
15615,-7.151844,6.223024,1.117699,0.062294,-0.385900,-0.274889,-0.345739,-0.241940,1.490955,-0.071993,0.061714,0.010983,0.999970,-0.001729,-0.001210,0.007455,0.690346,0.244077,0.619479,0.283008,80.640037,45.820442,84.044885
15616,-7.447018,6.390934,0.660103,-0.468617,-0.619120,-0.007941,-0.399283,-0.270473,1.469655,-0.074946,0.063373,0.006373,0.999970,-0.001996,-0.001352,0.007348,0.689579,0.247667,0.616131,0.289007,80.393604,44.957853,84.020547
15617,-7.645185,6.350300,0.501431,-0.675920,-0.934475,0.071374,-0.303781,-0.244926,1.444811,-0.076914,0.062956,0.004824,0.999972,-0.001519,-0.001225,0.007224,0.688608,0.251459,0.613003,0.294644,80.217590,44.111398,84.018111
15618,-7.646893,6.653693,0.897947,-0.341641,-0.861384,0.321041,-0.131228,-0.241820,1.400059,-0.076943,0.066005,0.008843,0.999975,-0.000656,-0.001209,0.007000,0.687440,0.255688,0.610163,0.299583,80.139562,43.290815,84.014479
15619,-7.193193,6.580674,0.946413,-0.275659,-0.722567,-0.048296,-0.133710,-0.237302,1.378259,-0.072394,0.065315,0.009335,0.999975,-0.000669,-0.001186,0.006891,0.686259,0.259824,0.607332,0.304447,80.061841,42.482732,84.013181
15620,-6.925261,6.371529,0.929870,-0.267890,-0.801177,-0.394341,0.038847,-0.247456,1.346301,-0.069691,0.063245,0.009225,0.999977,0.000194,-0.001237,0.006731,0.684900,0.264456,0.604740,0.308649,80.075151,41.691927,84.000323
15621,-6.741472,6.924106,0.882872,-0.364467,-0.424416,-0.124766,0.199184,-0.265718,1.295211,-0.067873,0.068794,0.008807,0.999978,0.000996,-0.001329,0.006476,0.683430,0.269501,0.602373,0.312152,80.166709,40.927976,83.966457
15622,-6.685180,7.463046,1.237204,-0.064311,-0.153058,0.281391,0.227107,-0.242371,1.241743,-0.067328,0.074199,0.012375,0.999979,0.001136,-0.001212,0.006209,0.681907,0.274429,0.600175,0.315406,80.280256,40.196732,83.941470
15623,-6.555026,7.848200,1.372895,0.038109,0.069393,0.504283,0.072612,-0.219511,1.185990,-0.066029,0.078086,0.013685,0.999982,0.000363,-0.001098,0.005930,0.680587,0.278619,0.597864,0.318953,80.311461,39.499028,83.925553
15624,-6.319307,7.895979,1.376824,0.040272,0.159777,0.392579,-0.163450,-0.153070,1.142524,-0.063653,0.078608,0.013655,0.999983,-0.000817,-0.000765,0.005713,0.679444,0.281757,0.595442,0.323138,80.234758,38.832477,83.952908
15625,-6.444886,7.597894,1.781459,0.437878,-0.237722,0.296165,-0.231126,-0.109101,1.083694,-0.064869,0.075649,0.017692,0.999985,-0.001156,-0.000546,0.005418,0.678336,0.284412,0.593123,0.327377,80.135140,38.203281,84.005909
15626,-6.603893,7.589621,1.653682,0.271050,-0.471564,0.368260,-0.314348,-0.111967,1.002063,-0.066427,0.075590,0.016381,0.999986,-0.001572,-0.000560,0.005010,0.677470,0.286537,0.590756,0.331571,79.980414,37.620151,84.047756
15627,-6.627194,7.327108,1.104916,-0.277332,-0.749250,0.096298,-0.352000,-0.115801,0.927037,-0.066617,0.072982,0.010882,0.999988,-0.001760,-0.000579,0.004635,0.676774,0.288313,0.588405,0.335608,79.797720,37.078886,84.079404
15628,-6.358134,6.973585,1.218164,-0.130168,-0.838337,-0.335330,-0.206779,-0.141828,0.891793,-0.063900,0.069464,0.012064,0.999989,-0.001034,-0.000709,0.004459,0.675989,0.290512,0.586247,0.339052,79.685014,36.555070,84.089582
15629,-6.042037,6.582206,1.040859,-0.252002,-0.904127,-0.866540,-0.094279,-0.155293,0.873802,-0.060715,0.065562,0.010331,0.999990,-0.000471,-0.000776,0.004369,0.675096,0.293056,0.584248,0.342080,79.630504,36.039903,84.089093
15630,-5.864365,6.315538,0.999177,-0.257384,-0.996300,-1.197825,0.022030,-0.159032,0.830235,-0.058913,0.062910,0.009952,0.999991,0.000110,-0.000795,0.004151,0.674105,0.295865,0.582487,0.344608,79.637811,35.549024,84.080569
15631,-5.825673,6.588080,1.405364,0.113091,-0.876085,-0.950657,0.150591,-0.130090,0.769688,-0.058519,0.065645,0.014065,0.999992,0.000753,-0.000650,0.003848,0.672932,0.298878,0.581125,0.346595,79.725965,35.095190,84.084135
15632,-5.870999,7.119337,1.232754,-0.121480,-0.673838,-0.528072,0.135177,-0.109261,0.704650,-0.058967,0.070978,0.012343,0.999993,0.000676,-0.000546,0.003523,0.671825,0.301607,0.579895,0.348434,79.808127,34.680204,84.092946
15633,-5.767875,7.848307,1.101264,-0.327795,-0.237285,-0.019170,0.048992,-0.076101,0.663769,-0.057943,0.078288,0.011010,0.999994,0.000245,-0.000381,0.003319,0.670813,0.303868,0.578681,0.350430,79.850750,34.291607,84.118985
15634,-5.869252,8.027029,1.145982,-0.316003,-0.285607,0.187952,-0.015677,-0.049546,0.657510,-0.058959,0.080078,0.011439,0.999995,-0.000078,-0.000248,0.003288,0.669828,0.305844,0.577445,0.352629,79.865469,33.909222,84.161846
15635,-5.701874,7.780366,1.052971,-0.370903,-0.351298,-0.122852,-0.065712,-0.051418,0.642536,-0.057271,0.077623,0.010489,0.999995,-0.000329,-0.000257,0.003213,0.668942,0.307609,0.576132,0.354916,79.849709,33.535096,84.201593
15636,-5.693306,7.336133,1.090507,-0.285860,-0.652148,-0.489891,-0.033000,-0.030861,0.594417,-0.057152,0.073193,0.010884,0.999996,-0.000165,-0.000154,0.002972,0.668026,0.309304,0.575013,0.356976,79.856609,33.190185,84.249120
15637,-5.565114,7.034627,1.066916,-0.263819,-0.764582,-0.815999,0.023262,-0.024673,0.525946,-0.055837,0.070198,0.010670,0.999997,0.000116,-0.000123,0.002630,0.667121,0.310978,0.574118,0.358651,79.893379,32.884536,84.292412
15638,-5.347134,7.167615,1.048574,-0.278255,-0.555088,-0.830464,0.063833,-0.026385,0.465942,-0.053640,0.071548,0.010502,0.999997,0.000319,-0.000132,0.002330,0.666263,0.312615,0.573378,0.360005,79.948231,32.612500,84.326809
15639,-5.111746,7.422427,1.173066,-0.164042,-0.261201,-0.729561,0.035119,-0.011444,0.436674,-0.051280,0.074110,0.011741,0.999998,0.000176,-0.000057,0.002183,0.665454,0.314044,0.572680,0.361365,79.990073,32.358520,84.367526
15640,-5.221052,7.839320,1.287542,-0.108410,-0.167507,-0.308364,0.036452,-0.001016,0.398403,-0.052367,0.078287,0.012889,0.999998,0.000182,-0.000005,0.001992,0.664681,0.315348,0.572075,0.362609,80.033401,32.127071,84.410209
15641,-5.340369,7.981023,0.936988,-0.483154,-0.227100,-0.178939,-0.065697,0.025259,0.357136,-0.053545,0.079718,0.009350,0.999998,-0.000328,0.000126,0.001786,0.664065,0.316146,0.571437,0.364047,80.024954,31.921592,84.465530
15642,-5.504585,7.775932,0.842118,-0.566440,-0.509439,-0.278839,0.007366,0.034996,0.345279,-0.055179,0.077664,0.008434,0.999998,0.000037,0.000175,0.001726,0.663325,0.317133,0.570979,0.365252,80.060516,31.723671,84.525594
15643,-5.325810,7.737444,0.894341,-0.491578,-0.411640,-0.398817,0.061740,0.022837,0.330317,-0.053385,0.077284,0.008973,0.999999,0.000309,0.000114,0.001652,0.662559,0.318279,0.570604,0.366231,80.122060,31.533063,84.575723
15644,-5.308716,7.667787,1.276845,-0.093143,-0.466354,-0.411543,0.165360,0.040559,0.299405,-0.053199,0.076588,0.012843,0.999999,0.000827,0.000203,0.001497,0.661633,0.319647,0.570523,0.366840,80.246567,31.361459,84.633401
15645,-5.147964,8.134294,1.274810,-0.125520,-0.111733,-0.103665,0.125501,0.031915,0.250776,-0.051580,0.081270,0.012807,0.999999,0.000628,0.000160,0.001254,0.660881,0.320759,0.570419,0.367385,80.342348,31.216526,84.679571
15646,-5.056366,8.307650,1.493786,0.088971,0.031957,0.026331,0.109874,0.046071,0.217160,-0.050650,0.083013,0.014995,0.999999,0.000549,0.000230,0.001086,0.660176,0.321697,0.570384,0.367888,80.431477,31.091738,84.730803
15647,-5.128655,8.614072,1.293734,-0.143317,0.110007,0.294063,0.045682,0.019535,0.190053,-0.051367,0.086089,0.012962,1.000000,0.000228,0.000098,0.000950,0.659697,0.322395,0.570187,0.368439,80.473364,30.979832,84.761484
15648,-5.073430,8.364211,1.272005,-0.129062,0.008618,0.051438,-0.015082,0.020076,0.164210,-0.050802,0.083601,0.012719,1.000000,-0.000075,0.000100,0.000821,0.659363,0.322816,0.569920,0.369081,80.478739,30.882431,84.789394
15649,-5.047903,8.253038,1.286188,-0.103716,-0.043112,-0.053814,-0.078487,-0.002424,0.146602,-0.050540,0.082498,0.012829,1.000000,-0.000392,-0.000012,0.000733,0.659227,0.323020,0.569492,0.369807,80.439490,30.792984,84.800743
15650,-4.711284,8.231557,0.733285,-0.638628,0.222379,-0.324006,-0.309667,0.005082,0.141414,-0.047171,0.082293,0.007207,0.999999,-0.001548,0.000025,0.000707,0.659452,0.322433,0.568666,0.371187,80.269759,30.707071,84.816439
15651,-4.888508,8.586642,1.542835,0.084725,0.238021,0.184533,-0.190770,0.045412,0.152358,-0.048947,0.085844,0.015358,0.999999,-0.000954,0.000227,0.000762,0.659347,0.322194,0.568177,0.372328,80.182722,30.619062,84.860258
15652,-5.004331,8.787092,1.443639,-0.071289,0.229649,0.399193,-0.379991,0.022077,0.129330,-0.050099,0.087866,0.014275,0.999998,-0.001900,0.000110,0.000647,0.659656,0.321307,0.567292,0.373893,79.977852,30.541712,84.886160
15653,-5.015937,8.388979,1.045173,-0.448967,0.004800,0.006950,-0.441548,0.048099,0.111517,-0.050204,0.083885,0.010279,0.999997,-0.002208,0.000240,0.000558,0.660019,0.320117,0.566406,0.375613,79.745789,30.477235,84.927537
15654,-5.162558,8.126451,1.244639,-0.256014,-0.263259,-0.111891,-0.285553,0.058124,0.086417,-0.051657,0.081260,0.012345,0.999999,-0.001428,0.000291,0.000432,0.660149,0.319351,0.565881,0.376824,79.604637,30.427936,84.972498
15655,-5.234420,7.981972,1.312723,-0.193930,-0.403999,-0.188062,-0.251625,0.046265,0.050129,-0.052361,0.079823,0.013039,0.999999,-0.001258,0.000231,0.000251,0.660325,0.318615,0.565441,0.377799,79.477190,30.398065,85.005663
15656,-5.060847,7.797951,1.483238,-0.002464,-0.350224,-0.405375,-0.182836,0.041323,0.018445,-0.050613,0.077988,0.014772,1.000000,-0.000914,0.000207,0.000092,0.660465,0.318026,0.565162,0.378467,79.385219,30.385450,85.031588
15657,-4.844022,7.931728,1.557284,0.056314,-0.094348,-0.389848,-0.155065,0.041236,-0.014984,-0.048431,0.079333,0.015521,1.000000,-0.000775,0.000206,-0.000075,0.660623,0.317435,0.564990,0.378944,79.307438,30.391829,85.053584
15658,-4.680468,8.173259,1.526435,-0.005932,0.171583,-0.272799,-0.129989,0.056695,-0.017533,-0.046793,0.081747,0.015224,1.000000,-0.000650,0.000283,-0.000088,0.660703,0.316889,0.564918,0.379368,79.248595,30.401166,85.085136
15659,-4.688416,8.296438,1.467392,-0.091011,0.228118,-0.173961,-0.134499,0.060664,0.010479,-0.046884,0.082972,0.014632,1.000000,-0.000672,0.000303,0.000052,0.660725,0.316400,0.564808,0.379902,79.190607,30.395333,85.122959
15660,-4.714172,8.174243,1.499803,-0.051768,0.141916,-0.259246,-0.130194,0.060211,0.044070,-0.047155,0.081742,0.014959,1.000000,-0.000651,0.000301,0.000220,0.660678,0.316021,0.564649,0.380535,79.136677,30.370437,85.164469
15661,-4.812342,8.292477,1.610485,0.027347,0.114647,-0.091392,-0.069157,0.059242,0.062227,-0.048144,0.082915,0.016090,1.000000,-0.000346,0.000296,0.000311,0.660501,0.315896,0.564577,0.381053,79.118910,30.335374,85.207843
15662,-4.855765,8.574072,1.512041,-0.119238,0.213469,0.153236,-0.109133,0.060706,0.072048,-0.048584,0.085731,0.015088,1.000000,-0.000546,0.000304,0.000360,0.660365,0.315664,0.564415,0.381720,79.078942,30.294831,85.253191
15663,-4.994673,8.731901,1.676697,0.001539,0.170323,0.384132,-0.151799,0.072533,0.070235,-0.049971,0.087314,0.016719,1.000000,-0.000759,0.000363,0.000351,0.660265,0.315263,0.564215,0.382518,79.018661,30.256750,85.306256
15664,-5.080517,8.730530,1.800146,0.106293,0.092388,0.446674,-0.169835,0.062669,0.055919,-0.050824,0.087306,0.017943,1.000000,-0.000849,0.000313,0.000280,0.660250,0.314781,0.563968,0.383305,78.943508,30.225573,85.350900
15665,-5.003049,8.599347,1.534673,-0.146107,0.084715,0.252397,-0.254433,0.055469,0.034597,-0.050041,0.086004,0.015251,0.999999,-0.001272,0.000277,0.000173,0.660426,0.313973,0.563571,0.384247,78.816539,30.205768,85.388402
15666,-4.970533,8.434298,1.817197,0.142170,0.033066,0.143440,-0.221298,0.068321,0.017081,-0.049706,0.084359,0.018096,0.999999,-0.001106,0.000342,0.000085,0.660549,0.313200,0.563304,0.385059,78.711258,30.197195,85.431823
15667,-4.821995,8.519201,1.728519,0.032818,0.202043,0.125837,-0.286946,0.063500,0.025673,-0.048225,0.085211,0.017178,0.999999,-0.001435,0.000317,0.000128,0.660768,0.312243,0.562882,0.386075,78.567727,30.183440,85.473464
15668,-4.808227,8.367112,1.572172,-0.119429,0.132304,-0.036823,-0.333625,0.084134,0.037807,-0.048092,0.083688,0.015602,0.999999,-0.001668,0.000421,0.000189,0.660979,0.311125,0.562416,0.387294,78.404627,30.165221,85.529932
15669,-4.909467,8.291107,1.736913,0.025524,0.008611,-0.021803,-0.294178,0.082308,0.047994,-0.049107,0.082925,0.017267,0.999999,-0.001471,0.000412,0.000240,0.661110,0.310170,0.562004,0.388432,78.264600,30.141301,85.586841
15670,-4.865674,8.056206,1.629927,-0.059763,-0.078678,-0.261557,-0.311937,0.070212,0.066054,-0.048678,0.080571,0.016191,0.999999,-0.001560,0.000351,0.000330,0.661268,0.309228,0.561487,0.389660,78.111315,30.105862,85.638192
15671,-4.831009,8.018933,1.678239,-0.024346,-0.071541,-0.302026,-0.276093,0.073433,0.086608,-0.048339,0.080191,0.016689,0.999999,-0.001380,0.000367,0.000433,0.661318,0.308456,0.561020,0.390858,77.981411,30.059492,85.694745
15672,-4.937997,8.185292,1.859017,0.100803,-0.080928,-0.075027,-0.226129,0.073775,0.087179,-0.049409,0.081852,0.018516,0.999999,-0.001131,0.000369,0.000436,0.661289,0.307850,0.560646,0.391919,77.879909,30.012844,85.751463
15673,-4.929860,8.446058,1.892640,0.071840,0.052210,0.147914,-0.261266,0.062834,0.077884,-0.049326,0.084466,0.018832,0.999999,-0.001306,0.000314,0.000389,0.661361,0.307122,0.560184,0.393030,77.754465,29.970277,85.800104
15674,-4.993032,8.757076,1.881859,-0.019726,0.148920,0.440874,-0.318728,0.071706,0.054900,-0.049948,0.087587,0.018697,0.999999,-0.001594,0.000359,0.000274,0.661540,0.306121,0.559669,0.394239,77.596993,29.941663,85.851122
15675,-5.089567,8.754056,1.930453,-0.005735,0.064451,0.495541,-0.390887,0.073696,0.019050,-0.050897,0.087573,0.019152,0.999998,-0.001954,0.000368,0.000095,0.661892,0.304777,0.559074,0.395532,77.396659,29.933581,85.898599
15676,-4.975071,8.403755,1.882487,-0.015563,-0.011536,0.133051,-0.460426,0.073190,-0.013537,-0.049738,0.084084,0.018650,0.999997,-0.002302,0.000366,-0.000068,0.662414,0.303111,0.558385,0.396910,77.153600,29.943712,85.940829
15677,-4.702289,7.955385,1.796940,-0.036608,0.000094,-0.398486,-0.521465,0.068447,-0.010365,-0.047013,0.079603,0.017778,0.999997,-0.002607,0.000342,-0.000052,0.663030,0.301260,0.557553,0.398458,76.874628,29.951720,85.980636
15678,-4.602261,7.693274,1.731900,-0.081585,-0.044680,-0.682628,-0.500727,0.080073,0.009501,-0.046019,0.076974,0.017145,0.999997,-0.002504,0.000400,0.000048,0.663540,0.299507,0.556765,0.400030,76.612389,29.950247,86.030683
15679,-4.603786,7.408979,2.000751,0.205768,-0.174724,-0.867415,-0.411337,0.086078,0.045270,-0.046046,0.074120,0.019875,0.999998,-0.002057,0.000430,0.000226,0.663822,0.298137,0.556121,0.401478,76.406412,29.929917,86.090324
15680,-4.789322,7.907210,1.928608,-0.000947,-0.092329,-0.369566,-0.316834,0.073690,0.071455,-0.047914,0.079085,0.019178,0.999999,-0.001584,0.000368,0.000357,0.663945,0.297176,0.555582,0.402731,76.252285,29.893401,86.145942
15681,-4.978297,8.237987,1.956894,-0.073261,-0.093829,0.008876,-0.291878,0.082627,0.070458,-0.049804,0.082391,0.019469,0.999999,-0.001459,0.000413,0.000352,0.664004,0.296278,0.555126,0.403922,76.115610,29.858885,86.207431
15682,-5.114028,8.553459,2.040036,-0.087053,-0.053791,0.359145,-0.300912,0.067186,0.056149,-0.051157,0.085551,0.020289,0.999999,-0.001505,0.000336,0.000281,0.664149,0.295339,0.554618,0.405069,75.967347,29.830224,86.256615
15683,-5.104227,8.629677,1.835776,-0.327410,-0.021360,0.374894,-0.362228,0.077395,0.026739,-0.051047,0.086323,0.018221,0.999998,-0.001811,0.000387,0.000134,0.664411,0.294095,0.554063,0.406300,75.785241,29.819557,86.307892
15684,-5.099468,8.313023,2.110995,-0.017798,-0.157322,0.164392,-0.346814,0.089331,-0.000549,-0.050985,0.083167,0.020989,0.999998,-0.001734,0.000447,-0.000003,0.664673,0.292800,0.553616,0.407415,75.613202,29.825764,86.362183
15685,-4.830902,8.000371,1.832836,-0.232615,-0.093574,-0.292188,-0.384630,0.091703,-0.026880,-0.048290,0.080045,0.018197,0.999998,-0.001923,0.000459,-0.000134,0.665033,0.291302,0.553138,0.408549,75.418467,29.847177,86.413840
15686,-4.719940,7.492003,1.913719,-0.057812,-0.239998,-0.756789,-0.293242,0.125799,-0.022216,-0.047179,0.074953,0.019057,0.999999,-0.001466,0.000629,-0.000111,0.665156,0.290049,0.552949,0.409495,75.286943,29.870964,86.487798
15687,-4.705062,7.427936,1.957890,-0.013409,-0.252702,-0.808181,-0.203976,0.118177,0.005881,-0.047041,0.074298,0.019531,0.999999,-0.001020,0.000591,0.000029,0.665110,0.289186,0.552879,0.410274,75.206878,29.878306,86.561792
15688,-4.614212,7.159935,2.247403,0.328143,-0.287068,-1.014031,-0.075424,0.114920,0.045070,-0.046145,0.071597,0.022474,1.000000,-0.000377,0.000575,0.000225,0.664808,0.288865,0.553001,0.410824,75.202330,29.863393,86.640091
15689,-4.734848,7.880538,2.369952,0.282772,-0.029743,-0.322826,0.065726,0.096118,0.076466,-0.047367,0.078779,0.023748,1.000000,0.000329,0.000481,0.000382,0.664288,0.289139,0.553308,0.411060,75.275635,29.828431,86.711842
15690,-4.772062,8.479144,2.624223,0.403600,0.245099,0.253694,0.074037,0.092582,0.090995,-0.047747,0.084760,0.026296,1.000000,0.000370,0.000463,0.000455,0.663736,0.289488,0.553597,0.411317,75.353334,29.784689,86.783477
15691,-4.948235,9.409849,2.524186,0.092746,0.537203,1.100819,-0.055646,0.074450,0.082970,-0.049512,0.094085,0.025234,1.000000,-0.000278,0.000372,0.000415,0.663437,0.289421,0.553572,0.411879,75.350585,29.742852,86.842325
15692,-4.965363,9.390106,2.394760,-0.039583,0.496869,1.064598,-0.235931,0.083668,0.065654,-0.049674,0.093913,0.023858,0.999999,-0.001180,0.000418,0.000328,0.663410,0.288689,0.553229,0.412896,75.245653,29.711875,86.903984
15693,-5.014527,9.221363,2.439011,0.017561,0.370923,0.957170,-0.310492,0.076688,0.040508,-0.050155,0.092241,0.024266,0.999999,-0.001552,0.000383,0.000203,0.663559,0.287654,0.552746,0.414024,75.094046,29.694013,86.957210
15694,-4.946502,8.625597,2.153264,-0.149463,0.115218,0.359315,-0.438864,0.087185,0.006038,-0.049458,0.086301,0.021365,0.999997,-0.002194,0.000436,0.000030,0.663934,0.286075,0.552077,0.415408,74.868962,29.696846,87.011097
15695,-4.946515,8.025662,2.205720,0.011372,-0.172096,-0.132055,-0.392132,0.099956,-0.018466,-0.049447,0.080304,0.021925,0.999998,-0.001961,0.000500,-0.000092,0.664253,0.284555,0.551583,0.416596,74.672933,29.715395,87.069062
15696,-4.760876,7.608737,1.992974,-0.113189,-0.228503,-0.622166,-0.366000,0.101007,-0.025856,-0.047589,0.076130,0.019814,0.999998,-0.001830,0.000505,-0.000129,0.664547,0.283099,0.551153,0.417688,74.491204,29.738276,87.126140
15697,-4.725335,7.079529,2.178957,0.180209,-0.437408,-1.039287,-0.194568,0.111644,-0.019280,-0.047234,0.070821,0.021747,0.999999,-0.000973,0.000558,-0.000096,0.664551,0.282208,0.551107,0.418344,74.411979,29.759361,87.191297
15698,-4.740525,7.192335,2.296515,0.263266,-0.382662,-0.909851,0.010569,0.085796,0.001526,-0.047396,0.071922,0.022989,1.000000,0.000053,0.000429,0.000008,0.664295,0.282109,0.551373,0.418467,74.443621,29.764922,87.243504
15699,-4.591672,7.764722,2.033487,-0.122017,0.003302,-0.566363,-0.008305,0.063900,0.038470,-0.045925,0.077639,0.020346,1.000000,-0.000042,0.000320,0.000192,0.664047,0.282095,0.551477,0.418732,74.461112,29.746820,87.288512
15700,-4.770574,8.268604,3.144426,0.835332,0.187155,0.201441,0.208952,0.067324,0.061933,-0.047721,0.082638,0.031547,0.999999,0.001045,0.000337,0.000310,0.663435,0.282860,0.552011,0.418483,74.605838,29.716119,87.339597
15701,-4.828573,9.550237,2.456341,-0.136114,0.699415,1.143957,-0.062390,0.055290,0.043348,-0.048300,0.095500,0.024547,1.000000,-0.000312,0.000276,0.000217,0.663277,0.282699,0.551965,0.418902,74.589954,29.693905,87.379894
15702,-4.941796,9.331614,2.069225,-0.475009,0.456602,0.927327,-0.276098,0.096947,0.044547,-0.049429,0.093334,0.020587,0.999999,-0.001380,0.000485,0.000223,0.663304,0.281744,0.551606,0.419974,74.464532,29.677337,87.446729
15703,-5.175476,8.829389,2.342524,-0.116189,0.030593,0.685722,-0.261657,0.085072,0.031521,-0.051759,0.088316,0.023332,0.999999,-0.001308,0.000425,0.000158,0.663369,0.280826,0.551257,0.420945,74.342840,29.666320,87.503935
15704,-5.049982,7.820380,2.196261,-0.020138,-0.367055,-0.255017,-0.253460,0.075085,0.020256,-0.050500,0.078226,0.021882,0.999999,-0.001267,0.000375,0.000101,0.663473,0.279924,0.550904,0.421842,74.221383,29.660005,87.552621
15705,-4.865876,7.197909,2.298482,0.230447,-0.501050,-0.842431,-0.122045,0.065407,0.008054,-0.048654,0.071991,0.022957,1.000000,-0.000610,0.000327,0.000040,0.663443,0.279446,0.550816,0.422322,74.171436,29.659046,87.593176
15706,-4.718757,7.127209,2.352678,0.305889,-0.402618,-0.961519,0.034765,0.074762,0.011578,-0.047183,0.071265,0.023557,1.000000,0.000174,0.000374,0.000058,0.663162,0.279476,0.551082,0.422395,74.214249,29.657530,87.640108
15707,-4.555909,7.430206,2.449469,0.340292,-0.106614,-0.766309,0.177962,0.062438,0.041635,-0.045567,0.074271,0.024575,1.000000,0.000890,0.000312,0.000208,0.662650,0.280091,0.551570,0.422155,74.338197,29.637568,87.684758
15708,-4.575222,8.147630,2.391114,0.121288,0.214355,-0.170424,0.193287,0.046983,0.077053,-0.045778,0.081435,0.024001,0.999999,0.000966,0.000235,0.000385,0.662085,0.280886,0.551986,0.421969,74.468812,29.595490,87.725631
15709,-4.733152,8.529111,3.078928,0.708536,0.318285,0.386571,0.242488,0.046576,0.087630,-0.047362,0.085233,0.030904,0.999999,0.001212,0.000233,0.000438,0.661428,0.281874,0.552491,0.421680,74.628605,29.547517,87.768127
15710,-4.849143,9.537024,2.783081,0.184212,0.670634,1.220484,0.031337,0.021722,0.060834,-0.048517,0.095351,0.027851,1.000000,0.000157,0.000109,0.000304,0.661194,0.282141,0.552505,0.421851,74.656959,29.510419,87.789894
15711,-4.810752,9.404013,2.078336,-0.472747,0.567429,0.927554,-0.248670,0.055532,0.057404,-0.048129,0.094052,0.020680,0.999999,-0.001243,0.000278,0.000287,0.661267,0.281402,0.552045,0.422831,74.535417,29.480442,87.832696
15712,-5.009812,8.876811,2.319278,-0.137256,0.157077,0.638699,-0.290924,0.063800,0.049709,-0.050113,0.088789,0.023080,0.999999,-0.001455,0.000319,0.000249,0.661392,0.280484,0.551531,0.423914,74.391328,29.456003,87.879302
15713,-5.095304,7.896726,2.307225,0.074025,-0.395412,-0.144087,-0.253707,0.053908,0.040114,-0.050963,0.078986,0.022986,0.999999,-0.001269,0.000270,0.000201,0.661511,0.279683,0.551078,0.424846,74.264941,29.435465,87.918157
15714,-4.983495,7.233557,2.288906,0.215356,-0.622392,-0.759240,-0.118883,0.028542,0.026524,-0.049841,0.072343,0.022853,1.000000,-0.000594,0.000143,0.000133,0.661540,0.279344,0.550844,0.425328,74.206438,29.418482,87.938390
15715,-4.787142,7.115160,2.380917,0.340126,-0.501370,-0.933276,0.070548,0.030148,0.012363,-0.047872,0.071140,0.023841,1.000000,0.000353,0.000151,0.000062,0.661329,0.279589,0.551039,0.425242,74.255997,29.409634,87.957261
15716,-4.672355,7.533285,2.496394,0.362496,-0.190414,-0.612384,0.237330,0.040284,0.012602,-0.046723,0.075300,0.025063,0.999999,0.001187,0.000201,0.000063,0.660857,0.280364,0.551620,0.424711,74.404000,29.402120,87.982420
15717,-4.741793,8.162157,2.561504,0.288183,0.055930,-0.036161,0.286343,0.037409,0.020019,-0.047421,0.081580,0.025741,0.999999,0.001432,0.000187,0.000100,0.660306,0.281327,0.552286,0.424065,74.580063,29.390104,88.007172
15718,-4.721597,8.679444,2.591966,0.212070,0.321708,0.394958,0.201808,0.022761,0.036285,-0.047229,0.086760,0.026013,0.999999,0.001009,0.000114,0.000181,0.659880,0.282087,0.552698,0.423685,74.704250,29.366727,88.025290
15719,-4.719616,8.842449,2.654286,0.245552,0.402291,0.545245,0.076361,0.002863,0.049332,-0.047218,0.088403,0.026577,1.000000,0.000382,0.000014,0.000247,0.659658,0.282511,0.552763,0.423666,74.751683,29.333195,88.033132
15720,-4.682681,8.768049,2.640868,0.253294,0.390979,0.461715,-0.057548,0.006117,0.056430,-0.046851,0.087675,0.026385,1.000000,-0.000288,0.000031,0.000282,0.659601,0.282506,0.552542,0.424046,74.723765,29.296146,88.044129
15721,-4.734710,8.814868,2.305365,-0.096328,0.330127,0.449661,-0.213161,0.017110,0.050754,-0.047368,0.088161,0.022964,0.999999,-0.001066,0.000086,0.000254,0.659744,0.281948,0.552037,0.424851,74.609841,29.263968,88.061271
15722,-4.843118,8.419111,1.887083,-0.428281,-0.000082,0.072393,-0.337836,0.048107,0.052461,-0.048449,0.084210,0.018740,0.999999,-0.001689,0.000241,0.000262,0.659973,0.280918,0.551364,0.426050,74.434038,29.235567,88.098299
15723,-5.008309,7.709479,2.015645,-0.149730,-0.476192,-0.414131,-0.207285,0.046486,0.053825,-0.050099,0.077102,0.020088,0.999999,-0.001036,0.000232,0.000269,0.660018,0.280325,0.550963,0.426889,74.332900,29.206289,88.134741
15724,-5.029714,7.284725,2.098889,0.031483,-0.694375,-0.741445,-0.013363,0.023021,0.048652,-0.050312,0.072836,0.020990,1.000000,-0.000067,0.000115,0.000243,0.659867,0.280407,0.550903,0.427145,74.334954,29.176215,88.155327
15725,-4.939864,7.265512,2.077755,0.026046,-0.631666,-0.806729,0.188620,0.008610,0.030892,-0.049409,0.072628,0.020848,1.000000,0.000943,0.000043,0.000154,0.659510,0.281138,0.551254,0.426764,74.446975,29.153785,88.163758
15726,-4.838660,7.771083,2.283606,0.122279,-0.284973,-0.382895,0.366654,0.004088,0.012424,-0.048391,0.077666,0.022979,0.999998,0.001833,0.000020,0.000062,0.658954,0.282413,0.551992,0.425825,74.657766,29.140761,88.165901
15727,-4.660007,8.396838,2.432281,0.146853,0.181685,0.091043,0.382731,0.011213,0.002972,-0.046600,0.083921,0.024486,0.999998,0.001914,0.000056,0.000015,0.658372,0.283700,0.552801,0.424819,74.879369,29.134139,88.170989
15728,-4.627297,8.830643,2.631039,0.265202,0.434479,0.485629,0.311460,0.017712,0.000528,-0.046271,0.088265,0.026452,0.999999,0.001557,0.000089,0.000003,0.657878,0.284730,0.553481,0.424010,75.061700,29.129708,88.179630
15729,-4.705398,9.149091,2.674855,0.250799,0.521463,0.801767,0.155975,0.028973,-0.005209,-0.047048,0.091471,0.026827,1.000000,0.000780,0.000145,-0.000026,0.657584,0.285209,0.553877,0.423627,75.158153,29.130185,88.194544
15730,-4.721705,9.073281,2.526776,0.131422,0.456589,0.712415,-0.036114,0.015801,-0.004148,-0.047213,0.090738,0.025255,1.000000,-0.000181,0.000079,-0.000021,0.657598,0.285087,0.553819,0.423762,75.140358,29.128039,88.201172
15731,-4.728748,8.889844,2.189275,-0.161991,0.330375,0.485269,-0.193189,0.012359,0.001128,-0.047287,0.088919,0.021810,1.000000,-0.000966,0.000062,0.000006,0.657834,0.284471,0.553411,0.424343,75.032135,29.122531,88.206620
15732,-4.805236,8.495164,2.032167,-0.239372,0.059026,0.153605,-0.248703,0.025276,0.009670,-0.048054,0.084975,0.020222,0.999999,-0.001244,0.000126,0.000048,0.658095,0.283667,0.552913,0.425124,74.896602,29.114167,88.221606
15733,-4.824690,7.981846,1.998561,-0.163742,-0.208346,-0.277935,-0.189847,0.027659,0.027885,-0.048255,0.079831,0.019917,1.000000,-0.000949,0.000138,0.000139,0.658226,0.283102,0.552523,0.425805,74.797260,29.096160,88.241360
15734,-4.795816,7.572440,1.736492,-0.323601,-0.407711,-0.697527,-0.037397,0.012782,0.041103,-0.047973,0.075718,0.017354,1.000000,-0.000187,0.000064,0.000206,0.658154,0.283107,0.552388,0.426088,74.781586,29.068578,88.253873
15735,-4.791056,7.419010,1.654690,-0.357546,-0.490239,-0.847994,0.199660,0.015323,0.065844,-0.047934,0.074158,0.016625,0.999999,0.000998,0.000077,0.000329,0.657686,0.283955,0.552733,0.425799,74.904779,29.027752,88.272326
15736,-4.762089,7.560025,1.638155,-0.379083,-0.407557,-0.745986,0.506340,0.017091,0.098194,-0.047657,0.075535,0.016577,0.999997,0.002532,0.000085,0.000491,0.656706,0.285896,0.553687,0.424771,75.206550,28.969152,88.297055
15737,-4.701563,8.523110,1.778123,-0.427391,0.104780,0.072449,0.594777,0.002435,0.134051,-0.047072,0.085146,0.018035,0.999995,0.002974,0.000012,0.000670,0.655559,0.288256,0.554727,0.423591,75.557399,28.888527,88.318162
15738,-4.604291,8.578138,2.671007,0.481833,0.282206,0.267302,0.571953,-0.010215,0.138181,-0.046104,0.085673,0.026953,0.999996,0.002860,-0.000051,0.000691,0.654466,0.290576,0.555664,0.422467,75.891070,28.803618,88.331212
15739,-4.568540,8.602507,3.111142,0.954394,0.350028,0.361806,0.518058,-0.018701,0.055846,-0.045712,0.085931,0.031330,0.999997,0.002590,-0.000094,0.000279,0.653642,0.292506,0.556577,0.421206,76.184994,28.763339,88.325489
15740,-4.399360,9.094775,1.951773,-0.254664,0.626238,0.454819,0.082818,-0.008438,-0.022060,-0.043984,0.090945,0.019554,1.000000,0.000414,-0.000042,-0.000110,0.653589,0.292775,0.556716,0.420916,76.226525,28.767743,88.313870
15741,-4.518203,9.144264,2.135740,-0.085700,0.564247,0.592474,-0.012681,0.060250,-0.046855,-0.045154,0.091455,0.021365,1.000000,-0.000063,0.000301,-0.000234,0.653536,0.292519,0.556917,0.420911,76.232700,28.795368,88.342129
15742,-4.712601,9.300209,1.860844,-0.401691,0.448102,0.761009,-0.208589,0.061838,-0.025857,-0.047108,0.093028,0.018526,0.999999,-0.001043,0.000309,-0.000129,0.653722,0.291676,0.556679,0.421523,76.128469,28.811498,88.374530
15743,-4.699130,8.563092,1.443821,-0.660668,0.073077,0.038765,-0.298510,0.064497,0.034000,-0.047001,0.085644,0.014326,0.999999,-0.001493,0.000322,0.000170,0.653903,0.290701,0.556172,0.422583,75.978298,28.794792,88.418149
15744,-4.797430,7.834379,1.647423,-0.310010,-0.346133,-0.491158,-0.057858,0.055016,0.093939,-0.048007,0.078326,0.016465,1.000000,-0.000289,0.000275,0.000470,0.653633,0.290699,0.556054,0.423156,75.967427,28.743486,88.465126
15745,-4.839490,7.520622,1.478049,-0.395692,-0.557989,-0.774044,0.206239,0.009121,0.146782,-0.048449,0.075155,0.014860,0.999999,0.001031,0.000046,0.000734,0.652994,0.291804,0.556269,0.423100,76.098086,28.656436,88.491406
15746,-4.761722,7.432174,1.152380,-0.661066,-0.577224,-0.954425,0.552350,-0.021378,0.210240,-0.047697,0.074239,0.011724,0.999996,0.002762,-0.000107,0.001051,0.651799,0.294277,0.557019,0.422243,76.421986,28.529799,88.507612
15747,-4.507739,8.025269,1.186893,-0.696228,-0.094295,-0.558539,0.881083,-0.010901,0.271319,-0.045187,0.080138,0.012220,0.999989,0.004405,-0.000055,0.001357,0.649950,0.297967,0.558401,0.420677,76.941531,28.370456,88.538722
15748,-4.496383,9.038808,1.738169,-0.298508,0.408425,0.418746,0.846430,-0.005173,0.281097,-0.045091,0.090250,0.017763,0.999990,0.004232,-0.000026,0.001405,0.648104,0.301552,0.559701,0.419240,77.442436,28.206075,88.573042
15749,-4.760653,8.035175,3.489668,1.694380,-0.184197,0.010764,0.914913,-0.041670,0.167436,-0.047681,0.080151,0.035254,0.999989,0.004575,-0.000208,0.000837,0.646481,0.305112,0.561188,0.417178,77.963692,28.100662,88.566944
15750,-4.689626,8.252678,3.501367,1.736948,-0.036125,0.154266,0.813417,-0.069981,-0.064654,-0.046882,0.082399,0.035333,0.999992,0.004067,-0.000350,-0.000323,0.645564,0.307745,0.562713,0.414601,78.402952,28.122081,88.510778
15751,-4.335971,9.111373,1.521373,-0.317557,0.542666,0.372447,0.228441,-0.009416,-0.140773,-0.043296,0.091127,0.015316,0.999999,0.001142,-0.000047,-0.000704,0.645529,0.308148,0.563334,0.413513,78.520800,28.193474,88.483498
15752,-4.358906,9.550201,1.290800,-0.617121,0.723249,0.721477,-0.014907,0.033649,-0.097196,-0.043540,0.095524,0.012908,1.000000,-0.000075,0.000168,-0.000486,0.645657,0.307798,0.563521,0.413317,78.514647,28.245272,88.489242
15753,-4.541022,9.408406,1.696063,-0.200435,0.529267,0.755913,-0.094589,0.066011,-0.007046,-0.045401,0.094094,0.016931,1.000000,-0.000473,0.000330,-0.000035,0.645629,0.307379,0.563511,0.413686,78.478384,28.250177,88.527431
15754,-4.744136,8.844971,1.641884,-0.161266,0.078480,0.356086,-0.145654,0.033887,0.085734,-0.047476,0.088441,0.016362,1.000000,-0.000728,0.000169,0.000429,0.645579,0.307121,0.563148,0.414450,78.408624,28.199324,88.557082
15755,-4.752574,8.473829,1.513142,-0.229447,-0.123807,0.016572,-0.150175,-0.007546,0.147766,-0.047589,0.084714,0.015066,0.999999,-0.000751,-0.000038,0.000739,0.645522,0.307111,0.562547,0.415361,78.327929,28.108907,88.568698
15756,-4.738054,8.111776,1.556958,-0.124971,-0.293985,-0.295749,-0.022485,-0.051994,0.183021,-0.047459,0.081076,0.015548,1.000000,-0.000112,-0.000260,0.000915,0.645322,0.307703,0.562011,0.415960,78.309034,27.993561,88.556614
15757,-4.625617,7.935509,1.510118,-0.132180,-0.298754,-0.509874,0.144303,-0.091803,0.172188,-0.046331,0.079304,0.015137,0.999999,0.000722,-0.000459,0.000861,0.644997,0.308885,0.561712,0.415992,78.373475,27.879703,88.517945
15758,-4.433709,7.651228,1.334941,-0.231767,-0.289293,-0.877158,0.295482,-0.085216,0.132089,-0.044393,0.076463,0.013443,0.999999,0.001477,-0.000426,0.000660,0.644503,0.310428,0.561807,0.415480,78.523742,27.789162,88.477891
15759,-4.430375,7.540118,1.279201,-0.237942,-0.353106,-0.984520,0.482023,-0.033890,0.083202,-0.044337,0.075352,0.012966,0.999997,0.002410,-0.000169,0.000416,0.643673,0.312327,0.562530,0.414364,78.793343,27.732031,88.464011
15760,-4.612513,7.784889,1.365426,-0.157819,-0.402801,-0.671748,0.674148,-0.006644,0.031017,-0.046138,0.077795,0.013915,0.999994,0.003371,-0.000033,0.000155,0.642570,0.314637,0.563814,0.412579,79.177622,27.707269,88.460463
15761,-4.656058,8.278911,1.682233,0.124750,-0.197771,-0.169341,0.774059,-0.021690,-0.010977,-0.046558,0.082726,0.017138,0.999993,0.003870,-0.000108,-0.000055,0.641429,0.317178,0.565316,0.410347,79.612583,27.704653,88.442309
15762,-4.585455,8.689237,1.936164,0.369645,0.067963,0.194131,0.688286,-0.020463,-0.055060,-0.045833,0.086838,0.019656,0.999994,0.003441,-0.000102,-0.000275,0.640504,0.319312,0.566706,0.408214,79.996096,27.727076,88.419698
15763,-4.565737,8.865657,2.010108,0.466647,0.174504,0.347921,0.501257,-0.009301,-0.096802,-0.045615,0.088628,0.020321,0.999997,0.002506,-0.000047,-0.000484,0.639924,0.320703,0.567814,0.406490,80.273947,27.774336,88.399871
15764,-4.534484,8.943179,2.008738,0.489803,0.245424,0.398914,0.319739,-0.020040,-0.119493,-0.045293,0.089427,0.020226,0.999999,0.001599,-0.000100,-0.000597,0.639710,0.321469,0.568550,0.405191,80.443239,27.833389,88.370768
15765,-4.486246,8.806328,1.852551,0.374287,0.225374,0.233151,0.089864,-0.032766,-0.107843,-0.044818,0.088079,0.018558,1.000000,0.000449,-0.000164,-0.000539,0.639876,0.321558,0.568762,0.404560,80.477881,27.884745,88.335023
15766,-4.429734,8.474592,1.671792,0.247435,0.118805,-0.109039,-0.049418,-0.025421,-0.069002,-0.044270,0.084765,0.016691,1.000000,-0.000247,-0.000127,-0.000345,0.640167,0.321297,0.568651,0.404463,80.436590,27.914801,88.307996
15767,-4.438460,8.404950,1.740675,0.319081,0.085707,-0.155364,-0.078146,-0.010954,-0.033831,-0.044371,0.084064,0.017371,1.000000,-0.000391,-0.000055,-0.000169,0.640391,0.321015,0.568474,0.404582,80.385152,27.926386,88.294109
15768,-4.447725,8.503245,1.781383,0.333573,0.127445,-0.059061,-0.143750,-0.006445,-0.026540,-0.044467,0.085051,0.017751,1.000000,-0.000719,-0.000032,-0.000133,0.640693,0.320534,0.568164,0.404919,80.297612,27.934235,88.283757
15769,-4.569379,8.457426,1.713051,0.255833,-0.002494,-0.051727,-0.165736,-0.007787,-0.033325,-0.045680,0.084596,0.017059,1.000000,-0.000829,-0.000039,-0.000167,0.641047,0.319966,0.567818,0.405293,80.196915,27.945799,88.271898
15770,-4.636239,8.463575,1.639962,0.164921,-0.058702,-0.025675,-0.184713,-0.008429,-0.054842,-0.046340,0.084664,0.016319,1.000000,-0.000924,-0.000042,-0.000274,0.641477,0.319277,0.567464,0.405652,80.083816,27.969397,88.257100
15771,-4.678412,8.341050,1.587957,0.113404,-0.150010,-0.120069,-0.222151,-0.009157,-0.078199,-0.046752,0.083446,0.015785,0.999999,-0.001111,-0.000046,-0.000391,0.642015,0.318403,0.567069,0.406040,79.947964,28.006105,88.239250
15772,-4.738532,8.184195,1.487949,0.020623,-0.273644,-0.243289,-0.176790,0.007292,-0.099940,-0.047344,0.081879,0.014809,0.999999,-0.000884,0.000036,-0.000500,0.642478,0.317579,0.566853,0.406255,79.841637,28.056665,88.229238
15773,-4.770873,8.262650,1.445518,-0.046787,-0.257785,-0.166264,-0.086728,-0.010392,-0.124405,-0.047658,0.082662,0.014417,1.000000,-0.000434,-0.000052,-0.000622,0.642897,0.317011,0.566802,0.406108,79.780394,28.119261,88.205121
15774,-4.644937,8.565850,1.488189,-0.057439,0.009013,0.044317,-0.030537,-0.027149,-0.135579,-0.046393,0.085692,0.014863,1.000000,-0.000153,-0.000136,-0.000678,0.643297,0.316625,0.566827,0.405740,79.745443,28.186389,88.168824
15775,-4.531570,8.922036,1.583639,-0.022013,0.293051,0.314474,-0.018924,-0.002364,-0.126638,-0.045259,0.089251,0.015827,1.000000,-0.000095,-0.000012,-0.000633,0.643589,0.316252,0.566942,0.405405,79.725253,28.251044,88.149463
15776,-4.517353,9.085071,1.709503,0.074938,0.399307,0.468476,0.022428,-0.009688,-0.103116,-0.045128,0.090872,0.017103,1.000000,0.000112,-0.000048,-0.000516,0.643790,0.316093,0.567080,0.405018,79.727616,28.301634,88.128021
15777,-4.481483,9.132087,1.670455,0.029728,0.458521,0.485759,0.011699,-0.032099,-0.075911,-0.044783,0.091337,0.016703,1.000000,0.000058,-0.000160,-0.000380,0.644015,0.316023,0.567081,0.404714,79.718684,28.334624,88.095475
15778,-4.538292,8.925488,1.671767,0.058976,0.315432,0.333852,-0.054871,-0.033801,-0.045554,-0.045365,0.089270,0.016686,1.000000,-0.000274,-0.000169,-0.000228,0.644290,0.315827,0.566893,0.404693,79.672566,28.350284,88.065247
15779,-4.629210,8.620461,1.570816,-0.003659,0.088776,0.096979,-0.135641,-0.023204,-0.038389,-0.046277,0.086224,0.015644,1.000000,-0.000678,-0.000116,-0.000192,0.644646,0.315370,0.566565,0.404941,79.583952,28.362972,88.042722
15780,-4.720367,8.187746,1.538704,0.018543,-0.194390,-0.239261,-0.176682,-0.012525,-0.052621,-0.047183,0.081903,0.015312,1.000000,-0.000883,-0.000063,-0.000263,0.645066,0.314719,0.566210,0.405276,79.474075,28.384751,88.025222
15781,-4.733278,7.848625,1.487717,0.009925,-0.364096,-0.534463,-0.148137,-0.009983,-0.069910,-0.047306,0.078514,0.014817,1.000000,-0.000741,-0.000050,-0.000350,0.645468,0.314105,0.565948,0.405477,79.380492,28.416516,88.007335
15782,-4.699712,7.772782,1.432387,-0.041220,-0.367287,-0.624731,-0.087770,-0.001235,-0.084316,-0.046964,0.077754,0.014289,1.000000,-0.000439,-0.000006,-0.000422,0.645780,0.313627,0.565858,0.405476,79.323124,28.457290,87.993161
15783,-4.691109,8.000563,1.468687,-0.047978,-0.242444,-0.425916,-0.009377,0.013073,-0.092060,-0.046873,0.080028,0.014686,1.000000,-0.000047,0.000065,-0.000460,0.645943,0.313352,0.565987,0.405249,79.314749,28.503968,87.987283
15784,-4.687410,8.343139,1.583838,0.010130,-0.062538,-0.112981,0.069698,0.013610,-0.091100,-0.046835,0.083447,0.015871,1.000000,0.000348,0.000068,-0.000455,0.645980,0.313333,0.566275,0.404803,79.351724,28.550133,87.981777
15785,-4.632234,8.709535,1.674438,0.045734,0.172055,0.191593,0.080252,0.005444,-0.076106,-0.046289,0.087106,0.016781,1.000000,0.000401,0.000027,-0.000381,0.645991,0.313408,0.566535,0.404362,79.393296,28.587036,87.972971
15786,-4.563084,8.934741,1.697275,0.038798,0.345869,0.356430,0.070952,-0.008334,-0.045239,-0.045611,0.089352,0.017003,1.000000,0.000355,-0.000042,-0.000226,0.645995,0.313567,0.566682,0.404026,79.426911,28.605067,87.958956
15787,-4.554810,9.081339,1.623049,-0.055237,0.421063,0.466950,0.022702,-0.015009,-0.023290,-0.045539,0.090817,0.016237,1.000000,0.000114,-0.000075,-0.000116,0.646048,0.313647,0.566677,0.403886,79.432264,28.610064,87.943390
15788,-4.599919,9.065318,1.586446,-0.092017,0.372528,0.468792,-0.051285,0.004792,-0.012521,-0.045993,0.090660,0.015842,1.000000,-0.000256,0.000024,-0.000063,0.646140,0.313478,0.566569,0.404023,79.401750,28.611051,87.941718
15789,-4.743634,8.889487,1.508591,-0.148628,0.159435,0.373253,-0.052183,0.012112,-0.024335,-0.047425,0.088905,0.015066,1.000000,-0.000261,0.000061,-0.000122,0.646236,0.313258,0.566502,0.404135,79.372471,28.619461,87.943425
15790,-4.745944,8.778293,1.540302,-0.104758,0.108297,0.283462,-0.078586,0.005691,-0.037565,-0.047443,0.087798,0.015370,1.000000,-0.000393,0.000028,-0.000188,0.646418,0.312928,0.566380,0.404269,79.325142,28.634643,87.939306
15791,-4.757368,8.640214,1.469407,-0.161075,0.032322,0.158170,-0.128624,0.008765,-0.053507,-0.047550,0.086424,0.014641,1.000000,-0.000643,0.000044,-0.000268,0.646701,0.312385,0.566193,0.404498,79.249341,28.659113,87.935316
15792,-4.737864,8.405002,1.431411,-0.168567,-0.059542,-0.060335,-0.110430,0.011069,-0.072298,-0.047347,0.084075,0.014270,1.000000,-0.000552,0.000055,-0.000361,0.646988,0.311842,0.566078,0.404618,79.183362,28.694412,87.930362
15793,-4.672946,8.378426,1.505347,-0.096489,-0.004671,-0.102323,-0.064016,0.023233,-0.078917,-0.046695,0.083808,0.015032,1.000000,-0.000320,0.000116,-0.000395,0.647181,0.311407,0.566108,0.404604,79.147519,28.734734,87.932480
15794,-4.580446,8.316534,1.402997,-0.188399,0.047916,-0.217073,-0.051086,0.018726,-0.076981,-0.045771,0.083187,0.014013,1.000000,-0.000255,0.000094,-0.000385,0.647363,0.311027,0.566145,0.404553,79.117592,28.773489,87.931801
15795,-4.586092,8.240825,1.353093,-0.225836,0.009900,-0.287815,0.015384,0.027453,-0.064462,-0.045832,0.082422,0.013544,1.000000,0.000077,0.000137,-0.000322,0.647390,0.310881,0.566326,0.404368,79.129402,28.806134,87.938386
15796,-4.607025,8.277975,1.351019,-0.230240,0.013516,-0.245995,0.082272,0.023806,-0.042404,-0.046051,0.082784,0.013550,1.000000,0.000411,0.000119,-0.000212,0.647280,0.311021,0.566596,0.404059,79.179515,28.825980,87.945240
15797,-4.504029,8.391281,1.239089,-0.347438,0.153920,-0.216292,0.113965,0.033373,-0.018108,-0.045031,0.083910,0.012446,1.000000,0.000570,0.000167,-0.000091,0.647044,0.311314,0.566923,0.403753,79.252428,28.833159,87.961373
15798,-4.568268,8.366621,1.418210,-0.157204,0.095612,-0.176979,0.124249,0.048938,0.004719,-0.045681,0.083656,0.014245,1.000000,0.000621,0.000245,0.000024,0.646702,0.311672,0.567285,0.403516,79.337170,28.829136,87.990160
15799,-4.679373,8.369589,1.592598,0.024301,0.007907,-0.092490,0.162395,0.023938,0.005215,-0.046794,0.083682,0.016000,1.000000,0.000812,0.000120,0.000026,0.646369,0.312206,0.567643,0.403134,79.436291,28.822135,88.003073
15800,-4.748419,8.497141,1.573106,-0.001834,0.006593,0.047509,0.189782,0.046626,-0.005739,-0.047478,0.084958,0.015823,1.000000,0.000949,0.000233,-0.000029,0.645951,0.312750,0.568145,0.402673,79.557251,28.823673,88.029107
15801,-4.833874,8.482195,1.734554,0.174884,-0.066026,0.101327,0.173603,0.051402,-0.027938,-0.048322,0.084814,0.017432,1.000000,0.000868,0.000257,-0.000140,0.645588,0.313170,0.568665,0.402194,79.669413,28.838149,88.055747
15802,-4.845774,8.438361,1.652566,0.115015,-0.098432,0.056229,0.117658,0.039651,-0.060312,-0.048429,0.084388,0.016585,1.000000,0.000588,0.000198,-0.000302,0.645412,0.313340,0.569084,0.401751,79.743822,28.869654,88.070927
15803,-4.804004,8.373472,1.519234,0.004981,-0.093998,-0.040652,0.084218,0.034507,-0.083586,-0.048002,0.083748,0.015236,1.000000,0.000421,0.000173,-0.000418,0.645349,0.313347,0.569457,0.401319,79.796430,28.913730,88.080272
15804,-4.685393,8.386071,1.610292,0.104692,0.028056,-0.073059,0.102160,0.019276,-0.091047,-0.046814,0.083874,0.016150,1.000000,0.000511,0.000096,-0.000455,0.645317,0.313421,0.569827,0.400789,79.853948,28.960478,88.078855
15805,-4.574609,8.427577,1.684158,0.182059,0.155688,-0.079749,0.076820,0.020824,-0.075187,-0.045713,0.084286,0.016879,1.000000,0.000384,0.000104,-0.000376,0.645286,0.313455,0.570127,0.400384,79.898568,28.998425,88.080443
15806,-4.651111,8.372977,1.561265,0.072177,0.061755,-0.108662,0.028228,0.026460,-0.062819,-0.046483,0.083742,0.015631,1.000000,0.000141,0.000132,-0.000314,0.645293,0.313356,0.570327,0.400166,79.917581,29.029973,88.086976
15807,-4.636005,8.378846,1.330725,-0.155119,0.070645,-0.146283,-0.035074,0.041105,-0.051415,-0.046336,0.083803,0.013302,1.000000,-0.000175,0.000206,-0.000257,0.645332,0.313056,0.570431,0.400188,79.905773,29.056538,88.104402
15808,-4.774471,8.263790,1.481109,0.006857,-0.093634,-0.155013,-0.036948,0.079850,-0.043732,-0.047721,0.082651,0.014815,1.000000,-0.000185,0.000399,-0.000219,0.645250,0.312694,0.570643,0.400302,79.905257,29.082680,88.147588
15809,-4.875036,8.277669,1.548546,0.070353,-0.166597,-0.083810,0.027510,0.043656,-0.054212,-0.048725,0.082788,0.015507,1.000000,0.000138,0.000218,-0.000271,0.645190,0.312583,0.570885,0.400140,79.929977,29.111078,88.166355
15810,-4.791028,8.463080,1.365663,-0.132299,-0.008537,0.006942,0.060831,0.034988,-0.055387,-0.047884,0.084640,0.013691,1.000000,0.000304,0.000175,-0.000277,0.645106,0.312593,0.571166,0.399867,79.970792,29.139281,88.179280
15811,-4.772731,8.484654,1.386274,-0.109627,0.023455,0.019784,0.040443,0.027273,-0.052079,-0.047703,0.084856,0.013886,1.000000,0.000202,0.000136,-0.000260,0.645068,0.312562,0.571378,0.399650,79.997925,29.164829,88.187754
15812,-4.789245,8.444145,1.426033,-0.060419,-0.003979,-0.000942,0.041613,0.019103,-0.058514,-0.047866,0.084452,0.014282,1.000000,0.000208,0.000096,-0.000293,0.645065,0.312533,0.571574,0.399396,80.022581,29.193206,88.190098
15813,-4.814753,8.431938,1.445676,-0.033573,-0.025850,0.004012,0.096771,0.020481,-0.070440,-0.048116,0.084329,0.014502,1.000000,0.000484,0.000102,-0.000352,0.644995,0.312645,0.571905,0.398948,80.078860,29.228435,88.192141
15814,-4.876223,8.375066,1.443653,-0.020879,-0.100620,-0.015093,0.069965,0.024643,-0.086191,-0.048724,0.083767,0.014472,1.000000,0.000350,0.000123,-0.000431,0.644987,0.312617,0.572218,0.398533,80.120013,29.272977,88.194996
15815,-4.940777,8.177371,1.455553,0.026635,-0.244014,-0.151474,0.084135,0.016474,-0.112200,-0.049361,0.081795,0.014594,1.000000,0.000421,0.000082,-0.000561,0.645031,0.312577,0.572576,0.397979,80.165521,29.331388,88.189815
15816,-4.771546,8.122696,1.515487,0.107504,-0.110385,-0.272311,0.131814,0.005698,-0.118838,-0.047667,0.081245,0.015210,1.000000,0.000659,0.000028,-0.000594,0.645045,0.312692,0.573002,0.397252,80.234352,29.392510,88.176836
15817,-4.643768,8.192705,1.520801,0.117118,0.044532,-0.274233,0.156171,0.016825,-0.104692,-0.046394,0.081939,0.015276,1.000000,0.000781,0.000084,-0.000523,0.644960,0.312904,0.573491,0.396516,80.321714,29.446738,88.172865
15818,-4.604899,8.377672,1.545673,0.127950,0.178207,-0.131188,0.158903,0.023410,-0.091022,-0.046009,0.083785,0.015529,1.000000,0.000795,0.000117,-0.000455,0.644825,0.313151,0.573984,0.395828,80.413300,29.493878,88.174634
15819,-4.689817,8.650067,1.532907,0.085249,0.244227,0.142257,0.121891,0.060465,-0.070805,-0.046863,0.086508,0.015396,1.000000,0.000609,0.000302,-0.000354,0.644600,0.313263,0.574492,0.395368,80.496879,29.533108,88.202880
15820,-4.852636,8.847371,1.706122,0.232391,0.214058,0.416441,0.061080,0.043784,-0.057631,-0.048497,0.088482,0.017099,1.000000,0.000305,0.000219,-0.000288,0.644493,0.313250,0.574804,0.395100,80.540803,29.563296,88.221650
15821,-4.820078,9.147597,1.532061,0.017443,0.385766,0.632875,-0.054266,0.011337,-0.047348,-0.048178,0.091492,0.015299,1.000000,-0.000271,0.000057,-0.000237,0.644638,0.312959,0.574769,0.395144,80.509000,29.584590,88.220583
15822,-4.748946,9.013066,1.436480,-0.066050,0.380324,0.468474,-0.202870,0.040038,-0.034711,-0.047471,0.090153,0.014283,0.999999,-0.001014,0.000200,-0.000174,0.644909,0.312168,0.574511,0.395702,80.401724,29.601490,88.239394
15823,-4.886627,8.756218,1.616008,0.130643,0.147349,0.342270,-0.180795,0.035215,-0.039025,-0.048846,0.087586,0.016090,1.000000,-0.000904,0.000176,-0.000195,0.645167,0.311445,0.574289,0.396174,80.305510,29.620345,88.254690
15824,-4.924426,8.546743,1.458957,-0.008198,0.007738,0.158531,-0.172900,0.017085,-0.059144,-0.049218,0.085495,0.014520,1.000000,-0.000865,0.000085,-0.000296,0.645504,0.310725,0.574053,0.396531,80.206667,29.648873,88.255803
15825,-4.888024,8.049955,1.245177,-0.154667,-0.211061,-0.316554,-0.148672,0.015768,-0.072578,-0.048850,0.080527,0.012396,1.000000,-0.000743,0.000079,-0.000363,0.645833,0.310049,0.573883,0.396772,80.120710,29.684805,88.254618
15826,-4.833743,7.652320,1.302644,-0.041190,-0.349509,-0.675067,-0.023188,0.016599,-0.100276,-0.048298,0.076549,0.013022,1.000000,-0.000116,0.000083,-0.000501,0.646021,0.309695,0.574006,0.396564,80.105141,29.736504,88.250675
15827,-4.779091,7.657018,1.348015,0.008607,-0.288972,-0.691109,0.140440,0.008233,-0.105876,-0.047750,0.076586,0.013536,1.000000,0.000702,0.000041,-0.000529,0.645989,0.309870,0.574436,0.395856,80.180529,29.790513,88.240814
15828,-4.735800,8.114339,1.236962,-0.159216,-0.023227,-0.337748,0.168660,0.002499,-0.097542,-0.047318,0.081156,0.012439,1.000000,0.000843,0.000012,-0.000488,0.645913,0.310172,0.574889,0.395085,80.270520,29.839304,88.228115
15829,-4.752847,8.352108,1.532856,0.111048,0.102532,-0.082629,0.200547,0.011097,-0.078127,-0.047495,0.083524,0.015415,0.999999,0.001003,0.000055,-0.000391,0.645724,0.310615,0.575403,0.394297,80.382896,29.877954,88.223392
15830,-4.876814,8.761468,1.810398,0.337636,0.217840,0.368800,0.214476,0.005984,-0.061216,-0.048741,0.087610,0.018199,0.999999,0.001072,0.000030,-0.000306,0.645494,0.311161,0.575900,0.393515,80.502343,29.906593,88.217153
15831,-5.016239,8.927215,1.626746,0.139231,0.174020,0.553337,0.051213,0.008857,-0.052214,-0.050138,0.089281,0.016293,1.000000,0.000256,0.000044,-0.000261,0.645492,0.311201,0.576072,0.393237,80.529885,29.930391,88.213928
15832,-5.023771,8.806319,1.510870,0.042221,0.105225,0.437162,-0.053340,0.005367,-0.042734,-0.050218,0.088078,0.015087,1.000000,-0.000267,0.000027,-0.000214,0.645644,0.310937,0.576011,0.393285,80.496703,29.948534,88.209338
15833,-4.903711,8.839589,1.287835,-0.189192,0.217573,0.373582,-0.162790,0.032427,-0.036390,-0.049019,0.088415,0.012814,1.000000,-0.000814,0.000162,-0.000182,0.645874,0.310285,0.575813,0.393711,80.410148,29.965617,88.223185
15834,-4.947214,8.850002,1.278543,-0.216657,0.187905,0.402490,-0.215656,0.044575,-0.034796,-0.049454,0.088522,0.012701,0.999999,-0.001078,0.000223,-0.000174,0.646149,0.309443,0.575546,0.394313,80.297147,29.983029,88.244981
15835,-4.916722,8.836997,1.431513,-0.080784,0.219984,0.398138,-0.210243,0.017906,-0.048022,-0.049145,0.088397,0.014227,0.999999,-0.001051,0.000090,-0.000240,0.646517,0.308632,0.575225,0.394815,80.178006,30.005301,88.247997
15836,-4.855854,8.454911,1.261459,-0.207779,0.077939,0.016190,-0.260395,0.026590,-0.057283,-0.048533,0.084579,0.012511,0.999999,-0.001302,0.000133,-0.000286,0.646955,0.307615,0.574845,0.395443,80.032203,30.033716,88.255435
15837,-4.822861,8.002115,1.287544,-0.126623,-0.111971,-0.382787,-0.159061,0.023555,-0.068350,-0.048200,0.080048,0.012817,1.000000,-0.000795,0.000118,-0.000342,0.647267,0.306900,0.574673,0.395740,79.943018,30.068021,88.259690
15838,-4.825385,7.888998,1.321340,-0.082710,-0.162618,-0.472812,-0.032715,0.020238,-0.072755,-0.048224,0.078910,0.013205,1.000000,-0.000164,0.000101,-0.000364,0.647403,0.306586,0.574745,0.395654,79.924653,30.104548,88.261104
15839,-4.876353,7.820345,1.303359,-0.088308,-0.236283,-0.508295,0.090717,0.017792,-0.069486,-0.048735,0.078214,0.013073,1.000000,0.000454,0.000089,-0.000347,0.647349,0.306688,0.575050,0.395220,79.976629,30.138930,88.261449
15840,-4.910756,7.958439,1.325900,-0.078066,-0.190833,-0.369819,0.190268,-0.005832,-0.063802,-0.049083,0.079587,0.013333,0.999999,0.000951,-0.000029,-0.000319,0.647201,0.307173,0.575465,0.394482,80.078030,30.167816,88.246946
15841,-4.766727,8.242955,1.285485,-0.143210,0.077480,-0.205714,0.209452,-0.000707,-0.050231,-0.047647,0.082428,0.012941,0.999999,0.001047,-0.000004,-0.000251,0.646979,0.307750,0.575914,0.393739,80.193133,30.189527,88.237529
15842,-4.788507,8.577562,1.499745,0.032635,0.240040,0.121843,0.184094,0.020072,-0.021229,-0.047874,0.085767,0.015081,1.000000,0.000920,0.000100,-0.000106,0.646680,0.308287,0.576334,0.393196,80.301965,30.196935,88.244853
15843,-4.842796,8.868042,1.696958,0.194350,0.349699,0.425205,0.084090,0.038172,-0.007598,-0.048421,0.088675,0.017016,1.000000,0.000420,0.000191,-0.000038,0.646455,0.308504,0.576596,0.393012,80.360452,30.198325,88.265678
15844,-4.949913,9.016271,1.515210,-0.008878,0.321026,0.579016,-0.076418,0.034225,0.004840,-0.049499,0.090167,0.015126,1.000000,-0.000382,0.000171,0.000024,0.646465,0.308246,0.576509,0.393325,80.326139,30.192358,88.285163
15845,-4.923981,8.947868,1.541376,0.017376,0.309869,0.511529,-0.184844,0.023858,0.002772,-0.049239,0.089492,0.015337,1.000000,-0.000924,0.000119,0.000014,0.646675,0.307652,0.576179,0.393928,80.226407,30.186500,88.297792
15846,-4.932215,8.833109,1.553760,0.029440,0.245946,0.419778,-0.231921,0.032723,-0.003797,-0.049318,0.088350,0.015443,0.999999,-0.001160,0.000164,-0.000019,0.646945,0.306868,0.575794,0.394658,80.102019,30.185315,88.315338
15847,-4.864001,8.606253,1.424386,-0.082164,0.184851,0.173003,-0.278784,0.033626,-0.014337,-0.048631,0.086086,0.014132,0.999999,-0.001394,0.000168,-0.000072,0.647303,0.305901,0.575335,0.395490,79.950695,30.190108,88.332408
15848,-4.847626,8.373281,1.275929,-0.212102,0.075505,-0.056223,-0.242086,0.037430,-0.025052,-0.048463,0.083754,0.012667,0.999999,-0.001210,0.000187,-0.000125,0.647615,0.305013,0.574976,0.396187,79.820790,30.201459,88.350560
15849,-4.828798,8.082347,1.327382,-0.129171,-0.047773,-0.305606,-0.162527,0.039316,-0.039784,-0.048269,0.080844,0.013218,1.000000,-0.000813,0.000197,-0.000199,0.647828,0.304338,0.574803,0.396610,79.736445,30.221234,88.368336
15850,-4.995464,7.827561,1.448236,0.021934,-0.308000,-0.419742,-0.011626,0.040328,-0.046846,-0.049933,0.078288,0.014488,1.000000,-0.000058,0.000202,-0.000234,0.647823,0.304127,0.574942,0.396577,79.738237,30.245209,88.385778
15851,-4.943816,7.912442,1.451890,0.018130,-0.216761,-0.372946,0.120524,0.019919,-0.053850,-0.049415,0.079129,0.014572,1.000000,0.000603,0.000100,-0.000269,0.647688,0.304366,0.575289,0.396111,79.808871,30.270957,88.389242
15852,-4.859021,8.147726,1.532963,0.075000,-0.017642,-0.203341,0.190277,0.023038,-0.035832,-0.048574,0.081471,0.015413,1.000000,0.000951,0.000115,-0.000179,0.647403,0.304875,0.575755,0.395507,79.921347,30.286942,88.396747
15853,-4.839447,8.551922,1.674560,0.165383,0.211312,0.151636,0.164841,0.004424,-0.011717,-0.048389,0.085508,0.016817,1.000000,0.000824,0.000022,-0.000059,0.647161,0.305409,0.576074,0.395026,80.014772,30.287370,88.395056
15854,-4.815059,8.680248,1.553045,0.034764,0.288058,0.230184,0.049258,0.002120,0.010796,-0.048155,0.086796,0.015552,1.000000,0.000246,0.000011,0.000054,0.647059,0.305637,0.576123,0.394947,80.042285,30.274950,88.394302
15855,-4.973978,8.807625,1.594669,0.053692,0.214581,0.424927,-0.012530,0.019382,0.020737,-0.049747,0.088072,0.015946,1.000000,-0.000063,0.000097,0.000104,0.646981,0.305661,0.576090,0.395104,80.040878,30.258530,88.406105
15856,-5.092396,8.814607,1.606160,0.053206,0.114605,0.492338,-0.173107,0.008966,0.003928,-0.050925,0.088159,0.015988,1.000000,-0.000866,0.000045,0.000020,0.647212,0.305136,0.575731,0.395654,79.942845,30.250666,88.409040
15857,-5.061279,8.517983,1.347605,-0.172732,-0.023244,0.185223,-0.271284,0.010730,-0.005249,-0.050610,0.085199,0.013363,0.999999,-0.001356,0.000054,-0.000026,0.647604,0.304265,0.575198,0.396458,79.788831,30.248049,88.412216
15858,-4.915776,8.353650,1.279571,-0.233533,0.016100,-0.038702,-0.294073,0.007503,-0.010765,-0.049153,0.083558,0.012675,0.999999,-0.001470,0.000038,-0.000054,0.648051,0.303308,0.574615,0.397305,79.620153,30.248331,88.412500
15859,-4.742216,8.203421,1.417753,-0.089700,0.099666,-0.232669,-0.221576,0.011247,-0.003579,-0.047420,0.082051,0.014089,0.999999,-0.001108,0.000056,-0.000018,0.648360,0.302600,0.574178,0.397972,79.494914,30.244843,88.416238
15860,-4.783323,8.318429,1.475466,-0.070665,0.124992,-0.105329,-0.197130,0.005745,0.000693,-0.047833,0.083199,0.014674,1.000000,-0.000986,0.000029,0.000003,0.648641,0.301993,0.573764,0.398573,79.381904,30.238488,88.416767
15861,-4.878269,7.793266,1.474579,0.000439,-0.219902,-0.503632,-0.181125,0.015094,-0.005932,-0.048779,0.077947,0.014679,1.000000,-0.000906,0.000075,-0.000030,0.648881,0.301402,0.573422,0.399121,79.280972,30.236738,88.422743
15862,-5.026304,7.366236,1.509320,0.099686,-0.558074,-0.785959,0.046699,0.018507,-0.025584,-0.050252,0.073665,0.015115,1.000000,0.000233,0.000093,-0.000128,0.648809,0.301485,0.573574,0.398957,79.310233,30.246535,88.428370
15863,-5.057112,7.640082,1.613790,0.165855,-0.439359,-0.521349,0.239911,-0.000042,-0.036644,-0.050557,0.076391,0.016230,0.999999,0.001200,-0.000000,-0.000183,0.648519,0.302201,0.574069,0.398174,79.443668,30.260506,88.420716
15864,-4.967718,8.079496,1.706919,0.206766,-0.135102,-0.178945,0.320655,-0.021058,-0.035087,-0.049665,0.080776,0.017193,0.999999,0.001603,-0.000105,-0.000175,0.648165,0.303223,0.574652,0.397132,79.616335,30.271518,88.399436
15865,-4.990077,8.639517,1.804848,0.235094,0.132745,0.322728,0.319620,-0.032907,-0.032654,-0.049890,0.086374,0.018178,0.999999,0.001598,-0.000165,-0.000163,0.647838,0.304273,0.575190,0.396082,79.784889,30.279930,88.370882
15866,-5.034775,8.864537,1.888133,0.300615,0.212820,0.548699,0.199798,-0.023163,-0.036423,-0.050334,0.088636,0.018964,0.999999,0.000999,-0.000116,-0.000182,0.647673,0.304903,0.575526,0.395379,79.887564,30.291581,88.348134
15867,-5.036336,8.982577,1.993052,0.396930,0.278636,0.665310,0.098604,-0.023177,-0.041047,-0.050347,0.089826,0.019969,1.000000,0.000493,-0.000116,-0.000205,0.647669,0.305192,0.575670,0.394951,79.932183,30.305783,88.324977
15868,-4.955923,9.103199,1.881214,0.266415,0.404715,0.710315,-0.128820,-0.009886,-0.042518,-0.049541,0.091055,0.018751,1.000000,-0.000644,-0.000049,-0.000213,0.647979,0.304714,0.575408,0.395194,79.850588,30.322226,88.310202
15869,-4.975698,8.775422,1.732319,0.153624,0.218007,0.419388,-0.255739,-0.004357,-0.044954,-0.049738,0.087787,0.017210,0.999999,-0.001279,-0.000022,-0.000225,0.648469,0.303807,0.574918,0.395802,79.698096,30.340472,88.298819
15870,-4.868507,8.533095,1.628435,0.069313,0.186280,0.143633,-0.271714,-0.017845,-0.042509,-0.048668,0.085363,0.016164,0.999999,-0.001359,-0.000089,-0.000213,0.649017,0.302881,0.574347,0.396442,79.531946,30.356027,88.278750
15871,-4.796476,8.197486,1.526078,0.002108,0.076688,-0.193543,-0.262518,-0.017183,-0.038527,-0.047950,0.082004,0.015149,0.999999,-0.001313,-0.000086,-0.000193,0.649539,0.301995,0.573789,0.397070,79.371655,30.369237,88.259648
15872,-4.858069,7.921767,1.479022,-0.019428,-0.115304,-0.403701,-0.190639,-0.027315,-0.035772,-0.048569,0.079240,0.014708,1.000000,-0.000953,-0.000137,-0.000179,0.649976,0.301369,0.573336,0.397484,79.249194,30.379900,88.234128
15873,-4.838997,7.807692,1.437458,-0.052639,-0.156912,-0.516729,-0.074329,-0.021375,-0.030984,-0.048379,0.078090,0.014340,1.000000,-0.000372,-0.000107,-0.000155,0.650210,0.301124,0.573127,0.397589,79.195779,30.388351,88.213161
15874,-4.935365,7.868311,1.484862,-0.020768,-0.205333,-0.408945,0.069486,-0.025452,-0.025332,-0.049346,0.078684,0.014870,1.000000,0.000347,-0.000127,-0.000127,0.650229,0.301369,0.573181,0.397294,79.223610,30.393298,88.190129
15875,-4.965026,8.246053,1.454845,-0.107960,-0.042199,-0.078624,0.162427,-0.026256,-0.027353,-0.049641,0.082455,0.014609,1.000000,0.000812,-0.000131,-0.000137,0.650113,0.301914,0.573420,0.396725,79.304463,30.399212,88.166431
15876,-5.104883,8.566541,1.519414,-0.091660,0.003367,0.274218,0.133920,-0.022432,-0.028772,-0.051038,0.085663,0.015246,1.000000,0.000670,-0.000112,-0.000144,0.650032,0.302353,0.573616,0.396238,79.369997,30.406460,88.144957
15877,-5.009382,8.481294,1.593467,0.007319,0.048573,0.165437,0.120555,-0.037713,-0.036188,-0.050081,0.084812,0.015976,1.000000,0.000603,-0.000189,-0.000181,0.650029,0.302758,0.573748,0.395743,79.422534,30.416191,88.112715
15878,-4.839970,8.566141,1.500760,-0.086969,0.233090,0.136909,0.077197,-0.026612,-0.031391,-0.048388,0.085663,0.015034,1.000000,0.000386,-0.000133,-0.000157,0.650051,0.303013,0.573822,0.395404,79.454024,30.424510,88.088203
15879,-4.857051,8.427917,1.587810,0.024757,0.155280,0.042115,0.029593,-0.003620,-0.026893,-0.048559,0.084283,0.015890,1.000000,0.000148,-0.000018,-0.000134,0.650069,0.303082,0.573871,0.395251,79.466294,30.432600,88.079372
15880,-4.910496,8.249495,1.564823,0.031468,0.019320,-0.085691,0.020824,-0.011274,-0.028644,-0.049094,0.082500,0.015654,1.000000,0.000104,-0.000056,-0.000143,0.650127,0.303132,0.573879,0.395106,79.470725,30.440988,88.065216
15881,-4.868887,8.179751,1.500080,-0.019385,0.017279,-0.176093,0.007526,-0.011091,-0.022611,-0.048680,0.081802,0.015001,1.000000,0.000038,-0.000055,-0.000113,0.650191,0.303156,0.573853,0.395019,79.468136,30.445878,88.052023
15882,-4.873648,8.233557,1.587067,0.058055,0.045721,-0.114377,0.030087,-0.005467,-0.010128,-0.048733,0.082336,0.015882,1.000000,0.000150,-0.000027,-0.000051,0.650182,0.303277,0.573871,0.394916,79.480934,30.444445,88.043909
15883,-4.915944,8.369606,1.588121,0.036348,0.077213,0.022538,0.022274,-0.029292,-0.006158,-0.049159,0.083696,0.015883,1.000000,0.000111,-0.000146,-0.000031,0.650244,0.303432,0.573790,0.394813,79.481782,30.438165,88.020819
15884,-4.963582,8.289993,1.521335,-0.019473,-0.008357,-0.031320,-0.022023,-0.025399,-0.016259,-0.049631,0.082906,0.015198,1.000000,-0.000110,-0.000127,-0.000081,0.650383,0.303406,0.573649,0.394810,79.457750,30.438097,87.998938
15885,-4.989048,8.166270,1.340700,-0.180106,-0.102559,-0.151782,0.000745,-0.012788,-0.026362,-0.049881,0.081669,0.013404,1.000000,0.000004,-0.000064,-0.000132,0.650470,0.303401,0.573609,0.394727,79.450477,30.444912,87.984177
15886,-5.130250,8.192821,1.585357,0.055524,-0.195164,-0.019120,0.097641,-0.005604,-0.032544,-0.051290,0.081929,0.015892,1.000000,0.000488,-0.000028,-0.000163,0.650402,0.303678,0.573793,0.394358,79.500555,30.456092,87.973251
15887,-5.072790,8.324218,1.652631,0.111296,-0.073535,0.073626,0.163528,-0.039520,-0.048608,-0.050711,0.083241,0.016584,1.000000,0.000818,-0.000198,-0.000243,0.650362,0.304190,0.574022,0.393695,79.576337,30.472697,87.938341
15888,-4.929667,8.506294,1.556707,-0.000135,0.139335,0.140331,0.090164,-0.032966,-0.058290,-0.049274,0.085070,0.015597,1.000000,0.000451,-0.000165,-0.000291,0.650435,0.304423,0.574141,0.393222,79.611492,30.495573,87.906454
15889,-4.865515,8.472696,1.569166,0.022168,0.182309,0.081167,0.013487,-0.020233,-0.059481,-0.048632,0.084740,0.015692,1.000000,0.000067,-0.000101,-0.000297,0.650589,0.304378,0.574153,0.392984,79.607027,30.520340,87.882861
15890,-4.993865,8.530469,1.663723,0.099237,0.111565,0.209950,-0.053764,0.006739,-0.071987,-0.049907,0.085327,0.016616,1.000000,-0.000269,0.000034,-0.000360,0.650793,0.304025,0.574139,0.392939,79.572044,30.555044,87.875286
15891,-5.082781,8.387683,1.530223,-0.020901,-0.038651,0.113416,-0.137779,-0.003312,-0.066865,-0.050800,0.083904,0.015244,1.000000,-0.000689,-0.000017,-0.000334,0.651143,0.303434,0.573920,0.393137,79.486029,30.585681,87.861814
15892,-4.907202,8.184602,1.568150,0.045440,0.016019,-0.141849,-0.072496,-0.012806,-0.043151,-0.049055,0.081862,0.015649,1.000000,-0.000362,-0.000064,-0.000216,0.651375,0.303141,0.573762,0.393209,79.435536,30.602078,87.844864
15893,-4.806485,8.281761,1.507739,-0.030647,0.149946,-0.120437,-0.000151,-0.001059,-0.010391,-0.048061,0.082820,0.015077,1.000000,-0.000001,-0.000005,-0.000052,0.651398,0.303155,0.573734,0.393200,79.432593,30.601131,87.839698
15894,-4.940600,8.218577,1.742980,0.208531,0.014592,-0.068519,0.053681,-0.026351,0.004964,-0.049410,0.082180,0.017445,1.000000,0.000268,-0.000132,0.000025,0.651383,0.303438,0.573707,0.393047,79.452866,30.589001,87.819747
15895,-4.819119,8.249013,1.455891,-0.072565,0.115995,-0.149819,0.063732,-0.042747,0.008475,-0.048198,0.082483,0.014575,1.000000,0.000319,-0.000214,0.000042,0.651392,0.303796,0.573641,0.392852,79.473818,30.573052,87.789590
15896,-4.783507,8.278146,1.509945,-0.017987,0.160962,-0.134706,0.084148,-0.003728,0.027918,-0.047847,0.082768,0.015133,1.000000,0.000421,-0.000019,0.000140,0.651221,0.304199,0.573712,0.392720,79.520496,30.550370,87.787217
15897,-4.876227,8.410942,1.688668,0.141623,0.153539,0.052884,0.117675,-0.013257,0.034066,-0.048778,0.084091,0.016933,1.000000,0.000588,-0.000066,0.000170,0.651012,0.304749,0.573808,0.392499,79.583733,30.523098,87.779434
15898,-5.047243,8.436740,1.537075,-0.009025,0.006027,0.137977,0.112045,-0.024642,0.035096,-0.050489,0.084350,0.015412,1.000000,0.000560,-0.000123,0.000175,0.650844,0.305304,0.573855,0.392279,79.639862,30.494214,87.764191
15899,-5.173625,8.390306,1.613637,0.080421,-0.127132,0.174545,0.177843,-0.033710,0.020891,-0.051748,0.083883,0.016202,1.000000,0.000889,-0.000169,0.000104,0.650627,0.306051,0.574022,0.391810,79.729959,30.472284,87.741388
15900,-5.111931,8.474770,1.498278,-0.032355,-0.040436,0.197093,0.170537,-0.054640,-0.005751,-0.051121,0.084736,0.015041,1.000000,0.000853,-0.000273,-0.000029,0.650535,0.306738,0.574148,0.391243,79.807172,30.463414,87.701612
15901,-4.947238,8.738071,1.512483,-0.042892,0.234589,0.339148,0.137663,-0.024152,-0.026100,-0.049463,0.087377,0.015179,1.000000,0.000688,-0.000121,-0.000130,0.650444,0.307201,0.574339,0.390750,79.874596,30.469019,87.679488
15902,-4.852327,8.911065,1.694791,0.117892,0.414020,0.465404,-0.007241,-0.012962,-0.030694,-0.048511,0.089119,0.016942,1.000000,-0.000036,-0.000065,-0.000153,0.650553,0.307156,0.574290,0.390676,79.862289,30.478478,87.664051
15903,-4.839175,8.514463,1.644563,0.122617,0.224444,0.114692,-0.145388,-0.017062,-0.037658,-0.048377,0.085166,0.016380,1.000000,-0.000727,-0.000085,-0.000188,0.650898,0.306651,0.573968,0.390970,79.769185,30.491277,87.645200
15904,-4.757039,8.034570,1.437323,-0.018526,0.044479,-0.365609,-0.190856,0.006462,-0.027800,-0.047559,0.080366,0.014298,1.000000,-0.000954,0.000032,-0.000139,0.651227,0.305979,0.573619,0.391462,79.658276,30.501056,87.642781
15905,-4.896327,7.685433,1.476229,0.058697,-0.248871,-0.584808,-0.095052,0.003057,-0.013195,-0.048958,0.076865,0.014727,1.000000,-0.000475,0.000015,-0.000066,0.651389,0.305668,0.573423,0.391721,79.602145,30.502082,87.639963
15906,-4.951215,7.732517,1.548785,0.117651,-0.269033,-0.505762,0.044900,-0.036598,-0.004005,-0.049513,0.077323,0.015496,1.000000,0.000224,-0.000183,-0.000020,0.651433,0.305916,0.573358,0.391548,79.613459,30.493997,87.612214
15907,-4.968309,7.856373,1.447371,0.000475,-0.227695,-0.407916,0.091510,-0.038396,-0.004109,-0.049684,0.078558,0.014500,1.000000,0.000458,-0.000192,-0.000021,0.651411,0.306320,0.573379,0.391239,79.651009,30.485645,87.583363
