// General information: 
//  MT Manager version: 2022.0.0 
//  XDA version: 2022.0.0 build 7085 rev 119802 built on 2022-11-08
// Device information: 
//  DeviceId: 00B472EC
//  ProductCode: MTW2-3A7G6
//  Firmware Version: 4.4.0
//  Hardware Version: 2.0.0
// Device settings: 
//  Filter Profile: human(46.1)
//  Option Flags: Orientation Smoother Disabled, Position/Velocity Smoother Disabled, Continuous Zero Rotation Update Disabled, AHS Disabled, ICC Disabled
// Coordinate system: ENU
PacketCounter,Acc_X,Acc_Y,Acc_Z,FreeAcc_E,FreeAcc_N,FreeAcc_U,Gyr_X,Gyr_Y,Gyr_Z,VelInc_X,VelInc_Y,VelInc_Z,OriInc_q0,OriInc_q1,OriInc_q2,OriInc_q3,Quat_q0,Quat_q1,Quat_q2,Quat_q3,Roll,Pitch,Yaw
27086,-9.561993,-0.487846,-1.524807,0.041554,0.013855,-0.117698,0.000826,0.004696,-0.047895,-0.095621,-0.004855,-0.015246,1.000000,0.000004,0.000023,-0.000239,0.646939,-0.007785,0.762006,-0.027503,-162.148863,80.235912,-163.752472
27087,-9.564440,-0.457306,-1.456413,0.110077,0.045729,-0.127928,-0.010482,0.002916,-0.046086,-0.095646,-0.004552,-0.014562,1.000000,-0.000052,0.000015,-0.000230,0.646945,-0.007960,0.761997,-0.027575,-162.038616,80.231177,-163.633887
27088,-9.530319,-0.525172,-1.527177,0.033124,-0.018061,-0.146580,-0.017448,0.004757,-0.048111,-0.095305,-0.005230,-0.015269,1.000000,-0.000087,0.000024,-0.000241,0.646942,-0.008161,0.761994,-0.027633,-161.926629,80.224898,-163.510239
27089,-9.527488,-0.546098,-1.545009,0.014789,-0.035752,-0.145382,-0.036800,0.006059,-0.039441,-0.095276,-0.005445,-0.015446,1.000000,-0.000184,0.000030,-0.000197,0.646936,-0.008394,0.761999,-0.027585,-161.855851,80.219547,-163.416524
27090,-9.533842,-0.639244,-1.561042,-0.001889,-0.125532,-0.131579,-0.033521,0.004146,-0.042138,-0.095340,-0.006375,-0.015607,1.000000,-0.000168,0.000021,-0.000211,0.646936,-0.008625,0.761998,-0.027562,-161.771545,80.214606,-163.311615
27091,-9.517020,-0.603626,-1.563513,-0.006001,-0.088412,-0.149627,-0.025106,0.007568,-0.036420,-0.095172,-0.006021,-0.015631,1.000000,-0.000126,0.000038,-0.000182,0.646925,-0.008809,0.762005,-0.027548,-161.705191,80.208974,-163.229189
27092,-9.511609,-0.640947,-1.598723,-0.042074,-0.122785,-0.147255,-0.016594,0.007318,-0.033869,-0.095118,-0.006395,-0.015983,1.000000,-0.000083,0.000037,-0.000169,0.646914,-0.008953,0.762012,-0.027563,-161.640739,80.203754,-163.154266
27093,-9.544982,-0.598269,-1.580678,-0.017647,-0.077016,-0.119550,0.001835,0.006714,-0.032235,-0.095451,-0.005967,-0.015804,1.000000,0.000009,0.000034,-0.000161,0.646907,-0.009029,0.762014,-0.027644,-161.571250,80.199150,-163.085234
27094,-9.525984,-0.561651,-1.548702,0.011889,-0.040452,-0.145396,0.006977,0.009787,-0.026404,-0.095261,-0.005603,-0.015483,1.000000,0.000035,0.000049,-0.000132,0.646889,-0.009068,0.762026,-0.027725,-161.519508,80.193913,-163.036913
27095,-9.552069,-0.552420,-1.530572,0.034443,-0.028746,-0.123115,0.008874,0.005727,-0.028211,-0.095522,-0.005510,-0.015303,1.000000,0.000044,0.000029,-0.000141,0.646887,-0.009108,0.762024,-0.027816,-161.458107,80.190595,-162.979622
27096,-9.535398,-0.516262,-1.532845,0.030357,0.008419,-0.141133,0.005509,0.006786,-0.027517,-0.095355,-0.005149,-0.015325,1.000000,0.000028,0.000034,-0.000138,0.646880,-0.009157,0.762026,-0.027895,-161.400644,80.186769,-162.924640
27097,-9.532570,-0.535971,-1.550759,0.012028,-0.009268,-0.139954,-0.004494,0.008549,-0.026016,-0.095327,-0.005348,-0.015503,1.000000,-0.000022,0.000043,-0.000130,0.646867,-0.009233,0.762035,-0.027928,-161.356700,80.182335,-162.877199
27098,-9.532314,-0.538249,-1.551543,0.011450,-0.010196,-0.139954,-0.004169,0.007422,-0.023184,-0.095324,-0.005372,-0.015512,1.000000,-0.000021,0.000037,-0.000116,0.646858,-0.009296,0.762041,-0.027956,-161.319124,80.178943,-162.836772
27099,-9.543302,-0.613410,-1.585010,-0.021132,-0.082698,-0.119604,-0.007293,0.008765,-0.019074,-0.095434,-0.006126,-0.015846,1.000000,-0.000036,0.000044,-0.000095,0.646845,-0.009353,0.762051,-0.027957,-161.298559,80.175670,-162.811612
27100,-9.535624,-0.648978,-1.585844,-0.023582,-0.117668,-0.125077,0.007446,0.010361,-0.019572,-0.095358,-0.006480,-0.015854,1.000000,0.000037,0.000052,-0.000098,0.646826,-0.009365,0.762065,-0.028018,-161.268813,80.171341,-162.785884
27101,-9.514167,-0.628555,-1.571032,-0.011793,-0.097832,-0.149723,0.019577,0.007090,-0.016879,-0.095143,-0.006276,-0.015708,1.000000,0.000098,0.000035,-0.000084,0.646821,-0.009325,0.762066,-0.028116,-161.237691,80.169374,-162.765909
27102,-9.528804,-0.562923,-1.571705,-0.008628,-0.030681,-0.138793,0.029894,0.006467,-0.012963,-0.095289,-0.005621,-0.015715,1.000000,0.000149,0.000032,-0.000065,0.646819,-0.009240,0.762064,-0.028241,-161.211667,80.168372,-162.757011
27103,-9.526397,-0.564195,-1.537690,0.024421,-0.032237,-0.146591,0.029652,0.006180,-0.016380,-0.095265,-0.005632,-0.015375,1.000000,0.000148,0.000031,-0.000082,0.646818,-0.009168,0.762061,-0.028373,-161.175870,80.166969,-162.737758
27104,-9.549993,-0.571089,-1.536662,0.029209,-0.037236,-0.123126,0.024875,0.009607,-0.009632,-0.095501,-0.005704,-0.015363,1.000000,0.000124,0.000048,-0.000048,0.646804,-0.009086,0.762071,-0.028468,-161.166500,80.164878,-162.742845
27105,-9.523781,-0.566540,-1.504612,0.056897,-0.034704,-0.154386,0.024874,0.009607,-0.009632,-0.095239,-0.005659,-0.015042,1.000000,0.000124,0.000048,-0.000048,0.646790,-0.008999,0.762080,-0.028565,-161.157695,80.162809,-162.748952
27106,-9.523202,-0.585495,-1.556954,0.004935,-0.051757,-0.145444,0.018487,0.008333,-0.007995,-0.095233,-0.005850,-0.015566,1.000000,0.000092,0.000042,-0.000040,0.646781,-0.008931,0.762086,-0.028630,-161.155745,80.161712,-162.757854
27107,-9.533072,-0.535577,-1.540663,0.023982,-0.001953,-0.141112,0.020198,0.009361,-0.006052,-0.095332,-0.005351,-0.015403,1.000000,0.000101,0.000047,-0.000030,0.646768,-0.008848,0.762095,-0.028695,-161.160875,80.160457,-162.775022
27108,-9.521354,-0.481100,-1.560564,0.004036,0.052551,-0.152449,0.019870,0.010484,-0.008885,-0.095215,-0.004805,-0.015601,1.000000,0.000099,0.000052,-0.000044,0.646751,-0.008779,0.762108,-0.028769,-161.157644,80.158029,-162.783429
27109,-9.571350,-0.475515,-1.541053,0.031919,0.060151,-0.106655,0.021669,0.010101,-0.007524,-0.095714,-0.004750,-0.015406,1.000000,0.000108,0.000051,-0.000038,0.646736,-0.008699,0.762119,-0.028842,-161.158110,80.156165,-162.796346
27110,-9.523570,-0.466165,-1.545196,0.020625,0.067391,-0.153580,0.016429,0.010689,-0.010192,-0.095237,-0.004656,-0.015447,1.000000,0.000082,0.000053,-0.000051,0.646717,-0.008646,0.762133,-0.028907,-161.152981,80.153384,-162.800825
27111,-9.561610,-0.423100,-1.596465,-0.022240,0.114294,-0.110186,0.014628,0.011072,-0.011555,-0.095617,-0.004224,-0.015960,1.000000,0.000073,0.000055,-0.000058,0.646697,-0.008602,0.762148,-0.028968,-161.145870,80.150200,-162.802249
27112,-9.533205,-0.418000,-1.530153,0.039094,0.116268,-0.149197,0.011115,0.010425,-0.014861,-0.095333,-0.004172,-0.015297,1.000000,0.000056,0.000052,-0.000074,0.646679,-0.008584,0.762162,-0.029027,-161.128931,80.146698,-162.791651
27113,-9.528131,-0.436126,-1.513957,0.054384,0.098001,-0.155825,0.004060,0.013659,-0.016312,-0.095283,-0.004353,-0.015133,1.000000,0.000020,0.000068,-0.000082,0.646648,-0.008594,0.762186,-0.029062,-161.115735,80.141295,-162.780480
27114,-9.565328,-0.499110,-1.528969,0.044881,0.038134,-0.113260,-0.000852,0.013124,-0.016148,-0.095655,-0.004983,-0.015283,1.000000,-0.000004,0.000066,-0.000081,0.646619,-0.008619,0.762210,-0.029081,-161.104539,80.136090,-162.768752
27115,-9.564586,-0.518569,-1.581773,-0.007092,0.021051,-0.104354,-0.002563,0.012093,-0.018092,-0.095647,-0.005177,-0.015812,1.000000,-0.000013,0.000060,-0.000090,0.646593,-0.008656,0.762231,-0.029098,-161.088030,80.131140,-162.750638
27116,-9.540496,-0.515156,-1.584610,-0.013021,0.024220,-0.127818,0.000381,0.013573,-0.021035,-0.095407,-0.005141,-0.015840,1.000000,0.000002,0.000068,-0.000105,0.646561,-0.008695,0.762256,-0.029136,-161.061416,80.124782,-162.723977
27117,-9.514219,-0.511119,-1.553078,0.014680,0.026772,-0.159050,0.005528,0.014400,-0.017783,-0.095144,-0.005102,-0.015524,1.000000,0.000028,0.000072,-0.000089,0.646528,-0.008706,0.762283,-0.029181,-161.043800,80.118680,-162.709151
27118,-9.571157,-0.490480,-1.585650,-0.006971,0.052261,-0.098825,0.004161,0.009983,-0.019475,-0.095713,-0.004895,-0.015852,1.000000,0.000021,0.000050,-0.000097,0.646510,-0.008728,0.762296,-0.029229,-161.016096,80.114554,-162.683581
27119,-9.544423,-0.504245,-1.605523,-0.030667,0.038700,-0.121168,0.005525,0.014400,-0.017783,-0.095446,-0.005034,-0.016048,1.000000,0.000028,0.000072,-0.000089,0.646476,-0.008737,0.762322,-0.029276,-160.998064,80.108468,-162.668628
27120,-9.537146,-0.522041,-1.554849,0.018273,0.019871,-0.135575,0.004086,0.009130,-0.021474,-0.095373,-0.005210,-0.015544,1.000000,0.000020,0.000046,-0.000107,0.646462,-0.008767,0.762332,-0.029331,-160.963327,80.104427,-162.635875
27121,-9.560660,-0.529214,-1.554263,0.023032,0.014806,-0.112106,-0.004206,0.011910,-0.018041,-0.095608,-0.005284,-0.015537,1.000000,-0.000021,0.000060,-0.000090,0.646436,-0.008808,0.762353,-0.029341,-160.947864,80.099573,-162.617890
27122,-9.543597,-0.509839,-1.608662,-0.032409,0.035890,-0.121163,0.000885,0.009623,-0.019367,-0.095437,-0.005089,-0.016082,1.000000,0.000004,0.000048,-0.000097,0.646420,-0.008840,0.762365,-0.029376,-160.922074,80.095655,-162.592355
27123,-9.541738,-0.493145,-1.523527,0.052043,0.050470,-0.137780,-0.002390,0.009263,-0.019260,-0.095419,-0.004922,-0.015231,1.000000,-0.000012,0.000046,-0.000096,0.646405,-0.008882,0.762376,-0.029397,-160.899064,80.092022,-162.567618
27124,-9.512327,-0.524110,-1.560318,0.010613,0.020224,-0.159029,-0.005992,0.010025,-0.021987,-0.095125,-0.005231,-0.015598,1.000000,-0.000030,0.000050,-0.000110,0.646386,-0.008946,0.762391,-0.029414,-160.869569,80.087391,-162.534321
27125,-9.540680,-0.514823,-1.577011,-0.000509,0.032463,-0.128911,-0.007466,0.009283,-0.020516,-0.095408,-0.005139,-0.015765,1.000000,-0.000037,0.000046,-0.000103,0.646370,-0.009007,0.762403,-0.029422,-160.845544,80.083456,-162.505969
27126,-9.566350,-0.522575,-1.610784,-0.029396,0.028002,-0.097693,-0.007303,0.008722,-0.019099,-0.095665,-0.005217,-0.016103,1.000000,-0.000037,0.000044,-0.000095,0.646357,-0.009065,0.762414,-0.029424,-160.824387,80.080068,-162.480374
27127,-9.532655,-0.552084,-1.578545,-0.003546,-0.003439,-0.134460,-0.000665,0.008032,-0.019896,-0.095328,-0.005511,-0.015782,1.000000,-0.000003,0.000040,-0.000099,0.646347,-0.009102,0.762421,-0.029456,-160.796921,80.076947,-162.452448
27128,-9.552938,-0.594112,-1.646322,-0.067955,-0.041339,-0.101063,-0.010065,0.004413,-0.017322,-0.095530,-0.005934,-0.016461,1.000000,-0.000050,0.000022,-0.000087,0.646350,-0.009162,0.762418,-0.029442,-160.778227,80.076223,-162.427747
27129,-9.526825,-0.589793,-1.614050,-0.040226,-0.038751,-0.132280,0.004407,0.008014,-0.018639,-0.095269,-0.005889,-0.016137,1.000000,0.000022,0.000040,-0.000093,0.646340,-0.009178,0.762424,-0.029488,-160.751836,80.073354,-162.403742
27130,-9.534175,-0.557991,-1.614820,-0.038930,-0.005655,-0.126721,0.009665,0.005171,-0.018545,-0.095343,-0.005570,-0.016146,1.000000,0.000048,0.000026,-0.000093,0.646341,-0.009179,0.762421,-0.029554,-160.718890,80.071984,-162.376047
27131,-9.562622,-0.548658,-1.630968,-0.050067,0.006558,-0.096604,0.014903,0.004593,-0.015871,-0.095627,-0.005478,-0.016308,1.000000,0.000075,0.000023,-0.000079,0.646345,-0.009153,0.762415,-0.029629,-160.691601,80.071479,-162.357090
27132,-9.520993,-0.487583,-1.548483,0.025626,0.063465,-0.154522,0.015087,0.001768,-0.017035,-0.095210,-0.004867,-0.015484,1.000000,0.000075,0.000009,-0.000085,0.646359,-0.009131,0.762400,-0.029710,-160.656539,80.072230,-162.330401
27133,-9.537056,-0.528456,-1.546891,0.028496,0.024354,-0.136626,0.009919,0.003197,-0.017711,-0.095371,-0.005275,-0.015468,1.000000,0.000050,0.000016,-0.000089,0.646368,-0.009126,0.762390,-0.029775,-160.624709,80.072106,-162.304190
27134,-9.541810,-0.513773,-1.564227,0.012033,0.040732,-0.129965,0.005453,-0.002146,-0.017879,-0.095418,-0.005129,-0.015643,1.000000,0.000027,-0.000011,-0.000089,0.646397,-0.009139,0.762364,-0.029822,-160.588296,80.074808,-162.270527
27135,-9.513071,-0.526604,-1.548594,0.022014,0.026614,-0.160082,0.001550,0.005114,-0.016281,-0.095132,-0.005258,-0.015484,1.000000,0.000008,0.000026,-0.000081,0.646398,-0.009158,0.762361,-0.029847,-160.567896,80.073954,-162.250729
27136,-9.552846,-0.572735,-1.545634,0.030195,-0.016623,-0.118736,0.006479,0.003394,-0.019022,-0.095529,-0.005718,-0.015455,1.000000,0.000032,0.000017,-0.000095,0.646406,-0.009171,0.762353,-0.029902,-160.533389,80.073439,-162.219596
27137,-9.535902,-0.553267,-1.599348,-0.025237,0.004463,-0.127813,0.003350,0.004735,-0.014918,-0.095360,-0.005525,-0.015991,1.000000,0.000017,0.000024,-0.000075,0.646409,-0.009178,0.762349,-0.029932,-160.515579,80.073048,-162.203619
27138,-9.561664,-0.560831,-1.632441,-0.054148,-0.000029,-0.096624,0.005431,0.000119,-0.015298,-0.095617,-0.005601,-0.016325,1.000000,0.000027,0.000001,-0.000076,0.646429,-0.009181,0.762330,-0.029970,-160.489590,80.075009,-162.180524
27139,-9.554574,-0.578214,-1.580719,-0.005203,-0.018873,-0.111012,0.011881,0.002260,-0.014930,-0.095546,-0.005774,-0.015806,1.000000,0.000059,0.000011,-0.000075,0.646442,-0.009160,0.762317,-0.030032,-160.464161,80.075941,-162.161791
27140,-9.574605,-0.496123,-1.598362,-0.017913,0.065536,-0.093153,0.013890,-0.003209,-0.017309,-0.095746,-0.004952,-0.015985,1.000000,0.000069,-0.000016,-0.000087,0.646475,-0.009144,0.762286,-0.030109,-160.423451,80.079309,-162.128673
27141,-9.510284,-0.535829,-1.514841,0.052177,0.020402,-0.167781,0.003793,-0.000065,-0.015245,-0.095103,-0.005351,-0.015149,1.000000,0.000019,-0.000000,-0.000076,0.646497,-0.009153,0.762266,-0.030140,-160.399210,80.081459,-162.106206
27142,-9.487307,-0.638126,-1.514220,0.045962,-0.082572,-0.184596,0.007374,0.001446,-0.009936,-0.094873,-0.006376,-0.015142,1.000000,0.000037,0.000007,-0.000050,0.646513,-0.009129,0.762251,-0.030169,-160.390079,80.083726,-162.101356
27143,-9.532004,-0.667104,-1.528193,0.038232,-0.108565,-0.136622,0.009269,-0.000344,-0.009153,-0.095320,-0.006666,-0.015282,1.000000,0.000046,-0.000002,-0.000046,0.646537,-0.009096,0.762230,-0.030200,-160.381200,80.087188,-162.097714
27144,-9.554190,-0.585175,-1.580480,-0.008126,-0.023575,-0.111024,0.015387,0.002919,-0.011621,-0.095542,-0.005845,-0.015804,1.000000,0.000077,0.000015,-0.000058,0.646548,-0.009053,0.762219,-0.030265,-160.363889,80.088336,-162.089221
27145,-9.509989,-0.540436,-1.515055,0.049853,0.016658,-0.167762,0.005903,0.000703,-0.008465,-0.095100,-0.005400,-0.015150,1.000000,0.000030,0.000004,-0.000042,0.646567,-0.009026,0.762202,-0.030284,-160.359852,80.091348,-162.088884
27146,-9.499521,-0.591885,-1.532094,0.029630,-0.034995,-0.172333,-0.003863,0.002726,-0.003566,-0.094996,-0.005917,-0.015320,1.000000,-0.000019,0.000014,-0.000018,0.646579,-0.009014,0.762193,-0.030250,-160.378241,80.094151,-162.105435
27147,-9.541445,-0.637160,-1.563549,0.004122,-0.077718,-0.123323,-0.000447,0.004798,0.000325,-0.095415,-0.006372,-0.015633,1.000000,-0.000002,0.000024,0.000002,0.646584,-0.008975,0.762191,-0.030215,-160.409830,80.096648,-162.137324
27148,-9.546267,-0.620949,-1.581137,-0.012346,-0.061347,-0.116664,0.012849,0.001169,-0.003843,-0.095463,-0.006207,-0.015811,1.000000,0.000064,0.000006,-0.000019,0.646603,-0.008911,0.762175,-0.030245,-160.416095,80.100236,-162.151287
27149,-9.513994,-0.543237,-1.584867,-0.019771,0.014080,-0.152335,0.014628,0.003059,0.000101,-0.095140,-0.005431,-0.015848,1.000000,0.000073,0.000015,0.000001,0.646615,-0.008824,0.762164,-0.030268,-160.436407,80.103619,-162.180571
27150,-9.529254,-0.475994,-1.585517,-0.016591,0.081179,-0.141067,0.008250,0.001768,0.001732,-0.095293,-0.004760,-0.015855,1.000000,0.000041,0.000009,0.000009,0.646632,-0.008753,0.762151,-0.030263,-160.463248,80.107951,-162.212746
27151,-9.548086,-0.497954,-1.566866,0.004003,0.058756,-0.124266,0.004388,0.004493,-0.001834,-0.095481,-0.004978,-0.015667,1.000000,0.000022,0.000022,-0.000009,0.646638,-0.008706,0.762147,-0.030254,-160.484800,80.110208,-162.237373
27152,-9.542515,-0.532549,-1.601225,-0.032111,0.024401,-0.122203,0.005001,-0.000864,-0.000741,-0.095425,-0.005325,-0.016013,1.000000,0.000025,-0.000004,-0.000004,0.646665,-0.008655,0.762125,-0.030244,-160.502993,80.115484,-162.258880
27153,-9.545293,-0.515500,-1.584012,-0.014932,0.040167,-0.123229,0.005001,-0.000864,-0.000741,-0.095453,-0.005154,-0.015841,1.000000,0.000025,-0.000004,-0.000004,0.646692,-0.008603,0.762104,-0.030234,-160.521827,80.120830,-162.281102
27154,-9.531956,-0.459521,-1.568589,-0.001158,0.094151,-0.142064,0.008201,-0.001353,-0.002846,-0.095320,-0.004593,-0.015687,1.000000,0.000041,-0.000007,-0.000014,0.646720,-0.008550,0.762080,-0.030243,-160.531159,80.125965,-162.295475
27155,-9.531951,-0.460027,-1.568474,-0.001737,0.093206,-0.142055,-0.002110,-0.000773,-0.006780,-0.095320,-0.004597,-0.015685,1.000000,-0.000011,-0.000004,-0.000034,0.646745,-0.008543,0.762060,-0.030226,-160.535501,80.130073,-162.299033
27156,-9.581565,-0.472025,-1.599753,-0.025393,0.084476,-0.087431,-0.005310,-0.000285,-0.004675,-0.095816,-0.004718,-0.015998,1.000000,-0.000027,-0.000001,-0.000023,0.646768,-0.008541,0.762041,-0.030189,-160.548087,80.134282,-162.308852
27157,-9.505400,-0.472779,-1.586995,-0.025954,0.078817,-0.164484,-0.008559,-0.002917,-0.007148,-0.095054,-0.004725,-0.015871,1.000000,-0.000043,-0.000015,-0.000036,0.646801,-0.008557,0.762015,-0.030149,-160.552652,80.139492,-162.308785
27158,-9.545906,-0.499980,-1.531944,0.033581,0.051619,-0.131915,-0.005714,-0.000020,-0.009510,-0.095459,-0.004996,-0.015319,1.000000,-0.000029,-0.000000,-0.000048,0.646822,-0.008574,0.761997,-0.030126,-160.550743,80.142635,-162.303656
27159,-9.536053,-0.533814,-1.497465,0.064773,0.016074,-0.145257,-0.006234,0.003924,-0.011184,-0.095361,-0.005333,-0.014973,1.000000,-0.000031,0.000020,-0.000056,0.646828,-0.008598,0.761993,-0.030106,-160.549221,80.143385,-162.298544
27160,-9.538104,-0.535443,-1.531979,0.030536,0.015729,-0.137569,-0.003724,-0.003222,-0.009307,-0.095381,-0.005350,-0.015321,1.000000,-0.000019,-0.000016,-0.000047,0.646862,-0.008608,0.761964,-0.030090,-160.543281,80.148297,-162.290481
27161,-9.559069,-0.558890,-1.547320,0.017468,-0.006139,-0.113099,-0.005620,-0.001433,-0.010091,-0.095591,-0.005585,-0.015474,1.000000,-0.000028,-0.000007,-0.000050,0.646889,-0.008626,0.761942,-0.030070,-160.538777,80.152132,-162.282892
27162,-9.493275,-0.509230,-1.517972,0.036585,0.038979,-0.185488,-0.012945,0.003750,-0.012389,-0.094933,-0.005087,-0.015178,1.000000,-0.000065,0.000019,-0.000062,0.646895,-0.008676,0.761938,-0.030030,-160.536187,80.152689,-162.272866
27163,-9.540016,-0.538874,-1.566725,-0.004864,0.013480,-0.129883,-0.014321,0.001594,-0.011499,-0.095401,-0.005384,-0.015666,1.000000,-0.000072,0.000008,-0.000057,0.646910,-0.008728,0.761927,-0.029980,-160.535636,80.154635,-162.264141
27164,-9.563012,-0.563067,-1.616950,-0.051597,-0.007790,-0.097748,-0.005976,0.001952,-0.010347,-0.095631,-0.005626,-0.016168,1.000000,-0.000030,0.000010,-0.000052,0.646924,-0.008748,0.761916,-0.029960,-160.533428,80.156553,-162.258556
27165,-9.524468,-0.607984,-1.566783,-0.009805,-0.056407,-0.141251,0.005546,0.004091,-0.008721,-0.095245,-0.006075,-0.015666,1.000000,0.000028,0.000020,-0.000044,0.646931,-0.008726,0.761909,-0.029975,-160.532755,80.157744,-162.260979
27166,-9.550916,-0.597187,-1.548306,0.012658,-0.044839,-0.118787,0.020789,0.001801,-0.007526,-0.095510,-0.005967,-0.015483,1.000000,0.000104,0.000009,-0.000038,0.646947,-0.008650,0.761894,-0.030048,-160.523829,80.160282,-162.264139
27167,-9.532664,-0.558458,-1.515714,0.042344,-0.008148,-0.144229,0.024059,0.002168,-0.007632,-0.095327,-0.005579,-0.015157,1.000000,0.000120,0.000011,-0.000038,0.646961,-0.008561,0.761879,-0.030133,-160.513806,80.162648,-162.268259
27168,-9.514383,-0.519701,-1.483377,0.072035,0.028569,-0.169660,0.013628,0.006422,-0.008407,-0.095145,-0.005192,-0.014831,1.000000,0.000068,0.000032,-0.000042,0.646959,-0.008511,0.761879,-0.030181,-160.511328,80.162522,-162.273800
27169,-9.542975,-0.509280,-1.499324,0.060838,0.040686,-0.139510,0.000023,-0.002267,-0.002580,-0.095430,-0.005092,-0.014994,1.000000,0.000000,-0.000011,-0.000013,0.646991,-0.008482,0.761854,-0.030157,-160.526080,80.168245,-162.288998
27170,-9.527607,-0.576668,-1.498713,0.056490,-0.028242,-0.150907,-0.013251,-0.000912,-0.000992,-0.095276,-0.005767,-0.014987,1.000000,-0.000066,-0.000005,-0.000005,0.647016,-0.008491,0.761835,-0.030079,-160.554046,80.173496,-162.309807
27171,-9.540892,-0.632474,-1.514103,0.041519,-0.084122,-0.132173,-0.021215,0.000729,0.005270,-0.095409,-0.006329,-0.015140,1.000000,-0.000106,0.000004,0.000026,0.647037,-0.008498,0.761823,-0.029952,-160.608484,80.179072,-162.353294
27172,-9.522042,-0.609678,-1.533344,0.019783,-0.063529,-0.148956,-0.024677,0.003187,0.006538,-0.095220,-0.006102,-0.015331,1.000000,-0.000123,0.000016,0.000033,0.647047,-0.008515,0.761819,-0.029805,-160.671092,80.183531,-162.402615
27173,-9.498287,-0.602898,-1.535450,0.013928,-0.060237,-0.172422,-0.025934,0.005003,0.014006,-0.094983,-0.006038,-0.015351,1.000000,-0.000130,0.000025,0.000070,0.647053,-0.008506,0.761822,-0.029630,-160.760242,80.188494,-162.478274
27174,-9.579998,-0.566533,-1.514721,0.048794,-0.023161,-0.097298,-0.019676,0.009976,0.015538,-0.095800,-0.005674,-0.015142,1.000000,-0.000098,0.000050,0.000078,0.647039,-0.008471,0.761840,-0.029474,-160.855662,80.190950,-162.563799
27175,-9.563854,-0.525764,-1.517520,0.044834,0.014124,-0.115039,-0.028095,0.008764,0.012385,-0.095639,-0.005266,-0.015170,1.000000,-0.000140,0.000044,0.000062,0.647029,-0.008474,0.761855,-0.029296,-160.945432,80.193483,-162.638938
27176,-9.547678,-0.485050,-1.520407,0.040879,0.051432,-0.132773,-0.033361,0.011598,0.012288,-0.095477,-0.004859,-0.015198,1.000000,-0.000167,0.000058,0.000061,0.647009,-0.008495,0.761880,-0.029099,-161.040339,80.194408,-162.715985
27177,-9.542013,-0.517690,-1.555771,0.004744,0.017065,-0.130842,-0.026298,0.008387,0.013748,-0.095420,-0.005186,-0.015553,1.000000,-0.000131,0.000042,0.000069,0.647001,-0.008488,0.761893,-0.028923,-161.132984,80.197391,-162.794910
27178,-9.554453,-0.466020,-1.574375,-0.009839,0.067421,-0.118423,-0.021982,0.012030,0.009920,-0.095545,-0.004667,-0.015737,1.000000,-0.000110,0.000060,0.000050,0.646978,-0.008482,0.761918,-0.028776,-161.214446,80.197602,-162.864928
27179,-9.514456,-0.420438,-1.578798,-0.019052,0.108963,-0.159604,-0.023762,0.010143,0.005972,-0.095145,-0.004209,-0.015783,1.000000,-0.000119,0.000051,0.000030,0.646963,-0.008496,0.761936,-0.028635,-161.283100,80.198179,-162.920924
27180,-9.552023,-0.393172,-1.681635,-0.113484,0.139517,-0.107468,-0.024950,0.005162,0.005695,-0.095521,-0.003937,-0.016813,1.000000,-0.000125,0.000026,0.000028,0.646966,-0.008517,0.761939,-0.028490,-161.345707,80.201313,-162.970083
27181,-9.533207,-0.440491,-1.561299,0.000936,0.085558,-0.142816,-0.011433,0.004095,0.007530,-0.095332,-0.004409,-0.015611,1.000000,-0.000057,0.000020,0.000038,0.646974,-0.008484,0.761936,-0.028392,-161.405798,80.205390,-163.024874
27182,-9.526287,-0.455416,-1.509640,0.049914,0.066767,-0.157139,-0.022346,-0.003398,0.006982,-0.095262,-0.004559,-0.015098,1.000000,-0.000112,-0.000017,0.000035,0.647010,-0.008493,0.761911,-0.028253,-161.462001,80.213390,-163.069046
27183,-9.506008,-0.467961,-1.631846,-0.074691,0.055108,-0.156731,-0.031334,0.003868,0.007320,-0.095060,-0.004686,-0.016316,1.000000,-0.000157,0.000019,0.000037,0.647018,-0.008525,0.761910,-0.028080,-161.532648,80.217546,-163.122949
27184,-9.572327,-0.499872,-1.610787,-0.043636,0.024120,-0.093044,-0.017621,0.011147,0.000931,-0.095724,-0.005001,-0.016102,1.000000,-0.000088,0.000056,0.000005,0.646998,-0.008540,0.761930,-0.027979,-161.582497,80.216527,-163.163419
27185,-9.570134,-0.498869,-1.577157,-0.010549,0.022581,-0.100678,-0.016912,0.004377,0.001434,-0.095702,-0.004991,-0.015769,1.000000,-0.000085,0.000022,0.000007,0.647004,-0.008550,0.761929,-0.027877,-161.627421,80.219325,-163.199245
27186,-9.505044,-0.430333,-1.496466,0.060138,0.083987,-0.181499,-0.019070,0.008140,-0.000183,-0.095051,-0.004305,-0.014960,1.000000,-0.000095,0.000041,-0.000001,0.646995,-0.008574,0.761940,-0.027774,-161.671439,80.219730,-163.232956
27187,-9.504930,-0.429860,-1.497327,0.059554,0.083048,-0.181487,-0.038810,0.007353,0.001021,-0.095050,-0.004302,-0.014969,1.000000,-0.000194,0.000037,0.000005,0.646989,-0.008655,0.761951,-0.027593,-161.730119,80.220852,-163.270281
27188,-9.529264,-0.416740,-1.445384,0.115669,0.093984,-0.166576,-0.037650,0.014594,0.003886,-0.095294,-0.004172,-0.014446,1.000000,-0.000188,0.000073,0.000019,0.646955,-0.008722,0.761986,-0.027406,-161.804344,80.218462,-163.323842
27189,-9.592671,-0.465696,-1.442560,0.128927,0.046221,-0.101949,-0.056609,0.019061,0.000533,-0.095928,-0.004661,-0.014415,1.000000,-0.000283,0.000095,0.000003,0.646903,-0.008862,0.762037,-0.027156,-161.884488,80.213085,-163.372285
27190,-9.540030,-0.470180,-1.430468,0.133762,0.036553,-0.155553,-0.087851,0.019247,0.004672,-0.095402,-0.004710,-0.014293,1.000000,-0.000439,0.000096,0.000023,0.646849,-0.009088,0.762094,-0.026776,-161.994657,80.208273,-163.433135
27191,-9.527827,-0.554214,-1.553312,0.010622,-0.047353,-0.143299,-0.106076,0.020048,0.006396,-0.095280,-0.005553,-0.015521,1.000000,-0.000530,0.000100,0.000032,0.646791,-0.009364,0.762155,-0.026321,-162.122192,80.203333,-163.501304
27192,-9.552665,-0.574981,-1.640204,-0.069838,-0.068114,-0.103683,-0.129992,0.012779,0.010224,-0.095527,-0.005765,-0.016392,1.000000,-0.000650,0.000064,0.000051,0.646761,-0.009706,0.762196,-0.025762,-162.267314,80.202976,-163.573122
27193,-9.458893,-0.691278,-1.784470,-0.228360,-0.189869,-0.166722,-0.113423,0.011309,0.029932,-0.094589,-0.006937,-0.017835,1.000000,-0.000567,0.000057,0.000150,0.646739,-0.009917,0.762231,-0.025203,-162.464516,80.206849,-163.707626
27194,-9.503581,-0.749790,-1.523344,0.036465,-0.258940,-0.162173,-0.092302,0.008412,0.042068,-0.095035,-0.007525,-0.015226,1.000000,-0.000462,0.000042,0.000210,0.646730,-0.010017,0.762254,-0.024684,-162.684630,80.214262,-163.877457
27195,-9.535462,-0.838641,-1.573741,-0.008884,-0.352561,-0.118327,-0.141797,0.001296,0.059516,-0.095352,-0.008426,-0.015731,1.000000,-0.000709,0.000006,0.000298,0.646748,-0.010208,0.762260,-0.023920,-162.982533,80.228441,-164.097629
27196,-9.534173,-0.954163,-1.591401,-0.027682,-0.476442,-0.111365,-0.071935,0.008648,0.070518,-0.095339,-0.009581,-0.015906,1.000000,-0.000360,0.000043,0.000353,0.646743,-0.010133,0.762282,-0.023387,-163.282668,80.240173,-164.360487
27197,-9.558109,-0.828017,-1.540676,0.028868,-0.359315,-0.102548,-0.055484,0.011306,0.072026,-0.095579,-0.008319,-0.015399,1.000000,-0.000277,0.000057,0.000360,0.646728,-0.009996,0.762311,-0.022913,-163.582160,80.250452,-164.632579
27198,-9.564893,-0.680058,-1.542936,0.030625,-0.220023,-0.102849,-0.050349,0.012119,0.075293,-0.095647,-0.006840,-0.015422,1.000000,-0.000252,0.000061,0.000376,0.646710,-0.009833,0.762342,-0.022446,-163.889743,80.260571,-164.915527
27199,-9.535590,-0.435895,-1.426969,0.144522,0.010775,-0.162158,-0.038444,0.016173,0.084378,-0.095355,-0.004402,-0.014261,1.000000,-0.000192,0.000081,0.000422,0.646679,-0.009596,0.762385,-0.021995,-164.225049,80.269653,-165.233387
27200,-9.494193,-0.328298,-1.621630,-0.052198,0.110852,-0.176187,-0.059260,0.007620,0.084059,-0.094941,-0.003328,-0.016212,1.000000,-0.000296,0.000038,0.000420,0.646679,-0.009428,0.762402,-0.021466,-164.563192,80.283055,-165.542142
27201,-9.695443,-0.293575,-1.542702,0.060147,0.142310,0.007896,-0.047590,0.027097,0.087924,-0.096955,-0.002982,-0.015413,1.000000,-0.000238,0.000135,0.000440,0.646605,-0.009206,0.762481,-0.020968,-164.925969,80.286012,-165.882473
27202,-9.747583,-0.473076,-1.436327,0.172027,-0.047477,0.049886,-0.062996,-0.000567,0.090898,-0.097474,-0.004780,-0.014362,1.000000,-0.000315,-0.000003,0.000454,0.646637,-0.009025,0.762472,-0.020403,-165.282892,80.304307,-166.208091
27203,-9.470044,-0.559353,-1.745580,-0.180722,-0.149131,-0.169723,-0.075624,-0.015777,0.080533,-0.094697,-0.005638,-0.017461,1.000000,-0.000378,-0.000079,0.000403,0.646724,-0.008924,0.762414,-0.019823,-165.602416,80.329251,-166.488672
27204,-9.337096,-0.290208,-1.909558,-0.362281,0.107852,-0.285405,-0.070360,-0.002927,0.078824,-0.093370,-0.002946,-0.019096,1.000000,-0.000352,-0.000015,0.000394,0.646762,-0.008814,0.762397,-0.019268,-165.924881,80.346522,-166.775015
27205,-9.397146,-0.083645,-1.768427,-0.211567,0.304199,-0.257407,-0.100701,-0.000180,0.077218,-0.093971,-0.000882,-0.017684,1.000000,-0.000504,-0.000001,0.000386,0.646789,-0.008805,0.762392,-0.018604,-166.263220,80.361810,-167.060035
27206,-9.440774,-0.084391,-1.697039,-0.134337,0.293509,-0.225661,-0.107374,0.005834,0.085196,-0.094408,-0.000893,-0.016967,1.000000,-0.000537,0.000029,0.000426,0.646792,-0.008789,0.762406,-0.017888,-166.636839,80.374480,-167.376727
27207,-9.457177,-0.168809,-1.471506,0.089710,0.195267,-0.242639,-0.118173,-0.001350,0.087976,-0.094571,-0.001738,-0.014715,1.000000,-0.000591,-0.000007,0.000440,0.646822,-0.008795,0.762398,-0.017123,-167.021788,80.391179,-167.698971
27208,-9.642660,-0.501526,-1.202244,0.382986,-0.146256,-0.091076,-0.115149,0.013834,0.104068,-0.096425,-0.005072,-0.012013,1.000000,-0.000576,0.000069,0.000520,0.646795,-0.008732,0.762439,-0.016317,-167.470108,80.401028,-168.086880
27209,-9.655328,-0.652059,-1.150956,0.434834,-0.309605,-0.081793,-0.156440,-0.007087,0.104974,-0.096549,-0.006580,-0.011508,1.000000,-0.000782,-0.000035,0.000525,0.646846,-0.008795,0.762415,-0.015353,-167.931074,80.422199,-168.464331
27210,-9.409400,-0.542124,-1.718869,-0.165209,-0.215545,-0.236078,-0.270746,-0.010094,0.110346,-0.094090,-0.005496,-0.017186,0.999999,-0.001354,-0.000050,0.000552,0.646903,-0.009213,0.762390,-0.013932,-168.475256,80.445121,-168.859005
27211,-9.419047,-0.614718,-1.772541,-0.215823,-0.304885,-0.215883,-0.291151,0.014327,0.138717,-0.094187,-0.006238,-0.017710,0.999999,-0.001456,0.000072,0.000694,0.646866,-0.009586,0.762443,-0.012343,-169.144506,80.456861,-169.368730
27212,-9.643893,-0.910884,-1.609311,-0.016549,-0.615123,-0.012403,-0.265001,0.000040,0.162405,-0.096431,-0.009208,-0.016081,0.999999,-0.001325,0.000000,0.000812,0.646885,-0.009786,0.762449,-0.010776,-169.870758,80.478007,-169.951322
27213,-9.532430,-1.191150,-2.052924,-0.471749,-0.918671,-0.043654,-0.233186,-0.027237,0.178516,-0.095311,-0.012021,-0.020528,0.999999,-0.001166,-0.000136,0.000893,0.647009,-0.009818,0.762363,-0.009282,-170.620185,80.514928,-170.576580
27214,-9.601970,-1.277522,-1.860220,-0.271003,-1.025026,-0.006253,-0.045555,-0.008066,0.193274,-0.096007,-0.012872,-0.018603,1.000000,-0.000228,-0.000040,0.000966,0.647068,-0.009191,0.762330,-0.008451,-171.327829,80.540960,-171.267674
27215,-9.586396,-0.588088,-1.747079,-0.165745,-0.356180,-0.058572,-0.001622,-0.016684,0.191471,-0.095857,-0.005973,-0.017479,1.000000,-0.000008,-0.000083,0.000957,0.647161,-0.008424,0.762267,-0.007799,-172.003256,80.570337,-171.952462
27216,-9.567700,-0.332975,-1.864112,-0.287467,-0.121289,-0.064391,0.007908,-0.021138,0.203892,-0.095672,-0.003427,-0.018651,0.999999,0.000040,-0.000106,0.001019,0.647271,-0.007584,0.762188,-0.007137,-172.718515,80.601841,-172.682209
27217,-9.633012,-0.297809,-1.615802,-0.034754,-0.105273,-0.041193,0.031378,-0.022821,0.204841,-0.096325,-0.003074,-0.016169,0.999999,0.000157,-0.000114,0.001024,0.647388,-0.006658,0.762103,-0.006568,-173.427144,80.632831,-173.419826
27218,-9.363102,-0.029376,-1.677596,-0.142974,0.137909,-0.302515,-0.004701,-0.029823,0.206031,-0.093628,-0.000391,-0.016790,0.999999,-0.000024,-0.000149,0.001030,0.647530,-0.005851,0.761995,-0.005850,-174.163306,80.666417,-174.163302
27219,-9.622031,-0.057202,-1.125499,0.441880,0.092992,-0.135417,0.039610,0.002525,0.213371,-0.096220,-0.000672,-0.011254,0.999999,0.000198,0.000013,0.001067,0.647549,-0.004862,0.761990,-0.005290,-174.913430,80.680311,-174.948250
27220,-9.716408,0.346716,-1.026861,0.552567,0.476923,-0.063307,-0.077522,-0.023571,0.200346,-0.097166,0.003366,-0.010281,0.999999,-0.000388,-0.000118,0.001002,0.647663,-0.004312,0.761902,-0.004314,-175.681943,80.706881,-175.682136
27221,-9.557682,0.165958,-1.555848,0.002338,0.272914,-0.131626,-0.169837,-0.018952,0.198648,-0.095577,0.001551,-0.015569,0.999999,-0.000849,-0.000095,0.000993,0.647757,-0.004057,0.761830,-0.003003,-176.501237,80.729040,-176.415508
27222,-9.560930,0.177006,-1.208345,0.343820,0.261870,-0.183773,-0.153992,-0.007587,0.202393,-0.095611,0.001664,-0.012088,0.999999,-0.000770,-0.000038,0.001012,0.647807,-0.003747,0.761793,-0.001729,-177.331457,80.743164,-177.167433
27223,-9.568629,-0.249551,-1.526154,0.031004,-0.188544,-0.121788,-0.239273,-0.024472,0.205935,-0.095682,-0.002612,-0.015270,0.999999,-0.001196,-0.000122,0.001030,0.647918,-0.003693,0.761701,-0.000125,-178.223147,80.765141,-177.933076
27224,-9.554623,-0.390262,-1.805644,-0.248524,-0.354727,-0.090762,-0.187931,-0.023130,0.204669,-0.095540,-0.004017,-0.018064,0.999999,-0.000940,-0.000116,0.001023,0.648024,-0.003484,0.761611,0.001286,-179.085017,80.784522,-178.697284
27225,-9.488035,-0.305304,-1.720194,-0.177583,-0.293083,-0.171235,-0.120787,-0.021813,0.214044,-0.094875,-0.003165,-0.017210,0.999999,-0.000604,-0.000109,0.001070,0.648124,-0.003019,0.761525,0.002469,-179.944708,80.801377,-179.498591
27226,-9.526444,-0.249459,-1.386699,0.155105,-0.257256,-0.187303,-0.020787,-0.018572,0.217077,-0.095260,-0.002599,-0.013876,0.999999,-0.000104,-0.000093,0.001085,0.648213,-0.002222,0.761449,0.003283,179.239374,80.814463,179.686810
27227,-9.511194,0.401614,-1.733234,-0.196955,0.368411,-0.145545,-0.115855,-0.023290,0.214666,-0.095114,0.003904,-0.017346,0.999999,-0.000579,-0.000116,0.001073,0.648318,-0.001740,0.761355,0.004451,178.374447,80.828376,178.877641
27228,-9.631686,0.636441,-1.442557,0.106052,0.583169,-0.070817,-0.062773,0.011644,0.201202,-0.096324,0.006263,-0.014422,0.999999,-0.000314,0.000058,0.001006,0.648290,-0.001139,0.761374,0.005373,177.591029,80.820694,178.120371
27229,-9.750327,1.181674,-1.039322,0.516877,1.110581,-0.012441,-0.201048,-0.010690,0.182215,-0.097513,0.011717,-0.010410,0.999999,-0.001005,-0.000053,0.000911,0.648345,-0.001057,0.761316,0.006760,176.792134,80.824681,177.427623
27230,-9.492562,0.644567,-1.758433,-0.233086,0.544708,-0.155296,-0.341798,-0.036581,0.175101,-0.094928,0.006332,-0.017613,0.999998,-0.001709,-0.000183,0.000876,0.648497,-0.001459,0.761167,0.008661,175.931381,80.842111,176.753974
27231,-9.525067,0.352494,-1.537528,-0.010109,0.233832,-0.160728,-0.245843,-0.016579,0.160836,-0.095252,0.003429,-0.015387,0.999999,-0.001229,-0.000083,0.000804,0.648571,-0.001603,0.761084,0.010150,175.178692,80.847247,176.134074
27232,-9.480525,0.210573,-1.681111,-0.160082,0.069743,-0.183549,-0.253171,-0.035901,0.157834,-0.094804,0.002010,-0.016831,0.999999,-0.001266,-0.000180,0.000789,0.648718,-0.001783,0.760937,0.011656,174.425863,80.862259,175.518344
27233,-9.360111,0.531151,-1.708240,-0.215303,0.371692,-0.292848,-0.170572,-0.023300,0.158025,-0.093603,0.005223,-0.017098,0.999999,-0.000853,-0.000117,0.000790,0.648817,-0.001694,0.760834,0.012850,173.721719,80.868839,174.903976
27234,-9.631544,0.802534,-1.368034,0.156275,0.627455,-0.072868,-0.229923,0.010122,0.159790,-0.096322,0.007933,-0.013685,0.999999,-0.001150,0.000051,0.000799,0.648786,-0.001794,0.760835,0.014274,172.991608,80.855054,174.297778
27235,-10.068242,0.729255,-1.032346,0.557261,0.538053,0.304970,-0.208758,0.003077,0.118465,-0.100687,0.007222,-0.010329,0.999999,-0.001044,0.000015,0.000592,0.648785,-0.001981,0.760812,0.015484,172.417200,80.847188,173.836957
27236,-9.677882,0.824890,-1.359684,0.165586,0.616741,-0.025819,-0.373007,-0.049129,0.088948,-0.096779,0.008180,-0.013636,0.999998,-0.001865,-0.000246,0.000445,0.648981,-0.002810,0.760605,0.017223,171.828253,80.870525,173.456769
27237,-9.343085,0.523746,-1.631742,-0.153777,0.298845,-0.319682,-0.353504,-0.024368,0.085278,-0.093431,0.005169,-0.016338,0.999998,-0.001768,-0.000122,0.000426,0.649081,-0.003591,0.760477,0.018877,171.273405,80.879542,173.099779
27238,-9.409201,0.862982,-1.398807,0.072090,0.629669,-0.282065,-0.391654,-0.011808,0.084868,-0.094095,0.008562,-0.014010,0.999998,-0.001958,-0.000059,0.000424,0.649130,-0.004499,0.760383,0.020673,170.705322,80.880926,172.751566
27239,-9.520843,0.137428,-1.603509,-0.090371,-0.121087,-0.157961,-0.417013,0.000483,0.102010,-0.095209,0.001292,-0.016038,0.999998,-0.002085,0.000002,0.000510,0.649127,-0.005425,0.760324,0.022621,170.068827,80.873150,172.348736
27240,-9.815778,-0.428607,-1.481273,0.097959,-0.704011,0.098020,-0.310989,-0.008023,0.099874,-0.098155,-0.004358,-0.014810,0.999999,-0.001555,-0.000040,0.000499,0.649158,-0.006014,0.760246,0.024159,169.496927,80.869712,171.949838
27241,-9.612244,-0.737113,-1.894407,-0.330317,-1.041469,-0.048796,-0.252984,-0.046433,0.100640,-0.096114,-0.007443,-0.018957,0.999999,-0.001265,-0.000232,0.000503,0.649334,-0.006407,0.760049,0.025481,168.928954,80.887184,171.521228
27242,-9.445946,-0.282974,-1.578341,-0.067110,-0.583264,-0.249612,-0.105215,-0.039755,0.104553,-0.094455,-0.002887,-0.015801,1.000000,-0.000526,-0.000199,0.000523,0.649489,-0.006307,0.759892,0.026253,168.435809,80.899833,171.082709
27243,-9.465179,0.190137,-1.456259,0.032037,-0.118459,-0.235037,-0.140601,-0.037016,0.107997,-0.094650,0.001840,-0.014581,1.000000,-0.000703,-0.000185,0.000540,0.649631,-0.006309,0.759738,0.027171,167.910321,80.909923,170.631951
27244,-9.453337,0.418936,-1.508151,-0.034721,0.094272,-0.231169,-0.120747,-0.029118,0.112050,-0.094533,0.004127,-0.015098,1.000000,-0.000604,-0.000146,0.000560,0.649742,-0.006232,0.759612,0.028026,167.387935,80.914446,170.172855
27245,-9.476170,0.527591,-1.652837,-0.182060,0.180765,-0.182413,-0.132300,-0.027771,0.118426,-0.094763,0.005209,-0.016545,1.000000,-0.000662,-0.000139,0.000592,0.649847,-0.006168,0.759489,0.028946,166.836543,80.916720,169.691062
27246,-9.433267,0.411324,-1.696132,-0.229040,0.048971,-0.222187,-0.082564,-0.030265,0.131040,-0.094333,0.004044,-0.016977,1.000000,-0.000413,-0.000151,0.000655,0.649960,-0.005895,0.759364,0.029718,166.268159,80.917962,169.163236
27247,-9.679572,0.091357,-1.718616,-0.200708,-0.293255,0.012271,-0.042671,-0.029422,0.123904,-0.096794,0.000850,-0.017201,1.000000,-0.000213,-0.000147,0.000620,0.650072,-0.005519,0.759247,0.030315,165.747291,80.918923,168.660356
27248,-9.460371,0.177954,-2.018575,-0.538228,-0.228249,-0.155403,0.062086,-0.043490,0.114349,-0.094600,0.001732,-0.020206,1.000000,0.000310,-0.000217,0.000572,0.650242,-0.004837,0.759100,0.030484,165.307474,80.928402,168.178806
27249,-9.501744,0.384262,-1.289168,0.176634,0.004838,-0.217817,0.243099,-0.001298,0.117529,-0.095020,0.003802,-0.012888,0.999999,0.001215,-0.000006,0.000588,0.650254,-0.003561,0.759117,0.029975,164.998150,80.913532,167.724353
27250,-9.839507,0.988895,-0.827637,0.657575,0.610741,0.070297,0.138798,-0.019426,0.102133,-0.098399,0.009844,-0.008279,1.000000,0.000694,-0.000097,0.000511,0.650335,-0.002680,0.759058,0.029812,164.667000,80.910613,167.308326
27251,-9.570583,1.121014,-1.008086,0.430586,0.733539,-0.161496,-0.006408,-0.030442,0.084095,-0.095709,0.011170,-0.010096,1.000000,-0.000032,-0.000152,0.000420,0.650458,-0.002337,0.758941,0.030142,164.303641,80.916129,166.943907
27252,-9.360370,1.271374,-0.852060,0.542052,0.888627,-0.385311,-0.202060,-0.023302,0.085852,-0.093608,0.012665,-0.008544,0.999999,-0.001010,-0.000117,0.000429,0.650550,-0.002625,0.758817,0.031220,163.829560,80.917029,166.580916
27253,-9.043470,0.523671,-2.134745,-0.744114,0.073692,-0.536021,-0.315028,-0.038696,0.126078,-0.090434,0.005146,-0.021373,0.999999,-0.001575,-0.000193,0.000630,0.650693,-0.003125,0.758624,0.032858,163.135828,80.919240,166.060995
27254,-9.555399,-0.091448,-2.371879,-0.871574,-0.589938,-0.023299,-0.140554,0.023590,0.123892,-0.095556,-0.000990,-0.023707,1.000000,-0.000703,0.000118,0.000619,0.650600,-0.003077,0.758661,0.033825,162.616809,80.886854,165.616790
27255,-9.912566,-0.414301,-2.113031,-0.546193,-0.925155,0.274000,0.008208,-0.036692,0.098877,-0.099120,-0.004191,-0.021149,1.000000,0.000041,-0.000183,0.000494,0.650742,-0.002629,0.758526,0.034148,162.204644,80.891128,165.194440
27256,-9.534978,-0.343315,-2.230764,-0.730161,-0.853503,-0.078810,0.260320,-0.081067,0.100239,-0.095339,-0.003452,-0.022351,0.999999,0.001302,-0.000405,0.000501,0.651055,-0.001349,0.758289,0.033519,161.883251,80.918949,164.717772
27257,-9.588653,0.134075,-1.476256,-0.005091,-0.344472,-0.116250,0.454595,-0.035921,0.104121,-0.095885,0.001324,-0.014777,0.999997,0.002273,-0.000180,0.000521,0.651195,0.000572,0.758228,0.032167,161.708289,80.921138,164.276681
27258,-9.891507,0.385264,-1.384839,0.117797,-0.106573,0.181455,0.392742,-0.041097,0.085257,-0.098914,0.003838,-0.013861,0.999998,0.001964,-0.000205,0.000426,0.651355,0.002219,0.758137,0.030987,161.556651,80.929386,163.895113
27259,-9.688831,0.783390,-1.163422,0.289087,0.306789,-0.031941,0.502038,-0.045761,0.061308,-0.096888,0.007833,-0.011637,0.999997,0.002510,-0.000229,0.000307,0.651531,0.004134,0.758044,0.029315,161.542716,80.944389,163.589577
27260,-9.521441,1.240156,-0.575710,0.829308,0.790175,-0.262025,0.374170,-0.047359,0.063275,-0.095217,0.012382,-0.005756,0.999998,0.001871,-0.000237,0.000316,0.651712,0.005639,0.757924,0.028133,161.447028,80.959893,163.275466
27261,-9.450043,1.317115,-1.285493,0.113257,0.840122,-0.222486,0.137560,-0.050600,0.062812,-0.094501,0.013150,-0.012870,1.000000,0.000688,-0.000253,0.000314,0.651911,0.006372,0.757757,0.027847,161.212016,80.977070,162.957545
27262,-9.656223,1.207128,-1.293966,0.137378,0.714565,-0.022658,0.069668,-0.000361,0.069377,-0.096566,0.012042,-0.012936,1.000000,0.000348,-0.000002,0.000347,0.651920,0.006901,0.757745,0.027840,160.974610,80.965618,162.676612
27263,-9.864003,1.273344,-1.326890,0.132210,0.763682,0.191307,-0.030473,-0.040160,0.040871,-0.098640,0.012711,-0.013291,1.000000,-0.000152,-0.000201,0.000204,0.652088,0.007002,0.757589,0.028119,160.729259,80.980849,162.445705
27264,-9.524383,1.049086,-1.946231,-0.530346,0.529271,-0.063796,-0.099226,-0.050174,0.032193,-0.095241,0.010466,-0.019491,1.000000,-0.000496,-0.000251,0.000161,0.652297,0.006847,0.757392,0.028629,160.462020,81.003014,162.232559
27265,-9.632678,1.170432,-1.009996,0.403543,0.673084,-0.088357,0.000598,-0.022554,0.016673,-0.096327,0.011696,-0.010111,1.000000,0.000003,-0.000113,0.000083,0.652400,0.006955,0.757299,0.028713,160.336669,81.013097,162.105146
27266,-9.431042,1.924012,-1.652095,-0.288618,1.407533,-0.152908,-0.371260,-0.045699,0.007267,-0.094307,0.019206,-0.016578,0.999998,-0.001856,-0.000228,0.000036,0.652604,0.005817,0.757076,0.030172,160.002307,81.037445,161.981861
27267,-9.787049,0.785233,-1.186466,0.254010,0.264940,0.070425,-0.297546,0.040182,0.004534,-0.097873,0.007832,-0.011857,0.999999,-0.001488,0.000201,0.000023,0.652479,0.004898,0.757142,0.031346,159.824729,81.015985,161.974517
27268,-10.362409,1.247027,-0.647824,0.852969,0.718066,0.584961,-0.466083,-0.015523,-0.049071,-0.103621,0.012481,-0.006515,0.999997,-0.002330,-0.000078,-0.000245,0.652575,0.003233,0.756999,0.032981,159.664548,81.035145,162.082574
27269,-9.423172,-0.289713,-2.160742,-0.728980,-0.844283,-0.205156,-0.625384,-0.063009,-0.045895,-0.094226,-0.002943,-0.021628,0.999995,-0.003127,-0.000315,-0.000229,0.652848,0.001070,0.756669,0.035229,159.340419,81.079185,162.117013
27270,-9.791671,-0.284164,-1.283750,0.190095,-0.816396,0.031242,-0.301076,0.008866,-0.037986,-0.097918,-0.002842,-0.012829,0.999999,-0.001505,0.000044,-0.000190,0.652841,-0.000019,0.756625,0.036276,159.268125,81.083157,162.218318
27271,-9.854055,-0.214242,-2.175894,-0.686686,-0.802554,0.225599,-0.518623,-0.046969,-0.057127,-0.098536,-0.002171,-0.021776,0.999997,-0.002593,-0.000235,-0.000286,0.653047,-0.001879,0.756357,0.038084,159.063109,81.120930,162.311410
27272,-9.942000,-0.745213,-2.021751,-0.493786,-1.330092,0.260704,-0.186813,0.025613,-0.049079,-0.099424,-0.007447,-0.020198,1.000000,-0.000934,0.000128,-0.000245,0.652977,-0.002640,0.756386,0.038661,159.116544,81.118265,162.473695
27273,-10.314662,-0.252237,-1.695972,-0.143269,-0.833623,0.609249,-0.241012,-0.016362,-0.088928,-0.103146,-0.002497,-0.016965,0.999999,-0.001205,-0.000082,-0.000445,0.653072,-0.003720,0.756266,0.039315,159.220215,81.146122,162.718231
27274,-9.663504,-0.914908,-2.314766,-0.816455,-1.499168,0.019118,-0.052801,-0.061696,-0.091435,-0.096632,-0.009111,-0.023175,1.000000,-0.000264,-0.000308,-0.000457,0.653342,-0.004187,0.756034,0.039248,159.383676,81.198739,162.914135
27275,-8.985398,-0.124874,-1.404394,-0.067991,-0.616770,-0.738534,0.108032,-0.048116,-0.046183,-0.089851,-0.001220,-0.014066,1.000000,0.000540,-0.000241,-0.000231,0.653554,-0.003959,0.755878,0.038722,159.500982,81.234847,162.970064
27276,-9.035476,-0.147080,-1.450901,-0.109732,-0.642757,-0.683536,0.017786,-0.032652,0.010654,-0.090352,-0.001474,-0.014524,1.000000,0.000089,-0.000163,0.000053,0.653695,-0.003815,0.755757,0.038722,159.389703,81.251269,162.847030
27277,-9.215493,-0.232692,-1.356277,0.012136,-0.731899,-0.523817,0.161279,-0.010000,0.030730,-0.092154,-0.002330,-0.013569,1.000000,0.000806,-0.000050,0.000154,0.653749,-0.003130,0.755738,0.038245,159.319541,81.251419,162.682415
27278,-9.665927,0.040830,-1.195154,0.218983,-0.471499,-0.086952,0.225622,-0.035232,0.038528,-0.096657,0.000403,-0.011968,0.999999,0.001128,-0.000176,0.000193,0.653898,-0.002201,0.755647,0.037551,159.226284,81.263515,162.457138
27279,-9.739437,0.654844,-0.528455,0.850904,0.174719,-0.075637,0.371741,-0.090502,0.033933,-0.097393,0.006542,-0.005316,0.999998,0.001859,-0.000453,0.000170,0.654256,-0.000801,0.755402,0.036290,159.158077,81.306065,162.172520
27280,-8.793922,1.733400,-0.317994,0.863552,1.301397,-0.980955,0.370371,-0.149764,0.070647,-0.087943,0.017309,-0.003214,0.999998,0.001852,-0.000749,0.000353,0.654828,0.000744,0.754959,0.035155,158.878192,81.372690,161.674622
27281,-8.505045,2.073606,-0.486290,0.638372,1.637717,-1.223015,0.382422,-0.071917,0.122503,-0.085061,0.020693,-0.004854,0.999998,0.001912,-0.000360,0.000613,0.655095,0.002511,0.754771,0.034144,158.524057,81.386527,161.094673
27282,-9.363988,3.057631,-0.599035,0.609876,2.562274,-0.301904,0.137195,-0.037055,0.112197,-0.093656,0.030528,-0.005987,1.000000,0.000686,-0.000185,0.000561,0.655233,0.003429,0.754652,0.034025,158.114053,81.383428,160.600355
27283,-9.632464,2.505006,-1.029996,0.240643,1.966747,-0.004818,-0.134317,-0.034099,0.080576,-0.096333,0.025004,-0.010333,1.000000,-0.000672,-0.000170,0.000403,0.655370,0.003339,0.754497,0.034827,157.662689,81.384996,160.221505
27284,-9.732088,1.714579,-1.242706,0.068297,1.152213,0.080005,-0.354906,-0.038278,0.052469,-0.097323,0.017098,-0.012476,0.999998,-0.001775,-0.000191,0.000262,0.655530,0.002420,0.754289,0.036368,157.177741,81.394523,159.936561
27285,-9.419897,0.450826,-1.798760,-0.481157,-0.133094,-0.224987,-0.419021,-0.114253,0.045181,-0.094190,0.004449,-0.018051,0.999998,-0.002095,-0.000571,0.000226,0.655976,0.001278,0.753817,0.038128,156.565371,81.445275,159.559882
27286,-8.899419,0.649776,-1.343373,-0.125199,0.105591,-0.790510,-0.213203,-0.118160,0.073817,-0.088989,0.006451,-0.013493,0.999999,-0.001066,-0.000591,0.000369,0.656427,0.000919,0.753369,0.039204,155.960320,81.490913,159.071452
27287,-8.833666,0.776265,-1.935856,-0.738197,0.188076,-0.768162,-0.158611,-0.113867,0.114406,-0.088330,0.007697,-0.019415,0.999999,-0.000793,-0.000569,0.000572,0.656854,0.000892,0.752945,0.040209,155.244549,81.523818,158.439458
27288,-9.096302,1.580429,-1.999306,-0.814489,0.959958,-0.450381,0.018990,-0.059895,0.087346,-0.090964,0.015766,-0.020019,1.000000,0.000095,-0.000299,0.000437,0.657081,0.001335,0.752733,0.040456,154.809961,81.534347,157.988945
27289,-9.167755,2.429318,-2.091662,-0.947504,1.785114,-0.313216,-0.293530,-0.044891,0.070970,-0.091681,0.024230,-0.020973,0.999999,-0.001468,-0.000224,0.000355,0.657256,0.000687,0.752506,0.041826,154.275829,81.540514,157.618806
27290,-9.245695,2.424705,-2.544332,-1.395706,1.731945,-0.174844,-0.390944,-0.031801,0.068255,-0.092461,0.024166,-0.025505,0.999998,-0.001955,-0.000159,0.000341,0.657381,-0.000295,0.752299,0.043552,153.718114,81.540176,157.281282
27291,-9.844469,2.243298,-2.327440,-1.100742,1.508821,0.379206,-0.715032,0.036240,0.089282,-0.098459,0.022306,-0.023336,0.999993,-0.003575,0.000181,0.000446,0.657238,-0.002276,0.752239,0.046568,153.019156,81.498931,156.988666
27292,-10.216273,1.103621,-1.387539,-0.057069,0.398954,0.548444,-0.671109,-0.019626,0.061517,-0.102165,0.010958,-0.013922,0.999994,-0.003356,-0.000098,0.000308,0.657306,-0.004207,0.751996,0.049326,152.347171,81.493029,156.697871
27293,-9.840186,1.149405,-1.229703,0.034510,0.462886,0.159629,-0.604608,-0.051546,0.057089,-0.098402,0.011429,-0.012357,0.999995,-0.003023,-0.000258,0.000285,0.657488,-0.005925,0.751657,0.051821,151.669773,81.503824,156.363074
27294,-10.147853,0.315976,0.243600,1.589686,-0.268866,0.214211,-0.667405,0.014183,0.072356,-0.101479,0.003131,0.002433,0.999994,-0.003337,0.000071,0.000362,0.657411,-0.007812,0.751511,0.054598,151.026754,81.476945,156.099418
27295,-10.889347,-0.618043,-0.571780,0.963728,-1.322839,0.985836,-0.741277,-0.024570,-0.003044,-0.108893,-0.006200,-0.005708,0.999993,-0.003706,-0.000123,-0.000015,0.657490,-0.010212,0.751204,0.057408,150.521279,81.490024,156.017612
27296,-10.444633,-0.752124,-0.853682,0.639833,-1.459168,0.572218,-0.494825,-0.003003,-0.059697,-0.104448,-0.007511,-0.008520,0.999997,-0.002474,-0.000015,-0.000298,0.657509,-0.012022,0.751029,0.059102,150.387601,81.508415,156.168981
27297,-10.105623,-0.451164,-0.704844,0.713181,-1.123168,0.239867,-0.465696,-0.016808,-0.059933,-0.101057,-0.004498,-0.007046,0.999997,-0.002328,-0.000084,-0.000300,0.657579,-0.013732,0.750812,0.060688,150.243828,81.533708,156.293231
27298,-9.850362,-0.262496,-1.328873,0.043534,-0.987147,0.081153,-0.326888,-0.020433,-0.075955,-0.098503,-0.002609,-0.013295,0.999999,-0.001634,-0.000102,-0.000380,0.657673,-0.015046,0.750622,0.061698,150.227862,81.565478,156.466306
27299,-9.519855,0.252300,-1.213909,0.056018,-0.441820,-0.222769,-0.191236,-0.026882,-0.069267,-0.095196,0.002544,-0.012154,0.999999,-0.000956,-0.000134,-0.000346,0.657799,-0.015885,0.750451,0.062223,150.254161,81.598478,156.603490
27300,-9.327562,0.306216,-1.551046,-0.311471,-0.413484,-0.366262,-0.111267,-0.027530,-0.049200,-0.093273,0.003076,-0.015525,1.000000,-0.000556,-0.000138,-0.000246,0.657927,-0.016388,0.750304,0.062513,150.259162,81.626164,156.672855
27301,-9.304124,0.452970,-1.233313,-0.019822,-0.228219,-0.419047,0.005173,-0.007848,-0.031645,-0.093040,0.004545,-0.012337,1.000000,0.000026,-0.000039,-0.000158,0.657985,-0.016446,0.750259,0.062424,150.308542,81.638995,156.719610
27302,-9.487618,0.667083,-1.310077,-0.095170,-0.034022,-0.212376,-0.056272,-0.002527,-0.024920,-0.094875,0.006679,-0.013104,1.000000,-0.000281,-0.000013,-0.000125,0.658016,-0.016684,0.750213,0.062585,150.311517,81.647336,156.755073
27303,-9.738872,0.713654,-1.263877,-0.023045,0.003961,0.033722,-0.045666,-0.016161,-0.030736,-0.097387,0.007149,-0.012648,1.000000,-0.000228,-0.000081,-0.000154,0.658100,-0.016903,0.750125,0.062690,150.312800,81.664044,156.782654
27304,-9.731379,0.913290,-1.075834,0.135689,0.225397,0.016963,-0.087704,-0.038930,-0.037640,-0.097310,0.009146,-0.010781,1.000000,-0.000439,-0.000195,-0.000188,0.658269,-0.017281,0.749949,0.062930,150.270510,81.694114,156.790568
27305,-9.380524,0.912490,-1.362441,-0.198703,0.212151,-0.294357,-0.094684,-0.043520,-0.042904,-0.093800,0.009139,-0.013649,1.000000,-0.000473,-0.000218,-0.000215,0.658455,-0.017699,0.749754,0.063181,150.231909,81.727896,156.806223
27306,-9.328267,0.920354,-1.274055,-0.124038,0.235825,-0.356692,-0.069974,-0.019856,-0.063505,-0.093278,0.009229,-0.012753,1.000000,-0.000350,-0.000099,-0.000318,0.658562,-0.018122,0.749643,0.063268,150.325797,81.755823,156.941475
27307,-9.201731,0.853370,-1.343536,-0.205267,0.173687,-0.478188,-0.029339,-0.018990,-0.094921,-0.092012,0.008575,-0.013445,1.000000,-0.000147,-0.000095,-0.000475,0.658679,-0.018527,0.749545,0.063101,150.552793,81.792070,157.187657
27308,-8.929820,0.734497,-1.188931,-0.077820,0.096539,-0.775025,-0.023986,0.006031,-0.096413,-0.089295,0.007387,-0.011888,1.000000,-0.000120,0.000030,-0.000482,0.658702,-0.018930,0.749531,0.062905,150.840031,81.816149,157.491612
27309,-9.367614,0.778409,-1.337368,-0.172454,0.105858,-0.320284,-0.112280,0.012068,-0.104530,-0.093673,0.007826,-0.013372,1.000000,-0.000561,0.000060,-0.000523,0.658697,-0.019654,0.749507,0.063013,151.117122,81.839170,157.836383
27310,-9.552974,0.929735,-1.159106,0.009142,0.274105,-0.148733,-0.128445,0.010863,-0.090336,-0.095526,0.009333,-0.011592,1.000000,-0.000642,0.000054,-0.000452,0.658690,-0.020379,0.749476,0.063228,151.335724,81.858744,158.131428
27311,-9.681079,0.892057,-1.292408,-0.102684,0.218572,-0.008042,-0.176764,0.007299,-0.071708,-0.096808,0.008944,-0.012928,1.000000,-0.000884,0.000036,-0.000359,0.658685,-0.021191,0.749419,0.063687,151.453990,81.874800,158.353048
27312,-9.921069,0.635317,-1.360571,-0.110401,-0.052319,0.220630,-0.146746,0.004060,-0.085692,-0.099208,0.006386,-0.013608,1.000000,-0.000734,0.000020,-0.000428,0.658700,-0.021957,0.749358,0.063987,151.634767,81.896301,158.620452
27313,-9.740392,0.655693,-1.160236,0.057862,0.009149,0.018278,-0.066625,-0.018020,-0.110937,-0.097399,0.006607,-0.011613,1.000000,-0.000333,-0.000090,-0.000555,0.658814,-0.022546,0.749248,0.063906,151.909347,81.935561,158.936191
27314,-9.472596,0.795112,-0.862219,0.296906,0.206269,-0.274606,-0.049582,0.002319,-0.094945,-0.094722,0.007994,-0.008623,1.000000,-0.000248,0.000012,-0.000475,0.658848,-0.023026,0.749211,0.063811,152.178983,81.960098,159.237072
27315,-9.668625,0.538679,-1.022152,0.193750,-0.071086,-0.077458,-0.098258,-0.000689,-0.081101,-0.096684,0.005421,-0.010225,1.000000,-0.000491,-0.000003,-0.000406,0.658883,-0.023612,0.749151,0.063946,152.365481,81.982229,159.482117
27316,-9.850461,0.782541,-0.548436,0.652793,0.228097,0.059828,-0.173641,0.012225,-0.091654,-0.098501,0.007866,-0.005485,1.000000,-0.000868,0.000061,-0.000458,0.658864,-0.024492,0.749107,0.064325,152.573727,82.000548,159.792751
27317,-9.797244,0.285525,-1.272219,-0.010349,-0.351293,0.064688,-0.379545,-0.054776,-0.068535,-0.097968,0.002865,-0.012754,0.999998,-0.001898,-0.000274,-0.000343,0.659061,-0.025940,0.748777,0.065561,152.453667,82.046713,159.890939
27318,-9.549670,-0.233248,-1.333619,-0.043521,-0.863270,-0.206335,-0.286977,-0.048283,-0.013256,-0.095494,-0.002345,-0.013356,0.999999,-0.001435,-0.000241,-0.000066,0.659226,-0.026880,0.748504,0.066630,152.198665,82.074981,159.799355
27319,-9.777710,-0.860636,-1.760877,-0.357080,-1.557954,0.030598,-0.214953,-0.046521,0.011834,-0.097772,-0.008631,-0.017622,0.999999,-0.001075,-0.000233,0.000059,0.659385,-0.027487,0.748263,0.067514,151.894373,82.095496,159.616328
27320,-9.747074,-0.633697,-1.495761,-0.133969,-1.299174,-0.017866,0.071894,-0.045962,0.004029,-0.097467,-0.006334,-0.014982,1.000000,0.000359,-0.000230,0.000020,0.659584,-0.027180,0.748119,0.067297,151.784277,82.117809,159.463462
27321,-9.076485,0.033048,-1.005473,0.170886,-0.542156,-0.698330,0.161419,-0.042924,0.031983,-0.090763,0.000324,-0.010074,1.000000,0.000807,-0.000215,0.000160,0.659773,-0.026473,0.748018,0.066838,151.627725,82.130898,159.211896
27322,-9.236552,0.398906,-1.090211,0.059352,-0.202972,-0.505870,0.154112,-0.005406,0.058611,-0.092366,0.003970,-0.010902,1.000000,0.000771,-0.000027,0.000293,0.659812,-0.025703,0.748042,0.066488,151.444850,82.117767,158.938009
27323,-9.483612,0.554968,-0.729503,0.426640,-0.017750,-0.294456,0.129872,-0.001089,0.060802,-0.094838,0.005526,-0.007292,1.000000,0.000649,-0.000005,0.000304,0.659830,-0.025007,0.748072,0.066236,151.248460,82.101686,158.664477
27324,-9.242084,0.499528,-0.584870,0.545382,-0.047941,-0.554827,0.013716,-0.005054,0.068661,-0.092422,0.004964,-0.005851,1.000000,0.000069,-0.000025,0.000343,0.659846,-0.024663,0.748051,0.066444,150.951346,82.085310,158.356447
27325,-9.196542,0.205261,-0.968813,0.199227,-0.394933,-0.573562,-0.047660,0.012987,0.066712,-0.091967,0.002020,-0.009683,1.000000,-0.000238,0.000065,0.000334,0.659787,-0.024534,0.748069,0.066874,150.662713,82.060198,158.092424
27326,-9.197743,0.337594,-1.093498,0.064693,-0.287327,-0.548702,-0.095323,0.080748,0.056543,-0.091983,0.003345,-0.010899,1.000000,-0.000477,0.000404,0.000283,0.659472,-0.024625,0.748292,0.067440,150.522224,82.004030,158.005583
27327,-9.922795,0.233225,-1.898525,-0.611070,-0.539504,0.259858,-0.220426,0.120888,-0.026024,-0.099239,0.002324,-0.018928,0.999999,-0.001102,0.000604,-0.000130,0.659019,-0.025449,0.748595,0.068197,150.682197,81.951013,158.294504
27328,-11.666180,-0.147935,-2.685090,-1.092988,-1.108596,2.057767,-0.279076,0.182836,-0.146802,-0.116687,-0.001431,-0.026742,0.999998,-0.001395,0.000914,-0.000734,0.658366,-0.026940,0.749066,0.068767,151.352840,81.900221,159.133230
27329,-12.516153,-0.694763,-2.188483,-0.407854,-1.603458,2.804314,0.030739,0.090535,-0.225820,-0.125179,-0.006803,-0.021829,0.999999,0.000154,0.000453,-0.001129,0.658126,-0.027675,0.749326,0.067929,152.298406,81.915727,160.070354
27330,-11.142184,-1.237019,-1.244072,0.404609,-1.917538,1.295213,0.390333,-0.073560,-0.195419,-0.111429,-0.012237,-0.012506,0.999998,0.001952,-0.000368,-0.000977,0.658539,-0.027058,0.749170,0.065866,153.043203,82.004855,160.596549
27331,-9.794667,-2.185264,-1.396371,0.177592,-2.795309,-0.075369,0.513112,-0.125106,-0.123749,-0.097951,-0.021756,-0.014081,0.999996,0.002566,-0.000626,-0.000619,0.659133,-0.025751,0.748891,0.063586,153.512891,82.101084,160.773797
27332,-9.518879,-2.580826,-1.869663,-0.305266,-3.217869,-0.309143,0.929758,-0.071264,-0.091470,-0.095194,-0.025677,-0.018850,0.999989,0.004649,-0.000356,-0.000457,0.659560,-0.022967,0.748914,0.059844,154.208828,82.161244,160.938442
27333,-9.378814,-0.414582,-1.272281,-0.002729,-0.970713,-0.388761,1.091266,-0.039699,-0.094242,-0.093788,-0.004032,-0.012764,0.999985,0.005456,-0.000198,-0.000471,0.659870,-0.019669,0.749070,0.055483,155.071180,82.205423,161.177636
27334,-8.883781,1.393726,-0.693412,0.317125,0.923576,-0.846569,0.652744,-0.006720,-0.026211,-0.088836,0.013971,-0.006892,0.999995,0.003264,-0.000034,-0.000131,0.659982,-0.017572,0.749205,0.052985,155.485686,82.215778,161.218393
27335,-8.994290,1.349793,-0.241979,0.787392,0.921424,-0.795552,0.136260,0.035067,0.074035,-0.089948,0.013466,-0.002395,1.000000,0.000681,0.000175,0.000370,0.659861,-0.016815,0.749345,0.052748,155.295932,82.180432,160.947934
27336,-9.430721,0.055759,-0.193444,1.018977,-0.389133,-0.443095,-0.194484,0.039910,0.130745,-0.094308,0.000494,-0.001916,0.999999,-0.000972,0.000200,0.000654,0.659679,-0.016938,0.749418,0.053937,154.714766,82.128600,160.473629
27337,-9.356672,-1.061317,-0.589612,0.731588,-1.552466,-0.534975,-0.280786,0.023263,0.178138,-0.093558,-0.010705,-0.005870,0.999999,-0.001404,0.000116,0.000891,0.659538,-0.017163,0.749415,0.055606,153.885709,82.072807,159.798900
27338,-9.320141,-0.753867,-0.473569,0.816810,-1.252832,-0.570350,-0.079326,0.039460,0.218069,-0.093194,-0.007642,-0.004714,0.999999,-0.000397,0.000197,0.001090,0.659340,-0.016579,0.749524,0.056652,153.066934,81.997152,159.017911
27339,-9.416312,0.250295,-0.430222,0.777316,-0.277180,-0.419414,0.037736,0.031843,0.226640,-0.094167,0.002397,-0.004287,0.999999,0.000189,0.000159,0.001133,0.659178,-0.015575,0.749640,0.057287,152.285097,81.921657,158.206315
27340,-9.247128,0.926481,-0.921627,0.207812,0.328839,-0.481783,0.163704,0.001526,0.247357,-0.092483,0.009158,-0.009208,0.999999,0.000819,0.000008,0.001237,0.659132,-0.014069,0.749692,0.057520,151.459208,81.854258,157.277205
27341,-9.084108,1.037650,-1.292637,-0.186122,0.387907,-0.588615,0.358332,-0.007512,0.270544,-0.090855,0.010277,-0.012911,0.999997,0.001792,-0.000038,0.001353,0.659125,-0.011833,0.749769,0.057101,150.661126,81.783163,156.263329
27342,-9.182305,2.044925,-1.447789,-0.412013,1.349682,-0.399871,0.534468,-0.009623,0.235349,-0.091846,0.020380,-0.014428,0.999996,0.002672,-0.000048,0.001177,0.659141,-0.009147,0.749883,0.055905,150.094924,81.721322,155.381650
27343,-9.141916,3.464482,-1.316330,-0.395947,2.763396,-0.351355,0.533010,0.004126,0.185870,-0.091452,0.034595,-0.013069,0.999996,0.002665,0.000021,0.000929,0.659114,-0.006654,0.750033,0.054551,149.732513,81.665892,154.706602
27344,-9.172960,4.017963,-1.512294,-0.613344,3.284010,-0.251656,0.358330,-0.005424,0.169023,-0.091763,0.040129,-0.015054,0.999998,0.001792,-0.000027,0.000845,0.659117,-0.004799,0.750098,0.053796,149.314619,81.619374,154.076579
27345,-9.275631,3.493703,-2.007475,-1.037169,2.702963,-0.122925,0.223137,-0.015578,0.150977,-0.092781,0.034889,-0.020043,0.999999,0.001116,-0.000078,0.000755,0.659158,-0.003453,0.750091,0.053489,148.864114,81.582462,153.491792
27346,-9.239019,2.801774,-1.829028,-0.807436,2.023000,-0.230919,0.166333,-0.010291,0.119902,-0.092406,0.027978,-0.018272,0.999999,0.000832,-0.000051,0.000600,0.659186,-0.002413,0.750085,0.053293,148.498960,81.551615,153.026171
27347,-9.333017,2.208252,-1.887873,-0.805663,1.413311,-0.174269,0.081832,0.012380,0.092220,-0.093342,0.022047,-0.018864,1.000000,0.000409,0.000062,0.000461,0.659135,-0.001760,0.750130,0.053322,148.224067,81.517600,152.700692
27348,-9.474227,2.081310,-1.354140,-0.245941,1.315493,-0.110342,0.093171,0.035025,0.049729,-0.094750,0.020796,-0.013515,1.000000,0.000466,0.000175,0.000249,0.659009,-0.001237,0.750252,0.053168,148.142660,81.485294,152.564276
27349,-9.465443,1.772695,-0.765079,0.362211,1.053180,-0.216750,-0.013818,0.048218,0.032500,-0.094659,0.017711,-0.007629,1.000000,-0.000069,0.000241,0.000163,0.658838,-0.001133,0.750389,0.053359,148.082315,81.451686,152.511111
27350,-9.609003,1.486761,-0.543456,0.624518,0.773717,-0.125062,-0.072353,0.046879,0.018695,-0.096093,0.014857,-0.005417,1.000000,-0.000362,0.000234,0.000093,0.658676,-0.001274,0.750506,0.053724,148.031646,81.422981,152.501663
27351,-9.570176,1.571987,-0.175210,0.980002,0.890062,-0.203448,-0.137554,0.053718,-0.012837,-0.095701,0.015725,-0.001737,1.000000,-0.000688,0.000269,-0.000064,0.658495,-0.001749,0.750627,0.054230,148.057845,81.400439,152.607705
27352,-9.429673,1.312739,-0.059511,1.096610,0.651117,-0.377697,-0.270660,0.052749,0.003754,-0.094297,0.013125,-0.000588,0.999999,-0.001353,0.000264,0.000019,0.658312,-0.002601,0.750708,0.055289,147.953477,81.373416,152.658861
27353,-9.613186,0.511153,-0.710437,0.542219,-0.217534,-0.177438,-0.311298,0.066716,0.019871,-0.096135,0.005091,-0.007080,0.999999,-0.001556,0.000334,0.000099,0.658070,-0.003528,0.750822,0.056555,147.801336,81.334662,152.685201
27354,-9.694357,0.064554,-0.986522,0.321363,-0.695683,-0.098229,-0.270050,0.066466,0.003499,-0.096947,0.000631,-0.009834,0.999999,-0.001350,0.000332,0.000017,0.657832,-0.004383,0.750945,0.057611,147.725918,81.301101,152.765298
27355,-9.575292,-0.065931,-1.348701,-0.035410,-0.854315,-0.180530,-0.210237,0.064976,0.009173,-0.095757,-0.000678,-0.013455,0.999999,-0.001051,0.000325,0.000046,0.657599,-0.005018,0.751079,0.058461,147.662624,81.266494,152.822942
27356,-9.691863,-0.099168,-1.733987,-0.390705,-0.935629,-0.018776,-0.084133,0.070603,0.017573,-0.096925,-0.001007,-0.017305,1.000000,-0.000421,0.000353,0.000088,0.657345,-0.005209,0.751269,0.058865,147.657455,81.226639,152.866354
27357,-9.686006,-0.187903,-1.856128,-0.498229,-1.036606,-0.015931,0.101144,0.066265,0.010661,-0.096866,-0.001875,-0.018530,1.000000,0.000506,0.000331,0.000053,0.657114,-0.004815,0.751498,0.058551,147.770026,81.190954,152.921442
27358,-9.573222,0.374587,-1.647934,-0.349922,-0.448287,-0.108092,0.284881,0.052882,0.001197,-0.095737,0.003769,-0.016449,0.999999,0.001424,0.000264,0.000006,0.656940,-0.003851,0.751736,0.057515,147.991375,81.164661,152.980131
27359,-9.273588,0.889249,-1.305460,-0.087885,0.119530,-0.406710,0.436168,0.056701,0.008935,-0.092740,0.008917,-0.013009,0.999998,0.002181,0.000284,0.000045,0.656750,-0.002360,0.752028,0.055936,148.280785,81.134090,153.019942
27360,-9.335718,0.833778,-1.246988,-0.007747,0.069489,-0.357483,0.513630,0.078373,0.024740,-0.093363,0.008358,-0.012412,0.999997,0.002568,0.000392,0.000124,0.656470,-0.000563,0.752408,0.054117,148.606479,81.088206,153.051598
27361,-9.703348,0.171704,-0.620391,0.719762,-0.561470,-0.130951,0.698651,0.090128,0.051156,-0.097037,0.001714,-0.006154,0.999994,0.003493,0.000451,0.000256,0.656134,0.001939,0.752869,0.051688,148.975221,81.028647,153.019485
27362,-9.830995,0.659915,-0.088647,1.242834,-0.047093,-0.037978,0.774728,0.090712,0.043278,-0.098312,0.006581,-0.000816,0.999992,0.003874,0.000454,0.000216,0.655788,0.004660,0.753343,0.048945,149.411589,80.971190,153.011741
27363,-10.251927,2.952937,0.231259,1.506346,2.225507,0.514622,0.532513,0.103603,-0.020664,-0.102515,0.029534,0.002444,0.999996,0.002663,0.000518,-0.000103,0.655407,0.006343,0.753791,0.046906,149.927207,80.925853,153.224720
27364,-9.486534,3.825671,-0.320044,0.821497,3.118863,-0.100306,-0.077504,0.058295,-0.089685,-0.094849,0.038298,-0.003188,1.000000,-0.000388,0.000291,-0.000448,0.655230,0.005777,0.753948,0.046937,150.225135,80.922523,153.571263
27365,-9.125331,2.265205,-1.712066,-0.523270,1.508035,-0.390055,-0.393476,0.092468,-0.117291,-0.091248,0.022672,-0.017123,0.999998,-0.001967,0.000462,-0.000586,0.654938,0.004065,0.754141,0.048071,150.486819,80.909713,154.064366
27366,-9.042462,0.466470,-2.192944,-0.905727,-0.306702,-0.545633,-0.335249,0.087031,-0.103076,-0.090432,0.004675,-0.021898,0.999998,-0.001676,0.000435,-0.000515,0.654660,0.002597,0.754328,0.049031,150.728246,80.895296,154.503268
27367,-9.278905,-0.064047,-1.972944,-0.614385,-0.830398,-0.382542,0.099149,0.123961,-0.072586,-0.092801,-0.000597,-0.019672,1.000000,0.000496,0.000620,-0.000363,0.654228,0.002659,0.754739,0.048453,151.184153,80.853440,154.907282
27368,-9.853991,0.021155,-1.935901,-0.489824,-0.770424,0.188102,0.347684,0.110825,-0.081618,-0.098551,0.000285,-0.019304,0.999998,0.001738,0.000554,-0.000408,0.653842,0.003501,0.755167,0.046907,151.785664,80.820114,155.314653
27369,-9.693511,0.968631,-1.215137,0.157175,0.247348,0.000214,0.478571,0.102701,-0.125260,-0.096935,0.009776,-0.012078,0.999997,0.002393,0.000514,-0.000626,0.653493,0.004610,0.755596,0.044724,152.580541,80.801747,155.841910
27370,-9.748094,1.123399,-0.898918,0.482054,0.435101,0.019590,0.287090,0.106723,-0.156115,-0.097477,0.011323,-0.008921,0.999999,0.001435,0.000534,-0.000781,0.653136,0.004973,0.755993,0.043163,153.368037,80.788235,156.472910
27371,-9.693018,0.720877,-0.842045,0.561267,0.059820,-0.072839,0.227053,0.113217,-0.191792,-0.096928,0.007311,-0.008357,0.999999,0.001135,0.000566,-0.000959,0.652763,0.005007,0.756396,0.041714,154.240962,80.778917,157.225264
27372,-9.291588,0.704746,-0.254935,1.092925,0.119628,-0.555991,0.205497,0.102307,-0.163578,-0.092911,0.007126,-0.002495,0.999999,0.001027,0.000512,-0.000818,0.652424,0.005077,0.756758,0.040436,154.994647,80.766634,157.869414
27373,-8.867591,0.618165,-0.368397,0.932058,0.064661,-0.965141,0.120257,0.129347,-0.093927,-0.088675,0.006225,-0.003623,0.999999,0.000601,0.000647,-0.000470,0.651970,0.005129,0.757187,0.039710,155.512705,80.722422,158.324284
27374,-9.452035,0.664636,-0.083432,1.313537,0.098441,-0.428948,0.093440,0.191630,-0.056971,-0.094519,0.006674,-0.000741,0.999999,0.000467,0.000958,-0.000285,0.651272,0.005219,0.757812,0.039207,155.982869,80.636353,158.746353
27375,-9.994226,0.351202,-0.455866,1.059197,-0.259533,0.138514,-0.116307,0.190022,-0.072725,-0.099945,0.003546,-0.004466,0.999999,-0.000582,0.000950,-0.000364,0.650590,0.004569,0.758391,0.039447,156.371391,80.554282,159.207486
27376,-10.063725,-0.446520,-1.187118,0.400721,-1.091114,0.263822,-0.146736,0.169377,-0.094015,-0.100649,-0.004427,-0.011783,0.999999,-0.000734,0.000847,-0.000470,0.649988,0.003741,0.758896,0.039733,156.775660,80.487374,159.702457
27377,-9.578858,-1.495361,-1.983399,-0.398293,-2.144680,-0.160424,0.090342,0.129783,-0.083324,-0.095808,-0.014905,-0.019779,1.000000,0.000452,0.000649,-0.000417,0.649531,0.003734,0.759317,0.039153,157.222152,80.438396,160.102479
27378,-9.338536,-1.394159,-2.392324,-0.838874,-2.036257,-0.324534,0.741313,0.115784,-0.073478,-0.093404,-0.013819,-0.023921,0.999993,0.003707,0.000579,-0.000367,0.649107,0.005879,0.759816,0.036133,157.988871,80.393939,160.449165
27379,-9.158616,0.929093,-1.962456,-0.520445,0.338729,-0.420725,1.194143,0.136629,-0.092446,-0.091595,0.009450,-0.019506,0.999982,0.005971,0.000683,-0.000462,0.648578,0.009420,0.760445,0.031331,159.093325,80.341455,160.875211
27380,-8.726290,2.575800,-1.874124,-0.514165,2.039745,-0.764479,1.109312,0.147715,-0.103388,-0.087263,0.025906,-0.018533,0.999984,0.005547,0.000739,-0.000517,0.647990,0.012640,0.761072,0.026816,160.189106,80.283785,161.341928
27381,-9.080883,2.272137,-1.924820,-0.464298,1.743051,-0.427805,0.917248,0.188745,-0.068473,-0.090819,0.022840,-0.019058,0.999989,0.004586,0.000944,-0.000342,0.647237,0.015366,0.761783,0.023146,161.099887,80.195970,161.732606
27382,-9.492923,1.191273,-1.385462,0.173800,0.670478,-0.170365,0.799984,0.192333,-0.070882,-0.094938,0.012001,-0.013715,0.999991,0.004000,0.000962,-0.000354,0.646466,0.017702,0.762478,0.019915,161.944507,80.105605,162.124515
27383,-9.982268,0.569938,-1.092771,0.567350,0.042479,0.229269,0.742461,0.202620,-0.080263,-0.099831,0.005780,-0.010805,0.999993,0.003712,0.001013,-0.000401,0.645652,0.019817,0.763188,0.016874,162.783075,80.010298,162.543768
27384,-10.270364,1.575221,-0.361696,1.371032,1.046136,0.440034,0.683320,0.188799,-0.123189,-0.102697,0.015827,-0.003466,0.999994,0.003417,0.000944,-0.000616,0.644891,0.021575,0.763843,0.013918,163.697182,79.928544,163.074341
27385,-9.663206,2.733782,-0.608407,1.069122,2.250337,-0.065166,0.280986,0.158568,-0.151832,-0.096616,0.027420,-0.005969,0.999998,0.001405,0.000793,-0.000759,0.644286,0.021931,0.764370,0.012404,164.430915,79.866674,163.655868
27386,-9.552493,2.456583,-1.826008,-0.137076,2.004697,0.014906,-0.119694,0.170381,-0.174492,-0.095519,0.024638,-0.018193,0.999999,-0.000598,0.000852,-0.000872,0.643679,0.020907,0.764910,0.012348,165.008475,79.800488,164.312181
27387,-9.476467,1.494305,-2.887330,-1.199792,1.067712,0.076373,-0.251025,0.149212,-0.200042,-0.094771,0.015002,-0.028821,0.999998,-0.001255,0.000746,-0.001000,0.643168,0.019366,0.765375,0.012711,165.563192,79.748655,165.021754
27388,-9.483621,0.095696,-3.503394,-1.812532,-0.316131,0.128980,-0.223705,0.135590,-0.198915,-0.094859,0.001012,-0.034971,0.999999,-0.001119,0.000678,-0.000995,0.642703,0.017916,0.765796,0.012971,166.114931,79.702969,165.712614
27389,-9.348533,-0.537229,-3.927271,-2.247422,-0.927476,0.046115,-0.024568,0.129648,-0.211444,-0.093516,-0.005278,-0.039211,0.999999,-0.000123,0.000648,-0.001057,0.642244,0.017060,0.766210,0.012429,166.807487,79.660955,166.430645
27390,-9.668385,0.344180,-2.809835,-1.068441,-0.041246,0.204695,0.222659,0.148135,-0.225939,-0.096701,0.003582,-0.028023,0.999998,0.001113,0.000741,-0.001130,0.641692,0.016940,0.766698,0.010893,167.693759,79.608654,167.201797
27391,-9.765280,2.239598,-1.794947,-0.015410,1.870860,0.192206,0.125972,0.119235,-0.268314,-0.097633,0.022538,-0.017877,0.999999,0.000630,0.000596,-0.001342,0.641259,0.016350,0.767090,0.009591,168.626310,79.575334,168.076381
27392,-9.282393,3.451644,-1.168248,0.539652,3.122585,-0.357549,-0.147661,0.110274,-0.298427,-0.092779,0.034646,-0.011657,0.999998,-0.000738,0.000551,-0.001492,0.640883,0.014765,0.767441,0.009240,169.484641,79.547873,169.035050
27393,-9.442969,3.063275,-0.803843,0.919641,2.751114,-0.284569,-0.581920,0.108288,-0.296060,-0.094389,0.030749,-0.008077,0.999995,-0.002910,0.000541,-0.001480,0.640542,0.011801,0.767760,0.010564,170.079588,79.519083,169.978930
27394,-9.468535,1.194264,-1.921764,-0.189152,0.899294,-0.121038,-0.822430,0.104939,-0.324067,-0.094676,0.012017,-0.019217,0.999990,-0.004112,0.000525,-0.001620,0.640220,0.007956,0.768045,0.012720,170.618044,79.493185,171.005646
27395,-9.510815,-0.359163,-2.244276,-0.486376,-0.644141,-0.067439,-0.761156,0.109278,-0.327198,-0.095126,-0.003521,-0.022377,0.999991,-0.003806,0.000546,-0.001636,0.639867,0.004298,0.768334,0.014632,171.197197,79.463299,172.038071
27396,-9.176946,-1.431644,-2.443829,-0.714618,-1.697420,-0.386857,-0.569256,0.105411,-0.313562,-0.091805,-0.014242,-0.024349,0.999995,-0.002846,0.000527,-0.001568,0.639515,0.001304,0.768614,0.015848,171.840218,79.432433,173.023790
27397,-9.672005,-1.937466,-2.189571,-0.347504,-2.190110,0.045216,-0.199704,0.139021,-0.282101,-0.096762,-0.019260,-0.021809,0.999998,-0.000999,0.000695,-0.001411,0.639025,-0.000388,0.769025,0.015747,172.605580,79.377837,173.918647
27398,-9.544353,-1.006112,-1.164048,0.630917,-1.206820,-0.241512,0.102371,0.109445,-0.278296,-0.095464,-0.009922,-0.011593,0.999999,0.000512,0.000547,-0.001391,0.638646,-0.001101,0.769363,0.014495,173.514984,79.337390,174.784152
27399,-9.362852,0.738091,-0.762335,0.966743,0.574930,-0.457276,0.019085,0.127738,-0.267845,-0.093623,0.007507,-0.007563,0.999999,0.000095,0.000639,-0.001339,0.638195,-0.002038,0.769752,0.013597,174.342295,79.283492,175.614759
27400,-9.573549,1.673681,-1.073800,0.688799,1.522606,-0.178671,-0.250971,0.119836,-0.254657,-0.095721,0.016845,-0.010702,0.999998,-0.001255,0.000599,-0.001273,0.637769,-0.003788,0.770095,0.013780,174.966715,79.231425,176.396546
27401,-9.341251,0.601092,-2.013026,-0.246110,0.445392,-0.251642,-0.450041,0.101875,-0.239440,-0.093416,0.006078,-0.020096,0.999997,-0.002250,0.000509,-0.001197,0.637404,-0.006110,0.770364,0.014779,175.419241,79.187563,177.119510
27402,-9.284236,-1.040952,-2.637112,-0.813495,-1.202638,-0.214415,-0.349541,0.106737,-0.222216,-0.092868,-0.010352,-0.026303,0.999998,-0.001748,0.000534,-0.001111,0.637018,-0.008049,0.770652,0.015445,175.875725,79.139051,177.788059
27403,-9.678957,-1.913958,-2.252922,-0.320332,-2.048782,0.092913,0.008677,0.147937,-0.224861,-0.096828,-0.019030,-0.022458,0.999999,0.000043,0.000740,-0.001124,0.636487,-0.008857,0.771096,0.014722,176.545596,79.065895,178.464977
27404,-9.701729,-1.633997,-1.816117,0.114688,-1.730413,0.040445,0.223051,0.126405,-0.236574,-0.097048,-0.016205,-0.018118,0.999998,0.001115,0.000632,-0.001183,0.636047,-0.009029,0.771486,0.013134,177.361883,79.003714,179.166135
27405,-9.596227,-0.888577,-1.375039,0.512798,-0.945479,-0.137414,0.355962,0.128725,-0.216946,-0.095981,-0.008757,-0.013704,0.999998,0.001780,0.000644,-0.001085,0.635601,-0.008701,0.771889,0.011097,178.186902,78.937913,179.798704
27406,-9.639622,-0.308101,-1.339231,0.548708,-0.339996,-0.097027,0.391855,0.109912,-0.196929,-0.096407,-0.002960,-0.013345,0.999997,0.001959,0.000550,-0.000985,0.635224,-0.008183,0.772232,0.008985,178.965629,78.880864,-179.636671
27407,-9.456922,-0.289080,-2.351066,-0.472214,-0.320084,-0.080322,0.423703,0.086935,-0.198632,-0.094582,-0.002747,-0.023475,0.999997,0.002119,0.000435,-0.000993,0.634935,-0.007567,0.772499,0.006746,179.758982,78.835570,-179.075701
27408,-9.665876,-0.033799,-2.690443,-0.762788,-0.039697,0.191574,0.567644,0.092099,-0.208600,-0.096671,-0.000161,-0.026861,0.999995,0.002838,0.000460,-0.001043,0.634627,-0.006534,0.772781,0.003919,-179.341035,78.785632,-178.489951
27409,-9.599865,0.333415,-2.825001,-0.906412,0.362724,0.152046,0.670338,0.046293,-0.233718,-0.096001,0.003541,-0.028216,0.999994,0.003352,0.000231,-0.001169,0.634492,-0.005270,0.772911,0.000617,-178.314480,78.759789,-177.835119
27410,-9.369419,0.767111,-2.325946,-0.457339,0.839311,-0.175741,0.781211,0.066215,-0.254356,-0.093692,0.007881,-0.023198,0.999992,0.003906,0.000331,-0.001272,0.634274,-0.003736,0.773093,-0.003180,-177.170667,78.719606,-177.125375
27411,-9.563705,1.189854,-1.931355,-0.021342,1.303322,-0.070455,0.589764,0.068809,-0.287246,-0.095626,0.012093,-0.019245,0.999995,0.002949,0.000344,-0.001436,0.634034,-0.002934,0.773274,-0.006340,-176.050893,78.674141,-176.328215
27412,-9.605555,0.878221,-1.857781,0.067531,1.027874,-0.043956,0.347514,0.047639,-0.300668,-0.096047,0.008959,-0.018539,0.999997,0.001738,0.000238,-0.001503,0.633866,-0.002954,0.773390,-0.008607,-175.033074,78.637214,-175.493326
27413,-9.714839,-0.166230,-2.178555,-0.227639,0.021659,0.142183,0.182776,0.027672,-0.302325,-0.097154,-0.001496,-0.021774,0.999998,0.000914,0.000138,-0.001512,0.633770,-0.003502,0.773446,-0.010240,-174.106538,78.608859,-174.655212
27414,-9.568176,-1.348504,-2.892827,-0.966402,-1.120746,0.164626,0.264172,-0.006193,-0.304143,-0.095701,-0.013301,-0.028949,0.999998,0.001321,-0.000031,-0.001521,0.633804,-0.003803,0.773388,-0.012195,-173.120156,78.596857,-173.803526
27415,-9.485398,-1.744040,-2.974006,-1.072097,-1.475639,0.113645,0.579494,0.003994,-0.315023,-0.094882,-0.017205,-0.029788,0.999995,0.002897,0.000020,-0.001575,0.633800,-0.003144,0.773338,-0.015402,-171.930060,78.575110,-172.928303
27416,-9.526192,-0.899738,-2.432326,-0.528903,-0.593383,0.028147,0.851084,-0.014093,-0.312474,-0.095274,-0.008745,-0.024368,0.999990,0.004255,-0.000070,-0.001562,0.633860,-0.001618,0.773197,-0.019652,-170.586463,78.559950,-172.055147
27417,-9.374231,0.298625,-1.686494,0.196119,0.625997,-0.305893,0.966972,-0.015494,-0.314921,-0.093736,0.003215,-0.016857,0.999987,0.004835,-0.000077,-0.001575,0.633911,0.000268,0.773022,-0.024356,-169.173445,78.541209,-171.178865
27418,-9.578597,1.156267,-1.241775,0.703528,1.514206,-0.229339,0.777487,-0.016514,-0.328413,-0.095766,0.011768,-0.012380,0.999991,0.003887,-0.000083,-0.001642,0.633951,0.001499,0.772851,-0.028372,-167.834059,78.517289,-170.266861
27419,-9.780728,1.292100,-1.473971,0.526038,1.707789,0.001146,0.487123,-0.035124,-0.364224,-0.097781,0.013135,-0.014725,0.999995,0.002436,-0.000176,-0.001821,0.634052,0.001671,0.772652,-0.031377,-166.557012,78.495139,-169.248646
27420,-9.529235,0.571386,-1.816968,0.110826,1.038476,-0.151253,0.340758,-0.046063,-0.391616,-0.095277,0.005931,-0.018182,0.999997,0.001704,-0.000230,-0.001958,0.634187,0.001269,0.772435,-0.033905,-165.285140,78.470682,-168.150024
27421,-9.360814,-0.320150,-2.318209,-0.456384,0.212402,-0.176928,0.314385,-0.055592,-0.400558,-0.093608,-0.002978,-0.023213,0.999997,0.001572,-0.000278,-0.002003,0.634354,0.000750,0.772187,-0.036357,-164.003790,78.445331,-167.026236
27422,-9.438081,-0.707764,-2.762560,-0.899848,-0.097598,0.005182,0.442070,-0.047814,-0.420283,-0.094389,-0.006818,-0.027663,0.999995,0.002210,-0.000239,-0.002101,0.634481,0.000558,0.771935,-0.039367,-162.607620,78.407133,-165.859767
27423,-9.260351,-0.295652,-2.122790,-0.291652,0.316310,-0.317298,0.528458,-0.054361,-0.436665,-0.092604,-0.002698,-0.021260,0.999994,0.002642,-0.000272,-0.002183,0.634623,0.000579,0.771637,-0.042760,-161.123388,78.363782,-164.653770
27424,-9.115309,-0.267532,-1.656068,0.134865,0.353882,-0.552051,0.476727,-0.049363,-0.423495,-0.091154,-0.002443,-0.016589,0.999995,0.002384,-0.000247,-0.002117,0.634743,0.000485,0.771358,-0.045912,-159.717066,78.314071,-163.496845
27425,-9.597439,-0.379647,-1.483477,0.387779,0.304112,-0.106369,0.454460,-0.037466,-0.427637,-0.095979,-0.003557,-0.014861,0.999995,0.002272,-0.000187,-0.002138,0.634809,0.000309,0.771114,-0.048990,-158.337691,78.251561,-162.354188
27426,-9.636525,-0.565609,-1.519171,0.344406,0.171062,-0.048347,0.370459,-0.070274,-0.429875,-0.096372,-0.005421,-0.015236,0.999996,0.001852,-0.000351,-0.002149,0.634996,-0.000153,0.770780,-0.051752,-156.978160,78.200330,-161.182391
27427,-9.495452,-0.945780,-2.285971,-0.465218,-0.106913,-0.011887,0.371779,-0.078925,-0.441675,-0.094966,-0.009206,-0.022914,0.999996,0.001859,-0.000395,-0.002208,0.635208,-0.000655,0.770412,-0.054555,-155.591630,78.145309,-159.983575
27428,-9.412763,-0.655483,-2.334481,-0.516321,0.231250,-0.109118,0.428725,-0.085486,-0.453216,-0.094132,-0.006291,-0.023399,0.999995,0.002144,-0.000427,-0.002266,0.635436,-0.001025,0.770000,-0.057614,-154.147797,78.084719,-158.759271
27429,-9.434685,-0.118841,-2.540379,-0.681714,0.837405,-0.101112,0.415719,-0.090040,-0.472357,-0.094338,-0.000913,-0.025448,0.999995,0.002079,-0.000450,-0.002362,0.635671,-0.001510,0.769570,-0.060683,-152.675273,78.015263,-157.497738
27430,-9.628645,0.247595,-2.387557,-0.473089,1.258904,0.019077,0.433926,-0.102072,-0.504711,-0.096268,0.002771,-0.023919,0.999994,0.002170,-0.000510,-0.002524,0.635935,-0.002067,0.769088,-0.063925,-151.115891,77.936154,-156.157710
27431,-9.587747,0.323519,-2.181830,-0.279990,1.370681,-0.074493,0.403212,-0.127336,-0.554812,-0.095854,0.003545,-0.021872,0.999994,0.002016,-0.000637,-0.002774,0.636272,-0.002919,0.768526,-0.067205,-149.446107,77.847667,-154.686348
27432,-9.778497,0.205763,-2.127471,-0.207492,1.330268,0.105699,0.440427,-0.133732,-0.604669,-0.097764,0.002400,-0.021335,0.999993,0.002202,-0.000669,-0.003023,0.636610,-0.003850,0.767921,-0.070788,-147.657143,77.737999,-153.114321
27433,-9.904895,0.173630,-2.270264,-0.335439,1.396898,0.248467,0.458934,-0.175470,-0.659497,-0.099022,0.002115,-0.022785,0.999992,0.002295,-0.000877,-0.003297,0.637079,-0.004944,0.767163,-0.074613,-145.710513,77.620425,-151.391082
27434,-10.521889,0.869203,-3.405292,-1.282302,2.352997,0.952072,0.401046,-0.231399,-0.728139,-0.105147,0.009143,-0.034157,0.999991,0.002005,-0.001157,-0.003641,0.637724,-0.006509,0.766233,-0.078433,-143.603138,77.493149,-149.468468
27435,-11.032705,2.009032,-4.620330,-2.293351,3.769038,1.485010,0.415115,-0.337518,-0.825500,-0.110164,0.020641,-0.046347,0.999988,0.002076,-0.001688,-0.004127,0.638725,-0.008442,0.764941,-0.082611,-141.168573,77.363838,-147.217914
27436,-9.453870,1.080558,-3.277799,-1.382508,2.616787,-0.193578,0.563727,-0.422181,-0.918599,-0.094418,0.011332,-0.032946,0.999983,0.002819,-0.002111,-0.004593,0.639999,-0.010293,0.763291,-0.087650,-138.380986,77.214738,-144.691560
27437,-9.384131,1.034137,-4.210456,-2.339066,2.783769,-0.136045,0.526238,-0.396515,-1.008946,-0.093703,0.010925,-0.042262,0.999982,0.002631,-0.001983,-0.005045,0.641111,-0.012594,0.761709,-0.092831,-135.566676,76.992773,-142.113841
27438,-11.486659,3.075408,-3.655288,-1.239129,5.138881,1.448616,0.672456,-0.383586,-1.094941,-0.114625,0.031505,-0.036668,0.999978,0.003362,-0.001918,-0.005475,0.642118,-0.014751,0.760063,-0.098845,-132.644116,76.701514,-139.508385
27439,-12.501428,3.365367,-3.522462,-0.927022,5.711539,2.292481,0.657362,-0.524325,-1.209641,-0.124715,0.034525,-0.035439,0.999973,0.003287,-0.002622,-0.006048,0.643570,-0.017457,0.757929,-0.105150,-129.426116,76.382538,-136.586890
27440,-12.006927,2.126911,-4.064421,-1.705558,4.678374,2.036763,1.142379,-0.510479,-1.354365,-0.119816,0.022314,-0.040825,0.999958,0.005712,-0.002552,-0.006772,0.644891,-0.019146,0.755518,-0.113757,-125.908528,75.953349,-133.638533
27441,-12.422304,2.529519,-1.881948,0.544072,5.017641,1.967694,1.791932,-0.392282,-1.387648,-0.124006,0.026325,-0.018830,0.999934,0.008959,-0.001961,-0.006938,0.645739,-0.018793,0.753036,-0.124920,-122.406417,75.428420,-131.083952
27442,-12.244588,4.229161,-1.077006,1.561766,6.669924,1.234738,1.914990,-0.333522,-1.290631,-0.122151,0.043182,-0.010563,0.999932,0.009575,-0.001668,-0.006453,0.646352,-0.017642,0.750573,-0.136225,-119.259224,74.897851,-128.963451
27443,-11.639718,6.764337,-0.650549,2.342010,9.033943,-0.088372,1.903461,-0.178109,-1.085919,-0.116022,0.068332,-0.005961,0.999940,0.009517,-0.000891,-0.005429,0.646437,-0.015648,0.748544,-0.146817,-116.777039,74.403579,-127.520470
27444,-10.849241,8.835676,0.240538,3.538561,10.733867,-1.560794,1.436852,-0.093778,-0.744231,-0.108164,0.088740,0.002991,0.999967,0.007184,-0.000469,-0.003721,0.646362,-0.013824,0.747086,-0.154557,-115.120500,74.050179,-126.654726
27445,-11.346770,9.084045,0.986379,4.478298,10.945109,-1.304406,0.829593,-0.080599,-0.418549,-0.113281,0.091036,0.010195,0.999989,0.004148,-0.000403,-0.002093,0.646418,-0.012728,0.746131,-0.158964,-114.151886,73.858753,-126.141571
27446,-10.673994,8.881683,1.922115,5.265716,10.408919,-2.038398,0.129533,-0.174550,-0.170727,-0.106681,0.088895,0.019186,0.999999,0.000648,-0.000873,-0.000854,0.646970,-0.013052,0.745435,-0.159956,-113.623028,73.816311,-125.668356
27447,-9.899322,7.116351,1.255261,4.131956,8.719543,-2.255509,-0.604007,-0.146966,0.090667,-0.099035,0.071156,0.012265,0.999995,-0.003020,-0.000735,0.000453,0.647577,-0.014742,0.745428,-0.157363,-113.774814,73.905297,-125.466372
27448,-10.689950,4.935292,0.827379,3.389499,6.920663,-0.872216,-0.902787,-0.144534,0.297608,-0.106979,0.049230,0.007974,0.999988,-0.004514,-0.000723,0.001488,0.648305,-0.016637,0.745666,-0.152991,-114.267939,74.101259,-125.441401
27449,-11.090622,3.304204,0.023780,2.325775,5.602649,0.042302,-1.085333,-0.225745,0.434365,-0.110978,0.032801,-0.000066,0.999982,-0.005427,-0.001129,0.002172,0.649406,-0.018663,0.745771,-0.147476,-114.839819,74.389155,-125.389862
27450,-10.741486,2.250271,0.019640,2.032156,4.482346,-0.003405,-1.049475,-0.271294,0.536857,-0.107475,0.022214,-0.000066,0.999982,-0.005247,-0.001356,0.002684,0.650732,-0.020235,0.745683,-0.141760,-115.402305,74.740159,-125.349724
27451,-9.941040,1.714393,-0.144944,1.611336,3.777224,-0.597480,-1.100027,-0.247438,0.667261,-0.099465,0.016803,-0.001666,0.999979,-0.005500,-0.001237,0.003336,0.652031,-0.021455,0.745692,-0.135420,-116.177508,75.153986,-125.500259
27452,-9.627620,0.131666,-1.452484,0.013550,2.342171,-0.361162,-1.096543,-0.198546,0.849627,-0.096266,0.000828,-0.014626,0.999975,-0.005483,-0.000993,0.004248,0.653241,-0.021962,0.745842,-0.128505,-117.254403,75.646490,-125.963975
27453,-8.649991,-2.383161,-1.093694,-0.140169,-0.439119,-0.785803,-0.563734,-0.085790,1.064877,-0.086367,-0.024322,-0.010906,0.999982,-0.002819,-0.000429,0.005324,0.654200,-0.019840,0.746010,-0.122873,-118.545684,76.216703,-126.962668
27454,-8.691331,-3.438785,-2.085123,-1.262859,-1.415369,-0.425856,-0.037545,-0.006721,1.441747,-0.086662,-0.035017,-0.020848,0.999974,-0.000188,-0.000034,0.007209,0.655117,-0.014554,0.746117,-0.117981,-120.252523,76.944893,-128.695390
27455,-9.592859,-1.650212,-1.997729,-0.845078,0.326921,0.082466,0.963041,-0.012069,1.764818,-0.095777,-0.017251,-0.020065,0.999949,0.004815,-0.000060,0.008824,0.656267,-0.004775,0.745582,-0.115747,-122.014880,77.822072,-131.067184
27456,-9.500291,3.148370,1.785969,3.525124,4.176732,-1.240542,1.185943,-0.083626,2.014620,-0.095320,0.030418,0.018002,0.999932,0.005930,-0.000418,0.010073,0.657755,0.006613,0.744600,-0.113516,-124.193407,78.822008,-133.985635
27457,-8.847757,5.437381,2.455819,4.446539,6.003425,-2.192893,0.146513,-0.184538,2.275441,-0.089111,0.053344,0.024515,0.999935,0.000733,-0.000923,0.011377,0.659712,0.015509,0.743767,-0.106537,-127.748872,79.947644,-137.688699
27458,-9.199560,4.843966,1.116681,3.038719,5.517554,-1.466410,-0.762717,-0.122985,2.450032,-0.092587,0.047350,0.010928,0.999918,-0.003813,-0.000615,0.012250,0.661505,0.022072,0.743496,-0.095589,-133.331732,81.067805,-142.905752
27459,-10.266620,3.010042,0.259335,1.964111,3.751103,0.015662,-1.434213,-0.088840,2.520323,-0.103036,0.028821,0.002338,0.999895,-0.007171,-0.000444,0.012601,0.663155,0.026702,0.743510,-0.081882,-141.108196,82.095339,-149.936315
27460,-11.324399,0.480500,-1.723965,-0.306234,1.370776,1.565528,-1.768300,-0.119070,2.518386,-0.113281,0.003226,-0.017340,0.999881,-0.008841,-0.000595,0.012591,0.664811,0.030184,0.743394,-0.066934,-150.991585,82.966253,-158.881962
27461,-12.089019,-2.240469,-2.725459,-1.619134,-1.472637,2.588606,-1.579272,-0.155488,2.446159,-0.120581,-0.024096,-0.027163,0.999894,-0.007896,-0.000777,0.012230,0.666401,0.034023,0.742936,-0.052910,-162.607840,83.609139,-169.667268
27462,-11.626787,-3.198244,-3.317176,-2.399849,-2.683831,2.164121,-1.330831,-0.205899,2.264894,-0.115860,-0.033516,-0.033072,0.999913,-0.006654,-0.001029,0.011324,0.667956,0.037980,0.742131,-0.040419,-174.934343,83.983757,178.701055
27463,-10.434747,-3.161335,-3.180465,-2.409603,-2.942252,0.888920,-0.978781,-0.160993,2.150642,-0.103973,-0.032888,-0.031730,0.999930,-0.004894,-0.000805,0.010753,0.669151,0.042707,0.741308,-0.029593,172.633779,84.054814,166.764920
27464,-9.362264,-3.339915,-2.781285,-2.156476,-3.373761,-0.299261,-1.009933,-0.135311,2.082765,-0.093248,-0.034512,-0.027704,0.999933,-0.005050,-0.000677,0.010414,0.670154,0.047062,0.740488,-0.018878,160.839636,83.857397,155.487047
27465,-8.651978,-4.395310,-3.398838,-2.939544,-4.550393,-1.073343,-0.913385,-0.065478,2.048474,-0.086051,-0.044991,-0.033813,0.999937,-0.004567,-0.000327,0.010242,0.670784,0.051627,0.739803,-0.008607,150.509870,83.406430,145.619595
27466,-8.707114,-4.651035,-3.218246,-2.771262,-5.020431,-1.157368,-0.612091,0.054806,1.994315,-0.086610,-0.047474,-0.032014,0.999946,-0.003060,0.000274,0.009971,0.670810,0.056988,0.739437,0.000391,142.399306,82.746871,137.802922
27467,-9.023811,-3.951296,-2.865564,-2.327117,-4.564940,-0.924733,-0.453698,0.113784,1.944649,-0.089864,-0.040453,-0.028513,0.999950,-0.002268,0.000569,0.009723,0.670502,0.062702,0.739203,0.008661,136.106169,81.966847,131.715448
27468,-9.266169,-3.347099,-2.804340,-2.189538,-4.174290,-0.718324,-0.338178,0.161461,1.847256,-0.092370,-0.034372,-0.027911,0.999956,-0.001691,0.000807,0.009236,0.669921,0.068424,0.739095,0.016185,131.391595,81.135799,127.145084
27469,-9.227277,-2.650102,-1.712586,-1.047934,-3.720095,-0.859534,-0.294075,0.182532,1.709116,-0.092057,-0.027313,-0.017002,0.999962,-0.001470,0.000913,0.008545,0.669203,0.073787,0.739046,0.023096,127.849263,80.310974,123.726257
27470,-9.049790,-1.867190,-2.166137,-1.442932,-3.046941,-0.940865,-0.535973,0.210888,1.577042,-0.090369,-0.019443,-0.021515,0.999965,-0.002680,0.001054,0.007885,0.668436,0.077832,0.739059,0.030461,125.038213,79.509488,121.182914
27471,-9.402465,-1.132411,-1.655215,-0.830562,-2.555989,-0.582106,-0.643398,0.273431,1.447536,-0.093962,-0.012057,-0.016386,0.999968,-0.003217,0.001367,0.007238,0.667452,0.081035,0.739263,0.037818,122.899970,78.729941,119.380612
27472,-9.568750,-1.670079,-1.924039,-1.093863,-3.241652,-0.520465,-0.931367,0.268882,1.294685,-0.095602,-0.017409,-0.019032,0.999967,-0.004657,0.001344,0.006473,0.666588,0.082698,0.739413,0.045719,121.064024,78.015997,118.050922
27473,-9.814238,-2.593378,-1.955569,-1.123051,-4.323023,-0.489717,-0.818150,0.299944,1.121287,-0.098024,-0.026563,-0.019301,0.999975,-0.004091,0.001500,0.005606,0.665562,0.084094,0.739719,0.052641,119.754955,77.370499,117.190546
27474,-9.180336,-2.892351,-1.099309,-0.313016,-4.630401,-1.308977,-0.761261,0.264980,0.994801,-0.091672,-0.029421,-0.010760,0.999980,-0.003806,0.001325,0.004974,0.664645,0.085208,0.739944,0.058907,118.659551,76.795521,116.514078
27475,-8.503912,-2.507980,-1.019459,-0.246809,-4.207815,-1.946412,-0.774336,0.291982,0.953927,-0.084933,-0.025524,-0.009972,0.999980,-0.003872,0.001460,0.004770,0.663618,0.086124,0.740241,0.065101,117.728500,76.230197,116.012581
27476,-8.648748,-1.861956,-1.179219,-0.326688,-3.690507,-1.692905,-0.779068,0.327092,0.941046,-0.086418,-0.019072,-0.011577,0.999980,-0.003895,0.001635,0.004705,0.662440,0.086953,0.740629,0.071276,116.936427,75.661608,115.656090
27477,-8.867256,-1.736553,-1.063558,-0.146555,-3.704650,-1.504363,-0.776451,0.331134,0.922956,-0.088608,-0.017815,-0.010420,0.999980,-0.003882,0.001656,0.004615,0.661227,0.087727,0.741009,0.077386,116.212320,75.099136,115.367247
27478,-8.977441,-2.167369,-1.482300,-0.522750,-4.233505,-1.488478,-0.694446,0.344324,0.874167,-0.089704,-0.022117,-0.014592,0.999983,-0.003472,0.001722,0.004371,0.659923,0.088575,0.741460,0.083028,115.641358,74.558741,115.187796
27479,-8.889395,-2.478057,-1.310155,-0.327947,-4.590077,-1.707036,-0.462310,0.364179,0.789951,-0.088819,-0.025161,-0.012882,0.999988,-0.002312,0.001821,0.003950,0.658458,0.089874,0.742086,0.087544,115.332941,74.055722,115.142331
27480,-8.802081,-2.145828,-1.467171,-0.451292,-4.315533,-1.725303,-0.318609,0.342114,0.720755,-0.087968,-0.021799,-0.014487,0.999991,-0.001593,0.001711,0.003604,0.657026,0.091388,0.742719,0.091281,115.136372,73.594849,115.127600
27481,-9.150737,-2.030112,-1.803762,-0.708915,-4.359216,-1.350705,-0.100526,0.355978,0.660753,-0.091472,-0.020612,-0.017864,0.999993,-0.000503,0.001780,0.003304,0.655460,0.093396,0.743512,0.094021,115.139337,73.160870,115.190576
27482,-9.243884,-1.720174,-1.227002,-0.090310,-4.128947,-1.277041,0.064678,0.341250,0.586672,-0.092409,-0.017469,-0.012118,0.999994,0.000323,0.001706,0.002933,0.653898,0.095668,0.744359,0.095891,115.269242,72.769715,115.287549
27483,-9.037552,-1.388662,-1.308437,-0.163446,-3.801881,-1.396246,0.213749,0.366257,0.514393,-0.090363,-0.014105,-0.012934,0.999994,0.001069,0.001831,0.002572,0.652198,0.098151,0.745385,0.096985,115.574444,72.408950,115.478850
27484,-8.987645,-0.533097,-0.695259,0.485380,-2.994405,-1.307215,0.243034,0.397396,0.440858,-0.089878,-0.005521,-0.006781,0.999995,0.001215,0.001987,0.002204,0.650396,0.100434,0.746555,0.097740,115.994112,72.078760,115.773159
27485,-9.330349,0.206823,-0.398828,0.876868,-2.408956,-0.830201,0.186548,0.410742,0.364224,-0.093315,0.001902,-0.003795,0.999996,0.000933,0.002054,0.001821,0.648605,0.102245,0.747772,0.098467,116.447917,71.783230,116.137881
27486,-9.862880,0.953052,0.371614,1.768935,-1.859056,-0.234723,0.102461,0.378233,0.235803,-0.098633,0.009412,0.003908,0.999997,0.000512,0.001891,0.001179,0.647036,0.103313,0.748903,0.099070,116.891846,71.561608,116.543552
27487,-9.818086,0.777896,1.434260,2.841595,-2.012898,-0.489033,-0.117212,0.302808,0.072982,-0.098162,0.007752,0.014487,0.999999,-0.000586,0.001514,0.000365,0.645942,0.103103,0.749761,0.099933,117.212341,71.441267,116.952125
27488,-10.397550,1.085835,1.658744,3.180343,-1.872093,0.108005,-0.366146,0.273223,-0.103187,-0.103947,0.010943,0.016709,0.999997,-0.001831,0.001366,-0.000516,0.645172,0.101437,0.750489,0.101142,117.481068,71.418315,117.456784
27489,-11.379029,1.904212,2.407457,4.097587,-1.310500,1.159834,-0.754318,0.194941,-0.372137,-0.113731,0.019345,0.024113,0.999991,-0.003772,0.000975,-0.001861,0.645022,0.097554,0.750893,0.102901,117.621490,71.551630,118.060424
27490,-10.715977,1.568708,2.558438,4.136768,-1.360173,0.428146,-1.376045,0.025776,-0.682156,-0.107102,0.016228,0.025488,0.999971,-0.006880,0.000129,-0.003411,0.645945,0.090580,0.750556,0.105905,117.402748,71.887919,118.660239
27491,-10.503179,-0.283755,0.905663,2.462334,-3.042538,-0.020028,-1.896635,-0.035910,-0.981600,-0.105045,-0.002236,0.009061,0.999943,-0.009483,-0.000180,-0.004908,0.647439,0.080831,0.749813,0.109861,117.039214,72.393453,119.419727
27492,-10.243436,-2.623171,0.374861,1.969367,-5.137714,-0.775368,-2.033380,-0.104986,-1.287691,-0.102602,-0.025532,0.003957,0.999927,-0.010167,-0.000525,-0.006438,0.649330,0.069514,0.748800,0.113294,116.758041,73.075049,120.345167
27493,-8.984357,-5.017508,0.353564,1.925925,-7.006552,-2.517796,-1.894217,-0.217515,-1.519181,-0.090225,-0.049455,0.003908,0.999926,-0.009471,-0.001088,-0.007596,0.651633,0.057840,0.747470,0.115401,116.595425,73.904860,121.307217
27494,-7.432374,-6.196448,-0.237142,1.278706,-7.721560,-4.117779,-1.706472,-0.254839,-1.714321,-0.074849,-0.061342,-0.001941,0.999926,-0.008532,-0.001274,-0.008571,0.654036,0.046057,0.746075,0.116141,116.707072,74.844642,122.438256
27495,-6.893842,0.302029,-4.937147,-3.931994,-1.778761,-2.507407,-2.058703,0.044637,-1.707440,-0.068923,0.003100,-0.049388,0.999911,-0.010293,0.000223,-0.008537,0.655294,0.032971,0.745329,0.118268,117.281182,75.701125,124.251119
27496,-17.084284,19.477310,-26.801418,-26.306878,11.337814,14.038018,-4.179828,1.269919,-1.202680,-0.171404,0.190160,-0.270934,0.999743,-0.020897,0.006349,-0.006013,0.651809,0.014077,0.747005,0.130113,118.691380,75.964830,128.175365
27497,-20.726323,-9.194451,10.269485,14.400866,-11.664543,6.799166,7.284994,1.660319,2.977560,-0.204984,-0.098706,0.100889,0.999191,0.036415,0.008299,0.014884,0.642647,0.047884,0.756320,0.112657,122.649859,74.009001,127.951732
27498,-22.701437,-2.319034,-3.863029,-0.014824,-7.447733,12.099876,1.959190,-1.741539,-1.225584,-0.226800,-0.021407,-0.040821,0.999895,0.009796,-0.008707,-0.006128,0.649403,0.050562,0.752022,0.100911,122.058941,75.133239,126.174140
27499,1.709754,3.619096,-5.807158,-6.157682,3.437137,-9.919922,2.509422,0.612599,-3.067774,0.017480,0.036650,-0.057667,0.999799,0.012546,0.003063,-0.015338,0.647900,0.046899,0.755880,0.081681,128.603815,76.362607,131.442541
27500,-8.679355,27.686123,19.831659,20.300066,26.782922,0.465857,2.406592,1.012540,-1.122888,-0.084230,0.274922,0.202063,0.999899,0.012033,0.005063,-0.005614,0.643919,0.050073,0.760310,0.069208,133.516471,76.464548,135.077827
27501,-6.623266,7.710020,3.265856,3.912417,6.738042,-2.516578,-7.416184,-0.610840,-0.115308,-0.066281,0.078273,0.029568,0.999308,-0.037072,-0.003053,-0.000576,0.647712,0.025986,0.755257,0.096854,128.310250,76.741243,134.093676
27502,-10.245222,-11.637711,-21.524860,-18.209982,-16.062553,0.862267,-5.065250,-0.296869,1.385518,-0.101301,-0.122484,-0.212349,0.999654,-0.025323,-0.001484,0.006927,0.648612,0.014991,0.751382,0.120425,122.888974,76.191971,131.502603
27503,-14.746510,-15.385522,-6.878295,-2.349880,-18.605889,2.425690,1.261511,1.143907,-0.692199,-0.148389,-0.152908,-0.068902,0.999958,0.006307,0.005719,-0.003461,0.644626,0.015837,0.755852,0.113554,126.691385,76.140609,134.673943
27504,-9.025792,-2.259125,0.539966,2.305152,-3.621202,-1.540285,0.841519,-0.168820,-0.930346,-0.090366,-0.022193,0.005229,0.999980,0.004208,-0.000844,-0.004652,0.645728,0.015171,0.755825,0.107390,128.168965,76.620170,135.698022
27505,-7.856009,-6.201610,-9.105583,-6.914501,-8.585503,-1.966261,0.521106,0.055912,-0.565492,-0.078760,-0.061556,-0.091195,0.999993,0.002606,0.000280,-0.002827,0.645793,0.014729,0.756303,0.103630,129.407780,76.850198,136.663828
27506,-10.489979,-0.293599,-2.641039,-0.792047,-2.213214,0.750126,3.048855,0.729860,-0.648240,-0.105003,-0.002197,-0.026065,0.999872,0.015244,0.003649,-0.003241,0.643078,0.021783,0.760172,0.090079,133.522337,76.849510,139.095114
27507,-10.319940,6.872268,4.445996,5.644886,5.706977,0.630459,1.948158,0.268352,-0.704171,-0.102897,0.068647,0.045267,0.999945,0.009741,0.001342,-0.003521,0.642146,0.025290,0.761928,0.080466,136.308273,77.024907,140.809039
27508,-7.955417,6.008927,1.768091,2.716515,4.974366,-1.422335,-0.467814,0.037380,-0.398582,-0.079431,0.060289,0.017555,0.999995,-0.002339,0.000187,-0.001993,0.642237,0.022295,0.761888,0.081003,136.800542,77.164854,141.588915
27509,-9.841262,1.309794,-2.733368,-1.059425,-0.316619,0.425214,-0.661346,0.187058,-0.370174,-0.098414,0.013190,-0.027285,0.999992,-0.003307,0.000935,-0.001851,0.641762,0.018728,0.762236,0.082385,137.397394,77.229202,142.589357
27510,-9.545108,1.168195,-1.530903,0.087939,-0.264761,-0.079268,-0.164066,0.158849,-0.455084,-0.095436,0.011887,-0.015243,0.999997,-0.000820,0.000794,-0.002275,0.641375,0.016443,0.762699,0.081595,138.402813,77.335086,143.716296
27511,-8.993617,0.032938,-3.412872,-1.760228,-1.470811,-0.470731,-0.096338,0.051378,-0.404132,-0.089944,0.000495,-0.034106,0.999998,-0.000482,0.000257,-0.002021,0.641369,0.014615,0.762837,0.080702,139.184123,77.464149,144.573243
27512,-8.751675,0.144426,-4.713378,-3.081756,-1.411956,-0.467248,0.823646,0.167415,-0.442622,-0.087552,0.001832,-0.047053,0.999989,0.004118,0.000837,-0.002213,0.640859,0.015541,0.763711,0.076182,140.782224,77.552595,145.726601
27513,-9.117540,3.447406,-1.866209,-0.431887,2.157183,-0.135078,1.279543,0.267709,-0.498764,-0.091114,0.034819,-0.018318,0.999976,0.006398,0.001339,-0.002494,0.639930,0.017676,0.765057,0.069748,142.936076,77.607442,147.181206
27514,-8.967208,5.346341,-1.013962,0.310304,4.191276,-0.202341,0.635455,0.184060,-0.493745,-0.089549,0.053716,-0.009887,0.999991,0.003177,0.000920,-0.002469,0.639355,0.017797,0.765886,0.065784,144.597317,77.688856,148.508961
27515,-8.976058,4.128234,-1.698430,-0.265679,2.979855,-0.244705,-0.002652,0.161816,-0.467605,-0.089677,0.041492,-0.016912,0.999997,-0.000013,0.000809,-0.002338,0.638906,0.015987,0.766422,0.064345,145.819486,77.764927,149.761105
27516,-9.451907,2.184767,-1.645174,-0.006066,1.048220,-0.029058,-0.214675,0.175821,-0.448186,-0.094484,0.022042,-0.016392,0.999997,-0.001073,0.000879,-0.002241,0.638410,0.013567,0.766930,0.063780,146.912769,77.822846,151.005386
27517,-9.718302,0.467219,-2.235306,-0.423834,-0.692125,0.137262,-0.326055,0.126754,-0.446318,-0.097186,0.004853,-0.022299,0.999996,-0.001630,0.000634,-0.002232,0.638105,0.010817,0.767238,0.063646,147.877861,77.899029,152.183478
27518,-9.473862,-0.418727,-2.580256,-0.741691,-1.536580,-0.134063,-0.027377,0.120662,-0.466506,-0.094764,-0.003970,-0.025745,0.999997,-0.000137,0.000603,-0.002333,0.637808,0.008942,0.767619,0.062299,149.067236,77.979669,153.415605
27519,-9.464800,0.141628,-1.698016,0.094582,-0.860420,-0.234782,0.202125,0.150504,-0.469368,-0.094657,0.001656,-0.016907,0.999996,0.001011,0.000753,-0.002347,0.637385,0.007781,0.768162,0.060065,150.449667,78.040467,154.710324
27520,-9.581017,0.253605,-1.537992,0.276359,-0.698560,-0.134824,0.221035,0.134570,-0.469130,-0.095814,0.002778,-0.015312,0.999996,0.001105,0.000673,-0.002346,0.637017,0.006684,0.768654,0.057757,151.836035,78.102770,155.997716
27521,-9.432438,0.969020,-1.114941,0.627931,0.105145,-0.286543,0.120004,0.145322,-0.466098,-0.094310,0.009917,-0.011075,0.999997,0.000600,0.000727,-0.002330,0.636606,0.005275,0.769146,0.055847,153.182379,78.152370,157.303077
27522,-9.662601,1.334353,-1.328533,0.448448,0.477552,0.009839,-0.099950,0.138418,-0.464291,-0.096604,0.013561,-0.013225,0.999997,-0.000500,0.000692,-0.002321,0.636223,0.003173,0.769551,0.054788,154.401416,78.199105,158.606918
27523,-9.564378,1.266380,-1.655516,0.120651,0.434408,-0.034224,-0.154405,0.126847,-0.479983,-0.095624,0.012881,-0.016504,0.999997,-0.000772,0.000634,-0.002400,0.635886,0.000843,0.769899,0.053889,155.623602,78.249895,159.945584
27524,-9.525666,1.615655,-1.852612,-0.097580,0.811938,-0.009020,-0.180175,0.137625,-0.499545,-0.095229,0.016378,-0.018475,0.999996,-0.000901,0.000688,-0.002498,0.635509,-0.001650,0.770269,0.053025,156.904125,78.293610,161.358712
27525,-9.468400,1.820850,-2.149280,-0.409319,1.038907,0.002528,-0.255747,0.130246,-0.524437,-0.094650,0.018429,-0.021455,0.999996,-0.001279,0.000651,-0.002622,0.635161,-0.004474,0.770589,0.052375,158.205872,78.340152,162.837467
27526,-9.304723,1.341026,-2.758307,-0.999754,0.560915,-0.082826,-0.312377,0.103994,-0.528448,-0.093026,0.013613,-0.027556,0.999995,-0.001562,0.000520,-0.002642,0.634908,-0.007489,0.770805,0.051928,159.471725,78.394868,164.312463
27527,-9.303771,0.333952,-2.625887,-0.789107,-0.386114,-0.179671,-0.149111,0.108503,-0.531915,-0.093043,0.003567,-0.026211,0.999996,-0.000746,0.000543,-0.002660,0.634639,-0.009998,0.771070,0.050842,160.855336,78.440884,165.811893
27528,-9.128444,-0.335688,-2.304544,-0.450344,-0.968914,-0.452649,-0.021964,0.090385,-0.511126,-0.091303,-0.003126,-0.023004,0.999997,-0.000110,0.000452,-0.002556,0.634437,-0.012021,0.771305,0.049331,162.252762,78.485705,167.250844
27529,-9.272918,-0.417213,-1.743519,0.138559,-0.959167,-0.417926,0.164551,0.120955,-0.474252,-0.092749,-0.003938,-0.017382,0.999997,0.000823,0.000605,-0.002371,0.634115,-0.013316,0.771681,0.047217,163.690430,78.500406,168.621649
27530,-9.784708,-0.127658,-0.813791,1.132990,-0.560418,-0.075073,0.255633,0.160389,-0.468947,-0.097856,-0.001037,-0.008061,0.999996,0.001278,0.000802,-0.002345,0.633641,-0.014312,0.772199,0.044764,165.198416,78.485534,170.010962
27531,-9.880863,0.098687,-0.937218,1.022928,-0.299434,0.055609,0.127513,0.126380,-0.511227,-0.098812,0.001245,-0.009309,0.999996,0.000638,0.000632,-0.002556,0.633294,-0.015868,0.772571,0.042675,166.720743,78.488103,171.489840
27532,-9.606111,-0.077683,-1.119726,0.811554,-0.432373,-0.185050,0.090805,0.115675,-0.503230,-0.096069,-0.000530,-0.011142,0.999997,0.000454,0.000578,-0.002516,0.632979,-0.017509,0.772897,0.040753,168.194801,78.487956,172.940930
27533,-9.470058,-0.295984,-1.287463,0.644721,-0.613192,-0.292430,0.116595,0.116599,-0.475035,-0.094715,-0.002727,-0.012821,0.999997,0.000583,0.000583,-0.002375,0.632654,-0.018957,0.773229,0.038821,169.603916,78.476914,174.310660
27534,-9.350223,-0.597666,-2.399099,-0.435238,-0.957838,-0.198507,0.193699,0.106348,-0.465988,-0.093529,-0.005736,-0.023947,0.999997,0.000968,0.000532,-0.002330,0.632370,-0.020127,0.773539,0.036619,171.025372,78.464011,175.647989
27535,-9.203346,-0.752115,-2.141723,-0.195207,-1.038926,-0.392680,0.465920,0.144994,-0.453301,-0.092066,-0.007263,-0.021368,0.999994,0.002330,0.000725,-0.002266,0.631956,-0.020391,0.774016,0.033401,172.576608,78.421260,176.958683
27536,-9.155938,-1.207124,-1.113222,0.838835,-1.366121,-0.649853,0.572631,0.143588,-0.387204,-0.091590,-0.011862,-0.011101,0.999994,0.002863,0.000718,-0.001936,0.631540,-0.020064,0.774504,0.029977,173.995215,78.368049,178.071823
27537,-9.660134,-1.544201,-1.196711,0.886240,-1.669951,-0.140017,0.734213,0.182977,-0.355220,-0.096639,-0.015227,-0.011935,0.999991,0.003671,0.000915,-0.001776,0.630974,-0.019107,0.775132,0.026025,175.413962,78.285202,179.090803
27538,-10.026657,-0.002297,-0.544541,1.512003,-0.047914,0.114132,0.714827,0.195895,-0.384348,-0.100272,0.000189,-0.005347,0.999991,0.003574,0.000979,-0.001922,0.630348,-0.018327,0.775783,0.022054,176.886821,78.190854,-179.823232
27539,-9.649550,0.642499,-0.581142,1.378017,0.633785,-0.243801,0.384508,0.154373,-0.373515,-0.096488,0.006616,-0.005724,0.999996,0.001923,0.000772,-0.001868,0.629845,-0.018539,0.776257,0.019403,178.116333,78.114904,-178.792258
27540,-9.249874,0.393026,-2.150229,-0.211775,0.336473,-0.316376,0.143393,0.136127,-0.367168,-0.092506,0.004115,-0.021436,0.999998,0.000717,0.000681,-0.001836,0.629385,-0.019486,0.776647,0.017708,179.176372,78.045009,-177.792959
27541,-9.225322,-0.200575,-3.308679,-1.306408,-0.279724,-0.101402,0.151172,0.142964,-0.354357,-0.092280,-0.001817,-0.033022,0.999998,0.000756,0.000715,-0.001772,0.628897,-0.020358,0.777057,0.016024,-179.806745,77.967542,-176.842138
27542,-9.338680,-0.563688,-3.722689,-1.658789,-0.619376,0.099512,0.408657,0.128488,-0.353012,-0.093420,-0.005396,-0.037178,0.999996,0.002043,0.000642,-0.001765,0.628486,-0.020415,0.777438,0.013344,-178.657565,77.894540,-175.906551
27543,-9.289284,-0.599489,-3.574108,-1.515724,-0.595703,0.024581,0.749885,0.126053,-0.351598,-0.092926,-0.005698,-0.035704,0.999991,0.003749,0.000630,-0.001758,0.628113,-0.019392,0.777825,0.009343,-177.330511,77.818831,-174.988788
27544,-9.600290,-0.046239,-2.515339,-0.431260,0.064270,0.102159,1.032110,0.144460,-0.377594,-0.096022,-0.000152,-0.025085,0.999985,0.005161,0.000722,-0.001888,0.627681,-0.017586,0.778261,0.004159,-175.790659,77.726810,-174.018410
27545,-9.643175,0.943047,-1.517739,0.534391,1.140017,-0.086526,0.945301,0.120912,-0.413528,-0.096421,0.009701,-0.015074,0.999987,0.004726,0.000605,-0.002068,0.627315,-0.016190,0.778597,-0.000796,-174.220803,77.640954,-172.966108
27546,-9.531390,2.131587,-1.061874,0.945131,2.383834,-0.328888,0.486363,0.122341,-0.443855,-0.095273,0.021553,-0.010508,0.999994,0.002432,0.000612,-0.002219,0.626895,-0.016353,0.778921,-0.004061,-172.853142,77.546538,-171.851210
27547,-9.432306,1.509772,-1.801663,0.225874,1.793541,-0.261466,0.026311,0.081298,-0.460069,-0.094295,0.015317,-0.017976,0.999997,0.000132,0.000406,-0.002300,0.626593,-0.018020,0.779119,-0.005580,-171.711505,77.469049,-170.697502
27548,-9.227764,-0.551783,-2.939204,-0.879760,-0.247861,-0.155594,-0.017397,0.068776,-0.451946,-0.092300,-0.005312,-0.029360,0.999997,-0.000087,0.000344,-0.002260,0.626331,-0.019794,0.779275,-0.006904,-170.623704,77.394428,-169.572916
27549,-9.502976,-2.581843,-3.523466,-1.344240,-2.227643,0.317350,0.364753,0.065060,-0.408929,-0.095094,-0.025560,-0.035251,0.999996,0.001824,0.000325,-0.002045,0.626120,-0.020201,0.779406,-0.009580,-169.437961,77.321425,-168.572057
27550,-9.555336,-2.967950,-3.570051,-1.384201,-2.545547,0.407978,1.078716,0.058010,-0.448540,-0.095630,-0.029272,-0.035831,0.999983,0.005394,0.000290,-0.002243,0.625994,-0.018530,0.779460,-0.015163,-167.754498,77.242333,-167.479990
27551,-9.211441,-0.617701,-1.923115,0.113472,-0.138824,-0.384115,1.508144,0.081019,-0.473697,-0.092136,-0.005814,-0.019239,0.999969,0.007541,0.000405,-0.002368,0.625785,-0.015609,0.779515,-0.022499,-165.796663,77.139564,-166.358486
27552,-9.229937,1.390101,-1.239721,0.801647,1.919641,-0.629384,1.073609,0.075399,-0.467921,-0.092271,0.014183,-0.012287,0.999983,0.005368,0.000377,-0.002340,0.625535,-0.014026,0.779563,-0.028122,-164.121312,77.032874,-165.270890
27553,-9.251652,1.055780,-1.789060,0.280971,1.653687,-0.480238,0.519142,0.060897,-0.450206,-0.092498,0.010812,-0.017835,0.999994,0.002596,0.000304,-0.002251,0.625291,-0.014109,0.779627,-0.031527,-162.817438,76.930833,-164.238062
27554,-9.452304,-1.215554,-2.422973,-0.326424,-0.531568,0.000830,0.248642,0.055125,-0.444071,-0.094556,-0.011915,-0.024219,0.999997,0.001243,0.000276,-0.002220,0.625045,-0.015015,0.779709,-0.033857,-161.695439,76.828031,-163.232401
27555,-9.511898,-2.772477,-2.914246,-0.822050,-2.010866,0.283649,0.498160,0.066300,-0.457658,-0.095192,-0.027434,-0.029179,0.999994,0.002491,0.000332,-0.002288,0.624767,-0.015191,0.779776,-0.037203,-160.426551,76.711991,-162.222269
27556,-9.701735,-2.064160,-2.682898,-0.544350,-1.234631,0.373639,0.951167,0.078280,-0.493793,-0.097078,-0.020274,-0.026888,0.999986,0.004756,0.000391,-0.002469,0.624457,-0.014092,0.779778,-0.042429,-158.847648,76.576511,-161.159740
27557,-9.901541,-0.512568,-2.299385,-0.080645,0.383064,0.357694,1.217685,0.063806,-0.518181,-0.099035,-0.004729,-0.022992,0.999978,0.006088,0.000319,-0.002591,0.624195,-0.012257,0.779649,-0.048767,-157.077626,76.436422,-160.057094
27558,-11.137924,0.959250,-2.999708,-0.420766,2.074932,1.566618,1.155944,-0.001296,-0.554517,-0.111352,0.010074,-0.029941,0.999979,0.005780,-0.000006,-0.002773,0.624148,-0.010773,0.779296,-0.054972,-155.231060,76.313918,-158.838681
27559,-10.447223,2.458722,-3.725650,-1.189808,3.660486,0.876293,1.117399,-0.151755,-0.705067,-0.104356,0.025163,-0.037196,0.999978,0.005587,-0.000759,-0.003525,0.624616,-0.010036,0.778443,-0.061485,-152.964075,76.221128,-157.164183
27560,-7.807691,4.030995,-3.063405,-1.011969,5.021340,-2.043871,0.901196,-0.156592,-0.888189,-0.077873,0.040794,-0.030512,0.999980,0.004506,-0.000783,-0.004441,0.625011,-0.010689,0.777599,-0.067727,-150.472508,76.064548,-155.129902
27561,-9.091895,4.915264,-2.822804,-0.411234,6.092782,-1.009364,0.594408,0.059519,-0.860919,-0.090714,0.049627,-0.028054,0.999986,0.002972,0.000298,-0.004305,0.624536,-0.012119,0.777511,-0.072698,-148.519532,75.790546,-153.467718
27562,-11.667680,4.562950,-1.499635,1.433760,5.995448,1.196479,0.293844,-0.065984,-0.980552,-0.116446,0.046223,-0.014967,0.999987,0.001469,-0.000330,-0.004903,0.624472,-0.015000,0.777111,-0.076867,-146.430583,75.526107,-151.485501
27563,-10.805149,2.924334,-2.508218,0.133546,4.488827,0.743133,-0.010648,-0.225617,-1.121469,-0.107857,0.029847,-0.025206,0.999984,-0.000053,-0.001128,-0.005607,0.624932,-0.019437,0.776297,-0.080276,-144.138686,75.272505,-149.110939
27564,-10.848059,1.494455,-3.382644,-0.829183,3.297444,1.132341,0.076494,-0.202084,-1.263732,-0.108349,0.015642,-0.033930,0.999979,0.000382,-0.001010,-0.006319,0.625230,-0.024147,0.775480,-0.084470,-141.670620,74.934082,-146.602561
27565,-12.227432,0.790579,-3.045145,-0.261850,2.928934,2.465653,0.631760,-0.187270,-1.414964,-0.122185,0.008867,-0.030539,0.999970,0.003159,-0.000936,-0.007075,0.625442,-0.027696,0.774418,-0.091283,-138.786565,74.504250,-143.988182
27566,-12.893889,1.327421,-2.306191,0.631728,3.685301,2.810624,1.103273,-0.260461,-1.568436,-0.128799,0.014412,-0.023152,0.999953,0.005516,-0.001302,-0.007842,0.625885,-0.030400,0.772830,-0.100389,-135.464668,74.008286,-141.193789
27567,-12.945826,0.966276,-0.677082,2.193842,3.362372,2.551141,1.394940,-0.250891,-1.563446,-0.129369,0.010722,-0.006861,0.999944,0.006975,-0.001254,-0.007817,0.626274,-0.032160,0.771049,-0.110593,-132.190276,73.468223,-138.615651
27568,-13.316613,1.480032,0.264293,3.228208,4.003916,2.562155,1.376449,-0.310011,-1.466238,-0.133057,0.015758,0.002543,0.999948,0.006882,-0.001550,-0.007331,0.626875,-0.033636,0.769025,-0.120404,-129.144391,72.953083,-136.258111
27569,-12.348493,3.048447,0.908620,3.812633,5.389933,1.096690,1.543770,-0.249588,-1.267813,-0.123300,0.031196,0.009171,0.999949,0.007719,-0.001248,-0.006339,0.627328,-0.033780,0.767046,-0.130230,-126.470436,72.473840,-134.384213
27570,-11.696048,5.563680,1.814846,4.868463,7.633129,-0.374580,1.258842,-0.219944,-1.065629,-0.116682,0.056144,0.018372,0.999965,0.006294,-0.001100,-0.005328,0.627696,-0.034025,0.765314,-0.138327,-124.323998,72.055614,-132.888085
27571,-11.966374,6.679038,2.255669,5.518345,8.763250,-0.558279,0.804654,-0.296282,-0.904716,-0.119394,0.067240,0.022650,0.999981,0.004023,-0.001481,-0.004524,0.628359,-0.035124,0.763643,-0.144157,-122.559151,71.723955,-131.516587
27572,-11.530042,7.208805,3.357901,6.554973,9.047690,-1.365501,0.202575,-0.458627,-0.818417,-0.115081,0.072525,0.033388,0.999988,0.001013,-0.002293,-0.004092,0.629577,-0.037908,0.761887,-0.147388,-121.029762,71.470369,-130.027240
27573,-10.533419,5.776559,2.934571,5.698634,7.601983,-1.896424,-0.606694,-0.525717,-0.710657,-0.105204,0.058228,0.028893,0.999986,-0.003033,-0.002629,-0.003553,0.630964,-0.042868,0.760517,-0.147175,-119.995602,71.280197,-128.569532
27574,-10.290803,3.220774,2.070931,4.425482,5.342707,-1.301970,-0.806549,-0.530945,-0.590429,-0.102866,0.032594,0.020305,0.999984,-0.004033,-0.002655,-0.002952,0.632394,-0.048013,0.759281,-0.145823,-119.188910,71.142794,-127.229446
27575,-10.177614,1.606179,0.968306,3.080500,4.023663,-0.789314,-0.866833,-0.566256,-0.421255,-0.101769,0.016317,0.009325,0.999984,-0.004334,-0.002831,-0.002106,0.634051,-0.052719,0.757994,-0.143689,-118.515012,71.095898,-125.992890
27576,-10.088134,0.181647,-0.545758,1.377341,2.911765,-0.235343,-0.546840,-0.591938,-0.190849,-0.100863,0.001897,-0.005761,0.999991,-0.002734,-0.002960,-0.000954,0.636036,-0.055567,0.756437,-0.142032,-117.801775,71.166088,-124.908175
27577,-9.737791,-0.191374,-0.513686,1.252507,2.471025,-0.461211,0.073934,-0.525419,0.038902,-0.097364,-0.001931,-0.005393,0.999996,0.000370,-0.002627,0.000195,0.638101,-0.055510,0.754706,-0.142003,-117.002603,71.332506,-124.109584
27578,-9.446563,-0.436981,-1.428848,0.230542,2.280177,-0.527348,0.264672,-0.454607,0.345595,-0.094425,-0.004514,-0.014509,0.999995,0.001323,-0.002273,0.001728,0.640161,-0.053650,0.753144,-0.141740,-116.420848,71.633007,-123.656130
27579,-9.860687,-1.013822,-2.806337,-1.153672,2.007839,0.225929,0.851088,-0.355126,0.633890,-0.098524,-0.010331,-0.028282,0.999984,0.004255,-0.001776,0.003169,0.642197,-0.048742,0.751546,-0.142780,-115.864027,72.056836,-123.583988
27580,-10.009279,0.509141,-1.207726,0.563804,3.208879,-0.258196,1.534071,-0.314969,0.843627,-0.100094,0.004762,-0.012198,0.999960,0.007670,-0.001575,0.004218,0.644360,-0.040835,0.749599,-0.145720,-115.125066,72.577331,-123.731067
27581,-9.704022,3.001316,0.443727,2.424559,5.158051,-1.393200,1.412106,-0.399709,1.062658,-0.097207,0.029466,0.004452,0.999959,0.007060,-0.001999,0.005313,0.646926,-0.032544,0.747451,-0.147463,-114.469828,73.234284,-123.892682
27582,-9.078509,4.670453,1.387524,3.475363,6.329218,-2.462944,0.909299,-0.463883,1.302307,-0.091119,0.046049,0.013875,0.999966,0.004546,-0.002319,0.006511,0.649774,-0.025043,0.745449,-0.146536,-114.168191,74.030212,-124.121437
27583,-8.799125,5.218992,1.916684,4.005543,6.584129,-2.817068,0.040925,-0.457117,1.539322,-0.088433,0.051507,0.018976,0.999968,0.000205,-0.002286,0.007697,0.652621,-0.019458,0.744084,-0.141586,-114.596598,74.950005,-124.591093
27584,-9.396342,3.635039,0.486476,2.383806,5.342855,-1.596244,-0.891109,-0.430870,1.717944,-0.094281,0.035562,0.004502,0.999951,-0.004455,-0.002154,0.008590,0.655349,-0.016244,0.743421,-0.132584,-115.861176,75.952194,-125.370171
27585,-9.931352,1.096921,-0.548176,0.983254,3.034621,-0.328146,-1.201739,-0.424072,1.838451,-0.099397,0.010022,-0.005755,0.999937,-0.006009,-0.002120,0.009192,0.658037,-0.013577,0.742911,-0.122010,-117.619380,77.010823,-126.471065
27586,-10.075083,-0.247881,-1.113515,0.184405,1.663607,0.187478,-1.346628,-0.428972,1.921325,-0.100696,-0.003522,-0.011330,0.999929,-0.006733,-0.002145,0.009606,0.660691,-0.011098,0.742380,-0.110617,-119.810329,78.100993,-127.924637
27587,-10.135347,-1.198684,-1.986838,-0.855720,0.661904,0.528230,-1.339148,-0.437327,2.035820,-0.101180,-0.013151,-0.020004,0.999923,-0.006696,-0.002187,0.010179,0.663346,-0.008154,0.741711,-0.098848,-122.524657,79.237502,-129.911098
27588,-10.272973,-1.682326,-2.520344,-1.481792,0.040496,0.794555,-1.241475,-0.421325,2.121431,-0.102489,-0.018068,-0.025310,0.999922,-0.006207,-0.002107,0.010607,0.665880,-0.004577,0.740937,-0.087151,-125.932735,80.385101,-132.651019
27589,-10.398045,-2.344190,-3.047915,-2.115435,-0.788848,1.040924,-1.109049,-0.411072,2.204793,-0.103650,-0.024755,-0.030558,0.999922,-0.005545,-0.002055,0.011024,0.668316,-0.000228,0.740022,-0.075645,-130.317807,81.533321,-136.448374
27590,-10.477789,-3.389695,-3.487698,-2.696114,-2.034035,1.233815,-0.908475,-0.387688,2.239632,-0.104321,-0.035225,-0.034921,0.999925,-0.004542,-0.001938,0.011198,0.670570,0.004912,0.738998,-0.064761,-135.996236,82.628828,-141.655744
27591,-10.370982,-3.955048,-3.993035,-3.307144,-2.813246,1.154835,-0.516085,-0.332410,2.178045,-0.103204,-0.040779,-0.039998,0.999936,-0.002580,-0.001662,0.010890,0.672501,0.011174,0.737927,-0.055515,-143.166433,83.592532,-148.580605
27592,-9.991068,-3.339545,-3.291259,-2.640526,-2.523995,0.601686,-0.068046,-0.258444,2.099340,-0.099510,-0.034453,-0.033030,0.999944,-0.000340,-0.001292,0.010497,0.674027,0.018654,0.736898,-0.048184,-152.129213,84.369445,-157.553586
27593,-9.348212,-2.315233,-2.685211,-2.051120,-1.789841,-0.192616,-0.056729,-0.246466,2.032995,-0.093207,-0.024108,-0.026960,0.999948,-0.000284,-0.001232,0.010165,0.675420,0.025945,0.735829,-0.041103,-163.193640,84.951766,-168.633807
27594,-8.792989,-1.723474,-2.386650,-1.787142,-1.423725,-0.826063,-0.102129,-0.178205,2.014014,-0.087729,-0.018131,-0.023936,0.999949,-0.000511,-0.000891,0.010070,0.676491,0.033008,0.734929,-0.033915,-176.395884,85.262963,178.174742
27595,-8.448825,-1.396895,-2.137264,-1.567391,-1.299792,-1.224735,-0.382413,-0.129146,2.020943,-0.084327,-0.014863,-0.021399,0.999947,-0.001912,-0.000646,0.010105,0.677360,0.039169,0.734160,-0.025654,169.245472,85.267749,163.986680
27596,-8.469496,-1.733061,-3.129890,-2.602434,-1.728888,-1.165884,-0.589529,-0.058475,2.034545,-0.084503,-0.018283,-0.031271,0.999944,-0.002948,-0.000292,0.010173,0.677935,0.044667,0.733576,-0.016578,155.698590,84.947871,150.729639
27597,-8.729360,-2.352684,-2.800600,-2.319953,-2.576869,-1.006190,-0.577704,0.035546,2.046780,-0.087051,-0.024499,-0.027921,0.999943,-0.002888,0.000178,0.010234,0.678088,0.050268,0.733222,-0.007472,144.523509,84.342412,139.837918
27598,-8.695668,-2.657192,-3.499722,-3.044005,-3.017443,-1.063466,-0.662130,0.056924,2.022464,-0.086691,-0.027565,-0.034882,0.999943,-0.003311,0.000285,0.010112,0.678104,0.055474,0.732867,0.001858,135.863667,83.572337,131.511419
27599,-8.807206,-3.270928,-3.408695,-2.990667,-3.831733,-1.080241,-0.293442,0.159508,1.976128,-0.087770,-0.033627,-0.033968,0.999950,-0.001467,0.000798,0.009880,0.677570,0.061766,0.732796,0.009717,129.801913,82.675593,125.574875
27600,-9.070346,-2.716003,-2.827664,-2.347355,-3.523962,-0.884509,-0.142628,0.176801,1.888929,-0.090466,-0.028035,-0.028177,0.999955,-0.000713,0.000884,0.009445,0.676864,0.068230,0.732749,0.016724,125.430387,81.753296,121.245209
27601,-8.731100,-2.455933,-2.495360,-2.021263,-3.406673,-1.280540,0.109262,0.203854,1.775364,-0.087114,-0.025320,-0.024878,0.999960,0.000546,0.001019,0.008877,0.675924,0.075134,0.732787,0.022440,122.374268,80.839341,118.089853
27602,-8.587277,-1.277845,-1.335407,-0.782095,-2.445217,-1.412385,0.201378,0.261192,1.667516,-0.085780,-0.013481,-0.013255,0.999964,0.001007,0.001306,0.008337,0.674700,0.081930,0.733017,0.027466,120.276906,79.942054,115.845565
27603,-8.657211,-0.624987,-1.403255,-0.781677,-1.945460,-1.273975,-0.046056,0.261794,1.570221,-0.086538,-0.006933,-0.013918,0.999968,-0.000230,0.001309,0.007851,0.673542,0.087541,0.733201,0.033076,118.535166,79.079884,114.100742
