PacketCounter,Acc_X,Acc_Y,Acc_Z,FreeAcc_E,FreeAcc_N,FreeAcc_U,Gyr_X,Gyr_Y,Gyr_Z,VelInc_X,VelInc_Y,VelInc_Z,OriInc_q0,OriInc_q1,OriInc_q2,OriInc_q3,Quat_q0,Quat_q1,Quat_q2,Quat_q3,Roll,Pitch,Yaw
14797,-3.793618,0.532204,9.052774,-0.009719,-0.128499,0.016395,-0.088440,-0.089189,-0.039119,-0.037975,0.005369,0.090508,1.000000,-0.000442,-0.000446,-0.000196,-0.962177,0.004533,-0.196558,-0.188571,4.054791,22.331060,22.977647
14798,-3.888588,0.459002,9.139587,-0.042881,-0.217559,0.127869,-0.090173,-0.077719,-0.032251,-0.038921,0.004637,0.091379,1.000000,-0.000451,-0.000389,-0.000161,-0.962277,0.004951,-0.196074,-0.188558,3.991831,22.285508,22.959852
14799,-3.760274,0.417728,9.180267,0.086432,-0.201760,0.114209,-0.047639,-0.075704,-0.031074,-0.037637,0.004205,0.091787,1.000000,-0.000238,-0.000379,-0.000155,-0.962373,0.005165,-0.195640,-0.188509,3.953552,22.241074,22.942935
14800,-3.666903,0.452465,9.220845,0.160383,-0.129694,0.118695,-0.043911,-0.049751,-0.017976,-0.036692,0.004548,0.092198,1.000000,-0.000220,-0.000249,-0.000090,-0.962433,0.005373,-0.195334,-0.188519,3.920930,22.210925,22.935230
14801,-3.662486,0.603167,9.199179,0.095587,0.012521,0.106648,-0.028728,-0.026378,-0.011324,-0.036637,0.006047,0.091986,1.000000,-0.000144,-0.000132,-0.000057,-0.962463,0.005524,-0.195155,-0.188545,3.898919,22.193898,22.932649
14802,-3.711952,0.616439,9.207269,0.047667,0.010368,0.133669,-0.038552,-0.018516,-0.012196,-0.037128,0.006184,0.092068,1.000000,-0.000193,-0.000093,-0.000061,-0.962486,0.005729,-0.195005,-0.188577,3.871223,22.181370,22.929854
14803,-3.748885,0.418312,9.140010,0.060378,-0.190081,0.073117,-0.019896,-0.011072,-0.011467,-0.037494,0.004194,0.091398,1.000000,-0.000099,-0.000055,-0.000057,-0.962501,0.005852,-0.194908,-0.188594,3.854487,22.173096,22.927838
14804,-3.659866,0.481553,9.212630,0.139207,-0.091960,0.110579,0.006461,0.006380,-0.011867,-0.036595,0.004815,0.092128,1.000000,0.000032,0.000032,-0.000059,-0.962501,0.005865,-0.194920,-0.188582,3.853049,22.174786,22.926290
14805,-3.608552,0.555460,9.261965,0.176794,-0.000470,0.141353,0.028934,0.046175,-0.015254,-0.036064,0.005544,0.092629,1.000000,0.000145,0.000231,-0.000076,-0.962466,0.005810,-0.195145,-0.188531,3.864308,22.199384,22.924321
14806,-3.736512,0.640814,9.187558,0.015351,0.026301,0.126249,0.052161,0.081775,-0.031046,-0.037327,0.006390,0.091893,1.000000,0.000261,0.000409,-0.000155,-0.962412,0.005692,-0.195562,-0.188380,3.885762,22.244913,22.914085
14807,-3.831489,0.539780,9.226278,-0.004529,-0.098464,0.191619,0.060603,0.102943,-0.036892,-0.038266,0.005377,0.092284,1.000000,0.000303,0.000515,-0.000184,-0.962342,0.005560,-0.196089,-0.188193,3.911010,22.302806,22.901155
14808,-3.793121,0.471487,9.065786,0.003662,-0.163139,0.024584,0.095148,0.091914,-0.036799,-0.037889,0.004679,0.090678,1.000000,0.000476,0.000460,-0.000184,-0.962283,0.005250,-0.196595,-0.187972,3.955904,22.354366,22.887838
14809,-3.798674,0.519497,9.153999,0.024916,-0.116283,0.111089,0.088070,0.079679,-0.031029,-0.037949,0.005161,0.091557,1.000000,0.000440,0.000398,-0.000155,-0.962231,0.004958,-0.197036,-0.187786,3.997896,22.398745,22.877609
14810,-3.720470,0.421626,9.189063,0.151192,-0.180661,0.107143,0.122451,0.093781,-0.031578,-0.037161,0.004166,0.091911,1.000000,0.000612,0.000469,-0.000158,-0.962166,0.004514,-0.197577,-0.187563,4.059703,22.451184,22.867687
14811,-3.834135,0.571461,9.105419,-0.018286,-0.095402,0.083087,0.143337,0.111311,-0.025686,-0.038290,0.005654,0.091080,1.000000,0.000717,0.000557,-0.000128,-0.962078,0.003980,-0.198221,-0.187348,4.135177,22.513441,22.862258
14812,-3.811327,0.444332,9.077694,0.050866,-0.214235,0.040214,0.131576,0.110546,-0.019907,-0.038063,0.004387,0.090801,1.000000,0.000658,0.000553,-0.000100,-0.961984,0.003496,-0.198851,-0.187171,4.205297,22.574996,22.860446
14813,-3.904542,0.709833,9.135594,-0.088099,-0.003141,0.147262,0.149981,0.106034,-0.017957,-0.038996,0.007033,0.091382,1.000000,0.000750,0.000530,-0.000090,-0.961892,0.002918,-0.199477,-0.186986,4.286379,22.633923,22.859728
14814,-3.777808,0.598371,9.060485,0.044751,-0.074908,0.021672,0.134525,0.094653,-0.017550,-0.037735,0.005926,0.090627,1.000000,0.000673,0.000473,-0.000088,-0.961811,0.002403,-0.200033,-0.186818,4.358525,22.686303,22.858810
14815,-3.836419,0.717234,9.119006,-0.012571,0.011755,0.106410,0.145423,0.092665,-0.018951,-0.038321,0.007110,0.091213,1.000000,0.000727,0.000463,-0.000095,-0.961732,0.001835,-0.200590,-0.186633,4.436576,22.737638,22.857008
14816,-3.846673,0.591780,9.092966,0.027409,-0.119149,0.077417,0.169065,0.099440,-0.041500,-0.038420,0.005849,0.090954,0.999999,0.000845,0.000497,-0.000207,-0.961667,0.001182,-0.201200,-0.186315,4.522918,22.793826,22.841642
14817,-3.891383,0.534344,9.089396,0.023931,-0.199293,0.087069,0.210572,0.108800,-0.045849,-0.038863,0.005257,0.090921,0.999999,0.001053,0.000544,-0.000229,-0.961596,0.000343,-0.201895,-0.185934,4.632205,22.855611,22.824147
14818,-3.881566,0.877975,9.141537,-0.053816,0.116272,0.156698,0.204511,0.110282,-0.039409,-0.038764,0.008694,0.091446,0.999999,0.001023,0.000551,-0.000197,-0.961516,-0.000472,-0.202590,-0.185590,4.739619,22.917944,22.810835
14819,-3.841040,0.753719,9.063128,0.009626,-0.001410,0.059589,0.173336,0.092236,-0.037707,-0.038367,0.007466,0.090655,1.000000,0.000867,0.000461,-0.000189,-0.961452,-0.001156,-0.203170,-0.185286,4.829260,22.969941,22.797755
14820,-3.848588,0.873021,9.067862,-0.024360,0.098437,0.076176,0.149864,0.083415,-0.032312,-0.038447,0.008668,0.090701,1.000000,0.000749,0.000417,-0.000162,-0.961391,-0.001740,-0.203685,-0.185031,4.906589,23.016630,22.787630
14821,-3.839264,0.802496,9.036503,0.007582,0.026120,0.038281,0.129596,0.070689,-0.025659,-0.038360,0.007971,0.090384,1.000000,0.000648,0.000353,-0.000128,-0.961337,-0.002246,-0.204121,-0.184828,4.973677,23.055765,22.781013
14822,-3.792439,0.879113,9.105837,0.056927,0.112279,0.089628,0.112777,0.057939,-0.020445,-0.037897,0.008744,0.091074,1.000000,0.000564,0.000290,-0.000102,-0.961290,-0.002688,-0.204479,-0.184668,5.032134,23.087341,22.776980
14823,-3.901940,0.822530,9.082241,-0.016947,0.013273,0.106402,0.086681,0.058423,-0.006972,-0.038993,0.008187,0.090837,1.000000,0.000433,0.000292,-0.000035,-0.961231,-0.003018,-0.204815,-0.184599,5.078945,23.118544,22.781367
14824,-3.870999,1.129759,9.048782,-0.105553,0.303839,0.088725,0.074457,0.044145,-0.011708,-0.038689,0.011266,0.090501,1.000000,0.000372,0.000221,-0.000059,-0.961191,-0.003297,-0.205071,-0.184519,5.117295,23.141808,22.782046
14825,-3.893456,0.953260,8.988019,-0.081292,0.125132,0.027532,0.022860,0.039226,-0.009015,-0.038917,0.009524,0.089889,1.000000,0.000114,0.000196,-0.000045,-0.961154,-0.003336,-0.205256,-0.184505,5.126640,23.162155,22.784138
14826,-3.878339,1.101959,9.034432,-0.099542,0.272764,0.076321,0.010894,0.028815,-0.016434,-0.038769,0.011018,0.090351,1.000000,0.000054,0.000144,-0.000082,-0.961135,-0.003319,-0.205380,-0.184468,5.127094,23.176913,22.781040
14827,-3.828642,1.141786,9.072376,-0.055089,0.332893,0.094700,-0.031811,0.023517,-0.019935,-0.038275,0.011436,0.090726,1.000000,-0.000159,0.000118,-0.000100,-0.961125,-0.003099,-0.205440,-0.184457,5.102103,23.188854,22.775478
14828,-3.953089,0.866265,8.959043,-0.108826,0.028901,0.017323,-0.050316,0.007876,-0.021922,-0.039526,0.008690,0.089590,1.000000,-0.000252,0.000039,-0.000110,-0.961133,-0.002802,-0.205407,-0.184456,5.065695,23.191937,22.767800
14829,-3.848805,0.968532,9.071085,-0.014550,0.175056,0.087064,-0.062005,-0.000212,-0.022283,-0.038487,0.009718,0.090708,1.000000,-0.000310,-0.000001,-0.000111,-0.961150,-0.002455,-0.205324,-0.184465,5.022310,23.190446,22.759463
14830,-3.901781,0.748447,9.002493,-0.012176,-0.047196,0.027362,-0.074855,-0.006282,-0.017388,-0.039020,0.007522,0.090021,1.000000,-0.000374,-0.000031,-0.000087,-0.961168,-0.002058,-0.205200,-0.184510,4.972651,23.185212,22.753825
14831,-3.883492,0.734859,9.078140,0.034237,-0.041325,0.088387,-0.065382,-0.008039,-0.023772,-0.038838,0.007383,0.090777,1.000000,-0.000327,-0.000040,-0.000119,-0.961194,-0.001701,-0.205077,-0.184515,4.926804,23.179314,22.744146
14832,-3.883065,0.695167,9.068180,0.040896,-0.072557,0.076013,-0.068812,-0.008800,-0.017436,-0.038834,0.006986,0.090678,1.000000,-0.000344,-0.000044,-0.000087,-0.961215,-0.001335,-0.204947,-0.184554,4.880545,23.172637,22.738355
14833,-3.952398,0.535569,9.095519,0.046708,-0.238414,0.115944,-0.041420,0.006231,-0.019979,-0.039521,0.005378,0.090955,1.000000,-0.000207,0.000031,-0.000100,-0.961223,-0.001084,-0.204914,-0.184553,4.849657,23.174689,22.731796
14834,-3.936232,0.548725,9.100466,0.057187,-0.216441,0.115222,-0.010828,0.017367,-0.021271,-0.039354,0.005496,0.091008,1.000000,-0.000054,0.000087,-0.000106,-0.961220,-0.000969,-0.204963,-0.184514,4.836222,23.183131,22.725010
14835,-3.834523,0.653988,9.108014,0.110668,-0.080179,0.090268,0.017756,0.028822,-0.019290,-0.038331,0.006535,0.091086,1.000000,0.000089,0.000144,-0.000096,-0.961203,-0.000982,-0.205093,-0.184456,4.839873,23.198044,22.720064
14836,-3.941286,0.696029,9.094883,0.003313,-0.079684,0.123546,0.028844,0.038579,-0.020361,-0.039395,0.006951,0.090957,1.000000,0.000144,0.000193,-0.000102,-0.961178,-0.001039,-0.205281,-0.184381,4.849822,23.218552,22.714961
14837,-3.859252,0.616256,9.065483,0.093852,-0.127632,0.058051,0.039113,0.045073,-0.013655,-0.038572,0.006147,0.090665,1.000000,0.000196,0.000225,-0.000068,-0.961139,-0.001146,-0.205509,-0.184328,4.867427,23.242471,22.714379
14838,-3.915295,0.684297,9.033523,0.014719,-0.087858,0.056173,0.044268,0.046887,-0.001343,-0.039132,0.006823,0.090346,1.000000,0.000221,0.000234,-0.000007,-0.961087,-0.001288,-0.205750,-0.184328,4.891049,23.266798,22.721545
14839,-3.919072,0.786850,9.063667,-0.007506,0.006569,0.093282,0.048300,0.045212,-0.001366,-0.039170,0.007847,0.090647,1.000000,0.000241,0.000226,-0.000007,-0.961037,-0.001452,-0.205988,-0.184325,4.916947,23.290195,22.728628
14840,-3.940886,0.742205,9.045363,-0.011802,-0.046453,0.081641,0.048232,0.051766,0.009701,-0.039386,0.007398,0.090466,1.000000,0.000241,0.000259,0.000049,-0.960969,-0.001620,-0.206256,-0.184374,4.945674,23.316757,22.742949
14841,-4.032370,0.763944,9.048403,-0.088968,-0.060995,0.122381,0.062148,0.064466,-0.002433,-0.040294,0.007612,0.090499,1.000000,0.000311,0.000322,-0.000012,-0.960900,-0.001831,-0.206599,-0.184351,4.979673,23.351191,22.750436
14842,-3.986384,0.786585,9.050404,-0.049327,-0.026853,0.107828,0.084815,0.063778,-0.012813,-0.039834,0.007830,0.090520,1.000000,0.000424,0.000319,-0.000064,-0.960840,-0.002141,-0.206959,-0.184255,5.024098,23.385720,22.751455
14843,-3.871490,0.843165,9.062678,0.041469,0.063067,0.078005,0.096810,0.068161,-0.019730,-0.038683,0.008392,0.090644,1.000000,0.000484,0.000341,-0.000099,-0.960782,-0.002497,-0.207351,-0.184113,5.073797,23.423124,22.748449
14844,-3.930009,0.688482,9.057894,0.053696,-0.107053,0.084285,0.099651,0.069803,-0.022660,-0.039268,0.006844,0.090596,1.000000,0.000498,0.000349,-0.000113,-0.960724,-0.002863,-0.207753,-0.183954,5.124447,23.461592,22.743741
14845,-3.919115,0.729059,9.013233,0.040190,-0.074388,0.042372,0.120313,0.067379,-0.016735,-0.039160,0.007240,0.090150,1.000000,0.000602,0.000337,-0.000084,-0.960663,-0.003336,-0.208163,-0.183802,5.188363,23.498401,22.742630
14846,-3.890078,0.822645,9.088072,0.071015,0.021534,0.106839,0.114683,0.056509,-0.015501,-0.038874,0.008177,0.090896,1.000000,0.000573,0.000283,-0.000078,-0.960612,-0.003793,-0.208516,-0.183662,5.249127,23.528919,22.741707
14847,-3.895221,0.781912,9.017440,0.061053,-0.030422,0.040926,0.117280,0.052492,-0.004299,-0.038928,0.007767,0.090189,1.000000,0.000586,0.000262,-0.000021,-0.960554,-0.004278,-0.208851,-0.183572,5.314088,23.556581,22.747566
14848,-3.951783,0.841394,9.030200,0.005805,-0.001417,0.080189,0.107772,0.054521,0.000386,-0.039493,0.008365,0.090317,1.000000,0.000539,0.000273,0.000002,-0.960490,-0.004721,-0.209187,-0.183515,5.374826,23.585117,22.756488
14849,-3.956524,0.840253,8.946957,-0.023380,-0.016647,0.006035,0.104070,0.051187,0.001272,-0.039542,0.008356,0.089484,1.000000,0.000520,0.000256,0.000006,-0.960428,-0.005149,-0.209503,-0.183466,5.433608,23.611722,22.765804
14850,-3.943388,0.949901,9.027266,-0.010858,0.088887,0.083581,0.096674,0.043504,0.009607,-0.039415,0.009453,0.090286,1.000000,0.000483,0.000218,0.000048,-0.960367,-0.005558,-0.209776,-0.183464,5.490059,23.633455,22.779879
14851,-3.946855,1.046035,8.975722,-0.061891,0.167864,0.046493,0.078367,0.039557,0.007798,-0.039451,0.010424,0.089769,1.000000,0.000392,0.000198,0.000039,-0.960311,-0.005881,-0.210013,-0.183473,5.535494,23.653052,22.792617
14852,-3.932953,1.061286,9.002043,-0.039536,0.184508,0.066362,0.051158,0.036493,0.008899,-0.039314,0.010588,0.090030,1.000000,0.000256,0.000182,0.000044,-0.960259,-0.006077,-0.210210,-0.183515,5.565550,23.670806,22.805866
14853,-3.935852,1.072726,8.976972,-0.052073,0.190005,0.045755,0.033449,0.031145,0.006928,-0.039345,0.010711,0.089778,1.000000,0.000167,0.000156,0.000035,-0.960214,-0.006191,-0.210365,-0.183567,5.584843,23.685641,22.817579
14854,-3.973181,0.928944,8.980673,-0.028725,0.041690,0.051340,0.016573,0.027257,0.008579,-0.039720,0.009280,0.089813,1.000000,0.000083,0.000136,0.000043,-0.960173,-0.006229,-0.210486,-0.183644,5.594796,23.698137,22.830080
14855,-3.957701,1.038364,9.039247,-0.028259,0.152560,0.108276,0.008107,0.015259,0.009537,-0.039571,0.010378,0.090396,1.000000,0.000041,0.000076,0.000048,-0.960143,-0.006239,-0.210542,-0.183734,5.599840,23.703764,22.842455
14856,-3.924326,0.899737,9.020802,0.041544,0.034011,0.065665,-0.005572,0.007735,0.010841,-0.039240,0.008998,0.090209,1.000000,-0.000028,0.000039,0.000054,-0.960121,-0.006191,-0.210549,-0.183844,5.597200,23.704999,22.855175
14857,-3.976884,0.835590,9.051509,0.032095,-0.041886,0.109049,-0.008425,0.006611,0.010483,-0.039766,0.008358,0.090516,1.000000,-0.000042,0.000033,0.000052,-0.960100,-0.006130,-0.210548,-0.183956,5.592798,23.705643,22.867613
14858,-4.150187,0.744470,8.996408,-0.104453,-0.191723,0.120387,0.000729,0.009085,0.008115,-0.041498,0.007443,0.089966,1.000000,0.000004,0.000045,0.000041,-0.960079,-0.006109,-0.210567,-0.184047,5.593118,23.707800,22.878718
14859,-4.082370,0.691771,9.055533,-0.003384,-0.214455,0.142259,0.048607,0.012241,-0.003321,-0.040818,0.006896,0.090560,1.000000,0.000243,0.000061,-0.000017,-0.960063,-0.006302,-0.210646,-0.184033,5.618076,23.712424,22.882903
14860,-3.911313,0.769778,9.052234,0.115439,-0.085015,0.077374,0.072282,0.024949,-0.011546,-0.039101,0.007667,0.090530,1.000000,0.000361,0.000125,-0.000058,-0.960041,-0.006589,-0.210807,-0.183954,5.654857,23.724729,22.882744
14861,-4.017372,0.856913,9.024120,-0.011254,-0.048103,0.102245,0.080494,0.033337,-0.011422,-0.040158,0.008535,0.090251,1.000000,0.000402,0.000167,-0.000057,-0.960009,-0.006907,-0.211017,-0.183868,5.696583,23.741836,22.883197
14862,-3.864623,0.894784,8.981272,0.091963,0.033453,0.005134,0.085686,0.027870,-0.005248,-0.038633,0.008910,0.089822,1.000000,0.000428,0.000139,-0.000026,-0.959977,-0.007262,-0.211205,-0.183806,5.742703,23.755447,22.887163
14863,-4.005085,0.942559,8.965835,-0.044645,0.021384,0.052041,0.076756,0.027524,0.005795,-0.040039,0.009390,0.089667,1.000000,0.000384,0.000138,0.000029,-0.959935,-0.007586,-0.211382,-0.183806,5.786473,23.768248,22.898003
14864,-3.989624,1.005792,8.956346,-0.053576,0.080075,0.043050,0.064257,0.017202,0.006758,-0.039889,0.010028,0.089570,1.000000,0.000321,0.000086,0.000034,-0.959904,-0.007860,-0.211499,-0.183823,5.823068,23.775076,22.908794
14865,-3.990872,1.037050,8.988735,-0.049514,0.106332,0.076000,0.049981,0.010588,0.011511,-0.039905,0.010346,0.089892,1.000000,0.000250,0.000053,0.000058,-0.959876,-0.008077,-0.211570,-0.183879,5.852508,23.777879,22.922134
14866,-4.025855,1.008644,8.977687,-0.071925,0.062849,0.077440,0.040340,0.001639,0.011209,-0.040258,0.010066,0.089779,1.000000,0.000202,0.000008,0.000056,-0.959858,-0.008256,-0.211590,-0.183942,5.876124,23.775565,22.934710
14867,-3.956796,1.030761,9.034512,0.002463,0.108307,0.103429,0.030945,-0.003947,0.011432,-0.039570,0.010291,0.090346,1.000000,0.000155,-0.000020,0.000057,-0.959846,-0.008395,-0.211574,-0.184017,5.894262,23.770078,22.947070
14868,-4.077797,0.853140,8.977705,-0.059816,-0.107095,0.083798,0.040597,0.005740,0.006823,-0.040776,0.008512,0.089780,1.000000,0.000203,0.000029,0.000034,-0.959827,-0.008566,-0.211614,-0.184059,5.917031,23.770353,22.957174
14869,-4.061155,0.801162,8.985254,-0.022767,-0.153194,0.079009,0.061257,0.005074,0.001375,-0.040609,0.007984,0.089856,1.000000,0.000306,0.000025,0.000007,-0.959814,-0.008832,-0.211670,-0.184053,5.950244,23.770592,22.963851
14870,-3.958159,0.931642,9.048759,0.046761,0.004036,0.107636,0.066362,0.008482,0.003873,-0.039578,0.009286,0.090492,1.000000,0.000332,0.000042,0.000019,-0.959794,-0.009121,-0.211746,-0.184054,5.987104,23.772598,22.972299
14871,-4.027725,0.985392,9.010839,-0.043452,0.021670,0.106306,0.071238,0.009505,-0.000679,-0.040273,0.009822,0.090114,1.000000,0.000356,0.000048,-0.000003,-0.959777,-0.009428,-0.211832,-0.184028,6.025638,23.775478,22.977988
14872,-3.993362,1.053019,8.926676,-0.070033,0.086670,0.022398,0.070169,0.005154,-0.008080,-0.039931,0.010500,0.089271,1.000000,0.000351,0.000026,-0.000040,-0.959771,-0.009727,-0.211897,-0.183968,6.061593,23.776298,22.978778
14873,-4.011632,1.047156,9.024107,-0.041045,0.075223,0.117916,0.070157,0.004669,-0.004824,-0.040114,0.010441,0.090246,1.000000,0.000351,0.000023,-0.000024,-0.959763,-0.010028,-0.211959,-0.183923,6.098340,23.776668,22.981569
14874,-3.891372,0.976782,8.975345,0.067020,0.045152,0.018242,0.051167,0.009271,0.001306,-0.038910,0.009745,0.089758,1.000000,0.000256,0.000046,0.000007,-0.959745,-0.010242,-0.212026,-0.183928,6.125877,23.779261,22.988477
14875,-3.995816,1.014474,8.983975,-0.028472,0.039891,0.071902,0.049762,0.009920,-0.007040,-0.039953,0.010124,0.089844,1.000000,0.000249,0.000050,-0.000035,-0.959734,-0.010439,-0.212095,-0.183894,6.150525,23.782756,22.990241
14876,-3.945062,1.035047,8.988301,0.011043,0.074168,0.057407,0.051199,0.011210,-0.011771,-0.039445,0.010330,0.089888,1.000000,0.000256,0.000056,-0.000059,-0.959726,-0.010636,-0.212171,-0.183836,6.174853,23.787251,22.989140
14877,-3.877184,1.137407,9.017687,0.046666,0.193074,0.066861,0.036027,0.012464,-0.017569,-0.038765,0.011361,0.090181,1.000000,0.000180,0.000062,-0.000088,-0.959723,-0.010754,-0.212240,-0.183767,6.189058,23.792843,22.984524
14878,-4.033783,1.063942,8.967740,-0.078696,0.064770,0.077376,0.025495,0.011607,-0.030055,-0.040331,0.010634,0.089681,1.000000,0.000127,0.000058,-0.000150,-0.959733,-0.010808,-0.212296,-0.183649,6.194082,23.798692,22.972069
14879,-3.948674,1.114132,8.982530,-0.017410,0.142735,0.061445,0.018965,0.007627,-0.032727,-0.039481,0.011139,0.089828,1.000000,0.000095,0.000038,-0.000164,-0.959749,-0.010832,-0.212327,-0.183524,6.194570,23.802467,22.957690
14880,-3.967116,1.064306,8.966995,-0.021469,0.089669,0.049831,0.008673,0.009888,-0.043073,-0.039664,0.010648,0.089672,1.000000,0.000043,0.000049,-0.000215,-0.959774,-0.010794,-0.212359,-0.183361,6.186639,23.808141,22.937012
14881,-4.002707,1.056050,8.989914,-0.039262,0.072262,0.084216,0.000458,0.001013,-0.039891,-0.040025,0.010568,0.089899,1.000000,0.000002,0.000005,-0.000199,-0.959805,-0.010728,-0.212342,-0.183222,6.174541,23.808587,22.917725
14882,-3.865324,0.914674,8.974119,0.118490,-0.009215,0.000469,-0.010206,0.006831,-0.041394,-0.038648,0.009159,0.089742,1.000000,-0.000051,0.000034,-0.000207,-0.959832,-0.010604,-0.212342,-0.183086,6.156132,23.812408,22.897882
14883,-3.935475,1.084277,9.000054,0.010543,0.128575,0.069010,-0.014480,0.005136,-0.041919,-0.039350,0.010858,0.090001,1.000000,-0.000072,0.000026,-0.000210,-0.959862,-0.010460,-0.212331,-0.182953,6.135074,23.815316,22.877608
14884,-3.953457,1.064155,8.995070,-0.000909,0.106896,0.069727,-0.027891,0.001447,-0.043321,-0.039532,0.010663,0.089950,1.000000,-0.000139,0.000007,-0.000217,-0.959897,-0.010253,-0.212290,-0.182827,6.105901,23.816171,22.856201
14885,-4.040483,0.955485,9.040052,-0.020002,-0.017981,0.135190,-0.039041,0.000528,-0.045845,-0.040402,0.009582,0.090399,1.000000,-0.000195,0.000003,-0.000229,-0.959936,-0.009991,-0.212234,-0.182701,6.069658,23.816674,22.833172
14886,-4.023419,0.867541,9.015519,0.012601,-0.090125,0.097501,-0.039048,0.000288,-0.044218,-0.040232,0.008702,0.090154,1.000000,-0.000195,0.000001,-0.000221,-0.959974,-0.009732,-0.212177,-0.182583,6.033836,23.816899,22.811128
14887,-3.971604,0.900629,8.951055,0.016252,-0.039985,0.021147,-0.030169,-0.002046,-0.037316,-0.039715,0.009027,0.089509,1.000000,-0.000151,-0.000010,-0.000187,-0.960007,-0.009524,-0.212117,-0.182488,6.004752,23.815398,22.793241
14888,-3.920456,1.044829,8.996870,0.025992,0.119882,0.055963,-0.041336,-0.003939,-0.033304,-0.039205,0.010473,0.089966,1.000000,-0.000207,-0.000020,-0.000167,-0.960040,-0.009269,-0.212037,-0.182424,5.970252,23.812540,22.777721
14889,-3.971697,0.930447,8.938733,-0.004236,-0.002998,0.012842,-0.057121,-0.002284,-0.032409,-0.039716,0.009336,0.089384,1.000000,-0.000286,-0.000011,-0.000162,-0.960070,-0.008937,-0.211950,-0.182381,5.926956,23.810592,22.762878
14890,-3.972201,0.976016,9.006211,0.004214,0.049404,0.078741,-0.056543,-0.004411,-0.027682,-0.039723,0.009791,0.090058,1.000000,-0.000283,-0.000022,-0.000138,-0.960098,-0.008615,-0.211854,-0.182360,5.885148,23.807112,22.750833
14891,-4.005228,0.877956,8.953508,-0.015112,-0.051632,0.034904,-0.054901,-0.021318,-0.021731,-0.040061,0.008808,0.089528,1.000000,-0.000275,-0.000107,-0.000109,-0.960139,-0.008323,-0.211678,-0.182366,5.845322,23.793670,22.741428
14892,-3.900447,0.997364,9.019208,0.053985,0.105781,0.063558,-0.057995,-0.026304,-0.019336,-0.039015,0.010004,0.090184,1.000000,-0.000290,-0.000132,-0.000097,-0.960182,-0.008023,-0.211474,-0.182385,5.804226,23.777211,22.733198
14893,-3.950038,0.919392,9.075522,0.056692,0.024617,0.127602,-0.078063,-0.026847,-0.015705,-0.039512,0.009232,0.090746,1.000000,-0.000390,-0.000134,-0.000079,-0.960224,-0.007630,-0.211250,-0.182444,5.752516,23.760256,22.727223
14894,-4.119304,0.760397,8.979141,-0.076299,-0.183264,0.093494,-0.077475,-0.028243,-0.015890,-0.041205,0.007642,0.089783,1.000000,-0.000387,-0.000141,-0.000079,-0.960267,-0.007242,-0.211019,-0.182501,5.701093,23.742479,22.721051
14895,-4.031000,0.836349,9.006613,-0.022572,-0.073808,0.089917,-0.062887,-0.027825,-0.011558,-0.040322,0.008394,0.090058,1.000000,-0.000314,-0.000139,-0.000058,-0.960304,-0.006928,-0.210804,-0.182563,5.659110,23.724723,22.717631
14896,-3.994360,0.838082,8.984863,-0.005892,-0.056048,0.055538,-0.051259,-0.019676,-0.011268,-0.039952,0.008406,0.089843,1.000000,-0.000256,-0.000098,-0.000056,-0.960333,-0.006663,-0.210638,-0.182614,5.624089,23.711565,22.714897
14897,-3.993240,0.891733,9.029739,-0.009442,0.001630,0.100800,-0.050425,-0.016970,-0.015829,-0.039939,0.008943,0.090292,1.000000,-0.000252,-0.000085,-0.000079,-0.960362,-0.006394,-0.210487,-0.182643,5.588456,23.700233,22.709506
14898,-3.939964,0.895839,9.059617,0.041961,0.030758,0.106980,-0.054938,-0.022281,-0.015255,-0.039409,0.008986,0.090589,1.000000,-0.000275,-0.000111,-0.000076,-0.960397,-0.006109,-0.210305,-0.182679,5.550274,23.685810,22.704150
14899,-3.937817,0.751592,9.043156,0.083290,-0.099817,0.078372,-0.043305,-0.013636,-0.018224,-0.039384,0.007539,0.090427,1.000000,-0.000217,-0.000068,-0.000091,-0.960425,-0.005869,-0.210176,-0.182689,5.518211,23.676505,22.697486
14900,-4.058053,0.778530,9.001764,-0.046968,-0.116688,0.091345,-0.015644,-0.003016,-0.023203,-0.040581,0.007797,0.090016,1.000000,-0.000078,-0.000015,-0.000116,-0.960445,-0.005747,-0.210123,-0.182647,5.501027,23.673499,22.688355
14901,-3.937341,0.779181,9.054138,0.074720,-0.068076,0.090695,-0.007932,-0.002073,-0.019220,-0.039374,0.007799,0.090541,1.000000,-0.000040,-0.000010,-0.000096,-0.960461,-0.005665,-0.210082,-0.182615,5.489263,23.670839,22.681771
14902,-3.937780,0.851233,9.051376,0.047239,0.000098,0.094678,-0.000812,0.000764,-0.018333,-0.039377,0.008516,0.090514,1.000000,-0.000004,0.000004,-0.000092,-0.960473,-0.005616,-0.210060,-0.182580,5.481883,23.669720,22.675901
14903,-3.937544,0.831943,8.994552,0.030311,-0.020611,0.041094,-0.003070,-0.002513,-0.013958,-0.039376,0.008324,0.089945,1.000000,-0.000015,-0.000013,-0.000070,-0.960484,-0.005564,-0.210021,-0.182569,5.474212,23.666520,22.672569
14904,-3.937029,0.805604,8.961163,0.025331,-0.046570,0.008149,-0.000461,-0.005486,-0.009223,-0.039372,0.008058,0.089611,1.000000,-0.000002,-0.000027,-0.000046,-0.960493,-0.005532,-0.209970,-0.182577,5.469160,23.661336,22.671999
14905,-3.971782,0.922303,9.049016,-0.010533,0.056257,0.112387,-0.002950,-0.011631,-0.008642,-0.039723,0.009226,0.090488,1.000000,-0.000015,-0.000058,-0.000043,-0.960509,-0.005494,-0.209887,-0.182591,5.462668,23.652645,22.671435
14906,-4.022207,0.878885,9.010695,-0.055506,-0.003949,0.093882,-0.011263,-0.012171,-0.005913,-0.040227,0.008795,0.090104,1.000000,-0.000056,-0.000061,-0.000030,-0.960523,-0.005419,-0.209794,-0.182626,5.452096,23.643467,22.672531
14907,-4.003759,0.868494,8.982899,-0.049651,-0.008043,0.060221,-0.011263,-0.012171,-0.005914,-0.040043,0.008691,0.089826,1.000000,-0.000056,-0.000061,-0.000030,-0.960537,-0.005344,-0.209701,-0.182662,5.441510,23.634320,22.673636
14908,-3.968423,0.900344,8.993844,-0.028559,0.035872,0.058793,-0.013283,-0.011589,-0.004283,-0.039689,0.009010,0.089936,1.000000,-0.000066,-0.000058,-0.000021,-0.960549,-0.005261,-0.209608,-0.182707,5.430202,23.625388,22.675785
14909,-3.950150,0.900642,9.046340,0.005584,0.047459,0.099367,-0.023850,-0.014913,-0.000448,-0.039508,0.009017,0.090459,1.000000,-0.000119,-0.000075,-0.000002,-0.960561,-0.005135,-0.209490,-0.182782,5.413705,23.614381,22.680135
14910,-3.913902,0.912922,9.000791,0.010315,0.070475,0.044352,-0.031208,-0.021861,0.003040,-0.039149,0.009143,0.090002,1.000000,-0.000156,-0.000109,0.000015,-0.960578,-0.004983,-0.209332,-0.182881,5.393713,23.599195,22.686243
14911,-3.947365,1.033849,9.066334,-0.037604,0.178516,0.127919,-0.049022,-0.019650,0.005576,-0.039483,0.010360,0.090657,1.000000,-0.000245,-0.000098,0.000028,-0.960590,-0.004745,-0.209168,-0.183011,5.364184,23.585165,22.694073
14912,-3.961412,0.814590,9.000701,-0.003749,-0.031404,0.054833,-0.065053,-0.021133,0.004316,-0.039624,0.008174,0.090000,1.000000,-0.000325,-0.000106,0.000022,-0.960605,-0.004432,-0.208982,-0.183152,5.325142,23.570331,22.701031
14913,-3.942051,0.786122,9.020188,0.025997,-0.045939,0.062471,-0.048434,-0.022046,0.011925,-0.039431,0.007881,0.090196,1.000000,-0.000242,-0.000110,0.000060,-0.960614,-0.004206,-0.208807,-0.183311,5.297477,23.554606,22.712691
14914,-4.008921,0.789030,8.998068,-0.044799,-0.065329,0.069264,-0.050690,-0.024328,0.009751,-0.040101,0.007911,0.089974,1.000000,-0.000253,-0.000122,0.000049,-0.960627,-0.003970,-0.208618,-0.183463,5.267944,23.537671,22.722864
14915,-3.954704,0.794621,9.028075,0.006559,-0.036097,0.075482,-0.043446,-0.029863,0.011033,-0.039561,0.007964,0.090273,1.000000,-0.000217,-0.000149,0.000055,-0.960644,-0.003774,-0.208410,-0.183613,5.242736,23.517543,22.733535
14916,-3.917881,0.850074,9.073593,0.031994,0.033993,0.107006,-0.035730,-0.027420,0.005206,-0.039191,0.008516,0.090729,1.000000,-0.000179,-0.000137,0.000026,-0.960664,-0.003608,-0.208221,-0.183727,5.220573,23.499090,22.740718
14917,-3.915618,0.828838,9.017833,0.015138,0.013246,0.053413,-0.032411,-0.018556,0.000088,-0.039165,0.008303,0.090173,1.000000,-0.000162,-0.000093,0.000000,-0.960679,-0.003444,-0.208077,-0.183813,5.199229,23.485991,22.745235
14918,-3.931240,0.802228,9.036821,0.015727,-0.013679,0.074775,-0.026714,-0.015784,-0.002469,-0.039319,0.008035,0.090364,1.000000,-0.000134,-0.000079,-0.000012,-0.960694,-0.003302,-0.207952,-0.183881,5.180594,23.474579,22.748314
14919,-3.964301,0.759474,9.050433,0.005529,-0.062486,0.096848,-0.021016,-0.013012,-0.005025,-0.039649,0.007605,0.090501,1.000000,-0.000105,-0.000065,-0.000025,-0.960708,-0.003183,-0.207846,-0.183931,5.164638,23.464910,22.749971
14920,-3.963041,0.765195,9.027852,-0.006944,-0.057096,0.076197,-0.011513,-0.016019,-0.003210,-0.039638,0.007658,0.090275,1.000000,-0.000058,-0.000080,-0.000016,-0.960723,-0.003113,-0.207734,-0.183980,5.154524,23.453405,22.752582
14921,-3.910297,0.813959,9.044097,0.024884,0.008752,0.074069,-0.004984,-0.011534,-0.003773,-0.039108,0.008143,0.090439,1.000000,-0.000025,-0.000058,-0.000019,-0.960734,-0.003071,-0.207649,-0.184019,5.148097,23.444515,22.755105
14922,-3.943549,0.773053,9.057458,0.014694,-0.040059,0.096143,-0.000946,-0.012943,-0.005407,-0.039441,0.007732,0.090572,1.000000,-0.000005,-0.000065,-0.000027,-0.960748,-0.003047,-0.207561,-0.184046,5.143562,23.434879,22.756525
14923,-3.925218,0.756793,9.052677,0.032523,-0.049346,0.083147,0.007604,-0.009541,-0.004336,-0.039256,0.007565,0.090525,1.000000,0.000038,-0.000048,-0.000022,-0.960757,-0.003062,-0.207498,-0.184070,5.144251,23.427156,22.758810
14924,-3.942059,0.821492,9.021988,-0.017839,0.002075,0.067122,0.009861,-0.007513,-0.000533,-0.039424,0.008211,0.090219,1.000000,0.000049,-0.000038,-0.000003,-0.960760,-0.003091,-0.207446,-0.184109,5.147232,23.420368,22.763564
14925,-3.924160,0.871583,9.037927,-0.015198,0.055508,0.078698,0.003333,-0.012250,0.001665,-0.039247,0.008714,0.090377,1.000000,0.000017,-0.000061,0.000008,-0.960767,-0.003094,-0.207366,-0.184166,5.146897,23.410790,22.769429
14926,-3.940253,0.855307,9.033171,-0.026529,0.033788,0.079405,0.001314,-0.011420,0.001665,-0.039408,0.008552,0.090330,1.000000,0.000007,-0.000057,0.000008,-0.960772,-0.003087,-0.207287,-0.184224,5.145435,23.401660,22.775331
14927,-3.869958,0.895588,9.020949,0.011694,0.095395,0.043627,-0.009728,-0.020715,-0.000474,-0.038709,0.008960,0.090205,1.000000,-0.000049,-0.000104,-0.000002,-0.960790,-0.003033,-0.207154,-0.184284,5.136898,23.387362,22.779392
14928,-3.902847,0.846644,9.057814,0.013448,0.041379,0.086359,-0.011878,-0.010504,-0.007397,-0.039033,0.008473,0.090576,1.000000,-0.000059,-0.000053,-0.000037,-0.960803,-0.002953,-0.207068,-0.184313,5.125664,23.379219,22.779712
14929,-3.884532,0.803746,9.019370,0.026964,0.005943,0.040428,-0.004157,-0.009318,-0.005051,-0.038849,0.008040,0.090192,1.000000,-0.000021,-0.000047,-0.000025,-0.960813,-0.002911,-0.206995,-0.184345,5.119443,23.371662,22.781567
14930,-3.935689,0.804592,9.071478,0.002738,-0.007254,0.108435,-0.003924,-0.005452,-0.007784,-0.039359,0.008049,0.090714,1.000000,-0.000020,-0.000027,-0.000039,-0.960821,-0.002864,-0.206941,-0.184364,5.112783,23.366421,22.781930
14931,-3.935356,0.811300,9.048426,-0.009732,-0.001878,0.087774,-0.004517,-0.004307,-0.005972,-0.039355,0.008116,0.090483,1.000000,-0.000023,-0.000022,-0.000030,-0.960826,-0.002814,-0.206891,-0.184393,5.106240,23.361770,22.783493
14932,-3.952580,0.841757,9.007247,-0.052515,0.018136,0.059438,-0.003688,-0.002090,-0.007249,-0.039526,0.008421,0.090072,1.000000,-0.000018,-0.000010,-0.000036,-0.960831,-0.002765,-0.206853,-0.184414,5.099921,23.358421,22.784376
14933,-3.918031,0.866560,9.041069,-0.019617,0.056929,0.078682,-0.009985,-0.002709,-0.009417,-0.039181,0.008672,0.090410,1.000000,-0.000050,-0.000014,-0.000047,-0.960838,-0.002685,-0.206807,-0.184431,5.089431,23.354858,22.783887
14934,-3.883073,0.832524,9.030863,0.016607,0.038206,0.052711,-0.010815,-0.004674,-0.009774,-0.038832,0.008332,0.090307,1.000000,-0.000054,-0.000023,-0.000049,-0.960847,-0.002602,-0.206749,-0.184448,5.078352,23.350163,22.783059
14935,-3.934165,0.806755,9.049350,-0.011916,-0.001162,0.087772,-0.017344,-0.009160,-0.009210,-0.039345,0.008077,0.090491,1.000000,-0.000087,-0.000046,-0.000046,-0.960860,-0.002492,-0.206665,-0.184474,5.063556,23.342907,22.782344
14936,-3.916262,0.861858,9.042284,-0.021275,0.057460,0.078675,-0.011525,-0.014505,-0.013019,-0.039169,0.008626,0.090420,1.000000,-0.000058,-0.000073,-0.000065,-0.960883,-0.002411,-0.206560,-0.184475,5.051059,23.332765,22.778961
14937,-3.880222,0.787008,9.045299,0.034531,0.002216,0.061103,-0.017587,-0.011764,-0.014651,-0.038807,0.007881,0.090450,1.000000,-0.000088,-0.000059,-0.000073,-0.960904,-0.002296,-0.206463,-0.184475,5.034730,23.324297,22.774726
14938,-3.896207,0.768552,9.040771,0.023238,-0.019512,0.061811,-0.014368,-0.016398,-0.008476,-0.038969,0.007694,0.090404,1.000000,-0.000072,-0.000082,-0.000042,-0.960924,-0.002208,-0.206346,-0.184501,5.021684,23.312844,22.774068
14939,-3.946643,0.775679,9.070058,-0.012923,-0.027536,0.109142,-0.014961,-0.015254,-0.006663,-0.039473,0.007765,0.090697,1.000000,-0.000075,-0.000076,-0.000033,-0.960942,-0.002118,-0.206235,-0.184537,5.008752,23.301982,22.774612
14940,-3.893615,0.765277,9.042165,0.022154,-0.019145,0.061814,-0.018163,-0.012390,-0.001400,-0.038942,0.007661,0.090419,1.000000,-0.000091,-0.000062,-0.000007,-0.960951,-0.002015,-0.206134,-0.184601,4.995359,23.292463,22.778576
14941,-3.944892,0.852818,9.045725,-0.053172,0.045877,0.092346,-0.020184,-0.011561,-0.001399,-0.039454,0.008538,0.090454,1.000000,-0.000101,-0.000058,-0.000007,-0.960960,-0.001902,-0.206035,-0.184667,4.980810,23.283447,22.782597
14942,-3.840182,0.869100,9.103283,0.049871,0.104491,0.104908,-0.032183,-0.014451,-0.004281,-0.038408,0.008706,0.091029,1.000000,-0.000161,-0.000072,-0.000021,-0.960974,-0.001731,-0.205911,-0.184732,4.958634,23.272897,22.784664
14943,-3.889943,0.692314,9.023240,0.035872,-0.081290,0.037283,-0.025073,-0.010345,-0.011562,-0.038904,0.006937,0.090230,1.000000,-0.000125,-0.000052,-0.000058,-0.960991,-0.001582,-0.205814,-0.184754,4.938815,23.265080,22.782441
14944,-3.958742,0.788404,9.055331,-0.045965,-0.012034,0.101443,-0.015915,-0.009351,-0.004137,-0.039591,0.007892,0.090551,1.000000,-0.000080,-0.000047,-0.000021,-0.961000,-0.001485,-0.205729,-0.184803,4.926105,23.257435,22.784878
14945,-3.923563,0.819779,9.066269,-0.025047,0.031982,0.100030,-0.016755,-0.010553,-0.009400,-0.039240,0.008207,0.090660,1.000000,-0.000084,-0.000053,-0.000047,-0.961015,-0.001379,-0.205639,-0.184827,4.911581,23.249391,22.783993
14946,-3.939660,0.783339,9.004677,-0.052476,-0.010772,0.047124,-0.014970,-0.014743,-0.009943,-0.039403,0.007842,0.090043,1.000000,-0.000075,-0.000074,-0.000050,-0.961035,-0.001285,-0.205529,-0.184847,4.897877,23.238954,22.782539
14947,-3.904393,0.847371,9.026261,-0.039251,0.064594,0.057976,-0.019018,-0.012576,-0.013208,-0.039049,0.008485,0.090259,1.000000,-0.000095,-0.000063,-0.000066,-0.961055,-0.001166,-0.205427,-0.184855,4.881082,23.229941,22.779185
14948,-3.885888,0.846507,9.078716,-0.005247,0.076363,0.098615,-0.024135,-0.015480,-0.019008,-0.038865,0.008480,0.090783,1.000000,-0.000121,-0.000077,-0.000095,-0.961084,-0.001019,-0.205306,-0.184841,4.859896,23.219525,22.772068
14949,-3.849406,0.730120,9.094371,0.070254,-0.015311,0.089505,-0.026760,-0.012746,-0.022094,-0.038499,0.007318,0.090940,1.000000,-0.000134,-0.000064,-0.000110,-0.961113,-0.000854,-0.205195,-0.184815,4.836490,23.210843,22.763192
14950,-3.899660,0.619713,9.035017,0.041041,-0.138423,0.046424,-0.007868,-0.010373,-0.018863,-0.039001,0.006204,0.090348,1.000000,-0.000039,-0.000052,-0.000094,-0.961136,-0.000781,-0.205114,-0.184784,4.824771,23.203330,22.756442
14951,-3.900005,0.772426,9.007790,-0.026040,0.002619,0.033442,-0.000385,-0.012035,-0.020329,-0.039005,0.007728,0.090076,1.000000,-0.000002,-0.000060,-0.000102,-0.961162,-0.000744,-0.205031,-0.184739,4.816928,23.194965,22.748706
14952,-3.899316,0.855395,9.086402,-0.025879,0.086512,0.111571,-0.002623,-0.015587,-0.014332,-0.039000,0.008558,0.090861,1.000000,-0.000013,-0.000078,-0.000072,-0.961187,-0.000706,-0.204929,-0.184725,4.809215,23.184256,22.744501
14953,-3.862216,0.715728,9.068221,0.045464,-0.031317,0.069548,-0.005116,-0.021226,-0.017050,-0.038631,0.007163,0.090678,1.000000,-0.000026,-0.000106,-0.000085,-0.961220,-0.000658,-0.204798,-0.184701,4.799278,23.170484,22.738325
14954,-3.929485,0.681461,9.058651,-0.005625,-0.087504,0.084621,0.000817,-0.015591,-0.015794,-0.039301,0.006817,0.090583,1.000000,0.000004,-0.000078,-0.000079,-0.961245,-0.000634,-0.204699,-0.184676,4.793184,23.159841,22.733216
14955,-3.894009,0.754729,9.057010,-0.004377,-0.006964,0.074794,0.006064,-0.020803,-0.011265,-0.038949,0.007547,0.090566,1.000000,0.000030,-0.000104,-0.000056,-0.961272,-0.000645,-0.204580,-0.184668,4.791078,23.146033,22.730659
14956,-3.892381,0.787361,9.068350,-0.012645,0.024559,0.087049,-0.001657,-0.022250,-0.011975,-0.038933,0.007877,0.090679,1.000000,-0.000008,-0.000111,-0.000060,-0.961301,-0.000620,-0.204447,-0.184664,4.784364,23.131405,22.727579
14957,-3.855086,0.706703,9.094569,0.055222,-0.035706,0.090240,0.005825,-0.023908,-0.013446,-0.038561,0.007067,0.090941,1.000000,0.000029,-0.000120,-0.000067,-0.961333,-0.000631,-0.204313,-0.184646,4.781528,23.115928,22.723509
14958,-3.887813,0.706522,9.095463,0.025550,-0.048045,0.103902,0.008306,-0.017758,-0.014000,-0.038886,0.007064,0.090951,1.000000,0.000042,-0.000089,-0.000070,-0.961360,-0.000647,-0.204211,-0.184623,4.780122,23.103960,22.719407
14959,-3.834861,0.730978,9.077853,0.052930,-0.008242,0.068863,0.003690,-0.015728,-0.007270,-0.038355,0.007310,0.090776,1.000000,0.000018,-0.000079,-0.000036,-0.961377,-0.000646,-0.204114,-0.184636,4.777736,23.092858,22.719598
14960,-3.955778,0.827229,9.058493,-0.092737,0.036710,0.105924,0.007233,-0.004253,-0.006920,-0.039559,0.008270,0.090584,1.000000,0.000036,-0.000021,-0.000035,-0.961383,-0.000653,-0.204076,-0.184648,4.777713,23.088263,22.720593
14961,-3.884628,0.674074,9.086175,0.031682,-0.078811,0.091659,0.001890,-0.011031,-0.009991,-0.038851,0.006742,0.090860,1.000000,0.000009,-0.000055,-0.000050,-0.961399,-0.000636,-0.204000,-0.184650,4.773729,23.079973,22.719339
14962,-3.902102,0.745846,9.032512,-0.030767,-0.022468,0.054810,0.012694,-0.005082,-0.008388,-0.039023,0.007454,0.090325,1.000000,0.000063,-0.000025,-0.000042,-0.961407,-0.000668,-0.203962,-0.184649,4.776461,23.074976,22.719380
14963,-3.867416,0.780023,9.042953,-0.009932,0.021596,0.053405,0.016139,-0.005339,-0.008217,-0.038676,0.007795,0.090429,1.000000,0.000081,-0.000027,-0.000041,-0.961415,-0.000716,-0.203927,-0.184645,4.781189,23.069852,22.719521
14964,-3.866524,0.733770,9.078970,0.021095,-0.019829,0.082528,0.023264,-0.002493,-0.007331,-0.038666,0.007329,0.090790,1.000000,0.000116,-0.000012,-0.000037,-0.961420,-0.000797,-0.203912,-0.184638,4.790287,23.066283,22.720352
14965,-3.849091,0.752223,9.084111,0.031238,0.002305,0.081828,0.022447,-0.004967,-0.004423,-0.038493,0.007513,0.090841,1.000000,0.000112,-0.000025,-0.000022,-0.961424,-0.000879,-0.203884,-0.184647,4.799557,23.061189,22.722866
14966,-3.815370,0.835011,9.058260,0.020472,0.087980,0.051298,0.020305,0.003469,0.000118,-0.038152,0.008341,0.090584,1.000000,0.000102,0.000017,0.000001,-0.961415,-0.000948,-0.203895,-0.184679,4.808891,23.060667,22.728629
14967,-3.902380,0.876671,9.097385,-0.052640,0.098651,0.124467,-0.007864,0.007175,-0.002706,-0.039020,0.008771,0.090975,1.000000,-0.000039,0.000036,-0.000014,-0.961406,-0.000875,-0.203898,-0.184726,4.801460,23.062422,22.732841
14968,-3.816556,0.826968,9.081007,0.031274,0.083227,0.071986,-0.014530,0.011304,-0.004143,-0.038160,0.008277,0.090812,1.000000,-0.000073,0.000057,-0.000021,-0.961393,-0.000765,-0.203914,-0.184773,4.789963,23.066576,22.736367
14969,-3.851691,0.761442,9.163291,0.056996,0.019014,0.156144,-0.038796,0.021728,-0.007352,-0.038507,0.007634,0.091636,1.000000,-0.000194,0.000109,-0.000037,-0.961373,-0.000525,-0.203958,-0.184830,4.763975,23.076865,22.738449
14970,-3.872398,0.862226,9.119184,-0.013286,0.106631,0.131500,-0.028268,0.026101,-0.017740,-0.038711,0.008639,0.091196,1.000000,-0.000141,0.000131,-0.000089,-0.961358,-0.000322,-0.204033,-0.184826,4.741597,23.090115,22.734296
14971,-3.944826,0.894038,9.002531,-0.131600,0.107306,0.055325,-0.054089,0.025751,-0.031124,-0.039435,0.008971,0.090028,1.000000,-0.000270,0.000129,-0.000156,-0.961356,0.000019,-0.204082,-0.184784,4.701136,23.103823,22.721818
14972,-3.913179,0.963694,9.103368,-0.090702,0.198667,0.140468,-0.066368,0.021527,-0.047638,-0.039120,0.009676,0.091035,1.000000,-0.000332,0.000108,-0.000238,-0.961373,0.000432,-0.204100,-0.184674,4.649547,23.115854,22.698848
14973,-3.967891,0.945053,9.074720,-0.142952,0.169442,0.134105,-0.086051,0.030947,-0.064151,-0.039662,0.009502,0.090749,1.000000,-0.000430,0.000155,-0.000321,-0.961396,0.000966,-0.204144,-0.184506,4.582803,23.134031,22.666091
14974,-3.934948,0.794522,9.055360,-0.071291,0.051751,0.092203,-0.119207,0.023104,-0.070856,-0.039336,0.008013,0.090553,1.000000,-0.000596,0.000116,-0.000354,-0.961432,0.001658,-0.204120,-0.184339,4.495284,23.147966,22.628740
14975,-3.902288,0.690968,9.000049,-0.031202,-0.024355,0.021162,-0.107810,0.026902,-0.064544,-0.039009,0.006971,0.090002,1.000000,-0.000539,0.000135,-0.000323,-0.961458,0.002292,-0.204125,-0.184191,4.415859,23.163766,22.595479
14976,-3.869758,0.682503,9.103421,0.037177,-0.000729,0.102539,-0.093507,0.012769,-0.064246,-0.038690,0.006880,0.091033,1.000000,-0.000468,0.000064,-0.000321,-0.961498,0.002845,-0.204075,-0.184030,4.344453,23.171413,22.561693
14977,-3.800492,0.541802,9.060642,0.126129,-0.100672,0.026341,-0.080533,0.009022,-0.059015,-0.037999,0.005466,0.090606,1.000000,-0.000403,0.000045,-0.000295,-0.961537,0.003326,-0.204020,-0.183880,4.281650,23.176683,22.530983
14978,-3.834668,0.411841,9.098099,0.155640,-0.222379,0.065370,-0.059139,0.015779,-0.044846,-0.038339,0.004154,0.090983,1.000000,-0.000296,0.000079,-0.000224,-0.961556,0.003696,-0.204016,-0.183777,4.234718,23.185157,22.509375
14979,-3.873378,0.584800,9.104982,0.063114,-0.067914,0.098778,-0.033340,0.017179,-0.037950,-0.038725,0.005871,0.091052,1.000000,-0.000167,0.000086,-0.000190,-0.961568,0.003937,-0.204043,-0.183681,4.204247,23.194154,22.492121
14980,-3.962908,0.665986,9.004814,-0.081432,-0.026676,0.047713,-0.042237,0.017197,-0.030136,-0.039620,0.006685,0.090050,1.000000,-0.000211,0.000086,-0.000151,-0.961572,0.004212,-0.204062,-0.183631,4.170609,23.202796,22.479710
14981,-3.879823,0.794762,9.099193,-0.020609,0.135745,0.110071,-0.041249,0.010528,-0.027797,-0.038792,0.007972,0.090992,1.000000,-0.000206,0.000053,-0.000139,-0.961581,0.004474,-0.204050,-0.183592,4.137965,23.207553,22.468455
14982,-3.861672,0.650133,9.027455,0.016754,0.006378,0.027526,-0.044088,0.008862,-0.024899,-0.038612,0.006526,0.090275,1.000000,-0.000220,0.000044,-0.000124,-0.961589,0.004745,-0.204027,-0.183569,4.104398,23.211205,22.458914
14983,-3.913648,0.603062,8.988182,-0.027583,-0.054218,0.008923,-0.038837,0.004434,-0.025280,-0.039134,0.006053,0.089882,1.000000,-0.000194,0.000022,-0.000126,-0.961602,0.004987,-0.203988,-0.183539,4.073643,23.212364,22.448947
14984,-3.844717,0.585309,9.034503,0.053914,-0.039026,0.023077,-0.021571,0.002145,-0.017827,-0.038446,0.005866,0.090345,1.000000,-0.000108,0.000011,-0.000089,-0.961610,0.005137,-0.203953,-0.183528,4.054591,23.211881,22.443504
14985,-3.862821,0.633753,9.154369,0.066802,0.012769,0.143260,-0.022399,0.000441,-0.019835,-0.038627,0.006352,0.091543,1.000000,-0.000112,0.000002,-0.000099,-0.961622,0.005291,-0.203910,-0.183508,4.034519,23.210532,22.436746
14986,-3.914019,0.563982,9.081061,0.018436,-0.074062,0.091729,-0.013019,0.005057,-0.013449,-0.039138,0.005648,0.090811,1.000000,-0.000065,0.000025,-0.000067,-0.961624,0.005397,-0.203898,-0.183508,4.021489,23.211533,22.434153
14987,-3.931536,0.538430,9.098657,0.019182,-0.100933,0.113132,-0.002457,0.007937,-0.013978,-0.039311,0.005388,0.090988,1.000000,-0.000012,0.000040,-0.000070,-0.961624,0.005456,-0.203909,-0.183496,4.014408,23.214229,22.431366
14988,-3.916529,0.603479,9.067946,-0.002360,-0.037265,0.083253,0.022928,0.015943,-0.017753,-0.039158,0.006028,0.090683,1.000000,0.000115,0.000080,-0.000089,-0.961620,0.005404,-0.203982,-0.183439,4.021103,23.221625,22.426572
14989,-3.950304,0.465761,9.047226,0.011354,-0.180066,0.068688,0.026392,0.014909,-0.012664,-0.039496,0.004648,0.090476,1.000000,0.000132,0.000075,-0.000063,-0.961612,0.005330,-0.204053,-0.183403,4.030993,23.228253,22.424908
14990,-3.867322,0.592405,9.060970,0.044186,-0.033608,0.056721,0.043061,0.013758,-0.003382,-0.038667,0.005905,0.090614,1.000000,0.000215,0.000069,-0.000017,-0.961597,0.005164,-0.204135,-0.183395,4.052708,23.233823,22.428961
14991,-3.903144,0.596192,9.060162,0.014556,-0.046040,0.070338,0.056249,0.014429,-0.004104,-0.039025,0.005937,0.090606,1.000000,0.000281,0.000072,-0.000021,-0.961582,0.004937,-0.204231,-0.183370,4.081798,23.239831,22.432604
14992,-3.904117,0.583674,9.002150,-0.001878,-0.066993,0.016708,0.058879,0.011956,-0.002662,-0.039036,0.005811,0.090026,1.000000,0.000294,0.000060,-0.000013,-0.961569,0.004693,-0.204318,-0.183349,4.112722,23.244337,22.437031
14993,-3.854413,0.657219,9.074522,0.045346,0.020266,0.068250,0.070660,0.011009,0.002972,-0.038539,0.006540,0.090750,1.000000,0.000353,0.000055,0.000015,-0.961552,0.004386,-0.204412,-0.183343,4.151750,23.248095,22.444930
14994,-3.959736,0.701618,9.061212,-0.062281,0.018946,0.100591,0.050800,0.013672,0.007145,-0.039591,0.006992,0.090617,1.000000,0.000254,0.000068,0.000036,-0.961527,0.004173,-0.204500,-0.183378,4.180485,23.253168,22.455539
14995,-3.941498,0.577440,9.069274,0.003130,-0.094319,0.092446,0.068618,0.012350,-0.000317,-0.039409,0.005743,0.090697,1.000000,0.000343,0.000062,-0.000002,-0.961512,0.003880,-0.204598,-0.183358,4.217563,23.257822,22.461459
14996,-3.945722,0.756023,9.098328,-0.048748,0.067522,0.132811,0.088877,0.017967,-0.013231,-0.039449,0.007522,0.090990,1.000000,0.000444,0.000090,-0.000066,-0.961502,0.003509,-0.204741,-0.183256,4.263192,23.266201,22.459603
14997,-3.877730,0.714004,9.029149,0.000935,0.040531,0.039748,0.087661,0.021015,-0.014519,-0.038767,0.007103,0.090299,1.000000,0.000438,0.000105,-0.000073,-0.961490,0.003147,-0.204898,-0.183148,4.307855,23.276405,22.457102
14998,-3.828495,0.749114,9.113267,0.067866,0.091427,0.099790,0.087886,0.023605,-0.009078,-0.038274,0.007453,0.091140,1.000000,0.000439,0.000118,-0.000045,-0.961471,0.002781,-0.205067,-0.183067,4.354050,23.287829,22.458108
14999,-3.986919,0.785324,9.070343,-0.091367,0.060495,0.125691,0.087464,0.030163,-0.019830,-0.039855,0.007818,0.090713,1.000000,0.000437,0.000151,-0.000099,-0.961454,0.002434,-0.205268,-0.182934,4.397471,23.303495,22.452756
15000,-3.849989,0.702846,9.013761,0.036337,0.022431,0.013933,0.068590,0.026937,-0.018208,-0.038487,0.007001,0.090145,1.000000,0.000343,0.000135,-0.000091,-0.961439,0.002173,-0.205435,-0.182828,4.430437,23.317223,22.448261
15001,-3.819652,0.800304,9.067086,0.053051,0.124142,0.057675,0.071438,0.027576,-0.014582,-0.038183,0.007973,0.090679,1.000000,0.000357,0.000138,-0.000073,-0.961420,0.001896,-0.205609,-0.182736,4.465924,23.331184,22.446068
15002,-3.909291,0.859640,9.058154,-0.044013,0.144713,0.089273,0.032267,0.021561,-0.018041,-0.039082,0.008585,0.090587,1.000000,0.000161,0.000108,-0.000090,-0.961410,0.001804,-0.205717,-0.182668,4.478021,23.341836,22.441429
15003,-3.889708,0.633187,9.035503,0.045253,-0.062424,0.044550,0.022111,0.013151,-0.013301,-0.038891,0.006324,0.090358,1.000000,0.000111,0.000066,-0.000067,-0.961404,0.001749,-0.205776,-0.182634,4.485286,23.347501,22.439339
15004,-3.927886,0.766150,9.076741,-0.016080,0.050333,0.106975,0.035887,0.012946,-0.017487,-0.039272,0.007649,0.090771,1.000000,0.000179,0.000065,-0.000087,-0.961402,0.001632,-0.205846,-0.182565,4.499429,23.353209,22.434626
15005,-3.979577,0.692048,9.026482,-0.052326,-0.041694,0.076138,0.015809,0.013006,-0.018766,-0.039789,0.006917,0.090268,1.000000,0.000079,0.000065,-0.000094,-0.961401,0.001613,-0.205899,-0.182511,4.501733,23.359038,22.429131
15006,-3.894038,0.678391,9.020813,0.023853,-0.025486,0.036048,0.025944,0.008155,-0.013844,-0.038936,0.006775,0.090211,1.000000,0.000130,0.000041,-0.000069,-0.961401,0.001535,-0.205937,-0.182470,4.510984,23.361846,22.426452
15007,-3.897514,0.803794,9.085392,0.003451,0.094870,0.105580,0.013189,0.014453,-0.013678,-0.038968,0.008035,0.090857,1.000000,0.000066,0.000072,-0.000068,-0.961394,0.001525,-0.205994,-0.182443,4.513070,23.368273,22.424194
15008,-3.914230,0.696316,9.024748,0.004272,-0.015800,0.048949,0.014594,0.016301,-0.021690,-0.039134,0.006961,0.090251,1.000000,0.000073,0.000082,-0.000108,-0.961392,0.001517,-0.206061,-0.182376,4.514041,23.376088,22.417033
15009,-3.846591,0.683591,9.070670,0.085698,-0.000364,0.063206,0.019470,0.015874,-0.016413,-0.038458,0.006830,0.090710,1.000000,0.000097,0.000079,-0.000082,-0.961386,0.001481,-0.206131,-0.182329,4.519078,23.383450,22.413143
15010,-3.985867,0.656308,9.035847,-0.035148,-0.077165,0.084646,0.012787,0.019972,-0.017882,-0.039849,0.006561,0.090363,1.000000,0.000064,0.000100,-0.000089,-0.961378,0.001482,-0.206214,-0.182282,4.520022,23.393190,22.408532
15011,-3.970213,0.648869,9.006486,-0.029030,-0.081235,0.051032,0.032041,0.018209,-0.018602,-0.039693,0.006478,0.090070,1.000000,0.000160,0.000091,-0.000093,-0.961371,0.001389,-0.206306,-0.182212,4.531766,23.401985,22.403396
15012,-3.905174,0.776602,9.070876,0.008671,0.064490,0.093374,0.031019,0.012115,-0.014585,-0.039046,0.007755,0.090712,1.000000,0.000155,0.000061,-0.000073,-0.961367,0.001291,-0.206368,-0.182162,4.543815,23.407091,22.400452
15013,-3.905356,0.712843,9.049197,0.024058,0.002072,0.068979,0.026575,0.018504,-0.013880,-0.039045,0.007119,0.090497,1.000000,0.000133,0.000093,-0.000069,-0.961356,0.001221,-0.206457,-0.182121,4.553601,23.415842,22.398273
15014,-3.924324,0.676327,9.112600,0.048598,-0.034894,0.131841,0.038961,0.029214,-0.016461,-0.039229,0.006749,0.091133,1.000000,0.000195,0.000146,-0.000082,-0.961337,0.001102,-0.206608,-0.182053,4.570075,23.430800,22.395013
15015,-3.995899,0.660164,9.053842,-0.025903,-0.081309,0.105367,0.051735,0.035421,-0.021398,-0.039942,0.006582,0.090547,1.000000,0.000259,0.000177,-0.000107,-0.961315,0.000934,-0.206801,-0.181949,4.592750,23.449557,22.389002
15016,-3.928995,0.600279,9.031437,0.047702,-0.118324,0.053817,0.066546,0.039297,-0.016502,-0.039272,0.005976,0.090324,1.000000,0.000333,0.000196,-0.000083,-0.961285,0.000692,-0.207026,-0.181853,4.625222,23.470279,22.386236
15017,-3.950625,0.636518,8.987902,0.004890,-0.098748,0.025259,0.066965,0.045523,-0.012172,-0.039485,0.006337,0.089890,1.000000,0.000335,0.000228,-0.000061,-0.961245,0.000450,-0.207281,-0.181778,4.659120,23.494384,22.386501
15018,-3.890532,0.899516,9.092333,0.010539,0.172210,0.116367,0.059851,0.028887,-0.000098,-0.038892,0.008968,0.090932,1.000000,0.000299,0.000144,-0.000000,-0.961210,0.000214,-0.207450,-0.181768,4.691622,23.508397,22.393446
15019,-3.992109,0.696657,9.051825,-0.017469,-0.058580,0.104674,0.029031,0.021649,0.005191,-0.039911,0.006952,0.090524,1.000000,0.000145,0.000108,0.000026,-0.961178,0.000114,-0.207556,-0.181815,4.707623,23.518054,22.403327
15020,-3.977570,0.771500,8.996543,-0.051079,0.010023,0.053991,0.037527,0.013630,0.004506,-0.039770,0.007697,0.089970,1.000000,0.000188,0.000068,0.000023,-0.961156,-0.000033,-0.207631,-0.181850,4.728174,23.523134,22.412367
15021,-3.945288,0.833414,9.040012,-0.026647,0.080478,0.085520,0.015020,0.006748,0.008712,-0.039450,0.008326,0.090402,1.000000,0.000075,0.000034,0.000044,-0.961136,-0.000082,-0.207653,-0.181929,4.736720,23.524111,22.423679
15022,-3.892316,0.753708,9.014122,0.036439,0.021495,0.034688,0.012995,0.007313,0.010346,-0.038920,0.007529,0.090143,1.000000,0.000065,0.000037,0.000052,-0.961114,-0.000124,-0.207675,-0.182017,4.744541,23.525304,22.436031
15023,-3.911615,0.836857,9.039558,0.001344,0.093560,0.071943,0.004264,0.000732,0.007098,-0.039116,0.008365,0.090396,1.000000,0.000021,0.000004,0.000035,-0.961102,-0.000125,-0.207658,-0.182099,4.746399,23.522920,22.446028
15024,-3.912264,0.855285,9.096453,0.016532,0.114970,0.125586,-0.006889,0.000226,0.001268,-0.039123,0.008556,0.090964,1.000000,-0.000034,0.000001,0.000006,-0.961096,-0.000068,-0.207628,-0.182165,4.740425,23.520495,22.452361
15025,-4.046733,0.702070,8.997786,-0.084031,-0.082184,0.077474,-0.001629,-0.004192,0.000932,-0.040469,0.007021,0.089977,1.000000,-0.000008,-0.000021,0.000005,-0.961095,-0.000039,-0.207582,-0.182224,4.737272,23.515592,22.458263
15026,-3.876520,0.837053,9.040019,0.028781,0.106836,0.058370,-0.001027,-0.004835,-0.004161,-0.038767,0.008372,0.090399,1.000000,-0.000005,-0.000024,-0.000021,-0.961099,-0.000009,-0.207534,-0.182257,4.733204,23.510536,22.460954
15027,-3.842873,0.909961,9.037813,0.029398,0.187374,0.048438,-0.016437,-0.008076,-0.003972,-0.038432,0.009108,0.090376,1.000000,-0.000082,-0.000040,-0.000020,-0.961107,0.000092,-0.207455,-0.182308,4.720268,23.503648,22.463603
15028,-3.993303,0.723581,8.981053,-0.057881,-0.041889,0.042476,-0.028006,-0.016562,-0.002662,-0.039940,0.007249,0.089806,1.000000,-0.000140,-0.000083,-0.000013,-0.961122,0.000240,-0.207326,-0.182376,4.700878,23.491823,22.466626
15029,-3.975246,0.770827,8.997627,-0.055916,0.011598,0.053963,-0.026400,-0.024608,-0.000438,-0.039764,0.007720,0.089970,1.000000,-0.000132,-0.000123,-0.000002,-0.961143,0.000370,-0.207159,-0.182454,4.682775,23.475331,22.470636
15030,-3.905004,0.842311,8.996707,-0.026236,0.104868,0.030462,-0.040812,-0.033999,-0.001132,-0.039065,0.008442,0.089959,1.000000,-0.000204,-0.000170,-0.000006,-0.961174,0.000562,-0.206934,-0.182543,4.656077,23.453482,22.473733
15031,-3.901131,0.798017,9.011390,-0.006871,0.068738,0.039014,-0.048519,-0.035744,-0.000224,-0.039027,0.008002,0.090105,1.000000,-0.000243,-0.000179,-0.000001,-0.961207,0.000789,-0.206694,-0.182645,4.625133,23.430623,22.477328
15032,-3.862385,0.761049,9.003097,0.029709,0.050378,0.013276,-0.053211,-0.043448,-0.006755,-0.038643,0.007636,0.090021,1.000000,-0.000266,-0.000217,-0.000034,-0.961253,0.001037,-0.206412,-0.182720,4.589762,23.403639,22.476476
15033,-3.827063,0.906384,9.103863,0.041747,0.209735,0.102076,-0.055669,-0.048602,-0.012753,-0.038292,0.009092,0.091027,1.000000,-0.000278,-0.000243,-0.000064,-0.961309,0.001299,-0.206103,-0.182769,4.551381,23.374012,22.471664
15034,-3.870513,0.710512,9.072323,0.053724,0.013677,0.076179,-0.075951,-0.052433,-0.011302,-0.038729,0.007142,0.090710,1.000000,-0.000380,-0.000262,-0.000057,-0.961368,0.001653,-0.205757,-0.182845,4.501705,23.342098,22.467581
15035,-4.003396,0.675271,9.040848,-0.066932,-0.063452,0.097489,-0.066229,-0.051245,-0.013870,-0.040057,0.006785,0.090396,1.000000,-0.000331,-0.000256,-0.000069,-0.961428,0.001964,-0.205425,-0.182899,4.456972,23.311005,22.461998
15036,-3.893827,0.598015,9.045850,0.047756,-0.092570,0.053216,-0.057921,-0.051142,-0.013339,-0.038961,0.006009,0.090447,1.000000,-0.000290,-0.000256,-0.000067,-0.961488,0.002235,-0.205102,-0.182948,4.417176,23.279913,22.456767
15037,-3.960435,0.682450,9.102664,-0.023245,-0.029063,0.137584,-0.049412,-0.046912,-0.017185,-0.039625,0.006850,0.091016,1.000000,-0.000247,-0.000235,-0.000086,-0.961546,0.002473,-0.204807,-0.182969,4.381373,23.251433,22.449381
15038,-3.956073,0.644563,9.094157,-0.015712,-0.060167,0.125411,-0.043328,-0.036857,-0.021949,-0.039577,0.006470,0.090933,1.000000,-0.000217,-0.000184,-0.000110,-0.961598,0.002696,-0.204565,-0.182960,4.348113,23.228872,22.439520
15039,-3.900784,0.625071,9.090595,0.031408,-0.056460,0.099001,-0.028725,-0.035835,-0.020871,-0.039023,0.006268,0.090898,1.000000,-0.000144,-0.000179,-0.000104,-0.961649,0.002848,-0.204342,-0.182942,4.323484,23.206873,22.430401
15040,-3.931913,0.588446,9.081460,0.009882,-0.100334,0.100383,-0.019185,-0.026526,-0.022168,-0.039331,0.005898,0.090809,1.000000,-0.000096,-0.000133,-0.000111,-0.961691,0.002964,-0.204172,-0.182908,4.304209,23.190217,22.420914
15041,-3.895802,0.627560,9.069882,0.018486,-0.051074,0.078264,-0.004185,-0.030256,-0.021811,-0.038971,0.006282,0.090693,1.000000,-0.000021,-0.000151,-0.000109,-0.961737,0.003005,-0.203998,-0.182860,4.293526,23.171441,22.411489
15042,-3.844419,0.760187,9.164789,0.048907,0.099062,0.154188,-0.010883,-0.025910,-0.024910,-0.038455,0.007612,0.091642,1.000000,-0.000054,-0.000130,-0.000125,-0.961781,0.003084,-0.203839,-0.182804,4.278355,23.155250,22.400338
15043,-3.976362,0.540249,9.045603,-0.035022,-0.160864,0.081713,-0.005176,-0.012118,-0.022383,-0.039768,0.005409,0.090453,1.000000,-0.000026,-0.000061,-0.000112,-0.961809,0.003147,-0.203751,-0.182754,4.267305,23.146858,22.391412
15044,-3.941417,0.558471,9.102967,0.009163,-0.126606,0.121825,0.011067,-0.007404,-0.018943,-0.039417,0.005583,0.091029,1.000000,0.000055,-0.000037,-0.000095,-0.961829,0.003132,-0.203701,-0.182704,4.266510,23.140983,22.384835
15045,-3.873294,0.601378,9.090080,0.046823,-0.064550,0.086164,0.029129,0.005381,-0.019158,-0.038730,0.006004,0.090903,1.000000,0.000146,0.000027,-0.000096,-0.961837,0.003042,-0.203729,-0.182635,4.276223,23.142451,22.378725
15046,-3.925755,0.586171,9.084270,0.006742,-0.099189,0.100397,0.038077,0.015323,-0.015358,-0.039250,0.005847,0.090847,1.000000,0.000190,0.000077,-0.000077,-0.961831,0.002914,-0.203812,-0.182574,4.292190,23.149411,22.375433
15047,-3.873718,0.515742,9.033974,0.058229,-0.153006,0.028937,0.045582,0.013208,-0.013545,-0.038731,0.005139,0.090343,1.000000,0.000228,0.000066,-0.000068,-0.961826,0.002746,-0.203893,-0.182515,4.312845,23.155112,22.373177
15048,-3.843603,0.659645,9.051743,0.042476,-0.009902,0.043304,0.054734,0.014272,-0.006095,-0.038429,0.006573,0.090522,1.000000,0.000274,0.000071,-0.000030,-0.961812,0.002528,-0.203987,-0.182482,4.340598,23.161074,22.375597
15049,-3.846498,0.730182,9.071678,0.025715,0.052851,0.067627,0.053532,0.016549,-0.002462,-0.038457,0.007278,0.090722,1.000000,0.000268,0.000083,-0.000012,-0.961794,0.002314,-0.204091,-0.182467,4.368580,23.168204,22.380392
15050,-3.881496,0.708447,9.037174,-0.007633,0.013944,0.048254,0.047456,0.006492,0.002298,-0.038812,0.007063,0.090375,1.000000,0.000237,0.000032,0.000011,-0.961781,0.002115,-0.204141,-0.182482,4.394072,23.169351,22.387664
15051,-3.917241,0.745044,9.047031,-0.045356,0.032601,0.073946,0.050081,0.004541,0.000473,-0.039170,0.007428,0.090473,1.000000,0.000250,0.000023,0.000002,-0.961771,0.001903,-0.204185,-0.182486,4.420572,23.169488,22.393715
15052,-3.883805,0.790283,9.033716,-0.036818,0.081857,0.051817,0.042169,-0.000579,0.000858,-0.038838,0.007884,0.090339,1.000000,0.000211,-0.000003,0.000004,-0.961767,0.001725,-0.204196,-0.182499,4.442550,23.166654,22.399752
15053,-3.782281,0.894618,9.064634,0.025437,0.214321,0.047688,0.030194,-0.003568,-0.002034,-0.037824,0.008933,0.090647,1.000000,0.000151,-0.000018,-0.000010,-0.961768,0.001604,-0.204182,-0.182511,4.456888,23.162267,22.403853
15054,-3.846006,0.675562,9.072210,0.051140,-0.013722,0.064070,0.017613,-0.005166,-0.004745,-0.038462,0.006749,0.090722,1.000000,0.000088,-0.000026,-0.000024,-0.961773,0.001545,-0.204149,-0.182523,4.463343,23.157057,22.406184
15055,-3.896068,0.626617,9.056812,0.019224,-0.079671,0.066134,0.024880,-0.009380,-0.011665,-0.038965,0.006257,0.090567,1.000000,0.000124,-0.000047,-0.000058,-0.961788,0.001455,-0.204102,-0.182493,4.472172,23.149779,22.404018
15056,-3.896753,0.694435,9.077740,0.002406,-0.016935,0.090443,0.026318,-0.009556,-0.006568,-0.038972,0.006934,0.090776,1.000000,0.000132,-0.000048,-0.000033,-0.961799,0.001352,-0.204055,-0.182487,4.483082,23.142143,22.405001
15057,-3.898223,0.787426,9.132225,-0.010719,0.072101,0.147654,0.012140,-0.004120,-0.004925,-0.038984,0.007870,0.091322,1.000000,0.000061,-0.000021,-0.000025,-0.961803,0.001320,-0.204022,-0.182504,4.486356,23.137567,22.407276
15058,-3.841494,0.583057,9.041658,0.073461,-0.106762,0.027628,0.016412,-0.002884,-0.001112,-0.038416,0.005823,0.090417,1.000000,0.000082,-0.000014,-0.000006,-0.961803,0.001265,-0.203999,-0.182534,4.493050,23.133497,22.411972
15059,-3.896048,0.713568,9.031266,-0.022909,-0.006420,0.048933,0.024118,-0.001378,-0.000403,-0.038961,0.007125,0.090313,1.000000,0.000121,-0.000007,-0.000002,-0.961800,0.001174,-0.203990,-0.182560,4.504343,23.130284,22.417188
15060,-3.862694,0.781818,9.051931,-0.010709,0.069144,0.059708,0.010744,-0.005705,0.001458,-0.038630,0.007813,0.090519,1.000000,0.000054,-0.000029,0.000007,-0.961800,0.001142,-0.203948,-0.182608,4.508359,23.124486,22.423340
15061,-3.896495,0.774629,9.075400,-0.028457,0.051525,0.093984,0.007304,-0.005724,0.002922,-0.038968,0.007742,0.090753,1.000000,0.000037,-0.000029,0.000015,-0.961798,0.001124,-0.203902,-0.182667,4.510744,23.118640,22.430408
15062,-3.877426,0.726246,9.060135,-0.002219,0.011226,0.069001,0.003656,-0.009106,0.003853,-0.038779,0.007260,0.090600,1.000000,0.000018,-0.000046,0.000019,-0.961799,0.001120,-0.203837,-0.182734,4.511217,23.110790,22.437879
15063,-3.876789,0.733811,9.037170,-0.014608,0.016382,0.048243,-0.001810,-0.008312,0.005318,-0.038772,0.007338,0.090370,1.000000,-0.000009,-0.000042,0.000027,-0.961798,0.001141,-0.203771,-0.182814,4.508912,23.103358,22.446307
15064,-3.825323,0.802540,9.110050,0.031695,0.104086,0.099847,-0.002467,-0.017148,-0.004485,-0.038261,0.008027,0.091097,1.000000,-0.000012,-0.000086,-0.000022,-0.961815,0.001168,-0.203662,-0.182847,4.503690,23.091291,22.448207
15065,-3.772668,0.834385,9.069288,0.046936,0.149118,0.044126,-0.003275,-0.019371,-0.003200,-0.037735,0.008346,0.090689,1.000000,-0.000016,-0.000097,-0.000016,-0.961832,0.001195,-0.203542,-0.182888,4.498258,23.077926,22.450805
15066,-3.789128,0.875092,9.108911,0.031425,0.184822,0.089857,-0.015041,-0.019001,-0.005545,-0.037900,0.008759,0.091085,1.000000,-0.000075,-0.000095,-0.000028,-0.961852,0.001281,-0.203412,-0.182929,4.485542,23.064846,22.451959
15067,-3.903193,0.652600,8.939399,-0.056792,-0.074653,-0.036959,-0.023165,-0.027235,-0.007321,-0.039044,0.006538,0.089388,1.000000,-0.000116,-0.000136,-0.000037,-0.961881,0.001401,-0.203235,-0.182970,4.467563,23.047174,22.451622
15068,-3.696154,0.798480,9.062027,0.111578,0.144155,0.004961,-0.005945,-0.040132,-0.006593,-0.036979,0.007989,0.090613,1.000000,-0.000030,-0.000201,-0.000033,-0.961923,0.001425,-0.203012,-0.182996,4.459408,23.022070,22.451108
15069,-3.871302,1.059612,9.020139,-0.150873,0.323662,0.053677,-0.027094,-0.043703,-0.020195,-0.038732,0.010612,0.090191,1.000000,-0.000135,-0.000219,-0.000101,-0.961981,0.001561,-0.202753,-0.182979,4.435748,22.995564,22.441997
15070,-3.758146,0.834424,8.926514,-0.018716,0.148538,-0.092597,-0.050672,-0.065930,-0.028455,-0.037610,0.008372,0.089251,1.000000,-0.000253,-0.000330,-0.000142,-0.962069,0.001799,-0.202364,-0.182947,4.396205,22.956685,22.426702
15071,-3.551016,1.118651,9.172346,0.144061,0.508881,0.072317,-0.047949,-0.073475,-0.047956,-0.035541,0.011217,0.091708,1.000000,-0.000240,-0.000367,-0.000240,-0.962181,0.002037,-0.201942,-0.182817,4.353362,22.914372,22.398998
15072,-3.806303,1.207801,9.363035,-0.040284,0.523517,0.352815,-0.096873,-0.055596,-0.059893,-0.038085,0.012135,0.093614,1.000000,-0.000484,-0.000278,-0.000299,-0.962286,0.002538,-0.201561,-0.182680,4.280010,22.882723,22.364769
15073,-4.069691,0.035501,8.950005,-0.019846,-0.685650,-0.004746,-0.105809,-0.030599,-0.061579,-0.040710,0.000415,0.089494,1.000000,-0.000529,-0.000153,-0.000308,-0.962367,0.003107,-0.201292,-0.182543,4.201572,22.865427,22.330708
15074,-3.849078,0.281383,9.131807,0.146033,-0.355807,0.093702,-0.062156,-0.008600,-0.050465,-0.038494,0.002852,0.091316,1.000000,-0.000311,-0.000043,-0.000252,-0.962416,0.003475,-0.201169,-0.182415,4.151264,22.860164,22.304548
15075,-3.771967,0.662331,9.229092,0.111737,0.041059,0.178728,-0.035957,-0.003568,-0.074989,-0.037719,0.006654,0.092289,1.000000,-0.000180,-0.000018,-0.000375,-0.962482,0.003746,-0.201093,-0.182142,4.110111,22.858809,22.263421
15076,-3.635715,0.681666,9.158775,0.191847,0.107635,0.062426,-0.034935,0.009725,-0.103093,-0.036349,0.006851,0.091588,1.000000,-0.000175,0.000049,-0.000515,-0.962560,0.004052,-0.201082,-0.181733,4.063030,22.866128,22.205442
15077,-3.760905,0.764539,9.265449,0.096360,0.157331,0.214448,-0.013267,0.022438,-0.135103,-0.037593,0.007677,0.092658,1.000000,-0.000066,0.000112,-0.000676,-0.962655,0.004298,-0.201151,-0.181148,4.020815,22.882005,22.128163
15078,-4.036075,0.557540,9.075682,-0.138133,-0.139716,0.133676,0.006015,0.039196,-0.156551,-0.040339,0.005604,0.090765,1.000000,0.000030,0.000196,-0.000783,-0.962753,0.004488,-0.201317,-0.180440,3.984752,22.908223,22.038269
15079,-3.971995,0.579733,9.107596,-0.076955,-0.087419,0.139577,0.014114,0.035984,-0.156627,-0.039699,0.005822,0.091084,1.000000,0.000071,0.000180,-0.000783,-0.962853,0.004636,-0.201475,-0.179723,3.953174,22.932606,21.948168
15080,-3.916087,0.846191,9.166549,-0.097195,0.193557,0.188837,-0.018510,0.043693,-0.145655,-0.039135,0.008499,0.091673,1.000000,-0.000093,0.000218,-0.000728,-0.962934,0.004937,-0.201641,-0.179092,3.905667,22.960866,21.865160
15081,-3.777012,0.673148,9.239061,0.110637,0.095659,0.190202,-0.058217,0.037479,-0.140687,-0.037748,0.006785,0.092396,1.000000,-0.000291,0.000187,-0.000703,-0.963016,0.005418,-0.201742,-0.178525,3.836426,22.985345,21.784939
15082,-3.679344,0.700496,9.248048,0.188967,0.165835,0.161853,-0.021421,0.043332,-0.151039,-0.036768,0.007043,0.092488,1.000000,-0.000107,0.000217,-0.000755,-0.963102,0.005738,-0.201903,-0.177870,3.785836,23.013444,21.698476
15083,-3.891154,0.647451,9.132792,-0.016685,0.045828,0.135467,-0.060710,0.060679,-0.155795,-0.038879,0.006533,0.091338,1.000000,-0.000304,0.000303,-0.000779,-0.963172,0.006268,-0.202113,-0.177232,3.711751,23.051595,21.609721
15084,-4.106544,0.222128,8.872409,-0.153660,-0.435189,-0.044388,-0.043986,0.058462,-0.138331,-0.041038,0.002269,0.088736,1.000000,-0.000220,0.000292,-0.000692,-0.963229,0.006697,-0.202326,-0.176661,3.651424,23.087694,21.531646
15085,-4.076444,0.208418,8.893616,-0.113243,-0.427020,-0.037102,-0.013293,0.041888,-0.108780,-0.040745,0.002112,0.088945,1.000000,-0.000066,0.000209,-0.000544,-0.963277,0.006934,-0.202489,-0.176201,3.615536,23.113229,21.471248
15086,-4.093314,0.529263,8.894209,-0.235503,-0.125860,-0.011106,0.000453,0.034619,-0.088881,-0.040915,0.005311,0.088949,1.000000,0.000002,0.000173,-0.000444,-0.963316,0.007078,-0.202629,-0.175824,3.592266,23.133825,21.422905
15087,-3.997692,0.238121,8.953316,-0.030311,-0.357320,-0.011080,-0.014453,0.017948,-0.057063,-0.039968,0.002399,0.089537,1.000000,-0.000072,0.000090,-0.000285,-0.963343,0.007247,-0.202677,-0.175615,3.567931,23.143768,21.393694
15088,-3.990480,0.443324,9.044655,-0.058240,-0.152450,0.081737,0.024828,0.010897,-0.042263,-0.039899,0.004430,0.090449,1.000000,0.000124,0.000054,-0.000211,-0.963365,0.007206,-0.202725,-0.175439,3.569629,23.149116,21.373403
15089,-4.008378,0.441177,8.992576,-0.092794,-0.164502,0.040864,0.007953,0.001210,-0.027991,-0.040083,0.004414,0.089926,1.000000,0.000040,0.000006,-0.000140,-0.963384,0.007223,-0.202713,-0.175348,3.564978,23.148445,21.361619
15090,-3.861048,0.236473,8.975787,0.096253,-0.309939,-0.044216,0.042804,-0.010708,-0.015925,-0.038615,0.002349,0.089756,1.000000,0.000214,-0.000054,-0.000080,-0.963405,0.007049,-0.202675,-0.175281,3.583079,23.140503,21.356870
15091,-3.940321,0.492959,9.083501,-0.016789,-0.090507,0.100468,0.057185,-0.002703,-0.005331,-0.039404,0.004905,0.090836,1.000000,0.000286,-0.000014,-0.000027,-0.963410,0.006803,-0.202688,-0.175250,3.612116,23.136786,21.359024
15092,-4.011174,0.535717,9.070433,-0.095505,-0.080013,0.118765,0.065239,0.005349,-0.001875,-0.040109,0.005328,0.090707,1.000000,0.000326,0.000027,-0.000009,-0.963404,0.006521,-0.202747,-0.175227,3.646744,23.137522,21.363639
15093,-3.923098,0.489312,9.077272,0.000857,-0.099261,0.087673,0.074633,0.008323,0.016033,-0.039228,0.004856,0.090776,1.000000,0.000373,0.000042,0.000080,-0.963379,0.006179,-0.202829,-0.175281,3.691168,23.139323,21.379512
15094,-3.940885,0.479766,9.071093,-0.010020,-0.121153,0.088358,0.081389,0.020427,0.011603,-0.039400,0.004758,0.090717,1.000000,0.000407,0.000102,0.000058,-0.963346,0.005819,-0.202975,-0.175306,3.738581,23.148176,21.393118
15095,-4.007019,0.361265,9.004561,-0.047197,-0.266916,0.046083,0.093271,0.034248,0.021241,-0.040055,0.003566,0.090054,1.000000,0.000466,0.000171,0.000106,-0.963290,0.005404,-0.203198,-0.175365,3.795381,23.164577,21.413297
15096,-3.919629,0.279693,9.023370,0.069343,-0.322285,0.023686,0.139796,0.033069,0.040739,-0.039182,0.002726,0.090242,1.000000,0.000699,0.000165,0.000204,-0.963220,0.004744,-0.203457,-0.175471,3.883605,23.179516,21.445573
15097,-3.814623,0.597040,9.166526,0.115135,0.010268,0.133147,0.140936,0.041533,0.043769,-0.038128,0.005897,0.091677,1.000000,0.000705,0.000208,0.000219,-0.963138,0.004083,-0.203758,-0.175589,3.973387,23.199145,21.480127
15098,-4.038263,0.452529,9.012855,-0.075669,-0.225940,0.070991,0.194329,0.091069,0.027696,-0.040342,0.004432,0.090151,0.999999,0.000972,0.000455,0.000138,-0.963020,0.003225,-0.204344,-0.175575,4.090706,23.247657,21.506902
15099,-4.102628,0.559644,9.009978,-0.152357,-0.162169,0.100683,0.214009,0.110621,0.033488,-0.040977,0.005493,0.090128,0.999999,0.001070,0.000553,0.000167,-0.962875,0.002283,-0.205041,-0.175569,4.221154,23.307067,21.538291
15100,-3.943183,0.658132,9.128510,0.014622,-0.023065,0.152789,0.220493,0.112505,0.050890,-0.039382,0.006471,0.091314,0.999999,0.001102,0.000563,0.000254,-0.962713,0.001294,-0.205752,-0.175639,4.359725,23.366728,21.580762
15101,-3.964900,0.964438,9.133178,-0.088067,0.241771,0.187276,0.193251,0.120130,0.055296,-0.039597,0.009545,0.091365,0.999999,0.000966,0.000601,0.000276,-0.962537,0.000439,-0.206476,-0.175758,4.484043,23.430472,21.626511
15102,-4.051153,0.745995,9.004550,-0.122335,-0.014975,0.088578,0.157473,0.108364,0.063007,-0.040465,0.007376,0.090073,0.999999,0.000787,0.000542,0.000315,-0.962365,-0.000263,-0.207112,-0.175950,4.589642,23.487050,21.676640
15103,-3.888434,0.767502,9.126967,0.073083,0.056808,0.137282,0.166791,0.103151,0.057664,-0.038839,0.007588,0.091296,0.999999,0.000834,0.000516,0.000288,-0.962202,-0.001009,-0.207731,-0.176108,4.699253,23.540824,21.723315
15104,-4.061813,1.002725,9.034212,-0.174962,0.199823,0.139709,0.172014,0.128308,0.039732,-0.040562,0.009941,0.090377,0.999999,0.000860,0.000642,0.000199,-0.962028,-0.001739,-0.208475,-0.176173,4.808003,23.609721,21.760254
15105,-4.016285,0.890676,9.040212,-0.079099,0.100331,0.118724,0.140013,0.124805,0.037131,-0.040108,0.008836,0.090433,1.000000,0.000700,0.000624,0.000186,-0.961859,-0.002315,-0.209174,-0.176259,4.897799,23.676697,21.795537
15106,-3.898876,0.713084,9.028072,0.091544,-0.035668,0.046629,0.132123,0.120593,0.030896,-0.038935,0.007065,0.090309,1.000000,0.000661,0.000603,0.000154,-0.961700,-0.002851,-0.209845,-0.176324,4.981510,23.741517,21.826833
15107,-3.916091,1.343243,9.180751,-0.060930,0.553817,0.242949,0.086974,0.093488,0.000509,-0.039118,0.013392,0.091832,1.000000,0.000435,0.000467,0.000003,-0.961596,-0.003162,-0.210347,-0.176289,5.031186,23.792363,21.837795
15108,-3.635619,1.038538,9.162556,0.281396,0.362057,0.088749,-0.000695,0.070879,-0.026836,-0.036322,0.010391,0.091638,1.000000,-0.000003,0.000354,-0.000134,-0.961541,-0.003042,-0.210664,-0.176214,5.023269,23.831660,21.830478
15109,-4.036178,0.911282,9.224267,0.015276,0.115307,0.296453,0.002585,0.074212,-0.074967,-0.040324,0.009127,0.092258,1.000000,0.000013,0.000371,-0.000375,-0.961524,-0.002885,-0.210999,-0.175904,5.005139,23.875282,21.793296
15110,-4.204262,0.767057,8.823540,-0.237372,-0.099748,-0.012037,0.013816,0.039140,-0.089425,-0.042022,0.007683,0.088244,1.000000,0.000069,0.000196,-0.000447,-0.961557,-0.002797,-0.211177,-0.175513,4.988999,23.899575,21.745147
15111,-3.902976,0.875384,8.982360,0.048932,0.117869,0.019201,0.021229,0.019859,-0.073227,-0.039018,0.008759,0.089828,1.000000,0.000106,0.000099,-0.000366,-0.961596,-0.002779,-0.211268,-0.175191,4.980745,23.912069,21.706053
15112,-3.994413,0.490331,9.046556,0.127890,-0.267436,0.084184,-0.000061,0.020544,-0.061033,-0.039933,0.004916,0.090470,1.000000,-0.000000,0.000103,-0.000305,-0.961623,-0.002671,-0.211343,-0.174951,4.963401,23.924322,21.674598
15113,-4.125871,0.727860,9.014035,-0.075975,-0.090199,0.126705,0.049935,-0.001274,-0.060979,-0.041257,0.007269,0.090142,1.000000,0.000250,-0.000006,-0.000305,-0.961673,-0.002822,-0.211357,-0.174657,4.974216,23.924134,21.641995
15114,-3.780842,0.708850,9.135798,0.272810,0.015602,0.096166,0.023903,-0.012739,-0.049145,-0.037812,0.007087,0.091356,1.000000,0.000120,-0.000064,-0.000246,-0.961725,-0.002871,-0.211293,-0.174448,4.972871,23.916801,21.616157
15115,-3.937964,0.774517,9.078001,0.093631,0.018771,0.112453,0.059627,-0.001892,-0.050370,-0.039379,0.007728,0.090782,1.000000,0.000298,-0.000009,-0.000252,-0.961766,-0.003080,-0.211312,-0.174195,4.991915,23.915740,21.590147
15116,-4.111980,0.824235,9.014797,-0.095865,-0.000222,0.129401,0.057421,-0.004944,-0.047592,-0.041120,0.008226,0.090149,1.000000,0.000287,-0.000025,-0.000238,-0.961808,-0.003285,-0.211315,-0.173958,5.010340,23.912784,21.565701
15117,-3.878328,0.609582,9.001086,0.170455,-0.128229,0.005004,0.085793,0.010361,-0.043617,-0.038777,0.006066,0.090015,1.000000,0.000429,0.000052,-0.000218,-0.961829,-0.003617,-0.211416,-0.173711,5.046359,23.918396,21.544580
15118,-4.260497,1.023369,8.964957,-0.302318,0.123699,0.160420,0.124651,0.029175,-0.043556,-0.042590,0.010187,0.089662,1.000000,0.000623,0.000146,-0.000218,-0.961829,-0.004119,-0.211641,-0.173422,5.105083,23.934736,21.524539
15119,-3.816133,0.312265,8.907553,0.292823,-0.404986,-0.129965,0.071262,0.022615,-0.032726,-0.038151,0.003097,0.089081,1.000000,0.000356,0.000113,-0.000164,-0.961828,-0.004382,-0.211788,-0.173243,5.135807,23.946816,21.510910
15120,-3.693946,0.231699,8.930812,0.438566,-0.447012,-0.165608,0.184245,0.031145,-0.014329,-0.036925,0.002237,0.089316,1.000000,0.000921,0.000156,-0.000072,-0.961799,-0.005201,-0.212073,-0.173032,5.236129,23.962804,21.509261
15121,-4.035735,0.871775,8.954959,-0.045460,0.027309,0.048124,0.195946,0.029551,-0.002109,-0.040344,0.008630,0.089564,1.000000,0.000980,0.000148,-0.000011,-0.961760,-0.006090,-0.212360,-0.172867,5.346230,23.977260,21.515185
15122,-3.981548,1.170141,8.981900,-0.078984,0.313081,0.076306,0.170544,0.016711,0.009594,-0.039809,0.011623,0.089832,1.000000,0.000853,0.000084,0.000048,-0.961725,-0.006880,-0.212563,-0.172785,5.444442,23.983727,21.527686
15123,-4.070322,1.109671,9.288498,-0.002660,0.233112,0.386368,0.117807,0.011534,0.000494,-0.040698,0.011042,0.092894,1.000000,0.000589,0.000058,0.000002,-0.961704,-0.007411,-0.212696,-0.172715,5.510017,23.987748,21.534208
15124,-4.486361,0.873018,8.886319,-0.439456,-0.163078,0.169123,0.148910,0.001743,-0.024228,-0.044862,0.008669,0.088870,1.000000,0.000745,0.000009,-0.000121,-0.961714,-0.008075,-0.212809,-0.172493,5.586901,23.987521,21.524708
15125,-4.436179,1.138659,9.410942,-0.262016,0.119178,0.649586,0.230676,-0.002059,-0.039998,-0.044360,0.011287,0.094122,0.999999,0.001153,-0.000010,-0.000200,-0.961737,-0.009117,-0.212976,-0.172108,5.706536,23.986056,21.505135
15126,-4.844112,0.665533,9.245084,-0.514707,-0.491528,0.621553,0.292574,0.000657,-0.081468,-0.048438,0.006540,0.092461,0.999999,0.001463,0.000003,-0.000407,-0.961788,-0.010412,-0.213209,-0.171457,5.851191,23.988558,21.459852
15127,-5.110519,-0.078834,9.994333,-0.181938,-1.270641,1.339108,0.443421,-0.052921,-0.125369,-0.051132,-0.000978,0.099928,0.999997,0.002217,-0.000265,-0.000627,-0.961923,-0.012430,-0.213317,-0.170430,6.069740,23.963286,21.383717
15128,-7.175606,-0.334438,10.148684,-1.793115,-2.243739,2.284707,0.703680,-0.214362,-0.132257,-0.071867,-0.003654,0.101397,0.999993,0.003518,-0.001072,-0.000661,-0.962210,-0.015830,-0.212868,-0.169082,6.431230,23.846854,21.292180
15129,-7.773800,0.458231,11.456456,-2.040593,-1.706160,3.782046,0.555887,-0.499919,-0.226021,-0.078019,0.004352,0.114382,0.999992,0.002779,-0.002500,-0.001130,-0.962879,-0.018661,-0.210924,-0.167414,6.676488,23.574449,21.121417
15130,-6.047892,-2.326535,10.893694,0.002620,-3.832173,2.269356,0.213596,-0.805071,-0.331745,-0.060955,-0.023281,0.108667,0.999990,0.001068,-0.004025,-0.001659,-0.963972,-0.019987,-0.207232,-0.165568,6.691687,23.135888,20.862760
15131,-6.475083,-1.917758,12.308320,-0.050229,-3.600474,3.756783,0.475055,-1.205061,-0.501816,-0.065539,-0.019305,0.122644,0.999976,0.002375,-0.006025,-0.002509,-0.965563,-0.022728,-0.201837,-0.162585,6.807197,22.481371,20.470397
15132,-6.160671,1.834782,10.877058,-1.654187,-0.060966,2.712796,0.569964,-1.562893,-0.463842,-0.062412,0.018183,0.108337,0.999963,0.002850,-0.007814,-0.002319,-0.967413,-0.026252,-0.194777,-0.159639,6.980610,21.621747,20.075188
15133,-7.231461,4.644220,9.411097,-4.155246,2.155322,2.041305,0.530752,-1.685562,-0.093482,-0.073083,0.046227,0.093620,0.999961,0.002654,-0.008428,-0.000467,-0.969019,-0.030046,-0.187027,-0.158494,7.215352,20.667339,19.895585
15134,-5.851436,7.339630,9.307759,-3.939958,5.034573,1.757523,0.694323,-1.811539,0.311915,-0.059470,0.072982,0.092796,0.999952,0.003472,-0.009058,0.001560,-0.970311,-0.035107,-0.178721,-0.159128,7.626141,19.612524,19.946881
15135,-4.642310,5.777644,8.841744,-2.751006,3.831685,0.716086,0.089397,-1.788458,0.608011,-0.047387,0.057594,0.088022,0.999955,0.000447,-0.008942,0.003040,-0.971364,-0.037478,-0.169976,-0.161728,7.746508,18.547701,20.172392
15136,-3.866685,3.403802,8.754462,-1.558550,1.751367,0.070535,0.031080,-1.803578,0.753958,-0.039582,0.033876,0.087196,0.999952,0.000155,-0.009018,0.003770,-0.972231,-0.039699,-0.161069,-0.165068,7.854943,17.462781,20.480133
15137,-3.028349,1.078749,8.168543,-0.446776,-0.224862,-1.048709,-0.029394,-1.763077,0.755148,-0.031042,0.010683,0.081412,0.999954,-0.000147,-0.008815,0.003776,-0.972985,-0.041589,-0.152291,-0.168455,7.923290,16.400043,20.788344
15138,-1.736341,-0.790379,8.049134,1.129643,-1.596367,-1.775135,-0.062178,-1.638586,0.615347,-0.017998,-0.007934,0.080348,0.999962,-0.000311,-0.008193,0.003077,-0.973686,-0.043105,-0.144110,-0.171199,7.947199,15.419053,21.021792
15139,-1.036793,-2.393491,8.215505,2.211098,-2.911499,-2.006830,0.086152,-1.482584,0.423246,-0.010926,-0.023993,0.082065,0.999970,0.000431,-0.007413,0.002116,-0.974341,-0.045068,-0.136844,-0.172922,8.025984,14.541391,21.153317
15140,-0.609083,-2.543169,8.548041,2.638601,-2.968233,-1.804319,0.215309,-1.374166,0.170174,-0.006656,-0.025529,0.085409,0.999975,0.001077,-0.006871,0.000851,-0.975058,-0.047390,-0.130270,-0.173339,8.142461,13.745661,21.143783
15141,0.065989,-2.594183,8.468854,3.149955,-2.834735,-2.034726,0.313470,-1.239403,-0.087683,0.000124,-0.026075,0.084650,0.999979,0.001567,-0.006197,-0.000438,-0.975843,-0.049905,-0.124491,-0.172460,8.282663,13.047225,20.993452
15142,0.269937,-1.739655,8.672009,3.025728,-2.041453,-1.751703,0.447893,-1.098792,-0.304547,0.002196,-0.017594,0.086694,0.999981,0.002239,-0.005494,-0.001523,-0.976655,-0.052816,-0.119565,-0.170467,8.475910,12.447227,20.727493
15143,0.118116,-0.622505,8.304969,2.364261,-1.093751,-1.901478,0.483853,-0.976310,-0.474830,0.000761,-0.006428,0.083039,0.999982,0.002419,-0.004882,-0.002374,-0.977495,-0.055695,-0.115306,-0.167647,8.673495,11.931858,20.371961
15144,0.188410,0.792099,7.918422,1.835973,0.222142,-2.070351,0.484218,-0.802318,-0.575186,0.001589,0.007724,0.079210,0.999985,0.002421,-0.004012,-0.002876,-0.978287,-0.058369,-0.111923,-0.164380,8.865014,11.525094,19.972814
15145,-0.031975,2.652701,8.232496,1.103351,1.818512,-1.428941,0.472986,-0.625322,-0.560179,-0.000503,0.026333,0.082386,0.999988,0.002365,-0.003127,-0.002801,-0.978945,-0.060852,-0.109389,-0.161239,9.057435,11.218345,19.597480
15146,-0.131787,4.062811,8.306197,0.587374,3.062563,-1.106812,0.380115,-0.503721,-0.461963,-0.001434,0.040473,0.083135,0.999992,0.001901,-0.002519,-0.002310,-0.979467,-0.062832,-0.107343,-0.158665,9.211197,10.972637,19.289525
15147,-0.485956,5.256871,8.282979,-0.109185,4.037782,-0.859316,0.372400,-0.401803,-0.255911,-0.004959,0.052421,0.082918,0.999995,0.001862,-0.002009,-0.001280,-0.979761,-0.064806,-0.105724,-0.157133,9.385999,10.766276,19.109260
15148,-0.372572,5.963511,8.282185,-0.222179,4.711905,-0.754796,0.179709,-0.301728,-0.072975,-0.003829,0.059562,0.082870,0.999998,0.000899,-0.001509,-0.000365,-0.979915,-0.065853,-0.104384,-0.156630,9.472118,10.599736,19.043437
15149,-0.579757,5.560102,8.659866,-0.228896,4.214336,-0.408908,0.012152,-0.189831,0.103799,-0.005909,0.055593,0.086596,0.999999,0.000061,-0.000949,0.000519,-0.979926,-0.066083,-0.103403,-0.157118,9.482992,10.479786,19.089828
15150,-0.890694,4.526084,8.538231,-0.263870,3.147332,-0.636371,-0.093681,-0.108058,0.300155,-0.009021,0.045287,0.085356,0.999999,-0.000468,-0.000540,0.001501,-0.979773,-0.065834,-0.102674,-0.158649,9.455077,10.387530,19.256864
15151,-1.572345,3.161668,8.467229,-0.528929,1.650467,-0.803884,-0.182691,-0.022495,0.428427,-0.015801,0.031660,0.084642,0.999997,-0.000913,-0.000112,0.002142,-0.979499,-0.065145,-0.102251,-0.160882,9.390598,10.331756,19.505831
15152,-1.582692,2.066220,8.793837,-0.150222,0.592309,-0.662150,-0.192714,0.042984,0.488768,-0.015859,0.020708,0.087922,0.999997,-0.000964,0.000215,0.002444,-0.979140,-0.064386,-0.102120,-0.163435,9.327694,10.307614,19.795639
15153,-1.617933,0.668646,8.952479,0.277172,-0.736482,-0.724650,-0.193589,0.105202,0.517669,-0.016150,0.006731,0.089527,0.999996,-0.000968,0.000526,0.002588,-0.978718,-0.063585,-0.102282,-0.166149,9.268115,10.316316,20.107995
15154,-1.548109,-0.361333,9.460098,0.782985,-1.713037,-0.406675,-0.138536,0.142292,0.501855,-0.015405,-0.003587,0.094614,0.999996,-0.000693,0.000711,0.002509,-0.978266,-0.063015,-0.102677,-0.168767,9.239337,10.347651,20.414684
15155,-1.267221,-1.587258,9.613441,1.481622,-2.764080,-0.500970,-0.114554,0.194969,0.352063,-0.012551,-0.015840,0.096156,0.999998,-0.000573,0.000975,0.001760,-0.977899,-0.062439,-0.103395,-0.170657,9.209792,10.422724,20.640265
15156,-0.733910,-2.184133,9.506824,2.161410,-3.113094,-0.794614,-0.065558,0.235089,0.122100,-0.007214,-0.021815,0.095084,0.999999,-0.000328,0.001175,0.000610,-0.977690,-0.061951,-0.104423,-0.171409,9.185388,10.541608,20.737314
15157,-0.616708,-1.600066,9.648859,2.136327,-2.530017,-0.589018,0.063862,0.282638,-0.113739,-0.006040,-0.016028,0.096492,0.999999,0.000319,0.001413,-0.000569,-0.977615,-0.061930,-0.105868,-0.170955,9.211105,10.709030,20.703156
15158,-1.515317,-0.715070,10.109984,1.157177,-2.055350,0.160060,0.193580,0.255795,-0.310707,-0.015035,-0.007225,0.101112,0.999998,0.000968,0.001279,-0.001554,-0.977679,-0.062462,-0.107352,-0.169461,9.289320,10.879364,20.553234
15159,-1.998143,0.946094,9.664452,0.106035,-0.632016,0.080672,0.147707,0.168930,-0.484929,-0.019877,0.009438,0.096668,0.999996,0.000739,0.000845,-0.002425,-0.977947,-0.062749,-0.108427,-0.167111,9.320304,11.016943,20.294859
15160,-1.516226,0.689561,8.853064,0.464440,-0.637025,-0.838857,0.208925,0.227637,-0.573123,-0.015042,0.006846,0.088555,0.999995,0.001045,0.001138,-0.002866,-0.978229,-0.063237,-0.109866,-0.164315,9.376849,11.196030,19.991237
15161,-1.388290,1.710842,9.503720,0.452580,0.306401,-0.072246,0.214403,0.244668,-0.628924,-0.013713,0.017050,0.095072,0.999994,0.001072,0.001223,-0.003145,-0.978534,-0.063708,-0.111410,-0.161245,9.429669,11.390335,19.657026
15162,-1.619866,2.341123,9.205546,0.015418,0.852936,-0.214822,0.176150,0.257970,-0.684282,-0.016000,0.023385,0.092097,0.999993,0.000881,0.001290,-0.003421,-0.978876,-0.063949,-0.113004,-0.157929,9.453194,11.597484,19.292089
15163,-2.093753,3.480896,9.109300,-0.738551,1.797211,-0.029838,0.075380,0.308946,-0.676557,-0.020679,0.034845,0.091138,0.999993,0.000377,0.001545,-0.003383,-0.979203,-0.063660,-0.114764,-0.154721,9.419539,11.832784,18.936162
15164,-2.162391,3.854437,9.383266,-0.795983,2.129690,0.307040,-0.011534,0.339178,-0.565109,-0.021356,0.038610,0.093867,0.999995,-0.000058,0.001696,-0.002826,-0.979441,-0.062985,-0.116568,-0.152117,9.348408,12.074343,18.647002
15165,-2.227942,3.554655,9.478086,-0.705205,1.847597,0.361902,-0.098299,0.365697,-0.368077,-0.022041,0.035634,0.094804,0.999997,-0.000491,0.001828,-0.001840,-0.979533,-0.061980,-0.118373,-0.150535,9.250907,12.312336,18.473698
15166,-2.298292,2.604343,9.475046,-0.468251,0.954674,0.222771,-0.103987,0.368674,-0.192645,-0.022783,0.026115,0.094779,0.999998,-0.000520,0.001843,-0.000963,-0.979488,-0.061048,-0.120133,-0.149815,9.171290,12.535564,18.401730
15167,-2.723889,1.686602,10.058883,-0.425516,-0.070664,0.735257,-0.100117,0.355263,-0.085608,-0.027053,0.016928,0.100629,0.999998,-0.000501,0.001776,-0.000428,-0.979365,-0.060209,-0.121797,-0.149613,9.106835,12.741474,18.390229
15168,-2.511160,1.382935,10.045339,-0.117511,-0.269209,0.629577,-0.115189,0.319131,-0.068187,-0.024947,0.013896,0.100485,0.999999,-0.000576,0.001596,-0.000341,-0.979253,-0.059334,-0.123268,-0.149494,9.035189,12.925266,18.385212
15169,-2.637104,0.632356,10.014197,-0.006219,-0.995781,0.514298,-0.091110,0.299535,-0.092782,-0.026218,0.006381,0.100178,0.999999,-0.000456,0.001498,-0.000464,-0.979161,-0.058576,-0.124667,-0.149233,8.973613,13.100255,18.363901
15170,-2.920707,1.109635,10.332673,-0.294073,-0.634649,0.959343,-0.076059,0.225023,-0.175076,-0.029081,0.011161,0.103355,0.999999,-0.000380,0.001125,-0.000875,-0.979170,-0.057896,-0.125737,-0.148538,8.908122,13.240298,18.287716
15171,-2.826612,0.802451,9.790989,-0.248195,-0.834980,0.372512,-0.103769,0.169936,-0.267524,-0.028172,0.008113,0.097930,0.999999,-0.000519,0.000850,-0.001338,-0.979289,-0.057063,-0.126543,-0.147392,8.812994,13.357288,18.152526
15172,-2.463002,0.833918,9.874445,0.113333,-0.678294,0.375221,-0.099772,0.143149,-0.352789,-0.024545,0.008432,0.098758,0.999998,-0.000499,0.000716,-0.001764,-0.979483,-0.056215,-0.127244,-0.145817,8.707760,13.466257,17.965019
15173,-2.729769,0.908872,9.788226,-0.167903,-0.656791,0.367069,-0.096357,0.098353,-0.444119,-0.027229,0.009196,0.097891,0.999997,-0.000482,0.000492,-0.002221,-0.979766,-0.055358,-0.127754,-0.143780,8.590738,13.557430,17.720044
15174,-2.905876,1.191062,9.903993,-0.369142,-0.423931,0.562079,-0.060489,0.070368,-0.514726,-0.028993,0.012015,0.099047,0.999997,-0.000302,0.000352,-0.002574,-0.980103,-0.054652,-0.128171,-0.141365,8.483570,13.638231,17.431193
15175,-2.822491,1.797985,9.959141,-0.432752,0.200259,0.682848,-0.081845,-0.000749,-0.536130,-0.028177,0.018096,0.099584,0.999996,-0.000409,-0.000004,-0.002681,-0.980499,-0.053876,-0.128230,-0.138839,8.359434,13.680008,17.123469
15176,-2.512449,1.994157,9.687335,-0.266883,0.517793,0.375254,-0.059104,-0.028440,-0.470649,-0.025091,0.020029,0.096864,0.999997,-0.000296,-0.000142,-0.002353,-0.980855,-0.053274,-0.128150,-0.136610,8.256598,13.700031,16.851476
15177,-2.431729,1.944037,9.461971,-0.238714,0.524284,0.131638,-0.028039,-0.029700,-0.372782,-0.024295,0.019499,0.094613,0.999998,-0.000140,-0.000149,-0.001864,-0.981133,-0.052887,-0.128059,-0.134841,8.185011,13.710960,16.636446
15178,-2.159278,1.672318,9.280256,0.034970,0.363433,-0.145787,-0.026798,-0.013337,-0.268878,-0.021576,0.016765,0.092799,0.999999,-0.000134,-0.000067,-0.001344,-0.981327,-0.052561,-0.128021,-0.133585,8.128794,13.722453,16.483422
15179,-2.559875,1.325793,9.520294,-0.186161,-0.090710,0.132352,0.048832,0.027330,-0.151692,-0.025576,0.013254,0.095210,1.000000,0.000244,0.000137,-0.000758,-0.981396,-0.052654,-0.128203,-0.132866,8.132913,13.747485,16.402198
15180,-2.856474,0.196813,9.762229,-0.115669,-1.273560,0.280080,0.084326,0.016530,-0.090575,-0.028556,0.001940,0.097625,1.000000,0.000422,0.000083,-0.000453,-0.981422,-0.052968,-0.128338,-0.132421,8.165615,13.761417,16.355758
15181,-2.860571,-0.558167,9.868107,0.096365,-2.015360,0.277059,0.177867,-0.013037,-0.125350,-0.028616,-0.005651,0.098674,0.999999,0.000889,-0.000065,-0.000627,-0.981464,-0.053738,-0.128400,-0.131737,8.246484,13.761507,16.286541
15182,-1.917307,-0.529104,9.708941,0.926408,-1.735336,-0.099300,0.241906,-0.034828,-0.228996,-0.019196,-0.005386,0.097080,0.999999,0.001210,-0.000174,-0.001145,-0.981569,-0.054770,-0.128424,-0.130498,8.349166,13.757900,16.154985
15183,-2.446355,-0.380036,9.766211,0.412604,-1.762286,0.098519,0.358806,-0.029484,-0.313345,-0.024484,-0.003937,0.097652,0.999997,0.001794,-0.000147,-0.001567,-0.981690,-0.056318,-0.128574,-0.128771,8.507273,13.764716,15.974647
15184,-3.148327,0.358144,9.915579,-0.377897,-1.279962,0.510963,0.415764,-0.075934,-0.412129,-0.031514,0.003440,0.099151,0.999996,0.002079,-0.000380,-0.002061,-0.981882,-0.058110,-0.128559,-0.126508,8.683234,13.754162,15.732655
15185,-2.808099,0.652984,9.592745,-0.215192,-0.908520,0.160315,0.422305,-0.105249,-0.475298,-0.028116,0.006394,0.095926,0.999995,0.002112,-0.000526,-0.002376,-0.982121,-0.059913,-0.128422,-0.123922,8.853743,13.733261,15.451152
15186,-2.371458,1.496398,9.492933,-0.023652,-0.004531,0.085703,0.450894,-0.115530,-0.501600,-0.023732,0.014809,0.094949,0.999994,0.002254,-0.000578,-0.002508,-0.982364,-0.061844,-0.128258,-0.121183,9.036723,13.709721,15.153390
15187,-1.874150,1.881251,9.065301,0.249996,0.500473,-0.383045,0.450545,-0.079997,-0.475794,-0.018733,0.018653,0.090688,0.999995,0.002253,-0.000400,-0.002379,-0.982559,-0.063769,-0.128259,-0.118581,9.224057,13.704878,14.873875
15188,-1.853935,2.113152,9.135460,0.249749,0.691837,-0.282839,0.441484,-0.023786,-0.403986,-0.018508,0.020967,0.091399,0.999996,0.002207,-0.000119,-0.002020,-0.982668,-0.065660,-0.128507,-0.116355,9.417198,13.726040,14.641539
15189,-1.681648,1.718643,8.845579,0.433266,0.354571,-0.663238,0.389971,0.041800,-0.363982,-0.016767,0.017044,0.088493,0.999996,0.001950,0.000209,-0.001820,-0.982721,-0.067287,-0.129033,-0.114378,9.587872,13.781211,14.438853
15190,-2.105801,1.830707,9.339508,0.162981,0.281841,-0.070706,0.436410,0.074462,-0.350020,-0.020991,0.018140,0.093443,0.999996,0.002182,0.000372,-0.001750,-0.982722,-0.069130,-0.129740,-0.112451,9.787553,13.854089,14.247697
15191,-2.602326,1.990041,9.500873,-0.272022,0.275246,0.229679,0.342801,0.082652,-0.357094,-0.025949,0.019784,0.095053,0.999997,0.001714,0.000413,-0.001785,-0.982748,-0.070505,-0.130437,-0.110552,9.932731,13.932873,14.053382
15192,-2.792048,2.269601,9.414345,-0.509935,0.491785,0.240897,0.324460,0.062653,-0.365723,-0.027850,0.022594,0.094189,0.999997,0.001622,0.000313,-0.001829,-0.982792,-0.071793,-0.131027,-0.108614,10.065369,14.001656,13.852170
15193,-3.614714,2.625287,10.451433,-1.052907,0.510251,1.493139,0.302590,0.033798,-0.315088,-0.036088,0.026152,0.104560,0.999998,0.001513,0.000169,-0.001575,-0.982831,-0.073024,-0.131446,-0.106929,10.191826,14.049535,13.677473
15194,-4.051267,3.720322,9.853152,-1.829016,1.527244,1.217290,0.137793,-0.096053,-0.252404,-0.040513,0.037186,0.098538,0.999999,0.000689,-0.000480,-0.001262,-0.982978,-0.073555,-0.131114,-0.105612,10.229301,14.018058,13.525708
15195,-2.273228,4.606945,8.695534,-0.636509,2.926496,-0.167259,-0.039292,-0.113653,-0.235313,-0.022727,0.046113,0.086933,0.999999,-0.000196,-0.000568,-0.001177,-0.983190,-0.073236,-0.130596,-0.104488,10.167466,13.974903,13.382039
15196,-0.587037,4.629698,8.551422,0.909953,3.358202,-0.713239,-0.182942,-0.030400,-0.177703,-0.005842,0.046380,0.085471,0.999999,-0.000915,-0.000152,-0.000889,-0.983370,-0.072205,-0.130391,-0.103772,10.033563,13.972693,13.280572
15197,-1.958308,4.150670,9.242691,-0.110690,2.536583,0.189500,-0.336011,0.047978,-0.090795,-0.019542,0.041671,0.092362,0.999998,-0.001680,0.000240,-0.000454,-0.983506,-0.070437,-0.130460,-0.103611,9.826088,14.005826,13.237630
15198,-3.617106,3.073745,9.712837,-1.356659,1.112265,0.854681,-0.429577,0.012073,-0.037406,-0.036159,0.030953,0.097064,0.999998,-0.002148,0.000060,-0.000187,-0.983667,-0.068263,-0.130285,-0.103760,9.571702,14.013334,13.222026
15199,-2.643035,1.831604,9.372681,-0.309916,0.208497,0.089222,-0.540394,-0.030382,-0.030401,-0.026442,0.018573,0.093673,0.999996,-0.002702,-0.000152,-0.000152,-0.983883,-0.065570,-0.129840,-0.104001,9.253720,13.996139,13.206391
15200,-1.129828,1.343684,8.642010,1.001983,0.192328,-1.053394,-0.497297,0.008502,-0.018817,-0.011293,0.013653,0.086387,0.999997,-0.002486,0.000043,-0.000094,-0.984047,-0.063076,-0.129605,-0.104283,8.963086,13.999807,13.201205
15201,-0.969334,0.903020,9.105457,1.357475,-0.200410,-0.714263,-0.473794,0.136980,0.009168,-0.009631,0.009245,0.091039,0.999997,-0.002369,0.000685,0.000046,-0.984100,-0.060648,-0.130004,-0.104727,8.692579,14.073734,13.224011
15202,-2.433007,0.973330,10.010763,0.209835,-0.497579,0.521262,-0.390289,0.163621,0.072056,-0.024252,0.009920,0.100108,0.999998,-0.001951,0.000818,0.000360,-0.984072,-0.058658,-0.130557,-0.105433,8.479510,14.157425,13.285559
15203,-2.754864,1.381222,9.693792,-0.252054,-0.104314,0.355503,-0.428211,0.149755,0.072126,-0.027481,0.014010,0.096929,0.999997,-0.002141,0.000749,0.000361,-0.984059,-0.056487,-0.131023,-0.106161,8.244330,14.233525,13.345671
15204,-2.058783,1.852341,8.877512,0.096976,0.621517,-0.534536,-0.505527,0.190508,0.043788,-0.020507,0.018743,0.088747,0.999996,-0.002528,0.000953,0.000219,-0.984050,-0.053897,-0.131654,-0.106810,7.961702,14.335254,13.392231
15205,-0.560260,3.738729,9.014304,1.183398,2.837499,-0.533819,-0.679400,0.304358,-0.067602,-0.005453,0.037695,0.090024,0.999993,-0.003397,0.001522,-0.000338,-0.984061,-0.050315,-0.132782,-0.107055,7.565318,14.510542,13.382030
15206,1.182195,3.681762,8.787178,2.787236,3.266774,-1.226293,-0.891369,0.455417,-0.186762,0.012056,0.037197,0.087679,0.999987,-0.004457,0.002277,-0.000934,-0.984070,-0.045531,-0.134566,-0.106891,7.032398,14.780194,13.311676
15207,2.699018,4.463947,9.671261,4.327980,4.406412,-0.724474,-0.924666,0.648808,-0.200326,0.027348,0.045058,0.096417,0.999984,-0.004623,0.003244,-0.001002,-0.983934,-0.040468,-0.137284,-0.106723,6.480578,15.160211,13.244127
15208,2.651135,5.430283,11.079792,4.522681,5.381401,0.668821,-0.995500,0.782651,-0.134885,0.026981,0.054835,0.110421,0.999980,-0.004977,0.003913,-0.000674,-0.983649,-0.035031,-0.140602,-0.106948,5.899414,15.611543,13.219720
15209,3.664037,5.387551,11.807375,5.731774,5.673969,0.995409,-1.065671,0.876008,0.018774,0.037151,0.054507,0.117622,0.999976,-0.005328,0.004380,0.000094,-0.983186,-0.029303,-0.144311,-0.107990,5.302641,16.107468,13.287015
15210,5.303312,6.650761,14.257623,7.763548,7.358649,2.884223,-0.885840,0.908020,0.192909,0.053614,0.067189,0.142037,0.999979,-0.004429,0.004540,0.000965,-0.982535,-0.024570,-0.148239,-0.109758,4.838215,16.612996,13.454854
15211,10.769193,6.861292,18.520814,14.089550,8.906024,5.294788,-0.867474,0.470884,0.445134,0.107973,0.069655,0.184654,0.999985,-0.004337,0.002354,0.002226,-0.982032,-0.020349,-0.149996,-0.112695,4.421129,16.858871,13.748356
15212,15.321504,7.240452,16.086190,17.466789,10.503208,1.612291,-0.405811,0.119116,0.499575,0.153129,0.073113,0.160623,0.999995,-0.002029,0.000596,0.002498,-0.981697,-0.018639,-0.150271,-0.115513,4.274339,16.901941,14.057206
15213,13.992360,8.299229,17.598173,16.381906,11.325512,3.518630,-0.113604,-0.130495,0.476355,0.139610,0.083425,0.176026,0.999997,-0.000568,-0.000652,0.002382,-0.981525,-0.018485,-0.149497,-0.117974,4.286977,16.804584,14.341086
15214,13.536873,7.927199,16.095750,15.500404,10.909538,2.265299,0.050266,-0.549929,0.529914,0.134715,0.079589,0.161348,0.999993,0.000251,-0.002750,0.002650,-0.981611,-0.019430,-0.146743,-0.120534,4.396827,16.463489,14.637266
15215,11.677184,6.510559,13.792588,13.315834,9.114683,0.607884,0.163128,-0.675067,0.597050,0.116110,0.065340,0.138372,0.999990,0.000816,-0.003375,0.002985,-0.981718,-0.021045,-0.143445,-0.123329,4.577821,16.048681,14.966283
15216,6.408029,5.719175,14.255002,8.635077,7.009574,2.567772,0.547458,-0.763131,0.663747,0.063346,0.057012,0.142949,0.999983,0.002737,-0.003816,0.003319,-0.981782,-0.024659,-0.139924,-0.126160,4.986323,15.576732,15.327265
15217,3.059643,5.072290,13.979033,5.480788,5.459028,3.251006,0.424671,-0.988980,0.660448,0.029737,0.050525,0.140046,0.999980,0.002123,-0.004945,0.003302,-0.981983,-0.027799,-0.135230,-0.129030,5.315494,14.975899,15.670458
15218,1.881040,2.775579,12.357457,4.376078,2.886196,1.869203,0.420135,-1.088060,0.621993,0.018052,0.027553,0.123732,0.999978,0.002101,-0.005440,0.003110,-0.982238,-0.030965,-0.130026,-0.131693,5.631197,14.316461,15.980519
15219,0.477757,2.056342,12.249941,3.097259,1.730691,2.100633,0.553871,-1.154678,0.601532,0.004009,0.020237,0.122580,0.999975,0.002769,-0.005773,0.003008,-0.982480,-0.034805,-0.124599,-0.134155,6.013818,13.620765,16.269863
15220,-0.825523,2.010353,12.845840,1.909899,1.198083,3.019009,0.553332,-1.264821,0.645469,-0.009132,0.019720,0.128457,0.999971,0.002767,-0.006324,0.003227,-0.982709,-0.038754,-0.118597,-0.136803,6.396597,12.855262,16.571834
15221,-0.822214,1.150563,11.780424,1.731180,0.306524,1.921217,0.484264,-1.387638,0.674961,-0.009077,0.011191,0.117771,0.999967,0.002421,-0.006938,0.003375,-0.982942,-0.042451,-0.111950,-0.139609,6.735274,12.018569,16.877272
15222,-2.007555,0.747500,11.435754,0.504726,-0.509275,1.799747,0.518043,-1.395956,0.670567,-0.020897,0.007110,0.114232,0.999967,0.002590,-0.006980,0.003353,-0.983112,-0.046326,-0.105260,-0.142359,7.088096,11.173106,17.173019
15223,-2.558398,0.378240,10.848314,-0.182878,-1.098485,1.283778,0.489560,-1.481851,0.632066,-0.026398,0.003435,0.108298,0.999965,0.002448,-0.007409,0.003160,-0.983290,-0.050086,-0.098148,-0.144908,7.412728,10.282463,17.434653
15224,-3.101334,-0.341971,10.047242,-0.796173,-1.998882,0.485392,0.541901,-1.479084,0.586492,-0.031744,-0.003784,0.100230,0.999965,0.002709,-0.007395,0.002932,-0.983419,-0.054088,-0.091073,-0.147196,7.758842,9.392795,17.663735
15225,-4.955572,0.020205,10.114836,-2.757810,-2.332170,0.855976,0.637879,-1.512862,0.529133,-0.050319,-0.000252,0.100769,0.999963,0.003189,-0.007564,0.002646,-0.983507,-0.058545,-0.083931,-0.149140,8.148898,8.489628,17.851253
15226,-6.455414,-1.048823,9.346959,-4.140947,-3.848176,0.095840,0.519566,-1.599177,0.438263,-0.065275,-0.010873,0.092922,0.999962,0.002598,-0.007996,0.002191,-0.983660,-0.062452,-0.076276,-0.150648,8.459966,7.541454,17.973029
15227,-7.349759,-1.840969,7.310375,-5.222884,-4.764829,-2.011108,0.696789,-1.625461,0.246726,-0.074065,-0.018754,0.072438,0.999960,0.003484,-0.008127,0.001234,-0.983834,-0.067162,-0.068700,-0.151129,8.855185,6.596658,17.977524
15228,-8.131233,-2.498051,6.335166,-6.029752,-5.587224,-3.110905,0.682848,-1.551163,-0.006589,-0.081801,-0.025192,0.062633,0.999964,0.003414,-0.007756,-0.000033,-0.984105,-0.071666,-0.061540,-0.150380,9.227727,5.714430,17.837760
15229,-9.433891,-3.630633,5.420843,-7.168871,-6.982859,-4.208286,0.898306,-1.421505,-0.259517,-0.094767,-0.036425,0.053372,0.999964,0.004491,-0.007107,-0.001298,-0.984377,-0.077038,-0.055285,-0.148358,9.712153,4.932653,17.560757
15230,-11.152940,-3.097753,6.165633,-8.962484,-7.111867,-3.402463,0.888281,-1.338894,-0.525305,-0.112020,-0.030955,0.060770,0.999964,0.004441,-0.006694,-0.002626,-0.984757,-0.082230,-0.049511,-0.145050,10.183258,4.224149,17.134873
15231,-10.783614,-4.163956,4.582324,-8.626291,-7.753388,-5.330355,0.802613,-1.268356,-0.818567,-0.108293,-0.041379,0.044971,0.999963,0.004013,-0.006342,-0.004093,-0.985297,-0.086862,-0.044156,-0.140340,10.598421,3.590982,16.545935
15232,-11.126806,-3.246048,4.616853,-9.315082,-6.930518,-5.246254,0.916203,-1.062792,-1.021550,-0.111675,-0.032100,0.045428,0.999962,0.004581,-0.005314,-0.005108,-0.985811,-0.091865,-0.039965,-0.134683,11.079361,3.098371,15.859872
15233,-12.173561,-2.331230,4.743162,-10.652274,-6.292373,-5.010577,0.820126,-0.967448,-1.057532,-0.122085,-0.022860,0.046747,0.999966,0.004101,-0.004837,-0.005288,-0.986305,-0.096309,-0.036206,-0.128903,11.509524,2.670432,15.161005
15234,-10.766376,-1.906849,3.109177,-9.645958,-5.138433,-6.687256,0.698516,-0.803028,-0.995440,-0.107881,-0.018639,0.030593,0.999973,0.003493,-0.004015,-0.004977,-0.986728,-0.100059,-0.033137,-0.123521,11.877394,2.331202,14.513122
15235,-11.438760,-2.234835,2.764457,-10.313907,-5.467385,-7.127187,0.574866,-0.469241,-0.867573,-0.114548,-0.021931,0.027313,0.999984,0.002874,-0.002346,-0.004338,-0.987037,-0.103004,-0.031583,-0.118953,12.181079,2.168752,13.975233
15236,-12.051333,-2.018756,3.520562,-10.939493,-5.482751,-6.352808,0.412609,-0.218533,-0.695815,-0.120621,-0.019840,0.035033,0.999991,0.002063,-0.001093,-0.003479,-0.987264,-0.105028,-0.031075,-0.115384,12.397885,2.127334,13.563261
15237,-12.012677,-1.902260,3.414366,-10.965378,-5.286728,-6.437527,0.218862,0.029163,-0.457470,-0.120165,-0.018785,0.034141,0.999997,0.001094,0.000146,-0.002287,-0.987405,-0.105984,-0.031558,-0.113152,12.509361,2.197044,13.315445
15238,-12.331919,-1.894155,3.450122,-11.278764,-5.330931,-6.357577,-0.054156,0.394920,-0.181938,-0.123268,-0.018820,0.034750,0.999998,-0.000271,0.001975,-0.000910,-0.987471,-0.105432,-0.033543,-0.112515,12.472132,2.436964,13.267110
15239,-13.186145,-1.206037,4.282518,-12.158620,-5.034764,-5.286418,-0.370840,0.715408,0.074604,-0.131703,-0.012030,0.043319,0.999992,-0.001854,0.003577,0.000373,-0.987496,-0.103174,-0.036800,-0.113367,12.261250,2.825074,13.401498
15240,-10.442229,-0.389962,7.285143,-9.320801,-4.210105,-2.219151,-0.617857,1.003132,0.347382,-0.104048,-0.003854,0.073386,0.999981,-0.003089,0.005016,0.001737,-0.987414,-0.099583,-0.041196,-0.115755,11.920136,3.342303,13.721572
15241,11.111118,3.087668,13.009035,11.537604,3.149065,2.804296,0.139356,1.286940,-0.315436,0.111994,0.030610,0.129393,0.999978,0.000697,0.006435,-0.001577,-0.987240,-0.099424,-0.047760,-0.114852,11.994153,4.098022,13.702216
15242,31.075814,24.473951,51.446843,31.635624,20.693878,42.932820,1.525033,1.887332,-1.798892,0.317767,0.237985,0.513324,0.999886,0.007625,0.009436,-0.008994,-0.986952,-0.105393,-0.058814,-0.106578,12.799857,5.372309,12.929705
15243,-29.188135,0.811316,0.355358,-28.402168,-5.978804,-6.604835,-6.261903,0.095719,1.382899,-0.291927,0.006204,0.003479,0.999486,-0.031304,0.000479,0.006913,-0.988978,-0.074764,-0.055164,-0.115284,9.281274,5.271402,13.725965
15244,1.503591,-9.317396,-5.953045,2.781507,-7.786431,-17.305859,-0.056035,1.234073,1.557601,0.015393,-0.093072,-0.059599,0.999951,-0.000280,0.006170,0.007788,-0.987710,-0.074171,-0.060622,-0.123501,9.342147,5.821767,14.730426
15245,-22.771524,1.328206,16.376724,-19.758641,-6.980148,8.877489,1.314654,1.350279,2.194771,-0.226722,0.009707,0.165372,0.999895,0.006573,0.006751,0.010973,-0.985353,-0.080452,-0.067256,-0.134476,10.237741,6.367445,16.113820
15246,10.345370,-1.655838,15.673472,12.713226,-0.683037,4.091065,-2.268884,0.701381,1.022769,0.104080,-0.014251,0.156541,0.999916,-0.011344,0.003507,0.005114,-0.985257,-0.069108,-0.068744,-0.140594,9.007665,6.662996,16.767702
15247,7.286115,-3.163275,7.713486,9.003805,-1.771733,-3.617325,0.281695,0.813462,1.199366,0.073362,-0.031302,0.076793,0.999973,0.001408,0.004067,0.005997,-0.984008,-0.070301,-0.072507,-0.146729,9.255298,7.011265,17.530444
15248,2.230413,1.324934,8.033353,3.074591,1.031043,-2.018603,-0.673828,1.088315,1.082308,0.022668,0.013642,0.080165,0.999965,-0.003369,0.005442,0.005411,-0.983018,-0.066545,-0.076956,-0.152722,8.956078,7.525836,18.252043
15249,-5.132382,-5.448926,6.549220,-2.061827,-7.445213,-3.548462,0.077392,1.281522,0.618163,-0.050734,-0.054672,0.065797,0.999975,0.000387,0.006408,0.003091,-0.982000,-0.066150,-0.083080,-0.156200,9.060679,8.192742,18.726157
15250,-3.530500,-2.749477,11.369209,-0.347747,-4.873213,1.386084,-0.043305,1.093811,-0.154617,-0.034704,-0.027443,0.113889,0.999985,-0.000217,0.005469,-0.000773,-0.981663,-0.064986,-0.088439,-0.155866,9.033696,8.822608,18.742262
15251,-0.514100,-2.691002,10.565659,2.395299,-3.735789,0.159513,-0.154721,0.953409,-0.780744,-0.004742,-0.026809,0.105701,0.999981,-0.000774,0.004767,-0.003904,-0.981878,-0.063105,-0.093223,-0.152456,8.883940,9.429032,18.385826
15252,-1.381548,-0.391864,9.388982,0.757895,-1.679929,-0.495067,0.036871,0.932192,-0.981376,-0.013397,-0.003870,0.093952,0.999977,0.000184,0.004661,-0.004907,-0.982155,-0.062083,-0.098107,-0.147960,8.819981,10.040363,17.910514
15253,-4.314767,1.676167,10.686530,-2.197793,-0.685150,1.603427,0.170448,0.941329,-0.874910,-0.042570,0.016858,0.107081,0.999979,0.000852,0.004707,-0.004375,-0.982265,-0.061761,-0.103100,-0.143917,8.838658,10.647433,17.496109
15254,-3.870300,2.775792,11.000910,-1.901411,0.506778,2.012330,0.125796,0.803474,-0.628759,-0.038173,0.027809,0.110181,0.999987,0.000629,0.004017,-0.003144,-0.982249,-0.061443,-0.107302,-0.141059,8.852016,11.154801,17.210720
15255,-2.751914,2.381598,10.202146,-0.837036,0.557550,0.972334,0.131386,0.745861,-0.400504,-0.027091,0.023803,0.102139,0.999991,0.000657,0.003729,-0.002003,-0.982080,-0.061315,-0.111154,-0.139298,8.891330,11.609595,17.051659
15256,-2.533503,2.545144,10.420384,-0.541171,0.778947,1.168233,0.056574,0.704776,-0.305722,-0.024929,0.025460,0.104299,0.999993,0.000283,0.003524,-0.001529,-0.981875,-0.060898,-0.114721,-0.138030,8.896909,12.032753,16.943667
15257,-3.511684,2.404119,9.738957,-1.511256,0.450311,0.697873,0.025213,0.643745,-0.301411,-0.034767,0.024081,0.097505,0.999994,0.000126,0.003219,-0.001507,-0.981698,-0.060373,-0.117964,-0.136779,8.883219,12.421018,16.832409
15258,-3.194488,3.475487,9.802717,-1.405821,1.586204,0.858968,-0.047338,0.587483,-0.273131,-0.031609,0.034821,0.098112,0.999995,-0.000237,0.002937,-0.001366,-0.981546,-0.059546,-0.120871,-0.135692,8.829540,12.774856,16.732107
15259,-3.044323,3.886627,9.843809,-1.299761,2.049454,0.929024,-0.112249,0.548634,-0.185182,-0.030137,0.038950,0.098499,0.999996,-0.000561,0.002743,-0.000926,-0.981367,-0.058479,-0.123516,-0.135063,8.748722,13.098898,16.678822
15260,-3.031995,4.028065,9.825915,-1.280281,2.228022,0.928048,-0.277345,0.480301,-0.124020,-0.030059,0.040436,0.098276,0.999996,-0.001387,0.002402,-0.000620,-0.981230,-0.056686,-0.125696,-0.134814,8.579595,13.378851,16.654283
15261,-2.672816,3.056656,9.090155,-0.859047,1.500387,-0.008166,-0.372657,0.464268,-0.046708,-0.026510,0.030742,0.090906,0.999996,-0.001863,0.002321,-0.000234,-0.981069,-0.054484,-0.127710,-0.135000,8.365741,13.643101,16.672415
15262,-2.789895,2.655122,9.743490,-0.662375,1.082972,0.587166,-0.392520,0.465322,0.038649,-0.027677,0.026737,0.097447,0.999995,-0.001963,0.002327,0.000193,-0.980847,-0.052238,-0.129691,-0.135615,8.152283,13.901012,16.739461
15263,-2.986151,2.030108,10.216275,-0.530941,0.448205,1.000621,-0.447408,0.408532,0.078694,-0.029661,0.020518,0.102178,0.999995,-0.002237,0.002043,0.000393,-0.980639,-0.049787,-0.131345,-0.136446,7.911897,14.123729,16.824265
15264,-2.670397,0.498258,9.678537,0.031023,-0.846408,0.204086,-0.449250,0.364261,0.109197,-0.026530,0.005186,0.096822,0.999996,-0.002246,0.001821,0.000546,-0.980430,-0.047377,-0.132772,-0.137416,7.674138,14.319324,16.922483
15265,-2.619628,-0.826841,9.776180,0.471176,-2.063539,0.119050,-0.322672,0.360772,0.095475,-0.026016,-0.008123,0.097822,0.999997,-0.001613,0.001804,0.000477,-0.980197,-0.045580,-0.134270,-0.138233,7.506918,14.514274,17.011773
15266,-2.247105,-1.372775,10.092194,1.071903,-2.461781,0.265848,-0.242716,0.326520,-0.035611,-0.022309,-0.013601,0.100975,0.999998,-0.001214,0.001633,-0.000178,-0.980053,-0.044111,-0.135686,-0.138345,7.365637,14.699760,17.021003
15267,-2.614614,-1.930533,9.906187,0.848427,-3.061919,0.117089,-0.126670,0.298312,-0.221465,-0.026020,-0.019214,0.099113,0.999998,-0.000633,0.001492,-0.001107,-0.980028,-0.043103,-0.137084,-0.137461,7.262310,14.882747,16.918470
15268,-3.602875,-1.435273,10.146149,-0.107046,-2.856789,0.666449,0.034724,0.228298,-0.369007,-0.035939,-0.014304,0.101500,0.999998,0.000174,0.001141,-0.001845,-0.980113,-0.042832,-0.138281,-0.135728,7.227252,15.036521,16.723608
15269,-3.598543,-0.804024,10.393619,-0.180944,-2.251366,0.981843,0.140854,0.134526,-0.483811,-0.035935,-0.008026,0.103955,0.999997,0.000704,0.000673,-0.002419,-0.980313,-0.043066,-0.139114,-0.133337,7.233183,15.145185,16.453978
15270,-3.147130,-0.197919,9.826908,-0.067667,-1.517685,0.395337,0.233306,0.062651,-0.557780,-0.031446,-0.002006,0.098277,0.999995,0.001167,0.000313,-0.002789,-0.980585,-0.043748,-0.139672,-0.130504,7.278675,15.218537,16.135371
15271,-3.552176,0.264520,9.758243,-0.569833,-1.182533,0.492075,0.287005,0.022363,-0.586867,-0.035503,0.002609,0.097590,0.999995,0.001435,0.000112,-0.002934,-0.980883,-0.044700,-0.140072,-0.127481,7.349446,15.271357,15.796527
15272,-3.331122,0.385286,9.587622,-0.436821,-1.007681,0.284890,0.342261,0.004981,-0.602796,-0.033297,0.003789,0.095884,0.999994,0.001711,0.000025,-0.003014,-0.981179,-0.045921,-0.140424,-0.124335,7.448568,15.316052,15.447023
15273,-3.786586,0.460456,10.006632,-0.754752,-1.089223,0.814017,0.399241,-0.064866,-0.615833,-0.037884,0.004521,0.100063,0.999993,0.001996,-0.000324,-0.003079,-0.981508,-0.047456,-0.140470,-0.121068,7.576943,15.322626,15.084416
15274,-2.850555,0.553105,10.158135,0.137526,-0.795508,0.721423,0.437030,-0.128065,-0.646152,-0.028553,0.005401,0.101575,0.999992,0.002185,-0.000640,-0.003231,-0.981877,-0.049192,-0.140235,-0.117609,7.720770,15.296572,14.699051
15275,-2.173174,0.127534,9.354776,0.625913,-1.019058,-0.282711,0.464762,-0.145666,-0.670196,-0.021796,0.001131,0.093535,0.999991,0.002324,-0.000728,-0.003351,-0.982250,-0.051058,-0.139932,-0.114006,7.876807,15.263251,14.298049
15276,-2.128549,0.712868,9.444655,0.567920,-0.479726,-0.133450,0.519473,-0.114603,-0.701487,-0.021315,0.006958,0.094453,0.999990,0.002597,-0.000573,-0.003507,-0.982587,-0.053150,-0.139819,-0.110218,8.059889,15.251295,13.881205
15277,-2.393125,1.266740,8.948200,0.071224,-0.000521,-0.464062,0.564869,-0.084943,-0.689917,-0.023926,0.012497,0.089507,0.999990,0.002824,-0.000425,-0.003450,-0.982867,-0.055458,-0.139871,-0.106460,8.271714,15.256497,13.473569
15278,-2.724237,2.902261,9.128489,-0.489071,1.469538,0.024744,0.524932,-0.055205,-0.663656,-0.027172,0.028873,0.091353,0.999991,0.002625,-0.000276,-0.003318,-0.983104,-0.057569,-0.140038,-0.102866,8.465021,15.277853,13.083994
15279,-2.418491,3.274223,8.729894,-0.361911,1.908136,-0.378249,0.435818,-0.007432,-0.580419,-0.024093,0.032622,0.087369,0.999993,0.002179,-0.000037,-0.002902,-0.983276,-0.059278,-0.140368,-0.099754,8.621360,15.320243,12.747474
15280,-2.983087,3.747134,9.335547,-0.778280,2.173302,0.422702,0.409549,0.027119,-0.420564,-0.029740,0.037343,0.093436,0.999996,0.002048,0.000136,-0.002103,-0.983342,-0.060949,-0.140806,-0.097457,8.787846,15.369348,12.508043
15281,-3.593592,3.502402,9.622853,-1.206756,1.762356,0.827699,0.280793,0.014520,-0.275400,-0.035881,0.034938,0.096280,0.999998,0.001404,0.000073,-0.001377,-0.983379,-0.062098,-0.141073,-0.095959,8.902952,15.399004,12.352730
15282,-3.226034,2.622697,9.169852,-0.830415,1.011598,0.170252,0.192171,-0.014432,-0.182312,-0.032243,0.026168,0.091721,0.999999,0.000961,-0.000072,-0.000912,-0.983417,-0.062888,-0.141128,-0.094973,8.980906,15.404347,12.249463
15283,-2.344157,1.406019,8.530860,0.026640,0.061365,-0.854839,0.111289,0.024942,-0.181810,-0.023418,0.014034,0.085319,0.999999,0.000556,0.000125,-0.000909,-0.983450,-0.063264,-0.141336,-0.094058,9.013683,15.431913,12.150116
15284,-1.200992,0.241607,8.253404,1.226341,-0.818545,-1.600167,0.130103,0.119816,-0.260425,-0.011957,0.002378,0.082543,0.999999,0.000651,0.000599,-0.001302,-0.983447,-0.063631,-0.142045,-0.092773,9.047064,15.520408,12.013477
15285,-1.520610,-0.637302,9.167906,1.351381,-1.837260,-0.781236,0.217509,0.223254,-0.359790,-0.015115,-0.006445,0.091689,0.999997,0.001088,0.001116,-0.001799,-0.983384,-0.064310,-0.143334,-0.090970,9.117283,15.676412,11.828161
15286,-2.139003,-0.414376,10.004670,1.000262,-1.835640,0.210800,0.246145,0.239305,-0.493805,-0.021281,-0.004214,0.100067,0.999995,0.001231,0.001197,-0.002469,-0.983355,-0.065025,-0.144757,-0.088492,9.182233,15.854001,11.565670
15287,-4.220314,-0.669233,11.596877,-0.427128,-2.657764,2.249663,0.292567,0.199732,-0.496646,-0.042104,-0.006757,0.116001,0.999995,0.001463,0.000999,-0.002483,-0.983331,-0.065984,-0.146006,-0.085953,9.271737,16.009726,11.297723
15288,-4.108862,2.297120,10.404303,-1.104537,0.376105,1.547222,0.289944,-0.001152,-0.482719,-0.041034,0.022919,0.104076,0.999996,0.001450,-0.000006,-0.002414,-0.983442,-0.067024,-0.146260,-0.083418,9.355976,16.051057,11.018753
15289,-0.865377,5.258435,7.982948,0.824759,4.134638,-1.189935,-0.163093,0.005630,-0.701132,-0.008467,0.052679,0.079787,0.999994,-0.000815,0.000028,-0.003506,-0.983780,-0.065676,-0.146430,-0.080141,9.145191,16.115957,10.611714
15290,1.206537,8.017619,7.587905,2.327399,7.270956,-1.748565,-0.298095,0.169773,-0.812955,0.012456,0.080239,0.075749,0.999990,-0.001490,0.000849,-0.004065,-0.984071,-0.063513,-0.147388,-0.076466,8.841821,16.282083,10.153585
15291,-0.776550,9.680800,8.790670,0.655001,8.503943,0.129603,-0.757194,0.329576,-0.670053,-0.007296,0.097165,0.087552,0.999986,-0.003786,0.001648,-0.003350,-0.984313,-0.059135,-0.148907,-0.073880,8.301385,16.523223,9.792305
15292,-1.823771,8.624752,8.348513,-0.293730,7.444222,-0.225950,-1.135840,0.410247,-0.381475,-0.017902,0.086754,0.083030,0.999980,-0.005679,0.002051,-0.001907,-0.984466,-0.053078,-0.150593,-0.073018,7.592556,16.783460,9.605412
15293,-0.017231,5.752978,8.669897,1.894013,5.005378,-0.889616,-1.331942,0.550360,-0.151907,0.000110,0.058105,0.086313,0.999974,-0.006660,0.002752,-0.000760,-0.984436,-0.046174,-0.152829,-0.073468,6.812085,17.104528,9.561666
15294,1.191754,3.760564,10.464807,3.867975,3.252269,0.163961,-1.321484,0.679676,-0.018081,0.012276,0.038295,0.104355,0.999972,-0.006607,0.003398,-0.000090,-0.984202,-0.039377,-0.155666,-0.074593,6.062613,17.489946,9.601800
15295,1.104232,2.400130,12.093636,4.517743,1.965658,1.543351,-1.216790,0.730715,0.004963,0.011483,0.024737,0.120746,0.999975,-0.006084,0.003654,0.000025,-0.983847,-0.033089,-0.158780,-0.075757,5.376690,17.903688,9.653853
15296,0.478659,2.402604,13.191116,4.330969,1.980565,2.730235,-1.053102,0.664748,-0.048650,0.005231,0.024719,0.131765,0.999981,-0.005265,0.003324,-0.000243,-0.983494,-0.027590,-0.161633,-0.076513,4.772700,18.282780,9.665363
15297,2.233345,1.197549,15.624053,6.978755,1.150352,4.347274,-0.892589,0.506468,-0.131837,0.022737,0.012658,0.156128,0.999987,-0.004463,0.002532,-0.000659,-0.983245,-0.022870,-0.163776,-0.076706,4.240910,18.575552,9.615388
15298,8.881776,4.144453,15.013836,12.602221,5.199393,1.833256,-0.178320,0.033663,-0.340456,0.088914,0.041427,0.150086,0.999998,-0.000892,0.000168,-0.001702,-0.983368,-0.021675,-0.163886,-0.075232,4.071314,18.606053,9.416942
15299,12.527154,9.149498,15.707485,15.576755,10.661403,1.635723,-0.015231,0.066641,-0.697297,0.125642,0.091069,0.157026,0.999994,-0.000076,0.000333,-0.003486,-0.983571,-0.020973,-0.164261,-0.071874,3.926214,18.669599,9.004539
15300,11.306654,9.999127,15.107346,14.193940,11.245787,1.506233,0.232562,-0.171585,-0.644541,0.113258,0.099451,0.151286,0.999994,0.001163,-0.000858,-0.003223,-0.983915,-0.021624,-0.163538,-0.068546,3.930738,18.593440,8.613985
15301,12.274666,13.486113,15.092106,14.692906,14.738801,1.465572,0.393220,-0.343995,-0.245130,0.122651,0.134413,0.151397,0.999996,0.001966,-0.001720,-0.001226,-0.984235,-0.023446,-0.161985,-0.067032,4.101679,18.404261,8.457079
15302,10.920994,12.141367,13.492640,13.047605,13.216633,0.376120,0.091869,-0.415726,0.318930,0.108735,0.121525,0.135209,0.999996,0.000459,-0.002079,0.001595,-0.984453,-0.024274,-0.159898,-0.068528,4.206926,18.149490,8.636148
15303,8.615037,10.320427,13.365346,10.964544,11.113965,0.939919,0.112474,-0.460266,0.907462,0.085373,0.103518,0.133909,0.999987,0.000562,-0.002301,0.004537,-0.984484,-0.025680,-0.157537,-0.072899,4.430432,17.844936,9.165760
15304,6.222562,8.110571,12.924394,8.718341,8.618800,1.198430,0.165137,-0.572877,1.463430,0.061260,0.081449,0.129487,0.999969,0.000826,-0.002864,0.007317,-0.984352,-0.027836,-0.154546,-0.079946,4.780902,17.445918,10.020351
15305,5.296298,6.041833,12.562577,7.861738,6.483833,1.074086,0.108730,-0.605820,1.981172,0.051981,0.060868,0.125817,0.999946,0.000544,-0.003029,0.009906,-0.983960,-0.030112,-0.151302,-0.089575,5.181410,16.999050,11.178029
15306,2.620591,3.965840,13.056507,5.667597,3.967632,2.237252,0.091575,-0.654298,2.383402,0.025304,0.039904,0.130667,0.999924,0.000458,-0.003271,0.011917,-0.983300,-0.032640,-0.147711,-0.101174,5.630719,16.492184,12.565938
15307,2.703904,2.957129,13.446223,5.874764,3.005476,2.569055,0.012485,-0.826062,2.564918,0.026101,0.029902,0.134573,0.999909,0.000062,-0.004130,0.012824,-0.982520,-0.034980,-0.143201,-0.113682,6.045024,15.869258,14.043315
15308,2.472549,1.491123,13.646655,5.851253,1.552453,2.753847,-0.175333,-0.977275,2.504361,0.023868,0.015333,0.136571,0.999909,-0.000877,-0.004886,0.012521,-0.981739,-0.036449,-0.137804,-0.125976,6.321942,15.152663,15.466110
15309,1.952747,-0.025200,13.016498,5.390504,0.002826,2.194950,-0.048361,-1.169173,2.295546,0.018767,-0.000002,0.130276,0.999917,-0.000242,-0.005846,0.011477,-0.981024,-0.038496,-0.131581,-0.137104,6.615068,14.336209,16.744615
15310,1.388506,0.175009,12.699642,4.573232,0.041769,2.117135,0.005377,-1.343695,2.000671,0.013013,0.001880,0.127086,0.999927,0.000027,-0.006718,0.010003,-0.980464,-0.040741,-0.124550,-0.146692,6.875042,13.431379,17.828889
15311,0.754720,-1.218419,11.219595,3.847708,-1.444230,0.724921,0.099000,-1.422084,1.648274,0.006850,-0.012181,0.112240,0.999941,0.000495,-0.007110,0.008241,-0.980059,-0.043262,-0.117283,-0.154462,7.121344,12.504903,18.694006
15312,-0.365786,-0.393191,11.529991,2.508823,-1.096887,1.400214,0.371556,-1.511510,1.245171,-0.004504,-0.004172,0.115260,0.999950,0.001858,-0.007557,0.006226,-0.979853,-0.046961,-0.109837,-0.160057,7.459099,11.549511,19.309885
15313,-0.860763,-0.255959,11.145705,1.770111,-1.204521,1.162107,0.340724,-1.636503,0.789580,-0.009509,-0.002786,0.111377,0.999957,0.001704,-0.008182,0.003948,-0.979994,-0.050340,-0.101876,-0.163396,7.714140,10.557619,19.645704
15314,-1.749248,-0.512083,10.275837,0.685162,-1.789371,0.446001,0.539108,-1.712780,0.387938,-0.018361,-0.005433,0.102589,0.999958,0.002696,-0.008564,0.001940,-0.980371,-0.054558,-0.093769,-0.164631,8.035439,9.549137,19.737382
15315,-3.357084,0.293942,10.310739,-1.204872,-1.688291,0.834486,0.677723,-1.743503,0.087234,-0.034469,0.002576,0.102819,0.999956,0.003389,-0.008717,0.000436,-0.980885,-0.059322,-0.085726,-0.164306,8.405096,8.550524,19.647827
15316,-5.089588,0.059238,9.908431,-2.980192,-2.566616,0.609007,0.736327,-1.787645,-0.156488,-0.051778,0.000269,0.098626,0.999953,0.003682,-0.008938,-0.000782,-0.981513,-0.064312,-0.077554,-0.162730,8.789778,7.545237,19.408207
15317,-5.537276,0.218799,8.905869,-3.776496,-2.566461,-0.369595,0.911099,-1.794051,-0.412286,-0.056165,0.001899,0.088566,0.999947,0.004555,-0.008970,-0.002061,-0.982196,-0.070047,-0.069592,-0.159815,9.259018,6.564250,19.015589
15318,-6.540924,0.049890,9.068640,-4.793119,-3.154110,-0.215775,0.962649,-1.741414,-0.719097,-0.066194,0.000301,0.090114,0.999944,0.004813,-0.008707,-0.003595,-0.982982,-0.075890,-0.062006,-0.155375,9.746316,5.642330,18.445746
15319,-7.277298,-0.546166,8.774203,-5.513654,-3.971097,-0.643700,1.131501,-1.756803,-1.061816,-0.073569,-0.005566,0.087067,0.999931,0.005657,-0.008784,-0.005309,-0.983852,-0.082448,-0.054622,-0.149175,10.320049,4.754198,17.672973
15320,-7.374551,0.066851,8.965190,-5.921517,-3.491726,-0.458382,1.189209,-1.789071,-1.409370,-0.074539,0.000661,0.088991,0.999917,0.005946,-0.008945,-0.007047,-0.984819,-0.089218,-0.047235,-0.141212,10.923822,3.889808,16.691993
15321,-8.834207,0.032126,8.050249,-7.582521,-3.802835,-1.393036,1.428101,-1.834323,-1.605052,-0.089072,0.000463,0.079691,0.999900,0.007140,-0.009171,-0.008025,-0.985648,-0.097122,-0.039895,-0.132185,11.670785,3.036279,15.587062
15322,-10.239264,1.396385,6.910814,-9.546915,-2.644610,-2.301979,1.514390,-1.820797,-1.640370,-0.102900,0.014287,0.068280,0.999896,0.007572,-0.009104,-0.008202,-0.986257,-0.105427,-0.032668,-0.122945,12.482963,2.207213,14.452908
15323,-11.866714,1.568259,5.454887,-11.410254,-2.510249,-3.768248,1.527113,-1.667239,-1.487757,-0.118998,0.016155,0.053680,0.999908,0.007635,-0.008336,-0.007439,-0.986548,-0.113694,-0.026139,-0.114514,13.320089,1.463211,13.412879
15324,-13.333722,1.486494,4.099694,-13.011316,-2.518089,-5.211936,1.370625,-1.411154,-1.146619,-0.133535,0.015353,0.040159,0.999935,0.006853,-0.007056,-0.005733,-0.986545,-0.121080,-0.020569,-0.107912,14.085317,0.828062,12.587158
15325,-14.647722,1.057733,3.227013,-14.321149,-2.909335,-6.273360,1.202300,-1.013012,-0.604842,-0.146606,0.010829,0.031592,0.999965,0.006011,-0.005065,-0.003024,-0.986213,-0.127454,-0.016559,-0.104232,14.764734,0.348981,12.111516
