PacketCounter,Acc_X,Acc_Y,Acc_Z,FreeAcc_E,FreeAcc_N,FreeAcc_U,Gyr_X,Gyr_Y,Gyr_Z,VelInc_X,VelInc_Y,VelInc_Z,OriInc_q0,OriInc_q1,OriInc_q2,OriInc_q3,Quat_q0,Quat_q1,Quat_q2,Quat_q3,Roll,Pitch,Yaw
09727,-9.241924,3.045590,-0.039333,0.052660,-0.007952,-0.081938,0.008206,0.006708,-0.008788,-0.092418,0.030460,-0.000389,1.000000,0.000041,0.000034,-0.000044,0.517865,0.617950,0.346300,-0.479614,90.664666,72.069122,-12.905151
09728,-9.228946,3.059327,-0.025305,0.065499,-0.025835,-0.090105,0.007604,0.004685,-0.003016,-0.092289,0.030595,-0.000250,1.000000,0.000038,0.000023,-0.000015,0.517858,0.617982,0.346262,-0.479607,90.669794,72.065113,-12.904230
09729,-9.245884,3.045859,0.001453,0.041361,-0.047731,-0.078231,0.004137,0.003498,-0.009880,-0.092457,0.030463,0.000017,1.000000,0.000021,0.000017,-0.000049,0.517847,0.617990,0.346251,-0.479618,90.670330,72.065249,-12.906134
09730,-9.272353,3.034016,-0.086159,0.042664,0.041543,-0.056373,0.009365,0.009834,-0.005517,-0.092723,0.030343,-0.000856,1.000000,0.000047,0.000049,-0.000028,0.517819,0.618035,0.346229,-0.479604,90.685625,72.062635,-12.895588
09731,-9.286717,3.074160,-0.033128,0.062432,-0.018468,-0.030539,0.007473,0.006299,-0.003578,-0.092867,0.030743,-0.000327,1.000000,0.000037,0.000031,-0.000018,0.517808,0.618069,0.346197,-0.479596,90.692895,72.059141,-12.892422
09732,-9.250022,3.062853,-0.016241,0.058752,-0.035208,-0.068995,0.004632,0.006501,-0.012371,-0.092498,0.030634,-0.000159,1.000000,0.000023,0.000033,-0.000062,0.517784,0.618083,0.346200,-0.479603,90.699725,72.060475,-12.887923
09733,-9.246803,3.060268,-0.059191,0.067568,0.006429,-0.072692,0.002214,0.009419,-0.012683,-0.092466,0.030609,-0.000587,1.000000,0.000011,0.000047,-0.000063,0.517762,0.618095,0.346217,-0.479599,90.709698,72.062175,-12.878750
09734,-9.230532,3.054492,-0.030285,0.060488,-0.022147,-0.090064,0.004370,0.009729,-0.013497,-0.092303,0.030551,-0.000298,1.000000,0.000022,0.000049,-0.000067,0.517731,0.618113,0.346232,-0.479598,90.722115,72.064128,-12.868220
09735,-9.230883,3.053422,-0.031288,0.059674,-0.021520,-0.090057,0.004390,0.009096,-0.009652,-0.092307,0.030539,-0.000308,1.000000,0.000022,0.000045,-0.000048,0.517710,0.618135,0.346234,-0.479591,90.732699,72.064092,-12.859715
09736,-9.237203,3.017836,-0.074353,0.034834,0.027891,-0.094828,0.009839,0.013476,-0.011854,-0.092370,0.030184,-0.000736,1.000000,0.000049,0.000067,-0.000059,0.517659,0.618180,0.346240,-0.479584,90.754846,72.065072,-12.842253
09737,-9.220894,3.012183,-0.045878,0.027802,-0.000664,-0.112200,0.008571,0.011331,-0.011843,-0.092207,0.030127,-0.000452,1.000000,0.000043,0.000057,-0.000059,0.517616,0.618214,0.346244,-0.479583,90.771833,72.066274,-12.829535
09738,-9.267790,2.988430,-0.064636,-0.003869,0.025100,-0.074814,0.014415,0.010872,-0.012357,-0.092676,0.029890,-0.000639,1.000000,0.000072,0.000054,-0.000062,0.517554,0.618263,0.346235,-0.479593,90.792009,72.067558,-12.816899
09739,-9.268119,2.987376,-0.066146,-0.004683,0.025729,-0.074816,0.012772,0.012933,-0.010190,-0.092680,0.029879,-0.000654,1.000000,0.000064,0.000065,-0.000051,0.517499,0.618315,0.346228,-0.479590,90.814203,72.067796,-12.801239
09740,-9.268431,2.986373,-0.067635,-0.005541,0.026334,-0.074818,0.009973,0.011866,-0.011294,-0.092683,0.029869,-0.000669,1.000000,0.000050,0.000059,-0.000056,0.517453,0.618357,0.346228,-0.479587,90.833573,72.068461,-12.786775
09741,-9.248486,2.979298,-0.081387,-0.002931,0.038782,-0.095907,0.019373,0.012255,-0.012068,-0.092483,0.029799,-0.000805,1.000000,0.000097,0.000061,-0.000060,0.517374,0.618421,0.346209,-0.479602,90.858398,72.069778,-12.772324
09742,-9.242865,3.012883,-0.041241,0.020191,-0.009423,-0.091102,0.018749,0.010866,-0.010140,-0.092427,0.030134,-0.000405,1.000000,0.000094,0.000054,-0.000051,0.517304,0.618485,0.346183,-0.479614,90.881000,72.069788,-12.759749
09743,-9.259815,3.016428,-0.072559,0.025590,0.020394,-0.073734,0.016082,0.008185,-0.010680,-0.092597,0.030169,-0.000719,1.000000,0.000080,0.000041,-0.000053,0.517246,0.618534,0.346157,-0.479633,90.896702,72.070343,-12.752906
09744,-9.276873,3.002633,-0.046616,0.001390,-0.001509,-0.061875,0.010618,0.012627,-0.009381,-0.092767,0.030031,-0.000459,1.000000,0.000053,0.000063,-0.000047,0.517200,0.618582,0.346152,-0.479623,90.917742,72.069899,-12.737077
09745,-9.260364,3.014680,-0.075058,0.023919,0.021628,-0.073733,0.006057,0.006407,-0.007979,-0.092602,0.030151,-0.000747,1.000000,0.000030,0.000032,-0.000040,0.517182,0.618605,0.346137,-0.479623,90.924474,72.068921,-12.733623
09746,-9.293993,3.005593,-0.078709,0.005926,0.028918,-0.044513,0.006305,0.012005,-0.007755,-0.092939,0.030060,-0.000781,1.000000,0.000032,0.000060,-0.000039,0.517155,0.618644,0.346136,-0.479604,90.941894,72.067550,-12.719002
09747,-9.260829,3.013202,-0.076997,0.022248,0.022862,-0.073732,0.001102,0.005026,-0.008269,-0.092607,0.030136,-0.000767,1.000000,0.000006,0.000025,-0.000041,0.517154,0.618650,0.346130,-0.479600,90.943351,72.066751,-12.718110
09748,-9.264567,3.031385,-0.092596,0.041302,0.034160,-0.064498,0.001877,0.004171,-0.005788,-0.092645,0.030317,-0.000924,1.000000,0.000009,0.000021,-0.000029,0.517159,0.618662,0.346113,-0.479592,90.944308,72.064327,-12.718124
09749,-9.254046,2.991582,-0.104912,0.010312,0.054404,-0.086698,0.001103,0.005027,-0.008270,-0.092539,0.029920,-0.001047,1.000000,0.000006,0.000025,-0.000041,0.517158,0.618669,0.346108,-0.479589,90.945766,72.063528,-12.717231
09750,-9.244703,3.024055,-0.105505,0.043071,0.047202,-0.085586,-0.002190,0.000953,-0.006880,-0.092446,0.030244,-0.001055,1.000000,-0.000011,0.000005,-0.000034,0.517179,0.618660,0.346096,-0.479586,90.938737,72.061760,-12.723191
09751,-9.248594,3.024863,-0.063473,0.032612,0.006828,-0.081849,-0.000033,0.001266,-0.007693,-0.092485,0.030252,-0.000634,1.000000,-0.000000,0.000006,-0.000038,0.517189,0.618656,0.346081,-0.479591,90.932871,72.060666,-12.729312
09752,-9.245154,3.022672,-0.105690,0.041403,0.048433,-0.085585,-0.000033,0.001266,-0.007693,-0.092450,0.030230,-0.001056,1.000000,-0.000000,0.000006,-0.000038,0.517200,0.618652,0.346067,-0.479594,90.927659,72.059359,-12.734660
09753,-9.239500,3.056615,-0.064037,0.064556,0.000254,-0.080720,-0.000033,0.001266,-0.007693,-0.092394,0.030570,-0.000640,1.000000,-0.000000,0.000006,-0.000038,0.517211,0.618648,0.346053,-0.479599,90.921795,72.058265,-12.740779
09754,-9.252809,3.041612,-0.078922,0.049993,0.019360,-0.072603,0.001498,0.000188,-0.006577,-0.092527,0.030419,-0.000789,1.000000,0.000007,0.000001,-0.000033,0.517222,0.618648,0.346029,-0.479604,90.915527,72.056327,-12.748160
09755,-9.239961,3.055221,-0.064077,0.062886,0.001485,-0.080709,-0.004230,-0.000339,-0.009350,-0.092398,0.030557,-0.000642,1.000000,-0.000021,-0.000002,-0.000047,0.517244,0.618626,0.346026,-0.479611,90.904467,72.056196,-12.757212
09756,-9.256863,3.058886,-0.093908,0.068226,0.031290,-0.063356,0.000857,-0.000570,-0.008494,-0.092567,0.030593,-0.000939,1.000000,0.000004,-0.000003,-0.000042,0.517254,0.618619,0.346007,-0.479623,90.896548,72.055360,-12.765941
09757,-9.233321,3.033175,-0.090933,0.050962,0.033020,-0.093688,0.002372,-0.001014,-0.011225,-0.092332,0.030337,-0.000909,1.000000,0.000012,-0.000005,-0.000056,0.517253,0.618609,0.345992,-0.479648,90.888129,72.056308,-12.776194
09758,-9.240861,3.052495,-0.064154,0.060357,0.003320,-0.080694,0.000461,0.004271,-0.010188,-0.092407,0.030530,-0.000639,1.000000,0.000002,0.000021,-0.000051,0.517251,0.618610,0.345993,-0.479648,90.888599,72.056398,-12.775866
09759,-9.234101,3.013829,-0.034184,0.019737,-0.017446,-0.099178,0.005928,-0.000165,-0.011486,-0.092339,0.030144,-0.000341,1.000000,0.000030,-0.000001,-0.000057,0.517237,0.618611,0.345972,-0.479678,90.883726,72.057488,-12.784533
09760,-9.258249,3.037706,-0.037464,0.035323,-0.017939,-0.068834,0.007079,0.002964,-0.008216,-0.092581,0.030381,-0.000372,1.000000,0.000035,0.000015,-0.000041,0.517222,0.618629,0.345947,-0.479688,90.885621,72.056458,-12.786694
09761,-9.221587,3.026434,-0.020414,0.031778,-0.034724,-0.107267,0.012660,0.005740,-0.009855,-0.092214,0.030269,-0.000200,1.000000,0.000063,0.000029,-0.000049,0.517180,0.618664,0.345920,-0.479707,90.895008,72.056562,-12.784427
09762,-9.255299,3.017035,-0.024016,0.013747,-0.027403,-0.078074,0.019263,0.005068,-0.011731,-0.092551,0.030176,-0.000235,1.000000,0.000096,0.000025,-0.000059,0.517115,0.618713,0.345882,-0.479741,90.907697,72.057525,-12.782579
09763,-9.225838,3.043107,-0.037590,0.050012,-0.022795,-0.098009,0.014044,0.006911,-0.013152,-0.092256,0.030437,-0.000371,1.000000,0.000070,0.000035,-0.000066,0.517059,0.618749,0.345866,-0.479767,90.920041,72.059506,-12.778037
09764,-9.259565,3.033643,-0.041342,0.031975,-0.015469,-0.068819,0.017616,0.007129,-0.009566,-0.092594,0.030341,-0.000407,1.000000,0.000088,0.000036,-0.000048,0.517001,0.618802,0.345830,-0.479787,90.935368,72.059210,-12.772425
09765,-9.246794,3.047081,-0.027681,0.044873,-0.033349,-0.076901,0.012529,0.007357,-0.010423,-0.092466,0.030476,-0.000271,1.000000,0.000063,0.000037,-0.000052,0.516956,0.618839,0.345810,-0.479802,90.947558,72.059623,-12.767133
09766,-9.243451,3.044499,-0.070656,0.053674,0.008252,-0.080657,0.006934,0.005212,-0.012631,-0.092433,0.030451,-0.000703,1.000000,0.000035,0.000026,-0.000063,0.516927,0.618855,0.345805,-0.479817,90.953458,72.061098,-12.764996
09767,-9.234420,3.059342,-0.014584,0.056913,-0.050627,-0.084970,0.000706,0.009869,-0.009970,-0.092343,0.030598,-0.000141,1.000000,0.000004,0.000049,-0.000050,0.516915,0.618869,0.345818,-0.479802,90.963307,72.061227,-12.755044
09768,-9.260883,3.029567,-0.044912,0.028629,-0.012996,-0.068805,-0.004890,0.007723,-0.012179,-0.092607,0.030301,-0.000446,1.000000,-0.000024,0.000039,-0.000061,0.516919,0.618861,0.345846,-0.479788,90.966861,72.062417,-12.748253
09769,-9.264762,3.047382,-0.060623,0.047711,-0.001664,-0.059547,-0.006406,0.008168,-0.009449,-0.092646,0.030478,-0.000603,1.000000,-0.000032,0.000041,-0.000047,0.516933,0.618853,0.345870,-0.479765,90.969609,72.062262,-12.741481
09770,-9.254243,3.007323,-0.072898,0.016722,0.018534,-0.081824,-0.009203,0.007095,-0.010553,-0.092541,0.030078,-0.000727,1.000000,-0.000046,0.000035,-0.000053,0.516956,0.618835,0.345902,-0.479740,90.969530,72.062526,-12.735911
09771,-9.250855,3.004827,-0.115210,0.025572,0.060158,-0.085596,-0.011868,0.004409,-0.011093,-0.092507,0.030053,-0.001152,1.000000,-0.000059,0.000022,-0.000055,0.516990,0.618802,0.345935,-0.479724,90.962546,72.063350,-12.736080
09772,-9.254912,3.005243,-0.073759,0.015051,0.019769,-0.081824,-0.004779,0.014940,-0.012523,-0.092547,0.030058,-0.000731,1.000000,-0.000024,0.000075,-0.000063,0.516980,0.618811,0.345983,-0.479688,90.978950,72.064666,-12.715849
09773,-9.247937,2.983981,-0.101489,0.004009,0.050690,-0.094858,-0.002451,0.004180,-0.008014,-0.092478,0.029844,-0.001013,1.000000,-0.000012,0.000021,-0.000040,0.516993,0.618806,0.345983,-0.479681,90.976865,72.063728,-12.716540
09774,-9.255475,3.003477,-0.075061,0.013380,0.021004,-0.081824,0.003130,0.006962,-0.009652,-0.092553,0.030039,-0.000747,1.000000,0.000016,0.000035,-0.000048,0.516979,0.618821,0.345982,-0.479676,90.983597,72.063477,-12.711237
09775,-9.239166,2.998107,-0.046019,0.006391,-0.007588,-0.099147,0.006553,0.009428,-0.010477,-0.092390,0.029986,-0.000455,1.000000,0.000033,0.000047,-0.000052,0.516949,0.618849,0.345981,-0.479674,90.996033,72.063899,-12.702087
09776,-9.243032,3.015963,-0.062371,0.025426,0.003720,-0.089884,0.011507,0.010818,-0.010185,-0.092429,0.030164,-0.000617,1.000000,0.000058,0.000054,-0.000051,0.516902,0.618894,0.345972,-0.479673,91.014407,72.063914,-12.689593
09777,-9.263457,3.038368,-0.108551,0.050680,0.044275,-0.063299,0.009749,0.005662,-0.007676,-0.092633,0.030387,-0.001081,1.000000,0.000049,0.000028,-0.000038,0.516875,0.618925,0.345945,-0.479681,91.021921,72.062769,-12.687542
09778,-9.223216,3.008407,-0.076513,0.027253,0.016721,-0.110984,0.008085,0.008353,-0.009361,-0.092231,0.030088,-0.000760,1.000000,0.000040,0.000042,-0.000047,0.516844,0.618957,0.345935,-0.479680,91.033946,72.062335,-12.679660
09779,-9.260492,3.017669,-0.095296,0.029116,0.034807,-0.072561,0.008965,0.007152,-0.014009,-0.092603,0.030183,-0.000948,1.000000,0.000045,0.000036,-0.000070,0.516802,0.618979,0.345934,-0.479699,91.043850,72.064801,-12.674624
09780,-9.247781,3.031049,-0.081490,0.041977,0.016891,-0.080611,0.011015,0.007815,-0.007690,-0.092477,0.030314,-0.000810,1.000000,0.000055,0.000039,-0.000038,0.516768,0.619020,0.345911,-0.479700,91.056552,72.063414,-12.667795
09781,-9.268329,3.036309,-0.070269,0.037662,0.005757,-0.059504,0.005302,0.006646,-0.006618,-0.092682,0.030366,-0.000699,1.000000,0.000027,0.000033,-0.000033,0.516755,0.619043,0.345894,-0.479695,91.063222,72.061651,-12.663953
09782,-9.238758,3.062867,-0.083469,0.073914,0.010308,-0.079383,0.006954,0.004589,-0.008782,-0.092386,0.030633,-0.000832,1.000000,0.000035,0.000023,-0.000044,0.516736,0.619064,0.345875,-0.479702,91.067924,72.060923,-12.663087
09783,-9.242773,3.063574,-0.041895,0.063427,-0.030053,-0.075585,0.005689,0.002438,-0.008769,-0.092426,0.030640,-0.000417,1.000000,0.000028,0.000012,-0.000044,0.516724,0.619075,0.345853,-0.479715,91.067440,72.060437,-12.666997
09784,-9.235775,3.042283,-0.068950,0.052355,0.000836,-0.088643,-0.002700,-0.000789,-0.012086,-0.092356,0.030428,-0.000690,1.000000,-0.000013,-0.000004,-0.000060,0.516737,0.619053,0.345854,-0.479731,91.057200,72.061656,-12.676022
09785,-9.239683,3.060058,-0.084121,0.071429,0.012171,-0.079367,-0.006776,0.004179,-0.010242,-0.092395,0.030605,-0.000840,1.000000,-0.000034,0.000021,-0.000051,0.516757,0.619033,0.345871,-0.479722,91.052704,72.061995,-12.676642
09786,-9.232865,3.021475,-0.053796,0.030799,-0.008637,-0.097906,-0.007148,0.000193,-0.011028,-0.092327,0.030220,-0.000539,1.000000,-0.000036,0.000001,-0.000055,0.516784,0.619003,0.345882,-0.479724,91.041617,72.062595,-12.683878
09787,-9.257159,3.045039,-0.056719,0.046359,-0.009057,-0.067523,-0.008052,0.002662,-0.014078,-0.092569,0.030457,-0.000567,1.000000,-0.000040,0.000013,-0.000070,0.516802,0.618970,0.345910,-0.479727,91.033828,72.065147,-12.687191
09788,-9.257565,3.043802,-0.056838,0.045499,-0.008451,-0.067518,-0.007547,0.005036,-0.012726,-0.092574,0.030444,-0.000567,1.000000,-0.000038,0.000025,-0.000064,0.516818,0.618948,0.345939,-0.479717,91.031136,72.066668,-12.685363
09789,-9.257884,3.042834,-0.056621,0.044684,-0.007821,-0.067514,-0.017175,-0.001613,-0.008334,-0.092578,0.030432,-0.000570,1.000000,-0.000086,-0.000008,-0.000042,0.516885,0.618891,0.345961,-0.479703,91.010368,72.065973,-12.696824
09790,-9.230489,3.015772,-0.095221,0.037140,0.034816,-0.101700,-0.015284,0.001934,-0.010278,-0.092303,0.030162,-0.000954,1.000000,-0.000076,0.000010,-0.000051,0.516936,0.618845,0.345993,-0.479684,90.997671,72.066121,-12.700851
09791,-9.206861,2.990152,-0.092087,0.019968,0.036485,-0.132085,-0.006642,0.002569,-0.009677,-0.092067,0.029906,-0.000921,1.000000,-0.000033,0.000013,-0.000048,0.516960,0.618823,0.346004,-0.479678,90.990383,72.066152,-12.704487
09792,-9.210909,2.990744,-0.050125,0.009432,-0.003900,-0.128277,-0.003086,0.003425,-0.009936,-0.092108,0.029912,-0.000500,1.000000,-0.000015,0.000017,-0.000050,0.516972,0.618814,0.346010,-0.479674,90.987307,72.066090,-12.705749
09793,-9.261143,2.985740,-0.083122,-0.002471,0.032749,-0.081847,0.001867,0.004819,-0.009641,-0.092610,0.029862,-0.000829,1.000000,0.000009,0.000024,-0.000048,0.516965,0.618819,0.346006,-0.479677,90.988875,72.066078,-12.705200
09794,-9.231633,3.012243,-0.095992,0.033803,0.037279,-0.101697,0.003533,0.002128,-0.007957,-0.092315,0.030126,-0.000958,1.000000,0.000018,0.000011,-0.000040,0.516964,0.618827,0.345986,-0.479683,90.987237,72.064895,-12.708937
09795,-9.248578,2.998769,-0.068980,0.009582,0.015453,-0.089867,0.009525,-0.000562,-0.004047,-0.092485,0.029990,-0.000689,1.000000,0.000048,-0.000003,-0.000020,0.516956,0.618849,0.345933,-0.479701,90.983499,72.061731,-12.718577
09796,-9.269086,3.004167,-0.057109,0.005193,0.004314,-0.068756,0.008753,0.000294,-0.006531,-0.092690,0.030045,-0.000570,1.000000,0.000044,0.000001,-0.000033,0.516945,0.618868,0.345892,-0.479718,90.981569,72.059750,-12.725764
09797,-9.259888,3.036709,-0.057743,0.037983,-0.002878,-0.067483,0.009514,0.000074,-0.007896,-0.092598,0.030371,-0.000576,1.000000,0.000048,0.000000,-0.000039,0.516928,0.618885,0.345852,-0.479744,90.979070,72.058785,-12.734095
09798,-9.263701,3.054827,-0.073054,0.057000,0.008438,-0.058194,-0.002180,0.000953,-0.006887,-0.092636,0.030551,-0.000730,1.000000,-0.000011,0.000005,-0.000034,0.516948,0.618876,0.345840,-0.479741,90.972052,72.057000,-12.740047
09799,-9.234183,3.081417,-0.085481,0.093327,0.012984,-0.078023,-0.000526,-0.001101,-0.009051,-0.092340,0.030818,-0.000855,1.000000,-0.000003,-0.000006,-0.000045,0.516961,0.618862,0.345825,-0.479756,90.961758,72.056707,-12.750525
09800,-9.254840,3.086394,-0.073211,0.088927,0.001851,-0.056902,-0.003455,-0.000563,-0.010723,-0.092547,0.030869,-0.000733,1.000000,-0.000017,-0.000003,-0.000054,0.516979,0.618841,0.345824,-0.479766,90.951443,72.057132,-12.759174
09801,-9.218250,3.075068,-0.055227,0.085506,-0.015030,-0.095297,-0.002694,-0.000783,-0.012089,-0.092181,0.030756,-0.000553,1.000000,-0.000013,-0.000004,-0.000060,0.516990,0.618817,0.345824,-0.479784,90.940559,72.058575,-12.768967
09802,-9.251936,3.065520,-0.057818,0.067375,-0.007625,-0.066176,-0.004349,0.001271,-0.009925,-0.092518,0.030660,-0.000578,1.000000,-0.000022,0.000006,-0.000050,0.517010,0.618798,0.345827,-0.479784,90.932958,72.058521,-12.774222
09803,-9.261677,3.031256,-0.057351,0.032957,0.000830,-0.067464,-0.010073,0.000732,-0.012704,-0.092615,0.030318,-0.000575,1.000000,-0.000050,0.000004,-0.000064,0.517040,0.618758,0.345851,-0.479787,90.920543,72.060302,-12.781181
09804,-9.269400,3.050454,-0.030073,0.042277,-0.028833,-0.054340,-0.014387,0.000095,-0.011080,-0.092692,0.030510,-0.000303,1.000000,-0.000072,0.000000,-0.000055,0.517090,0.618709,0.345879,-0.479776,90.905134,72.060917,-12.788599
09805,-9.312378,3.024786,-0.089095,0.020144,0.038126,-0.021069,-0.017058,-0.001958,-0.015471,-0.093121,0.030255,-0.000894,1.000000,-0.000085,-0.000010,-0.000077,0.517140,0.618639,0.345921,-0.479782,90.884027,72.064306,-12.800487
09806,-9.249734,3.059374,-0.098007,0.073714,0.035828,-0.069986,-0.021237,-0.004210,-0.013283,-0.092495,0.030600,-0.000985,1.000000,-0.000106,-0.000021,-0.000066,0.517213,0.618558,0.345961,-0.479779,90.857128,72.066217,-12.815857
09807,-9.252315,2.987275,-0.066427,-0.000447,0.022856,-0.089877,-0.019079,-0.003889,-0.014095,-0.092521,0.029879,-0.000669,1.000000,-0.000095,-0.000019,-0.000070,0.517276,0.618481,0.345999,-0.479783,90.831396,72.068831,-12.831388
09808,-9.186039,3.003150,-0.060226,0.033266,0.009833,-0.148080,-0.016284,-0.002811,-0.012989,-0.091858,0.030037,-0.000606,1.000000,-0.000081,-0.000014,-0.000065,0.517332,0.618417,0.346029,-0.479784,90.809800,72.070560,-12.844166
09809,-9.221692,2.940153,-0.088561,-0.028608,0.055366,-0.133428,-0.025538,-0.005485,-0.007812,-0.092216,0.029405,-0.000892,1.000000,-0.000128,-0.000027,-0.000039,0.517433,0.618330,0.346059,-0.479766,90.777380,72.069583,-12.862837
09810,-9.171842,2.961004,-0.112027,0.011255,0.071588,-0.174351,-0.020586,-0.004087,-0.007517,-0.091717,0.029613,-0.001125,1.000000,-0.000103,-0.000020,-0.000038,0.517517,0.618261,0.346080,-0.479748,90.750931,72.068182,-12.878125
09811,-9.212732,2.972173,-0.086900,0.003329,0.048767,-0.132119,-0.007485,-0.005062,-0.004124,-0.092127,0.029724,-0.000872,1.000000,-0.000037,-0.000025,-0.000021,0.517570,0.618228,0.346056,-0.479751,90.729524,72.065083,-12.896093
09812,-9.231270,3.030969,-0.047805,0.042681,-0.000445,-0.096536,0.003666,0.000524,-0.007392,-0.092312,0.030313,-0.000477,1.000000,0.000018,0.000003,-0.000037,0.517572,0.618233,0.346030,-0.479761,90.725140,72.063576,-12.902794
09813,-9.262838,3.075227,-0.023655,0.068340,-0.031085,-0.052968,0.001279,-0.005397,-0.006806,-0.092627,0.030755,-0.000239,1.000000,0.000006,-0.000027,-0.000034,0.517592,0.618217,0.345993,-0.479786,90.708229,72.062013,-12.921315
09814,-9.263071,3.074531,-0.023318,0.067475,-0.030480,-0.052960,-0.002681,-0.001410,-0.008242,-0.092629,0.030749,-0.000234,1.000000,-0.000013,-0.000007,-0.000041,0.517615,0.618200,0.345980,-0.479793,90.696809,72.061004,-12.931588
09815,-9.235716,3.030285,-0.005131,0.030494,-0.039566,-0.092676,-0.001420,0.000743,-0.008253,-0.092356,0.030307,-0.000051,1.000000,-0.000007,0.000004,-0.000041,0.517630,0.618189,0.345969,-0.479799,90.689252,72.060227,-12.938651
09816,-9.272921,3.039796,-0.022999,0.032193,-0.021416,-0.054283,0.005959,-0.000770,-0.007640,-0.092728,0.030402,-0.000229,1.000000,0.000030,-0.000004,-0.000038,0.517626,0.618197,0.345935,-0.479818,90.683896,72.058866,-12.947755
09817,-9.226901,3.061890,-0.005846,0.062419,-0.046165,-0.091325,0.010762,0.002883,-0.011759,-0.092267,0.030624,-0.000055,1.000000,0.000054,0.000014,-0.000059,0.517591,0.618217,0.345912,-0.479847,90.687181,72.060081,-12.950759
09818,-9.290305,3.024804,0.003346,0.007072,-0.042609,-0.042459,0.007073,0.003640,-0.012066,-0.092901,0.030254,0.000036,1.000000,0.000035,0.000018,-0.000060,0.517565,0.618230,0.345900,-0.479865,90.690349,72.061223,-12.951576
09819,-9.268351,3.071350,0.017647,0.053591,-0.068355,-0.049066,-0.004984,0.000524,-0.011845,-0.092682,0.030719,0.000176,1.000000,-0.000025,0.000003,-0.000059,0.517583,0.618204,0.345909,-0.479875,90.680438,72.062504,-12.958967
09820,-9.227959,3.075726,-0.063771,0.089449,0.007366,-0.085851,-0.013905,0.003752,-0.017428,-0.092277,0.030765,-0.000638,1.000000,-0.000070,0.000019,-0.000087,0.517609,0.618154,0.345964,-0.479870,90.671890,72.066715,-12.959464
09821,-9.241421,3.059835,-0.078278,0.074899,0.026543,-0.077891,-0.017947,-0.000119,-0.014676,-0.092412,0.030605,-0.000786,1.000000,-0.000090,-0.000001,-0.000073,0.517661,0.618087,0.346011,-0.479866,90.653468,72.069621,-12.967994
09822,-9.214222,3.015042,-0.059657,0.037894,0.017417,-0.117627,-0.020239,0.001177,-0.014430,-0.092140,0.030157,-0.000599,1.000000,-0.000101,0.000006,-0.000072,0.517718,0.618020,0.346066,-0.479851,90.636671,72.072127,-12.973344
09823,-9.240449,3.002386,-0.145935,0.039176,0.106839,-0.096281,-0.018570,-0.001514,-0.012747,-0.092403,0.030030,-0.001463,1.000000,-0.000093,-0.000008,-0.000064,0.517779,0.617952,0.346104,-0.479846,90.615377,72.073935,-12.984518
09824,-9.250249,2.950597,-0.087819,-0.024853,0.063579,-0.103095,-0.007502,-0.003778,-0.011827,-0.092501,0.029511,-0.000881,1.000000,-0.000038,-0.000019,-0.000059,0.517812,0.617910,0.346108,-0.479861,90.597053,72.074980,-12.999144
09825,-9.231939,3.016102,-0.087857,0.041533,0.048543,-0.100365,-0.003177,-0.003777,-0.009600,-0.092318,0.030165,-0.000881,1.000000,-0.000016,-0.000019,-0.000048,0.517837,0.617882,0.346094,-0.479881,90.580507,72.074996,-13.014596
09826,-9.263697,3.059932,-0.063124,0.067090,0.017910,-0.056744,-0.007864,-0.007763,-0.012618,-0.092635,0.030605,-0.000636,1.000000,-0.000039,-0.000039,-0.000063,0.517876,0.617828,0.346090,-0.479911,90.554933,72.076517,-13.036624
09827,-9.256677,3.038576,-0.089083,0.056126,0.048792,-0.069925,-0.007727,-0.009377,-0.012054,-0.092565,0.030391,-0.000896,1.000000,-0.000039,-0.000047,-0.000060,0.517918,0.617771,0.346080,-0.479946,90.525899,72.077966,-13.062460
09828,-9.251562,3.071897,-0.046017,0.079148,0.000590,-0.064672,-0.016376,-0.009377,-0.016508,-0.092513,0.030727,-0.000467,1.000000,-0.000082,-0.000047,-0.000083,0.517977,0.617684,0.346105,-0.479976,90.492644,72.081712,-13.087435
09829,-9.261331,3.037240,-0.044595,0.044734,0.009052,-0.066047,-0.013085,-0.005929,-0.014045,-0.092611,0.030379,-0.000451,1.000000,-0.000065,-0.000030,-0.000070,0.518025,0.617618,0.346123,-0.479997,90.466668,72.084276,-13.106831
09830,-9.261769,3.035920,-0.043603,0.043869,0.009657,-0.066044,-0.014480,-0.006466,-0.014599,-0.092615,0.030366,-0.000441,1.000000,-0.000072,-0.000032,-0.000073,0.518078,0.617547,0.346145,-0.480016,90.439611,72.086908,-13.126432
09831,-9.227083,2.970990,-0.051655,-0.003200,0.030787,-0.119001,-0.007999,-0.006142,-0.013185,-0.092269,0.029716,-0.000521,1.000000,-0.000040,-0.000031,-0.000066,0.518113,0.617494,0.346147,-0.480044,90.416146,72.088975,-13.146251
09832,-9.218264,3.002817,-0.051175,0.029536,0.023554,-0.117611,0.000129,-0.007220,-0.017790,-0.092180,0.030036,-0.000515,1.000000,0.000001,-0.000036,-0.000089,0.518114,0.617453,0.346142,-0.480099,90.396156,72.093431,-13.167220
09833,-9.244682,2.972420,-0.080231,0.001239,0.061294,-0.101760,0.006748,-0.008511,-0.015812,-0.092444,0.029732,-0.000805,1.000000,0.000034,-0.000043,-0.000079,0.518101,0.617429,0.346111,-0.480166,90.376959,72.097008,-13.191432
09834,-9.239594,3.005641,-0.037916,0.024257,0.013090,-0.096482,0.013229,-0.008186,-0.014398,-0.092394,0.030063,-0.000381,1.000000,0.000066,-0.000041,-0.000072,0.518072,0.617426,0.346061,-0.480238,90.362711,72.099521,-13.214253
09835,-9.232649,2.966674,-0.007761,-0.016262,-0.007729,-0.115126,0.018399,-0.001183,-0.013874,-0.092324,0.029673,-0.000075,1.000000,0.000092,-0.000006,-0.000069,0.518015,0.617452,0.346015,-0.480298,90.363155,72.101957,-13.224841
09836,-9.277499,2.995694,0.001151,-0.004490,-0.019779,-0.063546,0.017903,-0.003552,-0.015231,-0.092773,0.029964,0.000013,1.000000,0.000090,-0.000018,-0.000076,0.517961,0.617471,0.345969,-0.480366,90.359805,72.104934,-13.239023
09837,-9.253812,2.969955,0.004100,-0.021547,-0.018187,-0.093999,0.010051,-0.005706,-0.009497,-0.092537,0.029704,0.000040,1.000000,0.000050,-0.000029,-0.000047,0.517948,0.617472,0.345918,-0.480414,90.347389,72.104879,-13.258098
09838,-9.235601,3.035550,0.003978,0.044782,-0.033256,-0.091175,0.006002,-0.008938,-0.010595,-0.092354,0.030360,0.000037,1.000000,0.000030,-0.000045,-0.000053,0.517952,0.617455,0.345872,-0.480466,90.327601,72.105212,-13.282390
09839,-9.259969,3.059205,0.001705,0.060203,-0.033587,-0.060712,-0.004432,-0.005929,-0.009591,-0.092598,0.030596,0.000014,1.000000,-0.000022,-0.000030,-0.000048,0.517984,0.617419,0.345855,-0.480490,90.306491,72.105207,-13.301880
09840,-9.206566,3.061294,-0.006892,0.080319,-0.028179,-0.110874,-0.013692,-0.007980,-0.008260,-0.092064,0.030617,-0.000075,1.000000,-0.000068,-0.000040,-0.000041,0.518052,0.617357,0.345852,-0.480499,90.277095,72.104196,-13.324412
09841,-9.236446,3.032975,0.006799,0.042291,-0.031396,-0.091158,-0.022467,-0.007015,-0.009424,-0.092363,0.030334,0.000061,1.000000,-0.000112,-0.000035,-0.000047,0.518142,0.617271,0.345875,-0.480495,90.243724,72.104093,-13.345928
09842,-9.240438,3.050928,-0.006733,0.061276,-0.020066,-0.081822,-0.030964,-0.009280,-0.009461,-0.092403,0.030514,-0.000076,1.000000,-0.000155,-0.000046,-0.000047,0.518263,0.617160,0.345913,-0.480481,90.202123,72.103762,-13.370888
09843,-9.220394,3.044217,-0.017304,0.064085,-0.007760,-0.102947,-0.029083,-0.005723,-0.011403,-0.092202,0.030447,-0.000180,1.000000,-0.000145,-0.000029,-0.000057,0.518366,0.617056,0.345962,-0.480466,90.167267,72.104781,-13.389981
09844,-9.255781,2.981319,-0.045115,0.002132,0.037810,-0.088575,-0.027258,-0.010673,-0.005309,-0.092557,0.029816,-0.000460,1.000000,-0.000136,-0.000053,-0.000027,0.518488,0.616958,0.345975,-0.480452,90.125309,72.102061,-13.417545
09845,-9.243056,2.995077,-0.028954,0.015066,0.019873,-0.096475,-0.019949,-0.002698,-0.009447,-0.092429,0.029955,-0.000294,1.000000,-0.000100,-0.000013,-0.000047,0.518563,0.616889,0.346004,-0.480439,90.101043,72.101948,-13.431009
09846,-9.226663,2.989836,0.001742,0.008105,-0.008817,-0.113703,-0.014864,-0.002910,-0.008589,-0.092265,0.029902,0.000014,1.000000,-0.000074,-0.000015,-0.000043,0.518625,0.616836,0.346017,-0.480431,90.079981,72.101088,-13.444076
09847,-9.280644,3.003504,-0.045347,0.015853,0.038725,-0.058114,-0.004708,-0.002688,-0.010722,-0.092805,0.030040,-0.000455,1.000000,-0.000024,-0.000013,-0.000054,0.518649,0.616805,0.346013,-0.480448,90.064471,72.101703,-13.457516
09848,-9.247697,3.011096,-0.042447,0.032369,0.032435,-0.087139,0.001759,-0.001713,-0.013161,-0.092475,0.030117,-0.000425,1.000000,0.000009,-0.000009,-0.000066,0.518647,0.616789,0.346004,-0.480476,90.055053,72.103464,-13.468360
09849,-9.272110,3.017052,0.011841,0.018190,-0.019574,-0.062095,0.007478,-0.001172,-0.010381,-0.092720,0.030175,0.000119,1.000000,0.000037,-0.000006,-0.000052,0.518632,0.616794,0.345973,-0.480509,90.049211,72.103881,-13.478977
09850,-9.255836,3.029051,-0.015617,0.040803,0.003428,-0.073888,0.008860,0.000016,-0.013678,-0.092556,0.030297,-0.000155,1.000000,0.000044,0.000000,-0.000068,0.518604,0.616800,0.345953,-0.480545,90.046951,72.105934,-13.486569
09851,-9.259929,3.046773,-0.030887,0.059829,0.014785,-0.064545,0.007479,-0.001171,-0.010382,-0.092598,0.030473,-0.000308,1.000000,0.000037,-0.000006,-0.000052,0.518589,0.616804,0.345923,-0.480578,90.041109,72.106352,-13.497185
09852,-9.243656,3.041172,-0.001123,0.052873,-0.013909,-0.081762,0.008227,-0.000736,-0.015600,-0.092434,0.030419,-0.000010,1.000000,0.000041,-0.000004,-0.000078,0.518560,0.616804,0.345908,-0.480621,90.037133,72.109507,-13.506205
09853,-9.257020,3.025428,-0.016040,0.038306,0.005289,-0.073879,0.009140,-0.003212,-0.012553,-0.092568,0.030260,-0.000161,1.000000,0.000046,-0.000016,-0.000063,0.518538,0.616804,0.345875,-0.480668,90.028619,72.111169,-13.520629
09854,-9.251896,3.058874,0.025953,0.061299,-0.042911,-0.068491,0.001900,-0.003327,-0.012598,-0.092517,0.030595,0.000258,1.000000,0.000010,-0.000017,-0.000063,0.518540,0.616786,0.345859,-0.480700,90.016416,72.112601,-13.534481
09855,-9.224516,3.031724,-0.013063,0.054024,-0.000388,-0.102883,-0.001169,-0.001176,-0.014833,-0.092243,0.030324,-0.000131,1.000000,-0.000006,-0.000006,-0.000074,0.518541,0.616761,0.345863,-0.480729,90.005607,72.115568,-13.545110
09856,-9.239850,3.088294,-0.015911,0.102942,-0.008556,-0.070923,-0.007635,-0.002154,-0.012394,-0.092397,0.030889,-0.000161,1.000000,-0.000038,-0.000011,-0.000062,0.518570,0.616721,0.345873,-0.480741,89.990013,72.116881,-13.556785
09857,-9.217901,3.009065,-0.039425,0.042245,0.031074,-0.116143,-0.010704,-0.000002,-0.014629,-0.092177,0.030097,-0.000396,1.000000,-0.000054,-0.000000,-0.000073,0.518599,0.616674,0.345902,-0.480749,89.975819,72.119728,-13.565230
09858,-9.233159,3.048219,0.015078,0.061584,-0.028786,-0.089597,-0.014240,-0.001516,-0.010519,-0.092330,0.030487,0.000148,1.000000,-0.000071,-0.000008,-0.000053,0.518652,0.616622,0.345924,-0.480743,89.957572,72.119960,-13.575715
09859,-9.272249,3.003939,-0.028817,0.019505,0.027565,-0.065999,-0.016395,-0.001842,-0.009706,-0.092721,0.030044,-0.000291,1.000000,-0.000082,-0.000009,-0.000049,0.518714,0.616564,0.345947,-0.480734,89.936851,72.119985,-13.587593
09860,-9.255940,2.998411,0.001725,0.012556,-0.001136,-0.083209,-0.015647,-0.001404,-0.014926,-0.092557,0.029991,0.000014,1.000000,-0.000078,-0.000007,-0.000075,0.518761,0.616502,0.345985,-0.480736,89.917994,72.122739,-13.597869
09861,-9.248909,2.976993,-0.024779,0.001645,0.029721,-0.096488,-0.011322,-0.001400,-0.012701,-0.092487,0.029776,-0.000250,1.000000,-0.000057,-0.000007,-0.000064,0.518799,0.616453,0.346007,-0.480742,89.900954,72.124477,-13.608932
09862,-9.269674,2.981458,-0.012143,-0.002881,0.018673,-0.075350,-0.012857,-0.000323,-0.013818,-0.092695,0.029821,-0.000124,1.000000,-0.000064,-0.000002,-0.000069,0.518838,0.616402,0.346038,-0.480743,89.885598,72.126600,-13.617214
09863,-9.253463,2.993375,-0.039056,0.019801,0.041685,-0.087140,-0.007772,-0.000531,-0.012960,-0.092533,0.029940,-0.000392,1.000000,-0.000039,-0.000003,-0.000065,0.518863,0.616364,0.346054,-0.480754,89.872129,72.128486,-13.626663
09864,-9.233459,2.986563,-0.050965,0.022600,0.053937,-0.108281,-0.002547,-0.002355,-0.011539,-0.092333,0.029871,-0.000511,1.000000,-0.000013,-0.000012,-0.000058,0.518879,0.616339,0.346048,-0.480773,89.859095,72.129299,-13.638703
09865,-9.254192,2.991126,-0.038614,0.018120,0.042915,-0.087142,0.003158,-0.001160,-0.012610,-0.092540,0.029917,-0.000386,1.000000,0.000016,-0.000006,-0.000063,0.518872,0.616328,0.346035,-0.480803,89.850768,72.130983,-13.649328
09866,-9.241646,3.004435,-0.023802,0.031014,0.024940,-0.094991,0.004552,-0.000620,-0.012056,-0.092415,0.030050,-0.000238,1.000000,0.000023,-0.000003,-0.000060,0.518862,0.616325,0.346018,-0.480830,89.844874,72.132098,-13.658144
09867,-9.229120,3.017697,-0.009017,0.043957,0.006986,-0.102835,0.001623,-0.000084,-0.013728,-0.092289,0.030183,-0.000090,1.000000,0.000008,-0.000000,-0.000069,0.518855,0.616311,0.346015,-0.480858,89.837572,72.134423,-13.666768
09868,-9.249914,3.039895,-0.053760,0.068994,0.047640,-0.076275,-0.001631,-0.004834,-0.008492,-0.092498,0.030403,-0.000540,1.000000,-0.000008,-0.000024,-0.000042,0.518880,0.616287,0.345991,-0.480878,89.820647,72.133472,-13.683460
09869,-9.238901,2.982427,-0.008363,0.008688,0.016062,-0.104346,0.004553,-0.000619,-0.012057,-0.092387,0.029830,-0.000083,1.000000,0.000023,-0.000003,-0.000060,0.518869,0.616282,0.345975,-0.480908,89.814079,72.134837,-13.693076
09870,-9.250499,3.020290,0.003630,0.037737,-0.002823,-0.081682,0.001004,-0.001487,-0.011798,-0.092503,0.030208,0.000036,1.000000,0.000005,-0.000007,-0.000059,0.518872,0.616268,0.345963,-0.480931,89.804625,72.135802,-13.703493
09871,-9.247120,3.018062,-0.038293,0.046669,0.038762,-0.085626,-0.000377,-0.002678,-0.008501,-0.092470,0.030185,-0.000384,1.000000,-0.000002,-0.000013,-0.000043,0.518889,0.616252,0.345942,-0.480949,89.791592,72.135125,-13.716935
09872,-9.214043,3.008384,0.021797,0.033668,-0.019274,-0.120013,-0.002545,-0.002355,-0.011540,-0.092139,0.030089,0.000216,1.000000,-0.000013,-0.000012,-0.000058,0.518905,0.616227,0.345936,-0.480968,89.778563,72.135933,-13.728974
09873,-9.260545,2.984157,0.004534,0.001651,0.006883,-0.083204,-0.004208,-0.000316,-0.009368,-0.092604,0.029846,0.000045,1.000000,-0.000021,-0.000002,-0.000047,0.518927,0.616204,0.345933,-0.480975,89.767529,72.135756,-13.738008
09874,-9.255526,3.035327,-0.010521,0.054201,0.010376,-0.072306,-0.002545,-0.002354,-0.011540,-0.092554,0.030359,-0.000107,1.000000,-0.000013,-0.000012,-0.000058,0.518943,0.616179,0.345927,-0.480994,89.754479,72.136568,-13.750072
09875,-9.272516,3.020913,0.016985,0.029872,-0.011367,-0.060521,0.001133,-0.002447,-0.015089,-0.092723,0.030216,0.000169,1.000000,0.000006,-0.000012,-0.000075,0.518939,0.616156,0.345924,-0.481031,89.742671,72.139663,-13.763135
09876,-9.226691,3.043098,0.034815,0.060217,-0.036301,-0.097310,-0.001628,-0.004833,-0.008494,-0.092266,0.030435,0.000346,1.000000,-0.000008,-0.000024,-0.000042,0.518964,0.616133,0.345900,-0.481051,89.725760,72.138717,-13.779807
09877,-9.252814,3.013188,0.005497,0.031877,0.001499,-0.081661,-0.004080,-0.001278,-0.012658,-0.092526,0.030138,0.000054,1.000000,-0.000020,-0.000006,-0.000063,0.518979,0.616103,0.345904,-0.481070,89.713059,72.140420,-13.790670
09878,-9.244073,3.045384,0.005524,0.064598,-0.005744,-0.080109,-0.004841,-0.001066,-0.011290,-0.092439,0.030459,0.000054,1.000000,-0.000024,-0.000005,-0.000056,0.519001,0.616075,0.345906,-0.481080,89.700948,72.141081,-13.800378
09879,-9.240642,3.025425,0.020730,0.043958,-0.015855,-0.089472,-0.006518,0.001625,-0.012970,-0.092404,0.030260,0.000207,1.000000,-0.000033,0.000008,-0.000065,0.519018,0.616045,0.345925,-0.481087,89.692006,72.142970,-13.805824
09880,-9.261405,3.029893,0.033053,0.039394,-0.026878,-0.068320,-0.006375,0.000010,-0.012408,-0.092612,0.030305,0.000330,1.000000,-0.000032,0.000000,-0.000062,0.519040,0.616015,0.345937,-0.481094,89.680955,72.144267,-13.813479
09881,-9.241516,3.040697,-0.036287,0.071853,0.037069,-0.084058,-0.003730,0.002707,-0.011862,-0.092413,0.030412,-0.000362,1.000000,-0.000019,0.000014,-0.000059,0.519050,0.615997,0.345948,-0.481098,89.675543,72.145524,-13.816895
09882,-9.232696,3.055252,0.020693,0.074995,-0.021872,-0.087896,-0.005613,-0.000200,-0.013776,-0.092325,0.030559,0.000206,1.000000,-0.000028,-0.000001,-0.000069,0.519066,0.615965,0.345962,-0.481111,89.664559,72.147612,-13.824924
09883,-9.242224,3.020591,0.020872,0.040594,-0.013395,-0.089454,-0.006040,0.004648,-0.015464,-0.092420,0.030213,0.000210,1.000000,-0.000030,0.000023,-0.000077,0.519071,0.615939,0.345995,-0.481115,89.661237,72.150939,-13.824753
09884,-9.255599,3.004624,0.005655,0.025960,0.005803,-0.081645,-0.004027,0.006595,-0.016840,-0.092553,0.030054,0.000059,1.000000,-0.000020,0.000033,-0.000084,0.519063,0.615923,0.346032,-0.481118,89.663138,72.154788,-13.820241
09885,-9.247001,3.036482,0.005135,0.058729,-0.001421,-0.080071,-0.002206,0.002289,-0.014598,-0.092468,0.030372,0.000052,1.000000,-0.000011,0.000011,-0.000073,0.519062,0.615903,0.346047,-0.481134,89.657823,72.157611,-13.824472
09886,-9.239847,2.997354,0.034692,0.018223,-0.022299,-0.098817,0.004463,0.008880,-0.016802,-0.092396,0.029981,0.000352,1.000000,0.000022,0.000044,-0.000084,0.519025,0.615914,0.346070,-0.481144,89.668724,72.161449,-13.815585
09887,-9.257010,3.000275,0.003859,0.023459,0.007662,-0.081640,0.005238,0.008016,-0.014318,-0.092568,0.030009,0.000043,1.000000,0.000026,0.000040,-0.000072,0.518991,0.615928,0.346081,-0.481154,89.677874,72.164130,-13.809100
09888,-9.257477,2.998835,0.002931,0.022588,0.008267,-0.081638,0.004464,0.008882,-0.016803,-0.092572,0.029996,0.000034,1.000000,0.000022,0.000044,-0.000084,0.518954,0.615939,0.346103,-0.481164,89.688787,72.167958,-13.800200
09889,-9.257973,2.997305,0.001929,0.021773,0.008895,-0.081637,0.005858,0.009424,-0.016249,-0.092577,0.029981,0.000025,1.000000,0.000029,0.000047,-0.000081,0.518912,0.615955,0.346122,-0.481176,89.700788,72.171749,-13.791094
09890,-9.245544,3.010441,0.015810,0.034674,-0.009095,-0.089426,0.004477,0.008228,-0.012951,-0.092453,0.030110,0.000163,1.000000,0.000022,0.000041,-0.000065,0.518884,0.615971,0.346131,-0.481178,89.710551,72.173386,-13.783424
09891,-9.214225,2.964577,-0.009385,0.007711,0.022608,-0.133318,0.001263,0.011994,-0.015750,-0.092140,0.029653,-0.000088,1.000000,0.000006,0.000060,-0.000079,0.518853,0.615981,0.346167,-0.481173,89.724511,72.176897,-13.769495
09892,-9.259237,2.993397,-0.001156,0.019220,0.010731,-0.081633,0.002811,0.010265,-0.010779,-0.092591,0.029939,-0.000006,1.000000,0.000014,0.000051,-0.000054,0.518833,0.616002,0.346178,-0.481160,89.737031,72.177280,-13.757901
09893,-9.239155,2.986808,-0.014398,0.022127,0.022968,-0.102785,0.006502,0.009523,-0.010474,-0.092390,0.029873,-0.000139,1.000000,0.000033,0.000048,-0.000052,0.518802,0.616029,0.346178,-0.481158,89.749639,72.177760,-13.748546
09894,-9.281737,2.943659,-0.017890,-0.029817,0.038417,-0.075453,0.004347,0.009191,-0.009661,-0.092816,0.029441,-0.000174,1.000000,0.000022,0.000046,-0.000048,0.518782,0.616053,0.346180,-0.481148,89.761078,72.177507,-13.739040
09895,-9.289569,2.962872,0.008142,-0.020588,0.008841,-0.062084,0.002050,0.010476,-0.009412,-0.092894,0.029633,0.000087,1.000000,0.000010,0.000052,-0.000047,0.518766,0.616073,0.346190,-0.481133,89.772840,72.177380,-13.727894
09896,-9.306412,2.948823,0.034379,-0.044997,-0.012903,-0.050318,0.003585,0.009402,-0.008294,-0.093063,0.029492,0.000349,1.000000,0.000018,0.000047,-0.000041,0.518751,0.616098,0.346190,-0.481117,89.784259,72.176347,-13.717928
09897,-9.293911,2.980083,-0.008741,-0.002464,0.020821,-0.052702,0.006933,0.004677,-0.008785,-0.092938,0.029805,-0.000084,1.000000,0.000035,0.000023,-0.000044,0.518731,0.616117,0.346171,-0.481127,89.788489,72.175848,-13.717632
09898,-9.240540,2.982497,-0.018976,0.017905,0.026033,-0.102784,0.005254,0.007368,-0.010467,-0.092404,0.029830,-0.000186,1.000000,0.000026,0.000037,-0.000052,0.518709,0.616138,0.346168,-0.481126,89.797177,72.176064,-13.711563
09899,-9.270216,2.953972,-0.007404,-0.020225,0.022914,-0.083249,-0.000725,0.008737,-0.006670,-0.092701,0.029543,-0.000070,1.000000,-0.000004,0.000044,-0.000033,0.518711,0.616151,0.346172,-0.481104,89.804266,72.174361,-13.703655
09900,-9.228116,2.995710,-0.005449,0.029999,0.008661,-0.110551,-0.002451,0.003555,-0.004168,-0.092281,0.029959,-0.000053,1.000000,-0.000012,0.000018,-0.000021,0.518735,0.616153,0.346159,-0.481086,89.801825,72.170948,-13.704624
09901,-9.261505,2.986361,-0.008537,0.011674,0.016292,-0.081629,-0.002737,0.006788,-0.005295,-0.092614,0.029866,-0.000083,1.000000,-0.000014,0.000034,-0.000026,0.518750,0.616159,0.346158,-0.481063,89.804296,72.168453,-13.700356
09902,-9.237395,2.961543,-0.006231,-0.005259,0.017746,-0.112177,-0.002108,0.007539,-0.003372,-0.092373,0.029617,-0.000059,1.000000,-0.000011,0.000038,-0.000017,0.518767,0.616173,0.346151,-0.481031,89.809135,72.164600,-13.693889
09903,-9.248883,3.000205,0.005126,0.023767,-0.001079,-0.089389,-0.000572,0.006466,-0.002253,-0.092488,0.030003,0.000054,1.000000,-0.000003,0.000032,-0.000011,0.518784,0.616189,0.346135,-0.481005,89.812288,72.160361,-13.690208
09904,-9.228566,2.994317,-0.007578,0.026645,0.011120,-0.110544,-0.001201,0.005714,-0.004176,-0.092285,0.029945,-0.000073,1.000000,-0.000006,0.000029,-0.000021,0.518799,0.616199,0.346124,-0.480982,89.814368,72.156964,-13.687193
09905,-9.261875,2.985207,-0.010877,0.008311,0.018759,-0.081630,0.003748,0.006476,-0.000023,-0.092619,0.029852,-0.000105,1.000000,0.000019,0.000032,-0.000000,0.518808,0.616230,0.346091,-0.480957,89.820024,72.151448,-13.683482
09906,-9.286119,3.009607,-0.014468,0.023502,0.018521,-0.051076,0.006047,0.005193,-0.000271,-0.092861,0.030096,-0.000141,1.000000,0.000030,0.000026,-0.000001,0.518812,0.616265,0.346049,-0.480938,89.825382,72.145814,-13.681374
09907,-9.256734,3.037232,-0.027221,0.060014,0.022882,-0.070587,0.002919,0.000124,-0.002179,-0.092567,0.030373,-0.000272,1.000000,0.000015,0.000001,-0.000011,0.518828,0.616275,0.346008,-0.480938,89.819250,72.141521,-13.689548
09908,-9.290029,3.028163,-0.030113,0.041618,0.030507,-0.041676,0.005704,0.001209,-0.001068,-0.092900,0.030282,-0.000300,1.000000,0.000029,0.000006,-0.000005,0.518838,0.616298,0.345959,-0.480933,89.817300,72.136333,-13.694926
09909,-9.255471,3.090196,-0.000724,0.101933,-0.013936,-0.055512,-0.000638,-0.000096,-0.005777,-0.092554,0.030905,-0.000007,1.000000,-0.000003,-0.000000,-0.000029,0.518857,0.616292,0.345937,-0.480936,89.808725,72.134101,-13.703527
09910,-9.272309,3.093958,-0.030489,0.107089,0.016028,-0.038359,-0.005578,-0.001514,-0.006077,-0.092722,0.030942,-0.000306,1.000000,-0.000028,-0.000008,-0.000030,0.518895,0.616270,0.345924,-0.480933,89.795455,72.131779,-13.713997
09911,-9.202211,3.092330,-0.009544,0.121539,-0.008143,-0.105553,-0.013446,-0.002401,-0.008052,-0.092021,0.030927,-0.000099,1.000000,-0.000067,-0.000012,-0.000040,0.518952,0.616221,0.345933,-0.480926,89.775434,72.130844,-13.726912
09912,-9.252361,3.086980,-0.041541,0.109159,0.028846,-0.059503,-0.013446,-0.002400,-0.008052,-0.092522,0.030873,-0.000419,1.000000,-0.000067,-0.000012,-0.000040,0.519010,0.616174,0.345943,-0.480917,89.756082,72.129651,-13.739039
09913,-9.211745,3.075167,-0.065520,0.115865,0.052636,-0.101817,-0.010319,0.002669,-0.006144,-0.092117,0.030754,-0.000656,1.000000,-0.000052,0.000013,-0.000031,0.519054,0.616149,0.345952,-0.480896,89.746881,72.127633,-13.742469
09914,-9.237551,3.027898,-0.038146,0.057855,0.038766,-0.091724,-0.001553,0.002388,-0.008828,-0.092374,0.030283,-0.000381,1.000000,-0.000008,0.000012,-0.000044,0.519065,0.616142,0.345948,-0.480895,89.742882,72.126869,-13.745607
09915,-9.232670,3.061439,0.003437,0.080834,-0.009409,-0.086023,0.006441,0.002973,-0.013998,-0.092325,0.030621,0.000037,1.000000,0.000032,0.000015,-0.000070,0.519038,0.616148,0.345942,-0.480922,89.743762,72.129351,-13.748534
09916,-9.277737,3.090236,0.012258,0.092228,-0.021206,-0.034285,0.007213,0.002108,-0.011512,-0.092776,0.030908,0.000125,1.000000,0.000036,0.000011,-0.000058,0.519016,0.616159,0.345924,-0.480944,89.744222,72.130135,-13.752290
09917,-9.261514,3.084630,0.041838,0.085392,-0.049941,-0.051410,0.004421,0.001681,-0.016478,-0.092613,0.030854,0.000420,1.000000,0.000022,0.000008,-0.000082,0.518991,0.616152,0.345927,-0.480978,89.741627,72.134035,-13.757653
09918,-9.295307,3.074016,0.038860,0.066967,-0.042296,-0.022512,0.002257,0.002004,-0.019522,-0.092950,0.030749,0.000390,1.000000,0.000011,0.000010,-0.000098,0.518966,0.616136,0.345946,-0.481012,89.739013,72.139407,-13.761645
09919,-9.275501,3.066584,0.026534,0.069919,-0.030092,-0.043667,-0.000526,0.000920,-0.020634,-0.092752,0.030675,0.000266,1.000000,-0.000003,0.000005,-0.000103,0.518948,0.616107,0.345971,-0.481051,89.732191,72.145686,-13.768470
09920,-9.288955,3.050106,0.011665,0.055262,-0.010867,-0.035940,-0.005609,0.001117,-0.021498,-0.092886,0.030511,0.000116,1.000000,-0.000028,0.000006,-0.000107,0.518943,0.616065,0.346012,-0.481080,89.723417,72.152174,-13.774222
09921,-9.319116,3.037751,-0.032840,0.046672,0.037748,-0.011089,-0.012567,-0.001597,-0.024279,-0.093187,0.030389,-0.000331,1.000000,-0.000063,-0.000008,-0.000121,0.518958,0.615992,0.346072,-0.481115,89.705171,72.160533,-13.785800
09922,-9.340175,3.023520,0.036921,0.012433,-0.024906,0.004702,-0.015774,0.001510,-0.023227,-0.093398,0.030246,0.000368,1.000000,-0.000079,0.000008,-0.000116,0.518980,0.615922,0.346144,-0.481129,89.691326,72.168024,-13.790703
09923,-9.342216,2.967820,0.010940,-0.031969,0.013774,-0.010450,-0.031071,-0.005121,-0.025492,-0.093418,0.029690,0.000102,1.000000,-0.000155,-0.000026,-0.000127,0.519054,0.615790,0.346243,-0.481146,89.656160,72.177064,-13.808917
09924,-9.264963,2.944714,0.005675,-0.027503,0.019709,-0.091074,-0.029814,-0.003617,-0.021645,-0.092646,0.029457,0.000051,1.000000,-0.000149,-0.000018,-0.000108,0.519132,0.615674,0.346330,-0.481147,89.625070,72.183633,-13.823516
09925,-9.233664,2.898294,-0.017148,-0.054324,0.051328,-0.135117,-0.028758,-0.007054,-0.021889,-0.092333,0.028993,-0.000179,1.000000,-0.000144,-0.000035,-0.000109,0.519212,0.615550,0.346407,-0.481165,89.587779,72.190595,-13.845353
09926,-9.221475,2.910903,-0.000953,-0.041404,0.033313,-0.142830,-0.017201,-0.006897,-0.019606,-0.092212,0.029118,-0.000015,1.000000,-0.000086,-0.000034,-0.000098,0.519261,0.615462,0.346449,-0.481193,89.558047,72.195970,-13.866119
09927,-9.209371,2.941284,-0.042111,0.001154,0.067010,-0.145167,-0.009818,-0.008370,-0.018992,-0.092091,0.029422,-0.000426,1.000000,-0.000049,-0.000042,-0.000095,0.519292,0.615389,0.346468,-0.481240,89.529261,72.201259,-13.890419
09928,-9.158723,2.997807,0.018523,0.055432,-0.006872,-0.175972,-0.009808,-0.009031,-0.015138,-0.091585,0.029985,0.000180,1.000000,-0.000049,-0.000045,-0.000076,0.519333,0.615323,0.346474,-0.481276,89.500059,72.204058,-13.915039
09929,-9.270314,3.008365,0.023514,0.031668,-0.004489,-0.066482,-0.021927,-0.004042,-0.011961,-0.092701,0.030089,0.000230,1.000000,-0.000110,-0.000020,-0.000060,0.519410,0.615241,0.346512,-0.481270,89.472150,72.205333,-13.931131
09930,-9.394585,3.004709,0.014302,-0.005953,0.016505,0.050699,-0.037680,-0.014365,-0.007883,-0.093945,0.030051,0.000131,1.000000,-0.000188,-0.000072,-0.000039,0.519564,0.615102,0.346548,-0.481255,89.417578,72.203949,-13.965620
09931,-9.470170,2.952467,0.011745,-0.075524,0.039137,0.106691,-0.055076,-0.014113,-0.009666,-0.094700,0.029529,0.000103,1.000000,-0.000275,-0.000071,-0.000048,0.519766,0.614914,0.346632,-0.481217,89.352737,72.203839,-14.000552
09932,-9.504970,2.888997,-0.015171,-0.137558,0.084863,0.120331,-0.056136,-0.009999,-0.013279,-0.095048,0.028896,-0.000165,1.000000,-0.000281,-0.000050,-0.000066,0.519956,0.614729,0.346741,-0.481171,89.295226,72.205550,-14.027048
09933,-9.443894,2.853598,0.007803,-0.156575,0.068472,0.051440,-0.027235,-0.016644,-0.012755,-0.094437,0.028542,0.000066,1.000000,-0.000136,-0.000083,-0.000064,0.520069,0.614601,0.346761,-0.481197,89.241744,72.207170,-14.066803
09934,-9.418667,2.881427,0.039830,-0.129880,0.031834,0.036050,-0.006628,-0.019994,-0.012037,-0.094185,0.028820,0.000388,1.000000,-0.000033,-0.000100,-0.000060,0.520127,0.614522,0.346721,-0.481264,89.194828,72.208077,-14.111945
09935,-9.275588,2.967758,0.193726,-0.042374,-0.145120,-0.073139,0.011062,-0.023478,-0.009140,-0.092755,0.029682,0.001928,1.000000,0.000055,-0.000117,-0.000046,0.520143,0.614484,0.346620,-0.481367,89.151171,72.207548,-14.164426
09936,-9.113010,3.137771,0.049719,0.196837,-0.052098,-0.176632,-0.009199,-0.016812,-0.005196,-0.091129,0.031380,0.000488,1.000000,-0.000046,-0.000084,-0.000026,0.520220,0.614418,0.346573,-0.481403,89.108532,72.204571,-14.203585
09937,-9.048083,3.281145,0.095860,0.338114,-0.130957,-0.194401,-0.031279,-0.006504,0.000367,-0.090481,0.032811,0.000951,1.000000,-0.000156,-0.000033,0.000002,0.520359,0.614328,0.346589,-0.481357,89.071195,72.198727,-14.223951
09938,-9.042895,3.315590,0.139515,0.361020,-0.179164,-0.188545,-0.037268,-0.004483,0.000312,-0.090429,0.033156,0.001387,1.000000,-0.000186,-0.000022,0.000002,0.520514,0.614227,0.346625,-0.481291,89.034718,72.192655,-14.239722
09939,-9.042903,3.315490,0.141389,0.360209,-0.178549,-0.188503,-0.073538,0.003654,-0.000816,-0.090429,0.033156,0.001403,1.000000,-0.000368,0.000018,-0.000004,0.520763,0.614049,0.346772,-0.481143,88.991283,72.187580,-14.241063
09940,-9.180543,3.227450,0.148071,0.235568,-0.152513,-0.084277,-0.110380,0.008388,0.011538,-0.091807,0.032270,0.001467,1.000000,-0.000552,0.000042,0.000058,0.521147,0.613809,0.346983,-0.480881,88.936248,72.175207,-14.232319
09941,-9.359305,3.186586,0.065445,0.162502,-0.046139,0.072992,-0.156441,0.020965,0.009469,-0.093594,0.031862,0.000639,1.000000,-0.000782,0.000105,0.000047,0.521645,0.613474,0.347343,-0.480510,88.876526,72.164430,-14.200872
09942,-9.509703,3.084366,0.057195,0.024027,-0.001442,0.184835,-0.173127,0.029943,0.005420,-0.095098,0.030842,0.000559,1.000000,-0.000866,0.000150,0.000027,0.522169,0.613111,0.347779,-0.480088,88.823771,72.155801,-14.151942
09943,-9.612968,3.058429,0.093859,-0.039463,-0.020463,0.275423,-0.175285,0.023147,0.002629,-0.096130,0.030584,0.000923,1.000000,-0.000876,0.000116,0.000013,0.522703,0.612719,0.348211,-0.479694,88.756914,72.148988,-14.116645
09944,-9.546571,3.076235,0.103061,-0.005143,-0.034028,0.217750,-0.192809,0.018612,-0.003332,-0.095465,0.030765,0.001010,1.000000,-0.000964,0.000093,-0.000017,0.523286,0.612260,0.348691,-0.479295,88.672430,72.145262,-14.089174
09945,-9.531610,3.054519,-0.004253,0.003658,0.078639,0.196084,-0.199985,0.019275,-0.007299,-0.095315,0.030549,-0.000064,0.999999,-0.001000,0.000096,-0.000036,0.523878,0.611776,0.349201,-0.478895,88.584157,72.144113,-14.061507
09946,-9.457510,3.015118,0.091221,-0.031146,-0.008157,0.114182,-0.157665,0.024210,-0.010533,-0.094573,0.030157,0.000900,1.000000,-0.000788,0.000121,-0.000053,0.524324,0.611410,0.349633,-0.478559,88.529375,72.144615,-14.024035
09947,-9.334195,3.213487,0.114075,0.184904,-0.079702,0.057782,-0.066257,0.043360,-0.003350,-0.093341,0.032137,0.001150,1.000000,-0.000331,0.000217,-0.000017,0.524474,0.611340,0.349874,-0.478308,88.560725,72.141566,-13.951189
09948,-9.151148,3.217173,0.268508,0.206977,-0.247385,-0.114143,0.004830,0.053350,0.016052,-0.091513,0.032164,0.002710,1.000000,0.000024,0.000267,0.000080,0.524437,0.611516,0.349912,-0.478096,88.652016,72.127224,-13.858026
09949,-8.979725,3.532300,0.216986,0.557182,-0.279346,-0.180907,0.043410,0.069465,0.042301,-0.089804,0.035304,0.002209,1.000000,0.000217,0.000347,0.000212,0.524315,0.611876,0.349820,-0.477837,88.794184,72.098290,-13.734748
09950,-8.863067,3.758749,0.060690,0.828404,-0.188002,-0.222890,0.018741,0.088386,0.073124,-0.088644,0.037555,0.000650,1.000000,0.000094,0.000442,0.000366,0.524310,0.612271,0.349741,-0.477393,88.956851,72.051514,-13.574952
09951,-8.806411,3.929532,0.167055,0.969829,-0.338014,-0.222736,0.043041,0.102691,0.099768,-0.088083,0.039251,0.001724,1.000000,0.000215,0.000513,0.000499,0.524267,0.612809,0.349561,-0.476881,89.157966,71.989751,-13.389414
09952,-8.736550,4.101466,0.145284,1.140631,-0.365260,-0.234799,0.039299,0.120859,0.139836,-0.087393,0.040953,0.001514,1.000000,0.000196,0.000604,0.000699,0.524302,0.613452,0.349314,-0.476198,89.388906,71.904589,-13.170018
09953,-8.724111,4.205278,0.005875,1.252330,-0.258390,-0.212720,-0.035110,0.134889,0.191685,-0.087281,0.041969,0.000110,0.999999,-0.000176,0.000674,0.000958,0.524661,0.614021,0.349122,-0.475208,89.599683,71.789891,-12.927007
09954,-8.848111,4.029517,-0.141602,1.060121,-0.074336,-0.147456,-0.078164,0.147246,0.240253,-0.088530,0.040188,-0.001367,0.999999,-0.000391,0.000736,0.001201,0.525247,0.614593,0.348913,-0.473974,89.805185,71.646699,-12.663267
09955,-9.043799,3.895784,-0.183981,0.856583,0.004081,-0.001090,-0.092289,0.159428,0.292961,-0.090496,0.038824,-0.001786,0.999999,-0.000461,0.000797,0.001465,0.525976,0.615244,0.348609,-0.472541,90.019268,71.473446,-12.381833
09956,-9.084316,3.812294,-0.085381,0.711703,-0.075848,0.013466,-0.063048,0.148597,0.340449,-0.090908,0.037968,-0.000798,0.999998,-0.000315,0.000743,0.001702,0.526748,0.616030,0.348058,-0.471063,90.227249,71.272188,-12.124088
09957,-9.080518,4.012241,-0.240748,0.892639,0.033180,0.077399,-0.082209,0.145875,0.389373,-0.090885,0.039945,-0.002358,0.999998,-0.000411,0.000729,0.001947,0.527694,0.616839,0.347394,-0.469432,90.413702,71.043110,-11.877283
09958,-8.979490,4.004312,-0.084702,0.842087,-0.124027,-0.017368,-0.084436,0.125448,0.425033,-0.089880,0.039852,-0.000808,0.999997,-0.000422,0.000627,0.002125,0.528765,0.617655,0.346569,-0.467760,90.560101,70.792956,-11.670959
09959,-8.679887,4.100189,0.163553,0.931248,-0.402923,-0.265488,-0.132178,0.126030,0.447001,-0.086889,0.040809,0.001663,0.999997,-0.000661,0.000630,0.002235,0.530029,0.618379,0.345788,-0.465947,90.674677,70.530574,-11.469246
09960,-8.755146,4.209606,-0.133844,1.025311,-0.122506,-0.152209,-0.323184,0.170174,0.464741,-0.087650,0.041890,-0.001332,0.999996,-0.001616,0.000851,0.002324,0.531848,0.618728,0.345510,-0.463613,90.746815,70.257032,-11.195960
09961,-9.036368,4.017999,-0.139618,0.709422,-0.054957,0.052061,-0.311501,0.219478,0.482973,-0.090462,0.039959,-0.001359,0.999995,-0.001558,0.001097,0.002415,0.533579,0.619246,0.345278,-0.461097,90.897591,69.973035,-10.845808
09962,-9.563263,4.161985,-0.237995,0.631524,0.048247,0.600446,-0.129129,0.200549,0.512695,-0.095741,0.041373,-0.002311,0.999996,-0.000646,0.001003,0.002563,0.534846,0.620254,0.344478,-0.458868,91.115160,69.671235,-10.535041
09963,-9.836433,4.433427,-0.272776,0.734581,0.044930,0.955002,0.043975,0.152862,0.559017,-0.098490,0.044060,-0.002643,0.999996,0.000220,0.000764,0.002795,0.535756,0.621689,0.343009,-0.456961,91.348949,69.343654,-10.312332
09964,-9.820600,4.741687,-0.034060,0.907774,-0.248707,1.052056,0.098486,0.060603,0.629446,-0.098355,0.047108,-0.000288,0.999995,0.000492,0.000303,0.003147,0.536814,0.623176,0.340945,-0.455235,91.466711,68.976145,-10.246442
09965,-9.344186,4.802673,0.119016,1.027869,-0.435576,0.634653,0.145331,0.027055,0.712620,-0.093612,0.047692,0.001238,0.999993,0.000727,0.000135,0.003563,0.537963,0.624844,0.338422,-0.453471,91.555090,68.562113,-10.240933
09966,-9.096685,4.629287,0.404065,0.822723,-0.691753,0.345428,0.171039,0.042140,0.773417,-0.091144,0.045937,0.004099,0.999992,0.000855,0.000211,0.003867,0.539140,0.626712,0.335684,-0.451528,91.675916,68.112336,-10.216154
09967,-9.130780,4.476309,0.145108,0.641983,-0.401995,0.329069,0.183590,0.061063,0.802411,-0.091486,0.044395,0.001520,0.999991,0.000918,0.000305,0.004012,0.540298,0.628692,0.332875,-0.449466,91.825772,67.646281,-10.167914
09968,-9.299603,4.334014,-0.045618,0.404333,-0.173391,0.437884,0.172114,0.092051,0.816897,-0.093172,0.042960,-0.000376,0.999991,0.000861,0.000460,0.004084,0.541467,0.630725,0.330121,-0.447235,92.007115,67.170568,-10.078107
09969,-9.529553,4.360385,-0.133024,0.271861,-0.074714,0.664093,0.150408,0.090300,0.809098,-0.095471,0.043219,-0.001255,0.999991,0.000752,0.000451,0.004045,0.542678,0.632670,0.327432,-0.444992,92.168479,66.699975,-9.996363
09970,-9.395376,4.390503,0.305603,0.174024,-0.514029,0.548196,0.119340,0.070531,0.802253,-0.094128,0.043526,0.003115,0.999992,0.000597,0.000353,0.004011,0.543997,0.634467,0.324772,-0.442766,92.282449,66.232938,-9.946434
09971,-9.212030,4.576838,0.227681,0.346534,-0.476633,0.459263,-0.059898,0.057658,0.795044,-0.092301,0.045402,0.002290,0.999992,-0.000299,0.000288,0.003975,0.545878,0.635723,0.322494,-0.440308,92.275258,65.771031,-9.916713
09972,-9.250473,4.595423,-0.120368,0.337564,-0.119327,0.510822,-0.203671,0.073137,0.817025,-0.092692,0.045575,-0.001216,0.999991,-0.001018,0.000366,0.004085,0.548233,0.636647,0.320497,-0.437496,92.204435,65.295458,-9.866114
09973,-9.562108,4.639721,0.069638,0.124430,-0.270453,0.811647,-0.183460,0.059404,0.834688,-0.095813,0.045998,0.000683,0.999991,-0.000917,0.000297,0.004173,0.550571,0.637611,0.318358,-0.434709,92.127541,64.810840,-9.834962
09974,-9.806324,4.718458,0.255146,-0.033768,-0.425064,1.064372,-0.187297,0.006836,0.836347,-0.098259,0.046776,0.002511,0.999991,-0.000936,0.000034,0.004182,0.553001,0.638444,0.316069,-0.432065,91.986618,64.325626,-9.871975
09975,-9.644887,4.576912,0.369344,-0.199040,-0.493302,0.856182,-0.176159,-0.047234,0.829950,-0.096639,0.045372,0.003631,0.999991,-0.000881,-0.000236,0.004150,0.555454,0.639165,0.313623,-0.429626,91.792023,63.845804,-9.976082
09976,-9.326025,4.595117,0.289298,-0.112019,-0.410670,0.579218,-0.177933,-0.079979,0.829997,-0.093451,0.045566,0.002815,0.999991,-0.000890,-0.000400,0.004150,0.557957,0.639802,0.311082,-0.427276,91.564308,63.365593,-10.116285
09977,-9.055110,4.567859,0.362107,-0.111538,-0.465227,0.324471,-0.162809,-0.096485,0.826135,-0.090740,0.045307,0.003540,0.999991,-0.000814,-0.000482,0.004131,0.560416,0.640426,0.308471,-0.425010,91.332941,62.888334,-10.271057
09978,-8.989193,4.689862,0.239863,-0.029713,-0.338970,0.323464,-0.201092,-0.100871,0.805913,-0.090081,0.046538,0.002306,0.999991,-0.001005,-0.000504,0.004030,0.562953,0.640893,0.305986,-0.422744,91.082028,62.421679,-10.423629
09979,-8.966551,4.662234,0.005683,-0.072230,-0.069229,0.293001,-0.306250,-0.107115,0.776331,-0.089846,0.046274,-0.000062,0.999991,-0.001531,-0.000536,0.003882,0.565762,0.640991,0.303798,-0.420417,90.771436,61.972433,-10.576359
09980,-8.964535,4.668581,0.070369,-0.150203,-0.093775,0.293331,-0.338160,-0.115164,0.751727,-0.089820,0.046349,0.000573,0.999991,-0.001691,-0.000576,0.003759,0.568626,0.640936,0.301725,-0.418124,90.441522,61.536202,-10.730734
09981,-8.945255,4.671594,-0.029515,-0.188672,0.045327,0.277111,-0.419581,-0.131294,0.742936,-0.089625,0.046382,-0.000451,0.999991,-0.002098,-0.000656,0.003715,0.571744,0.640588,0.299801,-0.415783,90.055420,61.105338,-10.896778
09982,-8.956943,4.652421,-0.157009,-0.254879,0.221753,0.276009,-0.448583,-0.148404,0.737182,-0.089739,0.046190,-0.001740,0.999990,-0.002243,-0.000742,0.003686,0.574960,0.640103,0.297899,-0.413456,89.643132,60.676474,-11.074306
09983,-8.970642,4.594778,-0.254435,-0.360457,0.376615,0.255917,-0.442492,-0.164985,0.732465,-0.089872,0.045613,-0.002720,0.999991,-0.002212,-0.000825,0.003662,0.578158,0.639579,0.295948,-0.411202,89.225590,60.250330,-11.262786
09984,-8.972820,4.599412,-0.180268,-0.438425,0.352060,0.256170,-0.397959,-0.191171,0.724687,-0.089892,0.045665,-0.001980,0.999991,-0.001990,-0.000956,0.003623,0.581227,0.639109,0.293847,-0.409108,88.815676,59.827020,-11.472568
09985,-8.852705,4.638491,-0.135940,-0.419708,0.338996,0.167937,-0.355756,-0.212299,0.712333,-0.088690,0.046067,-0.001536,0.999992,-0.001779,-0.001061,0.003562,0.584155,0.638686,0.291635,-0.407176,88.417015,59.410469,-11.698376
09986,-8.688093,4.666405,-0.017374,-0.399165,0.248404,0.038051,-0.308552,-0.223747,0.701035,-0.087043,0.046359,-0.000343,0.999992,-0.001543,-0.001119,0.003505,0.586918,0.638353,0.289322,-0.405371,88.042134,58.998748,-11.928819
09987,-8.575313,4.709616,-0.088641,-0.354777,0.346571,-0.041409,-0.303841,-0.236546,0.682144,-0.085912,0.046802,-0.001059,0.999992,-0.001519,-0.001183,0.003411,0.589634,0.637968,0.287020,-0.403668,87.664645,58.597478,-12.166587
09988,-8.466710,4.770326,-0.130908,-0.300591,0.414591,-0.107244,-0.311269,-0.248895,0.669755,-0.084824,0.047417,-0.001489,0.999992,-0.001556,-0.001244,0.003349,0.592360,0.637511,0.284729,-0.402019,87.278594,58.201524,-12.410298
09989,-8.347599,4.738479,-0.087548,-0.331205,0.410062,-0.228066,-0.337003,-0.245116,0.654181,-0.083629,0.047110,-0.001057,0.999992,-0.001685,-0.001226,0.003271,0.595120,0.636951,0.282549,-0.400365,86.887791,57.814385,-12.643388
09990,-8.279762,4.553533,-0.051208,-0.511964,0.437773,-0.387318,-0.372754,-0.235725,0.632183,-0.082940,0.045272,-0.000694,0.999993,-0.001864,-0.001179,0.003161,0.597929,0.636264,0.280532,-0.398686,86.491149,57.438673,-12.860002
09991,-8.111927,4.506318,-0.018665,-0.520877,0.437504,-0.558093,-0.368004,-0.233140,0.612080,-0.081256,0.044814,-0.000364,0.999993,-0.001840,-0.001166,0.003060,0.600668,0.635558,0.278575,-0.397065,86.104730,57.074393,-13.068707
09992,-8.078814,4.491545,-0.253729,-0.525841,0.710736,-0.608145,-0.376853,-0.209021,0.592939,-0.080918,0.044671,-0.002706,0.999993,-0.001884,-0.001045,0.002965,0.603358,0.634838,0.276763,-0.395401,85.739504,56.720709,-13.246809
09993,-8.153035,4.775620,-0.448893,-0.346888,0.921686,-0.404720,-0.381795,-0.196206,0.575749,-0.081663,0.047512,-0.004660,0.999994,-0.001909,-0.000981,0.002879,0.606001,0.634095,0.275052,-0.393741,85.386443,56.377402,-13.407750
09994,-8.238530,5.175316,-0.469654,-0.108762,0.951824,-0.119407,-0.375702,-0.207753,0.555586,-0.082524,0.051515,-0.004879,0.999994,-0.001879,-0.001039,0.002778,0.608595,0.633314,0.273353,-0.392178,85.030780,56.043953,-13.576573
09995,-8.194871,5.547805,-0.335253,0.151061,0.819706,0.053990,-0.394945,-0.215859,0.543770,-0.082095,0.055248,-0.003550,0.999994,-0.001975,-0.001079,0.002719,0.611228,0.632432,0.271703,-0.390649,84.660904,55.716799,-13.749986
09996,-8.077571,5.680510,-0.283710,0.268498,0.789346,0.031107,-0.454583,-0.217791,0.530866,-0.080923,0.056584,-0.003054,0.999993,-0.002273,-0.001089,0.002654,0.614021,0.631341,0.270199,-0.389076,84.259550,55.395704,-13.920736
09997,-7.874858,5.581950,-0.302675,0.257630,0.842083,-0.195655,-0.498213,-0.207753,0.511140,-0.078888,0.055610,-0.003247,0.999993,-0.002491,-0.001039,0.002556,0.616889,0.630097,0.268870,-0.387471,83.844311,55.086310,-14.078678
09998,-7.588439,5.350806,-0.378934,0.197291,0.949918,-0.570527,-0.537816,-0.179344,0.498148,-0.076014,0.053308,-0.004001,0.999993,-0.002689,-0.000897,0.002491,0.619812,0.628762,0.267742,-0.385753,83.433363,54.784931,-14.204187
09999,-7.452291,4.981052,-0.421957,-0.062210,1.052018,-0.901197,-0.534022,-0.130417,0.493300,-0.074643,0.049615,-0.004401,0.999993,-0.002670,-0.000652,0.002466,0.622637,0.627516,0.266771,-0.383901,83.066906,54.489667,-14.278325
10000,-7.502550,4.548534,-0.139509,-0.525000,0.852724,-1.095238,-0.385568,-0.080737,0.495776,-0.075137,0.045296,-0.001513,0.999995,-0.001928,-0.000404,0.002479,0.624929,0.626825,0.265657,-0.382074,82.828494,54.195733,-14.299790
10001,-7.754165,4.653336,0.131921,-0.663903,0.638123,-0.815473,-0.160044,-0.077805,0.485990,-0.077655,0.046346,0.001252,0.999997,-0.000800,-0.000389,0.002430,0.626485,0.626824,0.264151,-0.380569,82.721494,53.908068,-14.318662
10002,-7.659254,4.860661,0.241960,-0.500984,0.516590,-0.766653,-0.015458,-0.075371,0.481802,-0.076710,0.048422,0.002387,0.999997,-0.000077,-0.000377,0.002409,0.627573,0.627273,0.262389,-0.379253,82.699988,53.622455,-14.334292
10003,-7.542216,5.367668,0.321843,-0.081407,0.393102,-0.558546,0.093824,-0.072854,0.482595,-0.075553,0.053493,0.003216,0.999997,0.000469,-0.000364,0.002413,0.628312,0.628064,0.260423,-0.378073,82.742591,53.337070,-14.348141
10004,-7.500986,5.793763,0.485478,0.213682,0.199991,-0.326786,0.125423,-0.063884,0.485071,-0.075152,0.057752,0.004867,0.999997,0.000627,-0.000319,0.002425,0.628942,0.628973,0.258416,-0.376890,82.810701,53.050459,-14.352790
10005,-7.509157,6.217622,0.403483,0.512767,0.256015,-0.072030,0.068799,-0.045180,0.473300,-0.075239,0.061997,0.004039,0.999997,0.000344,-0.000226,0.002366,0.629698,0.629718,0.256611,-0.375616,82.858379,52.772353,-14.342406
10006,-7.455709,6.458630,0.277786,0.709131,0.364224,0.023113,-0.067428,-0.033302,0.458099,-0.074705,0.064416,0.002744,0.999997,-0.000337,-0.000167,0.002290,0.630836,0.630035,0.255144,-0.374169,82.835884,52.503249,-14.322070
10007,-7.413395,6.360389,0.451401,0.587857,0.211023,-0.054282,-0.188655,-0.015377,0.435590,-0.074273,0.063446,0.004448,0.999997,-0.000943,-0.000077,0.002178,0.632287,0.629969,0.254031,-0.372586,82.754604,52.248724,-14.288188
10008,-7.412452,5.992747,0.613146,0.235636,0.099974,-0.264508,-0.319749,0.003631,0.411971,-0.074248,0.059784,0.006037,0.999997,-0.001599,0.000018,0.002060,0.634080,0.629492,0.253294,-0.370843,82.610933,52.008539,-14.238083
10009,-7.406607,5.593288,0.592904,-0.106535,0.171926,-0.514667,-0.398614,0.006922,0.386698,-0.074174,0.055801,0.005820,0.999996,-0.001993,0.000035,0.001933,0.636064,0.628732,0.252792,-0.369072,82.421975,51.783556,-14.187942
10010,-7.280915,5.383866,0.537575,-0.217835,0.248119,-0.747502,-0.457954,0.014770,0.359954,-0.072906,0.053720,0.005258,0.999996,-0.002290,0.000074,0.001800,0.638171,0.627762,0.252506,-0.367278,82.203411,51.573961,-14.132061
10011,-7.169157,5.170812,0.382077,-0.323058,0.424816,-0.981202,-0.516077,0.042328,0.339887,-0.071779,0.051596,0.003703,0.999995,-0.002580,0.000212,0.001699,0.640382,0.626623,0.252476,-0.365391,81.969282,51.378575,-14.053342
10012,-7.140756,5.086633,0.327906,-0.389005,0.505488,-1.062556,-0.546015,0.064630,0.307834,-0.071485,0.050765,0.003163,0.999995,-0.002730,0.000323,0.001539,0.642595,0.625384,0.252670,-0.363489,81.731785,51.202891,-13.956774
10013,-7.097271,4.972597,0.228553,-0.460723,0.627771,-1.178814,-0.525693,0.068443,0.273953,-0.071040,0.049635,0.002179,0.999996,-0.002628,0.000342,0.001370,0.644670,0.624167,0.252943,-0.361712,81.504888,51.047466,-13.861301
10014,-7.069176,4.912184,0.412318,-0.532642,0.465878,-1.223624,-0.497913,0.117209,0.233389,-0.070747,0.049049,0.004042,0.999996,-0.002490,0.000586,0.001167,0.646519,0.623073,0.253447,-0.359941,81.324707,50.918944,-13.726031
10015,-7.020820,4.947762,0.673373,-0.521659,0.216528,-1.215790,-0.534169,0.181579,0.203575,-0.070252,0.049424,0.006665,0.999996,-0.002671,0.000908,0.001018,0.648340,0.621932,0.254315,-0.358021,81.164710,50.813634,-13.537700
10016,-7.273031,5.007981,0.754303,-0.651162,0.185023,-0.975971,-0.535186,0.246314,0.180529,-0.072766,0.050034,0.007499,0.999995,-0.002676,0.001232,0.000903,0.650035,0.620872,0.255464,-0.355965,81.047011,50.726957,-13.293798
10017,-7.600742,4.930958,0.668243,-0.914744,0.327245,-0.780062,-0.372649,0.200783,0.145815,-0.076037,0.049267,0.006667,0.999997,-0.001863,0.001004,0.000729,0.651216,0.620207,0.256282,-0.354373,80.986126,50.656527,-13.096509
10018,-7.521260,5.123869,0.663874,-0.726279,0.316905,-0.722242,-0.120023,0.141642,0.130500,-0.075241,0.051194,0.006661,0.999999,-0.000600,0.000708,0.000653,0.651661,0.620241,0.256506,-0.353333,81.027856,50.589093,-12.953580
10019,-7.476405,5.175871,1.145517,-0.721423,-0.174966,-0.677734,0.087452,0.130138,0.138611,-0.074792,0.051702,0.011526,0.999999,0.000437,0.000651,0.000693,0.651490,0.620937,0.256301,-0.352572,81.180327,50.516291,-12.820988
10020,-7.575743,5.153179,1.542182,-0.856863,-0.569134,-0.578659,0.219686,0.124196,0.117315,-0.075778,0.051470,0.015525,0.999999,0.001098,0.000621,0.000587,0.650878,0.622029,0.255909,-0.352063,81.402373,50.454400,-12.696348
10021,-7.757302,5.297136,1.405802,-0.856122,-0.430484,-0.363170,0.228068,0.090169,0.058419,-0.077582,0.052933,0.014153,0.999999,0.001140,0.000451,0.000292,0.650179,0.623008,0.255575,-0.351867,81.598750,50.423075,-12.611093
10022,-7.652214,5.899523,1.626912,-0.352499,-0.694496,-0.045344,0.118049,0.096274,-0.017785,-0.076509,0.058992,0.016341,1.000000,0.000590,0.000481,-0.000089,0.649680,0.623545,0.255691,-0.351754,81.729094,50.434979,-12.529767
10023,-7.637934,6.969535,2.123980,0.438412,-1.221188,0.663010,-0.134850,0.078899,-0.077598,-0.076344,0.069739,0.021223,1.000000,-0.000674,0.000394,-0.000388,0.649885,0.623150,0.256381,-0.351570,81.696091,50.479640,-12.472341
10024,-7.492165,7.551332,1.532333,1.056877,-0.650694,0.862643,-0.472033,-0.000026,-0.089304,-0.074888,0.075583,0.015145,0.999997,-0.002360,-0.000000,-0.000447,0.651220,0.621507,0.257444,-0.351232,81.414887,50.524060,-12.486275
10025,-7.629680,7.637038,1.165745,1.095216,-0.224362,0.987552,-0.775715,0.003964,-0.096875,-0.076260,0.076452,0.011363,0.999992,-0.003879,0.000020,-0.000484,0.653474,0.618863,0.259073,-0.350517,80.960725,50.573391,-12.498818
10026,-8.133731,6.708947,0.856750,0.111864,0.223861,0.762687,-0.928186,-0.069005,-0.114074,-0.081302,0.067175,0.008228,0.999989,-0.004641,-0.000345,-0.000570,0.656251,0.615561,0.260779,-0.349875,80.366985,50.625199,-12.578951
10027,-7.949427,5.707032,1.018054,-0.546619,0.102406,0.010268,-0.766940,-0.161969,-0.153052,-0.079459,0.057169,0.009897,0.999992,-0.003835,-0.000810,-0.000765,0.658573,0.612561,0.262014,-0.349855,79.795643,50.689696,-12.749494
10028,-7.924931,5.062650,0.579360,-0.974559,0.580701,-0.459431,-0.647785,-0.172852,-0.206125,-0.079202,0.050726,0.005561,0.999994,-0.003239,-0.000864,-0.001031,0.660442,0.609859,0.263163,-0.350190,79.277730,50.781560,-12.939042
10029,-7.364435,4.592911,0.452105,-0.963613,0.662727,-1.200706,-0.456001,-0.215538,-0.227235,-0.073597,0.046023,0.004337,0.999996,-0.002280,-0.001078,-0.001136,0.661739,0.607679,0.263897,-0.350978,78.835438,50.880019,-13.172503
10030,-7.185282,4.022471,0.380035,-1.272988,0.730265,-1.701024,-0.321087,-0.189692,-0.266189,-0.071803,0.040326,0.003668,0.999997,-0.001605,-0.000948,-0.001331,0.662519,0.605938,0.264597,-0.351988,78.481939,51.001930,-13.390838
10031,-7.156790,2.719804,0.605018,-2.274319,0.498164,-2.494062,-0.064893,-0.125872,-0.327469,-0.071527,0.027317,0.005996,0.999998,-0.000324,-0.000629,-0.001637,0.662328,0.605072,0.265242,-0.353350,78.308724,51.165270,-13.565645
10032,-7.767181,2.240371,2.479405,-3.145604,-1.272956,-2.067977,0.449155,-0.042109,-0.411805,-0.077631,0.022508,0.024828,0.999995,0.002246,-0.000211,-0.002059,0.660318,0.605943,0.265510,-0.355413,78.476173,51.385375,-13.680904
10033,-7.883770,3.129187,2.605374,-2.500994,-1.376116,-1.411206,0.536214,-0.130044,-0.475559,-0.078780,0.031409,0.026087,0.999993,0.002681,-0.000650,-0.002378,0.658040,0.606852,0.265522,-0.358068,78.621705,51.631695,-13.887461
10034,-7.311855,5.079471,2.645499,-0.587684,-1.500529,-0.665783,0.529328,-0.139723,-0.457195,-0.073021,0.050892,0.026539,0.999994,0.002647,-0.000699,-0.002286,0.655819,0.607738,0.265457,-0.360677,78.758807,51.866832,-14.099097
10035,-7.120442,7.027648,2.109874,1.155390,-1.007714,0.296199,0.152335,-0.179173,-0.410422,-0.071079,0.070406,0.021089,0.999997,0.000762,-0.000896,-0.002052,0.654876,0.607373,0.265797,-0.362750,78.656621,52.071397,-14.339605
10036,-6.760712,7.421073,1.228111,1.804723,-0.175465,0.137173,-0.348379,-0.172039,-0.404399,-0.067467,0.074368,0.012094,0.999996,-0.001742,-0.000860,-0.002022,0.655450,0.605386,0.267049,-0.364112,78.271422,52.272645,-14.574575
10037,-7.438842,7.076070,1.227976,1.177070,-0.033902,0.459995,-0.601495,-0.060349,-0.465941,-0.074227,0.070970,0.012044,0.999993,-0.003007,-0.000302,-0.002330,0.656522,0.602683,0.269311,-0.364998,77.809218,52.520697,-14.722945
10038,-8.142918,6.717869,1.661765,0.499472,-0.309831,0.857470,-0.748400,-0.064181,-0.527507,-0.081257,0.067455,0.016339,0.999989,-0.003742,-0.000321,-0.002638,0.657918,0.599398,0.272009,-0.365891,77.246377,52.801706,-14.891521
10039,-8.017899,6.017948,2.105129,0.037964,-0.725150,0.405243,-0.725289,-0.156957,-0.507342,-0.080042,0.060458,0.020770,0.999990,-0.003626,-0.000785,-0.002537,0.659395,0.596034,0.274293,-0.367022,76.626179,53.058563,-15.147959
10040,-7.590452,5.186234,2.113089,-0.329161,-0.764039,-0.416703,-0.757779,-0.208095,-0.459138,-0.075807,0.052116,0.020855,0.999990,-0.003789,-0.001040,-0.002296,0.661113,0.592524,0.276319,-0.368092,75.952788,53.279673,-15.446802
10041,-7.312575,4.107988,1.501029,-0.951897,-0.183691,-1.347335,-0.816013,-0.190176,-0.443041,-0.073049,0.041302,0.014773,0.999989,-0.004080,-0.000951,-0.002215,0.662995,0.588863,0.278458,-0.368970,75.256726,53.492453,-15.731469
10042,-7.217085,3.916930,1.192775,-0.987198,0.136896,-1.575102,-0.624155,-0.107710,-0.465292,-0.072086,0.039374,0.011766,0.999992,-0.003121,-0.000539,-0.002326,0.664144,0.585949,0.280577,-0.369937,74.723358,53.727767,-15.949769
10043,-7.596972,4.020245,1.351933,-1.082378,0.069534,-1.179757,-0.451315,0.004657,-0.492247,-0.075870,0.040420,0.013430,0.999994,-0.002257,0.000023,-0.002461,0.664570,0.583770,0.282825,-0.370904,74.363944,53.994289,-16.074591
10044,-7.857920,4.395139,1.412275,-0.877774,0.079633,-0.741764,-0.213043,0.033033,-0.494283,-0.078468,0.044160,0.014089,0.999996,-0.001065,0.000165,-0.002471,0.664251,0.582429,0.284728,-0.372126,74.159714,54.265850,-16.175965
10045,-7.730174,5.058950,1.854690,-0.236905,-0.346453,-0.399286,-0.071686,0.060082,-0.469765,-0.077177,0.050778,0.018552,0.999997,-0.000358,0.000300,-0.002349,0.663522,0.581637,0.286385,-0.373389,74.060575,54.528113,-16.247351
10046,-7.846379,5.188057,1.736455,-0.143651,-0.207880,-0.250634,-0.076141,0.052620,-0.473465,-0.078336,0.052073,0.017365,0.999997,-0.000381,0.000263,-0.002367,0.662808,0.580809,0.288035,-0.374677,73.951276,54.791057,-16.327839
10047,-7.847208,5.558697,1.870563,0.203706,-0.326887,-0.023497,-0.056358,0.068600,-0.500977,-0.078326,0.055789,0.018717,0.999997,-0.000282,0.000343,-0.002505,0.661957,0.580033,0.289779,-0.376036,73.858038,55.071704,-16.402273
10048,-7.937129,5.816554,1.523902,0.439115,0.040609,0.135069,-0.220852,0.072531,-0.526372,-0.079212,0.058391,0.015203,0.999996,-0.001104,0.000363,-0.002632,0.661525,0.578680,0.291917,-0.377226,73.666379,55.366737,-16.481533
10049,-8.033087,5.523382,1.978254,0.173409,-0.405978,0.124947,-0.120386,0.122282,-0.544787,-0.080168,0.055464,0.019798,0.999996,-0.000602,0.000611,-0.002724,0.660689,0.577720,0.294081,-0.378478,73.565702,55.679923,-16.519959
10050,-8.267977,5.614813,2.266483,0.166953,-0.651574,0.413249,-0.177882,0.096545,-0.567890,-0.082509,0.056403,0.022655,0.999995,-0.000889,0.000483,-0.002839,0.660009,0.576484,0.296332,-0.379792,73.404493,56.001434,-16.591580
10051,-7.823156,5.200656,1.623832,0.143977,-0.104949,-0.280981,-0.229952,0.030832,-0.557615,-0.078084,0.052243,0.016190,0.999995,-0.001150,0.000154,-0.002788,0.659589,0.574960,0.298434,-0.381182,73.159573,56.306455,-16.727807
10052,-7.894406,5.305308,1.787311,0.242905,-0.245573,-0.140933,-0.215496,0.103961,-0.552144,-0.078788,0.053290,0.017857,0.999995,-0.001077,0.000520,-0.002761,0.659024,0.573628,0.300731,-0.382360,72.981963,56.620260,-16.792722
10053,-7.767294,4.729815,1.389976,-0.108757,0.097359,-0.614181,-0.153414,0.088801,-0.538436,-0.077539,0.047518,0.013898,0.999996,-0.000767,0.000444,-0.002692,0.658324,0.572486,0.302817,-0.383629,72.828548,56.924035,-16.871014
10054,-7.734940,4.670256,1.582989,-0.103770,-0.110498,-0.640813,0.070688,0.163454,-0.487286,-0.077222,0.046885,0.015910,0.999997,0.000353,0.000817,-0.002436,0.656963,0.572299,0.304571,-0.384850,72.879008,57.212238,-16.859109
10055,-7.973637,4.190262,1.751126,-0.606026,-0.282067,-0.660821,0.275836,0.118985,-0.428715,-0.079636,0.042049,0.017617,0.999997,0.001379,0.000595,-0.002144,0.655191,0.572785,0.305614,-0.386318,73.025034,57.461015,-16.873355
10056,-8.022287,4.181080,1.640289,-0.605011,-0.192611,-0.640676,0.552504,0.098794,-0.377310,-0.080136,0.041916,0.016558,0.999994,0.002763,0.000494,-0.001887,0.652752,0.574213,0.305907,-0.388093,73.327164,57.678155,-16.890414
10057,-8.103894,4.403365,1.776317,-0.441308,-0.342366,-0.436873,0.739486,0.099730,-0.331327,-0.080957,0.044102,0.017967,0.999992,0.003697,0.000499,-0.001657,0.649853,0.576314,0.305704,-0.389997,73.750979,57.870359,-16.890242
10058,-8.106515,4.878603,1.964968,-0.031356,-0.559529,-0.165762,0.900666,0.069490,-0.281435,-0.080990,0.048811,0.019898,0.999989,0.004503,0.000347,-0.001407,0.646622,0.578946,0.304938,-0.392064,74.255750,58.030200,-16.903505
10059,-7.967909,4.965223,1.653907,0.138299,-0.321357,-0.286207,0.920774,0.027418,-0.227218,-0.079620,0.049666,0.016779,0.999989,0.004604,0.000137,-0.001136,0.643488,0.581629,0.303833,-0.394101,74.750104,58.153824,-16.942598
10060,-7.811412,4.640197,0.945285,-0.009938,0.300790,-0.682936,1.031107,0.034153,-0.196572,-0.078067,0.046429,0.009706,0.999986,0.005156,0.000171,-0.000983,0.640068,0.584714,0.302436,-0.396176,75.322811,58.261557,-16.963820
10061,-7.873095,4.131199,0.540125,-0.443294,0.656630,-0.940470,1.223687,0.051339,-0.177805,-0.078693,0.041348,0.005674,0.999981,0.006118,0.000257,-0.000889,0.636074,0.588457,0.300648,-0.398420,76.027399,58.361537,-16.959717
10062,-7.863228,3.509217,0.196702,-0.939204,0.943937,-1.303268,1.490562,0.084308,-0.157199,-0.078604,0.035138,0.002262,0.999972,0.007453,0.000422,-0.000786,0.631257,0.593118,0.298358,-0.400883,76.921664,58.454324,-16.912443
10063,-8.061509,3.686832,0.365043,-0.902391,0.731489,-1.017012,1.960966,0.162854,-0.123889,-0.080589,0.036880,0.004078,0.999951,0.009805,0.000814,-0.000619,0.624946,0.599426,0.295251,-0.403680,78.166690,58.537796,-16.769940
10064,-8.545361,4.945000,1.487153,-0.214509,-0.465776,0.158442,2.323226,0.172505,-0.071652,-0.085423,0.049303,0.015519,0.999932,0.011616,0.000863,-0.000358,0.617568,0.606892,0.291253,-0.406771,79.641294,58.591136,-16.601738
10065,-8.789564,6.396466,2.481929,0.716806,-1.649295,1.191618,2.346514,0.124813,0.009443,-0.087883,0.063663,0.025622,0.999931,0.011732,0.000624,0.000047,0.610269,0.614368,0.286774,-0.409736,81.100005,58.591873,-16.467837
10066,-8.839233,8.212234,2.687777,2.128418,-2.167979,2.169125,2.066482,0.049577,0.089922,-0.088422,0.081799,0.027746,0.999946,0.010332,0.000248,0.000450,0.604028,0.620876,0.282357,-0.412234,82.339321,58.539066,-16.402980
10067,-8.772492,9.485785,2.302135,3.229123,-2.084996,2.735632,1.459382,-0.010410,0.148223,-0.087796,0.094621,0.023708,0.999973,0.007297,-0.000052,0.000741,0.599828,0.625459,0.278806,-0.413853,83.180216,58.448249,-16.397402
10068,-8.749383,9.724352,1.668022,3.500305,-1.589779,2.801472,0.749647,-0.050910,0.156235,-0.087574,0.097112,0.017022,0.999993,0.003748,-0.000255,0.000781,0.597901,0.627819,0.276567,-0.414570,83.576218,58.349946,-16.436681
10069,-8.689092,8.619134,0.939377,2.706779,-0.765670,2.135505,0.064077,-0.094660,0.130501,-0.086952,0.086132,0.009380,1.000000,0.000320,-0.000473,0.000653,0.598128,0.627999,0.275698,-0.414550,83.536052,58.263769,-16.527006
10070,-8.602923,6.970441,0.002143,1.530848,0.380451,1.146737,-0.376024,-0.116494,0.078855,-0.086057,0.069670,-0.000160,0.999998,-0.001880,-0.000582,0.000394,0.599659,0.626744,0.275835,-0.414144,83.218748,58.205007,-16.646709
10071,-8.629460,5.386633,-0.349447,0.249036,0.970960,0.316508,-0.547964,-0.097209,0.027885,-0.086300,0.053844,-0.003684,0.999996,-0.002740,-0.000486,0.000139,0.601592,0.624940,0.276546,-0.413593,82.815706,58.176568,-16.751507
10072,-8.880065,4.481498,-0.270083,-0.652104,1.076105,0.057926,-0.476112,-0.079053,-0.015264,-0.088796,0.044815,-0.002843,0.999997,-0.002381,-0.000395,-0.000076,0.603184,0.623326,0.277294,-0.413209,82.465748,58.173199,-16.842225
10073,-9.162023,4.448781,0.148061,-0.891852,0.737736,0.307418,-0.316846,-0.086849,-0.031768,-0.091614,0.044505,0.001370,0.999999,-0.001584,-0.000434,-0.000159,0.604252,0.622150,0.277741,-0.413121,82.197863,58.178766,-16.943820
10074,-9.304605,4.621084,0.745484,-0.918795,0.173125,0.560917,-0.203103,-0.091494,-0.022602,-0.093044,0.046229,0.007365,0.999999,-0.001016,-0.000457,-0.000113,0.604992,0.621320,0.277909,-0.413174,81.992120,58.178177,-17.048915
10075,-9.388520,5.276921,0.966374,-0.441395,-0.087588,0.991087,-0.114539,-0.119312,-0.009180,-0.093889,0.052779,0.009578,1.000000,-0.000573,-0.000597,-0.000046,0.605521,0.620718,0.277770,-0.413398,81.813361,58.167911,-17.182040
10076,-9.353323,6.128520,1.136781,0.270769,-0.332714,1.419036,-0.197869,-0.182085,-0.007185,-0.093541,0.061300,0.011222,0.999999,-0.000989,-0.000910,-0.000036,0.606400,0.619737,0.277604,-0.413692,81.530037,58.150688,-17.382018
10077,-9.118559,6.391697,1.178603,0.611572,-0.406632,1.361010,-0.250954,-0.236441,-0.020279,-0.091193,0.063941,0.011598,0.999999,-0.001255,-0.001182,-0.000101,0.607489,0.618462,0.277425,-0.414122,81.165105,58.135933,-17.642354
10078,-9.032856,6.842776,1.304038,1.027529,-0.547772,1.534580,-0.386960,-0.293986,-0.061049,-0.090327,0.068480,0.012775,0.999997,-0.001935,-0.001470,-0.000305,0.608993,0.616596,0.277476,-0.414661,80.664249,58.137642,-17.970940
10079,-8.520890,6.196133,1.191713,0.777827,-0.392556,0.754158,-0.683837,-0.360728,-0.092855,-0.085201,0.062041,0.011551,0.999992,-0.003419,-0.001804,-0.000464,0.611431,0.613636,0.278037,-0.415088,79.927524,58.149352,-18.376992
10080,-8.184495,5.719483,0.577533,0.671394,0.272208,0.162614,-0.817175,-0.350451,-0.110501,-0.081823,0.057263,0.005398,0.999990,-0.004086,-0.001752,-0.000553,0.614218,0.610255,0.278952,-0.415343,79.120403,58.168780,-18.775850
10081,-7.976271,5.254634,0.477657,0.421315,0.448999,-0.269069,-0.970057,-0.299522,-0.106589,-0.079741,0.052611,0.004402,0.999987,-0.004850,-0.001498,-0.000533,0.617393,0.606502,0.280325,-0.415210,78.271750,58.189092,-19.120474
10082,-7.965803,4.719471,0.194837,0.034409,0.830996,-0.589164,-0.777171,-0.236312,-0.068804,-0.079644,0.047229,0.001671,0.999992,-0.003886,-0.001182,-0.000344,0.619962,0.603515,0.281370,-0.415027,77.597590,58.192963,-19.389710
10083,-8.233557,5.208307,0.457657,0.289970,0.631935,-0.084183,-0.531733,-0.172756,0.001042,-0.082340,0.052094,0.004367,0.999996,-0.002659,-0.000864,0.000005,0.621835,0.601512,0.281891,-0.414779,77.135346,58.164764,-19.575138
10084,-8.421398,5.750735,0.988507,0.584568,0.145751,0.414971,-0.352284,-0.168470,0.071787,-0.084243,0.057494,0.009713,0.999998,-0.001761,-0.000842,0.000359,0.623308,0.600172,0.281836,-0.414546,76.795292,58.096529,-19.737800
10085,-8.430825,6.032288,1.301289,0.769306,-0.141526,0.605982,-0.287787,-0.199047,0.158247,-0.084369,0.060275,0.012842,0.999998,-0.001439,-0.000995,0.000791,0.624806,0.599089,0.281294,-0.414227,76.484144,57.975976,-19.910167
10086,-8.087443,5.872619,1.470175,0.766954,-0.322866,0.255242,-0.298836,-0.192238,0.213594,-0.080951,0.058662,0.014536,0.999998,-0.001494,-0.000961,0.001068,0.626441,0.598061,0.280627,-0.413695,76.186672,57.824602,-20.059120
10087,-7.954392,5.607572,1.310213,0.614462,-0.138329,-0.012837,-0.379377,-0.147123,0.243951,-0.079622,0.056003,0.012937,0.999997,-0.001897,-0.000736,0.001220,0.628311,0.596913,0.280177,-0.412820,75.891227,57.662623,-20.151418
10088,-8.067567,5.346044,1.256325,0.325813,-0.014256,-0.058832,-0.451267,-0.107548,0.248614,-0.080749,0.053388,0.012399,0.999997,-0.002256,-0.000538,0.001243,0.630347,0.595625,0.279983,-0.411707,75.592272,57.502906,-20.199189
10089,-8.226716,5.439831,1.240139,0.313614,0.066141,0.122386,-0.590220,-0.097137,0.230138,-0.082336,0.054340,0.012201,0.999995,-0.002951,-0.000486,0.001151,0.632738,0.593888,0.280162,-0.410425,75.220033,57.355268,-20.239586
10090,-8.100059,5.126318,1.147260,0.111839,0.188174,-0.160835,-0.678253,-0.030650,0.210675,-0.081056,0.051216,0.011286,0.999994,-0.003391,-0.000153,0.001053,0.635252,0.591976,0.280784,-0.408876,74.852084,57.227609,-20.214944
10091,-8.196561,4.744526,1.583773,-0.327177,-0.177168,-0.217689,-0.610215,0.085210,0.206849,-0.082008,0.047409,0.015728,0.999995,-0.003051,0.000426,0.001034,0.637384,0.590504,0.281646,-0.407091,74.622193,57.120104,-20.072426
10092,-8.634022,4.227269,1.140029,-0.947593,0.371170,-0.185638,-0.509063,0.173693,0.197201,-0.086372,0.042216,0.011368,0.999996,-0.002545,0.000868,0.000986,0.639069,0.589515,0.282607,-0.405210,74.523714,57.031148,-19.842181
10093,-8.706381,4.455843,0.771100,-0.761643,0.747493,-0.060184,-0.304830,0.142028,0.185486,-0.087100,0.044489,0.007705,0.999998,-0.001524,0.000710,0.000927,0.640168,0.589094,0.283088,-0.403750,74.511837,56.944425,-19.648035
10094,-8.397881,5.536422,0.647893,0.312558,0.793466,0.230660,-0.178338,0.111406,0.186228,-0.084027,0.055292,0.006476,0.999999,-0.000892,0.000557,0.000931,0.640938,0.589017,0.283212,-0.402552,74.546335,56.852156,-19.484799
10095,-8.185008,6.881232,0.877138,1.522118,0.514178,0.795509,-0.298767,0.099056,0.186649,-0.081910,0.068749,0.008709,0.999998,-0.001494,0.000495,0.000933,0.642078,0.588527,0.283537,-0.401221,74.500792,56.758210,-19.334632
10096,-8.078933,7.333886,1.062776,1.927782,0.332135,0.974238,-0.587688,0.094274,0.175235,-0.080849,0.073299,0.010450,0.999995,-0.002938,0.000471,0.000876,0.644050,0.587081,0.284457,-0.399524,74.283226,56.669548,-19.192016
10097,-8.263962,6.991790,0.849222,1.554590,0.621319,0.915611,-0.783872,0.102912,0.161182,-0.082692,0.069884,0.008261,0.999992,-0.003919,0.000515,0.000806,0.646547,0.584991,0.285836,-0.397567,73.957070,56.590822,-19.044742
10098,-8.448386,6.350379,0.636426,0.926198,0.912068,0.695295,-0.844931,0.085834,0.165759,-0.084534,0.063460,0.006132,0.999991,-0.004225,0.000429,0.000829,0.649247,0.582668,0.287261,-0.395547,73.583574,56.506799,-18.912086
10099,-8.519335,5.409013,0.627666,0.080677,0.969984,0.251255,-0.803633,0.051782,0.186345,-0.085242,0.054035,0.006082,0.999991,-0.004018,0.000259,0.000932,0.651903,0.580429,0.288430,-0.393615,73.210647,56.406915,-18.807050
10100,-8.241242,4.429527,0.921096,-0.640460,0.649383,-0.455591,-0.643210,0.036003,0.203259,-0.082456,0.044241,0.009083,0.999994,-0.003216,0.000180,0.001016,0.654141,0.578700,0.289177,-0.391895,72.921895,56.294916,-18.711136
10101,-8.133613,3.897382,1.050196,-1.058573,0.510525,-0.808971,-0.398674,0.056277,0.214453,-0.081375,0.038907,0.010447,0.999997,-0.001993,0.000281,0.001072,0.655658,0.577820,0.289478,-0.390435,72.792458,56.180953,-18.592041
10102,-8.329152,4.177325,1.440050,-0.968794,0.177754,-0.435674,-0.163602,0.043018,0.198661,-0.083330,0.041702,0.014384,0.999999,-0.000818,0.000215,0.000993,0.656482,0.577662,0.289320,-0.389399,72.783214,56.072967,-18.490211
10103,-8.192557,4.603108,1.748150,-0.574926,-0.134319,-0.272561,-0.048345,0.034135,0.182627,-0.081965,0.045960,0.017484,1.000000,-0.000242,0.000171,0.000913,0.656953,0.577838,0.288956,-0.388612,72.827871,55.972734,-18.402928
10104,-8.264988,5.154984,2.138607,-0.191652,-0.490121,0.146256,0.027790,0.036497,0.164055,-0.082688,0.051479,0.021408,1.000000,0.000139,0.000182,0.000820,0.657166,0.578244,0.288504,-0.387985,72.913487,55.882554,-18.318731
10105,-8.211890,6.072174,2.056276,0.600618,-0.389811,0.580676,-0.099226,0.032151,0.147264,-0.082160,0.060671,0.020546,1.000000,-0.000496,0.000161,0.000736,0.657717,0.578198,0.288333,-0.387246,72.917842,55.801260,-18.244735
10106,-8.199449,6.484711,2.067359,0.942800,-0.377774,0.795083,-0.320408,0.035541,0.145667,-0.082038,0.064820,0.020584,0.999998,-0.001602,0.000178,0.000728,0.658900,0.577429,0.288604,-0.386179,72.798182,55.720980,-18.167349
10107,-8.244866,6.773954,2.244589,1.144615,-0.505431,1.019520,-0.539312,0.001808,0.134673,-0.082494,0.067744,0.022264,0.999996,-0.002697,0.000009,0.000673,0.660737,0.575853,0.289219,-0.384931,72.523088,55.641577,-18.126264
10108,-7.983961,6.718562,2.019086,1.251243,-0.283576,0.737816,-0.801015,-0.038011,0.130080,-0.079887,0.067214,0.019907,0.999992,-0.004005,-0.000190,0.000650,0.663371,0.573324,0.290214,-0.383426,72.066210,55.557363,-18.123680
10109,-7.923975,6.317562,1.505399,0.976263,0.257004,0.382783,-1.045623,-0.070688,0.129346,-0.079286,0.063202,0.014696,0.999986,-0.005228,-0.000353,0.000647,0.666734,0.569905,0.291566,-0.381658,71.443813,55.468231,-18.151918
10110,-7.842927,5.637741,1.196705,0.463555,0.578827,-0.108186,-1.145680,-0.099412,0.129051,-0.078471,0.056394,0.011605,0.999983,-0.005728,-0.000497,0.000645,0.670406,0.566082,0.293004,-0.379810,70.743457,55.373167,-18.205194
10111,-7.794798,4.697118,1.117348,-0.299181,0.647851,-0.671531,-1.071644,-0.100545,0.133747,-0.077985,0.046978,0.010883,0.999985,-0.005358,-0.000503,0.000669,0.673856,0.562491,0.294276,-0.378052,70.087258,55.275575,-18.256470
10112,-7.799552,3.814098,1.007801,-1.044858,0.734439,-1.166027,-0.860812,-0.104116,0.150704,-0.078029,0.038125,0.009873,0.999990,-0.004304,-0.000521,0.000754,0.676735,0.559618,0.295081,-0.376542,69.556050,55.167289,-18.302663
10113,-7.772086,3.548137,0.761752,-1.256215,0.982067,-1.384624,-0.602679,-0.102110,0.161585,-0.077753,0.035441,0.007471,0.999995,-0.003013,-0.000511,0.000808,0.678898,0.557628,0.295375,-0.375369,69.178305,55.053937,-18.342175
10114,-7.890127,3.889665,1.152887,-1.052158,0.677844,-1.029397,-0.309132,-0.090940,0.162209,-0.078938,0.038850,0.011433,0.999998,-0.001546,-0.000455,0.000811,0.680224,0.556654,0.295150,-0.374590,68.978971,54.941923,-18.369243
10115,-7.971441,4.868244,1.493744,-0.294667,0.474610,-0.370080,-0.173676,-0.093101,0.158275,-0.079760,0.048632,0.014858,0.999999,-0.000868,-0.000466,0.000791,0.681166,0.556128,0.294675,-0.374034,68.854443,54.832023,-18.399799
10116,-7.768212,5.690593,1.531552,0.490759,0.502246,-0.087438,-0.201310,-0.091647,0.147804,-0.077731,0.056864,0.015223,0.999999,-0.001007,-0.000458,0.000739,0.682163,0.555496,0.294285,-0.373464,68.713141,54.727520,-18.431536
10117,-7.777833,6.072597,1.981074,0.787878,0.126639,0.220205,-0.292009,-0.084315,0.126082,-0.077825,0.060706,0.019689,0.999999,-0.001460,-0.000422,0.000630,0.683357,0.554533,0.294150,-0.372817,68.518940,54.636540,-18.464464
10118,-7.763807,6.389945,1.542738,1.059068,0.621595,0.285826,-0.553054,-0.113359,0.097654,-0.077678,0.063904,0.015207,0.999996,-0.002765,-0.000567,0.000488,0.685262,0.552581,0.294478,-0.371958,68.146288,54.553980,-18.532859
10119,-7.718195,5.929734,1.560971,0.698073,0.592650,0.002105,-0.756405,-0.094835,0.074673,-0.077211,0.059327,0.015349,0.999993,-0.003782,-0.000474,0.000373,0.687651,0.549925,0.295309,-0.370827,67.664372,54.487796,-18.592421
10120,-7.903958,5.177927,1.407058,-0.029817,0.739951,-0.288264,-0.834065,-0.116542,0.055568,-0.079062,0.051815,0.013808,0.999991,-0.004170,-0.000583,0.000278,0.690239,0.546926,0.296255,-0.369695,67.117635,54.426119,-18.677012
10121,-7.959642,4.343451,1.382901,-0.754392,0.713492,-0.699205,-0.713382,-0.107959,0.041183,-0.079613,0.043467,0.013631,0.999993,-0.003567,-0.000540,0.000206,0.692446,0.544328,0.297045,-0.368768,66.642064,54.374021,-18.759177
10122,-7.907333,3.749290,1.440427,-1.219260,0.600876,-1.048543,-0.461726,-0.113363,0.036179,-0.079088,0.037512,0.014273,0.999997,-0.002309,-0.000567,0.000181,0.693962,0.542581,0.297361,-0.368238,66.306504,54.322503,-18.846550
10123,-7.685030,3.687418,1.611188,-1.147257,0.404719,-1.223586,-0.176193,-0.089009,0.041894,-0.076865,0.036872,0.016045,0.999999,-0.000881,-0.000445,0.000209,0.694673,0.541874,0.297221,-0.368051,66.153852,54.273870,-18.910186
10124,-7.470153,3.980984,1.885085,-0.785879,0.146409,-1.177531,0.098995,-0.052220,0.066171,-0.074720,0.039776,0.018851,1.000000,0.000495,-0.000261,0.000331,0.694630,0.542228,0.296636,-0.368083,66.194358,54.220583,-18.930163
10125,-7.639229,4.634120,2.148950,-0.343469,0.008372,-0.629398,0.308928,-0.039142,0.088754,-0.076417,0.046274,0.021546,0.999999,0.001545,-0.000196,0.000444,0.694038,0.543366,0.295648,-0.368317,66.371028,54.158895,-18.930543
10126,-7.784189,5.426415,2.408937,0.220467,-0.124443,-0.026044,0.455866,-0.033447,0.114485,-0.077877,0.054165,0.024200,0.999997,0.002279,-0.000167,0.000572,0.693083,0.545062,0.294338,-0.368658,66.644538,54.084611,-18.915343
10127,-7.855223,6.096648,2.373540,0.713992,-0.012167,0.385218,0.517768,-0.041581,0.160511,-0.078606,0.060842,0.023877,0.999996,0.002589,-0.000208,0.000803,0.692051,0.547020,0.292759,-0.368954,66.960643,53.984587,-18.891287
10128,-7.904713,6.521573,2.788199,1.007910,-0.380835,0.752745,0.551941,-0.067808,0.214965,-0.079127,0.065053,0.028035,0.999996,0.002760,-0.000339,0.001075,0.691059,0.549125,0.290874,-0.369176,67.293832,53.849498,-18.870316
10129,-7.772495,6.672566,2.461205,1.170272,-0.094919,0.656966,0.461642,-0.106553,0.263125,-0.077826,0.066566,0.024724,0.999996,0.002308,-0.000533,0.001316,0.690454,0.550910,0.288888,-0.369208,67.559990,53.680747,-18.868232
10130,-7.845100,6.458096,2.256304,0.914003,0.073764,0.555655,0.436682,-0.136382,0.286807,-0.078559,0.064419,0.022650,0.999996,0.002183,-0.000682,0.001434,0.690001,0.552586,0.286777,-0.369197,67.797108,53.492495,-18.884485
10131,-7.850949,6.218904,2.140983,0.674143,0.145951,0.405926,0.441827,-0.200265,0.291080,-0.078621,0.062027,0.021468,0.999996,0.002209,-0.001001,0.001455,0.689626,0.554161,0.284423,-0.369357,67.991191,53.288694,-18.958037
10132,-7.674295,5.772975,1.796428,0.373294,0.389706,-0.057798,0.387727,-0.220927,0.290925,-0.076847,0.057583,0.017991,0.999996,0.001939,-0.001105,0.001455,0.689427,0.555510,0.282094,-0.369490,68.139937,53.080198,-19.049730
10133,-7.655787,5.124435,1.867064,-0.187767,0.241208,-0.417833,0.425831,-0.199896,0.282382,-0.076649,0.051096,0.018703,0.999996,0.002129,-0.000999,0.001412,0.689069,0.557009,0.279791,-0.369650,68.321950,52.881365,-19.127314
10134,-7.495421,4.669623,2.120813,-0.510663,-0.093357,-0.745439,0.455119,-0.156767,0.243781,-0.075028,0.046556,0.021255,0.999996,0.002276,-0.000784,0.001219,0.688494,0.558635,0.277686,-0.369856,68.540571,52.711865,-19.180237
10135,-7.363982,4.415144,2.478911,-0.685522,-0.505954,-0.916580,0.434565,-0.068162,0.202087,-0.073693,0.044023,0.024860,0.999997,0.002173,-0.000341,0.001010,0.687771,0.560288,0.276040,-0.369932,68.796534,52.583705,-19.171431
10136,-7.490448,4.832792,2.774708,-0.451236,-0.740005,-0.516966,0.224457,-0.005043,0.157739,-0.074943,0.048238,0.027799,0.999999,0.001122,-0.000025,0.000789,0.687466,0.561276,0.275121,-0.369688,68.964265,52.491802,-19.122151
10137,-7.557323,5.402398,3.030713,-0.047551,-0.924454,-0.085027,-0.120328,0.047204,0.110454,-0.075596,0.054000,0.030292,1.000000,-0.000602,0.000236,0.000552,0.687966,0.561106,0.275153,-0.368989,68.957165,52.436348,-19.044132
10138,-7.735351,6.444869,3.261466,0.694820,-0.994159,0.701014,-0.628502,0.128637,0.077027,-0.077357,0.064521,0.032462,0.999995,-0.003143,0.000643,0.000385,0.689717,0.559292,0.276494,-0.367471,68.707180,52.415250,-18.905190
10139,-8.192410,6.783870,2.873616,0.735498,-0.444205,1.171644,-1.010229,0.116260,0.047537,-0.081924,0.067963,0.028441,0.999987,-0.005051,0.000581,0.000238,0.692483,0.556085,0.278572,-0.365560,68.221330,52.408267,-18.787837
10140,-8.076724,7.164414,2.654271,1.138330,-0.140924,1.245851,-1.147643,0.084260,0.048796,-0.080774,0.071775,0.026165,0.999983,-0.005738,0.000421,0.000244,0.695660,0.552331,0.280777,-0.363526,67.635676,52.393891,-18.697077
10141,-8.333269,6.763912,2.029580,0.690392,0.548649,1.074679,-1.369197,0.085153,0.032002,-0.083335,0.067763,0.019868,0.999976,-0.006846,0.000426,0.000160,0.699388,0.547761,0.283424,-0.361228,66.918449,52.389717,-18.612137
10142,-8.383181,5.673959,2.026226,-0.206983,0.488629,0.497263,-1.263599,0.042817,-0.020655,-0.083822,0.056875,0.019921,0.999980,-0.006318,0.000214,-0.000103,0.702762,0.543387,0.285863,-0.359358,66.217957,52.403678,-18.582463
10143,-8.362262,4.957917,2.215913,-0.749929,0.261660,0.126493,-1.289278,-0.014609,-0.111775,-0.083596,0.049767,0.021833,0.999979,-0.006446,-0.000073,-0.000559,0.706094,0.538665,0.288384,-0.357919,65.435093,52.452565,-18.638151
10144,-7.917582,3.809137,2.192289,-1.398632,0.068240,-0.866032,-1.169773,0.009590,-0.168746,-0.079143,0.038286,0.021703,0.999983,-0.005849,0.000048,-0.000844,0.708942,0.534308,0.290917,-0.356769,64.718874,52.535936,-18.696114
10145,-7.588370,3.314373,2.057528,-1.585007,0.084033,-1.429227,-0.855728,0.100541,-0.209320,-0.075839,0.033311,0.020471,0.999990,-0.004279,0.000503,-0.001047,0.710725,0.531150,0.293314,-0.355972,64.229013,52.662872,-18.695536
10146,-7.586349,2.557068,1.947586,-2.179803,0.066770,-1.867354,-0.442418,0.113152,-0.218651,-0.075824,0.025697,0.019462,0.999997,-0.002212,0.000566,-0.001093,0.711368,0.529465,0.295041,-0.355771,63.980978,52.797337,-18.688681
10147,-7.382319,2.299592,1.960968,-2.253514,-0.033382,-2.160714,0.033697,0.092339,-0.204485,-0.073791,0.023068,0.019648,0.999999,0.000168,0.000462,-0.001022,0.710803,0.529453,0.295809,-0.356281,63.995331,52.919721,-18.694864
10148,-7.131891,2.750221,2.672182,-1.699930,-0.698263,-1.926576,0.457646,0.152259,-0.179424,-0.071274,0.027505,0.026839,0.999997,0.002288,0.000761,-0.000897,0.709069,0.531092,0.295966,-0.357165,64.302858,53.043835,-18.638114
10149,-7.131983,4.105427,3.221862,-0.561057,-1.015986,-1.051811,0.568158,0.216674,-0.160371,-0.071252,0.041020,0.032412,0.999995,0.002841,0.001083,-0.000802,0.706973,0.533260,0.296103,-0.357975,64.725052,53.174086,-18.517220
10150,-7.554684,4.921835,2.187932,-0.161433,0.165473,-0.537389,0.474824,0.218415,-0.184786,-0.075477,0.049236,0.022079,0.999996,0.002374,0.001092,-0.000924,0.705076,0.535061,0.296474,-0.358722,65.089169,53.316640,-18.402306
10151,-7.563438,6.165350,2.273078,0.871592,0.249375,0.165384,0.563945,0.235048,-0.190314,-0.075549,0.061661,0.022993,0.999995,0.002820,0.001175,-0.000952,0.702898,0.537192,0.296757,-0.359576,65.515578,53.465866,-18.273600
10152,-7.537805,7.078686,3.073627,1.672991,-0.430343,0.835750,0.437361,0.172674,-0.146163,-0.075300,0.070774,0.030956,0.999997,0.002187,0.000863,-0.000731,0.701227,0.538829,0.296927,-0.360249,65.841802,53.576513,-18.179526
10153,-7.658558,6.605428,2.994385,1.220599,-0.440795,0.654753,0.155397,0.152934,-0.116268,-0.076524,0.066075,0.030054,0.999999,0.000777,0.000765,-0.000581,0.700395,0.539482,0.297454,-0.360453,66.002374,53.666971,-18.090643
10154,-8.068100,5.150944,2.503647,-0.212477,-0.136451,0.078263,0.071863,0.106111,-0.163921,-0.080625,0.051567,0.025098,0.999999,0.000359,0.000531,-0.000820,0.699773,0.539689,0.298095,-0.360822,66.067564,53.771001,-18.060827
10155,-7.583910,5.227446,2.217918,0.130658,0.056887,-0.339530,0.051892,0.008836,-0.197820,-0.075786,0.052344,0.022196,0.999999,0.000259,0.000044,-0.000989,0.699287,0.539598,0.298524,-0.361546,66.040533,53.870531,-18.131120
10156,-7.037342,5.242543,2.136795,0.460259,0.030997,-0.792625,0.141913,0.047818,-0.140950,-0.070331,0.052460,0.021422,0.999999,0.000710,0.000239,-0.000705,0.698603,0.539977,0.298772,-0.362096,66.111562,53.948977,-18.143816
10157,-7.497037,4.089237,2.480416,-0.734858,-0.409085,-0.959863,0.155353,0.105654,-0.111514,-0.074934,0.040915,0.024876,0.999999,0.000777,0.000528,-0.000558,0.697848,0.540551,0.299119,-0.362410,66.241047,54.025766,-18.093749
10158,-8.267584,2.274518,3.182949,-2.644790,-1.245315,-1.145982,0.383101,0.130419,-0.186673,-0.082634,0.022761,0.031927,0.999998,0.001916,0.000652,-0.000933,0.696303,0.541851,0.299340,-0.363256,66.496101,54.147228,-18.049822
10159,-8.040665,3.865987,2.955972,-1.194045,-0.849512,-0.528914,0.459520,0.044065,-0.233265,-0.080355,0.038686,0.029666,0.999997,0.002298,0.000220,-0.001166,0.694590,0.543186,0.299248,-0.364614,66.717653,54.273807,-18.101240
10160,-7.357346,5.274039,2.701748,0.360622,-0.543701,-0.388263,0.317129,0.027268,-0.185345,-0.073521,0.052766,0.027111,0.999998,0.001586,0.000136,-0.000927,0.693375,0.544066,0.299225,-0.365634,66.861085,54.371164,-18.148316
10161,-7.490565,6.118202,2.442673,0.997746,-0.165603,0.111256,0.155872,0.067035,-0.190828,-0.074839,0.061234,0.024500,0.999999,0.000779,0.000335,-0.000954,0.692526,0.544449,0.299649,-0.366324,66.939496,54.480695,-18.161683
10162,-7.705664,5.572146,1.697668,0.431605,0.511524,-0.176290,0.026980,0.089894,-0.262039,-0.076976,0.055820,0.017019,0.999999,0.000135,0.000449,-0.001310,0.691863,0.544322,0.300581,-0.367003,66.938899,54.632574,-18.181345
10163,-7.869859,5.427639,1.833590,0.249438,0.375721,-0.088876,0.123764,0.150847,-0.310376,-0.078600,0.054387,0.018429,0.999998,0.000619,0.000754,-0.001552,0.690753,0.544565,0.301678,-0.367831,67.023629,54.823935,-18.164389
10164,-7.848719,4.949054,1.849810,-0.110640,0.275356,-0.355987,0.083113,0.118980,-0.317265,-0.078398,0.049607,0.018565,0.999998,0.000416,0.000595,-0.001586,0.689789,0.544599,0.302757,-0.368703,67.059685,55.011462,-18.178478
10165,-7.408086,3.594845,1.838712,-0.980782,0.010545,-1.432866,0.207362,0.118643,-0.303978,-0.074015,0.036042,0.018468,0.999998,0.001037,0.000593,-0.001520,0.688507,0.545078,0.303569,-0.369720,67.170823,55.192247,-18.187803
10166,-7.283578,2.801285,1.967983,-1.560315,-0.263641,-1.921776,0.553129,0.153050,-0.276667,-0.072782,0.028059,0.019813,0.999995,0.002766,0.000765,-0.001383,0.686279,0.546850,0.303783,-0.371070,67.516370,55.365899,-18.152933
10167,-7.185003,2.923149,0.941511,-1.402053,0.708539,-2.158431,0.719276,0.122613,-0.264988,-0.071805,0.029292,0.009564,0.999992,0.003596,0.000613,-0.001325,0.683654,0.549145,0.303550,-0.372713,67.938872,55.526920,-18.140293
10168,-7.251522,3.429875,1.168407,-0.996701,0.517507,-1.784468,1.012783,0.264996,-0.247877,-0.072457,0.034328,0.011954,0.999986,0.005064,0.001325,-0.001239,0.680025,0.552724,0.303202,-0.374341,68.648337,55.708695,-17.983731
10169,-7.882476,3.636500,1.891845,-1.155363,-0.120146,-1.004344,1.246425,0.294854,-0.226183,-0.078755,0.036335,0.019261,0.999979,0.006232,0.001474,-0.001131,0.675720,0.557166,0.302448,-0.376156,69.525933,55.883957,-17.786076
10170,-8.109123,3.294413,1.911002,-1.569117,-0.207459,-0.994680,1.713875,0.259224,-0.224889,-0.081029,0.032869,0.019497,0.999962,0.008569,0.001296,-0.001124,0.670131,0.563089,0.300673,-0.378749,70.649188,56.049427,-17.615573
10171,-8.297253,3.206723,2.259752,-1.766765,-0.608114,-0.827031,2.173127,0.178255,-0.236695,-0.082914,0.031917,0.023019,0.999940,0.010865,0.000891,-0.001183,0.663281,0.570324,0.297761,-0.382265,71.972649,56.204541,-17.521177
10172,-8.012140,3.112655,1.790395,-1.697735,-0.285094,-1.203141,2.575724,0.047084,-0.267957,-0.080076,0.031000,0.018323,0.999916,0.012878,0.000235,-0.001340,0.655324,0.578516,0.293691,-0.386801,73.417590,56.352980,-17.558240
10173,-7.899811,4.544318,2.195226,-0.481620,-0.769189,-0.482547,2.916383,0.056504,-0.277917,-0.078929,0.045226,0.022635,0.999893,0.014581,0.000283,-0.001390,0.646223,0.587716,0.288966,-0.391771,75.068835,56.508985,-17.581878
10174,-7.925171,7.062542,2.856641,1.527005,-1.575596,0.959062,2.731699,-0.017035,-0.226118,-0.079175,0.070316,0.029522,0.999906,0.013658,-0.000085,-0.001131,0.637743,0.596132,0.284154,-0.396442,76.569948,56.626112,-17.658581
10175,-7.622722,9.332537,3.118043,3.506148,-2.131648,1.938220,2.131224,-0.034577,-0.078738,-0.076196,0.093016,0.032160,0.999943,0.010656,-0.000173,-0.000394,0.631273,0.602719,0.279995,-0.399784,77.744488,56.659719,-17.714298
10176,-7.534500,10.630861,2.592397,4.650537,-1.842333,2.495090,1.154510,-0.014951,0.085828,-0.075393,0.106124,0.026531,0.999983,0.005773,-0.000075,0.000429,0.628002,0.606448,0.277332,-0.401150,78.406655,56.603686,-17.713440
10177,-8.008571,9.949725,2.058534,3.860939,-1.272379,2.469244,0.359441,0.019712,0.163211,-0.080165,0.099395,0.020772,0.999998,0.001797,0.000099,0.000816,0.627237,0.607845,0.276134,-0.401058,78.655311,56.508345,-17.662224
10178,-8.656837,8.512063,1.481142,2.371477,-0.515608,2.174807,-0.184727,0.012907,0.166920,-0.086638,0.085062,0.014738,0.999999,-0.000924,0.000065,0.000835,0.628142,0.607527,0.275992,-0.400221,78.586715,56.409668,-17.617436
10179,-9.076423,6.590460,1.189942,0.569563,-0.019057,1.452601,-0.495060,-0.023073,0.123458,-0.090806,0.065878,0.011726,0.999997,-0.002475,-0.000115,0.000617,0.629949,0.606098,0.276491,-0.399202,78.302726,56.331774,-17.617815
10180,-9.064549,5.018801,1.033284,-0.722463,0.248540,0.571836,-0.455673,-0.030463,0.052944,-0.090660,0.050187,0.010205,0.999997,-0.002278,-0.000152,0.000265,0.631504,0.604679,0.277097,-0.398477,78.023302,56.292045,-17.639747
10181,-9.049688,4.718508,0.828859,-0.936709,0.484521,0.372398,-0.324896,-0.037923,-0.009709,-0.090496,0.047203,0.008195,0.999999,-0.001624,-0.000190,-0.000049,0.632544,0.603567,0.277610,-0.398155,77.801478,56.286978,-17.682600
10182,-9.023054,5.066934,0.922238,-0.637036,0.386406,0.549972,-0.159458,-0.019798,-0.048218,-0.090219,0.050698,0.009173,1.000000,-0.000797,-0.000099,-0.000241,0.632984,0.602961,0.277965,-0.398126,77.682732,56.305147,-17.715415
10183,-9.027280,5.519955,1.247626,-0.294208,0.055913,0.837597,-0.084869,-0.048676,-0.057482,-0.090260,0.055231,0.012431,1.000000,-0.000424,-0.000243,-0.000287,0.633219,0.602520,0.278110,-0.398320,77.580611,56.325380,-17.779673
10184,-8.831595,5.196877,1.148636,-0.442816,0.143309,0.488154,-0.065010,-0.070122,-0.061956,-0.088304,0.052000,0.011438,1.000000,-0.000325,-0.000351,-0.000310,0.633416,0.602094,0.278158,-0.398617,77.471017,56.344965,-17.866500
10185,-8.683273,5.099101,0.896681,-0.408115,0.375928,0.281678,0.068609,-0.066270,-0.076229,-0.086816,0.051021,0.008956,1.000000,0.000343,-0.000331,-0.000381,0.633175,0.602077,0.277998,-0.399136,77.438357,56.373384,-17.952919
10186,-8.533204,5.225567,0.886664,-0.214644,0.351950,0.224162,0.207782,-0.048969,-0.114096,-0.085304,0.052295,0.008900,0.999999,0.001039,-0.000245,-0.000570,0.632417,0.602483,0.277726,-0.399914,77.492915,56.424736,-18.030259
10187,-8.463627,5.842947,0.944409,0.341703,0.245762,0.506602,0.271486,-0.069927,-0.135567,-0.084600,0.058474,0.009494,0.999999,0.001357,-0.000350,-0.000678,0.631450,0.603017,0.277327,-0.400913,77.562127,56.485959,-18.133820
10188,-7.946977,5.866725,1.211600,0.607900,-0.107923,0.120070,-0.037494,-0.103743,-0.126953,-0.079439,0.058720,0.012064,1.000000,-0.000187,-0.000519,-0.000635,0.631480,0.602519,0.277412,-0.401555,77.427225,56.537734,-18.269729
10189,-7.391353,4.983524,0.936852,0.204880,0.121900,-0.852306,-0.254825,-0.062179,-0.106480,-0.073890,0.049886,0.009282,0.999999,-0.001274,-0.000311,-0.000532,0.632145,0.601446,0.278005,-0.401707,77.206296,56.583461,-18.359488
10190,-7.670633,5.254109,0.402366,0.368748,0.698483,-0.540024,-0.325840,0.034217,-0.091051,-0.076682,0.052582,0.003951,0.999999,-0.001629,0.000171,-0.000455,0.632921,0.600362,0.278995,-0.401419,77.029119,56.632293,-18.348004
10191,-8.238227,5.741319,0.836674,0.437504,0.356571,0.247760,-0.208526,0.099445,-0.083984,-0.082354,0.057456,0.008348,0.999999,-0.001043,0.000497,-0.000420,0.633265,0.599789,0.279937,-0.401078,76.975612,56.686017,-18.269007
10192,-8.600751,6.479070,1.214597,0.830606,0.018113,0.991769,-0.035356,0.021528,-0.054088,-0.085989,0.064816,0.012144,1.000000,-0.000177,0.000108,-0.000270,0.633260,0.599650,0.280193,-0.401115,76.961252,56.712583,-18.261869
10193,-8.425956,7.029436,1.714392,1.326259,-0.518534,1.201894,-0.170444,-0.036212,0.020157,-0.084270,0.070300,0.017069,1.000000,-0.000852,-0.000181,0.000101,0.633888,0.599070,0.280317,-0.400904,76.834863,56.690652,-18.296215
10194,-8.093752,6.813789,1.855436,1.298458,-0.682240,0.828161,-0.372016,-0.064638,0.108919,-0.080981,0.068128,0.018401,0.999998,-0.001860,-0.000323,0.000545,0.635338,0.597918,0.280486,-0.400210,76.587035,56.614936,-18.337637
10195,-8.000410,6.578840,1.257353,1.216841,-0.064055,0.549922,-0.524162,-0.075515,0.156286,-0.080060,0.065758,0.012371,0.999996,-0.002621,-0.000378,0.000781,0.637347,0.596323,0.280783,-0.399185,76.252993,56.511745,-18.378014
10196,-8.081478,6.510690,1.061316,1.133124,0.190751,0.555785,-0.616795,-0.084138,0.158694,-0.080871,0.065075,0.010378,0.999995,-0.003084,-0.000421,0.000793,0.639645,0.594415,0.281226,-0.398041,75.860483,56.405338,-18.424839
10197,-8.145957,6.285721,1.345455,0.869820,-0.024631,0.527515,-0.598332,-0.084366,0.180438,-0.081522,0.062823,0.013232,0.999995,-0.002992,-0.000422,0.000902,0.641924,0.592589,0.281566,-0.396854,75.484010,56.287202,-18.465239
10198,-8.290129,5.900123,1.533024,0.439390,-0.129490,0.467284,-0.650143,-0.098776,0.209115,-0.082970,0.058964,0.015098,0.999994,-0.003251,-0.000494,0.001046,0.644428,0.590603,0.281872,-0.395536,75.073785,56.150333,-18.510518
10199,-8.496843,5.310115,1.587602,-0.182668,-0.093376,0.329891,-0.657468,-0.096081,0.218713,-0.085034,0.053060,0.015661,0.999994,-0.003287,-0.000480,0.001094,0.646959,0.588603,0.282172,-0.394168,74.665108,56.008974,-18.549022
10200,-8.710516,4.821469,1.288634,-0.689920,0.279962,0.198594,-0.499961,-0.084483,0.205894,-0.087160,0.048157,0.012729,0.999996,-0.002500,-0.000422,0.001029,0.648981,0.587114,0.282231,-0.393022,74.354971,55.875737,-18.577501
10201,-8.791696,5.086966,1.433717,-0.537656,0.179794,0.429638,-0.268736,-0.070444,0.183709,-0.087969,0.050808,0.014238,0.999999,-0.001344,-0.000352,0.000919,0.650255,0.586366,0.281948,-0.392235,74.184328,55.757448,-18.597621
10202,-8.699190,5.723227,1.991302,-0.019480,-0.361943,0.782835,-0.215420,-0.053726,0.160140,-0.087043,0.057184,0.019828,0.999999,-0.001077,-0.000269,0.000801,0.651303,0.585792,0.281681,-0.391546,74.053096,55.654176,-18.606973
10203,-8.498630,5.945651,2.452738,0.223027,-0.826715,0.810878,-0.405213,-0.029179,0.143210,-0.085032,0.059445,0.024395,0.999998,-0.002026,-0.000146,0.000716,0.652836,0.584620,0.281916,-0.390575,73.829194,55.564663,-18.596923
10204,-8.229800,5.786253,2.395864,0.238144,-0.790589,0.495982,-0.622471,0.051212,0.095867,-0.082320,0.057897,0.023800,0.999995,-0.003112,0.000256,0.000479,0.654795,0.582826,0.282971,-0.389211,73.534883,55.513576,-18.521212
10205,-8.308746,5.599975,0.936782,0.163952,0.687406,0.225891,-0.715611,0.109641,0.063496,-0.083100,0.056007,0.009213,0.999993,-0.003578,0.000548,0.000317,0.656869,0.580787,0.284493,-0.387650,73.226271,55.490636,-18.398142
10206,-8.262925,6.401448,1.698081,0.808657,-0.013647,0.745896,-0.712150,0.062634,0.031280,-0.082634,0.064062,0.016779,0.999994,-0.003561,0.000313,0.000156,0.658933,0.578617,0.285941,-0.386327,72.874669,55.477321,-18.329550
10207,-7.931287,6.411179,1.690054,1.006605,-0.017676,0.475704,-0.881182,0.046280,0.032543,-0.079319,0.064173,0.016636,0.999990,-0.004406,0.000231,0.000163,0.661497,0.575849,0.287656,-0.384804,72.413440,55.461377,-18.276533
10208,-8.086924,6.133449,1.327286,0.721669,0.408079,0.389845,-0.914036,0.051808,0.054109,-0.080882,0.061372,0.013013,0.999989,-0.004570,0.000259,0.000271,0.664179,0.573003,0.289381,-0.383134,71.943620,55.434258,-18.210996
10209,-8.182904,5.242741,1.121634,-0.063543,0.627261,-0.050172,-0.765287,0.052056,0.077928,-0.081847,0.052438,0.011037,0.999993,-0.003826,0.000260,0.000390,0.666466,0.570675,0.290752,-0.381597,71.565425,55.395121,-18.137744
10210,-8.145002,4.670738,1.063744,-0.523163,0.673744,-0.402017,-0.494836,0.023192,0.100161,-0.081472,0.046693,0.010531,0.999997,-0.002474,0.000116,0.000501,0.668061,0.569221,0.291441,-0.380453,71.325824,55.338241,-18.084263
10211,-7.906202,4.499387,1.240646,-0.552614,0.464124,-0.660043,-0.264194,0.005991,0.124694,-0.079090,0.044961,0.012349,0.999999,-0.001321,0.000030,0.000623,0.669066,0.568536,0.291566,-0.379614,71.211286,55.265607,-18.039431
10212,-7.709709,4.848985,1.315690,-0.165647,0.388144,-0.620016,-0.133631,0.004529,0.125956,-0.077127,0.048450,0.013126,1.000000,-0.000668,0.000023,0.000630,0.669705,0.568288,0.291431,-0.378961,71.171083,55.191464,-17.995068
10213,-7.884609,5.487023,1.287979,0.263738,0.494654,-0.136991,-0.071523,0.003709,0.139666,-0.078884,0.054820,0.012862,1.000000,-0.000358,0.000019,0.000698,0.670192,0.568264,0.291140,-0.378359,71.169109,55.110333,-17.947508
10214,-8.137057,5.921648,1.458398,0.469714,0.406991,0.337103,-0.094125,-0.000957,0.149465,-0.081415,0.059163,0.014556,1.000000,-0.000471,-0.000005,0.000747,0.670771,0.568171,0.290844,-0.377700,71.153384,55.022444,-17.900818
10215,-8.024937,5.965505,1.496833,0.552861,0.365714,0.276313,-0.273362,-0.026338,0.147899,-0.080295,0.059616,0.014876,0.999999,-0.001367,-0.000132,0.000739,0.671889,0.567424,0.290809,-0.376861,71.014630,54.931311,-17.878964
10216,-8.055280,5.349456,1.797383,-0.000067,0.051535,0.022561,-0.339382,-0.012617,0.129756,-0.080589,0.053473,0.017878,0.999998,-0.001697,-0.000063,0.000649,0.673141,0.566455,0.290993,-0.375943,70.844449,54.852002,-17.849210
10217,-8.195431,5.200786,1.951054,-0.211828,-0.064732,0.085331,-0.383768,-0.013198,0.091785,-0.081979,0.052008,0.019405,0.999998,-0.001919,-0.000066,0.000459,0.674443,0.565277,0.291367,-0.375092,70.638146,54.793780,-17.832565
10218,-8.185225,5.155788,1.803966,-0.240953,0.096586,0.024330,-0.410962,-0.010976,0.060740,-0.081869,0.051570,0.017929,0.999998,-0.002055,-0.000055,0.000304,0.675760,0.563965,0.291883,-0.374295,70.410218,54.752197,-17.823255
10219,-8.005408,4.651113,1.905664,-0.565165,-0.055950,-0.377201,-0.429870,0.014834,0.042067,-0.080062,0.046535,0.018963,0.999998,-0.002149,0.000074,0.000210,0.677053,0.562605,0.292576,-0.373463,70.185900,54.726284,-17.796308
10220,-8.115571,4.104927,2.267195,-1.087022,-0.423552,-0.512577,-0.320696,0.030659,0.015153,-0.081155,0.041079,0.022619,0.999999,-0.001603,0.000153,0.000076,0.677964,0.561606,0.293190,-0.372831,70.029232,54.717435,-17.763059
10221,-7.987398,4.458925,2.266352,-0.716706,-0.402823,-0.424346,-0.206925,0.009818,-0.009091,-0.079871,0.044616,0.022621,0.999999,-0.001035,0.000049,-0.000045,0.678538,0.560914,0.293592,-0.372511,69.914839,54.718166,-17.757925
10222,-7.583201,5.596048,1.815468,0.467224,0.086283,-0.226716,-0.251640,-0.016569,0.000404,-0.075834,0.055983,0.018078,0.999999,-0.001258,-0.000083,0.000002,0.679295,0.560037,0.293959,-0.372162,69.757707,54.708053,-17.773708
10223,-7.459326,6.626247,1.876253,1.397733,0.126555,0.242126,-0.419662,-0.023158,0.021661,-0.074603,0.066294,0.018615,0.999998,-0.002098,-0.000116,0.000108,0.680568,0.558605,0.294557,-0.371516,69.505063,54.685707,-17.788622
10224,-7.536738,6.773071,1.832852,1.482723,0.236598,0.374639,-0.645997,-0.046244,0.035920,-0.075384,0.067776,0.018092,0.999995,-0.003230,-0.000231,0.000180,0.682530,0.556378,0.295453,-0.370545,69.109870,54.650425,-17.819258
10225,-7.674549,6.056901,1.597179,0.816113,0.468001,0.048875,-0.811959,-0.088163,0.051167,-0.076768,0.060613,0.015692,0.999992,-0.004060,-0.000441,0.000256,0.685033,0.553520,0.296469,-0.369393,68.592586,54.598760,-17.883083
10226,-7.683097,5.055126,1.432853,-0.020990,0.569275,-0.522229,-0.782793,-0.130366,0.061464,-0.076856,0.050583,0.014080,0.999992,-0.003914,-0.000652,0.000307,0.687528,0.550692,0.297251,-0.368354,68.064658,54.531725,-17.980474
10227,-7.581877,4.609985,1.422058,-0.336403,0.553743,-0.849478,-0.666209,-0.143452,0.083866,-0.075848,0.046115,0.014013,0.999994,-0.003331,-0.000717,0.000419,0.689750,0.548265,0.297710,-0.367448,67.601225,54.450108,-18.080838
10228,-7.648803,4.637835,1.100932,-0.356427,0.922997,-0.854637,-0.557583,-0.161569,0.093524,-0.076519,0.046373,0.010818,0.999996,-0.002788,-0.000808,0.000468,0.691715,0.546190,0.297875,-0.366711,67.191175,54.358351,-18.192159
10229,-7.747075,4.906375,1.369383,-0.190235,0.751665,-0.573444,-0.422588,-0.162738,0.097946,-0.077506,0.049054,0.013527,0.999997,-0.002113,-0.000814,0.000490,0.693314,0.544581,0.297777,-0.366165,66.859696,54.264180,-18.302144
10230,-7.970733,5.465568,1.494956,0.146669,0.781329,-0.065491,-0.355885,-0.159872,0.072179,-0.079739,0.054653,0.014789,0.999998,-0.001779,-0.000799,0.000361,0.694678,0.543168,0.297633,-0.365794,66.561924,54.183298,-18.417786
10231,-7.839689,5.605680,1.499037,0.332060,0.805379,-0.098137,-0.362276,-0.139272,0.045586,-0.078420,0.056066,0.014834,0.999998,-0.001811,-0.000696,0.000228,0.695976,0.541728,0.297645,-0.365452,66.267357,54.121322,-18.525084
10232,-7.887676,5.496287,1.438440,0.211525,0.889508,-0.134999,-0.394732,-0.133132,0.030576,-0.078895,0.054979,0.014223,0.999998,-0.001974,-0.000666,0.000153,0.697324,0.540164,0.297776,-0.365092,65.955029,54.067736,-18.631421
10233,-7.917237,5.172921,1.740223,-0.068454,0.585153,-0.214617,-0.351524,-0.142870,0.037219,-0.079194,0.051745,0.017255,0.999998,-0.001758,-0.000714,0.000186,0.698577,0.538738,0.297777,-0.364803,65.662594,54.008627,-18.743850
10234,-7.456196,4.396106,2.667414,-0.437248,-0.493219,-0.779349,-0.275493,-0.142570,0.044367,-0.074591,0.043981,0.026560,0.999999,-0.001377,-0.000713,0.000222,0.699638,0.537589,0.297617,-0.364594,65.417483,53.945000,-18.851722
10235,-7.109740,4.377497,2.137259,-0.273643,-0.023413,-1.198555,-0.314888,-0.147545,0.035120,-0.071121,0.043796,0.021251,0.999998,-0.001574,-0.000738,0.000176,0.700791,0.536276,0.297539,-0.364377,65.143174,53.885257,-18.967873
10236,-7.347015,4.906335,2.038338,0.031167,0.226804,-0.748851,-0.312917,-0.105675,0.002116,-0.073481,0.049094,0.020268,0.999999,-0.001565,-0.000528,0.000011,0.701816,0.534998,0.297689,-0.364160,64.889971,53.851936,-19.059364
10237,-7.716534,5.374983,2.303115,0.224958,0.142482,-0.134427,-0.320282,-0.088307,-0.013957,-0.077172,0.053792,0.022911,0.999999,-0.001601,-0.000442,-0.000070,0.702802,0.533698,0.297957,-0.363946,64.639170,53.831485,-19.142679
10238,-7.791865,5.366615,1.839831,0.166897,0.631739,-0.196469,-0.442483,-0.079001,-0.015279,-0.077922,0.053713,0.018249,0.999997,-0.002212,-0.000395,-0.000076,0.704097,0.531983,0.298481,-0.363524,64.325285,53.813237,-19.217437
10239,-7.919416,4.652042,2.047836,-0.484642,0.359423,-0.421831,-0.311877,-0.046768,-0.022217,-0.079194,0.046561,0.020387,0.999999,-0.001559,-0.000234,-0.000111,0.704980,0.530773,0.298900,-0.363239,64.106127,53.806931,-19.267545
10240,-8.088697,4.336705,2.279384,-0.828309,0.125956,-0.393151,-0.038230,-0.019581,-0.038196,-0.080881,0.043387,0.022778,1.000000,-0.000191,-0.000098,-0.000191,0.705067,0.530554,0.298959,-0.363341,64.058103,53.815081,-19.299897
10241,-8.415341,4.605951,2.532327,-0.777593,-0.011310,0.078755,0.267170,-0.020949,-0.042938,-0.084146,0.046044,0.025376,0.999999,0.001336,-0.000105,-0.000215,0.704336,0.531399,0.298472,-0.363925,64.181827,53.825864,-19.336233
10242,-8.494654,5.006970,2.699172,-0.490371,-0.106250,0.398219,0.542325,-0.043453,-0.016943,-0.084948,0.050003,0.027109,0.999996,0.002712,-0.000217,-0.000085,0.702952,0.533211,0.297332,-0.364881,64.456816,53.817236,-19.380502
10243,-8.251516,5.677020,2.810351,0.187054,-0.179661,0.586676,0.685490,-0.083724,0.058368,-0.082544,0.056649,0.028263,0.999994,0.003427,-0.000419,0.000292,0.701376,0.535557,0.295589,-0.365894,64.809962,53.760355,-19.429566
10244,-8.013951,6.481256,2.813542,0.958028,-0.139251,0.827269,0.769734,-0.120373,0.138436,-0.080201,0.064648,0.028336,0.999992,0.003849,-0.000602,0.000692,0.699766,0.538245,0.293342,-0.366839,65.212066,53.652746,-19.477848
10245,-7.768933,7.121559,2.464479,1.585756,0.209552,0.891884,0.682052,-0.178428,0.171626,-0.077772,0.071064,0.024818,0.999993,0.003410,-0.000892,0.000858,0.698527,0.540558,0.290961,-0.367695,65.532341,53.514642,-19.565440
10246,-7.599317,6.957491,2.265188,1.508381,0.316789,0.623388,0.585062,-0.232891,0.190565,-0.076086,0.069436,0.022767,0.999995,0.002925,-0.001164,0.000953,0.697657,0.542455,0.288512,-0.368482,65.764880,53.353512,-19.693273
10247,-7.427400,6.333610,2.037708,1.056480,0.400918,0.094693,0.430912,-0.261146,0.186320,-0.074360,0.063223,0.020416,0.999996,0.002155,-0.001306,0.000932,0.697230,0.543749,0.286258,-0.369139,65.887270,53.188735,-19.848586
10248,-7.327946,5.285451,1.953982,0.220850,0.316079,-0.576665,0.289917,-0.212350,0.160657,-0.073343,0.052767,0.019538,0.999998,0.001450,-0.001062,0.000803,0.697067,0.544605,0.284501,-0.369543,65.955930,53.048368,-19.970418
10249,-7.499045,4.133336,2.004818,-0.846358,0.147698,-1.060472,0.303576,-0.150412,0.108107,-0.075028,0.041262,0.020054,0.999998,0.001518,-0.000752,0.000541,0.696677,0.545543,0.283080,-0.369986,66.058634,52.950624,-20.059580
10250,-7.412241,3.604134,2.306005,-1.251416,-0.235770,-1.349407,0.349595,-0.078234,0.056926,-0.074142,0.035980,0.023094,0.999998,0.001748,-0.000391,0.000285,0.695964,0.546704,0.281960,-0.370468,66.222666,52.895999,-20.105052
10251,-7.321426,3.723367,2.606666,-1.116144,-0.539287,-1.284803,0.245586,0.002276,0.022435,-0.073218,0.037193,0.026113,0.999999,0.001228,0.000011,0.000112,0.695355,0.547599,0.281410,-0.370709,66.371568,52.878642,-20.094748
10252,-7.389038,4.281245,2.817040,-0.703128,-0.669874,-0.872915,0.116371,0.082720,-0.004114,-0.073878,0.042798,0.028226,1.000000,0.000582,0.000414,-0.000021,0.694938,0.548159,0.281449,-0.370634,66.494817,52.893140,-20.023810
10253,-7.549838,5.159262,2.983836,-0.072920,-0.696750,-0.219433,-0.062732,0.089619,-0.014218,-0.075481,0.051607,0.029856,1.000000,-0.000314,0.000448,-0.000071,0.694982,0.548092,0.281874,-0.370328,66.516611,52.914970,-19.951394
10254,-7.694708,6.070947,3.350233,0.598839,-0.903208,0.488505,-0.360567,0.106446,-0.018500,-0.076924,0.060777,0.033434,0.999998,-0.001803,0.000532,-0.000092,0.695810,0.547016,0.282917,-0.369566,66.378751,52.942454,-19.865247
