// General information: 
//  MT Manager version: 2022.0.0 
//  XDA version: 2022.0.0 build 7085 rev 119802 built on 2022-11-08
// Device information: 
//  DeviceId: 00B472EC
//  ProductCode: MTW2-3A7G6
//  Firmware Version: 4.4.0
//  Hardware Version: 2.0.0
// Device settings: 
//  Filter Profile: human(46.1)
//  Option Flags: Orientation Smoother Disabled, Position/Velocity Smoother Disabled, Continuous Zero Rotation Update Disabled, AHS Disabled, ICC Disabled
// Coordinate system: ENU
PacketCounter,Acc_X,Acc_Y,Acc_Z,FreeAcc_E,FreeAcc_N,FreeAcc_U,Gyr_X,Gyr_Y,Gyr_Z,VelInc_X,VelInc_Y,VelInc_Z,OriInc_q0,OriInc_q1,OriInc_q2,OriInc_q3,Quat_q0,Quat_q1,Quat_q2,Quat_q3,Roll,Pitch,Yaw
46013,-6.540907,6.582407,-2.098198,0.594570,-0.141697,-0.318466,-0.106765,0.058075,0.451840,-0.065564,0.065665,-0.020998,0.999997,-0.000534,0.000290,0.002259,-0.003142,-0.519927,0.559988,0.645042,103.020984,41.853687,-128.073874
46014,-6.503531,6.658159,-2.220774,0.649271,-0.250909,-0.269408,-0.022429,0.053123,0.437882,-0.065187,0.066436,-0.022198,0.999998,-0.000112,0.000266,0.002189,-0.004779,-0.518822,0.561076,0.644976,102.979655,41.597450,-128.116118
46015,-6.402762,6.583469,-2.031291,0.545758,-0.115290,-0.423743,0.029769,0.071131,0.421549,-0.064173,0.065703,-0.020280,0.999998,0.000149,0.000356,0.002108,-0.006279,-0.517818,0.562287,0.644716,102.978961,41.347960,-128.142056
46016,-6.455344,6.456571,-2.125060,0.728999,-0.072215,-0.467214,0.064677,0.108318,0.396133,-0.064693,0.064445,-0.021195,0.999998,0.000323,0.000542,0.001981,-0.007710,-0.517006,0.563541,0.644257,103.019749,41.107917,-128.135847
46017,-6.669699,6.534843,-2.452032,1.023355,-0.173912,-0.214568,0.078659,0.141547,0.374522,-0.066837,0.065233,-0.024447,0.999998,0.000393,0.000708,0.001873,-0.009130,-0.516359,0.564780,0.643672,103.086565,40.875607,-128.101860
46018,-6.687238,6.700560,-2.300937,0.851214,-0.080167,-0.108056,0.087493,0.130884,0.346987,-0.067004,0.066899,-0.022936,0.999998,0.000437,0.000654,0.001735,-0.010408,-0.515755,0.565975,0.643087,103.156288,40.660042,-128.071303
46019,-6.560644,6.805946,-2.104007,0.612743,-0.019194,-0.147602,0.114552,0.119040,0.316134,-0.065726,0.067968,-0.020962,0.999998,0.000573,0.000595,0.001581,-0.011483,-0.515198,0.567175,0.642457,103.238688,40.463210,-128.044739
46020,-6.324250,6.818311,-2.100963,0.504303,-0.132300,-0.292832,0.097451,0.116645,0.285181,-0.063352,0.068103,-0.020940,0.999999,0.000487,0.000583,0.001426,-0.012496,-0.514721,0.568240,0.641880,103.313507,40.283923,-128.014873
46021,-6.275028,6.686722,-2.033927,0.517840,-0.036823,-0.434228,0.174324,0.149921,0.254296,-0.062850,0.066805,-0.020234,0.999999,0.000872,0.000750,0.001271,-0.013307,-0.514440,0.569468,0.641000,103.450914,40.117417,-127.955986
46022,-6.382280,6.789600,-2.496084,0.823172,-0.307356,-0.205896,0.169326,0.184453,0.220154,-0.063920,0.067847,-0.024844,0.999999,0.000847,0.000922,0.001101,-0.014119,-0.514366,0.570589,0.640045,103.605092,39.965168,-127.866573
46023,-6.444103,6.918817,-2.387306,0.703887,-0.204614,-0.088578,0.203847,0.181667,0.205167,-0.064534,0.069146,-0.023744,0.999999,0.001019,0.000908,0.001026,-0.014786,-0.514326,0.571779,0.638998,103.778640,39.821480,-127.777379
46024,-6.304237,7.051061,-2.142287,0.394028,-0.127599,-0.123589,0.228142,0.155286,0.196153,-0.063128,0.070473,-0.021293,0.999999,0.001141,0.000776,0.000981,-0.015287,-0.514229,0.573025,0.637948,103.954430,39.686184,-127.706328
46025,-6.177610,7.057862,-2.298739,0.431432,-0.287879,-0.169483,0.222823,0.153855,0.181537,-0.061858,0.070548,-0.022861,0.999999,0.001114,0.000769,0.000908,-0.015751,-0.514167,0.574214,0.636916,104.127539,39.559095,-127.634404
46026,-6.067190,6.970450,-2.267240,0.401877,-0.272979,-0.309938,0.248133,0.152988,0.162388,-0.060746,0.069683,-0.022539,0.999999,0.001241,0.000765,0.000812,-0.016086,-0.514157,0.575434,0.635814,104.316549,39.442540,-127.560197
46027,-6.080135,7.057397,-2.003891,0.172683,-0.075567,-0.286153,0.283334,0.148965,0.160562,-0.060873,0.070553,-0.019894,0.999998,0.001417,0.000745,0.000803,-0.016313,-0.514142,0.576759,0.634619,104.523518,39.327425,-127.489224
46028,-5.976929,7.184289,-2.235690,0.199283,-0.317433,-0.210841,0.220726,0.143691,0.157008,-0.059842,0.071821,-0.022235,0.999999,0.001104,0.000718,0.000785,-0.016674,-0.514113,0.577875,0.633616,104.692220,39.214813,-127.421930
46029,-5.928329,7.258000,-2.012567,-0.021783,-0.183995,-0.229385,0.229738,0.138085,0.156259,-0.059354,0.072557,-0.020001,0.999999,0.001149,0.000690,0.000781,-0.016994,-0.514069,0.579017,0.632601,104.863157,39.103329,-127.359066
46030,-5.916309,7.357071,-1.976202,-0.114325,-0.170029,-0.169424,0.203852,0.141231,0.157684,-0.059235,0.073544,-0.019645,0.999999,0.001019,0.000706,0.000788,-0.017394,-0.514027,0.580080,0.631650,105.020132,38.990405,-127.294714
46031,-5.985451,7.393285,-2.019635,-0.077490,-0.143561,-0.089594,0.166283,0.140509,0.150282,-0.059924,0.073905,-0.020093,0.999999,0.000831,0.000703,0.000751,-0.017865,-0.513999,0.581003,0.630810,105.155717,38.881593,-127.229953
46032,-6.025083,7.521071,-1.825544,-0.264387,0.002524,-0.008056,0.127656,0.134465,0.139200,-0.060315,0.075180,-0.018167,0.999999,0.000638,0.000672,0.000696,-0.018382,-0.513981,0.581776,0.630097,105.267521,38.779671,-127.167716
46033,-6.138073,7.450734,-1.744235,-0.224868,0.174604,-0.007044,0.073145,0.123728,0.133050,-0.061441,0.074473,-0.017377,1.000000,0.000366,0.000619,0.000665,-0.018989,-0.513941,0.582361,0.629571,105.343758,38.682720,-127.112222
46034,-6.164827,7.412538,-1.865472,-0.106799,0.134662,0.005726,0.031225,0.123906,0.111302,-0.061701,0.074094,-0.018605,1.000000,0.000156,0.000620,0.000557,-0.019636,-0.513960,0.582758,0.629168,105.398543,38.597680,-127.052558
46035,-6.137587,7.424186,-1.823020,-0.151610,0.159219,-0.011486,0.013830,0.116735,0.100475,-0.061424,0.074212,-0.018189,1.000000,0.000069,0.000584,0.000502,-0.020273,-0.513987,0.583073,0.628834,105.441288,38.519701,-126.996046
46036,-6.055622,7.317343,-1.750323,-0.174238,0.207290,-0.158447,0.003741,0.116234,0.091957,-0.060600,0.073146,-0.017467,1.000000,0.000019,0.000581,0.000460,-0.020907,-0.514035,0.583334,0.628532,105.478993,38.446443,-126.938319
46037,-6.111571,7.245753,-1.865717,-0.025378,0.195132,-0.153784,-0.022631,0.115812,0.091102,-0.061160,0.072428,-0.018630,1.000000,-0.000113,0.000579,0.000456,-0.021605,-0.514081,0.583510,0.628307,105.501300,38.373730,-126.880876
46038,-6.196991,7.181596,-1.915370,0.088202,0.246367,-0.139106,0.018371,0.123050,0.085612,-0.062012,0.071791,-0.019109,1.000000,0.000092,0.000615,0.000428,-0.022202,-0.514171,0.583799,0.627945,105.550880,38.302877,-126.817334
46039,-6.211404,7.241512,-1.923151,0.067078,0.244369,-0.083591,0.030435,0.120248,0.076910,-0.062153,0.072394,-0.019183,1.000000,0.000152,0.000601,0.000385,-0.022732,-0.514278,0.584103,0.627555,105.606971,38.237255,-126.754249
46040,-6.187505,7.231257,-1.959709,0.086549,0.219757,-0.098731,0.039463,0.108900,0.070792,-0.061911,0.072295,-0.019549,1.000000,0.000197,0.000545,0.000354,-0.023187,-0.514368,0.584422,0.627168,105.664000,38.176669,-126.698018
46041,-6.167545,7.206389,-1.924582,0.067277,0.252558,-0.137650,0.054810,0.097941,0.064986,-0.061708,0.072049,-0.019196,1.000000,0.000274,0.000490,0.000325,-0.023551,-0.514442,0.584774,0.626765,105.725564,38.120995,-126.648506
46042,-6.098213,7.212085,-1.898069,0.011925,0.237997,-0.182098,0.077862,0.081472,0.056337,-0.061010,0.072111,-0.018928,1.000000,0.000389,0.000407,0.000282,-0.023781,-0.514492,0.585178,0.626338,105.794259,38.072553,-126.608887
46043,-5.995732,7.262555,-1.853380,-0.098019,0.200961,-0.216932,0.103974,0.060637,0.055087,-0.059983,0.072619,-0.018478,1.000000,0.000520,0.000303,0.000275,-0.023879,-0.514484,0.585663,0.625888,105.868889,38.028086,-126.583764
46044,-5.994570,7.230007,-1.871744,-0.071541,0.209503,-0.238646,0.132101,0.044900,0.055485,-0.059970,0.072296,-0.018656,1.000000,0.000661,0.000225,0.000277,-0.023860,-0.514428,0.586238,0.625395,105.952839,37.985776,-126.569760
46045,-5.986122,7.264319,-1.877377,-0.096149,0.201546,-0.216925,0.137924,0.037054,0.050423,-0.059883,0.072641,-0.018713,1.000000,0.000690,0.000185,0.000252,-0.023787,-0.514363,0.586819,0.624906,106.037200,37.947551,-126.560376
46046,-5.961324,7.303946,-1.831989,-0.166534,0.217897,-0.212377,0.159334,0.030265,0.049415,-0.059634,0.073039,-0.018253,1.000000,0.000797,0.000151,0.000247,-0.023636,-0.514282,0.587466,0.624371,106.131101,37.910873,-126.555543
46047,-5.872004,7.434934,-1.841273,-0.283582,0.126549,-0.166314,0.148055,0.034724,0.045729,-0.058740,0.074350,-0.018347,1.000000,0.000740,0.000174,0.000229,-0.023516,-0.514224,0.588065,0.623859,106.220727,37.875584,-126.547005
46048,-5.870960,7.422295,-1.781487,-0.321381,0.184303,-0.190055,0.124312,0.033955,0.063434,-0.058736,0.074215,-0.017759,1.000000,0.000622,0.000170,0.000317,-0.023509,-0.514109,0.588637,0.623415,106.294298,37.830591,-126.542595
46049,-5.982086,7.389758,-1.912146,-0.165511,0.183993,-0.117899,0.103433,0.040733,0.068914,-0.059850,0.073887,-0.019071,1.000000,0.000517,0.000204,0.000345,-0.023593,-0.513995,0.589156,0.623015,106.357912,37.781566,-126.534742
46050,-6.046184,7.375370,-1.978470,-0.084464,0.193776,-0.075025,0.105409,0.034752,0.070374,-0.060491,0.073743,-0.019735,1.000000,0.000527,0.000174,0.000352,-0.023659,-0.513859,0.589686,0.622623,106.420032,37.732622,-126.531333
46051,-6.085995,7.454460,-1.902897,-0.164502,0.260602,-0.007875,0.127293,0.035098,0.058296,-0.060885,0.074539,-0.018971,1.000000,0.000636,0.000175,0.000291,-0.023633,-0.513762,0.590252,0.622168,106.496137,37.690334,-126.525377
46052,-6.062114,7.582502,-2.038475,-0.162701,0.121342,0.104859,0.098796,0.033194,0.042347,-0.060641,0.075822,-0.020337,1.000000,0.000494,0.000166,0.000212,-0.023624,-0.513702,0.590690,0.621802,106.557238,37.657033,-126.517430
46053,-6.054868,7.616471,-2.040973,-0.187267,0.113404,0.126613,0.085973,0.024874,0.028175,-0.060562,0.076165,-0.020369,1.000000,0.000430,0.000124,0.000141,-0.023579,-0.513657,0.591050,0.621498,106.609040,37.632950,-126.512475
46054,-5.899102,7.655230,-1.975961,-0.329854,0.056277,0.046035,0.085058,0.026837,0.020081,-0.059001,0.076555,-0.019719,1.000000,0.000425,0.000134,0.000100,-0.023518,-0.513641,0.591388,0.621192,106.662337,37.612903,-126.504409
46055,-5.850765,7.631180,-2.075797,-0.275239,-0.031809,0.020853,0.051742,0.034525,0.014974,-0.058517,0.076313,-0.020728,1.000000,0.000259,0.000173,0.000075,-0.023549,-0.513660,0.591607,0.620966,106.700224,37.594466,-126.490091
46056,-5.808576,7.465616,-2.165968,-0.140555,-0.068082,-0.110007,0.026325,0.033112,0.020580,-0.058097,0.074653,-0.021640,1.000000,0.000132,0.000166,0.000103,-0.023658,-0.513656,0.591763,0.620817,106.722429,37.573103,-126.477822
46057,-5.830025,7.263775,-2.208081,0.013532,-0.018549,-0.240503,0.052403,0.036416,0.027477,-0.058314,0.072636,-0.022051,1.000000,0.000262,0.000182,0.000137,-0.023732,-0.513644,0.592016,0.620583,106.759868,37.547472,-126.464836
46058,-5.826013,7.296999,-2.300471,0.051399,-0.089304,-0.196547,0.090977,0.033980,0.030920,-0.058275,0.072971,-0.022962,1.000000,0.000455,0.000170,0.000155,-0.023710,-0.513619,0.592399,0.620239,106.818131,37.520280,-126.454169
46059,-5.800360,7.573732,-2.292449,-0.129845,-0.173639,-0.003819,0.100680,0.024416,0.037498,-0.058021,0.075738,-0.022879,1.000000,0.000503,0.000122,0.000187,-0.023655,-0.513546,0.592829,0.619891,106.876856,37.491126,-126.451643
46060,-5.784748,7.696479,-2.203593,-0.269719,-0.148687,0.059499,0.071701,0.013650,0.042845,-0.057865,0.076960,-0.022004,1.000000,0.000359,0.000068,0.000214,-0.023659,-0.513420,0.593184,0.619655,106.913956,37.460766,-126.457593
46061,-5.667392,7.581824,-2.231381,-0.240779,-0.202683,-0.092431,0.058781,0.011078,0.041092,-0.056691,0.075813,-0.022288,1.000000,0.000294,0.000055,0.000205,-0.023684,-0.513289,0.593495,0.619465,106.942578,37.431851,-126.465087
46062,-5.699413,7.482949,-2.248059,-0.158003,-0.158218,-0.144098,0.059234,0.032227,0.036146,-0.057011,0.074826,-0.022449,1.000000,0.000296,0.000161,0.000181,-0.023754,-0.513240,0.593792,0.619219,106.981161,37.402062,-126.456848
46063,-5.801243,7.474760,-2.426778,0.012893,-0.210752,-0.046873,0.043061,0.036104,0.041557,-0.058032,0.074741,-0.024241,1.000000,0.000215,0.000181,0.000208,-0.023895,-0.513183,0.594052,0.619011,107.011176,37.368691,-126.447221
46064,-5.811122,7.470517,-2.392510,-0.002887,-0.171945,-0.051935,0.045975,0.034424,0.037125,-0.058129,0.074700,-0.023898,1.000000,0.000230,0.000172,0.000186,-0.024009,-0.513135,0.594311,0.618798,107.042917,37.337990,-126.437725
46065,-5.797796,7.464779,-2.365368,-0.023966,-0.152723,-0.070592,0.043854,0.032222,0.041698,-0.057997,0.074641,-0.023628,1.000000,0.000219,0.000161,0.000208,-0.024137,-0.513066,0.594574,0.618597,107.071717,37.305178,-126.430848
46066,-5.803504,7.473109,-2.402884,-0.001039,-0.171390,-0.051925,0.039113,0.036092,0.040075,-0.058054,0.074724,-0.024004,1.000000,0.000196,0.000180,0.000200,-0.024283,-0.513014,0.594818,0.618400,107.099807,37.272572,-126.420875
46067,-5.751429,7.525817,-2.429058,-0.038016,-0.232013,-0.037111,0.029916,0.032830,0.048146,-0.057536,0.075248,-0.024270,1.000000,0.000150,0.000164,0.000241,-0.024468,-0.512926,0.595055,0.618238,107.120021,37.236113,-126.414986
46068,-5.730394,7.534649,-2.381110,-0.082881,-0.207381,-0.054196,0.017291,0.034970,0.053770,-0.057328,0.075333,-0.023795,1.000000,0.000086,0.000175,0.000269,-0.024709,-0.512826,0.595267,0.618107,107.133352,37.196193,-126.408725
46069,-5.745852,7.497167,-2.442232,-0.010669,-0.223267,-0.058874,0.012459,0.046329,0.054361,-0.057485,0.074958,-0.024404,1.000000,0.000062,0.000232,0.000272,-0.024998,-0.512759,0.595464,0.617962,107.148355,37.154037,-126.394904
46070,-5.719695,7.497319,-2.544585,0.047362,-0.305420,-0.050306,0.011527,0.057730,0.056366,-0.057225,0.074959,-0.025425,1.000000,0.000058,0.000289,0.000282,-0.025330,-0.512721,0.595661,0.617788,107.167458,37.108846,-126.373599
46071,-5.782290,7.559272,-2.534389,0.037048,-0.268193,0.032479,0.003367,0.062441,0.056216,-0.057852,0.075577,-0.025325,1.000000,0.000017,0.000312,0.000281,-0.025696,-0.512697,0.595833,0.617628,107.183649,37.062930,-126.349156
46072,-5.786001,7.591022,-2.492409,-0.004219,-0.237553,0.049213,0.006524,0.049762,0.063092,-0.057890,0.075893,-0.024907,1.000000,0.000033,0.000249,0.000315,-0.026037,-0.512614,0.596033,0.617490,107.195673,37.015397,-126.334799
46073,-5.743122,7.619549,-2.464563,-0.056143,-0.246051,0.038777,0.006508,0.054343,0.059128,-0.057460,0.076179,-0.024628,1.000000,0.000033,0.000272,0.000296,-0.026380,-0.512556,0.596222,0.617340,107.209898,36.969239,-126.316573
46074,-5.688926,7.716721,-2.334428,-0.221536,-0.207985,0.049811,0.021769,0.065832,0.071436,-0.056924,0.077149,-0.023317,1.000000,0.000109,0.000329,0.000357,-0.026756,-0.512500,0.596489,0.617113,107.236154,36.914407,-126.293037
46075,-5.621745,8.010996,-2.132668,-0.556559,-0.180383,0.186614,0.077317,0.092897,0.085319,-0.056262,0.080094,-0.021270,1.000000,0.000387,0.000464,0.000427,-0.027114,-0.512492,0.596958,0.616650,107.303351,36.847329,-126.254102
46076,-5.750531,8.237794,-2.406099,-0.445138,-0.338253,0.502669,0.076418,0.134653,0.118531,-0.057570,0.082353,-0.023991,1.000000,0.000382,0.000673,0.000593,-0.027700,-0.512514,0.597504,0.616077,107.382902,36.754946,-126.193791
46077,-6.117577,7.554700,-2.324383,0.076343,0.169752,0.180626,-0.049635,0.119421,0.181279,-0.061258,0.075486,-0.023226,0.999999,-0.000248,0.000597,0.000906,-0.028758,-0.512283,0.597824,0.615911,107.375659,36.630770,-126.157513
46078,-6.454602,7.186966,-2.216916,0.390385,0.585258,0.073370,-0.003308,0.054977,0.206357,-0.064626,0.071803,-0.022153,0.999999,-0.000017,0.000275,0.001032,-0.029581,-0.511785,0.598359,0.615766,107.365728,36.503968,-126.170394
46079,-6.335255,7.976569,-1.990428,-0.257366,0.460769,0.552848,0.044995,-0.040230,0.207416,-0.063431,0.079704,-0.019899,0.999999,0.000225,-0.000201,0.001037,-0.030000,-0.510996,0.599059,0.615720,107.344765,36.392822,-126.248260
46080,-5.916854,9.434525,-1.457921,-1.628394,0.166931,1.298809,-0.085558,-0.111892,0.210472,-0.059260,0.094277,-0.014653,0.999999,-0.000428,-0.000559,0.001052,-0.030546,-0.509958,0.599375,0.616246,107.220234,36.292156,-126.375069
46081,-5.387966,10.579209,-1.400322,-2.535675,-0.460900,1.860719,-0.399501,-0.130547,0.213035,-0.053983,0.105706,-0.014250,0.999997,-0.001998,-0.000653,0.001065,-0.031845,-0.508805,0.598730,0.617759,106.908334,36.192783,-126.514572
46082,-5.172571,10.342890,-1.722178,-2.222563,-0.787740,1.638766,-0.776295,-0.032432,0.224642,-0.051839,0.103303,-0.017631,0.999992,-0.003881,-0.000162,0.001123,-0.034431,-0.507854,0.596929,0.620141,106.419558,36.070189,-126.588566
46083,-5.801949,9.322358,-1.895830,-1.144605,-0.246796,1.268441,-0.911460,0.014733,0.226404,-0.058126,0.093070,-0.019378,0.999989,-0.004557,0.000074,0.001132,-0.037508,-0.507010,0.594693,0.622795,105.872655,35.938411,-126.629513
46084,-5.830522,8.867329,-1.841050,-0.830852,-0.094368,0.925751,-0.905600,-0.044389,0.220693,-0.058399,0.088524,-0.018825,0.999989,-0.004528,-0.000222,0.001103,-0.040374,-0.505991,0.592460,0.625568,105.307531,35.818738,-126.707816
46085,-5.376659,8.829952,-1.657491,-1.071641,-0.287805,0.598452,-0.953985,-0.036776,0.225624,-0.053863,0.088158,-0.017006,0.999988,-0.004770,-0.000184,0.001128,-0.043401,-0.504957,0.590072,0.628451,104.717872,35.694368,-126.780425
46086,-5.368514,8.626556,-1.958328,-0.670024,-0.482706,0.501897,-1.105756,0.016795,0.224748,-0.053784,0.086095,-0.020055,0.999984,-0.005529,0.000084,0.001124,-0.046964,-0.504049,0.587177,0.631627,104.064215,35.562431,-126.814319
46087,-5.543071,8.026585,-2.243485,0.025597,-0.424624,0.187469,-1.167244,0.031264,0.211201,-0.055519,0.080075,-0.022894,0.999982,-0.005836,0.000156,0.001056,-0.050682,-0.503193,0.584030,0.634931,103.383150,35.435503,-126.834335
46088,-5.299280,7.586261,-2.543954,0.438078,-0.690606,-0.250479,-1.132562,0.026682,0.212283,-0.053077,0.075661,-0.025861,0.999983,-0.005663,0.000133,0.001061,-0.054299,-0.502313,0.580977,0.638121,102.721576,35.308636,-126.855585
46089,-5.564906,6.530533,-2.532302,1.181786,-0.198104,-0.947457,-0.959272,0.079817,0.216910,-0.055730,0.065123,-0.025613,0.999988,-0.004796,0.000399,0.001085,-0.057650,-0.501619,0.578458,0.640657,102.180503,35.172172,-126.839669
46090,-5.718730,6.097821,-2.337623,1.395571,0.164140,-1.246648,-0.627546,0.050676,0.209538,-0.057257,0.060845,-0.023553,0.999994,-0.003138,0.000253,0.001048,-0.060058,-0.500942,0.576981,0.642295,101.819725,35.043689,-126.841161
46091,-5.532957,6.211151,-2.272638,1.241911,0.046988,-1.279678,-0.386034,0.014935,0.224117,-0.055401,0.062005,-0.022842,0.999998,-0.001930,0.000075,0.001121,-0.061806,-0.500175,0.576322,0.643318,101.582273,34.910949,-126.868530
46092,-5.458185,6.718180,-2.019824,0.803631,0.007852,-0.960599,-0.185527,-0.017479,0.256559,-0.054666,0.067093,-0.020265,0.999999,-0.000928,-0.000087,0.001283,-0.063062,-0.499272,0.576397,0.643830,101.445147,34.763855,-126.921861
46093,-5.442052,7.322559,-1.836678,0.391382,-0.065243,-0.514747,-0.053240,-0.051503,0.282597,-0.054519,0.073144,-0.018400,0.999999,-0.000266,-0.000258,0.001413,-0.063975,-0.498223,0.576972,0.644037,101.368662,34.605724,-127.001711
46094,-5.240178,7.794646,-1.621522,-0.072040,-0.188506,-0.283548,0.007330,-0.051807,0.320775,-0.052523,0.077863,-0.016226,0.999999,0.000037,-0.000259,0.001604,-0.064857,-0.497083,0.577836,0.644056,101.324455,34.426298,-127.086503
46095,-5.212708,7.795343,-2.025164,0.222326,-0.456826,-0.232355,0.078623,0.030449,0.337596,-0.052262,0.077873,-0.020213,0.999998,0.000393,0.000152,0.001688,-0.065855,-0.496180,0.578943,0.643657,101.351478,34.227960,-127.117526
46096,-5.374703,7.800083,-2.403564,0.583582,-0.574057,-0.074330,0.208950,0.113128,0.367863,-0.053904,0.077927,-0.023924,0.999998,0.001045,0.000566,0.001839,-0.066864,-0.495497,0.580515,0.642662,101.482491,34.003469,-127.096745
46097,-5.857491,8.244993,-2.070163,0.375384,-0.124293,0.503277,0.322227,0.060117,0.400721,-0.058746,0.082366,-0.020551,0.999997,0.001611,0.000301,0.002004,-0.067546,-0.494582,0.582546,0.641456,101.655200,33.766384,-127.117221
46098,-5.668672,8.714945,-1.992143,0.003658,-0.296192,0.768656,0.293471,-0.066012,0.428784,-0.056867,0.087057,-0.019812,0.999997,0.001467,-0.000330,0.002144,-0.068020,-0.493169,0.584593,0.640631,101.762066,33.528458,-127.227167
46099,-5.127148,8.712005,-1.957480,-0.282927,-0.583470,0.463387,0.339997,-0.004747,0.434194,-0.051460,0.087042,-0.019428,0.999996,0.001700,-0.000024,0.002171,-0.068576,-0.491947,0.586778,0.639513,101.917861,33.280308,-127.297144
46100,-5.222453,8.930322,-1.494813,-0.664800,-0.217794,0.616574,0.300854,0.149486,0.397429,-0.052413,0.089222,-0.014775,0.999997,0.001504,0.000747,0.001987,-0.069561,-0.491311,0.588690,0.638138,102.110595,33.034744,-127.259263
46101,-5.916731,9.187050,-1.060037,-0.737209,0.513943,1.129227,0.108653,0.142607,0.352683,-0.059337,0.091772,-0.010508,0.999998,0.000543,0.000713,0.001763,-0.070857,-0.490713,0.589878,0.637357,102.193466,32.814765,-127.220428
46102,-5.886662,9.081212,-0.940617,-0.766258,0.639678,1.004407,0.012745,-0.007691,0.308364,-0.059006,0.090722,-0.009403,0.999999,0.000064,-0.000038,0.001542,-0.071802,-0.489733,0.590702,0.637242,102.170674,32.637994,-127.275424
46103,-5.336204,8.927464,-0.830833,-1.024361,0.408722,0.562694,-0.128949,-0.005812,0.245902,-0.053472,0.089204,-0.008367,0.999999,-0.000645,-0.000029,0.001230,-0.072902,-0.488890,0.590920,0.637562,102.072234,32.495707,-127.320045
46104,-5.383049,8.695337,-0.589900,-1.026959,0.674412,0.357096,-0.396461,0.072878,0.173538,-0.053908,0.086895,-0.006052,0.999998,-0.001982,0.000364,0.000868,-0.074656,-0.488413,0.590078,0.638504,101.854621,32.384764,-127.301583
46105,-5.456670,8.311094,-0.501808,-0.823250,0.879023,0.069147,-0.711847,0.051248,0.121864,-0.054619,0.083059,-0.005300,0.999993,-0.003559,0.000256,0.000609,-0.076952,-0.487897,0.588105,0.640444,101.452435,32.305165,-127.289865
46106,-4.934239,7.674952,-1.185204,-0.242872,0.219714,-0.617655,-0.940253,0.037257,0.078210,-0.049375,0.076673,-0.012203,0.999989,-0.004701,0.000186,0.000391,-0.079621,-0.487369,0.585289,0.643093,100.918187,32.251985,-127.280805
46107,-4.612031,6.937642,-1.972528,0.563271,-0.338799,-1.276869,-0.911123,0.108835,0.072318,-0.046156,0.069269,-0.020016,0.999989,-0.004556,0.000544,0.000362,-0.082410,-0.487087,0.582511,0.645473,100.426350,32.194363,-127.222981
46108,-4.908706,6.503492,-2.153429,1.097337,-0.148023,-1.457939,-0.759463,0.155020,0.091027,-0.049133,0.064930,-0.021743,0.999992,-0.003797,0.000775,0.000455,-0.085021,-0.486956,0.580239,0.647278,100.037147,32.122105,-127.135997
46109,-4.985665,6.324080,-2.072108,1.199301,0.002926,-1.584319,-0.565911,0.122572,0.108746,-0.049904,0.063155,-0.020869,0.999996,-0.002830,0.000613,0.000544,-0.087125,-0.486742,0.578643,0.648586,99.746091,32.043264,-127.072397
46110,-4.818616,6.266202,-1.931443,1.062686,0.000294,-1.745129,-0.250280,0.154767,0.109182,-0.048235,0.062611,-0.019355,0.999999,-0.001251,0.000774,0.000546,-0.088553,-0.486769,0.578055,0.648897,99.647584,31.961467,-126.987003
46111,-5.040803,6.347132,-1.540760,0.861551,0.394208,-1.616833,0.035151,0.144712,0.108416,-0.050454,0.063447,-0.015360,1.000000,0.000176,0.000724,0.000542,-0.089256,-0.486889,0.578394,0.648408,99.708755,31.880923,-126.908371
46112,-5.153165,6.634159,-0.962103,0.363338,0.779930,-1.401238,0.198559,0.049745,0.120231,-0.051574,0.066320,-0.009542,0.999999,0.000993,0.000249,0.000601,-0.089323,-0.486741,0.579333,0.647671,99.829573,31.803006,-126.894318
46113,-4.885361,7.082416,-0.805193,-0.094125,0.579702,-1.191158,0.216039,0.016540,0.115548,-0.048895,0.070805,-0.007971,0.999999,0.001080,0.000083,0.000578,-0.089238,-0.486505,0.580331,0.646966,99.948730,31.730852,-126.902080
46114,-4.772092,7.451970,-1.301647,0.039398,0.076667,-0.868888,0.233287,0.031739,0.101348,-0.047761,0.074511,-0.012922,0.999999,0.001166,0.000159,0.000507,-0.089107,-0.486367,0.581343,0.646178,100.084085,31.665333,-126.898173
46115,-5.010064,7.675893,-1.630227,0.292013,-0.029970,-0.507232,0.216061,0.059163,0.084074,-0.050138,0.076755,-0.016205,0.999999,0.001080,0.000296,0.000420,-0.089043,-0.486359,0.582244,0.645382,100.219826,31.606671,-126.874350
46116,-5.196007,7.961869,-1.721500,0.316118,-0.035340,-0.155969,0.152671,0.057568,0.048146,-0.051984,0.079619,-0.017139,1.000000,0.000763,0.000288,0.000241,-0.089011,-0.486422,0.582854,0.644788,100.321100,31.568493,-126.847314
46117,-5.127835,8.164107,-1.604522,0.094928,-0.053405,-0.039768,0.142424,0.077277,-0.002048,-0.051284,0.081653,-0.015967,1.000000,0.000712,0.000386,-0.000010,-0.088901,-0.486690,0.583299,0.644199,100.426223,31.556431,-126.801358
46118,-5.211973,8.456420,-1.076897,-0.391780,0.274531,0.167620,0.090696,0.110212,-0.051099,-0.052104,0.084582,-0.010702,1.000000,0.000453,0.000551,-0.000255,-0.088854,-0.487184,0.583443,0.643701,100.516460,31.568607,-126.727548
46119,-5.158015,8.555105,-1.097246,-0.455978,0.192665,0.224934,-0.134255,0.131773,-0.108162,-0.051541,0.085572,-0.010996,0.999999,-0.000671,0.000659,-0.000541,-0.089235,-0.487813,0.582714,0.643833,100.488749,31.610547,-126.632566
46120,-5.059353,8.298441,-1.654139,0.023616,-0.181085,0.044490,-0.380225,0.171223,-0.143738,-0.050548,0.082989,-0.016656,0.999998,-0.001901,0.000856,-0.000719,-0.090215,-0.488562,0.581087,0.644598,100.336373,31.668674,-126.507058
46121,-5.346180,7.995713,-2.006119,0.580788,-0.149039,-0.005652,-0.494103,0.114514,-0.161988,-0.053409,0.079951,-0.020228,0.999996,-0.002471,0.000573,-0.000810,-0.091250,-0.489126,0.579070,0.645838,100.099937,31.743114,-126.417217
46122,-5.247100,7.862986,-1.806354,0.460123,-0.071814,-0.199957,-0.376606,0.036157,-0.175655,-0.052405,0.078642,-0.018202,0.999998,-0.001883,0.000181,-0.000878,-0.091725,-0.489529,0.577433,0.646931,99.904495,31.833455,-126.377924
46123,-5.037597,7.813278,-1.438879,0.114927,0.015520,-0.406223,-0.286741,0.029527,-0.200581,-0.050300,0.078163,-0.014493,0.999998,-0.001434,0.000148,-0.001003,-0.091881,-0.490020,0.576025,0.647791,99.759424,31.938526,-126.340545
46124,-5.056136,7.587453,-1.084565,-0.034026,0.307776,-0.635853,-0.241331,0.032162,-0.221538,-0.050479,0.075917,-0.010929,0.999999,-0.001207,0.000161,-0.001108,-0.091865,-0.490601,0.574711,0.648520,99.642718,32.055340,-126.299160
46125,-4.937160,7.421161,-0.894871,-0.158513,0.378953,-0.863879,-0.258402,-0.000169,-0.225784,-0.049288,0.074256,-0.009045,0.999999,-0.001292,-0.000001,-0.001129,-0.091784,-0.491080,0.573344,0.649379,99.504736,32.177631,-126.279223
46126,-4.589264,7.454307,-1.380146,0.024442,-0.218582,-0.953550,-0.527528,0.016903,-0.224977,-0.045810,0.074558,-0.013994,0.999996,-0.002638,0.000085,-0.001125,-0.092414,-0.491486,0.571095,0.650962,99.218582,32.298018,-126.248367
46127,-4.299048,7.170372,-2.556272,0.904658,-1.123078,-1.190000,-0.575139,0.088312,-0.176480,-0.042939,0.071668,-0.025750,0.999995,-0.002876,0.000442,-0.000882,-0.093523,-0.491958,0.568771,0.652480,98.927409,32.384564,-126.175670
46128,-4.603939,7.469375,-2.509418,0.910656,-1.005957,-0.788069,-0.343657,0.174159,-0.116562,-0.046018,0.074677,-0.025182,0.999998,-0.001718,0.000871,-0.000583,-0.094501,-0.492647,0.567307,0.653094,98.796485,32.429917,-126.051888
46129,-5.575082,8.055673,-1.551977,0.419989,0.073720,0.097015,0.014646,0.171171,-0.080369,-0.055732,0.080580,-0.015466,1.000000,0.000073,0.000856,-0.000402,-0.094706,-0.493390,0.567102,0.652681,98.867695,32.455000,-125.933927
46130,-5.983481,8.171912,-0.616526,-0.148084,0.921463,0.291333,0.177299,0.076359,-0.129194,-0.059784,0.081763,-0.006070,0.999999,0.000886,0.000382,-0.000646,-0.094081,-0.494040,0.567351,0.652063,99.000965,32.516074,-125.874261
46131,-5.625312,8.227947,-0.163280,-0.708447,0.947525,0.085301,0.075477,-0.019334,-0.180506,-0.056179,0.082331,-0.001607,1.000000,0.000377,-0.000097,-0.000903,-0.093270,-0.494474,0.567186,0.651994,99.044266,32.614636,-125.873282
46132,-5.005874,8.575972,-0.366676,-1.019519,0.255704,0.068388,-0.221955,-0.055114,-0.203011,-0.049971,0.085806,-0.003776,0.999999,-0.001110,-0.000276,-0.001015,-0.093018,-0.494717,0.566012,0.652866,98.905552,32.729201,-125.893994
46133,-4.499249,8.926008,-1.010669,-0.922458,-0.662576,0.169705,-0.544028,-0.031134,-0.188802,-0.044907,0.089275,-0.010357,0.999996,-0.002720,-0.000156,-0.000944,-0.093677,-0.494844,0.563807,0.654581,98.589692,32.833492,-125.900700
46134,-4.238047,8.996134,-1.785580,-0.465158,-1.407083,0.181474,-0.608530,0.049503,-0.145769,-0.042319,0.089937,-0.018119,0.999995,-0.003043,0.000248,-0.000729,-0.094862,-0.495080,0.561455,0.656251,98.263904,32.906658,-125.857889
46135,-4.829350,9.031772,-1.730600,-0.198795,-1.016224,0.522599,-0.531649,0.182226,-0.118079,-0.048256,0.090300,-0.017502,0.999996,-0.002658,0.000911,-0.000590,-0.096321,-0.495705,0.559355,0.657359,98.029068,32.953377,-125.728573
46136,-6.024721,8.648437,-1.110355,0.101304,0.305129,0.780810,-0.433140,0.192871,-0.136676,-0.060199,0.086501,-0.011233,0.999997,-0.002166,0.000964,-0.000683,-0.097503,-0.496462,0.557524,0.658168,97.855797,33.010334,-125.590318
46137,-6.199930,7.898218,-1.002658,0.439407,0.734829,0.241821,-0.446058,0.035740,-0.176915,-0.061931,0.079014,-0.010192,0.999997,-0.002230,0.000179,-0.000885,-0.098147,-0.496804,0.555625,0.659420,97.618963,33.102513,-125.555026
46138,-5.340892,7.359259,-1.067766,0.317559,0.269965,-0.666646,-0.469777,-0.073240,-0.185277,-0.053337,0.073617,-0.010870,0.999997,-0.002349,-0.000366,-0.000926,-0.098518,-0.496796,0.553676,0.661008,97.328502,33.207859,-125.593307
46139,-4.738290,7.502526,-0.881447,-0.161973,-0.104915,-0.897592,-0.290468,-0.066792,-0.151002,-0.047323,0.075048,-0.008939,0.999999,-0.001452,-0.000334,-0.000755,-0.098574,-0.496799,0.552399,0.662064,97.140992,33.293002,-125.630830
46140,-4.882075,7.859902,-1.058497,-0.096350,-0.272217,-0.504104,-0.183465,-0.004569,-0.107751,-0.048778,0.078616,-0.010658,0.999999,-0.000917,-0.000023,-0.000539,-0.098679,-0.496942,0.551553,0.662647,97.036043,33.349195,-125.629865
46141,-5.295522,8.110448,-1.279805,0.171857,-0.236165,-0.046700,-0.039772,0.030142,-0.091089,-0.052920,0.081126,-0.012806,1.000000,-0.000199,0.000151,-0.000455,-0.098579,-0.497223,0.551206,0.662739,97.025416,33.393345,-125.606831
46142,-5.626165,8.417008,-1.062772,0.032459,0.005625,0.367104,0.028540,0.023861,-0.092735,-0.056224,0.084198,-0.010609,1.000000,0.000143,0.000119,-0.000464,-0.098285,-0.497523,0.551084,0.662659,97.051877,33.439004,-125.587819
46143,-5.696677,8.423962,-0.580316,-0.314048,0.350872,0.362296,0.036782,-0.019471,-0.098014,-0.056925,0.084269,-0.005793,1.000000,0.000184,-0.000097,-0.000490,-0.097835,-0.497697,0.550998,0.662667,97.066858,33.490575,-125.597960
46144,-5.321728,8.358270,-0.642632,-0.421812,0.070584,0.107571,-0.138305,-0.039261,-0.107902,-0.053171,0.083607,-0.006495,1.000000,-0.000692,-0.000196,-0.000540,-0.097732,-0.497747,0.550317,0.663210,96.974683,33.549284,-125.620723
46145,-4.965529,8.008871,-0.870360,-0.266389,-0.201468,-0.355181,-0.248271,0.011552,-0.116397,-0.049609,0.080107,-0.008800,0.999999,-0.001241,0.000058,-0.000582,-0.098016,-0.497934,0.549224,0.663934,96.838751,33.609149,-125.608357
46146,-5.018664,8.155090,-1.127965,-0.097920,-0.399610,-0.179646,-0.164045,0.087892,-0.124989,-0.050141,0.081573,-0.011325,0.999999,-0.000820,0.000439,-0.000625,-0.098269,-0.498439,0.548351,0.664238,96.780533,33.668870,-125.543127
46147,-5.381259,8.043767,-1.269853,0.231923,-0.211225,-0.056958,-0.090384,0.117447,-0.108375,-0.053776,0.080461,-0.012703,1.000000,-0.000452,0.000587,-0.000542,-0.098477,-0.499032,0.547749,0.664259,96.774815,33.717014,-125.459144
46148,-5.448243,7.733137,-1.947546,0.912929,-0.480097,-0.209888,-0.097085,0.114622,-0.095072,-0.054457,0.077348,-0.019482,1.000000,-0.000485,0.000573,-0.000475,-0.098736,-0.499576,0.547160,0.664298,96.763877,33.757947,-125.378031
46149,-5.623233,7.375110,-1.500256,0.794412,0.055281,-0.451619,0.092880,0.065366,-0.056035,-0.056217,0.073774,-0.014950,1.000000,0.000464,0.000327,-0.000280,-0.098517,-0.499942,0.547322,0.663920,96.841170,33.779821,-125.333843
46150,-5.654685,7.515026,-0.574004,0.022705,0.610681,-0.410184,0.310278,-0.086330,-0.043064,-0.056528,0.075171,-0.005648,0.999999,0.001551,-0.000432,-0.000215,-0.097381,-0.499877,0.548313,0.663320,96.984900,33.804861,-125.394406
46151,-5.046933,8.037839,-0.430267,-0.617307,0.099820,-0.332579,0.339295,-0.123454,-0.043822,-0.050449,0.080397,-0.004197,0.999998,0.001696,-0.000617,-0.000219,-0.096068,-0.499702,0.549415,0.662731,97.130998,33.832950,-125.480336
46152,-5.077283,8.461570,-0.628446,-0.647921,-0.156005,0.052795,0.251850,-0.023782,-0.053966,-0.050749,0.084637,-0.006184,0.999999,0.001259,-0.000119,-0.000270,-0.095214,-0.499843,0.550152,0.662136,97.265636,33.859947,-125.497034
46153,-5.515039,8.524909,-0.484719,-0.590774,0.214204,0.332743,0.166114,0.028870,-0.058592,-0.055126,0.085269,-0.004768,1.000000,0.000831,0.000144,-0.000293,-0.094704,-0.500129,0.550568,0.661648,97.371295,33.885614,-125.477322
46154,-5.621658,8.555272,-0.146411,-0.823467,0.491627,0.380318,0.112478,-0.055639,-0.071029,-0.056186,0.085573,-0.001432,1.000000,0.000562,-0.000278,-0.000355,-0.094053,-0.500145,0.550815,0.661523,97.414799,33.924701,-125.514215
46155,-5.258243,8.611377,-0.369210,-0.853869,0.075202,0.247456,-0.113782,-0.072810,-0.100407,-0.052538,0.086138,-0.003760,1.000000,-0.000569,-0.000364,-0.000502,-0.093825,-0.500077,0.550248,0.662079,97.323251,33.981579,-125.560435
46156,-5.090424,8.250652,-1.162767,-0.162947,-0.426001,-0.059247,-0.356026,0.033278,-0.123902,-0.050855,0.082517,-0.011766,0.999998,-0.001780,0.000166,-0.000620,-0.094415,-0.500311,0.548769,0.663044,97.134842,34.044221,-125.531938
46157,-5.201226,7.750370,-1.747833,0.565864,-0.553742,-0.349652,-0.373621,0.143284,-0.146924,-0.051968,0.077509,-0.017586,0.999998,-0.001868,0.000716,-0.000735,-0.095275,-0.500961,0.547120,0.663792,96.979403,34.112104,-125.426307
46158,-5.272297,7.336804,-2.144917,1.086664,-0.612273,-0.611017,-0.193968,0.152729,-0.138278,-0.052689,0.073384,-0.021480,0.999999,-0.000970,0.000764,-0.000691,-0.095739,-0.501705,0.546083,0.664018,96.930469,34.174747,-125.314839
46159,-5.314766,7.076591,-2.055816,1.140492,-0.429898,-0.809038,0.116722,0.122920,-0.093360,-0.053127,0.070803,-0.020484,1.000000,0.000584,0.000615,-0.000467,-0.095492,-0.502373,0.546204,0.663448,97.045846,34.213694,-125.227640
46160,-5.295326,6.996447,-1.805167,0.950517,-0.246199,-0.908463,0.365617,0.059770,-0.059839,-0.052938,0.070013,-0.017908,0.999998,0.001828,0.000299,-0.000299,-0.094557,-0.502860,0.547264,0.662339,97.278118,34.238052,-125.186480
46161,-5.200533,7.012507,-1.411163,0.563642,-0.051308,-0.987060,0.579581,0.015827,-0.035209,-0.051994,0.070175,-0.013904,0.999996,0.002898,0.000079,-0.000176,-0.093046,-0.503231,0.549112,0.660740,97.614717,34.251356,-125.177640
46162,-5.351463,7.520530,-1.087821,0.128318,0.086486,-0.519910,0.699759,-0.004920,-0.045125,-0.053497,0.075255,-0.010616,0.999994,0.003499,-0.000025,-0.000226,-0.091141,-0.503613,0.551335,0.658860,98.012863,34.272012,-125.181947
46163,-5.358753,8.044727,-1.076836,-0.151772,-0.069116,-0.088215,0.732856,-0.027078,-0.037470,-0.053571,0.080496,-0.010481,0.999993,0.003664,-0.000135,-0.000187,-0.089116,-0.503908,0.553691,0.656934,98.420973,34.290025,-125.202096
46164,-5.273474,8.636541,-0.935029,-0.608958,-0.225097,0.328905,0.667043,-0.042140,-0.038928,-0.052716,0.086406,-0.009073,0.999994,0.003335,-0.000211,-0.000195,-0.087209,-0.504122,0.555826,0.655220,98.785819,34.310408,-125.232228
46165,-5.251114,8.853858,-0.843765,-0.825706,-0.236012,0.479996,0.481620,-0.065999,-0.041087,-0.052490,0.088569,-0.008242,0.999997,0.002408,-0.000330,-0.000205,-0.085696,-0.504179,0.557354,0.654077,99.035277,34.334101,-125.278414
46166,-5.164711,8.616456,-1.040819,-0.634946,-0.322004,0.261735,0.212741,-0.089850,-0.045935,-0.051623,0.086187,-0.010340,0.999999,0.001064,-0.000449,-0.000230,-0.084777,-0.504055,0.557998,0.653742,99.121898,34.362968,-125.340284
46167,-5.180982,7.915637,-1.746436,0.216138,-0.514094,-0.208578,-0.073032,-0.059828,-0.065128,-0.051779,0.079167,-0.017509,1.000000,-0.000365,-0.000299,-0.000326,-0.084601,-0.503960,0.557648,0.654138,99.057405,34.399785,-125.379561
46168,-5.342552,6.847917,-2.697619,1.496083,-0.640092,-0.864728,-0.064026,-0.090845,-0.056650,-0.053394,0.068486,-0.027022,1.000000,-0.000320,-0.000454,-0.000283,-0.084341,-0.503745,0.557360,0.654582,98.985615,34.434753,-125.441032
46169,-5.379452,5.859876,-3.139880,2.293395,-0.549473,-1.592352,0.113336,-0.174311,-0.027103,-0.053759,0.058624,-0.031412,0.999999,0.000567,-0.000872,-0.000136,-0.083501,-0.503247,0.557763,0.654729,98.981101,34.460235,-125.563076
46170,-5.342764,5.361123,-2.810991,2.244161,-0.184142,-2.059092,0.439219,-0.213665,0.005169,-0.053399,0.053671,-0.028049,0.999997,0.002196,-0.001068,0.000026,-0.081835,-0.502666,0.559327,0.654051,99.146074,34.471349,-125.715607
46171,-5.098610,5.800700,-1.893992,1.212801,0.099269,-1.954554,0.890406,-0.220934,0.042264,-0.050978,0.058080,-0.018738,0.999989,0.004452,-0.001105,0.000211,-0.079135,-0.502135,0.562457,0.652104,99.564478,34.462673,-125.877201
46172,-4.983386,6.980763,-1.103733,-0.022077,0.154095,-1.166374,1.197009,-0.215095,0.078341,-0.049850,0.069853,-0.010673,0.999981,0.005985,-0.001075,0.000392,-0.075796,-0.501629,0.566657,0.649248,100.158325,34.434372,-126.039184
46173,-5.169746,7.984361,-0.754114,-0.721411,0.216323,-0.300743,1.244552,-0.179982,0.093725,-0.051728,0.079864,-0.007091,0.999980,0.006223,-0.000900,0.000469,-0.072486,-0.501192,0.571016,0.646137,100.791886,34.395071,-126.179364
46174,-5.572993,8.640340,-0.823131,-0.850332,0.277154,0.463053,1.060053,-0.172905,0.065174,-0.055751,0.086427,-0.007821,0.999986,0.005300,-0.000865,0.000326,-0.069562,-0.500775,0.574685,0.643524,101.324324,34.372333,-126.311401
46175,-5.556830,8.745004,-1.482923,-0.486253,-0.161410,0.641482,0.859308,-0.176250,0.034560,-0.055571,0.087503,-0.014502,0.999990,0.004297,-0.000881,0.000173,-0.067033,-0.500352,0.577618,0.641491,101.742819,34.367946,-126.441639
46176,-5.359357,8.582710,-1.708135,-0.394131,-0.349803,0.435494,0.894346,-0.152905,0.036344,-0.053596,0.085893,-0.016738,0.999990,0.004472,-0.000765,0.000182,-0.064486,-0.500002,0.580649,0.639286,102.190138,34.360722,-126.556337
46177,-5.239539,8.643736,-1.660561,-0.575937,-0.369243,0.407675,0.967582,-0.068393,0.031451,-0.052403,0.086508,-0.016205,0.999988,0.004838,-0.000342,0.000157,-0.061986,-0.499948,0.583862,0.636644,102.712173,34.346446,-126.613064
46178,-5.337733,8.855761,-1.369584,-0.905516,-0.117034,0.577565,0.971202,0.038501,0.015540,-0.053387,0.088619,-0.013255,0.999988,0.004856,0.000193,0.000078,-0.059736,-0.500271,0.586999,0.633714,103.278341,34.327878,-126.595207
46179,-5.585899,9.174438,-1.178690,-1.145632,0.135769,0.931168,0.815914,0.107958,-0.039026,-0.055847,0.091802,-0.011382,0.999992,0.004080,0.000540,-0.000195,-0.057905,-0.500917,0.589475,0.631069,103.786835,34.330066,-126.521848
46180,-5.555163,9.495365,-1.310554,-1.289908,-0.030558,1.190689,0.502806,0.138559,-0.101414,-0.055512,0.095014,-0.012828,0.999996,0.002514,0.000693,-0.000507,-0.056749,-0.501747,0.590791,0.629282,104.133485,34.362451,-126.417405
46181,-5.521647,9.718977,-1.537826,-1.301489,-0.255916,1.392337,0.149993,0.195308,-0.135304,-0.055166,0.097239,-0.015251,0.999999,0.000750,0.000977,-0.000677,-0.056542,-0.502752,0.590894,0.628401,104.302931,34.405056,-126.268803
46182,-5.621824,9.570359,-1.731210,-1.056186,-0.277991,1.367695,-0.128173,0.204069,-0.139177,-0.056169,0.095732,-0.017316,0.999999,-0.000641,0.001020,-0.000696,-0.057045,-0.503718,0.590109,0.628320,104.316963,34.448602,-126.113446
46183,-5.713712,9.144187,-1.707180,-0.806199,-0.086479,1.073987,-0.257384,0.153546,-0.137549,-0.057087,0.091459,-0.017146,0.999999,-0.001287,0.000768,-0.000688,-0.057732,-0.504481,0.588935,0.628746,104.237548,34.498174,-125.992404
46184,-5.754629,8.751918,-1.772027,-0.530607,-0.005341,0.797227,-0.282579,0.100555,-0.156093,-0.057487,0.087539,-0.017815,0.999999,-0.001413,0.000503,-0.000780,-0.058266,-0.505125,0.587649,0.629383,104.125458,34.565934,-125.903888
46185,-5.769518,8.411342,-1.848910,-0.287569,0.034830,0.549385,-0.230665,0.085519,-0.167080,-0.057633,0.084140,-0.018561,0.999999,-0.001153,0.000428,-0.000835,-0.058592,-0.505766,0.586502,0.629907,104.038287,34.641717,-125.823812
46186,-5.729305,8.148415,-1.852063,-0.170382,0.069717,0.317358,-0.088770,0.059401,-0.172746,-0.057228,0.081525,-0.018540,0.999999,-0.000444,0.000297,-0.000864,-0.058462,-0.506384,0.585794,0.630082,104.023172,34.724642,-125.760358
46187,-5.763802,7.567411,-1.419983,-0.171021,0.555444,-0.212392,0.140455,0.024136,-0.186562,-0.057569,0.075738,-0.014140,0.999999,0.000702,0.000121,-0.000933,-0.057608,-0.506996,0.585783,0.629678,104.127101,34.819809,-125.718365
46188,-5.797731,7.062789,-1.107268,-0.138067,0.943088,-0.657680,0.316029,-0.007142,-0.220245,-0.057899,0.070709,-0.010963,0.999998,0.001580,-0.000036,-0.001101,-0.056108,-0.507659,0.586246,0.628848,104.323279,34.938306,-125.691315
46189,-5.834975,6.760581,-1.132273,0.021271,1.044553,-0.871616,0.454585,-0.023946,-0.258504,-0.058261,0.067707,-0.011176,0.999997,0.002273,-0.000120,-0.001293,-0.054089,-0.508416,0.587050,0.627662,104.596335,35.080064,-125.668445
46190,-5.898267,6.803212,-1.338992,0.130972,0.936283,-0.758839,0.561930,-0.025184,-0.284827,-0.058884,0.068153,-0.013206,0.999995,0.002810,-0.000126,-0.001424,-0.051708,-0.509273,0.588119,0.626165,104.933953,35.236762,-125.640629
46191,-5.791609,7.069071,-1.625181,0.091939,0.592082,-0.550046,0.507559,-0.060559,-0.289286,-0.057809,0.070815,-0.016090,0.999996,0.002538,-0.000303,-0.001446,-0.049350,-0.510012,0.589011,0.624915,105.227464,35.400848,-125.635010
46192,-5.621419,7.065064,-1.700413,0.022415,0.427769,-0.635365,0.442845,-0.080498,-0.292439,-0.056104,0.070770,-0.016870,0.999996,0.002214,-0.000402,-0.001462,-0.047085,-0.510680,0.589692,0.623901,105.477226,35.569901,-125.641225
46193,-5.462037,7.314485,-1.780793,-0.174468,0.189900,-0.515370,0.428069,-0.054175,-0.287788,-0.054510,0.073261,-0.017666,0.999997,0.002140,-0.000271,-0.001439,-0.044951,-0.511407,0.590329,0.622859,105.728651,35.732154,-125.629700
46194,-5.285271,7.760234,-2.207306,-0.250668,-0.353698,-0.177366,0.433314,-0.024388,-0.255167,-0.052751,0.077717,-0.021911,0.999997,0.002167,-0.000122,-0.001276,-0.042992,-0.512131,0.591056,0.621713,105.992086,35.871918,-125.603158
46195,-5.276760,8.275470,-2.450110,-0.416574,-0.673949,0.272089,0.452710,0.030011,-0.199898,-0.052688,0.082863,-0.024306,0.999997,0.002264,0.000150,-0.000999,-0.041317,-0.512859,0.591968,0.620356,106.282213,35.972286,-125.549795
46196,-5.486340,8.700998,-2.199708,-0.766834,-0.477965,0.667265,0.371446,0.009974,-0.140859,-0.054803,0.087089,-0.021833,0.999998,0.001857,0.000050,-0.000704,-0.039973,-0.513334,0.592782,0.619274,106.511560,36.043454,-125.521074
46197,-5.625452,8.945055,-1.741309,-1.175970,-0.136814,0.831101,0.147972,-0.095455,-0.097458,-0.056203,0.089491,-0.017374,0.999999,0.000740,-0.000477,-0.000487,-0.039025,-0.513305,0.593034,0.619117,106.565384,36.107666,-125.572677
46198,-5.616675,8.718660,-1.353794,-1.321861,0.182256,0.561042,-0.086061,-0.145725,-0.089330,-0.056118,0.087206,-0.013616,1.000000,-0.000430,-0.000729,-0.000447,-0.038553,-0.513052,0.592592,0.619779,106.464195,36.175838,-125.660028
46199,-5.740292,8.070492,-1.324849,-0.913055,0.453435,0.127116,-0.191110,-0.134802,-0.113984,-0.057348,0.080725,-0.013364,0.999999,-0.000956,-0.000674,-0.000570,-0.038308,-0.512883,0.591759,0.620729,106.309501,36.255341,-125.735473
46200,-5.907246,7.345607,-1.777817,-0.113350,0.437920,-0.230962,-0.172093,-0.131163,-0.172192,-0.058997,0.073492,-0.017880,0.999999,-0.000860,-0.000656,-0.000861,-0.037842,-0.512903,0.590833,0.621623,106.174105,36.366425,-125.796996
46201,-5.824919,7.164400,-2.615315,0.523639,-0.170832,-0.231730,-0.177713,-0.120577,-0.204186,-0.058160,0.071680,-0.026252,0.999999,-0.000889,-0.000603,-0.001021,-0.037325,-0.513045,0.589805,0.622513,106.042765,36.493027,-125.845602
46202,-5.828869,7.405118,-2.944518,0.618371,-0.497606,0.028634,-0.179139,-0.132184,-0.194174,-0.058197,0.074081,-0.029550,0.999999,-0.000896,-0.000661,-0.000971,-0.036806,-0.513123,0.588799,0.623431,105.904774,36.616147,-125.904351
46203,-6.014113,7.701196,-2.071403,-0.054966,0.114618,0.174929,-0.075956,-0.170199,-0.171766,-0.060057,0.077056,-0.020794,0.999999,-0.000380,-0.000851,-0.000859,-0.035982,-0.513032,0.588178,0.624140,105.806968,36.732481,-125.994209
46204,-6.009276,7.781884,-1.305231,-0.627533,0.597623,0.067684,-0.014864,-0.200200,-0.174056,-0.060012,0.077870,-0.013118,0.999999,-0.000074,-0.001001,-0.000870,-0.034904,-0.512866,0.587746,0.624744,105.732073,36.854930,-126.104432
46205,-5.696498,7.405447,-1.584006,-0.378436,0.293982,-0.348538,-0.025406,-0.171704,-0.190065,-0.056881,0.074107,-0.015898,0.999999,-0.000127,-0.000859,-0.000950,-0.033889,-0.512832,0.587234,0.625309,105.663983,36.981398,-126.192489
46206,-5.466347,7.263462,-2.265137,0.050830,-0.308225,-0.449352,-0.049952,-0.102870,-0.202138,-0.054578,0.072684,-0.022698,0.999999,-0.000250,-0.000514,-0.001011,-0.033099,-0.513046,0.586602,0.625769,105.611975,37.104106,-126.230711
46207,-5.751293,6.963190,-2.436811,0.460545,-0.167997,-0.471323,0.075010,-0.068560,-0.176892,-0.057443,0.069692,-0.024362,0.999999,0.000375,-0.000343,-0.000884,-0.032170,-0.513311,0.586419,0.625772,105.642425,37.207292,-126.250388
46208,-5.875683,7.388467,-2.359857,0.212555,-0.176635,-0.086146,0.142089,-0.086694,-0.172177,-0.058683,0.073952,-0.023571,0.999999,0.000710,-0.000433,-0.000861,-0.031028,-0.513517,0.586461,0.625621,105.703584,37.310987,-126.283240
46209,-5.675381,7.838994,-2.645972,0.046444,-0.657273,0.198644,0.009476,-0.084975,-0.141838,-0.056687,0.078431,-0.026480,1.000000,0.000047,-0.000425,-0.000709,-0.030329,-0.513617,0.586164,0.625851,105.685465,37.397405,-126.321025
46210,-5.796850,8.087707,-2.106881,-0.408074,-0.291138,0.346157,0.001745,-0.097007,-0.107098,-0.057915,0.080908,-0.021096,1.000000,0.000009,-0.000485,-0.000535,-0.029721,-0.513578,0.585935,0.626127,105.654020,37.466793,-126.373808
46211,-5.802222,8.043745,-1.741552,-0.630529,-0.029751,0.237296,-0.027167,-0.107053,-0.092559,-0.057976,0.080462,-0.017457,1.000000,-0.000136,-0.000535,-0.000463,-0.029205,-0.513459,0.585653,0.626512,105.599537,37.529362,-126.436729
46212,-5.740750,7.506852,-1.769696,-0.339418,0.066731,-0.204296,-0.009292,-0.072227,-0.114044,-0.057358,0.075100,-0.017721,1.000000,-0.000046,-0.000361,-0.000570,-0.028676,-0.513515,0.585367,0.626758,105.572878,37.598707,-126.471132
46213,-5.705181,7.314083,-2.267570,0.083416,-0.255703,-0.267300,0.020824,-0.003123,-0.134484,-0.057002,0.073182,-0.022669,1.000000,0.000104,-0.000016,-0.000672,-0.028211,-0.513850,0.585113,0.626742,105.594840,37.668364,-126.453667
46214,-5.856133,7.746417,-2.786493,0.254561,-0.668661,0.264708,-0.083136,0.063891,-0.124558,-0.058522,0.077489,-0.027878,1.000000,-0.000416,0.000319,-0.000623,-0.028237,-0.514354,0.584548,0.626854,105.585077,37.722554,-126.391142
46215,-6.005929,8.203861,-2.793183,0.073251,-0.734197,0.705486,-0.200570,-0.005883,-0.087400,-0.060023,0.082037,-0.028016,0.999999,-0.001003,-0.000029,-0.000437,-0.028480,-0.514511,0.583721,0.627485,105.473443,37.766641,-126.384777
46216,-5.999825,7.832021,-2.020656,-0.236795,-0.092040,0.254931,-0.123301,-0.058387,-0.075790,-0.059963,0.078330,-0.020272,1.000000,-0.000617,-0.000292,-0.000379,-0.028405,-0.514482,0.583172,0.628022,105.382548,37.812673,-126.417232
46217,-5.881184,7.220563,-1.950814,0.009063,0.063076,-0.298148,-0.096721,-0.045811,-0.089830,-0.058775,0.072223,-0.019557,1.000000,-0.000484,-0.000229,-0.000449,-0.028257,-0.514534,0.582670,0.628452,105.313484,37.864151,-126.438497
46218,-5.861429,6.595565,-2.212168,0.527876,0.056634,-0.731407,0.007405,-0.015430,-0.113658,-0.058575,0.065990,-0.022124,1.000000,0.000037,-0.000077,-0.000568,-0.027852,-0.514769,0.582428,0.628503,105.320270,37.924558,-126.433767
46219,-5.883146,7.122902,-2.563860,0.470501,-0.351071,-0.243159,0.075459,0.002686,-0.111014,-0.058792,0.071271,-0.025611,1.000000,0.000377,0.000013,-0.000555,-0.027335,-0.515059,0.582404,0.628309,105.373225,37.980402,-126.417002
46220,-5.854440,7.972214,-2.781640,0.116230,-0.798708,0.430199,0.019929,-0.017334,-0.076196,-0.058512,0.079747,-0.027814,1.000000,0.000100,-0.000087,-0.000381,-0.027010,-0.515180,0.582298,0.628322,105.381979,38.020398,-126.420742
46221,-5.803934,8.305010,-2.291291,-0.429885,-0.598385,0.549068,-0.035720,-0.062338,-0.034392,-0.058018,0.083056,-0.022946,1.000000,-0.000179,-0.000312,-0.000172,-0.026831,-0.515028,0.582132,0.628608,105.334122,38.043756,-126.464290
46222,-5.665165,7.848029,-2.029387,-0.411303,-0.361402,0.061739,-0.022934,-0.054086,-0.019915,-0.056638,0.078484,-0.020318,1.000000,-0.000115,-0.000270,-0.000100,-0.026686,-0.514864,0.582041,0.628833,105.295715,38.058209,-126.504696
46223,-5.681046,7.297891,-2.354359,0.130458,-0.407753,-0.278894,-0.037492,-0.012000,-0.019225,-0.056802,0.072980,-0.023561,1.000000,-0.000187,-0.000060,-0.000096,-0.026707,-0.514825,0.581901,0.628993,105.266778,38.065500,-126.515875
46224,-5.822643,6.904438,-2.108365,0.252899,-0.020258,-0.541481,0.037851,-0.029667,-0.011496,-0.058219,0.069052,-0.021079,1.000000,0.000189,-0.000148,-0.000057,-0.026503,-0.514721,0.582020,0.628977,105.272751,38.071590,-126.540774
46225,-5.733701,7.010859,-1.911132,0.012898,0.030199,-0.556402,0.132926,-0.015612,-0.017382,-0.057329,0.070126,-0.019069,1.000000,0.000665,-0.000078,-0.000087,-0.026080,-0.514689,0.582421,0.628650,105.339697,38.078410,-126.554827
46226,-5.616163,7.650308,-2.504093,-0.008077,-0.664067,-0.019938,0.020761,0.038872,-0.020056,-0.056159,0.076511,-0.025022,1.000000,0.000104,0.000194,-0.000100,-0.026093,-0.514823,0.582455,0.628508,105.366567,38.078861,-126.529961
46227,-5.685581,8.284579,-2.206887,-0.536833,-0.611713,0.442460,-0.024050,0.036776,0.007455,-0.056863,0.082841,-0.022068,1.000000,-0.000120,0.000184,0.000037,-0.026304,-0.514862,0.582420,0.628500,105.363313,38.064003,-126.512019
46228,-5.677015,7.794705,-1.971127,-0.418763,-0.293753,0.016331,-0.078574,0.023894,0.017731,-0.056779,0.077934,-0.019735,1.000000,-0.000393,0.000119,0.000089,-0.026648,-0.514826,0.582241,0.628681,105.322292,38.045849,-126.504946
46229,-5.856271,6.802955,-2.225532,0.401194,-0.039166,-0.573283,0.019420,0.082641,0.002506,-0.058573,0.068031,-0.022225,1.000000,0.000097,0.000413,0.000013,-0.026866,-0.515029,0.582324,0.628428,105.364339,38.026739,-126.453882
46230,-6.109333,7.113790,-2.931927,0.821010,-0.469245,-0.033531,0.003783,0.103692,0.009927,-0.061112,0.071135,-0.029286,1.000000,0.000019,0.000518,0.000050,-0.027205,-0.515278,0.582372,0.628165,105.405873,38.000762,-126.389372
46231,-6.101950,7.798156,-2.483013,0.124116,-0.370004,0.388198,0.055987,0.026401,0.035185,-0.061036,0.077978,-0.024800,1.000000,0.000280,0.000132,0.000176,-0.027267,-0.515214,0.582662,0.627946,105.440700,37.972129,-126.384076
46232,-5.822992,7.779044,-2.168217,-0.208811,-0.312737,0.136208,0.045484,0.001896,0.056735,-0.058252,0.077779,-0.021664,1.000000,0.000227,0.000009,0.000284,-0.027350,-0.515012,0.582976,0.627817,105.456597,37.935782,-126.400013
46233,-5.793753,7.308781,-2.384088,0.190527,-0.325677,-0.193573,0.067881,0.042266,0.047262,-0.057960,0.073082,-0.023804,1.000000,0.000339,0.000211,0.000236,-0.027466,-0.514964,0.583331,0.627521,105.503608,37.898033,-126.385985
46234,-6.037784,6.875363,-2.331645,0.509168,0.015423,-0.383875,0.191540,0.057343,0.041304,-0.060399,0.068763,-0.023233,0.999999,0.000958,0.000287,0.000207,-0.027285,-0.515001,0.584056,0.626825,105.628810,37.861703,-126.360220
46235,-6.017053,7.021672,-2.394084,0.447639,-0.073073,-0.271477,0.226010,0.069155,0.031796,-0.060190,0.070234,-0.023841,0.999999,0.001130,0.000346,0.000159,-0.027024,-0.515104,0.584863,0.625998,105.779703,37.828279,-126.324556
46236,-5.941252,7.286427,-2.374250,0.235125,-0.174141,-0.120324,0.237938,0.067513,0.039479,-0.059435,0.072881,-0.023636,0.999999,0.001190,0.000338,0.000197,-0.026748,-0.515182,0.585725,0.625139,105.935877,37.791260,-126.291594
46237,-5.939264,7.756971,-2.288312,-0.105714,-0.243319,0.217836,0.260310,0.060815,0.054628,-0.059421,0.077583,-0.022764,0.999999,0.001302,0.000304,0.000273,-0.026445,-0.515195,0.586697,0.624228,106.099893,37.746435,-126.266556
46238,-5.895639,7.833739,-2.195554,-0.246816,-0.209084,0.229314,0.281307,0.050719,0.062572,-0.058986,0.078350,-0.021830,0.999999,0.001407,0.000254,0.000313,-0.026080,-0.515157,0.587754,0.623280,106.270687,37.699243,-126.250247
46239,-5.838068,7.700310,-2.117860,-0.264314,-0.128747,0.075520,0.287420,0.058695,0.058079,-0.058409,0.077016,-0.021051,0.999999,0.001437,0.000293,0.000290,-0.025712,-0.515155,0.588818,0.622292,106.448650,37.652729,-126.227751
46240,-5.866610,7.597766,-2.245496,-0.119785,-0.148946,0.043724,0.229140,0.081035,0.061441,-0.058699,0.075985,-0.022344,0.999999,0.001146,0.000405,0.000307,-0.025567,-0.515206,0.589703,0.621417,106.602282,37.601142,-126.190558
46241,-5.845149,7.698561,-1.975352,-0.380882,0.018341,0.045820,0.252539,0.076943,0.073983,-0.058488,0.076989,-0.019634,0.999999,0.001263,0.000385,0.000370,-0.025392,-0.515207,0.590695,0.620480,106.765695,37.542786,-126.159090
46242,-5.812060,7.893417,-2.110143,-0.429172,-0.135585,0.204106,0.195605,0.097154,0.078804,-0.058162,0.078932,-0.020996,0.999999,0.000978,0.000486,0.000394,-0.025435,-0.515251,0.591517,0.619658,106.904378,37.478844,-126.114795
46243,-5.869847,8.039915,-2.115540,-0.489641,-0.126477,0.351715,0.134929,0.090495,0.092992,-0.058745,0.080386,-0.021075,1.000000,0.000675,0.000452,0.000465,-0.025662,-0.515222,0.592190,0.619031,107.003338,37.407673,-126.078383
46244,-5.931681,7.883552,-2.087595,-0.391019,-0.003862,0.264036,0.081304,0.077440,0.090160,-0.059360,0.078817,-0.020821,1.000000,0.000407,0.000387,0.000451,-0.025976,-0.515155,0.592689,0.618595,107.066523,37.340696,-126.050439
46245,-5.843824,7.584995,-2.130109,-0.231864,0.012577,-0.006268,0.080730,0.093168,0.074638,-0.058476,0.075837,-0.021243,1.000000,0.000404,0.000466,0.000373,-0.026294,-0.515181,0.593146,0.618123,107.137632,37.279034,-126.008607
46246,-5.732923,7.339072,-2.185970,-0.105389,-0.011829,-0.247355,0.040137,0.132773,0.065685,-0.057368,0.073376,-0.021807,1.000000,0.000201,0.000664,0.000328,-0.026803,-0.515352,0.593446,0.617669,107.203210,37.216044,-125.937656
46247,-6.034057,6.714368,-2.553479,0.641079,0.122270,-0.453901,0.059655,0.162921,0.079663,-0.060388,0.067127,-0.025466,1.000000,0.000298,0.000815,0.000398,-0.027397,-0.515575,0.593841,0.617078,107.290295,37.139696,-125.849264
46248,-6.260305,6.802244,-2.433548,0.609375,0.347372,-0.278955,0.271776,0.086019,0.108539,-0.062650,0.068021,-0.024216,0.999999,0.001359,0.000430,0.000543,-0.027302,-0.515505,0.594972,0.616050,107.463312,37.061070,-125.819983
46249,-5.788159,7.711832,-1.890276,-0.513679,0.186658,-0.002005,0.392888,0.009172,0.133129,-0.057934,0.077117,-0.018749,0.999998,0.001964,0.000046,0.000666,-0.026745,-0.515138,0.596549,0.614855,107.670424,36.981748,-125.849058
46250,-5.383852,8.499158,-2.016870,-1.091082,-0.361209,0.383797,0.338631,0.038122,0.123312,-0.053895,0.084992,-0.020015,0.999998,0.001693,0.000191,0.000617,-0.026381,-0.514882,0.597927,0.613745,107.859649,36.903278,-125.856436
46251,-5.265136,8.787537,-2.342076,-1.108045,-0.723813,0.612094,0.141609,0.112215,0.115677,-0.052715,0.087861,-0.023329,0.999999,0.000708,0.000561,0.000578,-0.026725,-0.514847,0.598671,0.613034,107.966912,36.815422,-125.812013
46252,-5.317309,8.438743,-2.517013,-0.763420,-0.695651,0.422289,-0.011887,0.182004,0.103391,-0.053240,0.084358,-0.025127,0.999999,-0.000059,0.000910,0.000517,-0.027632,-0.515044,0.598901,0.612603,108.016325,36.722369,-125.717482
46253,-5.563418,7.903890,-2.795606,-0.142664,-0.566446,0.232076,-0.146374,0.232025,0.101665,-0.055707,0.078990,-0.027949,0.999999,-0.000732,0.001160,0.000508,-0.029034,-0.515378,0.598709,0.612446,108.008721,36.620792,-125.588883
46254,-5.827149,7.281635,-2.938464,0.451520,-0.306420,-0.049766,-0.184137,0.218702,0.117656,-0.058346,0.072755,-0.029388,0.999999,-0.000921,0.001094,0.000588,-0.030538,-0.515618,0.598441,0.612432,107.971991,36.513473,-125.472840
46255,-6.087867,6.829268,-2.741996,0.717105,0.143983,-0.289842,-0.069445,0.154904,0.142065,-0.060948,0.068240,-0.027396,0.999999,-0.000347,0.000775,0.000710,-0.031635,-0.515604,0.598598,0.612235,107.971619,36.403571,-125.405628
46256,-6.090193,6.781986,-2.520476,0.604235,0.330924,-0.380617,0.100317,0.070776,0.159476,-0.060965,0.067784,-0.025149,0.999999,0.000502,0.000354,0.000797,-0.032091,-0.515310,0.599330,0.611743,108.032538,36.299638,-125.399211
46257,-5.783606,7.243927,-2.301604,0.047951,0.173178,-0.263361,0.212750,0.024391,0.151155,-0.057894,0.072420,-0.022932,0.999999,0.001064,0.000122,0.000756,-0.032097,-0.514913,0.600393,0.611034,108.140112,36.207931,-125.422584
46258,-5.555763,7.324273,-2.287943,-0.117487,0.031689,-0.340026,0.206700,0.048980,0.142961,-0.055616,0.073227,-0.022790,0.999999,0.001033,0.000245,0.000715,-0.032163,-0.514617,0.601410,0.610280,108.255187,36.116870,-125.427657
46259,-5.469703,6.839405,-2.388220,0.185093,0.061091,-0.737410,0.233444,0.115563,0.146788,-0.054761,0.068382,-0.023771,0.999999,0.001167,0.000578,0.000734,-0.032376,-0.514513,0.602508,0.609272,108.411106,36.011196,-125.389146
46260,-6.367721,6.726070,-2.381339,0.657131,0.717773,-0.298932,0.396321,0.090745,0.176147,-0.063747,0.067252,-0.023651,0.999998,0.001982,0.000454,0.000881,-0.032181,-0.514272,0.604178,0.607831,108.646541,35.894528,-125.374291
46261,-6.346871,8.208123,-1.462067,-0.841387,0.987221,0.584957,0.551284,-0.078971,0.176055,-0.063535,0.082065,-0.014420,0.999996,0.002756,-0.000395,0.000880,-0.031077,-0.513534,0.606343,0.606354,108.903662,35.808650,-125.473734
46262,-5.383056,9.821681,-1.132344,-2.469640,0.192355,1.168602,0.298769,-0.042416,0.139734,-0.053897,0.098196,-0.011188,0.999999,0.001494,-0.000212,0.000699,-0.030619,-0.512978,0.607638,0.605551,109.035401,35.736424,-125.540590
46263,-5.312175,10.180903,-1.759328,-2.294763,-0.374838,1.569700,-0.180780,0.080914,0.091548,-0.053175,0.101769,-0.017664,0.999999,-0.000904,0.000405,0.000458,-0.031624,-0.512864,0.607340,0.605895,108.946613,35.666795,-125.514239
46264,-5.606417,9.361997,-2.150805,-1.386806,-0.253675,1.219860,-0.572602,0.145475,0.053840,-0.056105,0.093543,-0.021735,0.999996,-0.002863,0.000727,0.000269,-0.033711,-0.512999,0.605743,0.607265,108.663866,35.606298,-125.435817
46265,-5.677111,8.140411,-2.428904,-0.410549,-0.104082,0.395925,-0.773728,0.136394,0.054885,-0.056810,0.081294,-0.024565,0.999992,-0.003869,0.000682,0.000274,-0.036294,-0.513059,0.603533,0.609262,108.261954,35.546649,-125.363528
46266,-5.792950,7.467035,-2.646420,0.231530,-0.024231,-0.001269,-0.826842,0.133999,0.059975,-0.057970,0.074543,-0.026734,0.999991,-0.004134,0.000670,0.000300,-0.039017,-0.513082,0.601164,0.611413,107.828665,35.485698,-125.293264
46267,-6.001391,7.325474,-2.318642,0.242594,0.356137,-0.072594,-0.756211,0.068857,0.072728,-0.060049,0.073145,-0.023442,0.999993,-0.003781,0.000344,0.000364,-0.041405,-0.512870,0.599048,0.613508,107.408748,35.428890,-125.269098
46268,-5.717826,7.626943,-1.965644,-0.249878,0.300791,-0.087752,-0.711331,-0.003790,0.058251,-0.057200,0.076182,-0.019929,0.999994,-0.003557,-0.000019,0.000291,-0.043411,-0.512484,0.597038,0.615648,106.988710,35.393077,-125.290005
46269,-5.346978,7.520349,-2.487786,0.043611,-0.306855,-0.260802,-0.778154,0.008100,0.039508,-0.053486,0.075095,-0.025168,0.999992,-0.003891,0.000040,0.000198,-0.045570,-0.512165,0.594764,0.617953,106.536990,35.364856,-125.298992
46270,-5.532128,6.897735,-3.158092,0.988168,-0.493638,-0.488723,-0.765222,0.048543,0.021442,-0.055336,0.068850,-0.031831,0.999993,-0.003826,0.000243,0.000107,-0.047755,-0.512023,0.592465,0.620110,106.111109,35.340599,-125.276661
46271,-5.626229,6.518956,-3.095209,1.240896,-0.298449,-0.751643,-0.594929,0.021002,0.013759,-0.056270,0.065093,-0.031140,0.999996,-0.002975,0.000105,0.000069,-0.049402,-0.511850,0.590675,0.621829,105.772623,35.324435,-125.271448
46272,-5.508473,6.145930,-2.731528,1.167439,-0.033414,-1.197998,-0.415710,-0.013771,0.017692,-0.055088,0.061397,-0.027447,0.999998,-0.002079,-0.000069,0.000088,-0.050496,-0.511602,0.589456,0.623101,105.523234,35.312093,-125.290203
46273,-5.320042,6.188824,-2.401829,0.846560,0.043026,-1.347781,-0.258686,0.017211,0.013099,-0.053207,0.061854,-0.024094,0.999999,-0.001293,0.000086,0.000065,-0.051269,-0.511499,0.588706,0.623832,105.376165,35.296948,-125.287226
46274,-5.354295,6.397104,-2.476072,0.815837,-0.051902,-1.149313,-0.163871,0.043480,0.033147,-0.053559,0.063942,-0.024801,1.000000,-0.000819,0.000217,0.000166,-0.051935,-0.511445,0.588294,0.624209,105.291859,35.267309,-125.270004
46275,-5.491865,6.740793,-2.789208,0.923613,-0.275707,-0.732518,-0.044408,0.053388,0.053314,-0.054944,0.067387,-0.027892,1.000000,-0.000222,0.000267,0.000267,-0.052391,-0.511392,0.588305,0.624205,105.277478,35.224513,-125.249904
46276,-5.759815,7.181139,-2.681526,0.742777,-0.150865,-0.254428,0.036645,0.003587,0.075751,-0.057626,0.071794,-0.026801,1.000000,0.000183,0.000018,0.000379,-0.052560,-0.511140,0.588638,0.624083,105.287956,35.177364,-125.267524
46277,-5.573209,7.701087,-2.231006,0.063462,-0.117101,-0.049131,0.112081,-0.059827,0.105638,-0.055766,0.076994,-0.022284,1.000000,0.000560,-0.000299,0.000528,-0.052446,-0.510620,0.589300,0.623893,105.313624,35.122785,-125.333627
46278,-5.261229,8.327967,-2.007803,-0.574474,-0.350443,0.217966,0.132075,-0.070348,0.116149,-0.052654,0.083262,-0.020042,1.000000,0.000660,-0.000352,0.000581,-0.052280,-0.510043,0.590053,0.623667,105.345786,35.064525,-125.408681
46279,-5.592509,8.342908,-0.846442,-1.237467,0.673408,0.167889,0.236566,-0.071575,0.093949,-0.055961,0.083413,-0.008386,0.999999,0.001183,-0.000358,0.000470,-0.051777,-0.509552,0.591076,0.623142,105.439563,35.018258,-125.480557
46280,-5.561028,8.280495,-1.299863,-0.903936,0.371001,0.198633,0.026506,-0.031855,0.043019,-0.055626,0.082795,-0.012997,1.000000,0.000133,-0.000159,0.000215,-0.051765,-0.509283,0.591302,0.623148,105.434002,34.994630,-125.516093
46281,-5.445813,8.253914,-2.263508,-0.263003,-0.359972,0.321841,-0.237425,0.021974,0.019765,-0.054469,0.082507,-0.022727,0.999999,-0.001187,0.000110,0.000099,-0.052516,-0.509179,0.590633,0.623804,105.300267,34.975107,-125.511112
46282,-5.688444,8.602349,-2.108768,-0.419587,-0.206641,0.703342,-0.336945,0.028778,0.040018,-0.056905,0.085976,-0.021224,0.999999,-0.001685,0.000144,0.000200,-0.053599,-0.509012,0.589702,0.624729,105.110320,34.943910,-125.505055
46283,-5.910199,8.773462,-2.104337,-0.376241,-0.123414,0.965781,-0.439398,-0.022292,0.048073,-0.059121,0.087674,-0.021243,0.999998,-0.002197,-0.000111,0.000240,-0.054821,-0.508629,0.588483,0.626082,104.840902,34.915277,-125.534919
46284,-5.563697,8.495627,-2.227599,-0.268038,-0.375439,0.573825,-0.469844,-0.059579,0.084225,-0.055666,0.084880,-0.022492,0.999997,-0.002349,-0.000298,0.000421,-0.056120,-0.508015,0.587267,0.627606,104.536364,34.872461,-125.596059
46285,-5.271382,8.072340,-2.164285,-0.193657,-0.411446,0.057845,-0.261133,-0.049352,0.138757,-0.052764,0.080658,-0.021761,0.999999,-0.001306,-0.000247,0.000694,-0.057094,-0.507326,0.586840,0.628474,104.349853,34.797132,-125.659652
46286,-5.468350,8.051180,-1.976325,-0.198824,-0.144341,0.115546,-0.024294,-0.048020,0.159263,-0.054743,0.080466,-0.019786,1.000000,-0.000121,-0.000240,0.000796,-0.057531,-0.506651,0.587207,0.628636,104.298039,34.710703,-125.725491
46287,-5.582120,7.760992,-2.079919,0.092016,-0.041162,-0.029593,0.070032,-0.061295,0.153331,-0.055874,0.077574,-0.020789,1.000000,0.000350,-0.000306,0.000767,-0.057675,-0.505976,0.587860,0.628556,104.295618,34.628819,-125.799292
46288,-5.428145,7.392214,-2.021590,0.174786,0.019256,-0.423040,0.152156,-0.064962,0.141543,-0.054327,0.073899,-0.020177,0.999999,0.000761,-0.000325,0.000708,-0.057560,-0.505349,0.588741,0.628246,104.340380,34.554622,-125.873367
46289,-5.392506,7.416748,-1.755605,-0.041382,0.183098,-0.478119,0.188314,-0.059847,0.125396,-0.053966,0.074150,-0.017502,0.999999,0.000942,-0.000299,0.000627,-0.057322,-0.504793,0.589693,0.627821,104.409183,34.488127,-125.941365
46290,-5.346400,7.730663,-1.431316,-0.454436,0.292065,-0.320375,0.111995,-0.069298,0.104189,-0.053499,0.077287,-0.014288,1.000000,0.000560,-0.000346,0.000521,-0.057178,-0.504251,0.590353,0.627650,104.433055,34.435386,-126.011940
46291,-5.250752,7.866980,-1.509220,-0.509711,0.139595,-0.249308,-0.061491,-0.070123,0.089530,-0.052537,0.078642,-0.015135,1.000000,-0.000307,-0.000351,0.000448,-0.057427,-0.503696,0.590433,0.627998,104.358440,34.390285,-126.080610
46292,-5.098658,7.900146,-1.619261,-0.507342,-0.048841,-0.285315,-0.194236,-0.030903,0.095655,-0.051022,0.078961,-0.016277,0.999999,-0.000971,-0.000155,0.000478,-0.058141,-0.503211,0.590098,0.628636,104.222485,34.336720,-126.123669
46293,-5.300863,7.843191,-1.878041,-0.175520,-0.078538,-0.163604,-0.274780,0.027031,0.091533,-0.053047,0.078382,-0.018881,0.999999,-0.001374,0.000135,0.000458,-0.059220,-0.502893,0.589483,0.629366,104.062562,34.276640,-126.127022
46294,-5.518540,7.772941,-1.914854,0.015958,0.057555,-0.089727,-0.268391,0.041496,0.080215,-0.055221,0.077681,-0.019241,0.999999,-0.001342,0.000207,0.000401,-0.060285,-0.502657,0.588853,0.630043,103.913277,34.221446,-126.118397
46295,-5.393710,7.945855,-1.973008,-0.070366,-0.122129,-0.009547,-0.273662,0.042960,0.078636,-0.053973,0.079410,-0.019827,0.999999,-0.001368,0.000215,0.000393,-0.061367,-0.502425,0.588202,0.630731,103.761436,34.166345,-126.108513
46296,-5.070539,7.914268,-2.274183,0.019094,-0.534878,-0.157044,-0.152202,0.093295,0.069402,-0.050743,0.079108,-0.022778,1.000000,-0.000761,0.000466,0.000347,-0.062259,-0.502418,0.587893,0.630937,103.699415,34.110157,-126.062991
46297,-5.059000,7.970873,-2.182781,-0.068599,-0.491848,-0.135591,-0.141374,0.210199,0.069429,-0.050641,0.079676,-0.021831,0.999999,-0.000707,0.001051,0.000347,-0.063471,-0.502780,0.587583,0.630817,103.687265,34.037505,-125.939048
46298,-5.364267,7.828705,-2.550744,0.424238,-0.484030,-0.006771,-0.162316,0.210775,0.085617,-0.053703,0.078243,-0.025514,0.999999,-0.000812,0.001054,0.000428,-0.064784,-0.503092,0.587244,0.630750,103.661980,33.956414,-125.817297
46299,-5.507622,7.807630,-2.286836,0.321973,-0.186714,0.004850,0.122184,0.134780,0.132171,-0.055143,0.078054,-0.022784,0.999999,0.000611,0.000674,0.000661,-0.065310,-0.503115,0.587945,0.630024,103.766472,33.859030,-125.754460
46300,-5.896034,8.036248,-1.607010,-0.094882,0.489100,0.270898,0.242839,0.077545,0.124380,-0.059017,0.080345,-0.015950,0.999999,0.001214,0.000388,0.000622,-0.065335,-0.503023,0.589023,0.629088,103.919494,33.774343,-125.728860
46301,-6.076365,8.443661,-1.034641,-0.624037,0.893226,0.584467,0.094774,-0.069743,0.088950,-0.060798,0.084414,-0.010328,1.000000,0.000474,-0.000349,0.000445,-0.065191,-0.502519,0.589595,0.628969,103.935816,33.729021,-125.796197
46302,-5.371520,8.695091,-0.484538,-1.474235,0.713935,0.287288,-0.186603,-0.087612,0.030510,-0.053726,0.086938,-0.004950,0.999999,-0.000933,-0.000438,0.000153,-0.065513,-0.502043,0.589139,0.629743,103.789992,33.719216,-125.865626
46303,-4.788068,8.468157,-1.033959,-1.228532,-0.004083,-0.107282,-0.568469,0.114183,-0.059149,-0.047862,0.084666,-0.010553,0.999996,-0.002842,0.000571,-0.000296,-0.067111,-0.502335,0.587187,0.631163,103.508117,33.731219,-125.785528
46304,-5.181140,7.985201,-1.809276,-0.205285,-0.147608,-0.126772,-0.817758,0.278947,-0.113639,-0.051792,0.079807,-0.018347,0.999991,-0.004089,0.001395,-0.000568,-0.069640,-0.503221,0.584248,0.632909,103.149934,33.752823,-125.586196
46305,-5.772598,7.744849,-1.978267,0.367912,0.175514,0.038840,-0.961947,0.183666,-0.108978,-0.057702,0.077384,-0.020102,0.999988,-0.004810,0.000918,-0.000545,-0.072272,-0.503726,0.580886,0.635302,102.672743,33.784592,-125.451928
46306,-5.533157,7.119781,-2.155208,0.739429,0.051436,-0.571352,-0.916033,0.059333,-0.103132,-0.055301,0.071127,-0.021862,0.999989,-0.004580,0.000297,-0.000516,-0.074440,-0.503828,0.577715,0.637857,102.175130,33.830004,-125.402327
46307,-4.880990,6.679812,-2.374491,0.841531,-0.426147,-1.257441,-0.693984,0.143282,-0.101169,-0.048793,0.066740,-0.023942,0.999994,-0.003470,0.000716,-0.000506,-0.076300,-0.504263,0.575217,0.639549,101.835566,33.864003,-125.296926
46308,-4.844162,6.417500,-2.611734,1.150884,-0.537850,-1.454606,-0.484553,0.252780,-0.077103,-0.048450,0.064130,-0.026212,0.999996,-0.002423,0.001264,-0.000386,-0.078019,-0.505057,0.573400,0.640346,101.655669,33.872736,-125.120904
46309,-5.259276,6.708943,-2.144150,0.876244,-0.048153,-1.066421,-0.142046,0.193822,-0.025225,-0.052605,0.067081,-0.021438,0.999999,-0.000710,0.000969,-0.000126,-0.078873,-0.505641,0.572834,0.640287,101.645455,33.858829,-124.992127
46310,-5.500968,7.395860,-1.415978,0.121447,0.372225,-0.495442,0.167029,0.064040,0.019736,-0.055021,0.073965,-0.014080,1.000000,0.000835,0.000320,0.000099,-0.078714,-0.505806,0.573419,0.639652,101.760243,33.835273,-124.957208
46311,-5.582012,7.723735,-1.152083,-0.200806,0.503050,-0.228907,0.219700,-0.066675,0.038994,-0.055831,0.077239,-0.011455,0.999999,0.001098,-0.000333,0.000195,-0.078113,-0.505515,0.574274,0.639189,101.854243,33.815627,-125.013449
46312,-5.416658,7.878347,-1.147964,-0.361169,0.347950,-0.196304,0.067854,-0.080720,0.003410,-0.054163,0.078786,-0.011475,1.000000,0.000339,-0.000404,0.000017,-0.077738,-0.505224,0.574557,0.639210,101.859056,33.818191,-125.074006
46313,-5.256685,7.902996,-1.489053,-0.193771,0.001145,-0.206971,-0.190454,-0.007822,-0.057751,-0.052543,0.079031,-0.014968,1.000000,-0.000952,-0.000039,-0.000289,-0.078033,-0.505239,0.573833,0.639813,101.747738,33.845916,-125.076881
46314,-5.043719,7.749627,-1.858013,0.059020,-0.347568,-0.388053,-0.255105,0.116524,-0.095972,-0.050411,0.077497,-0.018650,0.999999,-0.001276,0.000583,-0.000480,-0.078721,-0.505737,0.572754,0.640301,101.649454,33.881184,-124.990303
46315,-5.162239,7.969582,-2.046806,0.154604,-0.471595,-0.111860,-0.149329,0.161303,-0.079623,-0.051607,0.079701,-0.020486,0.999999,-0.000747,0.000807,-0.000398,-0.079327,-0.506370,0.572039,0.640366,101.627098,33.901621,-124.875896
46316,-5.537384,8.234940,-1.790111,0.017613,-0.140518,0.270035,-0.103915,0.111543,-0.045665,-0.055365,0.082353,-0.017913,1.000000,-0.000520,0.000558,-0.000228,-0.079779,-0.506768,0.571572,0.640412,101.609702,33.909332,-124.799697
46317,-5.898126,8.461769,-1.178515,-0.373011,0.425661,0.553507,-0.027187,0.057831,-0.048356,-0.058964,0.084630,-0.011780,1.000000,-0.000136,0.000289,-0.000242,-0.079880,-0.507028,0.571367,0.640376,101.615929,33.924188,-124.759583
46318,-5.825158,8.601370,-0.902979,-0.679197,0.501336,0.580519,-0.108769,0.017691,-0.102085,-0.058208,0.086038,-0.009071,1.000000,-0.000544,0.000088,-0.000510,-0.079896,-0.507283,0.570780,0.640696,101.564729,33.974400,-124.739021
46319,-5.372576,8.231873,-0.971579,-0.660194,0.254266,0.039810,-0.301755,0.028521,-0.138653,-0.053670,0.082341,-0.009832,0.999999,-0.001509,0.000143,-0.000693,-0.080320,-0.507597,0.569477,0.641553,101.409491,34.043382,-124.706355
46320,-5.210318,7.796702,-1.450343,-0.159552,-0.045672,-0.325231,-0.417701,0.013205,-0.141810,-0.052049,0.077973,-0.014663,0.999998,-0.002089,0.000066,-0.000709,-0.080979,-0.507825,0.567797,0.642778,101.182479,34.116505,-124.683734
46321,-4.981110,7.526889,-2.001309,0.289229,-0.492091,-0.585290,-0.376689,-0.005867,-0.117882,-0.049766,0.075260,-0.020156,0.999998,-0.001883,-0.000029,-0.000589,-0.081562,-0.507935,0.566315,0.643923,100.969368,34.177779,-124.677760
46322,-4.964690,7.482653,-2.076129,0.372594,-0.554079,-0.620152,-0.216770,0.031737,-0.068986,-0.049624,0.074821,-0.020835,0.999999,-0.001084,0.000159,-0.000345,-0.081997,-0.508094,0.565456,0.644497,100.858920,34.208044,-124.652645
46323,-5.425437,7.593574,-1.713729,0.270248,-0.050967,-0.328017,-0.012098,0.057325,-0.034834,-0.054246,0.075944,-0.017126,1.000000,-0.000060,0.000287,-0.000174,-0.082099,-0.508320,0.565332,0.644414,100.872680,34.215769,-124.614768
46324,-5.741019,7.575108,-1.367626,0.163007,0.395378,-0.219509,0.112549,0.005801,-0.028061,-0.057400,0.075767,-0.013632,1.000000,0.000563,0.000029,-0.000140,-0.081756,-0.508416,0.565648,0.644106,100.937988,34.225824,-124.612662
46325,-5.399714,7.917205,-1.280902,-0.229585,0.102490,-0.147464,0.100296,-0.060173,-0.031024,-0.053981,0.079187,-0.012786,1.000000,0.000501,-0.000301,-0.000155,-0.081253,-0.508298,0.565944,0.644002,100.970921,34.244170,-124.655203
46326,-5.075526,8.105013,-1.614038,-0.223949,-0.399858,-0.125207,-0.009020,-0.033846,-0.026526,-0.050742,0.081056,-0.016153,1.000000,-0.000045,-0.000169,-0.000133,-0.081112,-0.508212,0.565888,0.644137,100.951284,34.257679,-124.680267
46327,-5.026951,8.132701,-2.005925,0.036453,-0.699092,-0.068729,-0.085038,0.009109,-0.002710,-0.050269,0.081319,-0.020092,1.000000,-0.000425,0.000046,-0.000014,-0.081366,-0.508162,0.565631,0.644370,100.902447,34.252542,-124.679397
46328,-5.273320,7.980833,-2.054378,0.262437,-0.509423,-0.045718,0.031372,0.036875,0.017909,-0.052744,0.079807,-0.020522,1.000000,0.000157,0.000184,0.000090,-0.081466,-0.508194,0.565789,0.644193,100.929752,34.233362,-124.662174
46329,-5.445196,8.153936,-1.791928,0.060570,-0.275681,0.150654,0.138246,0.041373,0.009450,-0.054460,0.081549,-0.017852,1.000000,0.000691,0.000207,0.000047,-0.081284,-0.508304,0.566270,0.643707,101.020323,34.217842,-124.640945
46330,-5.480608,8.242180,-1.671720,-0.063731,-0.194918,0.223406,0.135609,0.047999,0.003265,-0.054811,0.082432,-0.016648,1.000000,0.000678,0.000240,0.000016,-0.081103,-0.508455,0.566721,0.643213,101.112652,34.205636,-124.614278
46331,-5.360173,8.079109,-1.973978,0.174187,-0.407623,0.071823,0.108576,0.019765,0.016256,-0.053610,0.080797,-0.019691,1.000000,0.000543,0.000099,0.000081,-0.080957,-0.508465,0.567132,0.642862,101.177425,34.188620,-124.608701
46332,-5.329001,7.795980,-1.621703,0.022917,-0.094894,-0.231668,0.191268,-0.019998,0.027681,-0.053299,0.077968,-0.016148,1.000000,0.000956,-0.000100,0.000138,-0.080520,-0.508350,0.567851,0.642372,101.273804,34.170217,-124.631570
46333,-5.184741,7.935675,-1.210131,-0.426520,0.036323,-0.266084,0.233573,-0.084110,0.043928,-0.051860,0.079359,-0.012030,0.999999,0.001168,-0.000421,0.000220,-0.079850,-0.507997,0.568775,0.641918,101.368464,34.149317,-124.700332
46334,-5.063418,8.148890,-1.198064,-0.601578,-0.100121,-0.163540,0.174050,-0.043402,0.045754,-0.050650,0.081488,-0.011921,1.000000,0.000870,-0.000217,0.000229,-0.079448,-0.507747,0.569493,0.641528,101.444660,34.123474,-124.741615
46335,-5.194526,8.156957,-1.825200,-0.080863,-0.412797,0.019579,0.004487,0.064656,0.037408,-0.051966,0.081560,-0.018233,1.000000,0.000022,0.000323,0.000187,-0.079762,-0.507798,0.569605,0.641350,101.465155,34.089423,-124.708617
46336,-5.349730,7.900146,-2.101706,0.321747,-0.393221,-0.056103,-0.024193,0.086736,0.045769,-0.053524,0.078987,-0.021003,1.000000,-0.000121,0.000434,0.000229,-0.080235,-0.507887,0.569635,0.641194,101.477220,34.048782,-124.661688
46337,-5.330656,7.760183,-2.117547,0.394815,-0.363173,-0.177722,-0.039506,0.063613,0.044466,-0.053331,0.077586,-0.021174,1.000000,-0.000198,0.000318,0.000222,-0.080680,-0.507896,0.569624,0.641141,101.471536,34.010864,-124.630398
46338,-5.169680,7.657225,-2.081921,0.343221,-0.408015,-0.357065,0.038783,0.074857,0.050356,-0.051724,0.076563,-0.020785,1.000000,0.000194,0.000374,0.000252,-0.080973,-0.507959,0.569872,0.640833,101.514745,33.968988,-124.592208
46339,-5.309098,7.535310,-2.043994,0.434748,-0.234888,-0.383948,0.119369,0.119165,0.058060,-0.053125,0.075350,-0.020363,1.000000,0.000597,0.000596,0.000290,-0.081217,-0.508171,0.570382,0.640180,101.619967,33.917012,-124.525296
46340,-5.714230,7.505360,-1.791012,0.439176,0.233869,-0.224000,0.269826,0.112539,0.043354,-0.057169,0.075065,-0.017777,0.999999,0.001349,0.000563,0.000217,-0.081008,-0.508467,0.571336,0.639119,101.810120,33.874558,-124.460893
46341,-5.629978,7.616300,-1.930047,0.430974,0.070129,-0.156652,0.359540,0.034410,0.055969,-0.056324,0.076182,-0.019154,0.999998,0.001798,0.000172,0.000280,-0.080393,-0.508510,0.572641,0.637994,102.020935,33.833462,-124.451332
46342,-5.135743,7.738873,-2.049001,0.209634,-0.365073,-0.310733,0.350264,-0.024345,0.089325,-0.051390,0.077402,-0.020361,0.999998,0.001751,-0.000122,0.000447,-0.079734,-0.508267,0.574021,0.637030,102.201808,33.781342,-124.486290
46343,-5.082687,7.709567,-1.392237,-0.305773,0.059713,-0.479291,0.485132,-0.048684,0.108282,-0.050865,0.077102,-0.013748,0.999997,0.002426,-0.000243,0.000541,-0.078727,-0.507941,0.575887,0.635729,102.449041,33.721078,-124.540709
46344,-5.498931,7.951160,-1.062966,-0.489564,0.507822,-0.112613,0.427018,-0.053098,0.085459,-0.055020,0.079511,-0.010474,0.999998,0.002135,-0.000265,0.000427,-0.077778,-0.507644,0.577508,0.634612,102.663301,33.674928,-124.594856
46345,-5.522175,7.807107,-1.461018,-0.131756,0.329621,-0.145533,0.267881,-0.027049,0.044472,-0.055237,0.078078,-0.014513,0.999999,0.001339,-0.000135,0.000222,-0.077181,-0.507481,0.578509,0.633903,102.799263,33.647917,-124.625535
46346,-5.260701,7.841573,-1.862297,0.009204,-0.109391,-0.188690,0.226662,0.005747,0.030723,-0.052620,0.078429,-0.018533,0.999999,0.001133,0.000029,0.000154,-0.076737,-0.507448,0.579329,0.633234,102.925147,33.625078,-124.632074
46347,-5.128291,7.973812,-1.905970,-0.098086,-0.256081,-0.146327,0.230196,0.009568,0.061936,-0.051309,0.079744,-0.018965,0.999999,0.001151,0.000048,0.000310,-0.076397,-0.507335,0.580239,0.632533,103.051558,33.583723,-124.641032
46348,-5.344033,7.919660,-1.683703,-0.140170,0.069146,-0.112682,0.190954,-0.035808,0.072957,-0.053466,0.079193,-0.016771,0.999999,0.000955,-0.000179,0.000365,-0.076056,-0.507033,0.581068,0.632055,103.137907,33.542731,-124.682086
46349,-5.306833,7.673195,-1.794796,0.041632,0.057299,-0.312336,0.137916,-0.111828,0.067870,-0.053084,0.076726,-0.017925,1.000000,0.000690,-0.000559,0.000339,-0.075616,-0.506483,0.581746,0.631925,103.165991,33.513907,-124.773354
46350,-5.121200,7.220393,-2.145863,0.432915,-0.155455,-0.715770,0.125268,-0.148881,0.070831,-0.051222,0.072199,-0.021452,0.999999,0.000626,-0.000744,0.000354,-0.075106,-0.505804,0.582403,0.631924,103.173152,33.488906,-124.889759
46351,-5.034775,6.795533,-2.685719,0.994340,-0.436415,-1.005750,0.153346,-0.160937,0.075342,-0.050352,0.067957,-0.026846,0.999999,0.000767,-0.000805,0.000377,-0.074508,-0.505081,0.583167,0.631869,103.191426,33.462378,-125.014993
46352,-5.076678,6.634879,-2.621151,1.040886,-0.309556,-1.124453,0.351735,-0.167786,0.086416,-0.050774,0.066373,-0.026137,0.999998,0.001759,-0.000839,0.000432,-0.073419,-0.504379,0.584584,0.631247,103.320134,33.431316,-125.146461
46353,-5.039202,6.804857,-1.972884,0.450688,0.059347,-1.130224,0.642079,-0.184073,0.089274,-0.050404,0.068089,-0.019557,0.999994,0.003210,-0.000920,0.000446,-0.071563,-0.503718,0.586928,0.629812,103.608856,33.400647,-125.289389
46354,-5.085289,7.407200,-1.219341,-0.405126,0.443058,-0.765431,0.883571,-0.152017,0.069511,-0.050870,0.074107,-0.011905,0.999990,0.004418,-0.000760,0.000348,-0.069126,-0.503297,0.589960,0.627584,104.049549,33.377929,-125.407854
46355,-5.140672,8.122148,-1.041281,-0.911248,0.429941,-0.196839,0.818087,-0.110294,0.044128,-0.051419,0.081252,-0.010109,0.999991,0.004090,-0.000551,0.000221,-0.066899,-0.503047,0.592699,0.625441,104.470159,33.363592,-125.494510
46356,-5.203992,8.349703,-1.511589,-0.704705,0.126100,0.115619,0.644444,-0.115055,0.022775,-0.052041,0.083539,-0.014877,0.999995,0.003222,-0.000575,0.000114,-0.065024,-0.502783,0.594832,0.623824,104.791650,33.362820,-125.580676
46357,-5.296605,8.736702,-1.739747,-0.734897,-0.048202,0.525018,0.541171,-0.113008,-0.011193,-0.052951,0.087417,-0.017191,0.999996,0.002706,-0.000565,-0.000056,-0.063312,-0.502585,0.596554,0.622513,105.057829,33.380338,-125.659569
46358,-5.425840,8.841436,-1.808015,-0.710777,-0.016202,0.693219,0.429409,-0.097895,-0.037752,-0.054233,0.088463,-0.017917,0.999998,0.002147,-0.000489,-0.000189,-0.061838,-0.502478,0.597851,0.621503,105.268288,33.411136,-125.723542
46359,-5.458561,8.971928,-1.883343,-0.735840,-0.070049,0.831182,0.267248,-0.075761,-0.068734,-0.054548,0.089763,-0.018734,0.999999,0.001336,-0.000379,-0.000344,-0.060746,-0.502477,0.598559,0.620929,105.396799,33.455245,-125.767252
46360,-5.229937,8.969535,-2.153367,-0.673266,-0.406647,0.761958,0.068837,-0.019379,-0.082157,-0.052260,0.089724,-0.021508,1.000000,0.000344,-0.000097,-0.000411,-0.060275,-0.502634,0.598598,0.620811,105.433800,33.498846,-125.771020
46361,-5.285194,8.895466,-2.215743,-0.570314,-0.396643,0.746172,-0.050870,0.042057,-0.100741,-0.052812,0.088976,-0.022169,1.000000,-0.000254,0.000210,-0.000504,-0.060236,-0.502998,0.598202,0.620903,105.426324,33.542705,-125.730787
46362,-5.597498,8.658094,-1.849246,-0.551223,0.120973,0.646557,-0.105027,0.054014,-0.117872,-0.055929,0.086604,-0.018523,1.000000,-0.000525,0.000270,-0.000589,-0.060311,-0.503436,0.597588,0.621130,105.394208,33.594859,-125.679384
46363,-5.810203,8.399945,-1.853424,-0.307375,0.318325,0.558275,-0.227227,0.039322,-0.147333,-0.058044,0.084021,-0.018618,0.999999,-0.001136,0.000197,-0.000737,-0.060563,-0.503876,0.596527,0.621769,105.289398,33.664905,-125.632527
46364,-5.719316,7.896789,-2.061842,0.064670,0.235060,0.150323,-0.253595,0.003097,-0.155454,-0.057132,0.078986,-0.020718,0.999999,-0.001268,0.000015,-0.000777,-0.060743,-0.504223,0.595371,0.622578,105.157187,33.745637,-125.608288
46365,-5.563672,7.497593,-2.060325,0.202147,0.223687,-0.256414,-0.168689,-0.014542,-0.158680,-0.055576,0.075003,-0.020671,0.999999,-0.000843,-0.000073,-0.000793,-0.060651,-0.504545,0.594477,0.623179,105.067054,33.830160,-125.595526
46366,-5.440153,7.323400,-2.255698,0.369576,0.040910,-0.422408,-0.086668,-0.003375,-0.161325,-0.054342,0.073268,-0.022590,1.000000,-0.000433,-0.000017,-0.000807,-0.060372,-0.504938,0.593827,0.623509,105.028587,33.915164,-125.574799
46367,-5.393430,7.308996,-2.417532,0.459901,-0.106390,-0.424817,0.059271,0.015013,-0.146909,-0.053882,0.073137,-0.024150,1.000000,0.000296,0.000075,-0.000735,-0.059829,-0.505386,0.593663,0.623354,105.078898,33.988823,-125.544486
46368,-5.381517,7.366113,-2.270314,0.303076,-0.032104,-0.416852,0.255913,-0.004481,-0.121396,-0.053770,0.073723,-0.022610,0.999999,0.001280,-0.000022,-0.000607,-0.058806,-0.505758,0.594181,0.622655,105.232438,34.051878,-125.531484
46369,-5.358804,7.392449,-2.088613,0.125590,0.074720,-0.447542,0.369999,-0.027326,-0.102749,-0.053547,0.073990,-0.020757,0.999998,0.001850,-0.000137,-0.000514,-0.057489,-0.506034,0.595107,0.621669,105.440786,34.107441,-125.537002
46370,-5.272936,7.445739,-2.066091,0.012350,0.026376,-0.457972,0.379355,-0.033254,-0.087384,-0.052693,0.074519,-0.020528,0.999998,0.001897,-0.000166,-0.000437,-0.056174,-0.506249,0.596100,0.620663,105.651068,34.156065,-125.548962
46371,-5.253415,7.710203,-2.064076,-0.164637,-0.051764,-0.258830,0.282161,-0.019291,-0.087115,-0.052499,0.077154,-0.020537,0.999999,0.001411,-0.000096,-0.000436,-0.055151,-0.506474,0.596787,0.619909,105.810709,34.201792,-125.551603
46372,-5.285462,7.918642,-2.330446,-0.093892,-0.267313,-0.015153,0.129877,-0.007764,-0.078528,-0.052823,0.079222,-0.023255,1.000000,0.000649,-0.000039,-0.000393,-0.054571,-0.506670,0.597018,0.619577,105.886816,34.241598,-125.547949
46373,-5.261194,8.094999,-2.467630,-0.117866,-0.425750,0.142372,0.113502,0.021524,-0.074363,-0.052584,0.080984,-0.024625,1.000000,0.000568,0.000108,-0.000372,-0.054137,-0.506937,0.597203,0.619219,105.963863,34.273880,-125.525619
46374,-5.243420,8.309108,-2.358153,-0.330299,-0.419341,0.277439,0.119135,0.060346,-0.060198,-0.052416,0.083121,-0.023516,1.000000,0.000596,0.000302,-0.000301,-0.053844,-0.507286,0.597428,0.618741,106.057494,34.292819,-125.479934
46375,-5.424053,8.319070,-2.086500,-0.449884,-0.109239,0.324689,0.104712,0.078859,-0.061717,-0.054223,0.083218,-0.020800,1.000000,0.000524,0.000394,-0.000309,-0.053642,-0.507690,0.597602,0.618260,106.149770,34.308937,-125.421693
46376,-5.585383,7.921869,-1.915980,-0.287788,0.230858,0.060881,0.072606,0.062434,-0.077662,-0.055829,0.079247,-0.019114,1.000000,0.000363,0.000312,-0.000388,-0.053420,-0.508084,0.597638,0.617920,106.219507,34.337037,-125.371149
46377,-5.590533,7.670067,-1.855818,-0.201884,0.346517,-0.150017,0.079639,0.033604,-0.098874,-0.055871,0.076736,-0.018518,1.000000,0.000398,0.000168,-0.000494,-0.053032,-0.508452,0.597651,0.617638,106.284543,34.380724,-125.335762
46378,-5.439599,7.576455,-2.396786,0.138984,-0.100743,-0.184239,0.067824,0.034605,-0.116554,-0.054356,0.075804,-0.023933,1.000000,0.000339,0.000173,-0.000583,-0.052618,-0.508875,0.597581,0.617393,106.345481,34.434594,-125.296050
46379,-5.421140,7.597797,-2.318166,0.046994,-0.063531,-0.195885,0.235559,0.039647,-0.107690,-0.054175,0.076034,-0.023081,0.999999,0.001178,0.000198,-0.000538,-0.051824,-0.509328,0.598051,0.616631,106.503272,34.482066,-125.254704
46380,-5.532780,7.855159,-2.034143,-0.261227,0.142190,0.003848,0.335448,-0.001215,-0.094998,-0.055290,0.078612,-0.020210,0.999998,0.001677,-0.000006,-0.000475,-0.050688,-0.509645,0.598868,0.615670,106.701869,34.529800,-125.242767
46381,-5.533462,8.039173,-1.887206,-0.488093,0.200875,0.113562,0.311522,-0.064334,-0.081679,-0.055296,0.080444,-0.018765,0.999999,0.001558,-0.000322,-0.000408,-0.049470,-0.509717,0.599662,0.614936,106.861219,34.579992,-125.275495
46382,-5.331249,7.994234,-1.675532,-0.726422,0.229510,-0.088645,0.297746,-0.090673,-0.067166,-0.053278,0.079985,-0.016660,0.999999,0.001489,-0.000453,-0.000336,-0.048248,-0.509663,0.600454,0.614306,107.001393,34.627340,-125.328426
46383,-5.234851,8.101403,-1.620894,-0.888155,0.179872,-0.073976,0.259055,-0.048570,-0.062271,-0.052319,0.081051,-0.016117,0.999999,0.001295,-0.000243,-0.000311,-0.047270,-0.509710,0.601129,0.613682,107.134462,34.664375,-125.354376
46384,-5.360610,8.142823,-1.726081,-0.797556,0.187932,0.053904,0.214758,0.012533,-0.059462,-0.053583,0.081463,-0.017170,0.999999,0.001074,0.000063,-0.000297,-0.046592,-0.509927,0.601659,0.613033,107.265337,34.690224,-125.339981
46385,-5.424558,8.058629,-1.852721,-0.648858,0.172625,0.053876,0.123694,0.041769,-0.059807,-0.054225,0.080614,-0.018466,1.000000,0.000618,0.000209,-0.000299,-0.046239,-0.510211,0.601903,0.612585,107.354795,34.710582,-125.306190
46386,-5.526678,8.065122,-2.144412,-0.415732,0.040694,0.188031,0.034854,0.068418,-0.071918,-0.055245,0.080675,-0.021411,1.000000,0.000174,0.000342,-0.000360,-0.046150,-0.510595,0.601836,0.612337,107.405317,34.733640,-125.251916
46387,-5.568220,8.095331,-2.494859,-0.180121,-0.182514,0.321316,-0.037372,0.068746,-0.077335,-0.055659,0.080970,-0.024945,1.000000,-0.000187,0.000344,-0.000387,-0.046236,-0.510976,0.601535,0.612308,107.414827,34.758897,-125.196475
46388,-5.678721,7.922211,-2.470272,-0.051883,-0.047624,0.242489,-0.016945,0.037785,-0.076415,-0.056762,0.079242,-0.024699,1.000000,-0.000085,0.000189,-0.000382,-0.046173,-0.511268,0.601305,0.612295,107.424649,34.789637,-125.161596
46389,-5.689959,7.884988,-2.385176,-0.087674,0.024024,0.198779,-0.003671,-0.013891,-0.076965,-0.056868,0.078871,-0.023857,1.000000,-0.000018,-0.000069,-0.000385,-0.045925,-0.511402,0.601127,0.612376,107.422093,34.828853,-125.161203
46390,-5.581272,7.839235,-2.509539,-0.030716,-0.130252,0.131360,-0.044161,-0.055668,-0.081353,-0.055774,0.078409,-0.025128,1.000000,-0.000221,-0.000278,-0.000407,-0.045636,-0.511416,0.600823,0.612685,107.381381,34.878315,-125.187535
46391,-5.416587,7.614734,-2.466829,-0.013039,-0.159537,-0.149189,-0.012307,-0.074341,-0.077796,-0.054127,0.076167,-0.024693,1.000000,-0.000062,-0.000372,-0.000389,-0.045226,-0.511366,0.600630,0.612946,107.350887,34.928321,-125.227323
46392,-5.505910,7.438382,-2.445707,0.109010,-0.044340,-0.241261,0.083811,-0.091365,-0.075382,-0.055020,0.074415,-0.024451,1.000000,0.000419,-0.000457,-0.000377,-0.044521,-0.511282,0.600740,0.612960,107.369056,34.980605,-125.278794
46393,-5.451615,7.324558,-2.668805,0.290061,-0.208525,-0.306681,0.148558,-0.114911,-0.071118,-0.054475,0.073285,-0.026665,0.999999,0.000743,-0.000575,-0.000356,-0.043598,-0.511123,0.601066,0.612840,107.414333,35.033922,-125.347079
46394,-5.238315,7.315253,-2.894241,0.335488,-0.506701,-0.380817,0.199764,-0.108903,-0.048064,-0.052350,0.073194,-0.028898,0.999999,0.000999,-0.000545,-0.000240,-0.042628,-0.510927,0.601604,0.612543,107.488868,35.074355,-125.415954
46395,-5.348646,7.524564,-2.779318,0.177802,-0.407703,-0.181809,0.265951,-0.093223,-0.020488,-0.053466,0.075288,-0.027718,0.999999,0.001330,-0.000466,-0.000102,-0.041625,-0.510706,0.602413,0.612001,107.603614,35.096412,-125.480313
46396,-5.341429,7.803295,-2.626906,-0.100326,-0.376835,-0.006015,0.238035,-0.115315,-0.006277,-0.053397,0.078066,-0.026207,0.999999,0.001190,-0.000577,-0.000031,-0.040665,-0.510371,0.603174,0.611595,107.692535,35.115337,-125.562215
46397,-5.352928,7.640257,-2.253294,-0.267437,-0.058949,-0.219477,0.282586,-0.122661,0.003737,-0.053517,0.076433,-0.022458,0.999999,0.001413,-0.000613,0.000019,-0.039605,-0.509988,0.604100,0.611070,107.802567,35.129484,-125.651305
46398,-5.385372,7.548526,-2.171538,-0.270852,0.052874,-0.293137,0.325311,-0.089913,-0.015169,-0.053838,0.075525,-0.021617,0.999999,0.001627,-0.000450,-0.000076,-0.038472,-0.509773,0.605097,0.610335,107.952339,35.149058,-125.714296
46399,-5.287177,7.446757,-2.832653,0.165709,-0.438735,-0.262170,0.241626,-0.035923,-0.017682,-0.052860,0.074506,-0.028246,0.999999,0.001208,-0.000180,-0.000088,-0.037714,-0.509710,0.605823,0.609715,108.074832,35.159839,-125.740896
46400,-5.377707,7.661207,-2.855344,0.085864,-0.442436,-0.037021,0.255402,-0.044417,-0.006561,-0.053768,0.076650,-0.028468,0.999999,0.001277,-0.000222,-0.000033,-0.036922,-0.509592,0.606618,0.609070,108.200949,35.166844,-125.775372
46401,-5.558681,7.431794,-2.164755,-0.172032,0.232507,-0.287302,0.334197,-0.082729,0.009085,-0.055581,0.074351,-0.021546,0.999999,0.001671,-0.000414,0.000045,-0.035867,-0.509320,0.607701,0.608281,108.355211,35.171557,-125.838930
46402,-5.423753,7.439589,-2.056403,-0.333183,0.229663,-0.387744,0.385860,-0.062902,-0.036755,-0.054217,0.074445,-0.020437,0.999998,0.001929,-0.000315,-0.000184,-0.034596,-0.509259,0.608816,0.607290,108.552864,35.198481,-125.878960
46403,-5.362155,7.554116,-2.906343,0.110239,-0.427185,-0.113744,0.265290,0.034373,-0.058958,-0.053604,0.075595,-0.028954,0.999999,0.001326,0.000172,-0.000295,-0.033866,-0.509535,0.609492,0.606421,108.721246,35.219024,-125.849459
46404,-5.689613,7.851876,-2.987663,0.126432,-0.332433,0.327492,0.254463,0.040892,-0.050567,-0.056882,0.078571,-0.029765,0.999999,0.001272,0.000204,-0.000253,-0.033203,-0.509805,0.610153,0.605565,108.885248,35.234470,-125.817269
46405,-5.761172,8.010298,-2.453320,-0.302250,0.061866,0.349967,0.250147,-0.033018,-0.032371,-0.057595,0.080143,-0.024442,0.999999,0.001251,-0.000165,-0.000162,-0.032386,-0.509792,0.610860,0.604908,109.015784,35.253002,-125.838373
46406,-5.459397,7.581002,-1.884826,-0.587556,0.380639,-0.308003,0.300634,-0.043127,-0.051264,-0.054570,0.075852,-0.018746,0.999999,0.001503,-0.000216,-0.000256,-0.031347,-0.509816,0.611670,0.604123,109.174245,35.284439,-125.861628
46407,-5.338748,7.314258,-2.506327,-0.102001,-0.063115,-0.417591,0.210739,0.070421,-0.090594,-0.053363,0.073193,-0.024967,0.999999,0.001054,0.000352,-0.000453,-0.030771,-0.510285,0.612091,0.603330,109.329617,35.315011,-125.800607
46408,-5.670510,7.505994,-2.949226,0.212738,-0.196183,0.041691,0.184643,0.104059,-0.101142,-0.056682,0.075116,-0.029393,0.999999,0.000923,0.000520,-0.000506,-0.030327,-0.510887,0.612399,0.602530,109.484822,35.345484,-125.714534
46409,-5.776433,8.181739,-2.659126,-0.341789,-0.083046,0.543723,0.107067,0.050279,-0.090809,-0.057734,0.081858,-0.026533,1.000000,0.000535,0.000251,-0.000454,-0.029953,-0.511279,0.612509,0.602104,109.573302,35.379788,-125.666563
46410,-5.436769,8.205910,-2.510434,-0.621944,-0.211698,0.324672,-0.050124,-0.015159,-0.073317,-0.054336,0.082073,-0.025129,1.000000,-0.000251,-0.000076,-0.000367,-0.029828,-0.511400,0.612198,0.602324,109.544646,35.417920,-125.665829
46411,-5.282313,7.535669,-2.500410,-0.308946,-0.146442,-0.282509,-0.021508,0.041047,-0.095698,-0.052792,0.075379,-0.025001,1.000000,-0.000108,0.000205,-0.000478,-0.029740,-0.511760,0.611909,0.602316,109.556642,35.456597,-125.622776
46412,-5.509984,7.351745,-3.395287,0.488732,-0.585857,-0.047751,-0.099463,0.120084,-0.096831,-0.055085,0.073527,-0.033956,1.000000,-0.000497,0.000600,-0.000484,-0.030084,-0.512353,0.611369,0.602343,109.554954,35.481487,-125.526850
46413,-5.747187,7.349489,-3.226675,0.491446,-0.312117,0.042141,-0.067967,0.053477,-0.063242,-0.057457,0.073502,-0.032276,1.000000,-0.000340,0.000267,-0.000316,-0.030250,-0.512644,0.611022,0.602440,109.540749,35.500248,-125.483159
46414,-5.626324,7.092114,-2.886097,0.361789,-0.090075,-0.318260,0.002744,0.010063,-0.049003,-0.056247,0.070935,-0.028857,1.000000,0.000014,0.000050,-0.000245,-0.030140,-0.512774,0.610928,0.602429,109.548771,35.520417,-125.471431
46415,-5.673299,6.827441,-2.995784,0.606678,-0.069683,-0.463780,0.064519,0.042465,-0.059526,-0.056719,0.068301,-0.029924,1.000000,0.000323,0.000212,-0.000298,-0.029945,-0.513040,0.610991,0.602149,109.605802,35.539278,-125.435868
46416,-5.850824,6.532113,-2.829732,0.745798,0.241977,-0.631552,0.155189,0.012726,-0.063790,-0.058489,0.065362,-0.028243,1.000000,0.000776,0.000064,-0.000319,-0.029407,-0.513247,0.611318,0.601668,109.704271,35.566894,-125.418817
46417,-5.745253,6.520344,-2.908534,0.737843,0.124946,-0.679105,0.283506,0.007273,-0.067643,-0.057432,0.065264,-0.028991,0.999999,0.001418,0.000036,-0.000338,-0.028518,-0.513463,0.612023,0.600808,109.874455,35.596883,-125.404515
46418,-5.830264,7.001155,-2.773931,0.381197,0.165785,-0.297963,0.358577,-0.008395,-0.067817,-0.058278,0.070081,-0.027616,0.999998,0.001793,-0.000042,-0.000339,-0.027381,-0.513646,0.612951,0.599757,110.082009,35.630723,-125.400279
46419,-5.776692,7.595848,-2.427688,-0.250460,0.239903,0.028064,0.386295,-0.034818,-0.066732,-0.057737,0.076024,-0.024140,0.999998,0.001931,-0.000174,-0.000334,-0.026101,-0.513745,0.613969,0.598687,110.294928,35.668494,-125.413764
46420,-5.644245,8.015154,-2.509276,-0.536827,0.002843,0.292184,0.303791,-0.030312,-0.065091,-0.056413,0.080208,-0.024980,0.999999,0.001519,-0.000152,-0.000325,-0.025046,-0.513843,0.614740,0.597857,110.462423,35.705219,-125.424396
46421,-5.580690,8.178977,-2.302389,-0.818578,0.074707,0.319691,0.183664,-0.012496,-0.075588,-0.055775,0.081832,-0.022952,1.000000,0.000918,-0.000062,-0.000378,-0.024329,-0.514008,0.615123,0.597350,110.569244,35.743317,-125.420692
46422,-5.592580,8.097752,-2.412028,-0.706055,0.025618,0.295193,0.051607,0.016265,-0.083870,-0.055894,0.081007,-0.024095,1.000000,0.000258,0.000081,-0.000419,-0.024009,-0.514271,0.615085,0.597176,110.613047,35.780759,-125.395717
46423,-5.740656,7.988470,-2.447085,-0.553272,0.120806,0.308493,-0.059715,0.025700,-0.086675,-0.057375,0.079902,-0.024487,1.000000,-0.000299,0.000128,-0.000433,-0.024002,-0.514554,0.614708,0.597321,110.596808,35.817075,-125.363948
46424,-5.752024,7.790881,-2.414803,-0.448554,0.190011,0.156142,-0.146610,0.020543,-0.086878,-0.057489,0.077916,-0.024199,1.000000,-0.000733,0.000103,-0.000434,-0.024196,-0.514814,0.614069,0.597746,110.529162,35.855280,-125.335395
46425,-5.836607,7.392256,-2.516894,-0.097789,0.258993,-0.067457,-0.174636,0.008996,-0.087804,-0.058335,0.073926,-0.025231,1.000000,-0.000873,0.000045,-0.000439,-0.024430,-0.515036,0.613347,0.598286,110.440717,35.895599,-125.314496
46426,-5.774606,7.285324,-2.412172,-0.124778,0.305474,-0.214162,-0.157643,-0.017006,-0.087658,-0.057712,0.072859,-0.024184,1.000000,-0.000788,-0.000085,-0.000438,-0.024535,-0.515185,0.612677,0.598841,110.352225,35.941788,-125.310758
46427,-5.810664,7.333551,-2.618827,0.001857,0.157644,-0.097844,-0.147320,-0.024756,-0.086273,-0.058072,0.073341,-0.026249,1.000000,-0.000737,-0.000124,-0.000431,-0.024599,-0.515303,0.612043,0.599383,110.265980,35.988063,-125.312786
46428,-5.773675,7.462131,-2.560614,-0.125363,0.128386,-0.038064,-0.145665,-0.045555,-0.086415,-0.057699,0.074628,-0.025674,1.000000,-0.000728,-0.000228,-0.000432,-0.024590,-0.515363,0.611415,0.599973,110.172918,36.039247,-125.328499
46429,-5.802006,7.276306,-2.589284,0.023800,0.159128,-0.154200,-0.142984,-0.052348,-0.078275,-0.057985,0.072767,-0.025960,1.000000,-0.000715,-0.000262,-0.000391,-0.024583,-0.515374,0.610817,0.600572,110.077078,36.086662,-125.351034
46430,-5.885721,7.430442,-2.514578,-0.073481,0.214743,-0.008364,-0.077166,-0.089604,-0.069450,-0.058820,0.074315,-0.025201,1.000000,-0.000386,-0.000448,-0.000347,-0.024313,-0.515258,0.610443,0.601064,110.003386,36.137323,-125.400438
46431,-5.578250,7.906348,-2.361566,-0.597554,-0.013302,0.129492,-0.099914,-0.095530,-0.060879,-0.055747,0.079069,-0.023682,1.000000,-0.000500,-0.000478,-0.000304,-0.024115,-0.515091,0.610024,0.601640,109.912584,36.183773,-125.456197
46432,-5.602675,8.146975,-2.555753,-0.596919,-0.210765,0.380167,-0.142708,-0.084002,-0.049488,-0.055996,0.081465,-0.025639,1.000000,-0.000714,-0.000420,-0.000247,-0.024091,-0.514922,0.609502,0.602314,109.800489,36.222458,-125.506933
46433,-5.559797,8.624170,-2.345620,-1.028496,-0.228840,0.660104,-0.187817,-0.085578,-0.057630,-0.055563,0.086236,-0.023561,0.999999,-0.000939,-0.000428,-0.000288,-0.024160,-0.514764,0.608825,0.603130,109.662530,36.265029,-125.557121
46434,-5.313347,8.773743,-2.629104,-1.029654,-0.653126,0.705656,-0.406345,-0.017609,-0.056538,-0.053106,0.087699,-0.026474,0.999998,-0.002032,-0.000088,-0.000283,-0.024996,-0.514783,0.607480,0.604435,109.426449,36.294570,-125.562021
46435,-5.432676,8.388257,-3.040980,-0.443249,-0.795361,0.593807,-0.569089,0.033667,-0.061562,-0.054306,0.083812,-0.030639,0.999996,-0.002845,0.000168,-0.000308,-0.026397,-0.514945,0.605622,0.606100,109.117605,36.316337,-125.531747
46436,-5.386298,7.726931,-3.072853,-0.015128,-0.703142,0.069887,-0.614681,0.055156,-0.062531,-0.053847,0.077191,-0.030951,0.999995,-0.003073,0.000276,-0.000313,-0.027971,-0.515168,0.603614,0.607841,108.791741,36.335542,-125.486701
46437,-5.504748,6.709788,-3.209248,0.762754,-0.471473,-0.602987,-0.558419,0.083445,-0.056229,-0.055042,0.067023,-0.032257,0.999996,-0.002792,0.000417,-0.000281,-0.029511,-0.515457,0.601785,0.609334,108.508034,36.345516,-125.424373
46438,-6.003233,6.286568,-3.370986,1.375730,-0.157529,-0.592829,-0.383364,0.062591,-0.038983,-0.060031,0.062813,-0.033812,0.999998,-0.001917,0.000313,-0.000195,-0.030583,-0.515658,0.600531,0.610347,108.314429,36.350917,-125.379814
46439,-5.918497,6.498853,-3.156790,1.085077,-0.131516,-0.537218,-0.141640,-0.039904,-0.015054,-0.059174,0.064971,-0.031626,1.000000,-0.000708,-0.000200,-0.000075,-0.030802,-0.515506,0.600094,0.610894,108.214726,36.361004,-125.410037
46440,-5.448996,6.957274,-2.965676,0.478675,-0.438581,-0.513818,-0.006251,-0.059772,0.011972,-0.054485,0.069569,-0.029675,1.000000,-0.000031,-0.000299,0.000060,-0.030690,-0.515237,0.600140,0.611081,108.181443,36.360699,-125.459524
46441,-5.375980,7.059169,-3.181789,0.531655,-0.666222,-0.424913,0.039676,-0.017409,0.035984,-0.053770,0.070588,-0.031809,1.000000,0.000198,-0.000087,0.000180,-0.030666,-0.515029,0.600385,0.611018,108.187980,36.338966,-125.485856
46442,-5.655260,7.000162,-2.907635,0.512169,-0.268686,-0.373193,0.150086,-0.031021,0.055145,-0.056567,0.070008,-0.029033,1.000000,0.000750,-0.000155,0.000276,-0.030370,-0.514742,0.601015,0.610655,108.250129,36.310029,-125.525497
46443,-5.642066,7.124063,-2.429060,0.106502,0.036294,-0.406688,0.321249,-0.048910,0.053282,-0.056434,0.071265,-0.024190,0.999999,0.001606,-0.000245,0.000266,-0.029579,-0.514428,0.602167,0.609823,108.403171,36.284614,-125.576970
46444,-5.467020,7.936370,-2.594317,-0.353659,-0.401882,0.153161,0.229853,0.022749,0.027782,-0.054684,0.079386,-0.025846,0.999999,0.001149,0.000114,0.000139,-0.029155,-0.514397,0.602961,0.609084,108.536063,36.260927,-125.574335
46445,-5.494449,8.523078,-2.436619,-0.796309,-0.420781,0.577586,0.068211,0.032014,0.023477,-0.054958,0.085233,-0.024328,1.000000,0.000341,0.000160,0.000117,-0.029168,-0.514381,0.603252,0.608809,108.580322,36.237102,-125.564654
46446,-5.494899,8.262343,-2.125588,-0.849281,-0.125828,0.298754,-0.039263,0.061857,0.015139,-0.054962,0.082615,-0.021255,1.000000,-0.000196,0.000309,0.000076,-0.029516,-0.514468,0.603188,0.608782,108.576236,36.213138,-125.532888
46447,-5.689975,7.595529,-2.757080,0.055963,-0.260820,0.066493,-0.160695,0.115950,-0.004488,-0.056914,0.075934,-0.027599,1.000000,-0.000803,0.000580,-0.000022,-0.030286,-0.514758,0.602698,0.608985,108.526394,36.189164,-125.460411
46448,-5.827497,7.603623,-2.804266,0.156366,-0.206914,0.165861,-0.184089,0.109140,0.000756,-0.058291,0.076010,-0.028081,0.999999,-0.000920,0.000546,0.000004,-0.031105,-0.515010,0.602148,0.609274,108.460022,36.164461,-125.393553
46449,-5.707299,7.482858,-2.524724,-0.005388,-0.058196,-0.069113,-0.134688,0.060567,0.019622,-0.057088,0.074806,-0.025280,1.000000,-0.000673,0.000303,0.000098,-0.031714,-0.515061,0.601807,0.609537,108.399871,36.137533,-125.363743
46450,-5.618083,7.201045,-2.432842,0.063207,0.023981,-0.361123,-0.090927,0.051792,0.012557,-0.056192,0.071996,-0.024347,1.000000,-0.000455,0.000259,0.000063,-0.032157,-0.515117,0.601579,0.609691,108.362523,36.116881,-125.338113
46451,-5.732696,6.987245,-2.551665,0.323919,0.076037,-0.427290,-0.028358,0.051825,0.001934,-0.057334,0.069868,-0.025512,1.000000,-0.000142,0.000259,0.000010,-0.032412,-0.515211,0.601517,0.609659,108.362155,36.101183,-125.310213
46452,-5.689655,7.079654,-2.601052,0.283297,-0.009849,-0.369235,0.018471,0.029405,-0.000641,-0.056900,0.070799,-0.025996,1.000000,0.000092,0.000147,-0.000003,-0.032466,-0.515256,0.601592,0.609544,108.380334,36.091754,-125.296704
46453,-5.563363,7.231410,-2.536390,0.090202,-0.085576,-0.343679,0.079203,0.025321,-0.003047,-0.055636,0.072325,-0.025328,1.000000,0.000396,0.000127,-0.000015,-0.032349,-0.515302,0.601850,0.609257,108.431746,36.083559,-125.285530
46454,-5.550535,7.526845,-2.545206,-0.087012,-0.175477,-0.122407,0.085175,0.040719,-0.005343,-0.055509,0.075281,-0.025409,1.000000,0.000426,0.000204,-0.000027,-0.032250,-0.515406,0.602114,0.608912,108.493231,36.074614,-125.263378
46455,-5.558995,7.533453,-2.495467,-0.125454,-0.130214,-0.125067,0.077520,0.050048,0.006284,-0.055599,0.075342,-0.024912,1.000000,0.000388,0.000250,0.000031,-0.032240,-0.515499,0.602387,0.608565,108.552215,36.056828,-125.237706
46456,-5.592331,7.343322,-2.512821,0.007429,-0.061029,-0.246653,0.082796,0.055579,0.015961,-0.055936,0.073439,-0.025082,1.000000,0.000414,0.000278,0.000080,-0.032257,-0.515584,0.602696,0.608186,108.615348,36.033562,-125.210417
46457,-5.663635,7.257074,-2.501903,0.078462,0.025840,-0.273580,0.114323,0.041372,0.023794,-0.056650,0.072578,-0.024966,1.000000,0.000572,0.000207,0.000119,-0.032180,-0.515603,0.603126,0.607747,108.689609,36.007810,-125.194597
46458,-5.708955,7.407446,-2.238042,-0.170166,0.209685,-0.200283,0.155129,0.021421,0.031679,-0.057104,0.074083,-0.022317,1.000000,0.000776,0.000107,0.000158,-0.031955,-0.515548,0.603701,0.607234,108.778548,35.982244,-125.193885
46459,-5.650859,7.670346,-2.179460,-0.396614,0.152089,-0.048671,0.155160,0.007508,0.032475,-0.056522,0.076711,-0.021733,1.000000,0.000776,0.000038,0.000162,-0.031697,-0.515445,0.604283,0.606757,108.861637,35.958015,-125.202843
46460,-5.633881,7.784793,-2.155379,-0.493824,0.136831,0.022285,0.133871,0.007489,0.029010,-0.056351,0.077854,-0.021500,1.000000,0.000669,0.000037,0.000145,-0.031476,-0.515351,0.604788,0.606345,108.933225,35.936479,-125.210938
46461,-5.726599,7.679952,-2.124881,-0.415073,0.256555,-0.012044,0.119678,0.021666,0.022944,-0.057277,0.076806,-0.021197,1.000000,0.000598,0.000108,0.000115,-0.031323,-0.515313,0.605234,0.605940,109.002760,35.914792,-125.208315
46462,-5.844830,7.717845,-2.314051,-0.261803,0.200237,0.135848,0.090399,0.028945,0.018584,-0.058459,0.077183,-0.023097,1.000000,0.000452,0.000145,0.000093,-0.031248,-0.515309,0.605577,0.605605,109.059236,35.894910,-125.199715
46463,-5.832122,8.018067,-2.232769,-0.500333,0.174782,0.336569,0.037014,0.009682,0.005738,-0.058325,0.080183,-0.022310,1.000000,0.000185,0.000048,0.000029,-0.031220,-0.515273,0.605730,0.605483,109.078984,35.884783,-125.201192
46464,-5.729899,8.118837,-2.151017,-0.660970,0.139219,0.332157,-0.019054,0.006957,-0.000731,-0.057299,0.081187,-0.021516,1.000000,-0.000095,0.000035,-0.000004,-0.031302,-0.515244,0.605695,0.605539,109.066736,35.879472,-125.202845
46465,-5.713155,7.848452,-2.326817,-0.389929,0.074489,0.162021,-0.087517,0.016266,-0.007057,-0.057131,0.078476,-0.023298,1.000000,-0.000438,0.000081,-0.000035,-0.031575,-0.515247,0.605437,0.605780,109.019404,35.875035,-125.196984
46466,-5.726360,7.552439,-2.316556,-0.211102,0.164744,-0.059470,-0.110084,0.019231,-0.013698,-0.057261,0.075516,-0.023202,1.000000,-0.000550,0.000096,-0.000068,-0.031890,-0.515280,0.605090,0.606082,108.961563,35.874458,-125.187437
46467,-5.714445,7.306155,-2.411758,-0.003078,0.150863,-0.229964,-0.108654,0.014184,-0.018406,-0.057139,0.073054,-0.024153,1.000000,-0.000543,0.000071,-0.000092,-0.032177,-0.515308,0.604739,0.606394,108.902813,35.876569,-125.180367
46468,-5.685175,7.209502,-2.467172,0.081865,0.114185,-0.306619,-0.082639,0.014122,-0.015615,-0.056848,0.072089,-0.024697,1.000000,-0.000413,0.000071,-0.000078,-0.032400,-0.515335,0.604471,0.606626,108.858951,35.877994,-125.173798
46469,-5.707585,7.262588,-2.556251,0.124692,0.049596,-0.229467,-0.042968,-0.008338,-0.005006,-0.057073,0.072622,-0.025580,1.000000,-0.000215,-0.000042,-0.000025,-0.032490,-0.515264,0.604357,0.606795,108.827204,35.877027,-125.184865
46470,-5.676266,7.255880,-2.527000,0.096994,0.049505,-0.260637,0.007632,-0.029521,0.003652,-0.056760,0.072559,-0.025276,1.000000,0.000038,-0.000148,0.000018,-0.032407,-0.515115,0.604420,0.606863,108.815369,35.876076,-125.211903
46471,-5.629219,7.253727,-2.538856,0.085264,0.010618,-0.286771,0.031694,-0.032764,0.012920,-0.056293,0.072538,-0.025386,1.000000,0.000158,-0.000164,0.000065,-0.032286,-0.514928,0.604582,0.606867,108.814433,35.869905,-125.243407
46472,-5.591115,7.368182,-2.510234,-0.018278,-0.024188,-0.228793,0.054151,-0.044174,0.014569,-0.055911,0.073685,-0.025095,1.000000,0.000271,-0.000221,0.000073,-0.032071,-0.514709,0.604816,0.606830,108.822052,35.865740,-125.282739
46473,-5.531261,7.430241,-2.389075,-0.163531,0.006044,-0.247948,0.059012,-0.040642,0.011645,-0.055312,0.074306,-0.023880,1.000000,0.000295,-0.000203,0.000058,-0.031852,-0.514507,0.605059,0.606771,108.833864,35.861731,-125.319214
46474,-5.650868,7.397936,-2.457307,-0.044331,0.047408,-0.184816,0.047749,-0.026117,0.009170,-0.056509,0.073983,-0.024563,1.000000,0.000239,-0.000131,0.000046,-0.031692,-0.514358,0.605258,0.606709,108.845619,35.857164,-125.345229
46475,-5.707061,7.570068,-2.414192,-0.148363,0.070822,-0.031186,0.061316,-0.031990,0.003988,-0.057068,0.075707,-0.024128,1.000000,0.000307,-0.000160,0.000020,-0.031470,-0.514205,0.605486,0.606621,108.863166,35.855721,-125.374169
46476,-5.684100,7.786869,-2.364549,-0.319984,0.034218,0.108596,0.039127,-0.031792,0.002669,-0.056838,0.077873,-0.023639,1.000000,0.000196,-0.000159,0.000013,-0.031295,-0.514057,0.605642,0.606600,108.868629,35.855740,-125.402496
46477,-5.668059,7.842153,-2.502437,-0.267632,-0.088839,0.177754,-0.018134,-0.028740,-0.007625,-0.056674,0.078421,-0.025040,1.000000,-0.000091,-0.000144,-0.000038,-0.031252,-0.513936,0.605600,0.606747,108.843465,35.859988,-125.426614
46478,-5.614345,7.834230,-2.476956,-0.301712,-0.108505,0.133595,-0.062498,-0.029490,-0.019886,-0.056132,0.078340,-0.024802,1.000000,-0.000312,-0.000147,-0.000099,-0.031277,-0.513847,0.605389,0.607031,108.794612,35.871796,-125.448260
46479,-5.530863,7.782763,-2.518534,-0.277869,-0.185499,0.056114,-0.105667,-0.009913,-0.026658,-0.055297,0.077822,-0.025229,1.000000,-0.000528,-0.000050,-0.000133,-0.031458,-0.513828,0.605028,0.607398,108.729191,35.882855,-125.455471
46480,-5.499249,7.610012,-2.638541,-0.104026,-0.252897,-0.063784,-0.171895,0.000971,-0.024534,-0.054983,0.076084,-0.026451,1.000000,-0.000859,0.000005,-0.000123,-0.031842,-0.513828,0.604468,0.607935,108.630206,35.891553,-125.455698
46481,-5.552329,7.365267,-2.586392,0.039085,-0.124732,-0.234178,-0.162501,-0.001998,-0.025172,-0.055514,0.073639,-0.025924,1.000000,-0.000813,-0.000010,-0.000126,-0.032197,-0.513819,0.603937,0.608452,108.535107,35.900332,-125.457972
46482,-5.585464,7.210090,-2.670014,0.208535,-0.127271,-0.312578,-0.115315,0.002584,-0.023149,-0.055847,0.072092,-0.026741,1.000000,-0.000577,0.000013,-0.000116,-0.032445,-0.513828,0.603552,0.608813,108.468974,35.907983,-125.457461
46483,-5.614518,7.250406,-2.774988,0.274917,-0.197935,-0.237877,-0.090327,-0.004580,-0.013625,-0.056140,0.072495,-0.027784,1.000000,-0.000452,-0.000023,-0.000068,-0.032643,-0.513787,0.603270,0.609116,108.412697,35.910949,-125.464085
46484,-5.592896,7.361260,-2.699873,0.155579,-0.193752,-0.184801,-0.053151,-0.021937,-0.007789,-0.055923,0.073608,-0.027024,1.000000,-0.000266,-0.000110,-0.000039,-0.032704,-0.513685,0.603117,0.609350,108.370504,35.914682,-125.483482
46485,-5.579811,7.423494,-2.651708,0.084712,-0.188397,-0.157044,-0.017572,-0.025062,-0.005451,-0.055793,0.074234,-0.026531,1.000000,-0.000088,-0.000125,-0.000027,-0.032677,-0.513569,0.603081,0.609485,108.346797,35.916897,-125.505666
46486,-5.577675,7.511525,-2.651621,0.034669,-0.215586,-0.090708,-0.014577,-0.017369,-0.006590,-0.055772,0.075115,-0.026527,1.000000,-0.000073,-0.000087,-0.000033,-0.032656,-0.513484,0.603048,0.609591,108.328344,35.919140,-125.522267
46487,-5.615924,7.612893,-2.711363,0.035626,-0.261604,0.024818,-0.023183,-0.009994,-0.012220,-0.056153,0.076129,-0.027125,1.000000,-0.000116,-0.000050,-0.000061,-0.032669,-0.513433,0.602976,0.609705,108.308255,35.922305,-125.532826
46488,-5.585559,7.497624,-2.666347,0.060083,-0.221001,-0.093130,-0.024449,-0.011560,-0.011358,-0.055850,0.074976,-0.026676,1.000000,-0.000122,-0.000058,-0.000057,-0.032677,-0.513378,0.602899,0.609826,108.287053,35.926088,-125.544469
46489,-5.572887,7.451010,-2.604408,0.041433,-0.174956,-0.152189,-0.009481,-0.007425,-0.012398,-0.055723,0.074512,-0.026050,1.000000,-0.000047,-0.000037,-0.000062,-0.032661,-0.513338,0.602867,0.609892,108.275860,35.928874,-125.553261
46490,-5.557064,7.491938,-2.545894,-0.028244,-0.156445,-0.144885,0.001745,-0.004323,-0.013178,-0.055565,0.074923,-0.025459,1.000000,0.000009,-0.000022,-0.000066,-0.032618,-0.513315,0.602865,0.609916,108.272754,35.932342,-125.559641
46491,-5.549534,7.538860,-2.521199,-0.075568,-0.157112,-0.119505,0.009528,-0.000441,-0.012520,-0.055491,0.075393,-0.025209,1.000000,0.000048,-0.000002,-0.000063,-0.032575,-0.513300,0.602890,0.609907,108.275231,35.933938,-125.563700
46492,-5.584709,7.673646,-2.577182,-0.099493,-0.210307,0.018974,-0.020341,0.007983,-0.011877,-0.055844,0.076737,-0.025777,1.000000,-0.000102,0.000040,-0.000059,-0.032629,-0.513307,0.602821,0.609965,108.264153,35.934488,-125.562100
46493,-5.524021,7.679344,-2.536068,-0.157079,-0.223798,-0.022692,-0.029240,0.014633,-0.009014,-0.055239,0.076792,-0.025368,1.000000,-0.000146,0.000073,-0.000045,-0.032741,-0.513321,0.602734,0.610034,108.249911,35.931460,-125.556811
46494,-5.597940,7.648725,-2.521586,-0.112101,-0.157524,-0.006519,-0.039659,0.021573,-0.008804,-0.055979,0.076485,-0.025225,1.000000,-0.000198,0.000108,-0.000044,-0.032896,-0.513357,0.602613,0.610115,108.232724,35.927901,-125.546759
46495,-5.600702,7.615445,-2.525644,-0.086284,-0.150022,-0.029447,-0.036336,0.022811,-0.002333,-0.056009,0.076151,-0.025264,1.000000,-0.000182,0.000114,-0.000012,-0.033071,-0.513374,0.602520,0.610183,108.216771,35.919766,-125.537445
46496,-5.592113,7.610045,-2.490619,-0.107621,-0.130444,-0.047489,-0.055096,0.025918,-0.007493,-0.055922,0.076096,-0.024920,1.000000,-0.000275,0.000130,-0.000037,-0.033282,-0.513417,0.602354,0.610300,108.192282,35.914721,-125.524762
46497,-5.563203,7.515658,-2.459349,-0.084404,-0.102985,-0.144957,-0.045606,0.022902,-0.008009,-0.055632,0.075153,-0.024604,1.000000,-0.000228,0.000115,-0.000040,-0.033465,-0.513450,0.602218,0.610396,108.171794,35.909656,-125.514141
46498,-5.603454,7.476038,-2.509066,-0.006531,-0.101338,-0.139273,-0.051870,0.031764,-0.005131,-0.056037,0.074755,-0.025101,1.000000,-0.000259,0.000159,-0.000026,-0.033692,-0.513504,0.602067,0.610487,108.151151,35.902289,-125.498046
46499,-5.605497,7.551072,-2.528927,-0.032873,-0.134441,-0.075306,-0.030934,0.026311,-0.000546,-0.056058,0.075507,-0.025294,1.000000,-0.000155,0.000132,-0.000003,-0.033870,-0.513527,0.601994,0.610529,108.139455,35.892562,-125.486753
46500,-5.590842,7.559215,-2.476274,-0.077729,-0.108769,-0.090892,-0.019452,0.027553,0.002210,-0.055913,0.075589,-0.024762,1.000000,-0.000097,0.000138,0.000011,-0.034024,-0.513552,0.601961,0.610532,108.134776,35.881954,-125.475104
46501,-5.627543,7.499449,-2.514512,0.001544,-0.093851,-0.105734,-0.028665,0.032393,0.003876,-0.056281,0.074990,-0.025147,1.000000,-0.000143,0.000162,0.000019,-0.034228,-0.513581,0.601906,0.610551,108.126204,35.868729,-125.460709
46502,-5.699916,7.469323,-2.502177,0.046571,-0.027607,-0.089633,-0.008564,0.026242,0.012282,-0.057007,0.074689,-0.025017,1.000000,-0.000043,0.000131,0.000061,-0.034381,-0.513573,0.601933,0.610523,108.125945,35.852872,-125.452158
46503,-5.668087,7.464537,-2.385841,-0.042639,0.036733,-0.141307,0.018905,0.022015,0.008765,-0.056687,0.074645,-0.023845,1.000000,0.000095,0.000110,0.000044,-0.034446,-0.513563,0.602037,0.610424,108.139907,35.838843,-125.445792
46504,-5.684926,7.479181,-2.363517,-0.058797,0.062747,-0.125823,0.032448,0.021837,0.009205,-0.056855,0.074793,-0.023617,1.000000,0.000162,0.000109,0.000046,-0.034471,-0.513558,0.602181,0.610285,108.161800,35.825445,-125.439533
46505,-5.721110,7.526554,-2.420571,-0.031625,0.037093,-0.053748,0.012765,0.028874,0.003719,-0.057216,0.075266,-0.024193,1.000000,0.000064,0.000144,0.000019,-0.034557,-0.513584,0.602253,0.610188,108.175576,35.812928,-125.427513
46506,-5.727098,7.568670,-2.359266,-0.094788,0.075318,-0.033327,0.027981,0.018114,0.005331,-0.057275,0.075688,-0.023577,1.000000,0.000140,0.000091,0.000027,-0.034571,-0.513578,0.602374,0.610072,108.193938,35.802301,-125.422910
46507,-5.662512,7.607769,-2.316126,-0.177211,0.054787,-0.051938,0.019776,0.013353,0.001710,-0.056627,0.076079,-0.023150,1.000000,0.000099,0.000067,0.000009,-0.034586,-0.513564,0.602465,0.609994,108.205885,35.793659,-125.420846
46508,-5.609381,7.565290,-2.303499,-0.186696,0.042225,-0.118966,0.018976,0.016342,0.003168,-0.056097,0.075654,-0.023023,1.000000,0.000095,0.000082,0.000016,-0.034610,-0.513558,0.602553,0.609910,108.218666,35.784525,-125.416963
46509,-5.621514,7.539642,-2.252919,-0.200184,0.094715,-0.144481,0.013672,0.011926,0.003100,-0.056218,0.075397,-0.022521,1.000000,0.000068,0.000060,0.000016,-0.034641,-0.513534,0.602629,0.609854,108.226359,35.775384,-125.416169
46510,-5.597594,7.538441,-2.260530,-0.205752,0.075401,-0.157475,0.018502,-0.001250,0.001671,-0.055976,0.075386,-0.022599,1.000000,0.000093,-0.000006,0.000008,-0.034610,-0.513478,0.602715,0.609817,108.232161,35.770217,-125.423759
46511,-5.601341,7.614632,-2.191798,-0.293552,0.106676,-0.114024,0.011897,0.002124,0.005702,-0.056016,0.076146,-0.021913,1.000000,0.000059,0.000011,0.000029,-0.034624,-0.513416,0.602793,0.609791,108.234637,35.761425,-125.430121
46512,-5.620204,7.647536,-2.271309,-0.249427,0.055217,-0.057428,-0.018959,0.009728,-0.001373,-0.056203,0.076474,-0.022718,1.000000,-0.000095,0.000049,-0.000007,-0.034712,-0.513397,0.602756,0.609839,108.223673,35.755947,-125.429675
46513,-5.630922,7.674424,-2.316715,-0.227418,0.023137,-0.018864,-0.023674,0.008940,0.000915,-0.056311,0.076741,-0.023174,1.000000,-0.000118,0.000045,0.000005,-0.034823,-0.513364,0.602712,0.609904,108.209041,35.748544,-125.430393
46514,-5.647635,7.579613,-2.365364,-0.129969,0.025341,-0.069807,-0.032505,0.009911,-0.001826,-0.056477,0.075793,-0.023663,1.000000,-0.000163,0.000050,-0.000009,-0.034945,-0.513345,0.602632,0.609993,108.190448,35.743280,-125.429721
46515,-5.653172,7.566420,-2.382845,-0.105439,0.019614,-0.072281,-0.029228,0.006388,-0.002676,-0.056531,0.075661,-0.023838,1.000000,-0.000146,0.000032,-0.000013,-0.035052,-0.513313,0.602563,0.610081,108.172103,35.738268,-125.431423
46516,-5.674255,7.547791,-2.361201,-0.096791,0.052714,-0.079783,-0.032006,0.005113,-0.004473,-0.056741,0.075475,-0.023623,1.000000,-0.000160,0.000026,-0.000022,-0.035150,-0.513287,0.602478,0.610181,108.152258,35.735302,-125.433383
46517,-5.671751,7.582013,-2.353484,-0.120526,0.046041,-0.056770,-0.018297,-0.005359,-0.005502,-0.056715,0.075820,-0.023543,1.000000,-0.000091,-0.000027,-0.000028,-0.035185,-0.513231,0.602436,0.610267,108.135927,35.733956,-125.442238
46518,-5.654331,7.567461,-2.376784,-0.102609,0.020602,-0.072253,-0.033187,-0.002137,-0.009194,-0.056540,0.075673,-0.023781,1.000000,-0.000166,-0.000011,-0.000046,-0.035250,-0.513197,0.602337,0.610390,108.113172,35.734851,-125.448021
46519,-5.606392,7.509685,-2.470256,-0.027058,-0.062370,-0.121219,-0.022169,-0.005458,-0.007020,-0.056061,0.075096,-0.024712,1.000000,-0.000111,-0.000027,-0.000035,-0.035290,-0.513144,0.602281,0.610489,108.094774,35.734323,-125.456703
46520,-5.625010,7.470566,-2.435672,-0.017159,-0.016104,-0.149249,-0.009973,-0.001529,-0.000125,-0.056250,0.074704,-0.024361,1.000000,-0.000050,-0.000008,-0.000001,-0.035325,-0.513088,0.602275,0.610539,108.084397,35.730169,-125.464067
46521,-5.604199,7.489803,-2.454837,-0.023898,-0.048518,-0.141726,0.006518,-0.010727,0.000642,-0.056041,0.074899,-0.024549,1.000000,0.000033,-0.000054,0.000003,-0.035299,-0.513001,0.602327,0.610563,108.079412,35.726408,-125.477950
46522,-5.593220,7.517209,-2.416198,-0.070004,-0.035962,-0.136719,0.012869,-0.011163,0.002768,-0.055932,0.075173,-0.024160,1.000000,0.000064,-0.000056,0.000014,-0.035255,-0.512911,0.602401,0.610568,108.077980,35.722389,-125.492409
46523,-5.590172,7.604921,-2.418769,-0.119740,-0.062832,-0.070151,0.019265,-0.007921,0.002558,-0.055902,0.076051,-0.024183,1.000000,0.000096,-0.000040,0.000013,-0.035210,-0.512829,0.602495,0.610546,108.081150,35.717077,-125.504861
46524,-5.600970,7.631326,-2.465787,-0.097845,-0.095007,-0.031608,0.002730,-0.002401,0.004130,-0.056011,0.076312,-0.024657,1.000000,0.000014,-0.000012,0.000021,-0.035223,-0.512759,0.602540,0.610559,108.077169,35.710759,-125.513739
46525,-5.574405,7.610433,-2.458324,-0.102083,-0.101065,-0.065103,-0.000845,-0.000689,0.003798,-0.055745,0.076103,-0.024584,1.000000,-0.000004,-0.000003,0.000019,-0.035255,-0.512692,0.602575,0.610579,108.071493,35.703484,-125.521567
46526,-5.605849,7.618136,-2.484896,-0.072427,-0.100451,-0.034093,-0.002955,-0.002948,0.008456,-0.056061,0.076179,-0.024851,1.000000,-0.000015,-0.000015,0.000042,-0.035294,-0.512607,0.602614,0.610610,108.063492,35.694905,-125.531755
46527,-5.640158,7.592011,-2.517109,-0.017896,-0.092723,-0.026118,-0.005684,-0.000547,0.004327,-0.056403,0.075918,-0.025173,1.000000,-0.000028,-0.000003,0.000022,-0.035341,-0.512538,0.602635,0.610644,108.055016,35.687312,-125.539586
46528,-5.602505,7.598913,-2.470058,-0.069258,-0.086594,-0.054592,-0.010066,-0.008882,0.004549,-0.056026,0.075987,-0.024707,1.000000,-0.000050,-0.000044,0.000023,-0.035369,-0.512446,0.602643,0.610712,108.041123,35.681912,-125.552895
46529,-5.600176,7.524928,-2.447885,-0.041006,-0.052847,-0.118660,0.003567,-0.014747,-0.000577,-0.056000,0.075250,-0.024482,1.000000,0.000018,-0.000074,-0.000003,-0.035334,-0.512350,0.602683,0.610756,108.033019,35.679510,-125.569170
46530,-5.553587,7.522476,-2.460236,-0.053158,-0.091789,-0.144622,0.018975,-0.010806,-0.008299,-0.055531,0.075229,-0.024598,1.000000,0.000095,-0.000054,-0.000041,-0.035242,-0.512295,0.602747,0.610744,108.036651,35.681449,-125.580962
46531,-5.545837,7.623371,-2.443283,-0.126352,-0.112468,-0.075485,0.004550,-0.003027,-0.011382,-0.055454,0.076237,-0.024432,1.000000,0.000023,-0.000015,-0.000057,-0.035207,-0.512268,0.602760,0.610756,108.035089,35.682849,-125.587046
46532,-5.575833,7.664047,-2.463694,-0.121413,-0.118876,-0.021444,-0.014131,-0.004515,-0.012482,-0.055753,0.076642,-0.024644,1.000000,-0.000071,-0.000023,-0.000062,-0.035206,-0.512239,0.602711,0.610828,108.022745,35.685950,-125.593705
