PacketCounter,Acc_X,Acc_Y,Acc_Z,FreeAcc_E,FreeAcc_N,FreeAcc_U,Gyr_X,Gyr_Y,Gyr_Z,VelInc_X,VelInc_Y,VelInc_Z,OriInc_q0,OriInc_q1,OriInc_q2,OriInc_q3,Quat_q0,Quat_q1,Quat_q2,Quat_q3,Roll,Pitch,Yaw
50271,-5.221941,4.413998,6.862917,0.038697,0.030070,-0.125103,-0.006995,-0.024158,0.017597,-0.052232,0.044138,0.068621,1.000000,-0.000035,-0.000121,0.000088,-0.498844,-0.376090,0.050704,0.779192,32.537849,32.378250,-105.059052
50272,-5.201534,4.370030,6.890388,-0.014618,0.029788,-0.136456,-0.003137,-0.024763,0.017425,-0.052028,0.043697,0.068897,1.000000,-0.000016,-0.000124,0.000087,-0.498918,-0.375981,0.050777,0.779193,32.535824,32.361287,-105.057420
50273,-5.250898,4.350286,6.870341,-0.004272,0.088483,-0.133294,-0.007314,-0.029905,0.014069,-0.052522,0.043502,0.068694,1.000000,-0.000037,-0.000150,0.000070,-0.498984,-0.375843,0.050839,0.779213,32.529366,32.343153,-105.059589
50274,-5.239222,4.360323,6.813926,0.038186,0.093381,-0.175194,-0.004674,-0.031739,0.009809,-0.052405,0.043602,0.068130,1.000000,-0.000023,-0.000159,0.000049,-0.499028,-0.375705,0.050909,0.779246,32.522771,32.325166,-105.064851
50275,-5.173983,4.370143,6.765597,0.063367,0.051825,-0.240078,-0.002432,-0.025047,0.005288,-0.051749,0.043701,0.067649,1.000000,-0.000012,-0.000125,0.000026,-0.499052,-0.375601,0.050961,0.779278,32.517376,32.312089,-105.070264
50276,-5.192052,4.365830,6.681376,0.119063,0.095506,-0.292426,-0.003908,-0.023652,0.006068,-0.051930,0.043658,0.066807,1.000000,-0.000020,-0.000118,0.000030,-0.499083,-0.375497,0.051007,0.779305,32.511658,32.299161,-105.074712
50277,-5.161572,4.380065,6.709844,0.105894,0.056597,-0.281980,-0.003232,-0.014695,0.003944,-0.051622,0.043801,0.067094,1.000000,-0.000016,-0.000073,0.000020,-0.499106,-0.375432,0.051028,0.779321,32.507422,32.291505,-105.077113
50278,-5.160474,4.380340,6.710509,0.105976,0.056513,-0.281980,-0.001770,-0.006843,0.013186,-0.051610,0.043801,0.067103,1.000000,-0.000009,-0.000034,0.000066,-0.499165,-0.375397,0.051053,0.779298,32.508375,32.284507,-105.071367
50279,-5.199632,4.377071,6.755190,0.083902,0.077751,-0.230703,-0.005532,-0.000407,0.012569,-0.051999,0.043769,0.067551,1.000000,-0.000028,-0.000002,0.000063,-0.499229,-0.375379,0.051045,0.779266,32.508243,32.281103,-105.063628
50280,-5.252184,4.335333,6.811582,0.028674,0.125192,-0.181399,-0.002570,0.003507,0.011839,-0.052523,0.043351,0.068116,1.000000,-0.000013,0.000018,0.000059,-0.499287,-0.375383,0.051040,0.779228,32.510338,32.279520,-105.054884
50281,-5.241937,4.303374,6.817775,-0.001457,0.131165,-0.196982,0.001455,0.001151,0.008417,-0.052421,0.043031,0.068178,1.000000,0.000007,0.000006,0.000042,-0.499322,-0.375390,0.051047,0.779201,32.513248,32.278156,-105.048949
50282,-5.249847,4.316052,6.797833,0.021825,0.137390,-0.201217,0.005574,0.004621,0.004200,-0.052498,0.043158,0.067981,1.000000,0.000028,0.000023,0.000021,-0.499335,-0.375420,0.051056,0.779178,32.517895,32.279463,-105.044164
50283,-5.235970,4.312560,6.850138,-0.017511,0.112209,-0.172923,0.005013,-0.001053,-0.003665,-0.052359,0.043125,0.068502,1.000000,0.000025,-0.000005,-0.000018,-0.499316,-0.375431,0.051061,0.779184,32.518724,32.280764,-105.045938
50284,-5.248223,4.365670,6.856757,0.019768,0.093596,-0.137519,0.007315,0.007307,-0.000618,-0.052480,0.043654,0.068571,1.000000,0.000037,0.000037,-0.000003,-0.499308,-0.375477,0.051060,0.779167,32.523421,32.284852,-105.042928
50285,-5.230828,4.321408,6.882090,-0.033563,0.093250,-0.148865,-0.000566,0.010273,0.002982,-0.052305,0.043213,0.068823,1.000000,-0.000003,0.000051,0.000015,-0.499328,-0.375516,0.051027,0.779138,32.525285,32.289584,-105.036778
50286,-5.187491,4.353608,6.883641,-0.020540,0.040646,-0.156269,-0.003263,0.010439,-0.000327,-0.051871,0.043537,0.068838,1.000000,-0.000016,0.000052,-0.000002,-0.499341,-0.375548,0.050979,0.779117,32.524621,32.295096,-105.032460
50287,-5.232329,4.321070,6.881161,-0.033413,0.093022,-0.148862,-0.005228,0.014532,0.000987,-0.052319,0.043212,0.068814,1.000000,-0.000026,0.000073,0.000005,-0.499363,-0.375592,0.050913,0.779086,32.524029,32.302501,-105.025900
50288,-5.204365,4.334949,6.907922,-0.046559,0.054152,-0.138419,-0.004155,0.014963,-0.000878,-0.052038,0.043351,0.069082,1.000000,-0.000021,0.000075,-0.000004,-0.499378,-0.375640,0.050848,0.779058,32.523568,32.310368,-105.020247
50289,-5.199484,4.342836,6.940305,-0.062688,0.035275,-0.114362,-0.001519,0.013126,-0.005142,-0.051989,0.043430,0.069406,1.000000,-0.000008,0.000066,-0.000026,-0.499369,-0.375690,0.050789,0.779043,32.522951,32.318985,-105.017706
50290,-5.202446,4.362815,6.953154,-0.055603,0.022767,-0.094543,-0.000541,0.007729,-0.006212,-0.052020,0.043630,0.069533,1.000000,-0.000003,0.000039,-0.000031,-0.499353,-0.375719,0.050747,0.779042,32.521522,32.325001,-105.017738
50291,-5.168072,4.315537,6.940301,-0.089761,0.021102,-0.143555,-0.003014,0.001117,-0.006018,-0.051679,0.043158,0.069403,1.000000,-0.000015,0.000006,-0.000030,-0.499341,-0.375719,0.050710,0.779052,32.517433,32.328084,-105.020081
50292,-5.182454,4.388521,6.960475,-0.045474,-0.009930,-0.088337,0.005023,0.005650,-0.002836,-0.051822,0.043884,0.069607,1.000000,0.000025,0.000028,-0.000014,-0.499328,-0.375754,0.050701,0.779045,32.519819,32.332055,-105.018941
50293,-5.153872,4.333318,6.914570,-0.063433,0.007144,-0.161405,-0.001537,-0.000277,-0.006796,-0.051537,0.043335,0.069145,1.000000,-0.000008,-0.000001,-0.000034,-0.499309,-0.375752,0.050672,0.779060,32.516059,32.334700,-105.022241
50294,-5.158051,4.373634,6.941361,-0.049345,-0.017785,-0.121769,-0.001219,-0.001228,-0.004088,-0.051580,0.043738,0.069413,1.000000,-0.000006,-0.000006,-0.000020,-0.499301,-0.375744,0.050653,0.779069,32.513144,32.335734,-105.024324
50295,-5.181152,4.367243,6.947198,-0.052244,0.002121,-0.108154,-0.005074,-0.000619,-0.003910,-0.051811,0.043675,0.069471,1.000000,-0.000025,-0.000003,-0.000020,-0.499300,-0.375731,0.050616,0.779079,32.508167,32.337320,-105.026103
50296,-5.176211,4.416976,6.916023,0.004214,-0.017796,-0.110426,-0.009745,-0.003062,-0.006734,-0.051762,0.044175,0.069157,1.000000,-0.000049,-0.000015,-0.000034,-0.499297,-0.375696,0.050564,0.779101,32.499200,32.338282,-105.030368
50297,-5.143466,4.389498,6.917139,-0.022939,-0.031879,-0.139621,-0.009247,0.000941,-0.006441,-0.051433,0.043900,0.069170,1.000000,-0.000046,0.000005,-0.000032,-0.499295,-0.375679,0.050503,0.779115,32.491360,32.341396,-105.033027
50298,-5.163574,4.453640,6.904921,0.037549,-0.044168,-0.108463,-0.004584,-0.003317,-0.004445,-0.051636,0.044539,0.069047,1.000000,-0.000023,-0.000017,-0.000022,-0.499291,-0.375655,0.050475,0.779130,32.486000,32.341530,-105.036077
50299,-5.153541,4.420624,6.911618,0.007422,-0.038204,-0.124042,-0.007134,-0.002355,-0.001802,-0.051536,0.044209,0.069114,1.000000,-0.000036,-0.000012,-0.000009,-0.499302,-0.375630,0.050439,0.779138,32.480150,32.341617,-105.037282
50300,-5.151167,4.400030,6.898704,0.000502,-0.025870,-0.143859,-0.002240,-0.006691,0.004522,-0.051515,0.044000,0.068985,1.000000,-0.000011,-0.000033,0.000023,-0.499328,-0.375596,0.050446,0.779137,32.478220,32.337360,-105.036430
50301,-5.142537,4.388159,6.918680,-0.022620,-0.032328,-0.139622,0.008278,-0.011491,-0.003341,-0.051429,0.043880,0.069186,1.000000,0.000041,-0.000057,-0.000017,-0.499301,-0.375574,0.050490,0.779162,32.478952,32.333500,-105.041842
50302,-5.136779,4.439080,6.887387,0.033840,-0.052237,-0.141898,0.004655,-0.010959,0.001167,-0.051372,0.044389,0.068872,1.000000,0.000023,-0.000055,0.000006,-0.499300,-0.375542,0.050529,0.779175,32.479115,32.328212,-105.044463
50303,-5.151050,4.421242,6.913079,0.007742,-0.038650,-0.124044,0.001874,-0.009919,-0.000519,-0.051514,0.044212,0.069129,1.000000,0.000009,-0.000050,-0.000003,-0.499297,-0.375509,0.050549,0.779192,32.477349,32.324237,-105.047687
50304,-5.189292,4.439736,6.879831,0.051246,-0.006046,-0.118905,0.003094,-0.008692,0.003568,-0.051897,0.044395,0.068797,1.000000,0.000015,-0.000043,0.000018,-0.499309,-0.375481,0.050580,0.779196,32.477793,32.319306,-105.048109
50305,-5.163597,4.425467,6.861289,0.047289,-0.013802,-0.152338,-0.004531,-0.008348,0.002303,-0.051639,0.044256,0.068610,1.000000,-0.000023,-0.000042,0.000012,-0.499329,-0.375438,0.050577,0.779204,32.473531,32.315218,-105.049144
50306,-5.188036,4.439633,6.880846,0.051404,-0.006266,-0.118906,-0.003948,-0.005219,0.000973,-0.051882,0.044397,0.068806,1.000000,-0.000020,-0.000026,0.000005,-0.499345,-0.375407,0.050567,0.779209,32.469824,32.312764,-105.049786
50307,-5.177557,4.407081,6.887572,0.021274,-0.000302,-0.134482,-0.003714,-0.005296,0.005303,-0.051779,0.044071,0.068874,1.000000,-0.000019,-0.000026,0.000027,-0.499376,-0.375377,0.050565,0.779204,32.467547,32.309226,-105.047989
50308,-5.222847,4.395155,6.899411,0.015404,0.039698,-0.107247,-0.007336,-0.004765,0.009812,-0.052232,0.043952,0.068991,1.000000,-0.000037,-0.000024,0.000049,-0.499433,-0.375337,0.050557,0.779187,32.464690,32.304273,-105.043410
50309,-5.194934,4.360709,6.867583,0.004437,0.044365,-0.160494,0.001354,-0.011379,0.008385,-0.051955,0.043604,0.068673,1.000000,0.000007,-0.000057,0.000042,-0.499465,-0.375295,0.050596,0.779185,32.465076,32.296846,-105.042063
50310,-5.206880,4.322827,6.880002,-0.028662,0.070417,-0.162450,0.004975,-0.011910,0.003876,-0.052074,0.043226,0.068798,1.000000,0.000025,-0.000060,0.000019,-0.499474,-0.375259,0.050643,0.779193,32.466068,32.290265,-105.043479
50311,-5.205900,4.323518,6.880309,-0.028590,0.070283,-0.162449,0.011379,-0.013481,0.001053,-0.052064,0.043231,0.068802,1.000000,0.000057,-0.000067,0.000005,-0.499458,-0.375236,0.050712,0.779210,32.469548,32.284078,-105.047091
50312,-5.233043,4.401246,6.848262,0.055099,0.064332,-0.135538,0.010656,-0.010705,-0.002741,-0.052333,0.044010,0.068482,1.000000,0.000053,-0.000054,-0.000014,-0.499431,-0.375221,0.050766,0.779231,32.472008,32.280115,-105.051853
50313,-5.222777,4.369193,6.854513,0.024966,0.070293,-0.151112,0.006489,-0.002445,-0.004445,-0.052228,0.043691,0.068546,1.000000,0.000032,-0.000012,-0.000022,-0.499406,-0.375229,0.050778,0.779242,32.473151,32.280958,-105.054594
50314,-5.163095,4.377479,6.895407,-0.008375,0.005044,-0.150058,0.007568,0.004686,-0.005485,-0.051628,0.043774,0.068957,1.000000,0.000038,0.000023,-0.000027,-0.499377,-0.375267,0.050776,0.779242,32.475996,32.285279,-105.055324
50315,-5.158649,4.428400,6.863118,0.048078,-0.014898,-0.152343,0.005666,0.010448,0.003401,-0.051584,0.044281,0.068635,1.000000,0.000028,0.000052,0.000017,-0.499387,-0.375322,0.050768,0.779210,32.481570,32.289941,-105.048887
50316,-5.197267,4.404570,6.893499,0.019009,0.018770,-0.120864,-0.003351,0.011312,0.001294,-0.051969,0.044047,0.068937,1.000000,-0.000017,0.000057,0.000006,-0.499408,-0.375357,0.050720,0.779183,32.481518,32.295379,-105.043329
50317,-5.165024,4.377782,6.893769,-0.008145,0.004688,-0.150058,-0.005644,0.009654,-0.000926,-0.051647,0.043780,0.068939,1.000000,-0.000028,0.000048,-0.000005,-0.499422,-0.375382,0.050661,0.779166,32.479140,32.300986,-105.039653
50318,-5.172499,4.347543,6.938412,-0.057430,0.011982,-0.127957,0.004353,0.003394,0.000112,-0.051724,0.043474,0.069386,1.000000,0.000022,0.000017,0.000001,-0.499421,-0.375405,0.050660,0.779155,32.481602,32.302960,-105.037652
50319,-5.167615,4.398637,6.906338,-0.000975,-0.007957,-0.130245,0.010991,0.001746,0.001621,-0.051676,0.043982,0.069066,1.000000,0.000055,0.000009,0.000008,-0.499412,-0.375440,0.050691,0.779142,32.487992,32.303959,-105.035399
50320,-5.146592,4.425529,6.913656,0.009102,-0.040508,-0.124053,0.005332,-0.002002,-0.000956,-0.051466,0.044254,0.069137,1.000000,0.000027,-0.000010,-0.000005,-0.499404,-0.375445,0.050706,0.779144,32.489638,32.303654,-105.035974
50321,-5.134481,4.442193,6.979595,-0.023186,-0.078150,-0.075949,-0.001072,-0.000431,0.001865,-0.051345,0.044422,0.069796,1.000000,-0.000005,-0.000002,0.000009,-0.499418,-0.375441,0.050695,0.779138,32.488769,32.303521,-105.034373
50322,-5.182089,4.450733,7.004469,-0.022048,-0.050581,-0.028894,-0.001336,-0.004510,0.005905,-0.051824,0.044506,0.070043,1.000000,-0.000007,-0.000023,0.000030,-0.499448,-0.375418,0.050703,0.779129,32.488204,32.299892,-105.031938
50323,-5.187288,4.442568,6.972031,-0.005792,-0.031959,-0.052947,-0.007833,-0.008764,0.009524,-0.051878,0.044426,0.069716,1.000000,-0.000039,-0.000044,0.000048,-0.499503,-0.375363,0.050702,0.779121,32.484179,32.293366,-105.028993
50324,-5.184206,4.422081,6.959595,-0.012721,-0.019623,-0.072759,-0.011283,-0.009979,0.010790,-0.051848,0.044222,0.069591,1.000000,-0.000056,-0.000050,0.000054,-0.499570,-0.375292,0.050694,0.779112,32.478343,32.285591,-105.025755
50325,-5.178797,4.381295,6.934045,-0.026675,0.005092,-0.112382,-0.004397,-0.020949,0.006609,-0.051797,0.043813,0.069334,1.000000,-0.000022,-0.000105,0.000033,-0.499603,-0.375199,0.050731,0.779133,32.473029,32.274068,-105.028909
50326,-5.193108,4.405677,6.895926,0.019797,0.017672,-0.120864,-0.001030,-0.018860,0.006966,-0.051939,0.044055,0.068954,1.000000,-0.000005,-0.000094,0.000035,-0.499634,-0.375121,0.050777,0.779149,32.470173,32.263177,-105.031087
50327,-5.174609,4.403636,6.858264,0.039031,0.016260,-0.158538,0.000127,-0.019302,0.003479,-0.051753,0.044035,0.068578,1.000000,0.000001,-0.000097,0.000017,-0.499647,-0.375046,0.050822,0.779173,32.466818,32.253410,-105.035429
50328,-5.196019,4.398168,6.864833,0.036132,0.036213,-0.144916,0.002574,-0.016847,0.011654,-0.051969,0.043978,0.068645,1.000000,0.000013,-0.000084,0.000058,-0.499689,-0.374983,0.050887,0.779172,32.467850,32.242051,-105.034194
50329,-5.186502,4.386697,6.885200,0.013013,0.029747,-0.140674,-0.000698,-0.013108,0.010503,-0.051872,0.043864,0.068848,1.000000,-0.000003,-0.000066,0.000053,-0.499733,-0.374928,0.050926,0.779168,32.467369,32.233119,-105.032267
50330,-5.171369,4.314137,6.865355,-0.031147,0.060597,-0.195864,0.001192,-0.009626,0.011636,-0.051720,0.043138,0.068651,1.000000,0.000006,-0.000048,0.000058,-0.499780,-0.374890,0.050967,0.779153,32.469003,32.225255,-105.028417
50331,-5.210021,4.310883,6.910434,-0.053216,0.081782,-0.144564,-0.007015,-0.012406,0.011709,-0.052107,0.043108,0.069100,1.000000,-0.000035,-0.000062,0.000059,-0.499840,-0.374822,0.050982,0.779146,32.465405,32.216292,-105.025547
50332,-5.210930,4.262288,6.851491,-0.050993,0.125303,-0.208234,0.001361,-0.011373,0.008394,-0.052115,0.042620,0.068512,1.000000,0.000007,-0.000057,0.000042,-0.499874,-0.374778,0.051022,0.779143,32.465809,32.208581,-105.024185
50333,-5.213490,4.303107,6.879128,-0.036885,0.100322,-0.168613,-0.004548,-0.021739,0.000668,-0.052143,0.043032,0.068785,1.000000,-0.000023,-0.000109,0.000003,-0.499884,-0.374683,0.051049,0.779181,32.458446,32.198508,-105.031019
50334,-5.201352,4.292217,6.808677,-0.001471,0.117721,-0.230339,-0.004287,-0.017661,-0.003373,-0.052019,0.042925,0.068081,1.000000,-0.000021,-0.000088,-0.000017,-0.499880,-0.374604,0.051061,0.779220,32.450815,32.191375,-105.038663
50335,-5.148327,4.311764,6.831336,-0.011603,0.058751,-0.233536,-0.007155,-0.015746,-0.003436,-0.051488,0.043121,0.068308,1.000000,-0.000036,-0.000079,-0.000017,-0.499881,-0.374526,0.051055,0.779257,32.441869,32.185465,-105.045663
50336,-5.057790,4.355286,6.822624,0.007436,-0.033910,-0.268226,-0.004102,-0.006010,-0.004971,-0.050579,0.043556,0.068224,1.000000,-0.000021,-0.000030,-0.000025,-0.499874,-0.374493,0.051036,0.779279,32.436114,32.184456,-105.049986
50337,-5.184509,4.377482,6.858927,0.029819,0.047635,-0.164724,-0.016239,-0.000608,-0.002267,-0.051845,0.043781,0.068586,1.000000,-0.000081,-0.000003,-0.000011,-0.499901,-0.374452,0.050959,0.779287,32.425247,32.185504,-105.050820
50338,-5.205633,4.350157,6.851879,0.019898,0.080010,-0.170907,-0.011480,0.000959,-0.001073,-0.052056,0.043506,0.068517,1.000000,-0.000057,0.000005,-0.000005,-0.499924,-0.374426,0.050900,0.779288,32.417799,32.186666,-105.050386
50339,-5.207534,4.369981,6.865599,0.026992,0.067452,-0.151097,-0.001890,-0.003480,-0.001131,-0.052076,0.043701,0.068655,1.000000,-0.000009,-0.000017,-0.000006,-0.499927,-0.374409,0.050889,0.779295,32.414945,32.185980,-105.051613
50340,-5.199465,4.357831,6.885270,0.003884,0.061025,-0.146854,0.000903,0.002177,0.001376,-0.051994,0.043578,0.068853,1.000000,0.000005,0.000011,0.000007,-0.499937,-0.374419,0.050880,0.779284,32.415573,32.186979,-105.049337
50341,-5.207542,4.370127,6.865500,0.027149,0.067232,-0.151096,0.006483,-0.002447,-0.004452,-0.052075,0.043700,0.068656,1.000000,0.000032,-0.000012,-0.000022,-0.499912,-0.374428,0.050892,0.779296,32.416705,32.187815,-105.052087
50342,-5.205786,4.349819,6.851978,0.020211,0.079570,-0.170904,0.003293,0.000418,-0.007223,-0.052056,0.043499,0.068521,1.000000,0.000016,0.000002,-0.000036,-0.499884,-0.374439,0.050881,0.779309,32.415744,32.190605,-105.055365
50343,-5.154097,4.369790,6.873354,0.010088,0.020597,-0.174106,0.003293,0.000418,-0.007223,-0.051539,0.043699,0.068734,1.000000,0.000016,0.000002,-0.000036,-0.499855,-0.374451,0.050869,0.779323,32.414758,32.193682,-105.058659
50344,-5.185610,4.375541,6.859333,0.030376,0.046889,-0.164722,-0.003836,0.004766,-0.008190,-0.051853,0.043759,0.068594,1.000000,-0.000019,0.000024,-0.000041,-0.499837,-0.374462,0.050817,0.779332,32.410259,32.198872,-105.060912
50345,-5.134399,4.395007,6.880687,0.020255,-0.012085,-0.167925,-0.003339,0.008767,-0.007901,-0.051339,0.043953,0.068808,1.000000,-0.000017,0.000044,-0.000040,-0.499820,-0.374490,0.050756,0.779334,32.406882,32.206196,-105.061562
50346,-5.153320,4.438892,6.854563,0.073744,-0.011910,-0.156605,-0.005801,0.008857,-0.006876,-0.051529,0.044393,0.068547,1.000000,-0.000029,0.000044,-0.000034,-0.499812,-0.374512,0.050690,0.779333,32.402447,32.212961,-105.061580
50347,-5.161016,4.408072,6.899341,0.024450,-0.004696,-0.134491,-0.006632,0.008348,-0.000678,-0.051607,0.044083,0.068994,1.000000,-0.000033,0.000042,-0.000003,-0.499829,-0.374529,0.050631,0.779318,32.399309,32.217862,-105.058251
50348,-5.179491,4.452058,6.873490,0.077939,-0.004519,-0.123171,-0.006961,0.002602,-0.004210,-0.051793,0.044524,0.068734,1.000000,-0.000035,0.000013,-0.000021,-0.499832,-0.374522,0.050580,0.779322,32.393811,32.220782,-105.059015
50349,-5.123878,4.431019,6.868410,0.053774,-0.038640,-0.165992,-0.001714,0.001472,-0.003551,-0.051237,0.044312,0.068684,1.000000,-0.000009,0.000007,-0.000018,-0.499827,-0.374525,0.050552,0.779326,32.391290,32.223237,-105.059822
50350,-5.124225,4.430852,6.868259,0.053859,-0.038726,-0.165993,0.000091,0.005825,-0.000797,-0.051240,0.044309,0.068684,1.000000,0.000000,0.000029,-0.000004,-0.499831,-0.374548,0.050527,0.779314,32.391497,32.226670,-105.057465
50351,-5.141461,4.433319,6.906573,0.034779,-0.037596,-0.128315,0.004183,0.005137,0.003351,-0.051414,0.044331,0.069068,1.000000,0.000021,0.000026,0.000017,-0.499843,-0.374578,0.050526,0.779292,32.395174,32.228775,-105.052991
50352,-5.189462,4.442450,6.930827,0.035913,-0.010040,-0.081251,0.008276,0.004449,0.007499,-0.051895,0.044420,0.069311,1.000000,0.000041,0.000022,0.000037,-0.499863,-0.374614,0.050552,0.779260,32.402336,32.228994,-105.046388
50353,-5.169498,4.378533,6.942723,-0.024445,0.001985,-0.112375,0.008192,0.005323,0.009121,-0.051695,0.043780,0.069430,1.000000,0.000041,0.000027,0.000046,-0.499890,-0.374653,0.050577,0.779222,32.410111,32.229413,-105.038543
50354,-5.230250,4.349660,6.978893,-0.056517,0.055651,-0.067242,0.011634,-0.000161,0.007029,-0.052304,0.043491,0.069791,1.000000,0.000058,-0.000001,0.000035,-0.499901,-0.374680,0.050627,0.779199,32.418160,32.227545,-105.033883
50355,-5.198861,4.344650,6.992387,-0.076644,0.029135,-0.076626,0.016314,-0.006962,-0.000174,-0.051991,0.043441,0.069926,1.000000,0.000082,-0.000035,-0.000001,-0.499873,-0.374694,0.050696,0.779205,32.425371,32.224875,-105.035817
50356,-5.231366,4.372178,6.991518,-0.049333,0.043001,-0.047434,0.015006,-0.007314,-0.002637,-0.052316,0.043717,0.069917,1.000000,0.000075,-0.000037,-0.000013,-0.499839,-0.374703,0.050759,0.779219,32.431020,32.222517,-105.039281
50357,-5.171987,4.422884,6.968171,-0.010073,-0.023309,-0.072764,0.000076,-0.007572,-0.002444,-0.051722,0.044229,0.069680,1.000000,0.000000,-0.000038,-0.000012,-0.499833,-0.374675,0.050763,0.779236,32.428110,32.220248,-105.042737
50358,-5.144674,4.387738,6.936332,-0.021053,-0.018577,-0.126005,-0.008620,-0.007656,-0.001835,-0.051449,0.043881,0.069359,1.000000,-0.000043,-0.000038,-0.000009,-0.499846,-0.374624,0.050736,0.779254,32.420401,32.217478,-105.045866
50359,-5.152462,4.399130,6.917337,0.002210,-0.012359,-0.130249,-0.012635,0.001399,0.002413,-0.051525,0.043995,0.069171,1.000000,-0.000063,0.000007,0.000012,-0.499884,-0.374598,0.050677,0.779246,32.413425,32.218051,-105.043290
50360,-5.154382,4.418663,6.931232,0.009324,-0.024873,-0.110445,-0.015097,0.001489,0.003438,-0.051544,0.044191,0.069309,1.000000,-0.000075,0.000007,0.000017,-0.499932,-0.374564,0.050611,0.779236,32.405383,32.218085,-105.040083
50361,-5.111258,4.358872,6.938719,-0.048045,-0.032884,-0.155195,-0.014201,-0.003031,0.003992,-0.051114,0.043593,0.069383,1.000000,-0.000071,-0.000015,0.000020,-0.499978,-0.374517,0.050560,0.779232,32.397134,32.216027,-105.038214
50362,-5.133671,4.352676,6.945000,-0.050951,-0.012941,-0.141564,-0.000923,-0.006333,0.006996,-0.051340,0.043525,0.069448,1.000000,-0.000005,-0.000032,0.000035,-0.500012,-0.374488,0.050576,0.779224,32.396785,32.211185,-105.035812
50363,-5.138804,4.344805,6.912500,-0.034717,0.005707,-0.165613,0.005637,-0.016350,0.000100,-0.051394,0.043446,0.069122,1.000000,0.000028,-0.000082,0.000001,-0.500002,-0.374439,0.050629,0.779250,32.396137,32.203873,-105.040998
50364,-5.155621,4.390027,6.887096,0.018772,0.005897,-0.154299,0.009242,-0.014341,0.004783,-0.051562,0.043896,0.068869,1.000000,0.000046,-0.000072,0.000024,-0.500006,-0.374404,0.050700,0.779259,32.399388,32.195837,-105.042766
50365,-5.160327,4.382636,6.854622,0.035005,0.024548,-0.178348,0.007760,-0.019644,0.004742,-0.051611,0.043822,0.068543,1.000000,0.000039,-0.000098,0.000024,-0.500010,-0.374347,0.050778,0.779279,32.400735,32.185505,-105.046497
50366,-5.156933,4.362755,6.842065,0.028057,0.036889,-0.198152,-0.002900,-0.015635,0.006669,-0.051576,0.043627,0.068416,1.000000,-0.000014,-0.000078,0.000033,-0.500043,-0.374276,0.050809,0.779290,32.397354,32.176263,-105.047657
50367,-5.193792,4.338868,6.873860,-0.001041,0.070468,-0.166640,-0.003298,-0.007114,0.006403,-0.051942,0.043388,0.068736,1.000000,-0.000016,-0.000036,0.000032,-0.500078,-0.374239,0.050815,0.779285,32.395294,32.171483,-105.045887
50368,-5.201171,4.351023,6.854717,0.022229,0.076736,-0.170885,-0.005180,-0.003897,0.006095,-0.052014,0.043510,0.068545,1.000000,-0.000026,-0.000019,0.000030,-0.500116,-0.374209,0.050807,0.779275,32.392699,32.168097,-105.043117
50369,-5.269606,4.333045,6.872378,0.013323,0.136697,-0.129984,-0.006490,-0.004249,0.003632,-0.052698,0.043332,0.068721,1.000000,-0.000032,-0.000021,0.000018,-0.500146,-0.374176,0.050788,0.779273,32.388519,32.165558,-105.041898
50370,-5.261171,4.320741,6.892412,-0.009782,0.130255,-0.125737,-0.001483,-0.005303,-0.000042,-0.052614,0.043208,0.068922,1.000000,-0.000007,-0.000027,-0.000000,-0.500154,-0.374151,0.050786,0.779281,32.385904,32.163374,-105.043146
50371,-5.262040,4.362890,6.828144,0.062845,0.129160,-0.152108,0.000737,-0.005316,-0.005399,-0.052621,0.043630,0.068280,1.000000,0.000004,-0.000027,-0.000027,-0.500135,-0.374134,0.050782,0.779301,32.382908,32.163098,-105.047474
50372,-5.202105,4.370970,6.869084,0.029575,0.063874,-0.151080,0.010427,0.002765,-0.005438,-0.052019,0.043708,0.068694,1.000000,0.000052,0.000014,-0.000027,-0.500101,-0.374172,0.050796,0.779304,32.387032,32.166475,-105.048880
50373,-5.181589,4.397746,6.876001,0.039677,0.031284,-0.144912,0.012400,0.005372,-0.005930,-0.051813,0.043975,0.068764,1.000000,0.000062,0.000027,-0.000030,-0.500061,-0.374226,0.050809,0.779302,32.392621,32.171540,-105.049633
50374,-5.159496,4.403965,6.869430,0.042755,0.011168,-0.158547,0.004781,0.012417,-0.006362,-0.051589,0.044040,0.068699,1.000000,0.000024,0.000062,-0.000032,-0.500036,-0.374288,0.050775,0.779291,32.395093,32.179870,-105.048067
50375,-5.094772,4.350987,6.869589,-0.011623,-0.016882,-0.216927,0.003140,0.015558,-0.002339,-0.050942,0.043509,0.068701,1.000000,0.000016,0.000078,-0.000012,-0.500030,-0.374358,0.050733,0.779264,32.398442,32.188760,-105.043074
50376,-5.089732,4.359422,6.901655,-0.027689,-0.035755,-0.192878,0.004939,0.013215,-0.000408,-0.050893,0.043593,0.069021,1.000000,0.000025,0.000066,-0.000002,-0.500029,-0.374421,0.050710,0.779236,32.402972,32.195648,-105.037813
50377,-5.115478,4.374272,6.919836,-0.023574,-0.028286,-0.159442,0.009284,0.009908,-0.001124,-0.051151,0.043740,0.069203,1.000000,0.000046,0.000050,-0.000006,-0.500014,-0.374484,0.050708,0.779215,32.409121,32.201426,-105.034173
50378,-5.101787,4.370938,6.971779,-0.062825,-0.053521,-0.131147,0.007221,0.001477,0.000168,-0.051017,0.043707,0.069720,1.000000,0.000036,0.000007,0.000001,-0.500008,-0.374507,0.050724,0.779207,32.412866,32.202458,-105.032842
50379,-5.142778,4.409961,6.951341,-0.012337,-0.033334,-0.106205,0.007960,-0.003841,-0.005229,-0.051428,0.044098,0.069514,1.000000,0.000040,-0.000019,-0.000026,-0.499977,-0.374514,0.050744,0.779222,32.414344,32.202841,-105.036517
50380,-5.126437,4.386100,6.990573,-0.058622,-0.046142,-0.097711,0.005157,-0.006954,0.001461,-0.051267,0.043859,0.069905,1.000000,0.000026,-0.000035,0.000007,-0.499977,-0.374499,0.050775,0.779228,32.415670,32.199398,-105.037506
50381,-5.186160,4.378169,6.949625,-0.025205,0.018932,-0.098733,-0.003366,-0.002087,-0.000351,-0.051862,0.043783,0.069495,1.000000,-0.000017,-0.000010,-0.000002,-0.499986,-0.374483,0.050755,0.779230,32.412482,32.199124,-105.037793
50382,-5.228771,4.436891,6.943189,0.032328,0.026737,-0.053991,-0.002386,-0.007481,-0.001417,-0.052290,0.044370,0.069429,1.000000,-0.000012,-0.000037,-0.000007,-0.499989,-0.374448,0.050753,0.779246,32.408508,32.196310,-105.040618
50383,-5.220284,4.424352,6.963427,0.009219,0.020244,-0.049743,-0.008704,-0.006781,-0.000209,-0.052205,0.044247,0.069631,1.000000,-0.000044,-0.000034,-0.000001,-0.500008,-0.374400,0.050725,0.779258,32.401397,32.193721,-105.042509
50384,-5.194983,4.409198,6.945116,0.005263,0.012558,-0.083180,-0.011489,-0.005741,-0.001893,-0.051951,0.044096,0.069447,1.000000,-0.000057,-0.000029,-0.000009,-0.500027,-0.374349,0.050681,0.779274,32.392400,32.191894,-105.044974
50385,-5.204612,4.440929,6.939572,0.035562,0.006361,-0.067628,-0.007717,-0.005477,-0.000454,-0.052048,0.044412,0.069393,1.000000,-0.000039,-0.000027,-0.000002,-0.500043,-0.374309,0.050653,0.779284,32.386033,32.190011,-105.046533
50386,-5.171159,4.413777,6.940890,0.008421,-0.007687,-0.096817,-0.010675,-0.009387,0.000284,-0.051715,0.044141,0.069404,1.000000,-0.000053,-0.000047,0.000001,-0.500068,-0.374245,0.050627,0.779301,32.377461,32.185751,-105.049075
50387,-5.122617,4.404785,6.916905,0.007454,-0.035441,-0.143893,-0.008462,-0.006857,0.004124,-0.051229,0.044050,0.069165,1.000000,-0.000042,-0.000034,0.000021,-0.500103,-0.374197,0.050608,0.779302,32.371797,32.181793,-105.048517
50388,-5.129972,4.416698,6.897928,0.030723,-0.029164,-0.148141,-0.004690,-0.006594,0.005562,-0.051303,0.044167,0.068977,1.000000,-0.000023,-0.000033,0.000028,-0.500138,-0.374158,0.050607,0.779299,32.368802,32.177265,-105.047027
50389,-5.142149,4.378213,6.910575,-0.002424,-0.003201,-0.150054,-0.009289,-0.007364,0.010324,-0.051426,0.043783,0.069102,1.000000,-0.000046,-0.000037,0.000052,-0.500199,-0.374104,0.050598,0.779286,32.364457,32.171156,-105.043090
50390,-5.166267,4.323182,6.857555,-0.003277,0.060391,-0.200059,-0.012247,-0.011273,0.011063,-0.051669,0.043233,0.068570,1.000000,-0.000061,-0.000056,0.000055,-0.500268,-0.374026,0.050590,0.779280,32.357903,32.162677,-105.040150
50391,-5.171184,4.314693,6.825657,0.012940,0.079058,-0.224106,-0.011177,-0.010842,0.009197,-0.051718,0.043148,0.068251,1.000000,-0.000056,-0.000054,0.000046,-0.500326,-0.373954,0.050580,0.779277,32.351462,32.155230,-105.038177
50392,-5.160105,4.281821,6.832994,-0.017203,0.085035,-0.239654,-0.010929,-0.013460,0.004332,-0.051607,0.042821,0.068324,1.000000,-0.000055,-0.000067,0.000022,-0.500366,-0.373873,0.050570,0.779292,32.343195,32.147756,-105.039875
50393,-5.192355,4.307836,6.833342,0.010096,0.098868,-0.210465,-0.006730,-0.004170,-0.000697,-0.051925,0.043081,0.068331,1.000000,-0.000034,-0.000021,-0.000003,-0.500380,-0.373840,0.050542,0.779300,32.337577,32.146577,-105.041117
50394,-5.225116,4.333822,6.833327,0.037404,0.112744,-0.181275,-0.007136,-0.002346,-0.001784,-0.052252,0.043341,0.068331,1.000000,-0.000036,-0.000012,-0.000009,-0.500392,-0.373813,0.050508,0.779308,32.331764,32.146358,-105.042288
50395,-5.227153,4.353468,6.847049,0.044519,0.100185,-0.161477,-0.005324,-0.000535,-0.008230,-0.052270,0.043539,0.068469,1.000000,-0.000027,-0.000003,-0.000041,-0.500375,-0.373801,0.050462,0.779328,32.325358,32.149252,-105.046491
50396,-5.186687,4.314430,6.866985,-0.005806,0.079768,-0.186415,0.004687,0.006594,-0.005563,-0.051863,0.043144,0.068673,1.000000,0.000023,0.000033,-0.000028,-0.500352,-0.373839,0.050444,0.779325,32.326890,32.154519,-105.046588
50397,-5.214571,4.349208,6.898634,0.005354,0.074801,-0.133179,0.007817,0.015454,-0.008723,-0.052138,0.043492,0.068992,1.000000,0.000039,0.000077,-0.000044,-0.500312,-0.373922,0.050409,0.779313,32.330941,32.165310,-105.045272
50398,-5.180879,4.371639,6.957670,-0.023839,0.017091,-0.098726,0.008887,0.015885,-0.010590,-0.051801,0.043716,0.069583,1.000000,0.000044,0.000079,-0.000053,-0.500264,-0.374008,0.050375,0.779305,32.335141,32.176615,-105.044879
50399,-5.232107,4.400568,6.994720,-0.015678,0.032146,-0.031850,0.008143,0.014504,-0.006012,-0.052315,0.044004,0.069953,1.000000,0.000041,0.000073,-0.000030,-0.500235,-0.374087,0.050348,0.779288,32.340023,32.186117,-105.042339
50400,-5.169354,4.367954,7.008166,-0.062999,-0.008300,-0.070429,0.002317,0.012509,-0.005334,-0.051688,0.043680,0.070085,1.000000,0.000012,0.000063,-0.000027,-0.500219,-0.374142,0.050307,0.779274,32.341410,32.194178,-105.040161
50401,-5.179068,4.357928,7.065937,-0.105242,-0.013581,-0.028491,-0.000234,0.006775,-0.003508,-0.051788,0.043580,0.070661,1.000000,-0.000001,0.000034,-0.000018,-0.500212,-0.374170,0.050271,0.779267,32.340760,32.199167,-105.039000
50402,-5.169447,4.325311,7.072017,-0.135384,-0.007612,-0.044037,0.002711,-0.002708,-0.005891,-0.051694,0.043254,0.070720,1.000000,0.000014,-0.000014,-0.000029,-0.500189,-0.374167,0.050268,0.779283,32.339266,32.200032,-105.042652
50403,-5.156127,4.363586,7.060367,-0.102076,-0.033829,-0.042132,-0.000419,-0.011570,-0.002732,-0.051565,0.043637,0.070601,1.000000,-0.000002,-0.000058,-0.000014,-0.500181,-0.374122,0.050280,0.779310,32.335197,32.195898,-105.047821
50404,-5.186084,4.369984,7.047120,-0.081811,-0.007525,-0.032739,0.007442,-0.018691,0.002030,-0.051868,0.043697,0.070468,1.000000,0.000037,-0.000093,0.000010,-0.500176,-0.374067,0.050350,0.779335,32.335744,32.186597,-105.052730
50405,-5.180450,4.329754,7.021410,-0.095824,0.017204,-0.072330,0.004646,-0.031042,-0.001294,-0.051815,0.043296,0.070207,1.000000,0.000023,-0.000155,-0.000006,-0.500160,-0.373958,0.050433,0.779392,32.331255,32.172590,-105.063983
50406,-5.177507,4.352098,6.944876,-0.030240,0.028641,-0.118519,0.007517,-0.032953,-0.001229,-0.051786,0.043519,0.069442,1.000000,0.000038,-0.000165,-0.000006,-0.500139,-0.373848,0.050533,0.779452,32.328108,32.157383,-105.075914
50407,-5.158560,4.350180,6.907509,-0.011024,0.027291,-0.156207,0.005719,-0.030607,-0.003154,-0.051595,0.043501,0.069068,1.000000,0.000029,-0.000153,-0.000016,-0.500114,-0.373745,0.050615,0.779512,32.323754,32.144153,-105.088096
50408,-5.170907,4.354199,6.856250,0.028374,0.052383,-0.184503,0.003920,-0.028262,-0.005081,-0.051718,0.043542,0.068556,1.000000,0.000020,-0.000141,-0.000025,-0.500085,-0.373645,0.050682,0.779574,32.318285,32.132395,-105.100527
50409,-5.136339,4.327574,6.858014,0.001227,0.038288,-0.213690,-0.000424,-0.024955,-0.004359,-0.051371,0.043277,0.068574,1.000000,-0.000002,-0.000125,-0.000022,-0.500067,-0.373549,0.050724,0.779629,32.311139,32.122270,-105.111419
50410,-5.161109,4.383834,6.813886,0.077901,0.044894,-0.206648,-0.003618,-0.022091,-0.007127,-0.051617,0.043841,0.068132,1.000000,-0.000018,-0.000110,-0.000036,-0.500047,-0.373455,0.050742,0.779686,32.301923,32.114124,-105.122783
50411,-5.102307,4.342104,6.796475,0.046709,0.023210,-0.269273,-0.009765,-0.016443,-0.008335,-0.051027,0.043426,0.067958,1.000000,-0.000049,-0.000082,-0.000042,-0.500034,-0.373369,0.050719,0.779737,32.289860,32.109338,-105.132790
50412,-5.111937,4.373544,6.791178,0.077022,0.017069,-0.253730,-0.008283,-0.004447,-0.007480,-0.051119,0.043740,0.067909,1.000000,-0.000041,-0.000022,-0.000037,-0.500025,-0.373332,0.050674,0.779763,32.281255,32.109844,-105.137976
50413,-5.070967,4.333657,6.811973,0.026694,-0.003401,-0.278667,-0.015828,-0.004973,-0.010345,-0.050709,0.043345,0.068115,1.000000,-0.000079,-0.000025,-0.000052,-0.500017,-0.373276,0.050595,0.779800,32.267317,32.111226,-105.145040
50414,-5.037979,4.374957,6.886123,0.004574,-0.073556,-0.224427,-0.012544,0.004680,-0.007562,-0.050377,0.043756,0.068860,1.000000,-0.000063,0.000023,-0.000038,-0.500018,-0.373264,0.050511,0.779810,32.257997,32.116177,-105.146977
50415,-5.044586,4.434495,6.926568,0.025805,-0.110980,-0.165047,-0.017216,0.008936,-0.009548,-0.050441,0.044353,0.069264,1.000000,-0.000086,0.000045,-0.000048,-0.500021,-0.373259,0.050393,0.779819,32.246176,32.124047,-105.148529
50416,-5.020343,4.487592,6.980893,0.026871,-0.174760,-0.115062,-0.019676,0.009026,-0.008518,-0.050198,0.044885,0.069807,1.000000,-0.000098,0.000045,-0.000043,-0.500032,-0.373247,0.050269,0.779825,32.233312,32.131395,-105.149448
50417,-5.968567,5.070025,7.428823,0.386239,0.179353,0.973183,0.031583,-0.021943,-0.026106,-0.059687,0.050696,0.074290,1.000000,0.000158,-0.000110,-0.000131,-0.499871,-0.373247,0.050387,0.779921,32.238489,32.129349,-105.171607
50418,-7.507881,5.968414,8.919231,0.468896,0.565358,3.264135,-0.134606,-0.305783,-0.027339,-0.075207,0.059754,0.089037,0.999999,-0.000673,-0.001529,-0.000137,-0.499944,-0.371724,0.050566,0.780589,32.093910,31.989751,-105.296613
50419,-7.032442,5.938348,9.127313,0.273216,0.169854,3.145808,-0.419811,-0.734165,-0.024240,-0.070651,0.059583,0.090889,0.999991,-0.002099,-0.003671,-0.000121,-0.500445,-0.367813,0.050706,0.782111,31.707412,31.640623,-105.571369
50420,-6.727457,4.067255,9.326624,-1.202787,0.855177,2.295454,-0.693450,-1.084052,0.021307,-0.067783,0.040988,0.092758,0.999979,-0.003467,-0.005420,0.000107,-0.501524,-0.361825,0.050736,0.784208,31.118306,31.104557,-105.937638
50421,-4.581095,2.754485,7.909347,-1.706795,0.220622,-0.422889,-0.314573,-1.265556,0.012586,-0.046312,0.027666,0.078758,0.999979,-0.001573,-0.006328,0.000063,-0.501816,-0.356064,0.052687,0.786526,30.718905,30.479456,-106.363553
50422,-6.222066,3.486508,8.615345,-1.108086,1.128742,1.259366,-0.024405,-1.353651,0.011688,-0.062804,0.034872,0.085725,0.999977,-0.000122,-0.006768,0.000058,-0.501543,-0.350668,0.055997,0.788893,30.478243,29.808843,-106.812741
50423,-7.988422,5.503662,9.593925,0.351192,1.500323,3.743507,0.191219,-1.769543,0.012251,-0.080733,0.054940,0.095280,0.999960,0.000956,-0.008848,0.000061,-0.500744,-0.344150,0.061197,0.791878,30.301568,28.931398,-107.393887
50424,-7.134338,6.523616,10.165666,0.698502,0.352265,4.193651,-0.280513,-2.319997,0.035077,-0.072527,0.065365,0.100728,0.999932,-0.001403,-0.011600,0.000175,-0.500628,-0.334227,0.065941,0.795811,29.790288,27.771071,-108.129717
50425,-4.499708,3.849510,9.158324,-1.250601,-0.100066,1.020618,-0.479447,-2.597978,0.061284,-0.046193,0.038700,0.090896,0.999913,-0.002397,-0.012990,0.000306,-0.500777,-0.322642,0.070620,0.800086,29.155188,26.458656,-108.917601
50426,-4.893676,2.543586,9.289794,-2.036017,1.072970,0.742625,-0.045560,-2.693916,0.195498,-0.050207,0.025408,0.092222,0.999909,-0.000228,-0.013469,0.000977,-0.500641,-0.311652,0.077483,0.803883,28.814637,25.054588,-109.638617
50427,-5.650789,3.825604,9.585669,-0.875513,1.329068,1.845288,0.624725,-3.014114,0.522123,-0.058044,0.037808,0.095108,0.999878,0.003123,-0.015070,0.002611,-0.500542,-0.300861,0.088329,0.806931,28.914166,23.398524,-110.265041
50428,-4.245628,6.791446,9.103232,1.293256,-0.886604,2.210097,0.732923,-3.254486,0.859821,-0.044223,0.067394,0.090570,0.999852,0.003664,-0.016272,0.004299,-0.501403,-0.289141,0.100701,0.809230,29.137274,21.529405,-110.777302
50429,-1.867069,7.020130,7.924454,1.448181,-2.572261,0.523742,0.245914,-3.223257,1.127173,-0.020340,0.069993,0.079012,0.999853,0.001230,-0.016115,0.005636,-0.503916,-0.276106,0.111377,0.810820,29.151146,19.602682,-111.134997
50430,-1.709121,5.019326,7.691840,0.113163,-1.451370,-0.584900,0.216838,-2.986448,1.409421,-0.018590,0.049983,0.076703,0.999863,0.001084,-0.014932,0.007047,-0.507603,-0.263723,0.121701,0.811158,29.230731,17.715433,-111.271141
50431,-2.106545,4.666032,7.423733,0.202213,-0.623354,-0.819146,0.703477,-2.864840,1.746276,-0.022532,0.046207,0.074085,0.999853,0.003517,-0.014323,0.008731,-0.511945,-0.252788,0.134097,0.809956,29.652130,15.794838,-111.203254
50432,-1.118254,7.128077,7.493000,1.740863,-2.269979,0.187860,0.818206,-2.711475,2.016604,-0.012915,0.070849,0.075053,0.999849,0.004091,-0.013557,0.010083,-0.517187,-0.242511,0.146870,0.807549,30.180058,13.872427,-110.968189
50433,0.456706,6.250670,6.867052,0.915888,-3.001238,-1.061593,0.510906,-2.420672,2.212982,0.003044,0.062370,0.068873,0.999862,0.002554,-0.012103,0.011064,-0.523659,-0.232400,0.157843,0.804274,30.562104,12.035309,-110.564677
50434,0.080063,4.762889,6.550120,0.117994,-1.794189,-1.916036,0.742700,-2.071683,2.370471,-0.000442,0.047385,0.065677,0.999869,0.003713,-0.010358,0.011852,-0.530630,-0.224112,0.168978,0.799783,31.096950,10.320376,-109.995368
50435,-0.969280,6.482428,7.540062,1.277114,-1.158885,0.027585,1.092571,-1.846199,2.547200,-0.011211,0.064275,0.075654,0.999861,0.005463,-0.009231,0.012735,-0.537963,-0.217444,0.181065,0.794059,31.837794,8.656686,-109.292559
50436,-2.413671,8.989586,8.196899,3.327225,-0.290345,2.131242,1.012232,-1.849733,2.773377,-0.026136,0.089127,0.082186,0.999848,0.005061,-0.009248,0.013866,-0.546122,-0.210278,0.193037,0.787573,32.523506,6.913734,-108.504275
50437,-0.905211,8.107881,8.070978,2.260624,-1.018461,1.391636,0.401433,-1.916374,2.957720,-0.011022,0.080763,0.080773,0.999843,0.002007,-0.009581,0.014788,-0.555416,-0.200940,0.202921,0.780999,32.840231,5.074857,-107.665619
50438,1.381073,2.185636,5.448397,-1.617778,-1.381976,-4.169983,0.482691,-1.735947,2.937783,0.013015,0.021920,0.054652,0.999852,0.002413,-0.008679,0.014688,-0.564564,-0.192490,0.212537,0.773978,33.179623,3.324125,-106.793059
50439,2.558013,3.743811,5.291803,-0.610049,-2.789512,-3.456087,1.054595,-1.311104,2.653836,0.024734,0.037490,0.053280,0.999877,0.005273,-0.006555,0.013269,-0.572361,-0.187549,0.222839,0.766532,33.821711,1.858727,-105.938249
50440,-0.324711,5.811627,7.024544,0.873656,-0.106028,-0.732738,1.020048,-1.083965,2.403250,-0.004324,0.057709,0.070519,0.999900,0.005100,-0.005420,0.012016,-0.579355,-0.183615,0.232072,0.759457,34.421897,0.572505,-105.145965
50441,-0.550328,6.219488,7.450739,0.993126,0.317045,-0.147967,0.811514,-1.161879,2.206030,-0.006620,0.061823,0.074722,0.999914,0.004057,-0.005809,0.011030,-0.585594,-0.178977,0.240517,0.753126,34.885373,-0.693653,-104.484124
50442,0.710161,4.645296,6.843781,-0.250198,-0.476927,-1.528497,0.536539,-1.195207,1.923481,0.006246,0.046332,0.068601,0.999932,0.002683,-0.005976,0.009617,-0.590885,-0.173720,0.247732,0.747867,35.180214,-1.886691,-103.974100
50443,0.305033,4.019266,6.845794,-0.656234,0.190419,-1.897911,0.616744,-1.176144,1.518418,0.002343,0.040001,0.068597,0.999949,0.003084,-0.005881,0.007592,-0.594545,-0.169253,0.254812,0.743599,35.519306,-2.939517,-103.653470
50444,0.721782,4.879303,6.822688,-0.067400,-0.211844,-1.396841,0.569482,-1.183902,1.161197,0.006531,0.048638,0.068406,0.999962,0.002847,-0.005919,0.005806,-0.596855,-0.165056,0.261411,0.740395,35.835837,-3.878221,-103.507773
50445,0.896457,4.368670,6.493309,-0.341722,-0.235647,-1.946398,0.441407,-1.161302,0.843164,0.008403,0.043579,0.065079,0.999972,0.002207,-0.005806,0.004216,-0.598082,-0.160965,0.267192,0.738239,36.087864,-4.700330,-103.506854
50446,1.437618,4.451850,6.092434,-0.190686,-0.745459,-2.170007,0.513418,-1.030894,0.588915,0.013931,0.044403,0.061111,0.999979,0.002567,-0.005154,0.002945,-0.598458,-0.157903,0.272629,0.736606,36.387667,-5.375872,-103.583540
50447,0.799546,5.590110,6.278123,0.737133,-0.147068,-1.402119,0.572270,-0.908551,0.465785,0.007580,0.055739,0.062976,0.999983,0.002861,-0.004543,0.002329,-0.598478,-0.155629,0.277811,0.735136,36.724156,-5.952874,-103.679052
50448,1.380275,6.081423,6.096703,1.063805,-0.721448,-1.186811,0.569007,-0.757945,0.511550,0.013416,0.060675,0.061191,0.999986,0.002845,-0.003790,0.002558,-0.598859,-0.153830,0.282555,0.733394,37.051864,-6.475818,-103.704834
50449,1.716798,6.224876,5.558424,1.373009,-1.102740,-1.476579,0.615816,-0.543376,0.648231,0.016815,0.062132,0.055822,0.999986,0.003079,-0.002717,0.003241,-0.599991,-0.152762,0.286928,0.730990,37.391229,-6.948312,-103.596029
50450,2.020903,6.138018,5.254482,1.381010,-1.384539,-1.716741,0.564919,-0.233362,0.709578,0.019930,0.061302,0.052741,0.999989,0.002825,-0.001167,0.003548,-0.601817,-0.152581,0.290222,0.728222,37.683611,-7.301728,-103.352610
50451,1.708429,5.853121,5.521975,1.052704,-0.933776,-1.707774,0.538657,0.053629,0.675830,0.016902,0.058440,0.055373,0.999991,0.002693,0.000268,0.003379,-0.603944,-0.153413,0.292529,0.725357,37.949295,-7.514864,-103.024503
50452,0.328400,6.452807,6.813900,1.057055,0.690163,-0.507751,0.530761,0.201165,0.656553,0.003141,0.064357,0.068307,0.999991,0.002654,0.001006,0.003283,-0.606212,-0.154781,0.294337,0.722437,38.203315,-7.655817,-102.653427
50453,0.373925,6.717891,7.158904,1.020205,0.743073,-0.069658,0.409993,0.193136,0.681515,0.003580,0.067044,0.071723,0.999992,0.002050,0.000966,0.003408,-0.608640,-0.155716,0.295753,0.719611,38.386643,-7.810944,-102.274311
50454,0.598690,5.271478,6.907560,-0.039522,0.618613,-1.124939,0.336934,0.228860,0.624277,0.005902,0.052617,0.069158,0.999993,0.001685,0.001144,0.003121,-0.610963,-0.156637,0.296743,0.717030,38.528511,-7.930415,-101.908594
50455,0.268898,5.354481,7.163222,-0.084568,1.010086,-0.922976,0.417350,0.270889,0.511384,0.002649,0.053402,0.071740,0.999994,0.002087,0.001354,0.002557,-0.612872,-0.158122,0.297805,0.714631,38.721436,-7.991998,-101.578996
50456,0.031231,5.566491,7.268586,0.032660,1.263638,-0.745098,0.391560,0.255502,0.439285,0.000283,0.055523,0.072794,0.999995,0.001958,0.001278,0.002196,-0.614515,-0.159578,0.298757,0.712496,38.904065,-8.035383,-101.287648
50457,0.411991,5.266762,7.154880,-0.241569,0.897599,-0.967537,0.421518,0.284246,0.399575,0.004117,0.052525,0.071654,0.999995,0.002108,0.001421,0.001998,-0.616028,-0.161287,0.299697,0.710407,39.105285,-8.052784,-101.003815
50458,0.074682,5.353255,7.271984,-0.219118,1.253013,-0.872527,0.481385,0.292477,0.351164,0.000759,0.053359,0.072847,0.999994,0.002407,0.001462,0.001756,-0.617327,-0.163278,0.300778,0.708364,39.342870,-8.049900,-100.738735
50459,0.577893,5.220704,6.924189,-0.245525,0.695804,-1.153036,0.458261,0.304380,0.282274,0.005811,0.052056,0.069352,0.999995,0.002291,0.001522,0.001411,-0.618412,-0.165345,0.301684,0.706551,39.571466,-8.017830,-100.500058
50460,0.433319,5.271809,6.935918,-0.228202,0.833448,-1.132837,0.514549,0.377330,0.229842,0.004404,0.052544,0.069486,0.999994,0.002573,0.001887,0.001149,-0.619369,-0.167918,0.302514,0.704748,39.831542,-7.935325,-100.257657
50461,0.562965,5.718942,6.672794,0.209294,0.621128,-1.030910,0.534222,0.415990,0.236437,0.005701,0.057018,0.066869,0.999994,0.002671,0.002080,0.001182,-0.620384,-0.170679,0.303298,0.702853,40.101304,-7.839427,-99.997637
50462,1.334788,5.464930,6.190743,0.136460,-0.234265,-1.452139,0.514999,0.577927,0.266049,0.013454,0.054508,0.062009,0.999992,0.002575,0.002890,0.001330,-0.621756,-0.173900,0.303530,0.700748,40.350176,-7.684765,-99.663714
50463,-0.064081,6.222064,7.200133,0.270645,1.293923,-0.388663,0.634574,0.713745,0.340917,-0.000489,0.061991,0.072200,0.999987,0.003173,0.003569,0.001705,-0.623478,-0.177853,0.303820,0.698095,40.657836,-7.500439,-99.245272
50464,-0.317216,7.239745,7.596686,0.776541,1.570937,0.538787,0.522103,0.637865,0.464798,-0.003097,0.072192,0.076165,0.999989,0.002611,0.003189,0.002324,-0.625603,-0.180996,0.304054,0.695278,40.898220,-7.397344,-98.800519
50465,0.381252,5.330517,7.207353,-0.578057,0.859981,-0.900230,0.328222,0.647386,0.458847,0.003924,0.053196,0.072148,0.999991,0.001641,0.003237,0.002294,-0.627884,-0.183574,0.303576,0.692751,41.028654,-7.289254,-98.354525
50466,0.716851,4.445860,6.890600,-1.126823,0.470184,-1.672113,0.402656,0.694483,0.313744,0.007338,0.044331,0.068970,0.999991,0.002013,0.003472,0.001569,-0.629655,-0.186763,0.303066,0.690511,41.208024,-7.107426,-97.953628
50467,1.441561,4.653859,6.337090,-0.746040,-0.384540,-1.863440,0.434235,0.839930,0.184588,0.014639,0.046414,0.063411,0.999988,0.002171,0.004200,0.000923,-0.631157,-0.190748,0.302082,0.688479,41.407566,-6.815365,-97.552912
50468,2.797655,4.032953,4.909019,-0.490271,-2.005744,-3.184989,0.382516,1.174953,0.082959,0.028248,0.040247,0.049002,0.999981,0.001913,0.005875,0.000415,-0.632845,-0.195867,0.299754,0.686506,41.570016,-6.342297,-97.067492
50469,4.693571,2.406385,3.098534,-0.760496,-4.204317,-5.434816,0.349074,1.804304,-0.179510,0.047234,0.023968,0.030602,0.999957,0.001745,0.009021,-0.000898,-0.634569,-0.203425,0.295047,0.684753,41.705958,-5.501071,-96.453560
50470,4.917592,1.415896,2.436130,-1.059889,-4.581808,-6.649774,0.520443,2.655990,-0.599369,0.049536,0.013949,0.023742,0.999904,0.002602,0.013280,-0.002997,-0.635850,-0.215031,0.287755,0.683120,41.939028,-4.137743,-95.691401
50471,3.530067,2.993319,3.110596,-0.168630,-3.279856,-5.306174,0.847393,3.416806,-0.968123,0.035971,0.029630,0.030621,0.999833,0.004237,0.017083,-0.004840,-0.636448,-0.230748,0.278692,0.681190,42.372909,-2.314228,-94.786628
50472,-0.301238,6.506123,6.931398,0.116840,0.505732,-0.316151,1.244182,3.927016,-1.072118,-0.001298,0.064638,0.069754,0.999774,0.006220,0.019634,-0.005360,-0.636695,-0.249520,0.269124,0.678182,43.060747,-0.244091,-93.710742
50473,-7.818268,10.283502,9.834687,1.114460,7.634042,4.471896,1.444902,3.376526,-0.406065,-0.076291,0.102271,0.100386,0.999829,0.007224,0.016882,-0.002030,-0.637956,-0.266068,0.262718,0.673200,43.898830,1.319626,-92.547643
50474,-3.118469,13.526247,9.827217,2.933162,2.476462,6.755696,0.987915,2.830052,0.102208,-0.029853,0.134758,0.099367,0.999888,0.004939,0.014150,0.000511,-0.640638,-0.278578,0.257113,0.667735,44.502319,2.441534,-91.373931
50475,-7.208250,11.246660,11.105958,0.297557,6.425313,6.324497,0.271917,2.288272,0.565662,-0.071122,0.112113,0.112030,0.999930,0.001360,0.011441,0.002828,-0.645049,-0.286341,0.251455,0.662337,44.713704,3.147506,-90.220378
50476,-4.248268,8.135026,9.563427,-0.965430,3.518491,2.929873,0.005513,1.400641,0.687945,-0.042091,0.081202,0.095932,0.999970,0.000028,0.007003,0.003440,-0.649067,-0.290120,0.247924,0.658085,44.764424,3.440339,-89.373471
50477,-1.178853,4.958335,7.868606,-2.027243,0.578877,-0.677885,-0.133517,1.067173,0.455101,-0.011481,0.049610,0.078715,0.999983,-0.000668,0.005336,0.002275,-0.652074,-0.292630,0.244669,0.655213,44.725647,3.691561,-88.755921
50478,-0.540177,2.214536,6.745630,-3.181982,0.028812,-3.442972,0.161599,0.977173,0.054290,-0.005078,0.022089,0.067499,0.999988,0.000808,0.004886,0.000271,-0.653209,-0.296284,0.242079,0.653400,44.845423,4.067258,-88.337820
50479,1.084711,1.927347,5.195356,-2.267416,-1.536928,-4.875157,0.654335,1.081983,-0.392406,0.011166,0.019082,0.051956,0.999978,0.003272,0.005410,-0.001962,-0.652258,-0.302424,0.240087,0.652271,45.240877,4.664903,-88.056485
50480,2.996095,2.709148,3.967479,-0.807567,-3.439400,-5.388398,0.958217,1.600714,-0.828053,0.030389,0.026777,0.039562,0.999948,0.004791,0.008003,-0.004140,-0.650002,-0.311745,0.236718,0.651366,45.817931,5.646189,-87.732403
50481,2.849083,4.801714,3.986321,0.607055,-3.498527,-3.942948,1.028444,2.362297,-1.219795,0.029252,0.047636,0.039766,0.999898,0.005142,0.011811,-0.006099,-0.647162,-0.324190,0.230456,0.650363,46.461171,7.088281,-87.237031
50482,1.825721,4.817273,3.845105,0.643311,-2.631549,-3.983277,0.874951,3.070549,-1.465901,0.019198,0.047866,0.038371,0.999846,0.004375,0.015352,-0.007329,-0.644421,-0.338642,0.220945,0.649020,47.060753,8.905572,-86.523173
50483,-0.877879,5.540145,4.895589,0.168426,-0.401229,-2.380687,1.088723,3.592567,-1.615887,-0.007448,0.055197,0.049399,0.999791,0.005443,0.017962,-0.008079,-0.641175,-0.355518,0.210114,0.646803,47.839874,10.979683,-85.618602
50484,-3.416286,6.826607,6.014782,-0.067859,1.442328,-0.202626,1.166458,3.731997,-1.629172,-0.032472,0.068180,0.061162,0.999776,0.005832,0.018659,-0.008145,-0.637616,-0.372954,0.198971,0.644020,48.715258,13.099694,-84.621324
50485,-5.342072,7.315558,6.474108,-0.400069,2.771185,0.962892,1.190550,3.558290,-1.621289,-0.051659,0.073188,0.066106,0.999791,0.005952,0.017790,-0.008106,-0.633589,-0.389739,0.188388,0.641232,49.631990,15.135612,-83.656088
50486,-5.943560,7.690452,6.989180,-0.756582,2.764865,1.809877,1.173977,3.215424,-1.603499,-0.057680,0.076956,0.071280,0.999821,0.005870,0.016076,-0.008017,-0.629082,-0.405204,0.178800,0.638824,50.541210,17.022569,-82.798311
50487,-6.414394,7.144914,7.088365,-1.400561,2.871752,1.685868,1.207499,2.789506,-1.564915,-0.062584,0.071510,0.072195,0.999854,0.006037,0.013947,-0.007824,-0.624046,-0.419250,0.170678,0.636919,51.450936,18.725537,-82.085504
50488,-6.210075,7.390028,6.925616,-1.235949,2.332559,1.770131,1.309024,2.357901,-1.616744,-0.060677,0.073936,0.070461,0.999876,0.006545,0.011789,-0.008083,-0.618095,-0.432168,0.164071,0.635823,52.374410,20.288139,-81.562947
50489,-6.283607,8.731589,7.037467,-0.589271,1.774011,2.905199,1.145505,1.963971,-1.758464,-0.061369,0.087452,0.071483,0.999897,0.005727,0.009820,-0.008792,-0.611582,-0.443348,0.157816,0.636006,53.139985,21.771663,-81.255744
50490,-6.206974,8.744429,7.015319,-0.632339,1.375963,2.911485,0.755649,1.588545,-1.804724,-0.060717,0.087729,0.070970,0.999921,0.003778,0.007943,-0.009023,-0.605380,-0.452096,0.151340,0.637354,53.619141,23.144637,-81.131980
50491,-5.476832,8.286912,6.688574,-0.596746,0.633418,2.130592,0.427645,1.347011,-1.854145,-0.053545,0.083226,0.067427,0.999932,0.002138,0.006735,-0.009271,-0.599488,-0.459055,0.144414,0.639553,53.860764,24.458277,-81.137804
50492,-5.108107,7.140393,6.072842,-0.788813,0.546731,0.818945,0.110782,1.205287,-1.874688,-0.050042,0.071842,0.061072,0.999938,0.000554,0.006026,-0.009373,-0.594079,-0.464563,0.136835,0.642283,53.888120,25.733133,-81.220363
50493,-4.607890,5.562708,5.477802,-1.241388,0.514081,-0.847533,0.140270,1.196882,-1.934689,-0.045209,0.056029,0.055090,0.999935,0.000701,0.005984,-0.009673,-0.588325,-0.470116,0.129217,0.645110,53.918634,27.033443,-81.330091
50494,-4.567480,6.385379,5.244306,-0.509950,0.130506,-0.386325,0.256746,1.280933,-2.057510,-0.044678,0.064249,0.052814,0.999926,0.001284,0.006405,-0.010287,-0.581876,-0.476295,0.121423,0.647935,54.012443,28.418620,-81.442284
50495,-5.431138,7.607628,5.684679,-0.146942,0.105884,1.125793,0.078588,1.296896,-2.014515,-0.053171,0.076593,0.057224,0.999928,0.000393,0.006484,-0.010072,-0.575913,-0.481913,0.113087,0.650611,54.013822,29.789825,-81.529672
50496,-5.718042,7.928105,5.861852,-0.063474,-0.075633,1.584540,-0.173144,1.272187,-1.884539,-0.056056,0.079864,0.058909,0.999935,-0.000866,0.006361,-0.009422,-0.570889,-0.486585,0.104304,0.653025,53.886825,31.091899,-81.582341
50497,-6.098645,7.797803,6.025989,-0.248484,-0.024231,1.773693,-0.430480,1.204736,-1.739671,-0.059941,0.078632,0.060454,0.999942,-0.002152,0.006024,-0.008698,-0.566856,-0.490168,0.095210,0.655244,53.619223,32.304521,-81.620022
50498,-6.544073,7.224948,6.204422,-0.718136,0.241430,1.717317,-0.628721,1.039159,-1.638896,-0.064522,0.072976,0.062152,0.999948,-0.003144,0.005196,-0.008194,-0.563499,-0.492543,0.086175,0.657604,53.205592,33.413519,-81.716386
50499,-6.231704,6.196944,6.107746,-1.176748,0.187108,0.822967,-0.736339,0.856364,-1.683395,-0.061530,0.062715,0.061112,0.999949,-0.003682,0.004282,-0.008417,-0.560123,-0.493983,0.077180,0.660520,52.655078,34.479522,-81.944592
50500,-6.107407,5.473396,5.832410,-1.327812,0.290331,0.158496,-0.674368,0.743060,-1.831363,-0.060351,0.055486,0.058363,0.999945,-0.003372,0.003715,-0.009157,-0.556003,-0.495227,0.068336,0.664034,52.055155,35.570541,-82.314694
50501,-6.006650,5.918773,5.891087,-0.946157,-0.164668,0.428905,-0.621288,0.665892,-1.982777,-0.059278,0.059961,0.058924,0.999940,-0.003106,0.003329,-0.009914,-0.551157,-0.496357,0.059496,0.668068,51.403239,36.699450,-82.814418
50502,-5.554338,6.582059,5.661961,-0.154639,-0.868452,0.456133,-0.816024,0.735614,-2.170599,-0.054615,0.066648,0.056551,0.999926,-0.004080,0.003678,-0.010853,-0.546117,-0.497173,0.049344,0.672414,50.588105,37.931335,-83.385915
50503,-6.380338,6.383209,5.818543,-0.320296,-0.430142,0.911826,-1.083279,0.739750,-2.298246,-0.062847,0.064873,0.058070,0.999912,-0.005416,0.003699,-0.011491,-0.541222,-0.497224,0.037953,0.677057,49.551646,39.213820,-84.050643
50504,-7.088823,5.081846,5.794398,-1.084983,0.447254,0.592499,-1.172724,0.666049,-2.303691,-0.070101,0.051968,0.057876,0.999911,-0.005863,0.003330,-0.011518,-0.536424,-0.496696,0.026442,0.681793,48.396510,40.460276,-84.803129
50505,-6.883872,5.095704,5.795076,-0.871161,0.071993,0.490974,-1.238715,0.621988,-2.509651,-0.068009,0.052172,0.057842,0.999897,-0.006193,0.003110,-0.012548,-0.530977,-0.495774,0.014304,0.687072,47.071893,41.764791,-85.736152
50506,-7.629239,5.012866,6.023212,-0.907619,0.318769,1.081251,-1.422946,0.473188,-2.793608,-0.075436,0.051614,0.060048,0.999874,-0.007114,0.002366,-0.013967,-0.524881,-0.493758,0.001224,0.693326,45.423011,43.108731,-86.969692
50507,-7.921932,4.019250,6.162283,-1.480366,0.670885,0.875297,-1.451401,0.332716,-2.975470,-0.078503,0.041810,0.061454,0.999862,-0.007257,0.001664,-0.014877,-0.518083,-0.491050,-0.012038,0.700224,43.552965,44.440207,-88.468563
50508,-7.695817,4.245747,6.258050,-1.117144,0.130546,0.917692,-1.223190,0.173662,-2.893969,-0.076275,0.043946,0.062381,0.999876,-0.006116,0.000868,-0.014469,-0.510887,-0.488254,-0.023882,0.707130,41.697322,45.636650,-90.098841
50509,-8.265417,3.692779,5.822245,-1.011716,0.834017,0.870348,-0.841048,0.016127,-2.407840,-0.082195,0.038164,0.058070,0.999919,-0.004205,0.000081,-0.012039,-0.504387,-0.485833,-0.032787,0.713081,40.137422,46.548056,-91.593070
50510,-7.003013,7.063107,5.539221,1.875661,-1.696967,1.287291,-0.781193,-0.050407,-2.164140,-0.069273,0.071599,0.055096,0.999934,-0.003906,-0.000252,-0.010820,-0.498550,-0.483296,-0.040708,0.718482,38.644592,47.312970,-93.022275
50511,-7.614227,4.961697,5.730788,0.395150,-0.502137,0.912119,-1.513559,-0.011495,-2.253675,-0.075577,0.050902,0.056922,0.999908,-0.007568,-0.000057,-0.011268,-0.494071,-0.478977,-0.051571,0.723751,36.647874,48.097236,-94.547286
50512,-9.999264,1.170264,6.569996,-2.661965,2.397657,1.662357,-1.179312,-0.350244,-2.320489,-0.099960,0.013249,0.065450,0.999914,-0.005896,-0.001751,-0.011602,-0.488552,-0.474156,-0.060535,0.729951,34.622729,48.709158,-96.350154
50513,-9.620327,4.159333,6.990442,-0.370059,0.253455,2.777289,-0.816050,-0.873568,-2.428714,-0.095990,0.043043,0.069311,0.999908,-0.004080,-0.004368,-0.012143,-0.481846,-0.468194,-0.067145,0.737639,32.508056,49.062338,-98.534323
50514,-8.804660,4.427420,6.589668,0.314434,-0.297920,2.034303,-1.069716,-1.184124,-2.491616,-0.087870,0.045719,0.065134,0.999891,-0.005348,-0.005920,-0.012458,-0.475512,-0.460361,-0.074071,0.745969,30.076602,49.224489,-100.937043
50515,-8.000878,3.115071,6.176025,-0.245973,0.040540,0.760455,-1.108423,-1.333257,-2.460015,-0.080023,0.032475,0.061049,0.999887,-0.005542,-0.006666,-0.012300,-0.469330,-0.451789,-0.080704,0.754389,27.580597,49.235709,-103.392096
50516,-7.676132,2.515872,6.135704,-0.455312,0.131058,0.319866,-1.008790,-1.407520,-2.325976,-0.076888,0.026360,0.060685,0.999895,-0.005044,-0.007037,-0.011629,-0.463361,-0.443126,-0.086460,0.762536,25.205456,49.106139,-105.765541
50517,-6.763958,2.301888,5.611659,-0.233022,-0.071238,-0.730972,-0.639404,-1.396633,-2.042662,-0.067788,0.023889,0.055568,0.999918,-0.003197,-0.006983,-0.010213,-0.457558,-0.435399,-0.090195,0.770021,23.232943,48.857228,-107.892205
50518,-5.848360,3.908237,5.326010,1.189227,-1.422444,-1.186896,-0.517288,-1.220676,-1.774601,-0.058456,0.039738,0.052801,0.999939,-0.002586,-0.006103,-0.008873,-0.452380,-0.428689,-0.093260,0.776454,21.561210,48.598443,-109.720584
50519,-5.711713,3.608675,5.336693,1.062032,-1.369899,-1.379396,-0.558622,-0.953107,-1.483751,-0.057100,0.036659,0.052993,0.999957,-0.002793,-0.004765,-0.007419,-0.448245,-0.423014,-0.096463,0.781556,20.122116,48.391269,-111.212795
50520,-6.014707,3.559225,5.603430,1.063645,-1.319563,-1.016690,-0.443158,-0.765872,-1.150440,-0.060154,0.036062,0.055724,0.999974,-0.002216,-0.003829,-0.005752,-0.445050,-0.418462,-0.098918,0.785516,19.005752,48.198997,-112.366496
50521,-6.585469,3.889263,5.998636,1.346179,-1.388240,-0.287031,-0.419061,-0.634742,-0.900596,-0.065868,0.039315,0.059695,0.999983,-0.002095,-0.003174,-0.004503,-0.442699,-0.414582,-0.101047,0.788624,18.089847,48.019005,-113.272396
50522,-7.441878,3.238790,6.534491,0.866387,-0.775614,0.541909,-0.476242,-0.637271,-0.794634,-0.074496,0.032839,0.065030,0.999984,-0.002381,-0.003186,-0.003973,-0.440873,-0.410608,-0.103169,0.791447,17.213405,47.809628,-114.084188
50523,-8.073735,2.349547,7.130876,0.130446,-0.181359,1.210181,-0.450586,-0.786579,-0.845730,-0.080916,0.023997,0.070937,0.999981,-0.002253,-0.003933,-0.004229,-0.438853,-0.406057,-0.104965,0.794675,16.302045,47.518421,-114.965959
50524,-8.471801,1.636025,7.458464,-0.353069,0.325664,1.582220,-0.353294,-1.045335,-0.979883,-0.085024,0.016908,0.074111,0.999973,-0.001766,-0.005227,-0.004899,-0.436218,-0.400603,-0.106070,0.798736,15.336500,47.095728,-116.002699
50525,-8.011097,1.030021,7.357500,-0.750001,0.492214,1.076034,-0.159414,-1.311521,-1.105756,-0.080532,0.010803,0.073039,0.999963,-0.000797,-0.006558,-0.005529,-0.432805,-0.394415,-0.106070,0.803658,14.386056,46.532510,-117.179019
50526,-7.314879,1.092465,7.120197,-0.634902,0.204655,0.431869,0.087972,-1.485753,-1.184414,-0.073609,0.011329,0.070661,0.999955,0.000440,-0.007429,-0.005922,-0.428646,-0.387990,-0.104841,0.809157,13.534824,45.870603,-118.426636
50527,-6.475741,1.493561,6.669760,-0.221590,-0.264784,-0.403608,0.269037,-1.542131,-1.182648,-0.065180,0.015231,0.066216,0.999952,0.001345,-0.007711,-0.005913,-0.424130,-0.381688,-0.102749,0.814782,12.810672,45.165274,-119.655622
50528,-6.147860,1.982092,6.310603,0.344346,-0.531251,-0.804541,0.441433,-1.458212,-1.100735,-0.061827,0.020022,0.062700,0.999956,0.002207,-0.007291,-0.005504,-0.419539,-0.376102,-0.099964,0.820086,12.270680,44.487175,-120.778799
50529,-6.697139,2.525326,6.730136,0.833607,-0.677241,-0.046981,0.471186,-1.424627,-0.971966,-0.067326,0.025422,0.066882,0.999960,0.002356,-0.007123,-0.004860,-0.415367,-0.370747,-0.096880,0.825004,11.845098,43.805825,-121.775380
50530,-7.161226,3.080949,6.896652,1.440225,-0.758730,0.467784,0.433553,-1.452416,-0.837261,-0.071982,0.030961,0.068512,0.999963,0.002168,-0.007262,-0.004186,-0.411802,-0.365237,-0.093633,0.829610,11.488392,43.088390,-122.653690
50531,-7.538362,3.571670,7.256925,1.878836,-0.936518,1.042628,0.199263,-1.537171,-0.769687,-0.075801,0.035936,0.072023,0.999963,0.000996,-0.007686,-0.003848,-0.408954,-0.358897,-0.091055,0.834062,11.043394,42.311333,-123.476187
50532,-7.199602,2.569074,7.386492,1.054603,-0.476447,0.753927,0.000231,-1.598492,-0.698670,-0.072493,0.025943,0.073287,0.999962,0.000001,-0.007992,-0.003493,-0.406757,-0.351900,-0.089046,0.838323,10.536130,41.487143,-124.234288
50533,-7.178975,2.356580,7.370854,1.033161,-0.256674,0.688982,0.075649,-1.676014,-0.600288,-0.072333,0.023755,0.073113,0.999960,0.000378,-0.008380,-0.003001,-0.404842,-0.344748,-0.086384,0.842490,10.133714,40.604712,-124.911111
50534,-7.083410,2.642353,7.456765,1.296458,-0.444930,0.717218,0.021577,-1.705987,-0.536129,-0.071396,0.026606,0.073963,0.999960,0.000108,-0.008530,-0.002681,-0.403272,-0.337361,-0.083770,0.846488,9.747725,39.695513,-125.527178
50535,-8.974693,2.529592,8.243074,1.821362,0.602115,2.483984,0.016456,-1.876228,-0.479188,-0.090454,0.025505,0.081586,0.999953,0.000082,-0.009381,-0.002396,-0.401988,-0.329237,-0.080733,0.850583,9.389694,38.681709,-126.106713
50536,-9.034415,2.983376,8.914163,2.060649,0.215199,3.059133,-0.195797,-2.300291,-0.509487,-0.091285,0.030152,0.088066,0.999930,-0.000979,-0.011501,-0.002547,-0.401049,-0.318833,-0.077785,0.855252,8.887219,37.427389,-126.738041
50537,-7.459428,0.827008,8.107842,0.352329,1.127611,1.171918,-0.226960,-2.578597,-0.515829,-0.075609,0.008555,0.080098,0.999913,-0.001135,-0.012893,-0.002579,-0.400177,-0.307125,-0.074411,0.860230,8.372876,36.011741,-127.378743
50538,-5.389443,1.010077,7.452145,-0.012183,0.081545,-0.561252,-0.017810,-2.682022,-0.568231,-0.054858,0.010262,0.073789,0.999906,-0.000089,-0.013410,-0.002841,-0.398725,-0.295315,-0.069997,0.865395,7.979268,34.537537,-128.040681
50539,-4.567701,0.659729,7.436778,-0.505637,-0.059061,-1.075311,0.080205,-2.506206,-0.526424,-0.046587,0.006689,0.073790,0.999918,0.000401,-0.012531,-0.002632,-0.397178,-0.284424,-0.065436,0.870098,7.692518,33.156868,-128.635801
50540,-8.061022,1.975353,9.000142,1.776288,0.986020,2.259969,0.275437,-2.673508,-0.422021,-0.081762,0.019802,0.088941,0.999907,0.001377,-0.013367,-0.002110,-0.395793,-0.273177,-0.059533,0.874745,7.568141,31.671303,-129.160158
50541,-5.603231,1.997681,8.618294,0.859092,-0.325588,0.618546,-0.067524,-2.920350,-0.447909,-0.057238,0.020133,0.085346,0.999891,-0.000338,-0.014601,-0.002239,-0.394756,-0.260110,-0.054666,0.879501,7.247446,30.045925,-129.707543
50542,-4.703730,-0.610640,7.782135,-0.966362,1.291722,-0.843222,0.022887,-2.885473,-0.464346,-0.048167,-0.006004,0.077131,0.999893,0.000114,-0.014427,-0.002322,-0.393435,-0.247314,-0.049478,0.884079,6.997091,28.438989,-130.244569
50543,-3.843133,1.068205,7.860881,-0.094982,-0.285460,-1.003095,0.207532,-2.802241,-0.554247,-0.039498,0.010709,0.078071,0.999897,0.001038,-0.014011,-0.002771,-0.391386,-0.235175,-0.043741,0.888592,6.848235,26.884234,-130.818633
50544,-3.636074,0.526791,7.734682,-0.390196,0.143507,-1.260096,0.161642,-2.653882,-0.572357,-0.037368,0.005312,0.076860,0.999908,0.000808,-0.013269,-0.002862,-0.389201,-0.223555,-0.038509,0.892784,6.692037,25.413510,-131.380672
50545,-4.331329,0.312979,8.202599,-0.138911,0.811066,-0.568265,0.319697,-2.534022,-0.509424,-0.044340,0.003111,0.081474,0.999915,0.001598,-0.012670,-0.002547,-0.387029,-0.212751,-0.032729,0.896590,6.663006,24.006228,-131.885297
50546,-7.100835,1.345094,9.667932,1.945070,1.843967,1.956260,0.504697,-2.717452,-0.444322,-0.072284,0.013368,0.095737,0.999902,0.002523,-0.013587,-0.002222,-0.384911,-0.201454,-0.025688,0.900333,6.764428,22.490264,-132.358163
50547,-5.072895,1.682868,9.169613,1.302711,0.544760,0.706174,0.341252,-3.014044,-0.433059,-0.052067,0.016785,0.090947,0.999883,0.001706,-0.015070,-0.002165,-0.382963,-0.188467,-0.018797,0.904138,6.780176,20.805581,-132.842012
50548,-2.663879,0.208953,7.544934,-0.549695,0.425185,-1.839085,0.478238,-2.943740,-0.312521,-0.027742,0.001953,0.075051,0.999888,0.002391,-0.014718,-0.001563,-0.381338,-0.176027,-0.011301,0.907452,6.915483,19.152908,-133.244749
50549,-1.901228,1.994763,7.350194,0.390243,-1.160164,-2.059144,0.568366,-2.698243,-0.206937,-0.019982,0.019759,0.073293,0.999904,0.002842,-0.013491,-0.001035,-0.380018,-0.164843,-0.003772,0.910164,7.137941,17.634019,-133.567726
50550,-2.651668,1.522635,7.939060,0.496114,-0.217277,-1.322599,0.502029,-2.440678,-0.070855,-0.027478,0.015037,0.079097,0.999922,0.002510,-0.012203,-0.000354,-0.379302,-0.154677,0.003081,0.912247,7.358588,16.252496,-133.793865
50551,-4.563258,1.685427,9.139531,1.663247,1.049360,0.352049,0.666144,-2.476203,0.139032,-0.046771,0.016519,0.090876,0.999918,0.003331,-0.012381,0.000695,-0.379355,-0.144635,0.010910,0.913811,7.709359,14.836498,-133.904612
50552,-3.104918,1.648710,9.073008,0.808994,0.289377,-0.120720,0.737652,-2.596991,0.389454,-0.032256,0.016091,0.090376,0.999907,0.003688,-0.012985,0.001947,-0.380428,-0.134136,0.019476,0.914824,8.135018,13.332563,-133.887794
50553,-4.972033,0.311488,9.775391,1.076084,2.776911,0.746528,1.328155,-2.780245,0.814300,-0.051083,0.002263,0.097067,0.999873,0.006640,-0.013901,0.004071,-0.382947,-0.123854,0.031370,0.914892,8.944814,11.689034,-133.657109
50554,-2.376823,2.730370,8.793990,1.331486,-0.391289,-0.405167,1.881234,-3.045929,1.368587,-0.025289,0.026308,0.087813,0.999816,0.009406,-0.015229,0.006843,-0.387498,-0.113287,0.046638,0.913694,10.113851,9.838697,-133.163651
50555,-1.264316,2.853890,8.005428,0.925529,-0.929119,-1.321487,2.007627,-2.915205,1.864313,-0.014071,0.027608,0.080136,0.999800,0.010037,-0.014575,0.009321,-0.394123,-0.103407,0.062490,0.911081,11.378948,7.999686,-132.416242
50556,-2.219535,2.412096,8.427697,1.197530,0.436381,-0.860895,2.161569,-2.850081,2.154521,-0.023647,0.022961,0.084199,0.999782,0.010807,-0.014249,0.010772,-0.401847,-0.093990,0.079042,0.907435,12.724010,6.145511,-131.542932
50557,-0.024414,2.013883,8.195519,-0.442450,-0.601231,-1.406939,2.152176,-2.768635,2.329405,-0.001608,0.019242,0.082150,0.999778,0.010760,-0.013842,0.011646,-0.410224,-0.084817,0.095432,0.903003,14.041269,4.294534,-130.607385
50558,0.478977,2.782265,7.528241,-0.017047,-1.234870,-1.868389,2.123493,-2.587869,2.213582,0.003510,0.027064,0.075623,0.999799,0.010617,-0.012938,0.011067,-0.418004,-0.076417,0.111236,0.898365,15.307817,2.539400,-129.754167
50559,1.881588,2.404500,7.516951,-1.135900,-1.827990,-1.990233,1.215080,-2.106578,1.609098,0.017830,0.023733,0.075506,0.999894,0.006075,-0.010533,0.008045,-0.423554,-0.068596,0.121686,0.895036,16.020996,1.129407,-129.191584
50560,0.561058,-2.306321,7.587612,-3.782193,2.263494,-3.196406,1.588650,-1.872794,1.288938,0.005052,-0.023631,0.075739,0.999904,0.007943,-0.009364,0.006444,-0.427601,-0.062789,0.133181,0.891895,16.933765,-0.108500,-128.787285
50561,0.805037,1.999241,8.723631,-1.002307,-0.090955,-0.883625,2.213171,-1.752199,1.324470,0.007156,0.019074,0.087516,0.999878,0.011065,-0.008761,0.006622,-0.431597,-0.058822,0.147183,0.888032,18.195514,-1.293652,-128.366266
50562,1.851759,3.476553,7.576821,-0.309504,-1.765650,-1.463722,2.223104,-1.591993,1.551250,0.017646,0.034059,0.076292,0.999876,0.011115,-0.007960,0.007756,-0.436610,-0.055402,0.160916,0.883407,19.450350,-2.443269,-127.818537
50563,2.503615,3.337229,6.015289,-0.461325,-2.357687,-2.897902,2.300515,-1.192880,1.779169,0.024381,0.032895,0.060680,0.999876,0.011502,-0.005964,0.008895,-0.442821,-0.053720,0.174141,0.877895,20.730184,-3.434439,-127.094510
50564,3.215040,4.333171,5.990153,-0.144597,-3.297121,-2.457431,2.366393,-0.648281,1.978881,0.031529,0.042932,0.060514,0.999876,0.011831,-0.003241,0.009894,-0.450255,-0.054384,0.186463,0.871518,22.023583,-4.193123,-126.171562
50565,2.683271,5.020016,6.438615,0.552551,-2.928961,-1.752352,2.293395,-0.202756,2.185652,0.026222,0.049746,0.064985,0.999874,0.011466,-0.001014,0.010928,-0.458913,-0.056620,0.197472,0.864406,23.249337,-4.781674,-125.056537
50566,2.097474,5.030982,6.699367,0.783794,-2.203034,-1.498786,2.310057,0.123371,2.407070,0.020415,0.049780,0.067558,0.999861,0.011550,0.000617,0.012035,-0.468724,-0.060069,0.207816,0.856447,24.458326,-5.274317,-123.761126
50567,1.195820,6.241074,7.583998,1.895753,-1.562616,-0.228469,2.334746,0.297613,2.636742,0.011255,0.061671,0.076546,0.999844,0.011673,0.001488,0.013183,-0.479553,-0.064067,0.217866,0.847619,25.655982,-5.759192,-122.313128
50568,0.050674,7.349695,8.552225,2.980991,-0.543445,1.048820,2.058332,0.291649,2.791355,-0.000385,0.072610,0.086273,0.999849,0.010291,0.001458,0.013956,-0.490973,-0.067187,0.226740,0.838463,26.674639,-6.314049,-120.795070
50569,2.230236,4.997973,7.269653,0.379293,-1.623702,-0.867324,1.694665,0.406926,2.732609,0.021771,0.049661,0.073074,0.999869,0.008473,0.002035,0.013662,-0.502260,-0.069948,0.233725,0.829587,27.472192,-6.818559,-119.284392
50570,0.920226,4.248465,7.910658,0.137002,0.134129,-0.788485,1.728662,0.571710,2.574480,0.008887,0.041915,0.079445,0.999876,0.008643,0.002858,0.012872,-0.512943,-0.073642,0.240320,0.820800,28.282141,-7.218317,-117.815795
50571,1.364544,5.074259,8.176583,0.422293,-0.347766,-0.108784,1.553770,0.613101,2.408801,0.013289,0.050267,0.082116,0.999893,0.007769,0.003065,0.012044,-0.522942,-0.077242,0.245978,0.812441,28.992619,-7.571055,-116.423998
50572,1.507215,3.652124,8.088701,-0.831176,0.058655,-0.849329,1.387122,0.700136,2.207359,0.014956,0.036125,0.081086,0.999909,0.006935,0.003501,0.011036,-0.532190,-0.080990,0.250602,0.804620,29.610442,-7.839802,-115.112360
50573,0.622354,4.166793,9.026253,-0.498332,1.053084,0.079944,1.356209,0.712491,1.951263,0.006143,0.041115,0.090521,0.999923,0.006781,0.003562,0.009756,-0.540347,-0.085014,0.254925,0.797377,30.223171,-8.043194,-113.927814
50574,1.009998,3.651581,8.855179,-1.101167,0.851771,-0.282242,1.238161,0.582606,1.713459,0.010048,0.036053,0.088747,0.999940,0.006191,0.002913,0.008567,-0.547366,-0.088491,0.258990,0.790875,30.786044,-8.253542,-112.901582
50575,1.868528,3.811386,7.930880,-0.990690,-0.216910,-0.874692,1.328571,0.576897,1.536530,0.018624,0.037729,0.079507,0.999944,0.006643,0.002884,0.007683,-0.553575,-0.092414,0.263322,0.784650,31.410893,-8.424843,-111.966554
50576,1.930843,5.110533,7.631202,0.106333,-0.639859,-0.450025,1.348194,0.675282,1.465821,0.019194,0.050731,0.076590,0.999945,0.006741,0.003376,0.007329,-0.559566,-0.096858,0.267395,0.778463,32.045320,-8.537051,-111.038009
50577,1.602553,6.347855,7.559628,1.195750,-0.582528,0.098996,1.173375,0.749000,1.466472,0.015846,0.063150,0.075908,0.999949,0.005867,0.003745,0.007332,-0.565682,-0.101090,0.270555,0.772389,32.574994,-8.623133,-110.087275
50578,2.210250,5.688613,7.058232,0.626087,-1.106242,-0.568870,0.984776,0.892149,1.452237,0.022006,0.056698,0.070764,0.999952,0.004924,0.004461,0.007261,-0.571977,-0.105349,0.272545,0.766461,32.989812,-8.643540,-109.099169
50579,0.597854,6.547561,8.416775,1.154065,0.671452,0.783862,0.810431,0.928558,1.381184,0.005919,0.065175,0.084405,0.999957,0.004052,0.004643,0.006906,-0.578088,-0.109338,0.273704,0.760884,33.308532,-8.630569,-108.134148
50580,0.713129,5.299033,8.368617,0.061278,0.805245,0.085276,0.617399,0.732575,1.284397,0.007099,0.052777,0.083823,0.999968,0.003087,0.003663,0.006422,-0.583625,-0.112146,0.274619,0.755903,33.532358,-8.685200,-107.278394
50581,1.638379,4.588458,7.820736,-0.565361,-0.091626,-0.616274,0.619019,0.722082,1.111208,0.016412,0.045733,0.078290,0.999973,0.003095,0.003610,0.005556,-0.588458,-0.115153,0.275460,0.751384,33.770224,-8.693295,-106.509734
50582,0.786745,5.091848,8.347063,-0.213773,0.787833,-0.037576,0.536495,0.658449,0.921866,0.007908,0.050731,0.083581,0.999980,0.002682,0.003292,0.004609,-0.592513,-0.117931,0.276053,0.747540,33.977328,-8.674106,-105.852790
50583,1.706839,4.008263,7.719280,-1.072760,-0.104610,-1.014681,0.496334,0.623094,0.743035,0.017160,0.039955,0.077239,0.999985,0.002482,0.003115,0.003715,-0.595853,-0.120702,0.276489,0.744274,34.176865,-8.616621,-105.293177
50584,1.869100,4.207703,7.556869,-0.902909,-0.346015,-1.016697,0.552352,0.693753,0.573389,0.018833,0.041922,0.075619,0.999986,0.002762,0.003469,0.002867,-0.598609,-0.124133,0.276810,0.741374,34.417717,-8.473015,-104.791621
50585,1.750182,4.467162,7.666927,-0.758382,-0.261163,-0.803976,0.571017,0.750805,0.463969,0.017686,0.044493,0.076730,0.999986,0.002855,0.003754,0.002320,-0.601009,-0.127980,0.276956,0.738718,34.675888,-8.269167,-104.323122
50586,1.911603,4.924021,7.435741,-0.350421,-0.558198,-0.715665,0.644723,0.803964,0.494129,0.019294,0.049048,0.074438,0.999984,0.003224,0.004020,0.002471,-0.603530,-0.132198,0.277223,0.735814,34.973049,-8.052359,-103.821978
50587,1.791001,5.969973,7.465673,0.461216,-0.578100,-0.115404,0.760048,0.908277,0.665963,0.018051,0.059476,0.074801,0.999977,0.003800,0.004541,0.003330,-0.606727,-0.136905,0.277704,0.732133,35.322213,-7.846280,-103.203842
50588,1.358927,6.751973,7.380414,1.183084,-0.273497,0.208868,0.725624,0.926471,0.860868,0.013642,0.067310,0.073985,0.999973,0.003628,0.004632,0.004304,-0.610657,-0.141296,0.278122,0.727861,35.639897,-7.699977,-102.486884
50589,1.865723,6.016314,7.047646,0.614384,-0.769603,-0.411814,0.637696,1.018579,0.967488,0.018726,0.060029,0.070573,0.999970,0.003188,0.005093,0.004837,-0.615130,-0.145599,0.278001,0.723278,35.898547,-7.550281,-101.688309
50590,1.115199,6.108325,7.573568,0.506156,0.057403,-0.032375,0.643005,1.097373,0.954301,0.011277,0.060893,0.075870,0.999968,0.003215,0.005487,0.004771,-0.619624,-0.150211,0.277627,0.718628,36.159505,-7.363076,-100.868752
50591,0.173061,6.058704,8.332944,0.166882,1.121471,0.428894,0.458283,0.997210,0.846007,0.001891,0.060404,0.083459,0.999976,0.002291,0.004986,0.004230,-0.623694,-0.154034,0.276806,0.714603,36.328241,-7.188693,-100.133474
50592,0.975337,4.958160,8.039506,-0.734159,0.326228,-0.351043,0.368285,0.891377,0.712512,0.009935,0.049469,0.080442,0.999982,0.001841,0.004457,0.003563,-0.627183,-0.157376,0.275876,0.711172,36.459355,-7.019475,-99.496324
50593,0.516934,5.009519,8.264086,-0.780838,0.781052,-0.198239,0.407275,0.856635,0.563911,0.005383,0.049942,0.082720,0.999985,0.002036,0.004283,0.002820,-0.630045,-0.160917,0.275070,0.708156,36.624917,-6.817323,-98.939827
50594,0.451632,5.359199,8.240111,-0.517257,0.786809,-0.017916,0.416442,0.770637,0.473786,0.004707,0.053431,0.082495,0.999988,0.002082,0.003853,0.002369,-0.632444,-0.164301,0.274485,0.705462,36.805593,-6.625339,-98.454296
50595,0.362134,5.553388,8.113671,-0.317635,0.813374,-0.012675,0.421703,0.699964,0.455586,0.003779,0.055371,0.081241,0.999989,0.002109,0.003500,0.002278,-0.634663,-0.167475,0.274123,0.702859,36.994759,-6.461115,-98.001176
50596,1.418063,5.349389,7.174864,-0.117495,-0.403214,-0.761223,0.472314,0.727224,0.472473,0.014316,0.053358,0.071823,0.999988,0.002362,0.003636,0.002362,-0.636922,-0.170877,0.273858,0.700095,37.211988,-6.291786,-97.530384
50597,1.512802,5.514516,6.843536,0.161738,-0.583588,-0.915186,0.527509,0.870491,0.490643,0.015291,0.055002,0.068514,0.999984,0.002638,0.004352,0.002453,-0.639376,-0.174927,0.273339,0.697055,37.456378,-6.065462,-97.000682
50598,1.750960,5.121457,6.224636,0.155867,-0.937521,-1.618919,0.479727,1.019827,0.410194,0.017722,0.051101,0.062279,0.999982,0.002399,0.005099,0.002051,-0.641773,-0.179448,0.272095,0.694183,37.673961,-5.745265,-96.454631
50599,2.885955,4.171499,5.566709,-0.350959,-2.182257,-2.613203,0.488115,1.297340,0.216762,0.029175,0.041611,0.055580,0.999975,0.002441,0.006487,0.001084,-0.643841,-0.185216,0.269806,0.691641,37.899545,-5.233737,-95.897840
50600,-1.440142,6.689812,9.196205,-0.176374,2.441115,1.385764,0.859880,1.459859,0.170653,-0.013785,0.066490,0.092351,0.999964,0.004299,0.007299,0.000853,-0.645586,-0.192792,0.268219,0.688555,38.339849,-4.635738,-95.301748
50601,-1.693103,9.071465,9.160289,1.628743,2.559252,2.831102,0.626201,0.922995,0.383329,-0.016681,0.090395,0.091964,0.999983,0.003131,0.004615,0.001917,-0.647534,-0.197472,0.267753,0.685575,38.658327,-4.358407,-94.798464
50602,1.006578,6.216014,7.244197,0.294735,-0.321548,-0.224150,0.265499,0.859327,0.454723,0.010236,0.062087,0.072481,0.999987,0.001327,0.004297,0.002274,-0.649978,-0.200662,0.266317,0.682890,38.771330,-4.136884,-94.285194
50603,0.122595,5.369330,7.360667,-0.399204,0.543418,-0.725926,0.352791,0.856318,0.348844,0.001448,0.053566,0.073695,0.999988,0.001764,0.004282,0.001744,-0.651952,-0.204264,0.265078,0.680418,38.940160,-3.879947,-93.819955
50604,1.155531,4.528135,6.927413,-0.881602,-0.564851,-1.522226,0.344700,0.883451,0.188120,0.011819,0.045173,0.069300,0.999988,0.001723,0.004417,0.000941,-0.653409,-0.208138,0.263550,0.678437,39.110370,-3.554280,-93.416017
50605,0.646542,5.073840,7.782567,-0.998953,-0.053305,-0.553704,0.518429,1.061724,0.053919,0.006865,0.050538,0.077921,0.999983,0.002592,0.005309,0.000270,-0.654445,-0.213357,0.261884,0.676460,39.382763,-3.102474,-93.005888
50606,-1.291190,6.609058,8.517955,-0.232942,1.851243,0.884051,0.545193,0.906392,0.071141,-0.012549,0.065853,0.085417,0.999986,0.002726,0.004532,0.000356,-0.655287,-0.218107,0.260824,0.674536,39.675572,-2.727568,-92.642813
50607,0.708097,6.121353,7.441785,-0.065110,-0.274776,-0.154921,0.306168,0.826283,0.068886,0.007368,0.061102,0.074481,0.999990,0.001531,0.004131,0.000344,-0.656261,-0.221803,0.259214,0.673003,39.835194,-2.388542,-92.308725
50608,1.214211,4.429545,6.582693,-0.859132,-0.882503,-1.881121,0.280897,0.943467,-0.040211,0.012462,0.044201,0.065831,0.999988,0.001404,0.004717,-0.000201,-0.657035,-0.225946,0.257006,0.671716,39.982518,-1.958820,-91.978715
50609,2.644753,3.469633,5.313000,-0.843849,-2.436716,-3.440023,0.362211,1.187803,-0.261138,0.026808,0.034565,0.053034,0.999980,0.001811,0.005939,-0.001306,-0.657267,-0.231454,0.254012,0.670752,40.179783,-1.341510,-91.654213
50610,3.903986,3.662739,5.196893,-0.668746,-3.793704,-3.423354,0.589138,1.771574,-0.553637,0.039600,0.036366,0.051727,0.999953,0.002946,0.008858,-0.002768,-0.656952,-0.240020,0.249504,0.669740,40.510056,-0.362244,-91.238179
50611,-3.191170,7.268263,9.106160,-0.397458,3.171430,1.836850,1.058722,1.935414,-0.394395,-0.030883,0.072260,0.091747,0.999937,0.005293,0.009677,-0.001972,-0.656740,-0.250451,0.246196,0.667349,41.116966,0.624718,-90.683762
50612,-1.827018,10.403392,8.832017,1.988786,1.586988,3.718624,0.767304,1.472215,-0.071247,-0.017580,0.103700,0.088850,0.999965,0.003836,0.007361,-0.000356,-0.657337,-0.257959,0.243815,0.664771,41.564293,1.285268,-90.156528
50613,-0.222214,8.030064,7.822416,0.809167,-0.084400,1.370274,0.142761,1.422671,0.052645,-0.001686,0.080244,0.078295,0.999974,0.000714,0.007113,0.000263,-0.659051,-0.263083,0.239667,0.662570,41.660738,1.874848,-89.591769
50614,-3.076473,6.172880,9.129658,-1.500964,2.654466,1.215438,0.225100,1.184700,0.070473,-0.030245,0.061615,0.091546,0.999982,0.001125,0.005923,0.000352,-0.660401,-0.267657,0.236588,0.660497,41.806432,2.354782,-89.108821
50615,-0.868194,6.355344,8.116429,-0.697149,0.402345,0.501005,0.299327,0.767543,-0.014559,-0.008366,0.063432,0.081292,0.999992,0.001497,0.003838,-0.000073,-0.660860,-0.271193,0.235012,0.659157,41.989670,2.687958,-88.820400
50616,0.205210,5.589765,7.040812,-0.548303,-0.669216,-0.862169,0.151235,0.762922,-0.187530,0.002373,0.055842,0.070442,0.999992,0.000756,0.003815,-0.000938,-0.660934,-0.274422,0.232724,0.658558,42.085987,3.084824,-88.606579
50617,0.916861,4.327695,6.076180,-0.831169,-1.370285,-2.469623,0.129522,0.881493,-0.412277,0.009526,0.043218,0.060748,0.999988,0.000648,0.004407,-0.002061,-0.660422,-0.278226,0.229661,0.658551,42.168814,3.618109,-88.442042
50618,2.404787,3.710677,4.756176,-0.369612,-2.830661,-3.979728,0.254912,1.210251,-0.665913,0.024459,0.036965,0.047462,0.999975,0.001275,0.006051,-0.003330,-0.659254,-0.283807,0.225562,0.658756,42.326676,4.388198,-88.257165
50619,3.256189,3.704787,3.994984,0.160492,-3.711580,-4.666310,0.372051,1.827126,-0.951806,0.033101,0.036817,0.039718,0.999945,0.001860,0.009135,-0.004759,-0.657622,-0.292105,0.219394,0.658843,42.565238,5.528834,-87.951254
50620,2.373567,3.513611,3.945206,0.019577,-2.939723,-4.822741,0.539396,2.497381,-1.226838,0.024441,0.034882,0.039244,0.999900,0.002697,0.012486,-0.006134,-0.655472,-0.303419,0.211137,0.658571,42.923454,7.057027,-87.492891
50621,0.397298,4.855196,4.609916,0.446905,-1.299340,-3.248371,0.856361,3.025394,-1.407840,0.005012,0.048321,0.046236,0.999852,0.004282,0.015126,-0.007039,-0.652640,-0.317623,0.201868,0.657591,43.496990,8.872530,-86.887473
50622,-1.651631,6.931301,5.524009,1.165954,0.195587,-0.875138,0.938420,3.326082,-1.450624,-0.015089,0.069165,0.055824,0.999824,0.004692,0.016629,-0.007253,-0.649629,-0.333025,0.191752,0.655978,44.158748,10.823179,-86.155998
50623,-4.301643,8.068371,6.894027,0.772423,2.116561,1.414095,0.828712,3.354581,-1.324188,-0.041314,0.080672,0.069977,0.999829,0.004143,0.016772,-0.006621,-0.647019,-0.347926,0.181331,0.653784,44.800631,12.725913,-85.332655
50624,-5.826917,8.150546,7.545903,0.135289,3.082727,2.344206,0.745059,3.063694,-1.123880,-0.056643,0.081543,0.076639,0.999860,0.003725,0.015318,-0.005619,-0.644742,-0.361318,0.171867,0.651321,45.417154,14.421235,-84.520210
50625,-6.122165,8.180693,7.865460,-0.213852,2.937074,2.740689,0.652614,2.624617,-0.986435,-0.059777,0.081845,0.079712,0.999896,0.003263,0.013123,-0.004932,-0.642546,-0.372775,0.163725,0.649128,45.974805,15.876009,-83.813530
50626,-6.103622,7.635855,8.117758,-0.871444,2.611314,2.591857,0.513532,2.119875,-0.948414,-0.059808,0.076434,0.082012,0.999929,0.002568,0.010599,-0.004742,-0.640207,-0.382052,0.156793,0.647755,46.416318,17.109155,-83.290933
50627,-5.641049,6.278393,7.661691,-1.527254,2.230932,1.261037,0.449355,1.615356,-1.047073,-0.055459,0.062903,0.077209,0.999951,0.002247,0.008077,-0.005235,-0.637199,-0.389522,0.151062,0.647635,46.755717,18.181186,-83.017350
50628,-4.859831,5.828409,7.063039,-1.375064,1.538293,0.346781,0.546724,1.237000,-1.250863,-0.047795,0.058391,0.071087,0.999958,0.002734,0.006185,-0.006254,-0.632997,-0.396195,0.146440,0.648768,47.077601,19.188956,-82.986986
50629,-4.352141,5.502759,6.507756,-1.185649,1.112321,-0.382576,0.637508,1.050486,-1.411855,-0.042789,0.055123,0.065479,0.999956,0.003187,0.005252,-0.007059,-0.627902,-0.402634,0.142371,0.650658,47.403627,20.191826,-83.100232
50630,-3.815132,6.013551,6.127615,-0.531342,0.478724,-0.445102,0.804722,0.999400,-1.497885,-0.037393,0.060170,0.061706,0.999951,0.004024,0.004997,-0.007489,-0.622096,-0.409455,0.138820,0.652742,47.804991,21.211913,-83.266044
50631,-3.972420,6.873177,5.851223,0.205022,0.377224,0.039733,0.832627,1.042903,-1.457069,-0.038916,0.068772,0.059003,0.999951,0.004163,0.005214,-0.007285,-0.616336,-0.416438,0.135294,0.654527,48.235676,22.232564,-83.388283
50632,-4.184386,7.774147,5.754056,0.829101,0.234728,0.690164,0.767266,1.088300,-1.323964,-0.041014,0.077793,0.058064,0.999956,0.003836,0.005441,-0.006620,-0.611121,-0.423239,0.131680,0.655790,48.659176,23.214036,-83.427166
50633,-4.592131,8.303869,5.884229,1.013369,0.259811,1.303458,0.569389,1.106047,-1.134900,-0.045123,0.083128,0.059330,0.999965,0.002847,0.005530,-0.005674,-0.606907,-0.429336,0.127751,0.656517,49.006090,24.121073,-83.372922
50634,-4.993827,8.132600,6.065805,0.688128,0.427061,1.466202,0.372533,1.058068,-0.923887,-0.049240,0.081441,0.061071,0.999974,0.001863,0.005290,-0.004619,-0.603741,-0.434515,0.123768,0.656791,49.269907,24.918214,-83.248904
50635,-5.335593,7.908880,6.231294,0.354649,0.579197,1.562069,0.242163,0.945113,-0.750590,-0.052763,0.079212,0.062659,0.999981,0.001211,0.004726,-0.003753,-0.601329,-0.438805,0.120068,0.656839,49.469718,25.597611,-83.103366
50636,-5.484146,7.391790,6.439556,-0.180911,0.638405,1.400740,0.142096,0.778025,-0.624704,-0.054359,0.074042,0.064660,0.999987,0.000710,0.003890,-0.003124,-0.599432,-0.442155,0.116815,0.656914,49.602202,26.159402,-82.983839
50637,-5.187944,6.664798,6.416348,-0.637760,0.468254,0.764513,0.137735,0.593389,-0.557232,-0.051503,0.066748,0.064363,0.999991,0.000689,0.002967,-0.002786,-0.597644,-0.444837,0.114246,0.657183,49.706456,26.623284,-82.924524
50638,-5.072593,6.410710,6.465919,-0.841449,0.331441,0.570864,0.198718,0.444521,-0.573363,-0.050398,0.064188,0.064835,0.999993,0.000994,0.002223,-0.002867,-0.595574,-0.447214,0.112286,0.657787,49.810545,27.038757,-82.943726
50639,-4.866198,6.438670,6.385761,-0.747424,0.099565,0.451100,0.239287,0.303068,-0.646164,-0.048357,0.064467,0.064008,0.999993,0.001196,0.001515,-0.003231,-0.593085,-0.449282,0.110715,0.658892,49.892367,27.434188,-83.062163
50640,-4.764010,6.431709,6.243764,-0.640646,-0.002051,0.318278,0.247618,0.216553,-0.706154,-0.047345,0.064407,0.062569,0.999992,0.001238,0.001083,-0.003531,-0.590325,-0.451115,0.109293,0.660354,49.946829,27.823824,-83.248279
50641,-4.602842,6.651958,6.023567,-0.315756,-0.185646,0.266179,0.283295,0.167422,-0.709069,-0.045742,0.066597,0.060368,0.999992,0.001416,0.000837,-0.003545,-0.587437,-0.452886,0.108123,0.661907,50.008461,28.197117,-83.460276
50642,-4.421926,6.767073,5.799864,-0.062716,-0.352259,0.129989,0.303802,0.182844,-0.613782,-0.043958,0.067718,0.058142,0.999994,0.001519,0.000914,-0.003069,-0.584819,-0.454711,0.107193,0.663125,50.103248,28.534167,-83.624825
50643,-4.355238,6.874647,5.626680,0.128896,-0.431925,0.070882,0.356302,0.223007,-0.505654,-0.043316,0.068756,0.056438,0.999995,0.001782,0.001115,-0.002528,-0.582455,-0.456759,0.106561,0.663899,50.258784,28.838977,-83.723718
50644,-4.451769,7.378064,5.572869,0.480009,-0.531562,0.424388,0.305390,0.264651,-0.415899,-0.044290,0.073788,0.055900,0.999996,0.001527,0.001323,-0.002079,-0.580522,-0.458744,0.105846,0.664338,50.413444,29.119369,-83.763376
50645,-4.462083,7.407006,5.637669,0.435170,-0.608335,0.482825,0.185016,0.302311,-0.350801,-0.044406,0.074096,0.056512,0.999997,0.000925,0.001512,-0.001754,-0.579096,-0.460468,0.104768,0.664560,50.521856,29.385059,-83.756153
50646,-4.660329,7.319589,5.859028,0.189755,-0.545539,0.641472,0.015508,0.330134,-0.315414,-0.046391,0.073265,0.058673,0.999997,0.000078,0.001651,-0.001577,-0.578191,-0.461772,0.103129,0.664700,50.547664,29.644970,-83.719566
50647,-4.862557,6.676224,5.985287,-0.348721,-0.267563,0.377833,-0.087607,0.301953,-0.329123,-0.048425,0.066868,0.059897,0.999997,-0.000438,0.001510,-0.001646,-0.577459,-0.462690,0.101195,0.664995,50.504556,29.900883,-83.703062
50648,-5.171986,6.259126,6.155862,-0.768617,0.017635,0.347504,-0.115146,0.209135,-0.395796,-0.051531,0.062729,0.061576,0.999997,-0.000576,0.001046,-0.001979,-0.576521,-0.463249,0.099284,0.665708,50.407830,30.152214,-83.762315
50649,-5.254417,6.067976,6.268997,-0.965171,0.062109,0.326048,-0.095420,0.077555,-0.500592,-0.052368,0.060841,0.062681,0.999997,-0.000477,0.000388,-0.002503,-0.575118,-0.463478,0.097573,0.667014,50.265472,30.401733,-83.933957
50650,-5.282808,6.141472,6.328033,-0.929323,-0.000193,0.424786,-0.099014,-0.065542,-0.635926,-0.052653,0.061614,0.063233,0.999995,-0.000495,-0.000328,-0.003180,-0.573198,-0.463280,0.095949,0.669036,50.053370,30.657612,-84.237644
50651,-5.138120,5.974002,6.131841,-0.846381,-0.028166,0.135731,-0.106480,-0.183831,-0.733506,-0.051218,0.059961,0.061239,0.999993,-0.000532,-0.000919,-0.003668,-0.570905,-0.462706,0.094409,0.671608,49.782268,30.911727,-84.645761
50652,-4.921694,6.015350,5.842432,-0.549462,-0.145517,-0.106080,-0.006309,-0.237184,-0.746019,-0.049061,0.060339,0.058364,0.999992,-0.000032,-0.001186,-0.003730,-0.568305,-0.462238,0.093330,0.674281,49.549203,31.149774,-85.088727
50653,-4.662812,6.177173,5.432821,-0.093268,-0.288969,-0.361628,0.111516,-0.217802,-0.628829,-0.046493,0.061888,0.054312,0.999994,0.000558,-0.001089,-0.003144,-0.565828,-0.462109,0.092861,0.676513,49.412581,31.342965,-85.472854
50654,-4.564746,6.717270,5.118162,0.518340,-0.459911,-0.238036,0.258462,-0.105073,-0.404902,-0.045538,0.067199,0.051245,0.999997,0.001292,-0.000525,-0.002025,-0.563818,-0.462670,0.093088,0.677777,49.439906,31.480201,-85.702449
50655,-4.518056,7.391946,5.046740,1.023224,-0.728244,0.134468,0.210734,0.022689,-0.208865,-0.045098,0.073913,0.050550,0.999999,0.001054,0.000113,-0.001044,-0.562638,-0.463435,0.093245,0.678212,49.518095,31.579959,-85.781431
50656,-4.843708,7.193098,5.126532,0.802137,-0.432589,0.219905,0.044347,0.125866,-0.120329,-0.048362,0.071949,0.051312,1.000000,0.000222,0.000629,-0.000602,-0.562193,-0.464041,0.092754,0.678235,49.549051,31.679392,-85.768753
50657,-5.166881,6.506797,5.198100,0.267179,0.035458,-0.015615,-0.093325,0.158337,-0.133526,-0.051584,0.065127,0.051991,0.999999,-0.000467,0.000792,-0.000668,-0.562036,-0.464375,0.091673,0.678283,49.506730,31.796760,-85.745291
50658,-5.349491,5.703358,5.208799,-0.285381,0.445889,-0.432037,-0.134874,0.155802,-0.237285,-0.053387,0.057132,0.052091,0.999999,-0.000674,0.000779,-0.001186,-0.561622,-0.464630,0.090218,0.678646,49.416006,31.958281,-85.768666
50659,-5.452784,5.625031,5.489316,-0.530547,0.417268,-0.270641,-0.147924,0.123094,-0.443453,-0.054369,0.056412,0.054885,0.999997,-0.000740,0.000615,-0.002217,-0.560521,-0.464829,0.088331,0.679668,49.260203,32.197281,-85.900209
50660,-5.415855,5.758464,5.575424,-0.464136,0.257679,-0.153780,-0.250105,0.072293,-0.749642,-0.053922,0.057857,0.055702,0.999992,-0.001251,0.000361,-0.003748,-0.558589,-0.464699,0.085527,0.681702,48.957826,32.549274,-86.195247
50661,-5.935483,5.686365,5.935033,-0.736373,0.511343,0.286050,-0.482719,-0.024125,-1.103321,-0.059047,0.057333,0.059205,0.999982,-0.002414,-0.000121,-0.005517,-0.555935,-0.463730,0.081374,0.685032,48.404901,33.015276,-86.703366
50662,-5.957972,4.922414,5.861293,-1.104392,0.763333,-0.206533,-0.646606,-0.159112,-1.463381,-0.059263,0.049848,0.058405,0.999968,-0.003233,-0.000796,-0.007317,-0.552346,-0.461966,0.076197,0.689706,47.620850,33.577716,-87.454689
50663,-6.161718,4.649500,5.904640,-1.204538,0.932445,-0.214418,-0.637329,-0.277228,-1.733314,-0.061292,0.047215,0.058812,0.999956,-0.003187,-0.001386,-0.008666,-0.547717,-0.459888,0.070747,0.695344,46.723018,34.198515,-88.407683
50664,-6.177522,4.168039,5.549458,-1.156329,1.193225,-0.671128,-0.432397,-0.379722,-1.747620,-0.061512,0.042338,0.055287,0.999958,-0.002162,-0.001899,-0.008738,-0.542485,-0.457981,0.066254,0.701123,45.891412,34.772460,-89.436890
50665,-5.456878,5.191274,5.157784,-0.051204,0.268950,-0.688350,-0.141697,-0.350260,-1.560793,-0.054251,0.052373,0.051446,0.999968,-0.000708,-0.001751,-0.007804,-0.537210,-0.456869,0.063119,0.706182,45.270084,35.271252,-90.375694
50666,-4.781434,6.870654,4.792384,1.455981,-0.916888,-0.321990,-0.141737,-0.180633,-1.338348,-0.047396,0.069059,0.047832,0.999977,-0.000709,-0.000903,-0.006692,-0.532745,-0.456261,0.060037,0.710214,44.749231,35.740634,-91.130760
50667,-4.821945,6.981839,4.680911,1.679011,-0.974921,-0.318607,-0.408666,0.062183,-1.115060,-0.047814,0.070181,0.046681,0.999982,-0.002043,0.000311,-0.005575,-0.529732,-0.455718,0.055864,0.713151,44.201272,36.214156,-91.662690
50668,-5.285140,6.271704,4.743091,1.216571,-0.405036,-0.425531,-0.618892,0.245827,-1.000558,-0.052478,0.063127,0.047301,0.999982,-0.003094,0.001229,-0.005003,-0.527641,-0.455225,0.050717,0.715398,43.613011,36.713441,-92.053987
50669,-5.966513,5.803303,5.161626,0.686468,0.087613,-0.043355,-0.704478,0.317251,-0.965330,-0.059302,0.058501,0.051505,0.999981,-0.003522,0.001586,-0.004827,-0.525867,-0.454736,0.045151,0.717385,42.999437,37.225529,-92.401035
50670,-6.586086,5.225420,5.489602,0.149752,0.609044,0.208417,-0.739522,0.275245,-1.015232,-0.065518,0.052790,0.054792,0.999979,-0.003698,0.001376,-0.005076,-0.523965,-0.453997,0.039457,0.719577,42.329080,37.735963,-92.804545
50671,-7.028134,5.023977,5.944405,-0.198821,0.764324,0.644160,-0.698334,0.138716,-1.110233,-0.069959,0.050836,0.059316,0.999978,-0.003492,0.000694,-0.005551,-0.521577,-0.452875,0.034049,0.722290,41.600424,38.220908,-93.336484
50672,-7.327686,4.652633,6.159017,-0.495258,0.989073,0.772695,-0.619381,-0.073555,-1.181796,-0.073022,0.047149,0.061418,0.999978,-0.003097,-0.000368,-0.005909,-0.518694,-0.451184,0.029319,0.725624,40.818759,38.635580,-94.021360
50673,-6.838630,4.810288,6.090183,-0.247624,0.486079,0.516733,-0.556451,-0.224261,-1.273458,-0.068146,0.048706,0.060690,0.999975,-0.002782,-0.001121,-0.006367,-0.515288,-0.449102,0.024997,0.729493,39.984980,39.011229,-94.840795
50674,-6.679432,4.784437,6.123405,-0.182757,0.287793,0.428597,-0.574054,-0.315179,-1.310071,-0.066574,0.048456,0.060991,0.999973,-0.002870,-0.001576,-0.006550,-0.511752,-0.446624,0.020764,0.733625,39.089981,39.350091,-95.735071
50675,-6.396074,4.477799,5.949413,-0.192989,0.222772,-0.001081,-0.580509,-0.374265,-1.307224,-0.063777,0.045367,0.059244,0.999973,-0.002903,-0.001871,-0.006536,-0.508205,-0.443889,0.016661,0.737843,38.163808,39.650749,-96.666252
50676,-6.149560,4.262590,5.769627,-0.138532,0.153384,-0.366454,-0.567021,-0.368609,-1.281345,-0.061326,0.043182,0.057461,0.999974,-0.002835,-0.001843,-0.006407,-0.504699,-0.441183,0.012653,0.741941,37.246944,39.932988,-97.589482
50677,-6.160840,4.053582,5.750365,-0.174239,0.215523,-0.465157,-0.460313,-0.354764,-1.209171,-0.061463,0.041040,0.057300,0.999978,-0.002302,-0.001774,-0.006046,-0.501199,-0.438771,0.009161,0.745785,36.413557,40.186248,-98.472624
50678,-6.008332,4.106575,5.658081,-0.000819,0.062075,-0.594591,-0.321212,-0.337967,-1.105813,-0.059950,0.041488,0.056413,0.999982,-0.001606,-0.001690,-0.005529,-0.497762,-0.436748,0.006376,0.749295,35.697980,40.402946,-99.292806
50679,-5.916434,4.661782,5.793648,0.382539,-0.392373,-0.325752,-0.206650,-0.265386,-0.975680,-0.059013,0.046966,0.057810,0.999987,-0.001033,-0.001327,-0.004878,-0.494548,-0.435264,0.004119,0.752297,35.114212,40.603564,-100.007350
50680,-5.552230,5.381753,5.595721,1.057489,-0.998878,-0.379444,-0.228411,-0.143948,-0.896460,-0.055320,0.054130,0.055856,0.999989,-0.001142,-0.000720,-0.004482,-0.491671,-0.434171,0.001656,0.754820,34.579414,40.829707,-100.624874
50681,-5.953838,5.477586,5.832542,1.088039,-0.907650,0.059615,-0.432597,-0.000661,-0.813780,-0.059315,0.055143,0.058206,0.999989,-0.002163,-0.000003,-0.004069,-0.489538,-0.433107,-0.001753,0.756814,33.996123,41.092691,-101.134681
50682,-6.342318,4.809052,6.004671,0.600035,-0.404578,0.131342,-0.498511,0.031940,-0.711489,-0.063242,0.048465,0.059936,0.999991,-0.002493,0.000160,-0.003557,-0.487927,-0.431997,-0.005267,0.758471,33.421801,41.334509,-101.571175
50683,-6.760077,4.043275,6.211959,0.019150,0.163823,0.217641,-0.441188,0.005955,-0.585283,-0.067480,0.040767,0.062032,0.999993,-0.002206,0.000030,-0.002926,-0.486662,-0.430925,-0.008229,0.759866,32.922247,41.521444,-101.942355
50684,-6.737336,4.212846,6.353028,0.103000,-0.040678,0.360229,-0.292405,-0.074591,-0.468792,-0.067298,0.042379,0.063443,0.999996,-0.001462,-0.000373,-0.002344,-0.485518,-0.429909,-0.010178,0.761149,32.533191,41.631074,-102.274502
50685,-6.369339,4.488425,6.346697,0.303554,-0.481572,0.220789,-0.359785,-0.099692,-0.461230,-0.063621,0.045145,0.063354,0.999996,-0.001799,-0.000498,-0.002306,-0.484544,-0.428631,-0.012307,0.762458,32.100326,41.724685,-102.613711
50686,-5.973095,4.224386,6.252750,0.160510,-0.625329,-0.210455,-0.568333,-0.040057,-0.605049,-0.059615,0.042602,0.062395,0.999991,-0.002842,-0.000200,-0.003025,-0.483460,-0.427060,-0.015682,0.763964,31.499811,41.888235,-103.024411
50687,-6.652500,2.815350,6.451437,-0.838572,0.481872,-0.175945,-0.645594,-0.042711,-0.757930,-0.066431,0.028613,0.064408,0.999988,-0.003228,-0.000214,-0.003790,-0.481946,-0.425272,-0.019673,0.765823,30.783295,42.092445,-103.540798
50688,-6.918483,1.961628,6.548134,-1.420060,1.039067,-0.247409,-0.424546,-0.147395,-0.856979,-0.069148,0.020051,0.065388,0.999988,-0.002123,-0.000737,-0.004285,-0.479582,-0.423594,-0.022775,0.768147,30.117132,42.268874,-104.168987
50689,-6.994373,2.695154,6.646137,-0.840787,0.615218,0.150762,-0.160582,-0.259596,-0.906738,-0.069907,0.027322,0.066349,0.999989,-0.000803,-0.001298,-0.004534,-0.476468,-0.422104,-0.024700,0.770841,29.546300,42.398912,-104.878160
50690,-6.961273,3.659420,6.615381,-0.030561,0.046139,0.464005,-0.107221,-0.357531,-0.895715,-0.069566,0.036941,0.066010,0.999988,-0.000536,-0.001788,-0.004479,-0.473287,-0.420355,-0.026161,0.773703,28.983411,42.471490,-105.619687
50691,-6.385911,4.256118,6.308210,0.566914,-0.589585,0.087737,-0.214177,-0.369411,-0.876118,-0.063788,0.042908,0.062918,0.999988,-0.001071,-0.001847,-0.004381,-0.470395,-0.418299,-0.027968,0.776513,28.363158,42.527295,-106.354270
50692,-6.397733,3.882793,6.244641,0.399394,-0.379783,-0.081382,-0.334742,-0.327598,-0.810417,-0.063921,0.039191,0.062276,0.999989,-0.001674,-0.001638,-0.004052,-0.467995,-0.416122,-0.030201,0.779045,27.713518,42.580306,-107.029640
50693,-5.991977,3.799632,5.919824,0.520021,-0.512175,-0.601167,-0.382047,-0.226187,-0.751526,-0.059843,0.038334,0.059058,0.999990,-0.001910,-0.001131,-0.003758,-0.465897,-0.414230,-0.032734,0.781206,27.087078,42.664037,-107.629661
50694,-6.206971,3.773328,6.010412,0.557745,-0.428219,-0.410850,-0.465602,-0.100210,-0.750554,-0.061957,0.038106,0.059985,0.999990,-0.002328,-0.000501,-0.003753,-0.463947,-0.412626,-0.035882,0.783074,26.441072,42.806852,-108.186872
50695,-6.505290,3.335785,6.052280,0.336074,-0.041566,-0.327907,-0.515500,-0.023896,-0.762590,-0.064932,0.033761,0.060428,0.999989,-0.002577,-0.000119,-0.003813,-0.462029,-0.411196,-0.039429,0.784788,25.774773,42.987447,-108.730066
50696,-6.835787,2.893322,6.281285,0.005292,0.283877,-0.092985,-0.467143,-0.014573,-0.758656,-0.068252,0.029339,0.062740,0.999990,-0.002336,-0.000073,-0.003793,-0.460017,-0.409906,-0.042797,0.786467,25.136183,43.167176,-109.271560
50697,-7.025887,2.982460,6.373423,0.127090,0.271012,0.126555,-0.382040,-0.065146,-0.733216,-0.070169,0.030204,0.063654,0.999991,-0.001910,-0.000326,-0.003666,-0.457932,-0.408611,-0.045662,0.788194,24.543278,43.310416,-109.815793
50698,-6.815438,3.227843,6.330935,0.351601,-0.044495,0.027218,-0.420053,-0.086711,-0.751192,-0.068060,0.032667,0.063211,0.999991,-0.002100,-0.000434,-0.003756,-0.455851,-0.407133,-0.048662,0.789984,23.911887,43.442182,-110.383093
50699,-6.696351,3.186976,6.359911,0.346785,-0.170944,-0.050719,-0.606213,-0.052351,-0.875291,-0.066839,0.032355,0.063484,0.999986,-0.003031,-0.000262,-0.004376,-0.453638,-0.405326,-0.052729,0.791923,23.115587,43.615426,-111.033261
50700,-7.204893,1.640117,6.521690,-0.706055,0.935487,-0.027082,-0.689306,-0.075174,-1.000643,-0.071989,0.016986,0.065132,0.999981,-0.003447,-0.000376,-0.005003,-0.451090,-0.403194,-0.057324,0.794145,22.198462,43.796999,-111.787388
50701,-7.321273,1.236151,6.483359,-0.867376,1.207689,-0.068393,-0.414702,-0.199836,-1.035666,-0.073212,0.012875,0.064734,0.999984,-0.002073,-0.000999,-0.005178,-0.447869,-0.401162,-0.060618,0.796748,21.389814,43.911698,-112.609865
50702,-6.819642,2.563400,6.435513,0.119200,0.061652,-0.092830,-0.293057,-0.281164,-1.038485,-0.068152,0.026082,0.064221,0.999984,-0.001465,-0.001406,-0.005192,-0.444403,-0.399065,-0.063247,0.799533,20.630282,43.975122,-113.460812
50703,-6.699636,2.647419,6.400191,0.250516,-0.097225,-0.180269,-0.343713,-0.289678,-0.974261,-0.066959,0.026910,0.063859,0.999986,-0.001719,-0.001448,-0.004871,-0.441284,-0.396831,-0.065932,0.802151,19.871329,44.013370,-114.268162
50704,-6.347043,2.091891,6.178304,-0.075431,0.068747,-0.712052,-0.252368,-0.254511,-0.828609,-0.063461,0.021260,0.061676,0.999990,-0.001262,-0.001273,-0.004143,-0.438546,-0.394976,-0.068035,0.804389,19.246539,44.035391,-114.957532
50705,-6.163227,2.833486,6.145689,0.505265,-0.516002,-0.687901,-0.146961,-0.195284,-0.672190,-0.061596,0.028587,0.061376,0.999994,-0.000735,-0.000976,-0.003361,-0.436201,-0.393638,-0.069537,0.806190,18.773967,44.055812,-115.514369
50706,-6.412232,2.708539,6.121647,0.544241,-0.296921,-0.563748,-0.197120,-0.090189,-0.569792,-0.064072,0.027328,0.061161,0.999995,-0.000986,-0.000451,-0.002849,-0.434327,-0.392646,-0.071265,0.807534,18.344722,44.111236,-115.967435
50707,-6.672747,2.669792,6.186276,0.598981,-0.166622,-0.350309,-0.233911,-0.038425,-0.508656,-0.066671,0.026940,0.061819,0.999996,-0.001170,-0.000192,-0.002543,-0.432749,-0.391801,-0.073135,0.808623,17.934378,44.181795,-116.362441
50708,-6.900022,2.582855,6.359628,0.545197,-0.081192,-0.095576,-0.267319,-0.003228,-0.497317,-0.068937,0.026085,0.063560,0.999996,-0.001337,-0.000016,-0.002487,-0.431267,-0.391027,-0.075192,0.809601,17.515865,44.267292,-116.741305
50709,-7.081130,2.268891,6.615300,0.261306,0.074427,0.136100,-0.303568,-0.016961,-0.485054,-0.070761,0.022961,0.066112,0.999996,-0.001518,-0.000085,-0.002425,-0.429906,-0.390121,-0.077344,0.810558,17.079352,44.341412,-117.115567
50710,-7.013333,1.977105,6.586566,0.075004,0.193887,0.007457,-0.218439,-0.076113,-0.436456,-0.070115,0.019996,0.065817,0.999997,-0.001092,-0.000381,-0.002182,-0.428597,-0.389174,-0.078925,0.811554,16.707193,44.372867,-117.467290
50711,-6.798137,2.112491,6.708711,0.075019,-0.107687,-0.031751,-0.199316,-0.085127,-0.420400,-0.067965,0.021335,0.067037,0.999997,-0.000997,-0.000426,-0.002102,-0.427316,-0.388236,-0.080381,0.812535,16.352628,44.395428,-117.809264
50712,-6.854838,1.816933,6.701229,-0.089054,0.093193,-0.056676,-0.189397,-0.104148,-0.409321,-0.068546,0.018373,0.066959,0.999997,-0.000947,-0.000521,-0.002047,-0.426066,-0.387243,-0.081731,0.813530,16.006617,44.403989,-118.147130
50713,-6.897280,1.629173,6.854347,-0.266240,0.147412,0.042058,-0.146888,-0.136305,-0.400843,-0.068987,0.016480,0.068484,0.999997,-0.000734,-0.000682,-0.002004,-0.424779,-0.386213,-0.082825,0.814581,15.684441,44.392359,-118.485656
50714,-6.895366,1.452227,6.867856,-0.373468,0.237533,0.017190,-0.073250,-0.175311,-0.384104,-0.068986,0.014680,0.068613,0.999998,-0.000366,-0.000877,-0.001921,-0.423433,-0.385184,-0.083502,0.815699,15.408041,44.355097,-118.819298
50715,-6.757509,1.893444,6.975844,-0.114625,-0.184098,0.079953,-0.045176,-0.212209,-0.392382,-0.067612,0.019083,0.069682,0.999997,-0.000226,-0.001061,-0.001962,-0.422012,-0.384060,-0.084003,0.816913,15.138186,44.297820,-119.166744
50716,-6.827032,1.403996,6.912465,-0.390459,0.190801,-0.005915,-0.021477,-0.225255,-0.400328,-0.068320,0.014184,0.069046,0.999997,-0.000107,-0.001126,-0.002002,-0.420517,-0.382926,-0.084394,0.818175,14.876709,44.233084,-119.522153
50717,-6.795294,1.776171,6.929758,-0.098968,-0.074131,0.053263,0.066425,-0.270335,-0.392871,-0.068011,0.017872,0.069212,0.999997,0.000332,-0.001352,-0.001964,-0.418900,-0.381794,-0.084317,0.819541,14.663924,44.141483,-119.880304
50718,-6.647148,2.133563,6.877557,0.176039,-0.369046,-0.021354,0.032470,-0.269979,-0.384398,-0.066523,0.021452,0.068689,0.999997,0.000162,-0.001350,-0.001922,-0.417381,-0.380594,-0.084361,0.820868,14.437662,44.047624,-120.230618
50719,-6.748954,1.919600,6.922689,0.060725,-0.191597,0.042076,-0.036457,-0.268878,-0.378226,-0.067546,0.019336,0.069133,0.999997,-0.000182,-0.001344,-0.001891,-0.416014,-0.379255,-0.084680,0.822148,14.176348,43.952668,-120.574991
50720,-6.808046,1.692818,7.004747,-0.097816,-0.047069,0.100421,0.004544,-0.294308,-0.353693,-0.068153,0.017047,0.069948,0.999997,0.000023,-0.001472,-0.001768,-0.414681,-0.377905,-0.084729,0.823437,13.949711,43.838874,-120.904030
50721,-6.878866,1.866220,7.072720,0.055208,-0.140867,0.227330,0.002630,-0.326675,-0.326868,-0.068873,0.018774,0.070615,0.999997,0.000013,-0.001633,-0.001634,-0.413472,-0.376427,-0.084669,0.824727,13.733234,43.702702,-121.217398
50722,-6.808527,1.745335,7.002922,0.012182,-0.066251,0.108930,0.017764,-0.360607,-0.288320,-0.068186,0.017545,0.069908,0.999997,0.000089,-0.001803,-0.001442,-0.412406,-0.374855,-0.084402,0.826003,13.543306,43.541406,-121.505852
50723,-6.766105,1.891815,7.093128,0.090613,-0.214524,0.168157,0.010171,-0.386977,-0.258236,-0.067774,0.019002,0.070801,0.999997,0.000051,-0.001935,-0.001291,-0.411487,-0.373169,-0.084057,0.827259,13.363063,43.360945,-121.774664
50724,-6.781263,1.554698,7.058795,-0.098090,0.043648,0.097788,-0.031222,-0.412186,-0.245065,-0.067939,0.015641,0.070446,0.999997,-0.000156,-0.002061,-0.001225,-0.410709,-0.371297,-0.083804,0.828513,13.164871,43.163838,-122.036141
50725,-7.324776,1.558807,7.285501,0.033859,0.294384,0.631102,-0.020307,-0.464218,-0.261797,-0.073396,0.015691,0.072683,0.999996,-0.000102,-0.002321,-0.001309,-0.409860,-0.369223,-0.083432,0.829897,12.959688,42.939391,-122.317906
50726,-7.921407,1.850388,7.822892,0.250698,0.260482,1.467342,-0.134326,-0.644125,-0.326711,-0.079435,0.018686,0.077961,0.999993,-0.000672,-0.003221,-0.001634,-0.409023,-0.366137,-0.083281,0.831690,12.637450,42.621517,-122.677409
50727,-8.288058,0.902429,8.235927,-0.439985,0.960574,1.858618,-0.230654,-0.902259,-0.360687,-0.083234,0.009269,0.081974,0.999988,-0.001153,-0.004511,-0.001803,-0.408321,-0.361760,-0.083066,0.833969,12.218595,42.161928,-123.100866
50728,-8.070261,0.928735,8.167641,-0.354758,0.896498,1.666452,-0.159735,-1.228815,-0.431847,-0.081182,0.009527,0.081171,0.999978,-0.000799,-0.006144,-0.002159,-0.407316,-0.356124,-0.082012,0.836985,11.778554,41.525236,-123.621642
50729,-7.016487,0.586584,7.868873,-0.753341,0.664400,0.698417,-0.210204,-1.414357,-0.533747,-0.070703,0.006136,0.078184,0.999971,-0.001051,-0.007072,-0.002669,-0.406028,-0.349550,-0.080971,0.840476,11.253684,40.793065,-124.234195
50730,-7.430432,0.277322,8.194403,-0.832925,1.075592,1.168353,-0.037870,-1.547130,-0.563577,-0.074927,0.002999,0.081365,0.999966,-0.000189,-0.007736,-0.002818,-0.404344,-0.342732,-0.078981,0.844277,10.817245,39.985375,-124.872531
50731,-9.474991,1.248390,9.032959,0.516182,1.499635,3.241349,0.129533,-1.906090,-0.510162,-0.095573,0.012669,0.089430,0.999951,0.000648,-0.009530,-0.002551,-0.402705,-0.334731,-0.075464,0.848581,10.487367,38.966966,-125.505990
50732,-9.983115,2.273832,9.950472,1.267321,0.954275,4.375971,-0.074793,-2.475202,-0.531983,-0.100991,0.023043,0.098251,0.999920,-0.000374,-0.012376,-0.002660,-0.401480,-0.323852,-0.071691,0.853694,10.007630,37.626173,-126.209109
50733,-9.754541,0.424365,9.806698,0.185340,2.330453,3.826290,-0.142812,-3.078456,-0.532554,-0.099027,0.004575,0.096547,0.999878,-0.000714,-0.015392,-0.002663,-0.400495,-0.310198,-0.066989,0.859589,9.476537,35.940393,-126.957010
50734,-5.839986,1.179575,8.134217,-0.067358,0.138379,0.268436,-0.074105,-3.413894,-0.651943,-0.059738,0.012019,0.080326,0.999849,-0.000371,-0.017069,-0.003260,-0.398896,-0.295114,-0.061482,0.866031,8.955578,34.069984,-127.789092
50735,-2.017041,0.042040,6.497011,-1.874036,-0.860505,-3.330006,-0.097483,-3.097929,-0.771562,-0.021172,0.000532,0.064647,0.999872,-0.000487,-0.015489,-0.003858,-0.396604,-0.281234,-0.056871,0.871997,8.436277,32.383307,-128.632110
50736,-2.026568,0.728001,6.491919,-1.241288,-1.186845,-3.192256,0.241625,-2.609412,-0.728074,-0.021084,0.007278,0.064656,0.999908,0.001208,-0.013047,-0.003640,-0.393800,-0.270104,-0.051672,0.877095,8.185827,30.964781,-129.370586
50737,-2.693797,2.768257,6.885448,0.520794,-2.144092,-2.232514,0.252089,-2.217941,-0.566105,-0.027621,0.027674,0.068586,0.999934,0.001260,-0.011089,-0.002830,-0.391527,-0.260712,-0.046975,0.881209,8.035698,29.753374,-129.950378
50738,-2.796865,2.349446,7.008608,0.323016,-1.723705,-2.106456,0.028919,-1.851226,-0.369531,-0.028572,0.023537,0.069827,0.999955,0.000145,-0.009256,-0.001848,-0.390283,-0.252515,-0.043713,0.884310,7.851906,28.732715,-130.358250
50739,-4.116000,1.700408,7.733540,0.407892,-0.501382,-0.912058,0.031550,-1.585161,-0.205043,-0.041754,0.017035,0.077009,0.999968,0.000158,-0.007926,-0.001025,-0.389674,-0.245516,-0.040751,0.886688,7.739730,27.849606,-130.630115
50740,-4.877004,1.819336,8.718730,0.640089,-0.236925,0.318632,-0.049585,-1.540905,-0.171349,-0.049424,0.018257,0.086804,0.999970,-0.000248,-0.007704,-0.000857,-0.389282,-0.238547,-0.038188,0.888874,7.598815,26.988314,-130.872027
50741,-5.415873,0.544381,8.957608,0.074360,1.054745,0.615470,-0.002533,-1.593324,-0.185769,-0.054865,0.005496,0.089141,0.999968,-0.000013,-0.007967,-0.000929,-0.388754,-0.231420,-0.035332,0.891104,7.483572,26.098069,-131.123635
50742,-4.415700,1.118260,8.528217,0.175074,0.191211,-0.147794,0.074072,-1.655049,-0.293436,-0.044844,0.011217,0.084917,0.999965,0.000370,-0.008275,-0.001467,-0.387644,-0.224131,-0.032133,0.893569,7.386181,25.180105,-131.444237
50743,-3.517858,0.601970,8.131725,-0.472510,0.132732,-0.945882,0.084699,-1.547227,-0.352141,-0.035796,0.006048,0.081044,0.999968,0.000423,-0.007736,-0.001761,-0.386216,-0.217321,-0.029163,0.895968,7.288956,24.327485,-131.789015
50744,-4.075261,1.363766,8.116337,0.502340,0.073752,-0.642988,0.201335,-1.472716,-0.334127,-0.041326,0.013625,0.080874,0.999971,0.001007,-0.007364,-0.001671,-0.384708,-0.211059,-0.025789,0.898214,7.271710,23.515327,-132.113317
50745,-3.295624,1.655826,7.880787,0.399400,-0.528454,-1.136868,0.054675,-1.388278,-0.295412,-0.033478,0.016586,0.078581,0.999975,0.000273,-0.006941,-0.001477,-0.383496,-0.204888,-0.023198,0.900230,7.187244,22.748379,-132.404507
50746,-3.029353,0.657176,7.818009,-0.364059,0.080297,-1.410886,0.069822,-1.243304,-0.230291,-0.030771,0.006580,0.077992,0.999980,0.000349,-0.006216,-0.001151,-0.382529,-0.199396,-0.020746,0.901933,7.135722,22.058611,-132.641760
50747,-3.442555,0.979449,8.069096,0.104784,0.159493,-0.987522,0.159051,-1.174208,-0.196726,-0.034889,0.009765,0.080495,0.999982,0.000795,-0.005871,-0.000984,-0.381601,-0.194383,-0.017992,0.903478,7.147643,21.405909,-132.851936
50748,-2.821878,1.029070,7.927458,-0.141766,-0.204240,-1.338957,0.113196,-1.078288,-0.204735,-0.028635,0.010275,0.079127,0.999985,0.000566,-0.005391,-0.001024,-0.380662,-0.189708,-0.015632,0.904911,7.136963,20.808061,-133.058634
50749,-3.485568,0.799213,8.273864,0.065081,0.418568,-0.809095,0.204085,-0.992001,-0.170271,-0.035259,0.007938,0.082573,0.999987,0.001020,-0.004960,-0.000851,-0.379774,-0.185594,-0.012995,0.906178,7.189799,20.257118,-133.237413
50750,-4.104895,1.433789,8.990624,0.727033,0.343903,0.141689,0.194192,-1.001920,-0.147718,-0.041488,0.014281,0.089713,0.999987,0.000971,-0.005010,-0.000739,-0.378988,-0.181413,-0.010360,0.907386,7.243359,19.698826,-133.403082
50751,-5.855506,1.260097,9.587628,1.620195,1.658552,1.251675,0.237623,-1.199754,-0.111065,-0.059122,0.012520,0.095538,0.999981,0.001188,-0.005999,-0.000555,-0.378327,-0.176413,-0.007123,0.908678,7.325396,19.025917,-133.562096
50752,-3.670181,1.586456,8.764768,0.769010,0.144406,-0.210886,0.103782,-1.399526,-0.166590,-0.037301,0.015850,0.087396,0.999975,0.000519,-0.006998,-0.000833,-0.377523,-0.170242,-0.004161,0.910207,7.317502,18.243334,-133.769442
50753,-1.649334,0.490739,7.629517,-0.886813,-0.222069,-2.045184,0.130026,-1.258582,-0.216440,-0.016968,0.004876,0.076193,0.999979,0.000650,-0.006293,-0.001082,-0.376449,-0.164756,-0.001392,0.911669,7.321339,17.544921,-133.994937
50754,-1.868139,1.297060,7.784992,-0.179488,-0.601628,-1.726667,0.223868,-1.008203,-0.208372,-0.019060,0.012903,0.077769,0.999986,0.001119,-0.005041,-0.001042,-0.375321,-0.160579,0.001344,0.912878,7.388834,16.987885,-134.195972
50755,-2.629253,1.860044,8.202802,0.634777,-0.474167,-1.035984,0.175985,-0.840999,-0.140023,-0.026624,0.018547,0.081933,0.999991,0.000880,-0.004205,-0.000700,-0.374534,-0.157073,0.003599,0.913805,7.445686,16.521373,-134.343722
50756,-2.572318,1.792412,8.421093,0.529536,-0.437024,-0.853188,0.086218,-0.739853,-0.045012,-0.026030,0.017894,0.084123,0.999993,0.000431,-0.003699,-0.000225,-0.374249,-0.153856,0.005332,0.914460,7.470507,16.104987,-134.427301
50757,-2.695977,1.481175,8.708487,0.358797,-0.110634,-0.584544,0.079229,-0.669257,0.030497,-0.027253,0.014773,0.087000,0.999994,0.000396,-0.003346,0.000152,-0.374311,-0.150946,0.006957,0.914909,7.505363,15.723487,-134.460921
50758,-3.425406,1.122191,9.551282,0.409526,0.614717,0.369342,0.078419,-0.670051,0.059092,-0.034577,0.011174,0.095402,0.999994,0.000392,-0.003350,0.000295,-0.374501,-0.148026,0.008604,0.915294,7.544653,15.339032,-134.477869
50759,-4.774950,1.026955,10.356189,1.084362,1.601640,1.472856,0.157183,-0.869535,0.057910,-0.048202,0.010174,0.103361,0.999990,0.000786,-0.004348,0.000290,-0.374611,-0.144341,0.010981,0.915812,7.624625,14.841811,-134.511576
50760,-2.935070,1.354663,9.572333,0.342418,0.245942,0.281894,0.072676,-1.097630,-0.034200,-0.029873,0.013517,0.095565,0.999985,0.000363,-0.005488,-0.000171,-0.374340,-0.139452,0.013334,0.916649,7.638579,14.221671,-134.617523
50761,-1.005303,0.257102,8.400160,-1.344271,-0.130906,-1.457173,0.105987,-1.002247,-0.106293,-0.010472,0.002532,0.083951,0.999987,0.000530,-0.005011,-0.000531,-0.373711,-0.135067,0.015607,0.917526,7.664093,13.661768,-134.758153
50762,-1.807927,1.495377,8.701289,0.018961,-0.426393,-0.810770,0.227584,-0.871433,-0.120431,-0.018449,0.014866,0.086950,0.999990,0.001138,-0.004357,-0.000602,-0.372937,-0.131504,0.018187,0.918311,7.761178,13.176834,-134.896944
50763,-1.511287,1.867335,8.825057,0.079773,-0.847725,-0.706254,0.114353,-0.807321,-0.088012,-0.015461,0.018630,0.088199,0.999992,0.000572,-0.004037,-0.000440,-0.372384,-0.128021,0.020146,0.918986,7.799522,12.726408,-135.012133
50764,-1.551040,1.461216,8.845684,-0.131566,-0.477423,-0.727456,0.081559,-0.693892,-0.037065,-0.015814,0.014579,0.088408,0.999994,0.000408,-0.003469,-0.000185,-0.372093,-0.124989,0.021778,0.919484,7.828545,12.335998,-135.088664
50765,-1.589364,1.463071,9.154073,-0.140689,-0.423363,-0.417774,0.064230,-0.627403,-0.023031,-0.016179,0.014603,0.091495,0.999995,0.000321,-0.003137,-0.000115,-0.371880,-0.122230,0.023212,0.919906,7.850723,11.982680,-135.151849
50766,-1.902760,1.226834,9.575640,-0.147909,-0.013006,0.025817,0.072519,-0.595143,-0.026841,-0.019311,0.012236,0.095704,0.999995,0.000363,-0.002976,-0.000134,-0.371645,-0.119632,0.024625,0.920305,7.878305,11.647582,-135.214687
50767,-2.383729,1.134930,9.834853,0.101281,0.421564,0.361114,0.113205,-0.647555,-0.040004,-0.024153,0.011298,0.098277,0.999995,0.000566,-0.003238,-0.000200,-0.371315,-0.116870,0.026312,0.920747,7.926974,11.284204,-135.289554
50768,-1.805654,1.650009,9.654921,0.132026,-0.289571,0.142147,0.112423,-0.724977,-0.059132,-0.018402,0.016451,0.096492,0.999993,0.000562,-0.003625,-0.000296,-0.370883,-0.113750,0.028130,0.921258,7.972538,10.878082,-135.381893
50769,-1.269467,1.062019,9.421634,-0.543175,-0.173831,-0.263814,0.081130,-0.709356,-0.063247,-0.013025,0.010586,0.094175,0.999994,0.000406,-0.003547,-0.000316,-0.370447,-0.110645,0.029770,0.921760,8.000363,10.481609,-135.475523
50770,-1.380809,1.363744,9.426472,-0.222001,-0.261945,-0.194656,0.174901,-0.697718,-0.032887,-0.014135,0.013557,0.094228,0.999994,0.000875,-0.003489,-0.000164,-0.370096,-0.107759,0.031839,0.922173,8.086006,10.088995,-135.550940
50771,-1.361063,1.554274,9.403079,-0.065307,-0.359300,-0.192269,0.130724,-0.655285,-0.018108,-0.013917,0.015483,0.093996,0.999994,0.000654,-0.003276,-0.000091,-0.369838,-0.104985,0.033631,0.922533,8.148596,9.719706,-135.614831
50772,-1.602731,1.309668,9.653756,-0.077217,0.032592,0.060083,0.128310,-0.667355,-0.007753,-0.016349,0.013035,0.096492,0.999994,0.000642,-0.003337,-0.000039,-0.369625,-0.102146,0.035442,0.922869,8.211203,9.342442,-135.674061
50773,-1.705338,1.303016,9.818099,-0.003555,0.161590,0.235922,0.134015,-0.713794,-0.025706,-0.017402,0.012967,0.098128,0.999993,0.000670,-0.003569,-0.000129,-0.369312,-0.099107,0.037353,0.923250,8.274950,8.940720,-135.747858
50774,-0.691772,1.042407,9.319769,-0.749665,-0.291898,-0.443819,0.104034,-0.707497,-0.068584,-0.007244,0.010378,0.093178,0.999994,0.000520,-0.003537,-0.000343,-0.368813,-0.096047,0.039094,0.923701,8.318539,8.545846,-135.845988
50775,-1.360461,1.119277,9.656604,-0.255314,0.166377,-0.001448,0.181120,-0.650327,-0.068527,-0.013915,0.011110,0.096531,0.999994,0.000906,-0.003252,-0.000343,-0.368283,-0.093394,0.041084,0.924098,8.407348,8.183789,-135.939674
50776,-1.405361,1.706941,9.766627,0.186464,-0.172115,0.197851,0.167741,-0.699733,-0.044192,-0.014391,0.016991,0.097631,0.999994,0.000839,-0.003499,-0.000221,-0.367858,-0.090479,0.043115,0.924465,8.490629,7.791521,-136.024053
50777,-1.302473,1.393822,9.512723,-0.008158,0.040069,-0.110679,0.190866,-0.725890,0.014244,-0.013371,0.013847,0.095092,0.999993,0.000954,-0.003629,0.000071,-0.367682,-0.087474,0.045325,0.924718,8.591544,7.379892,-136.077870
50778,-1.352695,1.550788,9.833539,0.110158,0.030380,0.233190,0.204534,-0.748311,0.061671,-0.013900,0.015403,0.098300,0.999992,0.001023,-0.003742,0.000308,-0.367709,-0.084377,0.047663,0.924878,8.703969,6.951280,-136.107240
50779,-2.042701,2.116412,10.251782,0.948095,0.180661,0.808922,0.262511,-0.861792,0.116355,-0.020881,0.021018,0.102456,0.999990,0.001313,-0.004309,0.000582,-0.367930,-0.080849,0.050496,0.924955,8.851968,6.453997,-136.116409
50780,-0.440486,0.845654,9.089040,-0.787219,0.032174,-0.707828,0.128076,-0.896637,0.136714,-0.004818,0.008395,0.090875,0.999990,0.000640,-0.004483,0.000684,-0.368284,-0.076904,0.052782,0.925023,8.924076,5.934904,-136.118006
50781,-0.871496,1.166925,9.382630,-0.266407,0.175635,-0.323083,0.188421,-0.841725,0.067248,-0.009114,0.011578,0.093799,0.999991,0.000942,-0.004209,0.000336,-0.368300,-0.073343,0.055215,0.925163,9.027023,5.453415,-136.155004
50782,-0.928018,1.070811,9.514671,-0.270817,0.361479,-0.203723,0.281839,-0.837776,0.031591,-0.009680,0.010573,0.095122,0.999990,0.001409,-0.004189,0.000158,-0.368111,-0.069978,0.058062,0.925325,9.182138,4.977162,-136.212929
50783,-0.976861,1.407228,9.577032,0.018490,0.235310,-0.086555,0.379844,-0.876279,0.082561,-0.010194,0.013886,0.095753,0.999989,0.001899,-0.004381,0.000413,-0.368105,-0.066601,0.061446,0.925358,9.395583,4.474925,-136.247034
50784,-1.244437,1.508377,9.294304,0.357273,0.425871,-0.331240,0.649774,-0.948952,0.286779,-0.012907,0.014764,0.092931,0.999982,0.003249,-0.004745,0.001434,-0.368921,-0.063319,0.066283,0.924930,9.772049,3.912019,-136.174943
50785,0.353450,3.552937,9.230276,0.624906,-2.048546,-0.150478,0.504670,-0.880072,0.374677,0.003062,0.035302,0.092406,0.999985,0.002523,-0.004400,0.001873,-0.370200,-0.060058,0.070344,0.924336,10.067777,3.379251,-136.049713
50786,-2.062375,0.435587,10.168771,0.138718,2.029801,0.370972,0.290192,-0.850697,0.314629,-0.021063,0.004176,0.101605,0.999989,0.001451,-0.004253,0.001573,-0.371267,-0.056553,0.073342,0.923896,10.237961,2.868260,-135.957641
50787,-0.533143,1.694982,9.571838,0.029392,0.110628,-0.078056,0.530696,-1.047719,0.215032,-0.005851,0.016690,0.095733,0.999982,0.002653,-0.005239,0.001075,-0.371722,-0.052622,0.077784,0.923582,10.541266,2.256529,-135.944308
50788,0.664839,0.949557,8.685915,-1.165329,-0.185428,-1.129618,0.495490,-0.925332,0.181868,0.006238,0.009286,0.086912,0.999986,0.002477,-0.004627,0.000909,-0.372070,-0.049200,0.081828,0.923281,10.824218,1.716789,-135.939774
50789,-0.792472,1.715113,9.141677,0.346686,0.446263,-0.495012,1.006399,-0.940835,0.348270,-0.008384,0.016677,0.091463,0.999975,0.005032,-0.004704,0.001741,-0.373039,-0.046588,0.088294,0.922429,11.401757,1.150271,-135.847444
50790,-0.322600,2.913290,8.936223,0.853784,-0.601539,-0.466343,1.324161,-1.047499,0.813593,-0.003812,0.028526,0.089533,0.999956,0.006621,-0.005237,0.004068,-0.376007,-0.043867,0.096529,0.920530,12.164075,0.468112,-135.513217
50791,0.232760,3.683053,9.232607,0.931623,-1.300133,0.000488,1.540335,-0.958769,1.222224,0.001662,0.036129,0.092615,0.999940,0.007702,-0.004794,0.006111,-0.380813,-0.041761,0.105670,0.917645,13.046517,-0.219882,-134.949276
50792,-0.427911,2.797504,9.262344,0.772659,-0.019561,-0.158700,1.471346,-1.027521,1.411911,-0.004950,0.027259,0.092801,0.999935,0.007357,-0.005137,0.007059,-0.386419,-0.039100,0.114654,0.914334,13.881647,-0.980244,-134.299156
50793,0.832337,2.626147,9.302474,-0.241075,-0.611655,-0.133294,1.391391,-0.934015,1.334435,0.007716,0.025666,0.093242,0.999943,0.006957,-0.004670,0.006672,-0.391693,-0.036755,0.123061,0.911088,14.663465,-1.686445,-133.689501
50794,-0.737846,1.759745,10.048700,0.090351,1.432049,0.314256,1.545992,-0.999430,1.327546,-0.007994,0.016768,0.100580,0.999936,0.007730,-0.004997,0.006638,-0.396820,-0.034412,0.132286,0.907662,15.527086,-2.436874,-133.103422
50795,0.851788,3.017899,9.193225,0.021713,-0.525412,-0.113786,1.571818,-1.103891,1.357756,0.007808,0.029510,0.092210,0.999931,0.007859,-0.005519,0.006789,-0.401957,-0.031624,0.141820,0.904056,16.397872,-3.257965,-132.528245
50796,0.710026,2.426362,8.949549,-0.280121,0.095039,-0.517782,1.627371,-1.018919,1.427371,0.006474,0.023582,0.089723,0.999928,0.008137,-0.005094,0.007137,-0.407404,-0.029275,0.151429,0.900130,17.289978,-4.053177,-131.912961
50797,1.887375,3.826858,8.193512,0.071330,-1.651878,-0.724015,1.615461,-0.942049,1.458653,0.018210,0.037739,0.082328,0.999930,0.008077,-0.004710,0.007293,-0.412993,-0.027223,0.160808,0.896011,18.165302,-4.820878,-131.278870
