PacketCounter,Acc_X,Acc_Y,Acc_Z,FreeAcc_E,FreeAcc_N,FreeAcc_U,Gyr_X,Gyr_Y,Gyr_Z,VelInc_X,VelInc_Y,VelInc_Z,OriInc_q0,OriInc_q1,OriInc_q2,OriInc_q3,Quat_q0,Quat_q1,Quat_q2,Quat_q3,Roll,Pitch,Yaw
53073,-9.059224,3.355575,-1.263463,0.094367,0.048026,-0.070278,-0.045330,0.010398,0.029724,-0.090598,0.033539,-0.012638,1.000000,-0.000227,0.000052,0.000149,-0.114642,0.643721,-0.385255,-0.651199,109.525914,67.928074,-112.691686
53074,-9.049897,3.341009,-1.291694,0.125692,0.038172,-0.080566,-0.030178,0.008936,0.022855,-0.090503,0.033398,-0.012918,1.000000,-0.000151,0.000045,0.000114,-0.114476,0.643720,-0.385241,-0.651236,109.511298,67.915395,-112.691374
53075,-9.057241,3.376913,-1.293591,0.106573,0.016937,-0.060821,-0.013986,0.006397,0.024552,-0.090577,0.033757,-0.012935,1.000000,-0.000070,0.000032,0.000123,-0.114361,0.643699,-0.385285,-0.651252,109.501847,67.902221,-112.695498
53076,-9.094502,3.406168,-1.279778,0.083895,0.020825,-0.017673,-0.000210,0.005255,0.021906,-0.090949,0.034052,-0.012795,1.000000,-0.000001,0.000026,0.000110,-0.114301,0.643671,-0.385364,-0.651243,109.499964,67.890759,-112.699976
53077,-9.069745,3.468982,-1.247919,0.016565,-0.008221,-0.022331,0.018698,-0.004344,0.016170,-0.090700,0.034684,-0.012478,1.000000,0.000093,-0.000022,0.000081,-0.114340,0.643613,-0.385481,-0.651225,109.498920,67.884169,-112.715239
53078,-9.058609,3.457892,-1.196367,-0.016438,0.029984,-0.043064,0.025192,0.000654,0.013299,-0.090588,0.034574,-0.011959,1.000000,0.000126,0.000003,0.000066,-0.114399,0.643572,-0.385612,-0.651177,109.509529,67.878235,-112.721944
53079,-9.047252,3.494696,-1.236708,-0.011753,-0.024019,-0.035448,0.019803,-0.000955,0.010924,-0.090474,0.034943,-0.012364,1.000000,0.000099,-0.000005,0.000055,-0.114451,0.643534,-0.385717,-0.651143,109.516093,67.873831,-112.729680
53080,-9.082400,3.575931,-1.233878,-0.061078,-0.064285,0.025598,0.010898,-0.004552,0.009448,-0.090825,0.035756,-0.012339,1.000000,0.000054,-0.000023,0.000047,-0.114487,0.643492,-0.385787,-0.651137,109.513410,67.870974,-112.741893
53081,-9.017462,3.632079,-1.165556,-0.157676,-0.080057,-0.023210,-0.001777,-0.000019,0.006853,-0.090176,0.036318,-0.011656,1.000000,-0.000009,-0.000000,0.000034,-0.114481,0.643477,-0.385810,-0.651140,109.510770,67.868588,-112.746217
53082,-9.033051,3.538386,-1.195356,-0.071762,-0.030305,-0.038283,-0.029862,0.003300,0.011068,-0.090333,0.035377,-0.011957,1.000000,-0.000149,0.000016,0.000055,-0.114365,0.643480,-0.385756,-0.651188,109.494403,67.863353,-112.747992
53083,-9.043284,3.536171,-1.215862,-0.051692,-0.038116,-0.027000,-0.058469,0.007646,0.014198,-0.090436,0.035352,-0.012166,1.000000,-0.000292,0.000038,0.000071,-0.114139,0.643509,-0.385622,-0.651279,109.466006,67.855531,-112.745055
53084,-9.018004,3.469658,-1.269532,0.030080,-0.036600,-0.067309,-0.069767,0.005459,0.008359,-0.090182,0.034688,-0.012705,1.000000,-0.000349,0.000027,0.000042,-0.113899,0.643547,-0.385431,-0.651396,109.430924,67.851348,-112.742350
53085,-9.068803,3.457702,-1.294976,0.066851,-0.026937,-0.021331,-0.066271,0.009389,0.020253,-0.090692,0.034564,-0.012957,1.000000,-0.000331,0.000047,0.000101,-0.113624,0.643574,-0.385292,-0.651500,109.397558,67.839922,-112.739950
53086,-9.106209,3.487056,-1.279552,0.044164,-0.023047,0.021812,-0.053421,0.007948,0.012768,-0.091065,0.034861,-0.012801,1.000000,-0.000267,0.000040,0.000064,-0.113418,0.643603,-0.385170,-0.651580,109.373096,67.832884,-112.735892
53087,-9.045854,3.501666,-1.310562,0.051079,-0.073474,-0.025006,-0.035760,0.003693,0.013980,-0.090461,0.035008,-0.013110,1.000000,-0.000179,0.000018,0.000070,-0.113272,0.643605,-0.385107,-0.651640,109.352607,67.825932,-112.738464
53088,-9.037061,3.454127,-1.277762,0.057299,-0.021848,-0.054185,0.002479,0.000112,0.027267,-0.090375,0.034529,-0.012777,1.000000,0.000012,0.000001,0.000136,-0.113214,0.643549,-0.385209,-0.651645,109.343041,67.812544,-112.752907
53089,-9.033314,3.510201,-1.288770,0.030456,-0.066167,-0.036293,0.021596,-0.004882,0.034395,-0.090339,0.035088,-0.012886,1.000000,0.000108,-0.000024,0.000172,-0.113203,0.643452,-0.385394,-0.651634,109.334574,67.796182,-112.777990
53090,-8.988757,3.560803,-1.264236,-0.025640,-0.097221,-0.062546,0.036017,-0.001066,0.041968,-0.089895,0.035591,-0.012636,1.000000,0.000180,-0.000005,0.000210,-0.113207,0.643344,-0.385652,-0.651586,109.335863,67.775068,-112.801466
53091,-8.987451,3.693966,-1.178241,-0.174953,-0.127893,-0.026935,0.045595,0.007498,0.053647,-0.089885,0.036918,-0.011771,1.000000,0.000228,0.000037,0.000268,-0.113187,0.643237,-0.385983,-0.651500,109.348630,67.745947,-112.818471
53092,-8.990750,3.769472,-1.162463,-0.233311,-0.162519,0.001230,0.010019,0.014325,0.057546,-0.089919,0.037669,-0.011616,1.000000,0.000050,0.000072,0.000288,-0.113027,0.643164,-0.386215,-0.651462,109.348169,67.713492,-112.827752
53093,-8.991145,3.705674,-1.122601,-0.219373,-0.087775,-0.026109,-0.013164,0.021290,0.069413,-0.089925,0.037025,-0.011219,1.000000,-0.000066,0.000106,0.000347,-0.112739,0.643104,-0.386414,-0.651453,109.338193,67.673225,-112.832957
53094,-9.066437,3.616332,-1.233532,-0.063694,-0.066661,0.025566,-0.051676,0.031545,0.074273,-0.090680,0.036126,-0.012330,1.000000,-0.000258,0.000158,0.000371,-0.112293,0.643090,-0.386509,-0.651488,109.317374,67.628460,-112.826034
53095,-9.039131,3.539119,-1.258973,0.005548,-0.034408,-0.024172,-0.066469,0.027413,0.069296,-0.090405,0.035356,-0.012589,1.000000,-0.000332,0.000137,0.000346,-0.111823,0.643080,-0.386537,-0.651562,109.285030,67.587092,-112.822400
53096,-9.072097,3.433244,-1.221678,0.055168,0.078834,-0.036525,-0.063729,0.028706,0.073642,-0.090735,0.034295,-0.012215,1.000000,-0.000319,0.000144,0.000368,-0.111345,0.643064,-0.386588,-0.651630,109.253960,67.543207,-112.819092
53097,-9.122507,3.454005,-1.391029,0.181290,-0.021151,0.038806,-0.068258,0.027828,0.065951,-0.091238,0.034505,-0.013909,1.000000,-0.000341,0.000139,0.000330,-0.110879,0.643062,-0.386600,-0.651704,109.222757,67.503573,-112.813112
53098,-9.016669,3.504421,-1.367770,0.119740,-0.071689,-0.043727,-0.032127,0.027280,0.068553,-0.090181,0.035011,-0.013671,1.000000,-0.000161,0.000136,0.000343,-0.110522,0.643033,-0.386737,-0.651711,109.210332,67.462711,-112.809220
53099,-8.984388,3.484839,-1.324939,0.098031,-0.035474,-0.086027,0.013430,0.029247,0.073745,-0.089859,0.034816,-0.013234,1.000000,0.000067,0.000146,0.000369,-0.110291,0.642976,-0.387040,-0.651627,109.224267,67.418594,-112.805042
53100,-8.922010,3.471605,-1.298680,0.079868,-0.024395,-0.151740,0.020412,0.021352,0.080292,-0.089235,0.034682,-0.012974,1.000000,0.000102,0.000107,0.000401,-0.110076,0.642876,-0.387383,-0.651558,109.228890,67.372501,-112.815288
53101,-8.905025,3.535498,-1.291055,0.032755,-0.061034,-0.145152,0.052254,0.023538,0.081689,-0.089066,0.035322,-0.012891,1.000000,0.000261,0.000118,0.000408,-0.109955,0.642763,-0.387835,-0.651421,109.254018,67.325164,-112.823083
53102,-8.881044,3.517247,-1.191057,-0.032975,0.015640,-0.186616,0.057458,0.028848,0.083003,-0.088827,0.035139,-0.011888,1.000000,0.000287,0.000144,0.000415,-0.109836,0.642662,-0.388311,-0.651257,109.288293,67.276190,-112.824203
53103,-8.989375,3.497964,-1.190811,-0.003292,0.075521,-0.093792,0.046168,0.026728,0.077135,-0.089909,0.034948,-0.011888,1.000000,0.000231,0.000134,0.000386,-0.109703,0.642571,-0.388731,-0.651119,109.316020,67.230715,-112.825404
53104,-8.985387,3.552251,-1.286136,0.034101,-0.016928,-0.065464,0.033383,0.025339,0.065391,-0.089867,0.035495,-0.012844,1.000000,0.000167,0.000127,0.000327,-0.109571,0.642506,-0.389069,-0.651004,109.339823,67.191928,-112.822920
53105,-8.940089,3.572150,-1.202904,-0.047054,0.013592,-0.110624,0.021407,0.025612,0.054775,-0.089412,0.035698,-0.012014,1.000000,0.000107,0.000128,0.000274,-0.109434,0.642468,-0.389336,-0.650905,109.361930,67.158754,-112.814828
53106,-8.978215,3.583129,-1.241686,-0.018015,0.000113,-0.066477,-0.005956,0.024771,0.050900,-0.089793,0.035808,-0.012407,1.000000,-0.000030,0.000124,0.000255,-0.109224,0.642450,-0.389499,-0.650860,109.368928,67.127908,-112.806120
53107,-8.968100,3.569883,-1.271925,0.013298,-0.009757,-0.076754,-0.026583,0.024197,0.038845,-0.089689,0.035680,-0.012713,1.000000,-0.000133,0.000121,0.000194,-0.108987,0.642465,-0.389557,-0.650850,109.368849,67.103612,-112.792261
53108,-8.958883,3.539551,-1.271221,0.032090,0.011118,-0.096471,-0.018257,0.020403,0.027504,-0.089595,0.035382,-0.012706,1.000000,-0.000091,0.000102,0.000138,-0.108822,0.642485,-0.389604,-0.650830,109.373708,67.086242,-112.778221
53109,-8.998017,3.548605,-1.308274,0.061126,-0.002357,-0.052321,-0.028008,0.015205,0.024887,-0.089986,0.035473,-0.013081,1.000000,-0.000140,0.000076,0.000124,-0.108643,0.642499,-0.389607,-0.650844,109.367568,67.071200,-112.770052
53110,-9.006408,3.535525,-1.219131,0.004406,0.068703,-0.060926,-0.011598,0.012304,0.007569,-0.090066,0.035351,-0.012188,1.000000,-0.000058,0.000062,0.000038,-0.108580,0.642528,-0.389607,-0.650826,109.374833,67.066144,-112.757538
53111,-9.001696,3.449448,-1.206860,0.049913,0.133724,-0.098503,-0.014888,0.006625,0.009475,-0.090019,0.034489,-0.012068,1.000000,-0.000074,0.000033,0.000047,-0.108511,0.642537,-0.389599,-0.650834,109.372167,67.061065,-112.753759
53112,-9.055760,3.399864,-1.253595,0.125895,0.156686,-0.060920,-0.025875,-0.000578,0.008368,-0.090559,0.033993,-0.012541,1.000000,-0.000129,-0.000003,0.000042,-0.108424,0.642530,-0.389547,-0.650886,109.354438,67.058025,-112.759504
53113,-9.055630,3.400486,-1.252848,0.125714,0.156518,-0.060915,-0.013621,-0.001094,-0.000095,-0.090556,0.034004,-0.012531,1.000000,-0.000068,-0.000005,-0.000000,-0.108405,0.642531,-0.389509,-0.650911,109.346936,67.059590,-112.761764
53114,-9.062966,3.450028,-1.285161,0.119057,0.104527,-0.031758,0.000580,0.004407,-0.006279,-0.090629,0.034503,-0.012850,1.000000,0.000003,0.000022,-0.000031,-0.108442,0.642555,-0.389499,-0.650887,109.357304,67.063521,-112.753458
53115,-9.112579,3.441009,-1.232214,0.091569,0.162284,0.003792,-0.005994,0.007237,-0.008132,-0.091125,0.034413,-0.012320,1.000000,-0.000030,0.000036,-0.000041,-0.108457,0.642595,-0.389464,-0.650866,109.368427,67.067852,-112.740241
53116,-9.123161,3.452296,-1.284950,0.124131,0.123656,0.024529,-0.004896,0.009644,-0.019710,-0.091229,0.034532,-0.012846,1.000000,-0.000024,0.000048,-0.000099,-0.108510,0.642665,-0.389396,-0.650829,109.388395,67.078046,-112.718106
53117,-9.098969,3.511150,-1.253255,0.056754,0.094722,0.019803,0.009365,0.007368,-0.021215,-0.090986,0.035122,-0.012528,1.000000,0.000047,0.000037,-0.000106,-0.108617,0.642723,-0.389369,-0.650770,109.414397,67.089424,-112.698291
53118,-9.097611,3.514085,-1.173649,-0.007668,0.142716,0.009346,0.018001,0.008213,-0.019759,-0.090973,0.035151,-0.011730,1.000000,0.000090,0.000041,-0.000099,-0.108746,0.642775,-0.389374,-0.650693,109.445719,67.099909,-112.678075
53119,-9.087131,3.531774,-1.183669,-0.015583,0.119468,0.007493,0.017819,0.003178,-0.022477,-0.090868,0.035329,-0.011832,1.000000,0.000089,0.000016,-0.000112,-0.108892,0.642817,-0.389368,-0.650631,109.471820,67.112765,-112.663415
53120,-9.054368,3.589276,-1.210850,-0.038963,0.050044,0.001925,0.010896,-0.002120,-0.017022,-0.090540,0.035901,-0.012108,1.000000,0.000054,-0.000011,-0.000085,-0.109009,0.642835,-0.389354,-0.650603,109.484650,67.123739,-112.658857
53121,-9.043888,3.607413,-1.219733,-0.046883,0.026796,0.000068,0.002265,-0.002967,-0.018481,-0.090435,0.036083,-0.012198,1.000000,0.000011,-0.000015,-0.000092,-0.109105,0.642857,-0.389307,-0.650592,109.492186,67.135611,-112.654676
53122,-9.060523,3.657011,-1.192615,-0.097564,0.015305,0.030045,-0.008650,-0.002796,-0.014201,-0.090602,0.036576,-0.011929,1.000000,-0.000043,-0.000014,-0.000071,-0.109152,0.642878,-0.389238,-0.650606,109.491682,67.145190,-112.652434
53123,-9.030981,3.662066,-1.207665,-0.094224,-0.009979,0.006621,-0.020917,-0.003263,-0.012109,-0.090307,0.036625,-0.012082,1.000000,-0.000105,-0.000016,-0.000061,-0.109152,0.642900,-0.389135,-0.650645,109.482665,67.153676,-112.651804
53124,-9.023251,3.643836,-1.234894,-0.062917,-0.019880,-0.003650,-0.033067,-0.006075,-0.012692,-0.090230,0.036442,-0.012358,1.000000,-0.000165,-0.000030,-0.000063,-0.109122,0.642920,-0.388990,-0.650717,109.463275,67.163066,-112.654874
53125,-9.023701,3.643279,-1.233248,-0.063106,-0.020044,-0.003652,-0.030356,-0.004801,-0.008319,-0.090235,0.036435,-0.012340,1.000000,-0.000152,-0.000024,-0.000042,-0.109083,0.642935,-0.388868,-0.650782,109.445143,67.169798,-112.658265
53126,-9.004676,3.645371,-1.269181,-0.039537,-0.053029,-0.015781,-0.029823,-0.005827,-0.007251,-0.090045,0.036455,-0.012700,1.000000,-0.000149,-0.000029,-0.000036,-0.109045,0.642944,-0.388751,-0.650850,109.425450,67.176200,-112.663680
53127,-8.994345,3.648618,-1.246249,-0.059957,-0.045501,-0.027079,-0.012979,-0.005446,-0.008076,-0.089942,0.036489,-0.012467,1.000000,-0.000065,-0.000027,-0.000040,-0.109062,0.642946,-0.388686,-0.650883,109.416321,67.182921,-112.668104
53128,-8.975349,3.650379,-1.283044,-0.036391,-0.078487,-0.039209,0.002102,-0.006048,-0.008460,-0.089752,0.036508,-0.012833,1.000000,0.000011,-0.000030,-0.000042,-0.109131,0.642939,-0.388669,-0.650889,109.415175,67.190018,-112.673243
53129,-8.946015,3.639788,-1.267980,-0.045544,-0.072995,-0.072071,0.005865,-0.006831,-0.001938,-0.089459,0.036399,-0.012682,1.000000,0.000029,-0.000034,-0.000010,-0.109192,0.642915,-0.388684,-0.650893,109.412276,67.193684,-112.682620
53130,-8.924333,3.663037,-1.255039,-0.073704,-0.088552,-0.085231,0.010208,-0.003203,-0.001698,-0.089243,0.036632,-0.012550,1.000000,0.000051,-0.000016,-0.000008,-0.109259,0.642899,-0.388716,-0.650878,109.416366,67.196585,-112.687117
53131,-8.905362,3.649419,-1.262033,-0.062627,-0.090752,-0.106797,0.009514,-0.005270,0.007258,-0.089055,0.036492,-0.012621,1.000000,0.000048,-0.000026,0.000036,-0.109299,0.642860,-0.388774,-0.650875,109.413396,67.194981,-112.698837
53132,-8.945822,3.640372,-1.267669,-0.046113,-0.073504,-0.072077,0.008170,-0.004936,0.011442,-0.089460,0.036399,-0.012677,1.000000,0.000041,-0.000025,0.000057,-0.109320,0.642815,-0.388841,-0.650877,109.408141,67.191112,-112.712205
53133,-8.915354,3.647569,-1.283321,-0.042778,-0.098784,-0.095505,-0.001508,-0.002759,0.014212,-0.089156,0.036469,-0.012835,1.000000,-0.000008,-0.000014,0.000071,-0.109297,0.642777,-0.388887,-0.650891,109.398938,67.185269,-112.723837
53134,-8.944364,3.659238,-1.297576,-0.034009,-0.104618,-0.062648,-0.005548,-0.002726,0.020390,-0.089447,0.036583,-0.012978,1.000000,-0.000028,-0.000014,0.000102,-0.109241,0.642728,-0.388939,-0.650917,109.384626,67.176141,-112.738505
53135,-8.995446,3.631764,-1.294032,-0.009749,-0.064287,-0.026061,-0.010645,-0.000637,0.024423,-0.089959,0.036306,-0.012943,1.000000,-0.000053,-0.000003,0.000122,-0.109150,0.642682,-0.388989,-0.650948,109.368317,67.164371,-112.752167
53136,-8.994039,3.650438,-1.324155,0.002540,-0.095242,-0.016630,-0.010224,0.000680,0.028165,-0.089946,0.036491,-0.013243,1.000000,-0.000051,0.000003,0.000141,-0.109047,0.642633,-0.389053,-0.650976,109.352219,67.150390,-112.765869
53137,-9.030837,3.680506,-1.309990,-0.020187,-0.091326,0.026493,-0.003474,0.001918,0.026362,-0.090313,0.036793,-0.013100,1.000000,-0.000017,0.000010,0.000132,-0.108969,0.642587,-0.389134,-0.650986,109.342455,67.137082,-112.776889
53138,-8.999720,3.689114,-1.326012,-0.016859,-0.116618,0.003063,-0.003582,0.004263,0.029032,-0.090003,0.036878,-0.013259,1.000000,-0.000018,0.000021,0.000145,-0.108877,0.642543,-0.389224,-0.650990,109.334394,67.121951,-112.786001
53139,-9.042746,3.628677,-1.321417,0.026420,-0.055258,0.019959,0.001002,0.004171,0.030293,-0.090433,0.036273,-0.013212,1.000000,0.000005,0.000021,0.000151,-0.108796,0.642495,-0.389333,-0.650986,109.328340,67.106086,-112.795781
53140,-9.020257,3.638586,-1.278481,-0.014218,-0.040023,-0.002639,0.003405,0.001781,0.028251,-0.090208,0.036373,-0.012783,1.000000,0.000017,0.000009,0.000141,-0.108734,0.642441,-0.389442,-0.650985,109.321478,67.091847,-112.807939
53141,-8.969752,3.649577,-1.332124,0.012853,-0.098124,-0.038199,0.000184,0.002511,0.029170,-0.089703,0.036483,-0.013320,1.000000,0.000001,0.000013,0.000146,-0.108657,0.642390,-0.389544,-0.650987,109.313360,67.076903,-112.819454
53142,-8.912920,3.578560,-1.292450,0.021529,-0.042852,-0.121745,0.001544,0.003147,0.031354,-0.089135,0.035772,-0.012923,1.000000,0.000008,0.000016,0.000157,-0.108577,0.642336,-0.389658,-0.650986,109.305812,67.060726,-112.831200
53143,-8.874498,3.537527,-1.276320,0.031413,-0.016310,-0.174298,-0.005024,0.005982,0.029498,-0.088751,0.035362,-0.012761,1.000000,-0.000025,0.000030,0.000147,-0.108475,0.642298,-0.389746,-0.650987,109.299024,67.044944,-112.838034
53144,-8.862160,3.560004,-1.285738,0.023473,-0.039558,-0.176167,-0.006714,0.011411,0.028953,-0.088627,0.035587,-0.012854,1.000000,-0.000034,0.000057,0.000145,-0.108360,0.642280,-0.389830,-0.650975,109.298389,67.028499,-112.837137
53145,-8.912885,3.533373,-1.283471,0.047745,0.000758,-0.139567,-0.008576,0.012778,0.032057,-0.089135,0.035319,-0.012831,1.000000,-0.000043,0.000064,0.000160,-0.108225,0.642261,-0.389918,-0.650962,109.297105,67.010046,-112.835782
53146,-8.919298,3.569835,-1.286168,0.028533,-0.020450,-0.119876,-0.008166,0.013125,0.029428,-0.089199,0.035685,-0.012857,1.000000,-0.000041,0.000066,0.000147,-0.108100,0.642248,-0.389999,-0.650947,109.297609,66.993020,-112.832745
53147,-8.999612,3.553410,-1.298579,0.061755,0.014189,-0.050412,-0.013673,0.013907,0.029711,-0.090002,0.035520,-0.012982,1.000000,-0.000068,0.000070,0.000149,-0.107955,0.642240,-0.390064,-0.650940,109.295889,66.975622,-112.828692
53148,-9.016777,3.586127,-1.322739,0.062757,-0.014735,-0.019421,-0.003773,0.007993,0.027971,-0.090173,0.035848,-0.013224,1.000000,-0.000019,0.000040,0.000140,-0.107859,0.642211,-0.390152,-0.650932,109.293028,66.960356,-112.832045
53149,-9.064645,3.596465,-1.300546,0.047782,0.012254,0.025572,-0.004826,0.010050,0.025828,-0.090652,0.035953,-0.013002,1.000000,-0.000024,0.000050,0.000129,-0.107762,0.642193,-0.390232,-0.650918,109.293204,66.945790,-112.831441
53150,-9.015296,3.574552,-1.293547,0.049919,0.015711,-0.028848,-0.000566,0.006289,0.020684,-0.090157,0.035736,-0.012933,1.000000,-0.000003,0.000031,0.000103,-0.107703,0.642171,-0.390306,-0.650905,109.293262,66.934786,-112.833619
53151,-9.025745,3.556526,-1.285318,0.057491,0.038619,-0.026973,0.002130,0.006584,0.018693,-0.090261,0.035557,-0.012850,1.000000,0.000011,0.000033,0.000093,-0.107659,0.642153,-0.390383,-0.650885,109.296194,66.924736,-112.834349
53152,-9.021906,3.595509,-1.266040,0.018052,0.025130,-0.018588,-0.008891,0.008154,0.019263,-0.090223,0.035946,-0.012658,1.000000,-0.000044,0.000041,0.000096,-0.107574,0.642144,-0.390426,-0.650881,109.294481,66.914148,-112.833267
53153,-9.031855,3.593504,-1.288400,0.038081,0.017247,-0.007285,-0.003728,0.012461,0.014259,-0.090322,0.035928,-0.012879,1.000000,-0.000019,0.000062,0.000071,-0.107514,0.642156,-0.390473,-0.650851,109.303481,66.905384,-112.823753
53154,-8.972159,3.574254,-1.260023,0.020007,0.028429,-0.073007,-0.005084,0.011829,0.012072,-0.089724,0.035737,-0.012596,1.000000,-0.000025,0.000059,0.000060,-0.107458,0.642171,-0.390508,-0.650825,109.311797,66.897988,-112.814140
53155,-8.941409,3.581494,-1.276758,0.023330,0.003155,-0.096440,-0.006945,0.013197,0.015174,-0.089418,0.035808,-0.012763,1.000000,-0.000035,0.000066,0.000076,-0.107383,0.642186,-0.390548,-0.650799,109.319468,66.888589,-112.804067
53156,-8.930048,3.586544,-1.255789,0.002927,0.010703,-0.107743,-0.011298,0.009582,0.014929,-0.089304,0.035858,-0.012556,1.000000,-0.000056,0.000048,0.000075,-0.107302,0.642191,-0.390570,-0.650793,109.320096,66.880074,-112.798940
53157,-8.980808,3.575005,-1.283797,0.039659,0.020206,-0.061701,-0.009938,0.010215,0.017113,-0.089812,0.035742,-0.012835,1.000000,-0.000050,0.000051,0.000086,-0.107216,0.642194,-0.390605,-0.650784,109.321406,66.870193,-112.793918
53158,-8.931155,3.568741,-1.306855,0.054255,-0.007122,-0.106693,-0.018869,0.006703,0.015598,-0.089315,0.035679,-0.013069,1.000000,-0.000094,0.000034,0.000078,-0.107115,0.642193,-0.390603,-0.650803,109.313754,66.861861,-112.793077
53159,-8.968842,3.581721,-1.262428,0.019069,0.027592,-0.073003,-0.010665,0.006209,0.013327,-0.089691,0.035811,-0.012623,1.000000,-0.000053,0.000031,0.000067,-0.107047,0.642190,-0.390621,-0.650806,109.311259,66.854788,-112.791739
53160,-8.949489,3.569016,-1.269774,0.030158,0.025376,-0.094560,-0.006736,0.008508,0.009834,-0.089497,0.035685,-0.012695,1.000000,-0.000034,0.000043,0.000049,-0.107000,0.642200,-0.390642,-0.650792,109.315397,66.849231,-112.785637
53161,-8.997420,3.594014,-1.278055,0.027630,0.021569,-0.040139,0.001993,0.006983,0.008636,-0.089976,0.035936,-0.012777,1.000000,0.000010,0.000035,0.000043,-0.106987,0.642202,-0.390686,-0.650765,109.323211,66.844548,-112.780976
53162,-8.985807,3.614391,-1.287565,0.019672,-0.001675,-0.042018,0.009889,0.003796,0.006322,-0.089859,0.036142,-0.012872,1.000000,0.000049,0.000019,0.000032,-0.107013,0.642194,-0.390747,-0.650732,109.332470,66.841783,-112.779664
53163,-8.995737,3.724189,-1.190535,-0.122012,-0.008889,-0.004768,-0.010672,-0.003515,0.005277,-0.089958,0.037239,-0.011909,1.000000,-0.000053,-0.000018,0.000026,-0.106991,0.642175,-0.390734,-0.650762,109.321245,66.840907,-112.787814
53164,-8.925401,3.583161,-1.145303,-0.075152,0.088464,-0.127644,-0.045514,-0.010449,-0.007008,-0.089252,0.035832,-0.011466,1.000000,-0.000228,-0.000052,-0.000035,-0.106911,0.642177,-0.390564,-0.650876,109.286655,66.848048,-112.799668
53165,-9.028286,3.669583,-1.078390,-0.163212,0.108289,-0.009609,-0.076482,-0.011763,-0.013777,-0.090280,0.036698,-0.010803,1.000000,-0.000382,-0.000059,-0.000069,-0.106755,0.642204,-0.390271,-0.651050,109.235703,66.859034,-112.810017
53166,-8.861951,3.635676,-1.065908,-0.171906,0.072932,-0.176630,-0.209480,-0.031944,-0.044186,-0.088610,0.036365,-0.010711,0.999999,-0.001047,-0.000160,-0.000221,-0.106311,0.642295,-0.389436,-0.651533,109.096247,66.890328,-112.833742
53167,-9.087162,2.943785,-0.725341,0.052239,0.831632,-0.269409,-0.156936,-0.034635,-0.052448,-0.090863,0.029456,-0.007292,1.000000,-0.000785,-0.000173,-0.000262,-0.106068,0.642365,-0.388744,-0.651916,108.986960,66.926518,-112.857388
53168,-9.381487,2.938561,-0.819797,0.174839,0.870450,0.012344,-0.058316,-0.092475,-0.073501,-0.093800,0.029418,-0.008250,1.000000,-0.000292,-0.000462,-0.000368,-0.106323,0.642235,-0.388275,-0.652283,108.869411,66.984912,-112.951414
53169,-9.037166,3.199192,-1.324828,0.342196,0.232201,-0.143699,-0.055861,-0.132951,-0.072507,-0.090351,0.032021,-0.013317,1.000000,-0.000279,-0.000665,-0.000363,-0.106660,0.641969,-0.387796,-0.652774,108.700504,67.050103,-113.102710
53170,-8.670208,3.490279,-1.325883,0.104548,-0.108417,-0.373946,-0.011237,-0.061180,-0.060821,-0.086687,0.034928,-0.013287,1.000000,-0.000056,-0.000306,-0.000304,-0.106964,0.641890,-0.387537,-0.652955,108.643481,67.095709,-113.160225
53171,-8.988130,4.186722,-1.085427,-0.473080,-0.318099,0.145639,0.043138,-0.039845,-0.046806,-0.089869,0.041891,-0.010863,1.000000,0.000216,-0.000199,-0.000234,-0.107355,0.641825,-0.387513,-0.652969,108.638861,67.129752,-113.194660
53172,-8.878582,4.635449,-1.070239,-0.785512,-0.657368,0.207934,-0.119521,-0.042497,-0.023819,-0.088778,0.046359,-0.010749,1.000000,-0.000598,-0.000212,-0.000119,-0.107154,0.641794,-0.387030,-0.653320,108.527494,67.151815,-113.243792
53173,-8.754908,4.495508,-0.878996,-0.852077,-0.490478,0.019099,-0.203190,-0.026185,-0.000072,-0.087548,0.044946,-0.008847,0.999999,-0.001016,-0.000131,-0.000000,-0.106575,0.641815,-0.386358,-0.653791,108.378884,67.157918,-113.281305
53174,-9.169862,3.930826,-0.711091,-0.548183,0.143623,0.173417,-0.207157,0.000105,0.011167,-0.091701,0.039296,-0.007152,0.999999,-0.001036,0.000001,0.000056,-0.105897,0.641901,-0.385723,-0.654192,108.257081,67.153192,-113.287270
53175,-9.349033,3.425108,-1.277666,0.237200,0.184656,0.221148,-0.257987,0.001133,-0.007935,-0.093489,0.034238,-0.012820,0.999999,-0.001290,0.000006,-0.000040,-0.105115,0.642053,-0.384860,-0.654676,108.115603,67.158610,-113.282970
53176,-9.231341,3.464725,-1.444478,0.327547,0.004901,0.147292,-0.207849,0.004074,-0.024138,-0.092310,0.034643,-0.014479,0.999999,-0.001039,0.000020,-0.000121,-0.104541,0.642219,-0.384111,-0.655046,108.013481,67.172400,-113.267150
53177,-8.864649,3.837170,-1.344043,-0.032617,-0.321575,-0.065490,-0.266927,-0.009434,-0.022902,-0.088641,0.038364,-0.013496,0.999999,-0.001335,-0.000047,-0.000115,-0.103799,0.642369,-0.383164,-0.655571,107.859430,67.187853,-113.270936
53178,-8.930521,3.684831,-0.728991,-0.387810,0.191349,-0.134020,-0.215360,-0.010049,-0.006717,-0.089304,0.036843,-0.007334,0.999999,-0.001077,-0.000050,-0.000034,-0.103172,0.642457,-0.382438,-0.656007,107.727294,67.194641,-113.283010
53179,-8.988678,3.621183,-1.229310,0.052631,-0.068225,-0.044727,-0.327218,-0.023761,-0.021734,-0.089881,0.036201,-0.012363,0.999999,-0.001636,-0.000119,-0.000109,-0.102259,0.642586,-0.381288,-0.656693,107.519385,67.211930,-113.307748
53180,-8.760616,3.410283,-1.850103,0.635424,-0.402577,-0.260962,-0.341790,0.023009,-0.029188,-0.087603,0.034084,-0.018549,0.999999,-0.001709,0.000115,-0.000146,-0.101236,0.642889,-0.380090,-0.657250,107.366913,67.225294,-113.263309
53181,-8.630915,3.567286,-1.874344,0.543818,-0.573805,-0.320249,-0.269068,0.074360,-0.010367,-0.086314,0.035652,-0.018759,0.999999,-0.001345,0.000372,-0.000052,-0.100286,0.643286,-0.379216,-0.657512,107.315305,67.219560,-113.154669
53182,-8.813779,3.803927,-1.483977,0.128464,-0.425253,-0.109213,-0.213209,0.089480,0.014700,-0.088147,0.038017,-0.014841,0.999999,-0.001066,0.000447,0.000074,-0.099405,0.643656,-0.378614,-0.657630,107.305136,67.197624,-113.035782
53183,-8.842600,3.325385,-1.402428,0.370015,-0.028714,-0.269164,-0.240498,0.064581,0.029097,-0.088435,0.033224,-0.014036,0.999999,-0.001202,0.000323,0.000145,-0.098435,0.643929,-0.377955,-0.657887,107.241085,67.172005,-112.958350
53184,-9.010571,2.917841,-1.483917,0.712491,0.267843,-0.256181,-0.107321,0.068267,0.027966,-0.090115,0.029158,-0.014824,1.000000,-0.000537,0.000341,0.000140,-0.097891,0.644151,-0.377732,-0.657879,107.258468,67.146463,-112.875356
53185,-9.137060,3.062513,-1.826922,0.906736,0.003835,-0.046403,-0.015927,0.060946,0.018377,-0.091379,0.030615,-0.018244,1.000000,-0.000080,0.000305,0.000092,-0.097686,0.644322,-0.377775,-0.657717,107.322545,67.127326,-112.798490
53186,-9.046497,3.623860,-1.347274,0.172548,-0.115949,0.023135,0.112012,0.026717,0.011293,-0.090469,0.036241,-0.013440,1.000000,0.000560,0.000134,0.000056,-0.097982,0.644332,-0.378199,-0.657420,107.418245,67.117941,-112.766868
53187,-9.030242,4.090957,-1.203122,-0.233737,-0.352395,0.164782,0.094743,0.017794,0.021593,-0.090308,0.040906,-0.012004,1.000000,0.000474,0.000089,0.000108,-0.098205,0.644300,-0.378596,-0.657189,107.488377,67.104381,-112.752269
53188,-8.994438,4.186739,-1.292804,-0.232505,-0.483372,0.177925,0.050666,0.035399,0.020489,-0.089951,0.041861,-0.012902,1.000000,0.000253,0.000177,0.000102,-0.098257,0.644350,-0.378852,-0.656985,107.556304,67.088442,-112.712632
53189,-9.100473,4.401125,-0.916790,-0.641989,-0.356125,0.311049,0.009419,0.023985,0.002842,-0.091006,0.044010,-0.009155,1.000000,0.000047,0.000120,0.000014,-0.098255,0.644417,-0.378911,-0.656886,107.593138,67.084030,-112.681102
53190,-9.144315,4.196437,-0.894578,-0.525777,-0.185703,0.272843,-0.162606,0.022350,-0.025085,-0.091439,0.041969,-0.008970,1.000000,-0.000813,0.000112,-0.000125,-0.097794,0.644615,-0.378313,-0.657105,107.540611,67.095229,-112.639574
53191,-9.157123,4.132537,-1.202822,-0.242774,-0.335282,0.297020,-0.315015,0.048306,-0.079448,-0.091558,0.041343,-0.012071,0.999999,-0.001575,0.000242,-0.000397,-0.096970,0.645075,-0.377052,-0.657501,107.456638,67.131595,-112.537388
53192,-9.136213,3.885464,-1.176109,-0.112883,-0.163259,0.182864,-0.343913,0.080046,-0.113114,-0.091345,0.038886,-0.011791,0.999998,-0.001720,0.000400,-0.000566,-0.096104,0.645714,-0.375601,-0.657831,107.411032,67.181047,-112.375647
53193,-8.940928,3.945096,-0.948364,-0.356238,-0.143557,-0.001681,-0.424675,0.142678,-0.128694,-0.089391,0.039488,-0.009504,0.999997,-0.002123,0.000713,-0.000643,-0.094910,0.646625,-0.373863,-0.658099,107.407358,67.228214,-112.118260
53194,-9.178829,3.829568,-0.793243,-0.377638,0.108923,0.156828,-0.480279,0.209271,-0.167319,-0.091765,0.038353,-0.007928,0.999996,-0.002401,0.001046,-0.000837,-0.093539,0.647849,-0.371846,-0.658234,107.475078,67.285096,-111.749039
53195,-9.316289,3.108420,-1.846536,0.894315,0.015858,0.140460,-0.272242,0.124407,-0.169406,-0.093148,0.031138,-0.018450,0.999999,-0.001361,0.000622,-0.000847,-0.093006,0.648698,-0.370466,-0.658253,107.553198,67.357466,-111.497927
53196,-8.939235,2.407896,-2.276149,1.594751,0.108626,-0.414086,-0.109159,0.005949,-0.099599,-0.089381,0.024111,-0.022772,1.000000,-0.000546,0.000030,-0.000498,-0.092991,0.648950,-0.369793,-0.658385,107.541232,67.412211,-111.445722
53197,-8.795468,2.328832,-2.255757,1.601730,0.119427,-0.577302,0.144058,-0.023690,-0.052743,-0.087946,0.023328,-0.022551,1.000000,0.000720,-0.000118,-0.000264,-0.093698,0.648900,-0.370091,-0.658166,107.616200,67.446398,-111.456480
53198,-8.602201,3.275012,-1.243555,0.197375,-0.004396,-0.526623,0.399620,0.035636,-0.025809,-0.086020,0.032786,-0.012355,0.999998,0.001998,0.000178,-0.000129,-0.095036,0.648874,-0.371345,-0.657293,107.904343,67.455616,-111.394988
53199,-8.347532,4.771153,-0.959538,-0.980154,-0.973278,-0.249323,-0.128501,0.170303,-0.013371,-0.083480,0.047711,-0.009555,0.999999,-0.000643,0.000852,-0.000067,-0.094370,0.649517,-0.370967,-0.656968,108.061553,67.434068,-111.147631
53200,-9.096408,3.968740,-2.011451,0.427720,-0.769395,0.275253,-0.331605,0.294140,0.004050,-0.090994,0.039652,-0.020046,0.999998,-0.001658,0.001471,0.000020,-0.092756,0.650628,-0.370035,-0.656623,108.256170,67.380706,-110.733635
53201,-9.307822,4.314623,-1.825068,0.095610,-0.811245,0.575533,-0.130924,0.193159,0.036739,-0.093104,0.043117,-0.018189,0.999999,-0.000655,0.000966,0.000184,-0.091874,0.651252,-0.369821,-0.656249,108.418793,67.327173,-110.478738
53202,-8.965310,2.861165,-2.452724,1.416538,-0.264487,-0.194874,-0.361658,0.265996,0.106328,-0.089701,0.028520,-0.024460,0.999997,-0.001808,0.001330,0.000532,-0.089879,0.652090,-0.369108,-0.656094,108.512188,67.222484,-110.155415
53203,-9.318718,2.203776,-1.170900,0.841271,1.125413,-0.268485,0.135439,0.196353,0.116817,-0.093211,0.021991,-0.011603,0.999999,0.000677,0.000982,0.000584,-0.089597,0.652455,-0.370028,-0.655251,108.793968,67.124348,-109.936486
53204,-9.388801,2.836188,0.073581,-0.520469,1.471463,-0.129567,0.322404,0.112228,0.108150,-0.093903,0.028310,0.000834,0.999998,0.001612,0.000561,0.000541,-0.090109,0.652475,-0.371493,-0.654332,109.076574,67.046240,-109.832809
53205,-9.241599,3.568244,-0.221367,-0.752035,0.734167,0.040432,-0.159928,0.072727,0.061440,-0.092428,0.035652,-0.002209,1.000000,-0.000800,0.000364,0.000307,-0.089274,0.652668,-0.371209,-0.654414,109.052512,67.000658,-109.762024
53206,-9.532518,3.093613,-0.764960,0.000376,0.853558,0.202099,-0.111813,0.067700,-0.010455,-0.095326,0.030937,-0.007635,1.000000,-0.000559,0.000338,-0.000052,-0.088840,0.652957,-0.370846,-0.654392,109.080993,66.995019,-109.664078
53207,-9.463276,4.013208,-0.382858,-0.861733,0.402672,0.429444,-0.020181,-0.073354,-0.034265,-0.094624,0.040148,-0.003867,1.000000,-0.000101,-0.000367,-0.000171,-0.089045,0.652787,-0.370642,-0.654649,108.992626,67.028604,-109.750115
53208,-8.899942,3.468801,-0.358072,-0.622181,0.587769,-0.292332,-0.243289,-0.059397,-0.034738,-0.088992,0.034699,-0.003649,0.999999,-0.001216,-0.000297,-0.000174,-0.088497,0.652762,-0.369712,-0.655273,108.793994,67.059825,-109.817039
53209,-9.167128,3.615965,0.545938,-1.381531,1.113764,-0.103908,-0.068115,-0.088752,-0.032437,-0.091668,0.036176,0.005406,1.000000,-0.000341,-0.000444,-0.000162,-0.088568,0.652559,-0.369350,-0.655670,108.656864,67.095073,-109.926148
53210,-8.595209,3.890511,-0.139980,-1.068314,0.285521,-0.441965,-0.330254,-0.109875,-0.025792,-0.085946,0.038914,-0.001511,0.999998,-0.001651,-0.000549,-0.000129,-0.087801,0.652390,-0.368140,-0.656621,108.338868,67.130428,-110.068517
53211,-8.750429,4.211435,-0.758996,-0.734008,-0.269706,-0.103375,-0.408103,0.010602,-0.034648,-0.087497,0.042114,-0.007671,0.999998,-0.002041,0.000053,-0.000173,-0.086586,0.652664,-0.366698,-0.657317,108.135006,67.148707,-110.038584
53212,-8.935089,4.768005,-0.438580,-1.278258,-0.423665,0.234628,-0.546077,0.013729,-0.042679,-0.089341,0.047687,-0.004510,0.999996,-0.002730,0.000069,-0.000213,-0.084942,0.653019,-0.364774,-0.658249,107.859336,67.170898,-110.000798
53213,-9.182665,3.719617,-0.633889,-0.455221,0.290806,0.100277,-0.711174,0.057784,-0.042775,-0.091821,0.037193,-0.006445,0.999994,-0.003556,0.000289,-0.000214,-0.082677,0.653582,-0.362323,-0.659331,107.545976,67.185482,-109.901268
53214,-9.048136,2.259891,-1.280918,0.910448,0.910467,-0.487520,-0.720336,0.049965,-0.064181,-0.090477,0.022582,-0.012868,0.999993,-0.003602,0.000250,-0.000321,-0.080466,0.654154,-0.359763,-0.660438,107.225856,67.213381,-109.803406
53215,-8.776351,2.513330,-1.637515,1.021428,0.416734,-0.603690,-0.295648,0.079274,-0.067677,-0.087761,0.025139,-0.016378,0.999999,-0.001478,0.000396,-0.000338,-0.079603,0.654653,-0.358604,-0.660678,107.188556,67.238303,-109.662725
53216,-8.807075,2.504201,-1.622978,1.017811,0.441612,-0.580207,-0.234181,0.074137,-0.064127,-0.088069,0.025051,-0.016226,0.999999,-0.001171,0.000371,-0.000321,-0.078938,0.655104,-0.357656,-0.660826,107.178502,67.262215,-109.530719
53217,-8.671914,2.173916,-2.580865,1.959304,0.081509,-0.716351,0.015461,0.080160,-0.062694,-0.086723,0.021768,-0.025772,1.000000,0.000077,0.000401,-0.000313,-0.079075,0.655472,-0.357540,-0.660507,107.318990,67.284241,-109.390594
53218,-9.112130,3.230949,-1.394274,0.435961,0.155407,-0.055653,0.564217,0.004189,0.033494,-0.091127,0.032333,-0.013850,0.999996,0.002821,0.000021,0.000167,-0.080829,0.655198,-0.359520,-0.659491,107.635442,67.266577,-109.400575
53219,-8.886366,3.139218,-1.397610,0.448893,0.144890,-0.296754,0.658840,-0.104049,0.093078,-0.088871,0.031397,-0.013919,0.999994,0.003294,-0.000520,0.000465,-0.082889,0.654415,-0.361959,-0.658677,107.840354,67.235302,-109.590308
53220,-8.519873,3.876956,-1.215003,-0.187897,-0.407817,-0.384346,0.866183,-0.175753,0.104793,-0.085208,0.038777,-0.012057,0.999990,0.004331,-0.000879,0.000524,-0.085719,0.653279,-0.365085,-0.657717,108.065924,67.210587,-109.886510
53221,-8.380793,4.577675,-0.689643,-1.052380,-0.637377,-0.317709,0.725407,-0.154854,0.116399,-0.083829,0.045753,-0.006795,0.999993,0.003627,-0.000774,0.000582,-0.088010,0.652239,-0.367788,-0.656940,108.233277,67.176210,-110.158449
53222,-8.820838,4.195015,-0.755437,-0.722763,-0.228980,-0.045335,0.477164,-0.098857,0.101463,-0.088226,0.041923,-0.007498,0.999997,0.002386,-0.000494,0.000507,-0.089437,0.651513,-0.369648,-0.656423,108.337218,67.140149,-110.344913
53223,-9.020093,4.028226,-0.891155,-0.490027,-0.112828,0.093370,0.153132,-0.084379,0.050417,-0.090207,0.040266,-0.008919,1.000000,0.000766,-0.000422,0.000252,-0.089949,0.651072,-0.370283,-0.656433,108.296174,67.129260,-110.487252
53224,-9.202376,3.190200,-0.816862,-0.015692,0.591815,-0.056773,0.059526,-0.109029,0.021475,-0.092023,0.031895,-0.008209,1.000000,0.000298,-0.000545,0.000107,-0.090297,0.650645,-0.370506,-0.656683,108.181985,67.138492,-110.650785
53225,-9.412566,3.779576,-0.556380,-0.538835,0.401454,0.323369,0.198485,-0.195975,-0.003516,-0.094120,0.037803,-0.005619,0.999999,0.000992,-0.000980,-0.000018,-0.091340,0.649916,-0.371064,-0.656946,108.045402,67.176661,-110.924999
53226,-9.177948,4.082021,-0.793351,-0.553999,-0.052900,0.247992,0.082723,-0.299756,0.015675,-0.091771,0.040816,-0.008054,0.999999,0.000414,-0.001499,0.000078,-0.092136,0.648861,-0.371256,-0.657769,107.698898,67.222186,-111.354878
53227,-9.278167,3.988824,-0.928603,-0.357977,-0.048335,0.322739,0.195934,-0.357214,0.030367,-0.092771,0.039883,-0.009413,0.999998,0.000980,-0.001786,0.000152,-0.093357,0.647536,-0.371839,-0.658572,107.334801,67.268544,-111.873930
53228,-8.938631,4.231669,-0.086719,-1.192524,0.158006,0.003958,-0.011842,-0.278722,0.029747,-0.089391,0.042303,-0.000994,0.999999,-0.000059,-0.001394,0.000149,-0.093762,0.646565,-0.371772,-0.659506,106.952941,67.300690,-112.283130
53229,-8.833424,4.665557,-0.711706,-0.962319,-0.578277,0.139339,-0.231440,-0.063363,0.028738,-0.088339,0.046635,-0.007199,0.999999,-0.001157,-0.000317,0.000144,-0.093060,0.646408,-0.371079,-0.660149,106.727281,67.296780,-112.386661
53230,-8.865785,5.106062,-0.844374,-1.108795,-0.959900,0.347831,-0.117212,0.059401,0.065200,-0.088677,0.051027,-0.008447,1.000000,-0.000586,0.000297,0.000326,-0.092378,0.646535,-0.370937,-0.660201,106.713719,67.252567,-112.331142
53231,-9.738327,5.727174,0.112308,-2.100304,-0.493557,1.277544,0.245233,-0.086490,0.144229,-0.097425,0.057200,0.001151,0.999999,0.001226,-0.000432,0.000721,-0.092877,0.645865,-0.372179,-0.660087,106.685973,67.188945,-112.516196
53232,-10.251818,5.306720,0.361429,-1.953831,0.156421,1.569303,0.349616,-0.218652,0.208312,-0.102577,0.052954,0.003595,0.999997,0.001748,-0.001093,0.001042,-0.093748,0.644589,-0.373910,-0.660233,106.521874,67.111721,-112.914231
53233,-9.860541,4.587780,-2.357509,0.564858,-1.138427,1.242661,0.492146,-0.352809,0.271809,-0.098626,0.045802,-0.023636,0.999994,0.002461,-0.001764,0.001359,-0.095118,0.642679,-0.376249,-0.660570,106.242880,67.020595,-113.525885
53234,-8.733632,3.674505,-1.616318,0.384864,-0.438505,-0.218399,0.776508,-0.376140,0.291992,-0.087359,0.036680,-0.016185,0.999990,0.003883,-0.001881,0.001460,-0.097379,0.640508,-0.379576,-0.660446,106.092659,66.921273,-114.175139
53235,-8.229133,5.211121,0.390804,-2.177801,-0.412460,-0.319840,0.304165,-0.167669,0.250740,-0.082360,0.052002,0.003918,0.999998,0.001521,-0.000838,0.001254,-0.097863,0.639327,-0.381306,-0.660522,105.959115,66.810943,-114.512153
53236,-8.768801,5.662304,-3.239717,0.469237,-2.798182,0.741880,-0.823619,-0.015518,0.264084,-0.087760,0.056373,-0.032636,0.999991,-0.004118,-0.000078,0.001320,-0.094409,0.639167,-0.379426,-0.662261,105.373642,66.669005,-114.638372
53237,-9.173696,6.810945,-1.333865,-1.585499,-2.254180,1.355551,-0.380506,-0.044333,0.245987,-0.091818,0.067971,-0.013488,0.999997,-0.001903,-0.000222,0.001230,-0.092484,0.638728,-0.378938,-0.663234,105.014746,66.540780,-114.794488
53238,-8.202445,4.253363,-1.580346,0.035115,-0.970455,-0.489300,-0.442146,-0.038312,0.271036,-0.082079,0.042387,-0.015913,0.999997,-0.002211,-0.000192,0.001355,-0.090268,0.638287,-0.378325,-0.664313,104.622835,66.397609,-114.948238
53239,-7.959979,1.014981,-2.051100,2.341211,0.925249,-1.922121,-0.154533,0.011467,0.332076,-0.079618,0.010002,-0.020514,0.999998,-0.000773,0.000057,0.001660,-0.088671,0.637762,-0.378883,-0.664713,104.441145,66.212897,-115.052444
53240,-9.040843,-0.307501,-2.985892,4.067579,1.688049,-1.365666,0.124639,0.048573,0.378268,-0.090410,-0.003227,-0.029839,0.999998,0.000623,0.000243,0.001891,-0.087742,0.637148,-0.380531,-0.664484,104.452705,65.997414,-115.120517
53241,-9.931592,1.600416,-1.663074,2.055515,1.529461,0.056417,0.613685,-0.051126,0.350245,-0.099340,0.015881,-0.016607,0.999994,0.003068,-0.000256,0.001751,-0.088651,0.636037,-0.383668,-0.663625,104.629620,65.811740,-115.314388
53242,-8.263718,3.526289,-0.930335,0.036018,0.061573,-0.780294,0.679820,-0.145648,0.310207,-0.082685,0.035166,-0.009244,0.999993,0.003399,-0.000728,0.001551,-0.090085,0.634650,-0.386849,-0.662912,104.741463,65.662307,-115.621573
53243,-8.100601,4.238301,-1.456322,-0.017266,-0.790186,-0.588857,0.370078,-0.026760,0.331470,-0.081074,0.042276,-0.014496,0.999997,0.001850,-0.000134,0.001657,-0.090234,0.633749,-0.389121,-0.662423,104.815622,65.483819,-115.775573
53244,-8.840103,4.955345,-0.667405,-0.922078,-0.478182,0.290250,0.213964,-0.037066,0.285364,-0.088470,0.049434,-0.006638,0.999998,0.001070,-0.000185,0.001427,-0.090062,0.632971,-0.390724,-0.662247,104.803452,65.332519,-115.926403
53245,-7.960253,6.319904,-0.630068,-1.932504,-1.691681,0.041620,-0.197118,0.032037,0.224590,-0.079674,0.063103,-0.006350,0.999999,-0.000986,0.000160,0.001123,-0.088653,0.632724,-0.390803,-0.662626,104.659459,65.204621,-115.963205
53246,-7.737970,6.439601,-1.303168,-1.495683,-2.274157,-0.033430,-0.767685,0.194326,0.198560,-0.077456,0.064269,-0.013203,0.999992,-0.003838,0.000972,0.000993,-0.085209,0.633313,-0.388977,-0.663590,104.392027,65.067904,-115.775802
53247,-8.555042,4.764296,-1.936764,0.205196,-1.208446,0.093657,-1.126110,0.290062,0.175002,-0.085620,0.047458,-0.019511,0.999983,-0.005631,0.001450,0.000875,-0.080518,0.634401,-0.385920,-0.664920,104.040872,64.931040,-115.453943
53248,-8.966582,3.142722,-2.183896,1.478733,-0.067576,-0.176591,-1.119239,0.303844,0.120586,-0.089718,0.031251,-0.021878,0.999983,-0.005596,0.001519,0.000603,-0.076002,0.635616,-0.382704,-0.666148,103.726044,64.823529,-115.096022
53249,-8.789102,2.383980,-2.339411,2.038092,0.323667,-0.639583,-0.978290,0.318781,0.106528,-0.087941,0.023679,-0.023370,0.999987,-0.004891,0.001594,0.000533,-0.071948,0.636835,-0.379908,-0.667034,103.513217,64.722337,-114.714285
53250,-9.274426,1.500995,-3.134253,3.280054,0.690018,-0.493005,-0.764382,0.336923,0.114813,-0.092805,0.014837,-0.031243,0.999991,-0.003822,0.001685,0.000574,-0.068513,0.638008,-0.377848,-0.667444,103.440827,64.614706,-114.312468
53251,-9.049642,1.317394,-2.457910,2.804070,1.165825,-0.843248,-0.289173,0.286904,0.095540,-0.090538,0.013095,-0.024468,0.999998,-0.001446,0.001435,0.000478,-0.066752,0.638881,-0.377293,-0.667102,103.585956,64.524248,-113.970951
53252,-8.502092,2.203252,-2.630250,2.330605,0.249038,-0.949037,-0.033737,0.292522,0.094563,-0.085070,0.021988,-0.026182,0.999999,-0.000169,0.001463,0.000473,-0.065799,0.639687,-0.377587,-0.666257,103.882100,64.433158,-113.624012
53253,-8.565480,2.930320,-1.930688,1.348235,0.196920,-0.657079,0.175059,0.315708,0.110767,-0.085701,0.029273,-0.019146,0.999998,0.000875,0.001579,0.000554,-0.065416,0.640470,-0.378635,-0.664947,104.317748,64.328768,-113.254779
53254,-8.704320,3.691155,-1.693741,0.723458,-0.117284,-0.235563,0.209823,0.335358,0.093770,-0.087089,0.036888,-0.016753,0.999998,0.001049,0.001677,0.000469,-0.065164,0.641335,-0.379749,-0.663501,104.797460,64.229809,-112.858400
53255,-8.818527,4.284480,-0.950664,-0.220700,-0.025291,0.035027,0.214149,0.331202,0.038206,-0.088209,0.042838,-0.009315,0.999998,0.001071,0.001656,0.000191,-0.065117,0.642289,-0.380696,-0.662038,105.289262,64.160663,-112.451103
53256,-8.491897,4.792752,-0.762988,-0.744808,-0.381579,-0.067713,0.068674,0.319783,-0.004553,-0.084930,0.047932,-0.007478,0.999999,0.000343,0.001599,-0.000023,-0.064766,0.643331,-0.381019,-0.660874,105.695787,64.115582,-112.045711
53257,-8.619194,5.309298,-0.652632,-1.131311,-0.612945,0.249592,-0.122549,0.321698,-0.031669,-0.086194,0.053103,-0.006420,0.999999,-0.000613,0.001608,-0.000158,-0.063886,0.644492,-0.380623,-0.660056,106.002787,64.083939,-111.629063
53258,-8.646392,5.250186,-0.706285,-1.064190,-0.584710,0.254536,-0.349134,0.327964,-0.065580,-0.086458,0.052518,-0.007013,0.999997,-0.001746,0.001640,-0.000328,-0.062376,0.645807,-0.379370,-0.659637,106.197140,64.069281,-111.193200
53259,-8.595595,3.795834,-1.196687,0.143695,0.139968,-0.342501,-0.535354,0.404299,-0.077562,-0.085965,0.037960,-0.011895,0.999994,-0.002677,0.002021,-0.000388,-0.060158,0.647450,-0.377485,-0.659314,106.374919,64.048193,-110.657073
53260,-9.119233,2.993570,-1.096248,0.582257,0.989094,-0.220698,-0.396000,0.384087,-0.111122,-0.091197,0.029965,-0.010847,0.999996,-0.001980,0.001920,-0.000556,-0.058540,0.649041,-0.375941,-0.658778,106.620283,64.048101,-110.134510
53261,-8.915017,3.195807,-1.005144,0.342229,0.821223,-0.330628,-0.318857,0.334856,-0.113787,-0.089149,0.031993,-0.009953,0.999997,-0.001594,0.001674,-0.000569,-0.057272,0.650448,-0.374625,-0.658250,106.855598,64.056516,-109.672319
53262,-9.010050,2.899534,-1.745709,1.105142,0.659433,-0.274367,-0.272053,0.335625,-0.099812,-0.090115,0.029017,-0.017345,0.999998,-0.001360,0.001678,-0.000499,-0.056110,0.651814,-0.373507,-0.657634,107.113659,64.056394,-109.214649
53263,-9.407054,3.063492,-1.254337,0.645702,0.992469,0.089283,0.009952,0.277461,-0.111885,-0.094071,0.030688,-0.012411,0.999999,0.000050,0.001387,-0.000559,-0.056014,0.652931,-0.373260,-0.656674,107.472531,64.071609,-108.824610
53264,-9.153876,3.680619,-0.858319,-0.086434,0.674633,0.067316,0.128566,0.206400,-0.122194,-0.091525,0.036868,-0.008465,0.999999,0.000643,0.001032,-0.000611,-0.056473,0.653798,-0.373347,-0.655722,107.823447,64.103836,-108.519021
53265,-9.046017,4.436641,-0.671941,-0.705030,0.196665,0.258555,0.160813,0.168329,-0.134104,-0.090436,0.044432,-0.006608,0.999999,0.000804,0.000842,-0.000671,-0.057146,0.654553,-0.373490,-0.654828,108.155567,64.148422,-108.254991
53266,-8.943730,4.997438,-0.445204,-1.243530,-0.120426,0.365819,0.024374,0.148741,-0.154687,-0.089402,0.050044,-0.004379,0.999999,0.000122,0.000744,-0.000773,-0.057478,0.655320,-0.373112,-0.654247,108.395839,64.207222,-108.006233
53267,-8.938694,4.527640,-0.945918,-0.589860,-0.073971,0.234258,-0.147866,0.189445,-0.156054,-0.089361,0.045339,-0.009408,0.999999,-0.000739,0.000947,-0.000780,-0.057173,0.656272,-0.372178,-0.653852,108.585002,64.258881,-107.704782
53268,-9.098480,4.278246,-0.588147,-0.739033,0.365733,0.224826,-0.089648,0.196444,-0.182080,-0.090952,0.042863,-0.005811,0.999999,-0.000448,0.000982,-0.000910,-0.057131,0.657276,-0.371350,-0.653317,108.826211,64.322967,-107.382713
53269,-8.607121,4.149137,-0.166753,-1.091651,0.480963,-0.330988,-0.245840,0.157430,-0.206840,-0.086030,0.041578,-0.001651,0.999998,-0.001229,0.000787,-0.001034,-0.056729,0.658242,-0.369918,-0.653192,108.944997,64.407189,-107.097388
53270,-8.937375,3.546106,-1.200533,0.122007,0.463767,-0.134731,-0.397488,0.207425,-0.181541,-0.089354,0.035518,-0.011983,0.999997,-0.001987,0.001037,-0.000908,-0.055653,0.659364,-0.368087,-0.653187,109.024617,64.468255,-106.759320
53271,-9.694887,3.446831,-1.444187,0.456057,0.706415,0.543476,-0.098994,0.169851,-0.176498,-0.096931,0.034547,-0.014377,0.999999,-0.000495,0.000849,-0.000882,-0.055612,0.660269,-0.367235,-0.652755,109.231966,64.533205,-106.469407
53272,-9.509520,3.839757,-1.079814,-0.107536,0.541317,0.484694,0.240966,0.090195,-0.159710,-0.095069,0.038486,-0.010709,0.999999,0.001205,0.000451,-0.000799,-0.056786,0.660788,-0.367526,-0.651966,109.538101,64.603744,-106.285944
53273,-9.035525,4.264840,-0.927392,-0.557086,0.122928,0.205500,0.504224,0.101389,-0.108952,-0.090337,0.042721,-0.009120,0.999997,0.002521,0.000507,-0.000545,-0.058644,0.661171,-0.368844,-0.650667,109.988607,64.644168,-106.109733
53274,-8.974412,4.795237,-0.991225,-0.847955,-0.309470,0.370728,0.702685,0.089523,-0.022075,-0.089743,0.047997,-0.009704,0.999994,0.003513,0.000448,-0.000110,-0.060896,0.661291,-0.371087,-0.649061,110.503712,64.639662,-105.987884
53275,-8.810519,4.811592,-1.312022,-0.651549,-0.549981,0.275471,0.799998,-0.001355,0.089486,-0.088127,0.048128,-0.012928,0.999992,0.004000,-0.000007,0.000447,-0.063275,0.660870,-0.373982,-0.647599,110.924179,64.593295,-106.032478
53276,-8.514682,5.147267,-0.960724,-1.191080,-0.686476,0.088178,0.686587,-0.018199,0.175037,-0.085191,0.051431,-0.009438,0.999994,0.003433,-0.000091,0.000875,-0.065034,0.660261,-0.376782,-0.646422,111.223115,64.504845,-106.139721
53277,-8.956911,5.439688,-1.327303,-1.032239,-0.892909,0.661820,0.438161,0.048683,0.168365,-0.089618,0.054350,-0.013132,0.999997,0.002191,0.000243,0.000842,-0.065867,0.659955,-0.378775,-0.645485,111.456916,64.406138,-106.161475
53278,-9.101096,5.368902,-1.780208,-0.619114,-1.023231,0.835968,0.085100,0.054436,0.119920,-0.091048,0.053642,-0.017754,1.000000,0.000425,0.000272,0.000600,-0.065680,0.659873,-0.379470,-0.645179,111.515502,64.332164,-106.153222
53279,-9.024219,4.636968,-1.646586,-0.299440,-0.453247,0.451529,-0.496943,0.140277,0.056146,-0.090267,0.046303,-0.016518,0.999997,-0.002485,0.000701,0.000281,-0.063615,0.660379,-0.378103,-0.645671,111.363625,64.274108,-106.008422
53280,-9.599445,3.648848,-1.220637,0.013534,0.729304,0.503383,-0.674278,0.170692,-0.056313,-0.095995,0.036474,-0.012247,0.999994,-0.003371,0.000853,-0.000282,-0.061270,0.661245,-0.375799,-0.646356,111.192497,64.270066,-105.772184
53281,-9.389827,2.201497,-2.397929,1.783108,1.001958,-0.087355,-0.805351,0.135099,-0.124730,-0.093901,0.021977,-0.024004,0.999991,-0.004027,0.000675,-0.000624,-0.058779,0.662155,-0.372829,-0.647375,110.936221,64.310200,-105.547116
53282,-8.949702,1.329326,-2.553287,2.360111,1.357486,-0.814317,-0.662815,0.108132,-0.151146,-0.089501,0.013276,-0.025528,0.999994,-0.003314,0.000541,-0.000756,-0.056895,0.662976,-0.370219,-0.648200,110.742874,64.370475,-105.342949
53283,-8.179853,1.638997,-1.940851,1.590236,1.158851,-1.476537,-0.538082,0.293200,-0.163416,-0.081814,0.016405,-0.019333,0.999995,-0.002690,0.001466,-0.000817,-0.055120,0.664377,-0.368021,-0.648171,110.833342,64.399700,-104.903374
53284,-8.663311,2.164668,-1.337584,0.835818,1.317874,-0.919294,0.027733,0.228857,-0.122964,-0.086635,0.021702,-0.013274,0.999999,0.000139,0.001144,-0.000615,-0.055212,0.665335,-0.367772,-0.647321,111.159330,64.419873,-104.562195
53285,-8.448345,3.298583,-1.016252,-0.102426,0.585219,-0.705823,0.128054,0.011612,-0.044217,-0.084477,0.033011,-0.010136,1.000000,0.000640,0.000058,-0.000221,-0.055783,0.665417,-0.368048,-0.647030,111.266770,64.442438,-104.527093
53286,-8.369572,4.369049,-0.498381,-1.142872,0.063328,-0.427777,0.286082,-0.104374,0.003493,-0.083694,0.043696,-0.004965,0.999999,0.001430,-0.000522,0.000017,-0.056939,0.664991,-0.368962,-0.646848,111.314367,64.463670,-104.658658
53287,-8.584949,4.922357,0.138416,-1.954866,0.107218,-0.111290,0.198780,-0.105501,0.005105,-0.085851,0.049220,0.001388,0.999999,0.000994,-0.000528,0.000026,-0.057801,0.664582,-0.369598,-0.646829,111.310015,64.484275,-104.792354
53288,-9.230302,4.855437,0.307865,-1.978107,0.510173,0.419385,-0.203319,-0.117557,-0.059483,-0.092290,0.048585,0.002975,0.999999,-0.001017,-0.000588,-0.000297,-0.057558,0.664368,-0.368715,-0.647573,111.089414,64.541790,-104.910328
53289,-9.502558,3.257694,-0.716083,-0.192485,1.186832,0.186225,-0.504638,-0.152743,-0.141112,-0.094997,0.032626,-0.007316,0.999996,-0.002523,-0.000764,-0.000706,-0.056642,0.664275,-0.366573,-0.648964,110.690577,64.649885,-105.034409
53290,-9.609748,3.005531,-1.004828,0.212491,1.225471,0.229380,-0.516237,-0.116611,-0.247870,-0.096054,0.030148,-0.010182,0.999996,-0.002581,-0.000583,-0.001239,-0.055968,0.664492,-0.364047,-0.650221,110.369490,64.807694,-105.065031
53291,-9.626079,2.140069,-1.496708,1.107569,1.561463,-0.024099,-0.393834,-0.122990,-0.304779,-0.096219,0.021518,-0.015069,0.999997,-0.001969,-0.000615,-0.001524,-0.055898,0.664753,-0.361724,-0.651256,110.133435,64.997298,-105.079154
53292,-9.053534,3.064955,-1.434802,0.484775,0.648711,-0.181326,-0.215739,-0.207119,-0.338661,-0.090468,0.030787,-0.014475,0.999997,-0.001079,-0.001036,-0.001693,-0.056681,0.664748,-0.359844,-0.652234,109.914414,65.221618,-105.186966
53293,-8.708984,3.442526,-0.889470,-0.210560,0.492751,-0.421132,0.034016,-0.215587,-0.284093,-0.087031,0.034550,-0.008983,0.999998,0.000170,-0.001078,-0.001420,-0.058131,0.664544,-0.358955,-0.652804,109.803108,65.418087,-105.333546
53294,-8.346566,4.610711,-0.415222,-1.287720,-0.282784,-0.359753,0.102968,-0.245534,-0.214944,-0.083411,0.046199,-0.004231,0.999999,0.000515,-0.001228,-0.001075,-0.059639,0.664095,-0.358511,-0.653368,109.664446,65.582884,-105.553384
53295,-8.309383,5.001385,-0.914495,-1.094449,-0.882857,-0.173253,0.056376,-0.201937,-0.162385,-0.083044,0.050084,-0.009215,0.999999,0.000282,-0.001010,-0.000812,-0.060742,0.663707,-0.358102,-0.653885,109.526487,65.710748,-105.742893
53296,-8.792774,4.798180,-0.897439,-0.931800,-0.555013,0.185535,-0.133996,-0.236881,-0.093650,-0.087895,0.048017,-0.009111,0.999999,-0.000670,-0.001184,-0.000468,-0.061050,0.663139,-0.357287,-0.654879,109.206501,65.807750,-106.012240
53297,-8.656608,3.069005,-1.547130,0.563503,0.286701,-0.520246,-0.255429,-0.211599,-0.129781,-0.086530,0.030726,-0.015602,0.999998,-0.001277,-0.001058,-0.000649,-0.061029,0.662752,-0.355961,-0.655993,108.860023,65.918961,-106.234146
53298,-8.739327,1.450776,-3.181283,2.827437,0.600302,-0.854655,-0.165420,-0.133250,-0.150888,-0.087361,0.014547,-0.031883,0.999999,-0.000827,-0.000666,-0.000754,-0.061236,0.662632,-0.354884,-0.656678,108.667065,66.026746,-106.344251
53299,-9.022108,1.821283,-1.951299,1.639440,1.090263,-0.612329,0.471795,-0.185253,-0.117099,-0.090192,0.018312,-0.019553,0.999997,0.002359,-0.000926,-0.000585,-0.063535,0.662082,-0.355994,-0.656413,108.760902,66.125749,-106.539938
53300,-9.118398,1.552716,-1.280687,1.242390,1.674655,-0.710587,0.655905,-0.205550,-0.116007,-0.091162,0.015622,-0.012849,0.999994,0.003280,-0.001028,-0.000580,-0.066476,0.661400,-0.357701,-0.655882,108.934506,66.228068,-106.763582
53301,-8.891738,2.113572,-2.468808,1.868947,0.487365,-0.544752,0.774892,-0.286735,-0.110871,-0.088870,0.021281,-0.024733,0.999991,0.003874,-0.001434,-0.000554,-0.069938,0.660392,-0.359783,-0.655398,109.073646,66.343080,-107.099182
53302,-7.926231,3.953898,-2.051180,0.350281,-1.017254,-0.784499,1.097051,-0.345327,-0.101526,-0.079207,0.039691,-0.020431,0.999983,0.005485,-0.001727,-0.000508,-0.074536,0.659047,-0.362923,-0.654514,109.319833,66.464445,-107.519052
53303,-8.012424,4.480651,-1.492036,-0.428888,-1.052323,-0.581766,1.075372,-0.202482,-0.007537,-0.080108,0.044889,-0.014760,0.999985,0.005377,-0.001012,-0.000038,-0.078494,0.657985,-0.366342,-0.653213,109.689696,66.508705,-107.790237
53304,-8.929360,5.347994,-0.795291,-1.419399,-0.907432,0.489191,1.125112,-0.176757,0.079074,-0.089308,0.053489,-0.007731,0.999984,0.005626,-0.000884,0.000395,-0.082282,0.656808,-0.370208,-0.651750,110.081447,66.501923,-108.068592
53305,-9.531094,5.193105,-0.331705,-1.648158,-0.270020,0.917210,1.039970,-0.274119,0.126649,-0.095339,0.051887,-0.003178,0.999985,0.005200,-0.001371,0.000633,-0.085815,0.655241,-0.373901,-0.650764,110.282588,66.489430,-108.501698
53306,-10.006079,5.240448,0.212529,-2.052065,0.224688,1.294409,1.197420,-0.536802,0.138640,-0.100103,0.052322,0.002170,0.999978,0.005987,-0.002684,0.000693,-0.090311,0.652705,-0.378019,-0.650325,110.243262,66.522807,-109.295266
53307,-10.263372,5.722309,-0.045713,-2.102401,-0.159367,1.747512,1.113741,-0.691842,0.116957,-0.102665,0.057166,-0.000494,0.999978,0.005569,-0.003459,0.000585,-0.094895,0.649715,-0.381707,-0.650512,109.971351,66.597564,-110.289782
53308,-10.400954,7.256679,0.596824,-3.514614,-0.763146,2.363539,0.848794,-0.696597,0.087825,-0.104062,0.072496,0.005914,0.999985,0.004244,-0.003483,0.000439,-0.098717,0.646866,-0.384423,-0.651182,109.550150,66.686525,-111.280918
53309,-10.121361,7.906634,-0.128955,-3.370562,-1.778575,2.453083,-0.003876,-0.576174,0.084465,-0.101243,0.079024,-0.001583,0.999996,-0.000019,-0.002881,0.000422,-0.099559,0.644824,-0.384404,-0.653088,108.787691,66.750575,-112.111092
53310,-8.729951,8.801835,-0.188458,-4.029338,-2.975806,1.528750,-0.568664,-0.441413,0.091973,-0.087335,0.087972,-0.002327,0.999993,-0.002843,-0.002207,0.000460,-0.098296,0.643482,-0.382628,-0.655641,107.865576,66.781442,-112.762609
53311,-7.738991,7.536659,-0.612569,-2.975516,-2.785135,0.210108,-1.447240,-0.206556,0.168009,-0.077446,0.075254,-0.006750,0.999973,-0.007236,-0.001033,0.000840,-0.093503,0.643174,-0.378319,-0.659135,106.707842,66.725949,-113.122694
53312,-7.733795,5.315709,-1.038409,-1.189763,-1.544740,-0.574498,-1.670280,0.043287,0.243552,-0.077405,0.052974,-0.010810,0.999964,-0.008351,0.000216,0.001218,-0.087267,0.643612,-0.373611,-0.662241,105.717181,66.586382,-113.161956
53313,-9.308774,3.230385,-2.150103,1.254703,-0.170965,0.192694,-1.385630,0.081528,0.344024,-0.093152,0.031994,-0.021685,0.999974,-0.006928,0.000408,0.001720,-0.081535,0.643824,-0.370163,-0.664697,104.908133,66.385086,-113.180978
53314,-9.791793,1.483148,-2.610056,2.775024,1.006801,-0.005718,-0.614892,-0.053492,0.404021,-0.097941,0.014553,-0.026172,0.999993,-0.003074,-0.000267,0.002020,-0.078335,0.643142,-0.369402,-0.666164,104.356632,66.170189,-113.401161
53315,-9.553676,0.526718,-0.462243,1.610627,2.901039,-0.826387,0.368823,-0.120104,0.363467,-0.095543,0.005102,-0.004670,0.999996,0.001844,-0.000601,0.001817,-0.078553,0.641921,-0.371758,-0.666005,104.302492,65.986633,-113.694084
53316,-9.857923,0.817297,-0.778864,1.772874,2.628244,-0.410431,0.884126,-0.320007,0.286503,-0.098578,0.008067,-0.007911,0.999988,0.004421,-0.001600,0.001433,-0.081053,0.639965,-0.375499,-0.665489,104.321847,65.874236,-114.230306
53317,-9.267882,3.294684,-2.211981,1.368498,-0.209564,0.173539,1.239662,-0.582189,0.239981,-0.092654,0.032973,-0.022185,0.999976,0.006198,-0.002911,0.001200,-0.085335,0.637057,-0.380153,-0.665102,104.236636,65.824523,-115.104690
53318,-7.446134,6.149229,-1.569420,-1.168490,-2.472948,-0.419070,1.284593,-0.568507,0.258086,-0.074496,0.061496,-0.015511,0.999975,0.006423,-0.002843,0.001290,-0.089669,0.634109,-0.385002,-0.664559,104.190870,65.762493,-115.964456
53319,-6.432188,7.142324,-1.553012,-1.983918,-3.494777,-0.944305,0.616779,-0.378140,0.306277,-0.064402,0.071372,-0.015432,0.999992,0.003084,-0.001891,0.001531,-0.091356,0.631978,-0.387856,-0.664699,103.985209,65.646264,-116.580306
53320,-6.983663,6.357202,-2.410164,-0.725494,-3.278244,-0.662765,-0.238904,-0.138907,0.344056,-0.069929,0.063423,-0.024226,0.999998,-0.001195,-0.000695,0.001720,-0.089749,0.630955,-0.388092,-0.665752,103.576263,65.475100,-116.881767
53321,-7.352091,4.122756,-2.440752,0.772407,-1.621672,-1.223102,-0.754463,0.069294,0.304489,-0.073592,0.041023,-0.024537,0.999992,-0.003772,0.000346,0.001522,-0.086241,0.630925,-0.386576,-0.667125,103.141461,65.297327,-116.887059
53322,-8.058094,1.784334,-2.599658,2.474972,0.175289,-1.523022,-0.902981,0.274436,0.282162,-0.080642,0.017612,-0.025966,0.999988,-0.004515,0.001372,0.001411,-0.081943,0.631674,-0.384575,-0.668113,102.878242,65.105739,-116.609721
53323,-9.259717,0.856216,-3.116654,3.676859,0.992761,-0.774772,-0.611971,0.269141,0.273600,-0.092651,0.008340,-0.031068,0.999993,-0.003060,0.001346,0.001368,-0.078599,0.632291,-0.383510,-0.668543,102.776799,64.919768,-116.337360
53324,-9.173444,1.542052,-2.261546,2.594122,1.043955,-0.657076,-0.084742,0.136178,0.238381,-0.091768,0.015302,-0.022559,0.999999,-0.000424,0.000681,0.001192,-0.077296,0.632320,-0.384040,-0.668364,102.827159,64.770617,-116.230720
53325,-8.308964,1.762177,-1.954839,2.064716,0.769631,-1.380005,0.152211,0.077754,0.204387,-0.083115,0.017552,-0.019503,0.999999,0.000761,0.000389,0.001022,-0.076966,0.632126,-0.385232,-0.667899,102.952430,64.647717,-116.191256
53326,-8.580019,2.294300,-2.470226,2.206244,0.210275,-0.864459,0.243219,0.121341,0.233346,-0.085842,0.022873,-0.024622,0.999998,0.001216,0.000607,0.001167,-0.076744,0.631985,-0.386835,-0.667131,103.172053,64.503093,-116.105022
53327,-9.386950,2.917580,-2.372281,1.906889,0.177202,0.116418,0.303772,0.165904,0.196232,-0.093918,0.029120,-0.023601,0.999998,0.001519,0.000830,0.000981,-0.076751,0.632039,-0.388539,-0.666088,103.486865,64.373006,-115.951639
53328,-8.517229,3.957912,-0.806868,-0.114943,0.112867,-0.387548,0.403932,0.174898,0.110757,-0.085201,0.039548,-0.007914,0.999997,0.002020,0.000874,0.000554,-0.077341,0.632248,-0.390307,-0.664787,103.891047,64.288967,-115.762627
53329,-8.176541,4.249114,-1.276203,-0.006290,-0.483051,-0.522585,0.089833,0.334417,0.081906,-0.081804,0.042463,-0.012606,0.999998,0.000449,0.001672,0.000410,-0.076722,0.633162,-0.391000,-0.663580,104.305657,64.198032,-115.362100
53330,-9.685438,3.541632,-1.286092,0.684159,0.612801,0.539183,-0.091015,0.372123,0.033468,-0.096884,0.035394,-0.012697,0.999998,-0.000455,0.001861,0.000167,-0.075618,0.634363,-0.390953,-0.662587,104.671370,64.127462,-114.900481
53331,-9.481545,3.434165,-0.722689,0.247677,0.969146,0.247870,-0.064564,0.282186,-0.075663,-0.094813,0.034375,-0.007104,0.999999,-0.000323,0.001411,-0.000378,-0.075134,0.635468,-0.390613,-0.661783,104.981260,64.129260,-114.517637
53332,-8.980512,4.895047,-0.837864,-0.644331,-0.293473,0.425075,-0.147656,0.246560,-0.121487,-0.089786,0.048999,-0.008304,0.999999,-0.000738,0.001233,-0.000607,-0.074608,0.636574,-0.389837,-0.661237,105.217010,64.161009,-114.164305
53333,-8.799749,5.546602,-0.638008,-1.235676,-0.693333,0.512031,-0.310133,0.239551,-0.151629,-0.087963,0.055523,-0.006361,0.999998,-0.001551,0.001198,-0.000758,-0.073677,0.637774,-0.388425,-0.661016,105.362088,64.209889,-113.808427
53334,-8.422077,5.603778,-0.934635,-1.107729,-1.075953,0.228353,-0.592885,0.258715,-0.186760,-0.084181,0.056089,-0.009404,0.999994,-0.002964,0.001294,-0.000934,-0.071924,0.639205,-0.385969,-0.661265,105.378892,64.275123,-113.415246
53335,-8.580436,4.096410,-1.069633,-0.088410,-0.065367,-0.245218,-0.806406,0.356282,-0.215231,-0.085779,0.041013,-0.010709,0.999990,-0.004032,0.001781,-0.001076,-0.069392,0.641080,-0.382747,-0.661594,105.395642,64.341091,-112.886589
53336,-9.210610,3.160075,-1.551223,0.938296,0.545165,-0.012173,-0.793639,0.339795,-0.233109,-0.092096,0.031647,-0.015481,0.999990,-0.003968,0.001699,-0.001166,-0.066991,0.642917,-0.379495,-0.661931,105.407787,64.419496,-112.371464
53337,-9.107540,3.732663,-1.667367,0.673932,0.026420,0.147497,-0.601465,0.267551,-0.245822,-0.091052,0.037388,-0.016664,0.999994,-0.003007,0.001338,-0.001229,-0.065385,0.644465,-0.376809,-0.662121,105.452660,64.515724,-111.942482
53338,-8.525398,4.212419,-1.618690,0.258212,-0.527494,-0.184494,-0.544990,0.260268,-0.242253,-0.085224,0.042183,-0.016191,0.999995,-0.002725,0.001301,-0.001211,-0.063963,0.645956,-0.374314,-0.662223,105.521965,64.611012,-111.522604
53339,-8.609499,3.212624,-1.886020,1.045243,0.056383,-0.490361,-0.550451,0.316622,-0.225642,-0.086089,0.032172,-0.018812,0.999994,-0.002752,0.001583,-0.001128,-0.062361,0.647598,-0.371869,-0.662150,105.650435,64.688043,-111.034111
53340,-9.016345,2.781634,-1.667183,1.155193,0.651560,-0.323092,-0.265241,0.282430,-0.206576,-0.090158,0.027887,-0.016581,0.999998,-0.001326,0.001412,-0.001033,-0.061684,0.648996,-0.370415,-0.661658,105.897892,64.759304,-110.595031
53341,-9.131337,3.308515,-1.311264,0.560334,0.521315,-0.042264,0.024938,0.245866,-0.194087,-0.091297,0.033175,-0.012996,0.999999,0.000125,0.001229,-0.000970,-0.061974,0.650159,-0.369951,-0.660749,106.266984,64.828397,-110.205553
53342,-9.451900,4.304757,-0.973344,-0.262034,0.126249,0.614778,0.328313,0.189285,-0.169824,-0.094492,0.043144,-0.009573,0.999998,0.001642,0.000946,-0.000849,-0.063275,0.650994,-0.370548,-0.659468,106.737099,64.892239,-109.896676
53343,-9.414161,5.297412,-0.997872,-0.849570,-0.610094,0.985026,0.599805,0.078336,-0.120996,-0.094113,0.053061,-0.009783,0.999995,0.002999,0.000392,-0.000605,-0.065503,0.651282,-0.372162,-0.658055,107.217561,64.946720,-109.748299
53344,-8.386368,5.818833,-0.402933,-1.812504,-1.038694,0.186722,0.479145,0.082735,-0.042479,-0.083853,0.058216,-0.003855,0.999997,0.002396,0.000414,-0.000212,-0.067071,0.651472,-0.373632,-0.656875,107.606028,64.957119,-109.625167
53345,-8.196961,5.371101,-0.815453,-1.277792,-1.015917,-0.115320,0.285110,0.202668,0.045678,-0.081990,0.053704,-0.007995,0.999998,0.001426,0.001013,0.000228,-0.067494,0.651954,-0.374792,-0.655691,107.990409,64.897958,-109.383797
53346,-8.506388,5.481240,-1.276338,-0.950826,-1.213885,0.269672,0.230068,0.242990,0.092639,-0.085105,0.054788,-0.012597,0.999998,0.001150,0.001215,0.000463,-0.067507,0.652497,-0.375936,-0.654494,108.370315,64.805456,-109.112369
53347,-8.814177,5.516454,-1.354313,-0.883948,-1.133840,0.574233,0.042246,0.269773,0.127449,-0.088195,0.055111,-0.013413,0.999999,0.000211,0.001349,0.000637,-0.066743,0.653124,-0.376588,-0.653572,108.657885,64.688348,-108.823812
53348,-9.106297,5.683085,-1.546100,-0.795575,-1.221472,0.933826,-0.154399,0.264485,0.085138,-0.091108,0.056780,-0.015384,0.999999,-0.000772,0.001322,0.000426,-0.065485,0.653876,-0.376456,-0.653023,108.840755,64.594816,-108.526188
53349,-8.944429,4.846775,-2.224090,0.223965,-1.073402,0.542899,-0.982860,0.295557,0.012708,-0.089480,0.048352,-0.022346,0.999987,-0.004914,0.001478,0.000064,-0.061695,0.655129,-0.373387,-0.653897,108.611697,64.534734,-108.158875
53350,-9.292651,2.916582,-1.263330,0.609095,0.996226,-0.061157,-1.066382,0.299991,-0.122728,-0.092928,0.029155,-0.012649,0.999984,-0.005332,0.001500,-0.000614,-0.058065,0.656656,-0.369592,-0.654854,108.391581,64.548241,-107.728605
53351,-9.537657,1.784163,-1.802889,1.716974,1.612755,-0.228765,-1.448033,0.356235,-0.250948,-0.095386,0.017831,-0.017988,0.999971,-0.007240,0.001781,-0.001255,-0.053494,0.658686,-0.364127,-0.656264,108.066356,64.622139,-107.172758
53352,-9.538532,-0.709079,-3.214296,4.233632,2.680690,-1.054371,-1.167194,0.438066,-0.289004,-0.095466,-0.007139,-0.031892,0.999980,-0.005836,0.002190,-0.001445,-0.049822,0.660947,-0.359462,-0.656852,108.011535,64.703229,-106.496122
53353,-9.171635,-0.752892,-2.396329,3.496571,3.025379,-1.503111,-0.255396,0.317310,-0.301549,-0.091765,-0.007421,-0.023808,0.999997,-0.001277,0.001587,-0.001508,-0.049420,0.662591,-0.357711,-0.656181,108.347807,64.811916,-105.965233
53354,-8.921335,0.411973,-0.454892,1.186587,3.097543,-1.508230,0.662548,0.181398,-0.269607,-0.089212,0.004255,-0.004454,0.999993,0.003313,0.000907,-0.001348,-0.052198,0.663499,-0.359041,-0.654320,109.044483,64.926291,-105.617653
53355,-8.907757,3.026126,0.061725,-0.696056,1.435301,-0.540970,0.729856,-0.063806,-0.224663,-0.089044,0.030359,0.000700,0.999993,0.003649,-0.000319,-0.001123,-0.055492,0.663497,-0.360670,-0.653153,109.481758,65.061230,-105.599273
53356,-9.117706,3.931360,0.839218,-1.837625,1.273185,-0.102150,0.746988,-0.146237,-0.228769,-0.091138,0.039386,0.008473,0.999992,0.003735,-0.000731,-0.001144,-0.059003,0.663218,-0.362314,-0.652219,109.836311,65.214227,-105.682844
53357,-9.468709,5.677563,1.612557,-3.426491,0.552547,0.791336,0.465972,-0.255589,-0.311108,-0.094619,0.056885,0.016137,0.999995,0.002330,-0.001278,-0.001556,-0.062049,0.662806,-0.362731,-0.652123,109.937502,65.433058,-105.867969
53358,-9.506417,4.955469,0.715608,-2.288768,0.558573,0.670157,-0.195988,-0.235227,-0.408479,-0.094971,0.049756,0.006996,0.999997,-0.000980,-0.001176,-0.002042,-0.063181,0.662836,-0.360670,-0.653126,109.722571,65.700316,-105.983324
53359,-9.703841,3.777758,-0.095665,-0.934597,0.985332,0.512057,-0.588853,-0.280884,-0.514242,-0.096939,0.038024,-0.001205,0.999991,-0.002944,-0.001404,-0.002571,-0.063437,0.663025,-0.356958,-0.654946,109.267767,66.033157,-106.114615
53360,-9.218009,3.298584,-0.854537,-0.087889,0.659718,-0.007626,-0.781074,-0.227833,-0.591280,-0.092072,0.033224,-0.008780,0.999987,-0.003905,-0.001139,-0.002956,-0.063213,0.663572,-0.352369,-0.656896,108.792486,66.397354,-106.147556
53361,-8.994051,3.082054,-0.619991,-0.183305,0.797241,-0.320222,-0.737751,-0.119021,-0.587764,-0.089846,0.031061,-0.006368,0.999989,-0.003689,-0.000595,-0.002939,-0.062928,0.664440,-0.347961,-0.658394,108.470533,66.739650,-106.040366
53362,-9.156539,3.311846,0.047691,-0.849184,0.987656,-0.163027,-0.518622,-0.119261,-0.543212,-0.091475,0.033368,0.000336,0.999993,-0.002593,-0.000596,-0.002716,-0.063223,0.665149,-0.344415,-0.659514,108.252737,67.057933,-105.956690
53363,-9.072107,4.099952,0.438796,-1.609068,0.509580,0.008521,-0.554831,-0.230333,-0.471125,-0.090629,0.041225,0.004169,0.999993,-0.002774,-0.001152,-0.002356,-0.063351,0.665369,-0.340950,-0.661078,107.836707,67.356888,-106.065722
53364,-9.173715,4.900293,0.394946,-1.974842,-0.150110,0.405089,-0.534474,-0.328622,-0.410001,-0.091643,0.049201,0.003668,0.999993,-0.002672,-0.001643,-0.002050,-0.063511,0.665144,-0.337719,-0.662945,107.269615,67.639010,-106.350662
53365,-8.969215,4.584094,-1.207894,-0.452125,-0.899456,0.282158,-0.714204,-0.339925,-0.354090,-0.089590,0.045956,-0.012395,0.999991,-0.003571,-0.001700,-0.001770,-0.062906,0.664833,-0.334069,-0.665160,106.550236,67.891174,-106.688339
53366,-9.088143,4.051574,-1.499003,0.120534,-0.652436,0.228038,-0.448238,-0.317944,-0.270258,-0.090803,0.040605,-0.015225,0.999995,-0.002241,-0.001590,-0.001351,-0.062869,0.664363,-0.331585,-0.666874,105.969382,68.092186,-107.040413
53367,-9.554380,2.820488,-1.050350,0.462458,0.659463,0.172084,-0.163745,-0.336099,-0.215924,-0.095495,0.028299,-0.010687,0.999998,-0.000819,-0.001680,-0.001080,-0.063625,0.663647,-0.330222,-0.668190,105.497599,68.264829,-107.450140
53368,-9.147753,1.746934,-2.288552,2.038815,0.661636,-0.465172,0.011205,-0.243372,-0.211538,-0.091431,0.017567,-0.022996,0.999999,0.000056,-0.001217,-0.001058,-0.064794,0.663176,-0.329486,-0.668908,105.247637,68.420007,-107.728563
53369,-9.169607,2.917380,-1.886402,1.086635,-0.054637,-0.067562,0.607452,-0.252255,-0.179114,-0.091646,0.029313,-0.018891,0.999994,0.003037,-0.001261,-0.000896,-0.067845,0.662425,-0.330846,-0.668679,105.311750,68.558500,-108.036232
53370,-8.939776,3.707836,-2.063797,0.780160,-0.863229,0.014471,0.680041,-0.293563,-0.078678,-0.089353,0.037184,-0.020643,0.999993,0.003400,-0.001468,-0.000393,-0.070869,0.661335,-0.332764,-0.668492,105.319037,68.647751,-108.449447
53371,-9.017887,2.942160,-0.042131,-0.494928,0.829931,-0.376235,0.759294,-0.342835,0.036804,-0.090184,0.029407,-0.000464,0.999991,0.003796,-0.001714,0.000184,-0.073850,0.659851,-0.335306,-0.668366,105.256120,68.680600,-108.986722
53372,-8.607028,2.640522,-0.693624,0.171848,0.558143,-0.801953,0.642108,-0.357538,0.041112,-0.086063,0.026410,-0.007005,0.999993,0.003211,-0.001788,0.000206,-0.076453,0.658343,-0.337460,-0.668476,105.102465,68.712850,-109.549090
53373,-7.705902,3.755187,-1.909466,0.465547,-1.277431,-1.136291,0.397080,-0.242770,0.020097,-0.077040,0.037582,-0.019114,0.999997,0.001985,-0.001214,0.000100,-0.078126,0.657341,-0.338766,-0.668608,104.978551,68.739236,-109.928796
53374,-8.126119,2.986303,-1.974631,0.991137,-0.589411,-1.008073,0.586087,-0.137449,0.145924,-0.081269,0.029862,-0.019715,0.999995,0.002930,-0.000687,0.000730,-0.079820,0.656400,-0.341156,-0.668117,105.064820,68.680239,-110.199170
53375,-9.326355,3.551334,-1.398228,0.345187,-0.268378,0.254917,1.371947,-0.255066,0.327972,-0.093304,0.035456,-0.013858,0.999974,0.006860,-0.001275,0.001640,-0.083683,0.654421,-0.346712,-0.666724,105.366325,68.538658,-110.722194
53376,-8.827973,5.256352,-0.692796,-1.276983,-1.268527,0.326454,1.674174,-0.437430,0.389978,-0.088367,0.052448,-0.006682,0.999961,0.008371,-0.002187,0.001950,-0.088639,0.651558,-0.353378,-0.665386,105.563749,68.391482,-111.543737
53377,-8.225975,7.306986,0.389749,-3.438163,-2.288843,0.392725,1.220764,-0.428645,0.339860,-0.082392,0.072905,0.004166,0.999978,0.006104,-0.002143,0.001699,-0.092264,0.648973,-0.358355,-0.664757,105.537647,68.271110,-112.327008
53378,-8.529718,7.105788,0.555030,-3.401761,-1.904557,0.596777,-0.007161,-0.290633,0.243764,-0.085392,0.070954,0.005424,0.999998,-0.000036,-0.001453,0.001219,-0.091973,0.647570,-0.358994,-0.665821,105.040509,68.181641,-112.860489
53379,-9.626854,3.968836,-0.874277,-0.220488,-0.106434,0.633948,-0.743933,-0.135566,0.190132,-0.096300,0.039564,-0.008955,0.999992,-0.003720,-0.000678,0.000951,-0.089197,0.647112,-0.357075,-0.667673,104.359227,68.097243,-113.137831
53380,-10.259364,2.877121,-3.001194,2.253314,-0.349215,1.019673,-0.518931,-0.076373,0.191917,-0.102610,0.028595,-0.030125,0.999996,-0.002595,-0.000382,0.000960,-0.087036,0.646740,-0.355935,-0.668926,103.891264,68.002622,-113.324378
53381,-10.010179,2.244781,-2.839916,2.478594,0.132769,0.538485,0.374113,-0.158874,0.262927,-0.100109,0.022369,-0.028437,0.999997,0.001871,-0.000794,0.001315,-0.087671,0.645573,-0.357973,-0.668883,103.799713,67.879399,-113.656996
53382,-10.007695,2.285715,-1.661649,1.525010,0.808330,0.442090,1.266991,-0.331676,0.372640,-0.100092,0.022776,-0.016638,0.999977,0.006335,-0.001658,0.001863,-0.091129,0.643224,-0.363266,-0.667829,103.949373,67.719025,-114.281989
53383,-9.938200,4.737559,0.385200,-1.540943,0.284507,1.091668,1.497947,-0.482428,0.385717,-0.099483,0.047154,0.003966,0.999967,0.007490,-0.002412,0.001929,-0.095554,0.640206,-0.369284,-0.666809,104.026841,67.572692,-115.128810
53384,-9.094413,7.061835,1.442869,-3.890522,-0.948284,1.078778,0.995245,-0.460595,0.342814,-0.091098,0.070390,0.014570,0.999983,0.004976,-0.002303,0.001714,-0.098468,0.637549,-0.373480,-0.666595,103.865360,67.446998,-115.923338
53385,-8.237600,8.406096,0.283131,-3.930382,-2.864283,0.908714,0.231400,-0.301548,0.391057,-0.082544,0.083896,0.002804,0.999996,0.001157,-0.001508,0.001955,-0.098487,0.635694,-0.375355,-0.667309,103.469670,67.271363,-116.498287
53386,-8.279668,8.074258,-0.717686,-2.900010,-3.223769,0.932475,-0.352705,-0.187542,0.425137,-0.082961,0.080553,-0.007397,0.999996,-0.001764,-0.000938,0.002126,-0.096322,0.634439,-0.375442,-0.668769,102.888456,67.060019,-116.912242
53387,-8.358255,5.475775,-0.756103,-1.223290,-1.393629,0.035018,-0.513363,-0.157507,0.404314,-0.083687,0.054569,-0.007767,0.999994,-0.002567,-0.000788,0.002022,-0.093658,0.633394,-0.374937,-0.670420,102.269636,66.854705,-117.267597
53388,-8.151940,2.526290,-1.277563,0.967024,0.291451,-1.242496,-0.706471,-0.041561,0.372781,-0.081564,0.025066,-0.012881,0.999992,-0.003532,-0.000208,0.001864,-0.090271,0.632879,-0.373734,-0.672041,101.708547,66.652041,-117.440317
53389,-8.692190,0.699175,-1.698184,2.515210,1.533840,-1.431295,-0.598292,0.047899,0.388319,-0.086939,0.006772,-0.016981,0.999994,-0.002991,0.000239,0.001942,-0.087004,0.632577,-0.372979,-0.673174,101.326341,66.429654,-117.485823
53390,-9.534977,1.339911,-0.915669,1.702960,1.888006,-0.480761,-0.139712,-0.004436,0.367827,-0.095374,0.013217,-0.009168,0.999998,-0.000699,-0.000022,0.001839,-0.085355,0.631933,-0.373677,-0.673603,101.148111,66.224751,-117.595631
53391,-8.741814,2.642014,-0.429057,0.428683,1.003825,-0.735675,0.039352,-0.067808,0.282306,-0.087454,0.026298,-0.004315,0.999999,0.000197,-0.000339,0.001412,-0.084676,0.631157,-0.374680,-0.673859,101.015164,66.074655,-117.768213
53392,-8.019367,3.056150,0.050944,-0.313763,0.763404,-1.270344,0.277824,-0.075515,0.236858,-0.080230,0.030466,0.000522,0.999998,0.001389,-0.000378,0.001184,-0.084919,0.630337,-0.376337,-0.673672,101.021800,65.951025,-117.937791
53393,-8.363507,3.170780,-1.076651,0.576656,0.129938,-0.823146,0.425196,-0.084683,0.192448,-0.083661,0.031650,-0.010735,0.999997,0.002126,-0.000423,0.000962,-0.085792,0.629505,-0.378346,-0.673214,101.112691,65.853324,-118.107628
53394,-8.233530,3.321916,-1.827910,1.047847,-0.474820,-0.821361,0.564214,-0.088875,0.150287,-0.082352,0.033209,-0.018222,0.999996,0.002821,-0.000444,0.000751,-0.087252,0.628674,-0.380686,-0.672484,101.288691,65.780058,-118.271683
53395,-8.696832,2.876345,-1.249264,0.945852,0.372896,-0.623825,0.588232,-0.050566,0.141313,-0.086985,0.028739,-0.012430,0.999995,0.002941,-0.000253,0.000707,-0.088743,0.627973,-0.383091,-0.671577,101.528297,65.707622,-118.381136
53396,-9.740987,4.322922,-2.111449,0.945664,-0.778963,0.982294,0.409977,-0.121544,0.113342,-0.097422,0.043217,-0.021085,0.999998,0.002050,-0.000608,0.000567,-0.089905,0.627162,-0.384776,-0.671217,101.584650,65.659263,-118.579683
53397,-8.958073,6.349288,-1.328725,-1.030855,-1.963549,1.022802,0.035267,-0.185759,0.048470,-0.089584,0.063474,-0.013359,1.000000,0.000176,-0.000929,0.000242,-0.090232,0.626427,-0.384969,-0.671749,101.363283,65.654435,-118.847300
53398,-7.402022,5.550133,-0.145171,-1.753890,-1.241004,-0.812760,-0.414884,-0.060350,0.024940,-0.074027,0.055489,-0.001589,0.999998,-0.002074,-0.000302,0.000125,-0.088987,0.626359,-0.383633,-0.672742,101.045704,65.648448,-118.937586
53399,-8.014020,3.640392,-2.339847,1.239974,-1.084381,-0.855100,-0.884280,0.182545,0.031183,-0.080167,0.036288,-0.023486,0.999990,-0.004421,0.000913,0.000156,-0.085783,0.627298,-0.380841,-0.673869,100.759451,65.612254,-118.698177
53400,-9.535957,2.287046,-2.405975,2.414123,0.379039,-0.015643,-0.827216,0.258155,-0.020769,-0.095388,0.022781,-0.024031,0.999991,-0.004136,0.001291,-0.000104,-0.082788,0.628554,-0.378103,-0.674614,100.612044,65.597827,-118.342233
53401,-9.799104,1.640929,-1.973253,2.508051,1.206954,-0.072988,-0.716142,0.192958,-0.073512,-0.098004,0.016375,-0.019697,0.999993,-0.003581,0.000965,-0.000368,-0.080442,0.629633,-0.375541,-0.675322,100.459673,65.620168,-118.061623
53402,-9.080478,1.889331,-1.626345,1.946734,0.985604,-0.652531,-0.257463,0.092257,-0.090622,-0.090804,0.018914,-0.016246,0.999999,-0.001287,0.000461,-0.000453,-0.079787,0.630215,-0.374430,-0.675474,100.448964,65.662941,-117.914068
53403,-8.914360,2.124403,-2.010391,2.076420,0.527619,-0.678649,-0.191663,0.132765,-0.057361,-0.089151,0.021250,-0.020065,0.999999,-0.000958,0.000664,-0.000287,-0.079150,0.630845,-0.373662,-0.675386,100.519182,65.682644,-117.719094
53404,-9.530948,2.188149,-1.287619,1.574874,1.147582,-0.143781,0.015342,0.116265,-0.059031,-0.095310,0.021911,-0.012819,1.000000,0.000077,0.000581,-0.000295,-0.079203,0.631340,-0.373581,-0.674963,100.687914,65.704935,-117.546215
53405,-8.896383,3.514094,-0.777715,0.268775,0.285654,-0.223867,0.098888,0.084331,-0.099226,-0.088950,0.035189,-0.007722,1.000000,0.000494,0.000422,-0.000496,-0.079715,0.631768,-0.373642,-0.674467,100.874860,65.752998,-117.405948
53406,-8.645563,4.887653,-0.735307,-0.623501,-0.755265,0.097731,0.001952,0.113031,-0.124092,-0.086429,0.048930,-0.007304,1.000000,0.000010,0.000565,-0.000620,-0.079951,0.632378,-0.373308,-0.674052,101.048593,65.811794,-117.219293
53407,-8.373195,6.555629,0.077650,-2.299272,-1.552661,0.453532,-0.153921,0.137796,-0.149257,-0.083682,0.065619,0.000784,0.999999,-0.000770,0.000689,-0.000746,-0.079732,0.633180,-0.372380,-0.673839,101.171361,65.881750,-116.990763
53408,-8.214458,7.348894,-0.349214,-2.445784,-2.453388,0.656526,-0.675064,0.196562,-0.174240,-0.082084,0.073548,-0.003660,0.999993,-0.003375,0.000983,-0.000871,-0.077838,0.634429,-0.369637,-0.674395,101.076154,65.959289,-116.674010
53409,-7.972705,6.378535,-0.603131,-1.707586,-2.035855,0.064192,-1.071899,0.280746,-0.215034,-0.079667,0.063838,-0.006261,0.999984,-0.005359,0.001404,-0.001075,-0.074664,0.636179,-0.365451,-0.675387,100.870798,66.050801,-116.229109
53410,-8.128662,4.633047,-1.526797,0.079464,-1.292241,-0.421463,-1.392458,0.380910,-0.223888,-0.081264,0.046314,-0.015436,0.999973,-0.006962,0.001905,-0.001119,-0.070316,0.638375,-0.360176,-0.676614,100.611818,66.137463,-115.642315
53411,-8.776949,2.092310,-2.326440,2.266691,0.338536,-0.780943,-1.380706,0.457421,-0.218979,-0.087800,0.020859,-0.023208,0.999973,-0.006903,0.002287,-0.001095,-0.065845,0.640782,-0.354966,-0.677541,100.457539,66.214005,-114.948824
53412,-9.263908,-0.229697,-2.542194,3.774379,2.136345,-1.237990,-0.964014,0.438783,-0.206281,-0.092697,-0.002323,-0.025207,0.999985,-0.004820,0.002194,-0.001031,-0.062699,0.642941,-0.351185,-0.677765,100.517052,66.285766,-114.282967
53413,-9.923296,-1.170898,-2.537279,4.351653,3.107342,-0.998608,-0.272790,0.351499,-0.164993,-0.099287,-0.011662,-0.025182,0.999997,-0.001364,0.001757,-0.000825,-0.061785,0.644504,-0.349847,-0.677056,100.853263,66.342494,-113.747738
53414,-10.455041,0.321235,-1.480181,2.731866,2.778353,0.006661,0.559033,0.167058,-0.130334,-0.104561,0.003322,-0.014705,0.999996,0.002795,0.000835,-0.000652,-0.063758,0.645119,-0.351377,-0.675492,101.422374,66.398584,-113.478764
53415,-9.785380,3.310308,-0.207894,-0.071580,1.015508,0.469264,1.062391,-0.004418,-0.119362,-0.097834,0.033172,-0.001905,0.999986,0.005312,-0.000022,-0.000597,-0.067618,0.644965,-0.354581,-0.673588,102.058964,66.467366,-113.451036
53416,-8.798959,5.477079,0.450422,-1.997786,-0.560636,0.351824,0.967055,-0.032998,-0.097686,-0.087964,0.054791,0.004755,0.999988,0.004835,-0.000165,-0.000488,-0.071146,0.644690,-0.357515,-0.671935,102.599288,66.527403,-113.468642
53417,-8.735491,6.380215,0.551396,-2.633732,-1.167857,0.628548,0.621435,0.026779,-0.083062,-0.087328,0.063821,0.005724,0.999995,0.003107,0.000134,-0.000415,-0.073403,0.644703,-0.359350,-0.670700,103.015792,66.571715,-113.405427
53418,-9.152513,7.073961,0.985710,-3.340273,-1.260586,1.234236,0.220084,0.061084,-0.100262,-0.091487,0.070775,0.009963,0.999999,0.001100,0.000305,-0.000501,-0.074361,0.645004,-0.359793,-0.670066,103.252067,66.621033,-113.287975
53419,-9.006262,7.171166,1.227423,-3.624800,-1.254585,1.111219,-0.269617,0.057183,-0.133573,-0.090011,0.071788,0.012203,0.999999,-0.001348,0.000286,-0.000668,-0.073858,0.645534,-0.358487,-0.670312,103.213548,66.689286,-113.164253
53420,-8.551458,6.293661,1.015763,-3.020649,-0.933380,0.374248,-0.817508,0.120128,-0.166166,-0.085456,0.063049,0.009951,0.999991,-0.004088,0.000601,-0.000831,-0.071583,0.646528,-0.355259,-0.671318,102.952403,66.767768,-112.941244
53421,-8.578970,4.318344,0.032880,-1.094233,-0.069086,-0.270905,-1.376349,0.188605,-0.195669,-0.085747,0.043269,0.000112,0.999975,-0.006882,0.000943,-0.000978,-0.067476,0.647983,-0.350073,-0.673063,102.468730,66.854529,-112.612117
53422,-9.375269,2.131766,-1.507215,1.502526,0.969585,-0.246387,-1.425285,0.269312,-0.197148,-0.093752,0.021303,-0.015098,0.999973,-0.007126,0.001347,-0.000986,-0.063071,0.649695,-0.344726,-0.674597,102.062951,66.933446,-112.168030
53423,-10.082990,1.413302,-1.783146,2.218232,1.618795,0.152385,-0.968659,0.230945,-0.195934,-0.100837,0.014146,-0.017784,0.999987,-0.004843,0.001155,-0.000980,-0.060209,0.651107,-0.340898,-0.675443,101.868565,67.017068,-111.778774
53424,-9.858536,1.428672,-1.682556,2.082314,1.580266,-0.054125,-0.321215,0.137427,-0.154124,-0.098586,0.014336,-0.016781,0.999998,-0.001606,0.000687,-0.000771,-0.059472,0.651927,-0.339359,-0.675492,101.910656,67.088575,-111.535798
53425,-9.365543,1.964459,-1.415785,1.492648,1.134609,-0.322610,0.330376,0.081012,-0.055558,-0.093656,0.019694,-0.014087,0.999999,0.001652,0.000405,-0.000278,-0.060622,0.652194,-0.340325,-0.674646,102.224481,67.111241,-111.403263
53426,-9.116146,2.451156,-1.747020,1.455567,0.499899,-0.336628,1.044646,0.044606,0.083076,-0.091176,0.024564,-0.017322,0.999986,0.005223,0.000223,0.000415,-0.063694,0.651875,-0.344136,-0.672735,102.858795,67.060551,-111.367013
53427,-8.889692,4.570489,-0.502357,-0.784428,-0.475020,0.153607,1.577396,-0.088539,0.212172,-0.088943,0.045648,-0.004703,0.999968,0.007887,-0.000443,0.001061,-0.068295,0.650687,-0.350101,-0.670352,103.582212,66.955138,-111.565657
53428,-8.559956,5.699944,-0.780570,-1.265953,-1.540225,0.306409,1.470604,-0.175823,0.330877,-0.085687,0.056913,-0.007462,0.999971,0.007353,-0.000879,0.001654,-0.072299,0.648995,-0.356044,-0.668439,104.090874,66.796486,-111.931358
53429,-8.417664,6.623807,-0.706228,-1.907642,-2.166322,0.526463,1.202483,-0.067648,0.390236,-0.084303,0.066115,-0.006693,0.999980,0.006012,-0.000338,0.001951,-0.075039,0.647624,-0.361304,-0.666642,104.565720,66.590722,-112.167124
53430,-8.836518,7.341772,-1.379195,-1.740672,-2.860540,1.263183,0.552793,0.110453,0.369070,-0.088508,0.073292,-0.013540,0.999994,0.002764,0.000552,0.001845,-0.075421,0.647112,-0.364388,-0.665416,104.900870,66.371459,-112.149635
53431,-9.398107,6.785656,-0.645266,-1.943407,-1.772664,1.495124,0.090811,0.231937,0.271587,-0.094080,0.067732,-0.006313,0.999998,0.000454,0.001160,0.001358,-0.074410,0.647352,-0.365662,-0.664597,105.154577,66.187920,-111.931820
53432,-9.739050,5.310112,-0.396317,-1.239018,-0.410713,1.209996,-0.541675,0.139203,0.165254,-0.097437,0.053010,-0.004039,0.999996,-0.002708,0.000696,0.000826,-0.071875,0.647709,-0.364454,-0.665192,104.964084,66.077109,-111.803356
53433,-9.552637,2.630786,-1.463345,1.140962,0.854556,0.101099,-0.979455,0.180964,0.131442,-0.095557,0.026173,-0.014675,0.999987,-0.004897,0.000905,0.000657,-0.067957,0.648413,-0.361691,-0.666425,104.586597,65.978982,-111.604951
53434,-9.651387,0.850372,-0.884755,1.690188,2.538553,-0.573955,-0.775656,0.223058,0.085862,-0.096527,0.008428,-0.008773,0.999992,-0.003878,0.001115,0.000429,-0.064775,0.649257,-0.359464,-0.667125,104.393119,65.900712,-111.332748
53435,-9.229207,1.059310,-0.692673,1.353063,2.347427,-0.899832,-0.644365,0.122056,0.034653,-0.092298,0.010555,-0.006904,0.999995,-0.003222,0.000610,0.000173,-0.062369,0.649805,-0.357471,-0.667891,104.165751,65.865460,-111.179798
53436,-8.739030,0.977918,-1.028838,1.603045,2.040040,-1.347822,-0.561853,0.093170,0.005377,-0.087395,0.009748,-0.010275,0.999996,-0.002809,0.000466,0.000027,-0.060382,0.650277,-0.355647,-0.668587,103.959054,65.850836,-111.056149
53437,-9.026384,2.984238,0.222923,-0.475469,1.359348,-0.412843,0.001298,-0.097499,-0.012399,-0.090263,0.029848,0.002185,1.000000,0.000006,-0.000487,-0.000062,-0.060623,0.649971,-0.355588,-0.668894,103.844038,65.872419,-111.185621
53438,-8.845273,4.021164,0.079908,-0.934645,0.432383,-0.150678,-0.157641,-0.217591,-0.035279,-0.088446,0.040228,0.000671,0.999999,-0.000788,-0.001088,-0.000176,-0.060639,0.649351,-0.354887,-0.669867,103.494947,65.922854,-111.471720
53439,-8.128791,4.555654,0.082667,-1.315257,-0.252329,-0.590733,-0.134791,-0.240894,-0.064752,-0.081274,0.045583,0.000698,0.999999,-0.000674,-0.001204,-0.000324,-0.060868,0.648697,-0.354159,-0.670864,103.137160,65.992037,-111.781556
53440,-8.301813,3.924981,0.413769,-1.205918,0.446533,-0.710868,-0.219619,-0.146320,-0.053744,-0.083011,0.039277,0.004034,0.999999,-0.001098,-0.000732,-0.000269,-0.060618,0.648366,-0.353210,-0.671707,102.844554,66.042213,-111.966699
53441,-8.935688,3.055841,0.097560,-0.366200,1.141636,-0.444830,-0.237481,-0.108111,-0.044181,-0.089351,0.030579,0.000891,0.999999,-0.001187,-0.000541,-0.000221,-0.060210,0.648150,-0.352243,-0.672459,102.586151,66.081809,-112.103146
53442,-9.310291,2.308875,-0.801901,0.853392,1.326967,-0.317094,-0.351680,-0.181447,-0.064880,-0.093088,0.023105,-0.008144,0.999998,-0.001758,-0.000907,-0.000324,-0.059630,0.647756,-0.350802,-0.673642,102.174630,66.141728,-112.335455
53443,-8.990900,2.541319,-1.122808,0.962944,0.836573,-0.489163,-0.049638,-0.265426,-0.124067,-0.089878,0.025466,-0.011354,0.999999,-0.000248,-0.001327,-0.000620,-0.060376,0.647092,-0.350161,-0.674548,101.843733,66.244202,-112.668632
53444,-8.834163,3.502779,-1.109927,0.423915,0.043657,-0.254331,-0.073809,-0.162541,-0.155658,-0.088305,0.035092,-0.011184,0.999999,-0.000369,-0.000813,-0.000778,-0.060969,0.646835,-0.349366,-0.675152,101.636294,66.351786,-112.851601
53445,-8.835958,3.663452,-0.668548,-0.026930,0.146466,-0.225207,0.018755,-0.100746,-0.179814,-0.088323,0.036715,-0.006727,0.999999,0.000094,-0.000504,-0.000899,-0.061836,0.646801,-0.348824,-0.675386,101.566171,66.465631,-112.942449
53446,-8.422314,4.320028,-0.811397,-0.320712,-0.597645,-0.336597,-0.397242,-0.040488,-0.182838,-0.084182,0.043261,-0.008217,0.999998,-0.001986,-0.000202,-0.000914,-0.061262,0.647102,-0.346885,-0.676148,101.335289,66.574222,-112.948627
53447,-8.898891,2.390056,-1.419806,1.292094,0.678872,-0.604642,-0.453285,0.049894,-0.112463,-0.088979,0.023918,-0.014230,0.999997,-0.002266,0.000249,-0.000562,-0.060111,0.647601,-0.345010,-0.676734,101.170572,66.633145,-112.847718
53448,-9.444105,1.995274,-1.534778,1.677924,1.109054,-0.248047,0.423330,-0.026478,0.004416,-0.094439,0.019983,-0.015318,0.999998,0.002117,-0.000132,0.000022,-0.061535,0.647373,-0.346455,-0.676085,101.378708,66.634940,-112.887806
53449,-8.727626,3.334999,-1.164867,0.542141,0.041123,-0.412955,0.797489,-0.293717,0.099339,-0.087276,0.033353,-0.011644,0.999991,0.003987,-0.001469,0.000497,-0.064312,0.645954,-0.349385,-0.675675,101.429160,66.613769,-113.333254
53450,-8.047814,3.977892,-1.622733,0.460136,-0.938707,-0.750056,0.923702,-0.264134,0.134310,-0.080484,0.039800,-0.016150,0.999988,0.004618,-0.001321,0.000672,-0.067325,0.644520,-0.352858,-0.674946,101.581571,66.569860,-113.746481
53451,-9.010665,5.594188,0.011746,-1.626228,-0.851165,0.633268,0.794181,-0.211584,0.134805,-0.090145,0.055880,0.000244,0.999991,0.003971,-0.001058,0.000674,-0.069826,0.643293,-0.355905,-0.674263,101.728298,66.520054,-114.085212
53452,-9.323507,3.476248,-0.887106,0.326483,0.323926,0.166667,0.239763,-0.165255,0.068938,-0.093240,0.034741,-0.008906,0.999999,0.001199,-0.000826,0.000345,-0.070681,0.642527,-0.356884,-0.674387,101.635107,66.501859,-114.339211
53453,-9.576808,2.450041,-1.646362,1.560868,0.731997,0.059310,0.510914,-0.184658,0.038398,-0.095758,0.024524,-0.016489,0.999996,0.002555,-0.000923,0.000192,-0.072545,0.641650,-0.358670,-0.674076,101.680530,66.503024,-114.611506
53454,-8.979434,3.674961,-1.834428,0.922297,-0.493668,0.005986,0.949819,-0.224740,0.072790,-0.089787,0.036804,-0.018270,0.999988,0.004749,-0.001124,0.000364,-0.075772,0.640408,-0.362026,-0.673108,101.916495,66.489844,-114.950235
53455,-8.804948,5.195517,-1.013976,-0.655635,-1.168454,0.373252,1.215804,-0.231884,0.141603,-0.088075,0.051954,-0.009926,0.999981,0.006079,-0.001159,0.000708,-0.079629,0.638896,-0.366482,-0.671686,102.277090,66.439728,-115.319192
53456,-8.889115,6.043058,0.366866,-2.256571,-0.893938,0.664819,0.935995,-0.262213,0.190647,-0.088954,0.060328,0.003835,0.999988,0.004680,-0.001311,0.000953,-0.082481,0.637283,-0.370133,-0.670872,102.425158,66.366480,-115.745438
53457,-9.605824,4.409402,0.644545,-1.396674,0.726300,0.658790,0.604733,-0.313415,0.247087,-0.096123,0.043956,0.006428,0.999993,0.003024,-0.001567,0.001235,-0.084182,0.635519,-0.372824,-0.670844,102.303983,66.267958,-116.258830
53458,-9.974732,5.038648,0.253471,-1.367736,0.193579,1.279619,0.577791,-0.429031,0.213853,-0.099806,0.050273,0.002466,0.999993,0.002889,-0.002145,0.001069,-0.086122,0.633431,-0.375265,-0.671211,102.031903,66.201312,-116.920448
53459,-9.517203,5.968358,0.468523,-2.140007,-0.490908,1.214427,0.357115,-0.550535,0.114022,-0.095219,0.059621,0.004530,0.999994,0.001786,-0.002753,0.000570,-0.087925,0.631209,-0.376592,-0.672326,101.507213,66.202991,-117.720058
53460,-9.258830,5.921476,0.438602,-2.098815,-0.587454,0.968398,-0.055781,-0.541225,0.025790,-0.092607,0.059204,0.004119,0.999996,-0.000279,-0.002706,0.000129,-0.088704,0.629361,-0.376254,-0.674143,100.779255,66.249734,-118.483197
53461,-9.880530,5.526372,0.085605,-1.422177,-0.344999,1.413667,-0.410856,-0.435704,-0.013423,-0.098803,0.055272,0.000527,0.999996,-0.002054,-0.002179,-0.000067,-0.088297,0.628095,-0.374638,-0.676274,99.989213,66.303591,-119.091467
53462,-9.438839,5.515132,-0.139983,-1.274146,-0.673936,1.024745,-0.564281,-0.383211,-0.017150,-0.094381,0.055155,-0.001736,0.999994,-0.002821,-0.001916,-0.000086,-0.087323,0.627074,-0.372512,-0.678519,99.176891,66.351127,-119.628013
53463,-7.874597,5.421117,-0.555342,-1.152398,-1.445145,-0.416441,-0.656248,-0.281888,0.034561,-0.078747,0.054179,-0.005842,0.999994,-0.003281,-0.001409,0.000173,-0.085694,0.626333,-0.370275,-0.680632,98.430226,66.357477,-120.035090
53464,-7.122853,4.724864,-0.305020,-1.047877,-1.083421,-1.393641,-0.886905,-0.126031,0.138457,-0.071259,0.047185,-0.003304,0.999990,-0.004435,-0.000630,0.000692,-0.082700,0.626019,-0.367640,-0.682717,97.734600,66.290367,-120.242392
53465,-8.354868,3.867506,-0.954414,0.257001,-0.445758,-0.571075,-1.010709,-0.003922,0.203120,-0.083588,0.038541,-0.009741,0.999987,-0.005054,-0.000020,0.001016,-0.078869,0.626039,-0.364824,-0.684659,97.116919,66.176411,-120.286780
53466,-8.856488,3.260199,-1.115267,0.873783,0.071084,-0.350054,-0.828913,-0.023341,0.171540,-0.088591,0.032479,-0.011298,0.999991,-0.004145,-0.000117,0.000858,-0.075752,0.625965,-0.362519,-0.686301,96.586459,66.081690,-120.350111
53467,-8.043645,2.029603,-1.098671,1.412766,0.693766,-1.593849,-0.766914,-0.025414,0.165768,-0.080452,0.020187,-0.011074,0.999992,-0.003835,-0.000127,0.000829,-0.072848,0.625860,-0.360399,-0.687826,96.091452,65.989998,-120.413156
53468,-9.038201,1.968993,-2.236675,2.594459,0.430408,-0.666530,-0.329029,0.002524,0.204153,-0.090402,0.019561,-0.022398,0.999998,-0.001645,0.000013,0.001021,-0.071134,0.625618,-0.359914,-0.688480,95.879786,65.874771,-120.441119
53469,-9.958606,2.814247,-1.079590,1.398206,0.826483,0.464533,0.473441,-0.142827,0.178168,-0.099603,0.028079,-0.010801,0.999997,0.002367,-0.000714,0.000891,-0.072281,0.624632,-0.362057,-0.688132,95.947128,65.782859,-120.667218
53470,-9.183197,2.915868,1.395997,-0.803223,1.952485,-0.308754,1.150655,-0.413218,0.159998,-0.091884,0.029005,0.013937,0.999981,0.005753,-0.002066,0.000800,-0.076093,0.622490,-0.366367,-0.687380,96.063368,65.717716,-121.265424
53471,-8.239843,3.106863,0.399490,-0.297398,0.906401,-1.049288,1.293695,-0.482624,0.156744,-0.082432,0.030978,0.003997,0.999976,0.006468,-0.002413,0.000784,-0.080485,0.620034,-0.371116,-0.686551,96.175642,65.659108,-121.958171
53472,-8.459074,4.745487,-0.603694,-0.392637,-0.777703,-0.133793,1.176939,-0.389529,0.126555,-0.084609,0.047436,-0.005923,0.999981,0.005885,-0.001948,0.000633,-0.084443,0.617974,-0.375392,-0.685608,96.343610,65.612624,-122.516664
53473,-8.546731,5.623311,-0.967964,-0.614564,-1.571758,0.324226,0.900911,-0.259877,0.117242,-0.085488,0.056226,-0.009537,0.999989,0.004505,-0.001299,0.000586,-0.087334,0.616473,-0.378736,-0.684758,96.518031,65.563706,-122.894574
53474,-8.543621,8.772054,-0.611537,-2.750737,-3.533040,1.600789,0.284567,-0.221909,0.066278,-0.085459,0.087701,-0.006085,0.999998,0.001423,-0.001110,0.000331,-0.088426,0.615460,-0.379824,-0.684926,96.394774,65.541532,-123.211695
53475,-7.128561,7.949265,-0.297960,-2.812351,-3.261465,-0.037753,-0.462088,-0.117205,0.044940,-0.071302,0.079469,-0.003205,0.999997,-0.002310,-0.000586,0.000225,-0.087091,0.615173,-0.378332,-0.686179,95.977767,65.524287,-123.381038
53476,-7.191871,5.385382,-2.069126,0.127436,-2.574800,-0.960540,-1.138074,0.162199,0.051266,-0.071949,0.053717,-0.020939,0.999983,-0.005690,0.000811,0.000256,-0.083129,0.616116,-0.374657,-0.687839,95.523148,65.487004,-123.166684
53477,-9.379114,2.312037,-2.898751,3.085173,-0.148407,-0.211875,-1.157344,0.303316,0.059095,-0.093842,0.022925,-0.028978,0.999982,-0.005787,0.001517,0.000295,-0.078812,0.617515,-0.370987,-0.689081,95.232894,65.437939,-122.759431
53478,-9.912187,0.672474,-2.413883,3.763465,1.528217,-0.430186,-0.855278,0.168480,0.000041,-0.099142,0.006622,-0.024084,0.999991,-0.004276,0.000842,0.000000,-0.075880,0.618424,-0.368111,-0.690137,94.954128,65.430592,-122.529757
53479,-8.795021,0.735718,-2.295977,3.386111,1.178235,-1.427511,-0.357385,0.095988,-0.005017,-0.087961,0.007318,-0.022931,0.999998,-0.001787,0.000480,-0.000025,-0.074636,0.618896,-0.366905,-0.690491,94.870629,65.429831,-122.398824
53480,-8.559034,1.290808,-2.536323,3.213910,0.561128,-1.403640,0.063168,0.101326,0.055025,-0.085607,0.012893,-0.025316,1.000000,0.000316,0.000507,0.000275,-0.074478,0.619119,-0.367339,-0.690077,95.028207,65.394657,-122.267958
53481,-8.606756,2.089221,-1.732317,2.128257,0.495501,-1.056718,0.372138,0.085722,0.089581,-0.086084,0.020886,-0.017247,0.999998,0.001861,0.000429,0.000448,-0.075185,0.619109,-0.368940,-0.689156,95.339142,65.340247,-122.163082
53482,-8.556038,2.916017,-1.610261,1.542747,-0.026680,-0.761663,0.378917,0.150004,0.107830,-0.085588,0.029144,-0.015983,0.999998,0.001895,0.000750,0.000539,-0.075732,0.619280,-0.370642,-0.688027,95.730289,65.271715,-121.974147
53483,-8.685245,3.540534,-0.970093,0.691185,-0.019117,-0.408871,0.416022,0.188684,0.094377,-0.086878,0.035384,-0.009545,0.999997,0.002080,0.000943,0.000472,-0.076367,0.619593,-0.372444,-0.686701,96.190911,65.207901,-121.732051
53484,-8.999705,3.860390,-0.419468,0.118835,0.224269,-0.014283,0.408535,0.223765,0.070951,-0.090015,0.038580,-0.004015,0.999997,0.002043,0.001119,0.000355,-0.076995,0.620070,-0.374158,-0.685267,96.691614,65.154384,-121.440918
53485,-9.181070,4.705891,0.307615,-0.924181,0.157922,0.466074,0.352648,0.196306,0.029418,-0.091814,0.047040,0.003249,0.999998,0.001763,0.000982,0.000147,-0.077642,0.620548,-0.375540,-0.684004,97.131647,65.125326,-121.181307
53486,-8.931438,5.459108,0.133683,-1.293417,-0.552041,0.560963,0.056536,0.197468,-0.013116,-0.089309,0.054597,0.001440,0.999999,0.000283,0.000987,-0.000066,-0.077514,0.621224,-0.375777,-0.683275,97.409179,65.119733,-120.913726
53487,-8.786754,5.591712,0.393952,-1.620547,-0.532937,0.469300,-0.164962,0.207843,-0.045805,-0.087851,0.055941,0.003985,0.999999,-0.000825,0.001039,-0.000229,-0.076789,0.622081,-0.375159,-0.682916,97.578041,65.131418,-120.626074
53488,-8.629234,5.045986,0.161202,-1.164849,-0.349473,0.110650,-0.442819,0.226829,-0.074403,-0.086272,0.050496,0.001598,0.999997,-0.002214,0.001134,-0.000372,-0.075263,0.623161,-0.373509,-0.683006,97.615654,65.157767,-120.307635
53489,-9.037221,4.235473,-0.247959,-0.294240,0.118574,0.165862,-0.640018,0.253848,-0.080515,-0.090358,0.042383,-0.002500,0.999994,-0.003200,0.001269,-0.000403,-0.073091,0.624414,-0.371173,-0.683371,97.575007,65.185435,-119.951015
53490,-9.513865,3.579632,-0.188208,0.124032,0.788362,0.322691,-0.604648,0.232949,-0.102236,-0.095123,0.035839,-0.001880,0.999995,-0.003023,0.001165,-0.000511,-0.071142,0.625615,-0.368879,-0.683720,97.532736,65.227231,-119.618593
53491,-9.422192,3.233418,-0.146872,0.258209,1.021198,0.094115,-0.505996,0.202319,-0.107238,-0.094206,0.032381,-0.001455,0.999996,-0.002530,0.001012,-0.000536,-0.069574,0.626680,-0.366892,-0.683975,97.510794,65.274141,-119.326131
53492,-9.501716,3.309340,-0.553497,0.553024,0.750152,0.220862,-0.371749,0.150049,-0.097023,-0.095005,0.033129,-0.005525,0.999998,-0.001859,0.000750,-0.000485,-0.068488,0.627497,-0.365375,-0.684148,97.499926,65.319299,-119.106268
53493,-9.143610,4.200704,-0.407185,-0.134637,0.053519,0.256886,-0.223688,0.071684,-0.089253,-0.091419,0.042043,-0.004086,0.999999,-0.001118,0.000358,-0.000446,-0.067983,0.627979,-0.364362,-0.684296,97.476216,65.365849,-118.993971
53494,-8.852458,4.809730,-0.158364,-0.731449,-0.357766,0.230299,-0.223791,0.057010,-0.073537,-0.088507,0.048128,-0.001612,0.999999,-0.001119,0.000285,-0.000368,-0.067451,0.628381,-0.363392,-0.684495,97.431667,65.404662,-118.904559
53495,-9.257683,5.727983,0.153863,-1.405567,-0.705817,0.960629,-0.215486,0.034599,-0.060906,-0.092559,0.057310,0.001493,0.999999,-0.001077,0.000173,-0.000305,-0.066941,0.628681,-0.362482,-0.684753,97.362202,65.437905,-118.847812
53496,-9.103570,6.422357,0.351710,-1.967239,-1.169936,1.096323,-0.442979,0.010490,-0.068456,-0.091014,0.064262,0.003380,0.999997,-0.002215,0.000052,-0.000342,-0.065786,0.628985,-0.360760,-0.685494,97.133324,65.477327,-118.823029
53497,-8.834514,5.596279,-0.580729,-0.791652,-1.223787,0.559379,-0.720170,0.109116,-0.064035,-0.088330,0.055970,-0.005961,0.999993,-0.003601,0.000546,-0.000320,-0.063565,0.629705,-0.358132,-0.686420,96.867725,65.507261,-118.664077
53498,-8.652600,4.544660,-0.284428,-0.485271,-0.367652,-0.054018,-0.839994,0.161141,-0.112404,-0.086503,0.045483,-0.002966,0.999991,-0.004200,0.000806,-0.000562,-0.061040,0.630718,-0.354951,-0.687371,96.605568,65.561653,-118.425958
53499,-7.756030,2.155396,0.333656,0.106384,1.406149,-1.880193,-0.994153,0.163730,-0.130721,-0.077543,0.021621,0.003293,0.999987,-0.004971,0.000819,-0.000654,-0.058084,0.631806,-0.351175,-0.688566,96.260935,65.626665,-118.181486
53500,-8.982812,1.870603,-1.337552,1.880900,1.126302,-0.803095,-0.843118,0.167272,-0.110032,-0.089829,0.018699,-0.013379,0.999991,-0.004216,0.000836,-0.000550,-0.055528,0.632812,-0.347978,-0.689476,96.004307,65.680368,-117.935557
53501,-10.102032,3.916111,-0.852175,0.635579,0.256491,1.033667,-0.380024,0.067635,-0.128152,-0.100998,0.039210,-0.008562,0.999998,-0.001900,0.000338,-0.000641,-0.054671,0.633370,-0.346288,-0.689883,95.889901,65.750523,-117.824823
53502,-9.237746,4.148528,-0.464524,0.027419,-0.037400,0.324365,-0.422707,0.058093,-0.172992,-0.092343,0.041555,-0.004706,0.999997,-0.002114,0.000290,-0.000865,-0.053851,0.633981,-0.344305,-0.690378,95.744680,65.847011,-117.721123
53503,-8.684628,3.176558,-1.132698,0.974546,0.122972,-0.548162,-0.295268,0.180664,-0.135357,-0.086835,0.031808,-0.011295,0.999998,-0.001476,0.000903,-0.000677,-0.053093,0.634914,-0.342913,-0.690272,95.824015,65.914887,-117.451440
53504,-8.987125,2.672446,-1.914910,1.924036,0.194334,-0.440522,0.298118,0.255943,-0.074003,-0.089886,0.026786,-0.018994,0.999998,0.001491,0.001280,-0.000370,-0.053879,0.635842,-0.343781,-0.688924,96.332248,65.942779,-117.084493
53505,-8.609510,3.711656,-0.806228,0.354333,-0.113109,-0.409948,0.838593,0.215025,0.019092,-0.086107,0.037141,-0.007814,0.999991,0.004193,0.001075,0.000095,-0.056131,0.636316,-0.346793,-0.686794,97.084954,65.918705,-116.788978
53506,-8.630525,4.454871,-0.424200,-0.389130,-0.424150,-0.108040,0.953451,0.166577,0.139726,-0.086340,0.044508,-0.003958,0.999988,0.004767,0.000833,0.000699,-0.058418,0.636368,-0.350562,-0.684638,97.820373,65.828218,-116.584358
53507,-8.763679,5.229577,-0.818110,-0.489190,-1.131783,0.350939,1.061250,0.065767,0.170919,-0.087684,0.052263,-0.007875,0.999986,0.005306,0.000329,0.000855,-0.061115,0.635973,-0.354760,-0.682604,98.481717,65.727125,-116.528543
53508,-8.568878,5.612754,-0.530557,-1.006012,-1.284311,0.313933,0.801033,0.048303,0.189769,-0.085743,0.056067,-0.005060,0.999992,0.004005,0.000242,0.000949,-0.062951,0.635548,-0.358117,-0.681078,98.965799,65.616742,-116.503589
53509,-9.211157,5.449252,0.477972,-1.648660,-0.319561,0.767858,0.424249,0.026201,0.143531,-0.092150,0.054416,0.004907,0.999997,0.002121,0.000131,0.000718,-0.063785,0.635244,-0.360033,-0.680275,99.214205,65.534327,-116.500365
53510,-9.517324,4.864137,1.185102,-1.854190,0.636600,0.760886,-0.310730,0.043290,0.016511,-0.095175,0.048652,0.011796,0.999999,-0.001554,0.000216,0.000083,-0.062687,0.635457,-0.359049,-0.680697,99.087792,65.522332,-116.446269
53511,-9.436666,2.770762,-0.977410,1.052612,0.903966,-0.027090,-1.359271,0.137037,-0.120096,-0.094357,0.027697,-0.009898,0.999976,-0.006796,0.000685,-0.000600,-0.058551,0.636548,-0.354084,-0.682644,98.503957,65.579465,-116.234694
53512,-9.416964,0.912294,-1.613854,2.565959,1.917618,-0.765334,-1.263895,0.273003,-0.249947,-0.094180,0.009139,-0.016068,0.999978,-0.006319,0.001365,-0.001250,-0.054919,0.638277,-0.349054,-0.683921,98.168538,65.699764,-115.810582
53513,-9.092718,0.412786,-1.915919,2.995263,2.016680,-1.240644,-0.946124,0.455259,-0.335208,-0.090964,0.004190,-0.018972,0.999985,-0.004731,0.002276,-0.001676,-0.052273,0.640667,-0.344876,-0.684014,98.262465,65.853773,-115.115778
53514,-9.397102,0.868726,-0.808278,1.841719,2.386421,-0.833467,-0.298598,0.419701,-0.344278,-0.093973,0.008837,-0.007899,0.999995,-0.001493,0.002098,-0.001721,-0.051793,0.642768,-0.342867,-0.683087,98.690116,66.014716,-114.462661
53515,-9.228687,2.980501,0.379782,-0.304533,1.345710,-0.205788,0.078602,0.120184,-0.297532,-0.092240,0.029941,0.003865,0.999999,0.000393,0.000601,-0.001488,-0.052878,0.643666,-0.342218,-0.682484,98.948920,66.173900,-114.231471
53516,-8.542872,4.908251,0.672152,-1.668953,-0.236944,-0.082231,-0.071807,-0.063822,-0.239607,-0.085372,0.049187,0.006677,0.999999,-0.000359,-0.000319,-0.001198,-0.053596,0.643875,-0.341191,-0.682745,98.875087,66.316480,-114.269795
53517,-8.078630,5.054952,-0.442671,-0.880490,-1.137745,-0.381728,-0.305589,-0.018094,-0.154993,-0.080747,0.050605,-0.004511,0.999999,-0.001528,-0.000090,-0.000775,-0.053195,0.644156,-0.339651,-0.683279,98.708792,66.407111,-114.262818
53518,-8.660461,4.722012,0.198450,-1.153464,-0.346751,-0.020362,-0.158651,0.019735,-0.121121,-0.086576,0.047274,0.001956,0.999999,-0.000793,0.000099,-0.000606,-0.053087,0.644469,-0.338731,-0.683449,98.668615,66.475289,-114.210086
53519,-9.326641,3.753165,-0.057708,-0.331483,0.484258,0.223815,-0.421230,-0.015616,-0.120199,-0.093244,0.037586,-0.000663,0.999998,-0.002106,-0.000078,-0.000601,-0.052190,0.644728,-0.336907,-0.684176,98.431594,66.545975,-114.207977
53520,-9.475216,2.283316,-0.148090,0.516277,1.601298,-0.211413,-0.146360,-0.040255,-0.141657,-0.094736,0.022899,-0.001517,0.999999,-0.000732,-0.000201,-0.000708,-0.052293,0.644864,-0.335946,-0.684511,98.323365,66.630915,-114.237135
53521,-9.537694,3.244459,0.459471,-0.475245,1.187143,0.190813,0.085546,-0.133008,-0.190948,-0.095349,0.032534,0.004545,0.999999,0.000428,-0.000665,-0.000955,-0.053468,0.644705,-0.335596,-0.684743,98.234982,66.751432,-114.389347
53522,-9.141105,3.245783,-0.514461,0.286421,0.504113,-0.116123,-0.077302,-0.189575,-0.214421,-0.091371,0.032554,-0.005244,0.999999,-0.000387,-0.000948,-0.001072,-0.054294,0.644433,-0.334596,-0.685422,97.981008,66.889658,-114.620039
53523,-8.555965,3.667286,-0.292521,-0.208222,0.063738,-0.501853,0.090406,-0.151450,-0.185043,-0.085523,0.036753,-0.002973,0.999999,0.000452,-0.000757,-0.000925,-0.055496,0.644196,-0.334275,-0.685705,97.866185,67.007925,-114.803720
53524,-8.559343,3.604820,0.093449,-0.505088,0.302025,-0.543412,0.025112,-0.043999,-0.117800,-0.085572,0.036098,0.000920,1.000000,0.000126,-0.000220,-0.000589,-0.056077,0.644233,-0.333977,-0.685769,97.844355,67.079509,-114.845645
53525,-8.628037,3.358147,-0.776441,0.365207,0.045197,-0.528959,-0.021382,-0.039580,-0.083587,-0.086265,0.033617,-0.007785,1.000000,-0.000107,-0.000198,-0.000418,-0.056383,0.644240,-0.333631,-0.685905,97.795292,67.131335,-114.888198
53526,-8.998884,3.199114,-1.163679,0.835614,0.085520,-0.228177,-0.063198,-0.049210,-0.039698,-0.089980,0.032005,-0.011669,1.000000,-0.000316,-0.000246,-0.000198,-0.056421,0.644153,-0.333279,-0.686155,97.701022,67.158950,-114.953794
53527,-9.097853,1.321207,-1.830052,2.373378,1.207272,-0.825187,0.425122,-0.200202,0.044960,-0.090963,0.013231,-0.018363,0.999997,0.002126,-0.001001,0.000225,-0.057992,0.643268,-0.334832,-0.686098,97.667580,67.150060,-115.256992
53528,-8.556152,1.744955,-1.760419,2.010217,0.716275,-1.164124,1.238642,-0.287654,0.099493,-0.085545,0.017516,-0.017619,0.999980,0.006193,-0.001438,0.000497,-0.062138,0.641739,-0.339318,-0.684962,97.972659,67.117287,-115.698701
53529,-7.918332,3.602207,-0.552468,-0.089810,-0.262996,-1.100409,1.373346,-0.257962,0.095874,-0.079194,0.036021,-0.005379,0.999975,0.006867,-0.001290,0.000479,-0.066676,0.640249,-0.344248,-0.683468,98.395803,67.085324,-116.096163
53530,-7.663284,3.911880,-1.016800,0.059250,-0.827623,-1.188649,1.043881,-0.082330,0.069678,-0.076642,0.039145,-0.009995,0.999986,0.005219,-0.000412,0.000348,-0.069943,0.639488,-0.348013,-0.681945,98.870496,67.054220,-116.232749
53531,-8.633674,4.350440,-0.595671,-0.391283,-0.554743,-0.150366,1.073849,0.016750,0.121253,-0.086364,0.043483,-0.005716,0.999985,0.005369,0.000084,0.000606,-0.072956,0.638947,-0.352071,-0.680051,99.483272,66.985432,-116.238241
53532,-8.786759,3.675128,-0.507909,-0.093411,0.078778,-0.275567,0.943420,-0.052396,0.156254,-0.087895,0.036706,-0.004929,0.999989,0.004717,-0.000262,0.000781,-0.075553,0.638140,-0.355762,-0.678603,99.919906,66.903540,-116.353760
53533,-8.567600,4.094361,-0.962122,-0.014318,-0.546376,-0.284075,0.904419,-0.121269,0.160610,-0.085703,0.040918,-0.009488,0.999989,0.004522,-0.000606,0.000803,-0.078132,0.637092,-0.359300,-0.677430,100.241592,66.826487,-116.570106
53534,-9.144374,4.985819,-0.105004,-1.128620,-0.460487,0.531536,1.091724,-0.111977,0.183640,-0.091489,0.049779,-0.000829,0.999985,0.005459,-0.000560,0.000918,-0.081210,0.635944,-0.363541,-0.675883,100.676624,66.735968,-116.779969
53535,-9.631628,6.554179,0.657695,-2.570958,-0.925021,1.531579,0.929177,-0.208435,0.180284,-0.096382,0.065424,0.006781,0.999988,0.004646,-0.001042,0.000901,-0.083957,0.634525,-0.367172,-0.674917,100.893098,66.658196,-117.126626
53536,-10.354193,5.159088,-1.133127,-0.218923,-0.714479,1.786925,0.960183,-0.316147,0.246928,-0.103588,0.051517,-0.011248,0.999986,0.004801,-0.001581,0.001235,-0.086772,0.632591,-0.371065,-0.674248,100.971254,66.554944,-117.643487
53537,-10.872311,6.720907,-0.991688,-1.158602,-1.519748,2.864418,1.139329,-0.368842,0.312347,-0.108810,0.067095,-0.009735,0.999981,0.005697,-0.001844,0.001562,-0.090029,0.630259,-0.375735,-0.673418,101.069939,66.420958,-118.250544
53538,-11.666118,6.472430,1.961016,-3.155699,0.812798,3.272297,0.981405,-0.494799,0.323652,-0.116814,0.064439,0.019638,0.999984,0.004907,-0.002474,0.001618,-0.092982,0.627530,-0.379837,-0.673264,100.916919,66.294290,-119.034014
53539,-9.296364,8.539373,3.170411,-5.764297,-0.655535,1.837968,0.452750,-0.536973,0.177373,-0.093124,0.085240,0.031647,0.999993,0.002264,-0.002685,0.000887,-0.094847,0.625168,-0.381672,-0.674162,100.446661,66.252721,-119.833573
53540,-8.022867,8.980276,1.330430,-4.816846,-2.578266,1.000811,-0.674749,-0.268572,0.170064,-0.080323,0.089778,0.012894,0.999993,-0.003374,-0.001343,0.000850,-0.092699,0.624251,-0.379807,-0.676361,99.678719,66.184966,-120.252902
53541,-8.461932,8.482524,-0.281242,-3.089958,-3.141537,1.332633,-1.361051,-0.084931,0.239930,-0.084720,0.084702,-0.003425,0.999976,-0.006805,-0.000425,0.001200,-0.087820,0.624121,-0.375912,-0.679302,98.741462,66.058194,-120.427607
53542,-9.378025,7.276058,-1.074860,-1.460686,-2.508256,1.746624,-1.396220,-0.024991,0.246675,-0.093868,0.072567,-0.011267,0.999975,-0.006981,-0.000125,0.001233,-0.082692,0.624167,-0.371926,-0.682091,97.864912,65.921691,-120.514047
53543,-8.713231,4.272435,-0.729136,-0.046705,-0.424693,-0.090410,-1.449178,-0.118277,0.214702,-0.087174,0.042576,-0.007652,0.999973,-0.007246,-0.000591,0.001074,-0.077676,0.623943,-0.367603,-0.685222,96.850075,65.809350,-120.718769
53544,-8.003800,0.884719,-0.768847,1.803365,1.729845,-2.119178,-1.377613,-0.026078,0.249120,-0.080048,0.008694,-0.007759,0.999975,-0.006888,-0.000130,0.001246,-0.072593,0.623913,-0.363649,-0.687911,95.993370,65.670444,-120.795305
53545,-8.822492,-0.326645,-1.845400,3.536524,2.286116,-1.836780,-1.082273,0.052704,0.243087,-0.088226,-0.003473,-0.018412,0.999985,-0.005411,0.000264,0.001215,-0.068304,0.624032,-0.360706,-0.689789,95.409567,65.529879,-120.757893
53546,-9.002891,0.368948,-0.946786,2.484452,2.387753,-1.433507,-0.215699,-0.105044,0.206184,-0.090028,0.003586,-0.009519,0.999999,-0.001078,-0.000525,0.001031,-0.067132,0.623369,-0.360576,-0.690572,95.131783,65.419021,-120.930006
53547,-8.330304,2.021540,-1.376542,1.809649,0.695296,-1.349995,0.499331,-0.224215,0.199536,-0.083308,0.020167,-0.013808,0.999996,0.002497,-0.001121,0.000998,-0.068425,0.622061,-0.362854,-0.690431,95.117295,65.317756,-121.263279
53548,-8.303440,3.783051,-2.588156,1.821083,-1.301203,-0.595983,0.951783,-0.234367,0.233810,-0.083048,0.037856,-0.025799,0.999987,0.004759,-0.001172,0.001169,-0.071025,0.620492,-0.366789,-0.689500,95.346900,65.197844,-121.613547
53549,-8.097113,4.374757,-2.088813,1.032240,-1.494005,-0.551626,0.932096,-0.256887,0.258697,-0.081001,0.043740,-0.020788,0.999987,0.004660,-0.001284,0.001293,-0.073517,0.618791,-0.370717,-0.688667,95.535414,65.065396,-121.997003
53550,-7.401290,4.365721,-1.176549,0.143795,-1.170683,-1.220151,0.716313,-0.202189,0.232770,-0.074052,0.043613,-0.011684,0.999992,0.003582,-0.001011,0.001164,-0.075329,0.617393,-0.373834,-0.688041,95.671578,64.945230,-122.302226
53551,-7.633065,4.503620,-0.751007,-0.221398,-0.908480,-0.967581,0.331297,-0.074538,0.209996,-0.076375,0.044968,-0.007464,0.999998,0.001656,-0.000373,0.001050,-0.075789,0.616615,-0.375601,-0.687725,95.746167,64.830873,-122.432055
53552,-8.498163,3.826911,-1.615840,1.048007,-0.627280,-0.432756,-0.008899,0.111451,0.218319,-0.085032,0.038176,-0.016113,0.999999,-0.000044,0.000557,0.001092,-0.074824,0.616589,-0.376293,-0.687476,95.850065,64.701229,-122.314198
53553,-8.616508,2.990415,-1.468252,1.435461,0.116283,-0.687532,-0.078703,0.156174,0.149270,-0.086199,0.029834,-0.014627,0.999999,-0.000394,0.000781,0.000746,-0.073796,0.616872,-0.376549,-0.687193,95.975333,64.608067,-122.128229
53554,-8.920227,3.299076,-1.431469,1.297249,0.050177,-0.282837,0.036801,0.185068,0.105224,-0.089233,0.032946,-0.014226,0.999999,0.000184,0.000925,0.000526,-0.073222,0.617293,-0.377075,-0.686587,96.205781,64.538125,-121.899054
53555,-9.608411,3.204219,-1.896607,1.869409,0.104146,0.320434,-0.050775,0.175892,0.094782,-0.096116,0.031992,-0.018890,0.999999,-0.000254,0.000879,0.000474,-0.072429,0.617734,-0.377266,-0.686170,96.375441,64.474227,-121.681490
53556,-9.188189,2.584830,-0.808836,1.254333,1.061307,-0.375598,0.194599,0.095809,0.033586,-0.091890,0.025841,-0.008019,0.999999,0.000973,0.000479,0.000168,-0.072757,0.617927,-0.378079,-0.685514,96.597606,64.450168,-121.561484
53557,-8.857142,3.161708,-1.471816,1.366223,0.139068,-0.393257,0.087486,0.134231,-0.018837,-0.088578,0.031632,-0.014645,1.000000,0.000437,0.000671,-0.000094,-0.072859,0.618389,-0.378376,-0.684922,96.811385,64.453081,-121.382612
53558,-8.913035,3.517863,-0.856845,0.673711,0.290644,-0.220329,0.137929,0.158924,-0.049541,-0.089128,0.035207,-0.008473,0.999999,0.000690,0.000795,-0.000248,-0.073177,0.618974,-0.378761,-0.684147,97.087864,64.471507,-121.166426
53559,-8.437021,4.309848,-0.610311,-0.097387,-0.284632,-0.323743,0.093777,0.176955,-0.078531,-0.084359,0.043134,-0.006008,0.999999,0.000469,0.000885,-0.000393,-0.073423,0.619691,-0.378911,-0.683387,97.365562,64.504592,-120.921021
53560,-8.509281,4.641415,-0.962761,-0.008381,-0.701048,-0.097445,-0.190478,0.255042,-0.088640,-0.085084,0.046443,-0.009563,0.999999,-0.000952,0.001275,-0.000443,-0.072675,0.620798,-0.378086,-0.682920,97.575435,64.537222,-120.570287
53561,-8.940370,3.430661,-0.393321,0.306608,0.657504,-0.256118,-0.272900,0.270366,-0.127048,-0.089387,0.034358,-0.003859,0.999998,-0.001364,0.001352,-0.000635,-0.071772,0.622057,-0.376865,-0.682544,97.763654,64.589888,-120.191395
53562,-9.061586,3.421913,-0.511038,0.411804,0.635620,-0.142664,-0.243762,0.243568,-0.178322,-0.090591,0.034294,-0.005042,0.999998,-0.001219,0.001218,-0.000892,-0.071186,0.623308,-0.375573,-0.682176,97.946109,64.673305,-119.837540
53563,-8.830125,4.380206,0.009312,-0.614046,0.178261,0.023396,-0.213226,0.230876,-0.181804,-0.088261,0.043882,0.000148,0.999998,-0.001066,0.001154,-0.000909,-0.070730,0.624511,-0.374368,-0.681786,98.133447,64.759163,-119.497912
53564,-8.675781,4.710014,-0.342968,-0.566011,-0.334816,0.043201,-0.418846,0.225080,-0.186476,-0.086718,0.047174,-0.003431,0.999997,-0.002094,0.001125,-0.000932,-0.069659,0.625771,-0.372444,-0.681795,98.198161,64.847885,-119.163814
53565,-8.742942,5.030979,0.011642,-1.025974,-0.343544,0.216233,-0.462486,0.227981,-0.195815,-0.087380,0.050396,0.000100,0.999996,-0.002312,0.001140,-0.000979,-0.068477,0.627069,-0.370341,-0.681867,98.244681,64.941463,-118.822497
53566,-8.821699,6.090246,-0.244538,-1.397556,-1.248198,0.744870,-0.642809,0.216707,-0.219089,-0.088153,0.060991,-0.002546,0.999994,-0.003214,0.001084,-0.001095,-0.066829,0.628428,-0.367541,-0.682294,98.179417,65.049251,-118.490752
53567,-8.516318,6.809892,-0.178272,-1.901252,-1.877074,0.760664,-0.854456,0.252005,-0.250230,-0.085080,0.068197,-0.001967,0.999989,-0.004272,0.001260,-0.001251,-0.064556,0.630025,-0.363928,-0.682977,98.042795,65.171990,-118.104233
53568,-8.390743,6.179532,-0.312284,-1.451943,-1.586739,0.388420,-1.194735,0.319020,-0.256398,-0.083833,0.061883,-0.003359,0.999980,-0.005974,0.001595,-0.001282,-0.061109,0.631951,-0.359143,-0.684046,97.795612,65.293589,-117.625207
53569,-8.859072,4.610536,-1.462574,0.450595,-0.947537,0.226156,-1.447189,0.412288,-0.251058,-0.088563,0.046110,-0.014777,0.999971,-0.007236,0.002061,-0.001255,-0.056673,0.634234,-0.353524,-0.685242,97.519475,65.405734,-117.019255
53570,-9.195396,2.805823,-1.818582,1.769835,0.312386,-0.194720,-1.406112,0.453379,-0.261466,-0.091958,0.028051,-0.018175,0.999972,-0.007030,0.002267,-0.001307,-0.052330,0.636628,-0.348003,-0.686192,97.321546,65.522012,-116.353839
53571,-9.146357,1.255918,-2.112568,2.792716,1.309695,-0.858276,-1.094856,0.461305,-0.268356,-0.091495,0.012567,-0.020983,0.999981,-0.005474,0.002307,-0.001342,-0.048982,0.638950,-0.343515,-0.686543,97.315926,65.641926,-115.673580
53572,-9.334853,0.829033,-2.197174,3.084771,1.672925,-0.849444,-0.541399,0.426441,-0.254289,-0.093385,0.008350,-0.021795,0.999993,-0.002707,0.002132,-0.001271,-0.047416,0.640977,-0.340953,-0.686040,97.585143,65.755985,-115.040454
53573,-9.303388,2.015341,-1.244899,1.640616,1.264008,-0.438524,-0.000275,0.324722,-0.257513,-0.093028,0.020273,-0.012298,0.999998,-0.000001,0.001624,-0.001288,-0.047766,0.642527,-0.340211,-0.684933,98.041445,65.878016,-114.542715
53574,-8.919086,2.826457,-0.837309,0.783675,0.713793,-0.479078,0.258912,0.273795,-0.229584,-0.089170,0.028378,-0.008214,0.999998,0.001295,0.001369,-0.001148,-0.048941,0.643790,-0.340432,-0.683553,98.580960,65.986783,-114.116916
53575,-9.177266,3.564231,-0.700645,0.292827,0.319671,0.047774,0.569138,0.276450,-0.209276,-0.091745,0.035758,-0.006778,0.999994,0.002846,0.001382,-0.001046,-0.051040,0.644947,-0.341778,-0.681635,99.302490,66.081854,-113.686900
53576,-9.550068,3.961235,-0.591100,0.001592,0.221775,0.540818,1.008756,0.191390,-0.182027,-0.095470,0.039728,-0.005619,0.999986,0.005044,0.000957,-0.000910,-0.054608,0.645642,-0.344680,-0.679235,100.165600,66.167401,-113.377692
53577,-8.910779,5.244105,0.324739,-1.599677,-0.470321,0.396497,1.205465,0.111989,-0.108813,-0.089077,0.052468,0.003613,0.999982,0.006027,0.000560,-0.000544,-0.058698,0.645867,-0.348455,-0.676749,101.026780,66.218134,-113.194050
53578,-8.204598,6.000731,0.697617,-2.484380,-1.056981,0.011827,0.969066,0.172402,-0.001424,-0.082039,0.059973,0.007338,0.999988,0.004845,0.000862,-0.000007,-0.061554,0.646158,-0.351783,-0.674492,101.803210,66.200696,-112.954920
53579,-8.426340,5.991543,0.114807,-2.013399,-1.246647,0.252437,0.784440,0.187811,0.097369,-0.084291,0.059869,0.001462,0.999992,0.003922,0.000939,0.000487,-0.063451,0.646372,-0.354805,-0.672526,102.465717,66.124770,-112.724585
53580,-8.668644,6.274633,-0.200799,-1.904818,-1.500472,0.612129,0.453665,0.159966,0.190406,-0.086748,0.062668,-0.001796,0.999997,0.002268,0.000800,0.000952,-0.064016,0.646424,-0.357002,-0.671258,102.874453,65.999552,-112.564387
53581,-9.097189,6.219481,-0.450342,-1.614470,-1.406011,1.006747,-0.050798,0.184718,0.202974,-0.091039,0.062101,-0.004435,0.999999,-0.000254,0.000924,0.001015,-0.062863,0.646695,-0.357555,-0.670812,103.019422,65.863669,-112.376403
53582,-9.462875,5.224164,-1.093906,-0.473518,-0.875703,1.005973,-0.595612,0.234596,0.147435,-0.094680,0.052139,-0.010983,0.999995,-0.002978,0.001173,0.000737,-0.060045,0.647400,-0.356112,-0.671157,102.928806,65.752499,-112.104243
53583,-9.485366,3.908722,-1.243299,0.386544,0.033629,0.514242,-1.096986,0.318328,0.053957,-0.094884,0.038993,-0.012496,0.999984,-0.005485,0.001592,0.000270,-0.055767,0.648689,-0.352704,-0.672081,102.680762,65.683067,-111.689473
53584,-9.586621,2.000260,-1.301354,1.476899,1.475637,-0.156648,-1.394985,0.398409,-0.045120,-0.095888,0.019934,-0.012962,0.999974,-0.006975,0.001992,-0.000226,-0.050713,0.650477,-0.347978,-0.673215,102.388052,65.660084,-111.136168
53585,-9.928293,0.881262,-2.145594,2.810886,2.021163,-0.222853,-1.122826,0.408162,-0.109963,-0.099322,0.008747,-0.021302,0.999982,-0.005614,0.002041,-0.000550,-0.046742,0.652314,-0.343946,-0.673798,102.281041,65.672800,-110.550127
53586,-9.817860,0.448397,-1.456190,2.408940,2.688740,-0.556363,-0.229664,0.319524,-0.114039,-0.098199,0.004523,-0.014410,0.999998,-0.001148,0.001598,-0.000570,-0.045850,0.653637,-0.342881,-0.673119,102.577558,65.698525,-110.082973
53587,-9.272637,1.286874,-0.821484,1.338389,2.178750,-0.769768,0.530501,0.179247,-0.072290,-0.092729,0.012924,-0.008098,0.999996,0.002653,0.000896,-0.000361,-0.047542,0.654238,-0.344478,-0.671601,103.125324,65.717311,-109.818115
53588,-8.884167,1.771145,0.095067,0.243360,2.148682,-1.015055,0.996322,-0.078153,0.033670,-0.088845,0.017692,0.001004,0.999988,0.004982,-0.000391,0.000168,-0.050845,0.653671,-0.347918,-0.670136,103.591072,65.710216,-109.936040
53589,-8.635051,3.305665,1.646318,-1.902204,1.746587,-0.783135,1.355718,-0.272058,0.093213,-0.086388,0.032904,0.016569,0.999976,0.006779,-0.001360,0.000466,-0.055458,0.652235,-0.352694,-0.668671,104.005926,65.696853,-110.335798
53590,-9.086148,5.451526,2.180816,-3.430394,0.644699,0.426936,0.728585,-0.261127,0.049555,-0.090904,0.054413,0.021888,0.999992,0.003643,-0.001306,0.000248,-0.058152,0.651066,-0.355224,-0.668243,104.087994,65.706957,-110.706393
