PacketCounter,Acc_X,Acc_Y,Acc_Z,FreeAcc_E,FreeAcc_N,FreeAcc_U,Gyr_X,Gyr_Y,Gyr_Z,VelInc_X,VelInc_Y,VelInc_Z,OriInc_q0,OriInc_q1,OriInc_q2,OriInc_q3,Quat_q0,Quat_q1,Quat_q2,Quat_q3,Roll,Pitch,Yaw
16897,-4.355286,2.572613,8.686486,-0.239458,0.218580,0.234037,0.288481,0.060052,0.173983,-0.043549,0.025563,0.086915,0.999999,0.001442,0.000300,0.000870,-0.371698,-0.264972,0.051475,0.888246,18.655792,25.623440,-130.306546
16898,-4.386839,2.647686,8.657782,-0.185967,0.213080,0.243737,0.324491,0.050837,0.178819,-0.043870,0.026297,0.086632,0.999998,0.001622,0.000254,0.000894,-0.372039,-0.265744,0.053082,0.887778,18.893613,25.616541,-130.193365
16899,-4.356078,2.728907,8.596346,-0.149688,0.166374,0.200769,0.349525,0.044840,0.191305,-0.043567,0.027097,0.086021,0.999998,0.001748,0.000224,0.000957,-0.372401,-0.266530,0.054827,0.887284,19.148300,25.603502,-130.073786
16900,-4.280551,2.912611,8.553307,-0.085209,0.014925,0.185205,0.366342,0.045480,0.187869,-0.042813,0.028929,0.085596,0.999998,0.001832,0.000227,0.000939,-0.372721,-0.267351,0.056641,0.886788,19.411879,25.591094,-129.956395
16901,-4.220418,2.997503,8.507992,-0.074459,-0.054787,0.145936,0.372681,0.068009,0.203443,-0.042206,0.029773,0.085150,0.999998,0.001863,0.000340,0.001017,-0.373112,-0.268278,0.058460,0.886226,19.684983,25.587232,-129.824442
16902,-4.324591,3.131927,8.488045,0.047576,-0.049098,0.214931,0.370051,0.086650,0.213948,-0.043242,0.031116,0.084957,0.999998,0.001850,0.000433,0.001070,-0.373552,-0.269278,0.060249,0.885617,19.961171,25.590945,-129.682740
16903,-4.375962,2.958646,8.472644,-0.057708,0.138826,0.170577,0.360706,0.094381,0.227329,-0.043753,0.029384,0.084800,0.999998,0.001804,0.000472,0.001137,-0.374071,-0.270290,0.061997,0.884970,20.236053,25.595434,-129.530591
16904,-4.364258,3.058379,8.561134,-0.082460,0.079031,0.270974,0.372176,0.089660,0.230157,-0.043639,0.030374,0.085688,0.999998,0.001861,0.000448,0.001151,-0.374576,-0.271300,0.063810,0.884317,20.517951,25.596295,-129.378528
16905,-4.369283,3.029001,8.494995,-0.097859,0.138167,0.207372,0.382917,0.083461,0.233006,-0.043692,0.030076,0.085026,0.999997,0.001915,0.000417,0.001165,-0.375078,-0.272300,0.065686,0.883660,20.805976,25.592462,-129.226072
16906,-4.352731,3.088965,8.549191,-0.133640,0.109573,0.264345,0.398134,0.074855,0.244019,-0.043533,0.030666,0.085569,0.999997,0.001991,0.000374,0.001220,-0.375601,-0.273287,0.067660,0.882984,21.104819,25.581176,-129.069159
16907,-4.358967,3.146584,8.480909,-0.093253,0.111060,0.227541,0.414958,0.064486,0.241263,-0.043600,0.031237,0.084888,0.999997,0.002075,0.000322,0.001206,-0.376084,-0.274257,0.069723,0.882317,21.411334,25.564069,-128.916312
16908,-4.365481,3.206413,8.446825,-0.069778,0.110169,0.220764,0.433590,0.047783,0.248219,-0.043674,0.031827,0.084548,0.999997,0.002168,0.000239,0.001241,-0.376563,-0.275186,0.071909,0.881647,21.728662,25.535956,-128.763430
16909,-4.343191,3.270260,8.465747,-0.088668,0.083940,0.247713,0.446464,0.034006,0.246423,-0.043458,0.032460,0.084738,0.999997,0.002232,0.000170,0.001232,-0.377011,-0.276076,0.074175,0.880990,22.051169,25.500026,-128.615058
16910,-4.335509,3.317789,8.415275,-0.071751,0.086570,0.217684,0.456980,0.018352,0.247781,-0.043388,0.032932,0.084232,0.999997,0.002285,0.000092,0.001239,-0.377440,-0.276916,0.076518,0.880342,22.378380,25.454847,-128.469949
16911,-4.337911,3.462914,8.342684,0.024380,0.030356,0.207686,0.460117,0.005165,0.243413,-0.043419,0.034384,0.083507,0.999997,0.002301,0.000026,0.001217,-0.377839,-0.277702,0.078893,0.879713,22.704483,25.402798,-128.330932
16912,-4.260608,3.582556,8.309321,0.039444,-0.067084,0.188614,0.454457,-0.002477,0.235678,-0.042649,0.035586,0.083174,0.999997,0.002272,-0.000012,0.001178,-0.378206,-0.278447,0.081247,0.879106,23.024486,25.347833,-128.198726
16913,-4.251763,3.630175,8.293169,0.039492,-0.066842,0.188616,0.451183,-0.005878,0.235600,-0.042563,0.036064,0.083012,0.999997,0.002256,-0.000029,0.001178,-0.378573,-0.279167,0.083591,0.878499,23.341772,25.290329,-128.067794
16914,-4.202868,3.664129,8.279683,0.007428,-0.086021,0.169067,0.449517,-0.001366,0.232569,-0.042072,0.036406,0.082879,0.999997,0.002248,-0.000007,0.001163,-0.378929,-0.279905,0.085916,0.877887,23.657715,25.235338,-127.937919
16915,-4.233754,3.682983,8.262620,0.011675,-0.037526,0.175213,0.459639,0.008735,0.246893,-0.042379,0.036588,0.082712,0.999997,0.002298,0.000044,0.001234,-0.379336,-0.280696,0.088284,0.877223,23.983645,25.181566,-127.797534
16916,-4.236935,3.746997,8.260378,0.018229,-0.040821,0.198467,0.467106,0.028875,0.257659,-0.042405,0.037222,0.082697,0.999996,0.002336,0.000144,0.001288,-0.379784,-0.281585,0.090663,0.876501,24.318597,25.135171,-127.646145
16917,-4.309576,3.699794,8.279448,-0.018044,0.082422,0.227373,0.468944,0.018677,0.263569,-0.043137,0.036747,0.082885,0.999996,0.002345,0.000093,0.001318,-0.380250,-0.282427,0.093075,0.875775,24.654472,25.081151,-127.494360
16918,-4.342087,3.682407,8.299094,-0.058551,0.157414,0.250133,0.477304,0.012349,0.267866,-0.043465,0.036568,0.083081,0.999996,0.002387,0.000062,0.001339,-0.380716,-0.283254,0.095543,0.875039,24.995320,25.022099,-127.342245
16919,-4.301489,3.648935,8.272207,-0.122882,0.194748,0.196990,0.491113,0.001333,0.279727,-0.043065,0.036226,0.082812,0.999996,0.002456,0.000007,0.001399,-0.381207,-0.284050,0.098107,0.874283,25.345173,24.953516,-127.186758
16920,-4.209534,3.756341,8.218375,-0.114449,0.100813,0.154680,0.517790,-0.005424,0.289129,-0.042152,0.037290,0.082279,0.999996,0.002589,-0.000027,0.001446,-0.381694,-0.284862,0.100814,0.873499,25.711547,24.878338,-127.028339
16921,-4.080476,3.815056,8.238989,-0.199705,0.011643,0.139476,0.530003,-0.002695,0.291330,-0.040861,0.037873,0.082490,0.999995,0.002650,-0.000013,0.001457,-0.382172,-0.285704,0.103570,0.872692,26.085129,24.802993,-126.868543
16922,-4.236731,4.065599,8.173294,0.035619,0.001712,0.251116,0.535190,0.008526,0.297581,-0.042424,0.040374,0.081843,0.999995,0.002676,0.000043,0.001488,-0.382671,-0.286600,0.106337,0.871846,26.464196,24.730973,-126.702728
16923,-4.140528,4.040413,8.059895,-0.005758,-0.001014,0.108526,0.521914,0.000316,0.309596,-0.041467,0.040129,0.080704,0.999995,0.002610,0.000002,0.001548,-0.383234,-0.287424,0.109076,0.870989,26.836877,24.650578,-126.533078
16924,-4.197227,4.237171,8.036951,0.118519,-0.047396,0.194627,0.509350,0.010081,0.311507,-0.042034,0.042101,0.080479,0.999996,0.002547,0.000050,0.001558,-0.383825,-0.288265,0.111745,0.870112,27.203654,24.573773,-126.360250
16925,-4.163351,4.258281,7.985252,0.105432,-0.040139,0.148120,0.491006,0.005868,0.314302,-0.041698,0.042321,0.079958,0.999996,0.002455,0.000029,0.001572,-0.384450,-0.289047,0.114345,0.869239,27.559404,24.493005,-126.187712
16926,-4.089949,4.350975,7.962321,0.099014,-0.112327,0.138922,0.471491,0.006908,0.313155,-0.040965,0.043258,0.079727,0.999996,0.002357,0.000035,0.001566,-0.385094,-0.289795,0.116855,0.868370,27.903516,24.412208,-126.016175
16927,-4.048307,4.401984,7.960280,0.073446,-0.135060,0.142634,0.449370,0.017743,0.307994,-0.040544,0.043778,0.079705,0.999996,0.002247,0.000089,0.001540,-0.385752,-0.290548,0.119240,0.867502,28.234452,24.337268,-125.844910
16928,-4.065984,4.493452,7.950511,0.109907,-0.143147,0.182370,0.420272,0.017043,0.296768,-0.040720,0.044707,0.079603,0.999997,0.002101,0.000085,0.001484,-0.386400,-0.291247,0.121483,0.866667,28.545812,24.264253,-125.680642
16929,-4.084634,4.540627,7.947058,0.118561,-0.122372,0.208692,0.395545,0.012886,0.288520,-0.040907,0.045190,0.079563,0.999997,0.001978,0.000064,0.001443,-0.387044,-0.291882,0.123614,0.865865,28.840057,24.190533,-125.522665
16930,-4.071070,4.577424,7.895162,0.135385,-0.119874,0.178666,0.363341,0.007999,0.270974,-0.040769,0.045575,0.079036,0.999997,0.001817,0.000040,0.001355,-0.387653,-0.292444,0.125590,0.865118,29.111076,24.118619,-125.376334
16931,-4.009562,4.583890,7.868484,0.096707,-0.135543,0.135870,0.332083,-0.003724,0.251875,-0.040155,0.045658,0.078760,0.999998,0.001660,-0.000019,0.001259,-0.388217,-0.292905,0.127423,0.864441,29.357948,24.045491,-125.244455
16932,-4.018646,4.652295,7.882925,0.109726,-0.142435,0.182382,0.310204,-0.002358,0.235429,-0.040242,0.046353,0.078901,0.999998,0.001551,-0.000012,0.001177,-0.388740,-0.293339,0.129136,0.863804,29.588642,23.977274,-125.121582
16933,-3.980383,4.691271,7.922013,0.067237,-0.167479,0.216126,0.281033,-0.007190,0.211326,-0.039856,0.046759,0.079284,0.999998,0.001405,-0.000036,0.001057,-0.389198,-0.293709,0.130695,0.863237,29.796266,23.912968,-125.013634
16934,-3.958339,4.698237,7.861395,0.077505,-0.161461,0.162846,0.249776,-0.014446,0.188750,-0.039633,0.046847,0.078670,0.999999,0.001249,-0.000072,0.000944,-0.389598,-0.294002,0.132101,0.862743,29.980020,23.851262,-124.920561
16935,-3.970747,4.715633,7.886193,0.062723,-0.139471,0.195940,0.221692,-0.021474,0.159846,-0.039754,0.047037,0.078910,0.999999,0.001108,-0.000107,0.000799,-0.389910,-0.294227,0.133355,0.862332,30.140134,23.794014,-124.845540
16936,-3.932867,4.692375,7.868350,0.026144,-0.131002,0.156207,0.194949,-0.033167,0.130980,-0.039372,0.046821,0.078723,0.999999,0.000975,-0.000166,0.000655,-0.390128,-0.294370,0.134476,0.862011,30.277144,23.739217,-124.790081
16937,-3.963615,4.726515,7.857136,0.058210,-0.111467,0.175752,0.170976,-0.046804,0.094322,-0.039677,0.047179,0.078602,0.999999,0.000855,-0.000234,0.000472,-0.390214,-0.294430,0.135465,0.861797,30.390476,23.688073,-124.758807
16938,-3.900847,4.835143,7.821726,0.102899,-0.213799,0.173218,0.148482,-0.057842,0.069206,-0.039048,0.048280,0.078242,1.000000,0.000742,-0.000289,0.000346,-0.390216,-0.294417,0.136342,0.861662,30.484145,23.638816,-124.744768
16939,-3.832821,4.840755,7.785810,0.085447,-0.254813,0.120591,0.129826,-0.040579,0.054885,-0.038357,0.048346,0.077882,1.000000,0.000649,-0.000203,0.000274,-0.390197,-0.294450,0.137083,0.861542,30.566058,23.602122,-124.732954
16940,-3.865173,4.908825,7.770512,0.145277,-0.264193,0.153559,0.099872,-0.019913,0.051375,-0.038672,0.049040,0.077726,1.000000,0.000499,-0.000100,0.000257,-0.390219,-0.294517,0.137650,0.861418,30.632786,23.576735,-124.716600
16941,-3.906866,4.807485,7.782787,0.093933,-0.157980,0.132840,0.068977,-0.002336,0.042481,-0.039080,0.048040,0.077844,1.000000,0.000345,-0.000012,0.000212,-0.390262,-0.294604,0.138036,0.861307,30.682003,23.562485,-124.699341
16942,-3.973483,4.701980,7.865273,0.010975,-0.032226,0.175232,0.049039,0.006780,0.037655,-0.039741,0.046993,0.078666,1.000000,0.000245,0.000034,0.000188,-0.390319,-0.294696,0.138312,0.861206,30.720034,23.554234,-124.681895
16943,-4.001921,4.533002,7.925162,-0.114968,0.105400,0.154626,0.047829,0.005975,0.039253,-0.040026,0.045303,0.079264,1.000000,0.000239,0.000030,0.000196,-0.390385,-0.294781,0.138586,0.861103,30.757492,23.544999,-124.663732
16944,-4.071913,4.516773,7.940652,-0.101990,0.174419,0.187055,0.060546,0.002105,0.048661,-0.040729,0.045134,0.079421,1.000000,0.000303,0.000011,0.000243,-0.390468,-0.294867,0.138937,0.860979,30.803867,23.531198,-124.641886
16945,-4.026875,4.544399,7.901296,-0.089474,0.128643,0.150907,0.065951,-0.007942,0.050526,-0.040283,0.045408,0.079026,1.000000,0.000330,-0.000040,0.000253,-0.390547,-0.294919,0.139332,0.860862,30.852321,23.511782,-124.622162
16946,-3.997536,4.642638,7.849672,-0.019250,0.049160,0.144669,0.069646,-0.016850,0.053149,-0.039994,0.046388,0.078510,1.000000,0.000348,-0.000084,0.000266,-0.390623,-0.294939,0.139766,0.860750,30.902420,23.487307,-124.604020
16947,-3.908307,4.737474,7.801461,0.016679,-0.073792,0.115837,0.043019,-0.011428,0.050002,-0.039099,0.047348,0.078023,1.000000,0.000215,-0.000057,0.000250,-0.390730,-0.294931,0.140069,0.860655,30.937144,23.466305,-124.585744
16948,-3.836091,4.946881,7.769034,0.121187,-0.261660,0.160375,0.011786,-0.008476,0.018132,-0.038369,0.049461,0.077692,1.000000,0.000059,-0.000042,0.000091,-0.390746,-0.294898,0.140186,0.860640,30.947669,23.456242,-124.583707
16949,-3.813154,5.000809,7.761525,0.146713,-0.314539,0.170751,-0.037054,0.004935,-0.010109,-0.038127,0.050024,0.077607,1.000000,-0.000185,0.000025,-0.000051,-0.390724,-0.294847,0.140023,0.860694,30.925784,23.460979,-124.592375
16950,-3.932070,5.042170,7.751338,0.243020,-0.256403,0.229378,-0.074832,0.008650,-0.031843,-0.039309,0.050457,0.077496,1.000000,-0.000374,0.000043,-0.000159,-0.390665,-0.294753,0.139660,0.860811,30.878205,23.474042,-124.611621
16951,-3.949817,4.972881,7.817744,0.177048,-0.204214,0.255811,-0.106638,-0.003740,-0.051505,-0.039487,0.049781,0.078150,1.000000,-0.000533,-0.000019,-0.000258,-0.390561,-0.294557,0.139154,0.861008,30.806504,23.486654,-124.645254
16952,-3.933978,4.885270,7.802309,0.136120,-0.168059,0.195873,-0.131567,-0.017791,-0.071123,-0.039329,0.048918,0.077987,1.000000,-0.000658,-0.000089,-0.000356,-0.390398,-0.294266,0.138540,0.861280,30.714622,23.498165,-124.694075
16953,-3.968780,4.832856,7.832585,0.117009,-0.118378,0.208758,-0.156777,-0.030838,-0.100852,-0.039675,0.048410,0.078282,1.000000,-0.000784,-0.000154,-0.000504,-0.390137,-0.293890,0.137799,0.861646,30.600148,23.511736,-124.762900
16954,-3.922173,4.782925,7.831845,0.078250,-0.133994,0.165965,-0.179180,-0.037477,-0.117517,-0.039208,0.047922,0.078268,0.999999,-0.000896,-0.000187,-0.000588,-0.389830,-0.293453,0.136950,0.862069,30.468482,23.526860,-124.842999
16955,-3.936750,4.785520,7.890801,0.067832,-0.139623,0.219252,-0.199210,-0.038320,-0.136654,-0.039350,0.047961,0.078853,0.999999,-0.000996,-0.000192,-0.000683,-0.389470,-0.292985,0.135987,0.862543,30.320983,23.546820,-124.933563
16956,-3.965660,4.672465,7.950464,-0.002463,-0.059726,0.225472,-0.210246,-0.044214,-0.144005,-0.039640,0.046837,0.079447,0.999999,-0.001051,-0.000221,-0.000720,-0.389088,-0.292476,0.134978,0.863046,30.164865,23.565880,-125.030191
16957,-3.994770,4.557849,8.010184,-0.072719,0.020196,0.231688,-0.221322,-0.035848,-0.155608,-0.039927,0.045698,0.080044,0.999999,-0.001107,-0.000179,-0.000778,-0.388680,-0.291987,0.133887,0.863566,30.000788,23.592053,-125.130372
16958,-4.056497,4.357464,8.063525,-0.172866,0.180845,0.207315,-0.210133,-0.038123,-0.157007,-0.040546,0.043691,0.080582,0.999999,-0.001051,-0.000191,-0.000785,-0.388245,-0.291512,0.132847,0.864082,29.842539,23.617357,-125.232297
16959,-4.077558,4.311585,8.006734,-0.136906,0.209689,0.150308,-0.185151,-0.045068,-0.156121,-0.040760,0.043222,0.080018,0.999999,-0.000926,-0.000225,-0.000781,-0.387774,-0.291054,0.131929,0.864589,29.697766,23.638589,-125.335820
16960,-4.061543,4.309923,8.048970,-0.156044,0.183506,0.177279,-0.161079,-0.043774,-0.148496,-0.040601,0.043194,0.080446,0.999999,-0.000805,-0.000219,-0.000742,-0.387299,-0.290643,0.131124,0.865062,29.568637,23.658196,-125.435038
16961,-4.070087,4.387270,8.025528,-0.077152,0.124535,0.197376,-0.143268,-0.041259,-0.134669,-0.040688,0.043958,0.080215,0.999999,-0.000716,-0.000206,-0.000673,-0.386861,-0.290267,0.130411,0.865492,29.452895,23.674846,-125.525860
16962,-4.047716,4.416567,7.957730,-0.017880,0.076162,0.147704,-0.129898,-0.039954,-0.113045,-0.040468,0.044240,0.079540,1.000000,-0.000649,-0.000200,-0.000565,-0.386496,-0.289909,0.129785,0.865869,29.349768,23.686021,-125.604692
16963,-4.017625,4.487225,7.971412,0.011942,-0.004377,0.178295,-0.130554,-0.034246,-0.101459,-0.040167,0.044945,0.079678,1.000000,-0.000653,-0.000171,-0.000507,-0.386188,-0.289566,0.129161,0.866215,29.249382,23.696558,-125.675340
16964,-3.987828,4.464813,7.928483,0.020039,-0.022524,0.121961,-0.135261,-0.017448,-0.085426,-0.039866,0.044719,0.079251,1.000000,-0.000676,-0.000087,-0.000427,-0.385964,-0.289277,0.128507,0.866508,29.151957,23.711017,-125.732271
16965,-3.960162,4.494269,7.947523,0.022105,-0.074114,0.139120,-0.137563,-0.004600,-0.078633,-0.039586,0.045013,0.079443,1.000000,-0.000688,-0.000023,-0.000393,-0.385783,-0.289034,0.127829,0.866770,29.056152,23.729813,-125.781467
16966,-3.995129,4.441268,7.975555,0.003055,-0.024388,0.151989,-0.143869,-0.002022,-0.074659,-0.039936,0.044485,0.079723,1.000000,-0.000719,-0.000010,-0.000373,-0.385628,-0.288788,0.127124,0.867025,28.957993,23.748833,-125.827891
16967,-3.959151,4.411537,7.985740,-0.029141,-0.043473,0.132452,-0.150085,0.001024,-0.082305,-0.039573,0.044192,0.079824,1.000000,-0.000750,0.000005,-0.000412,-0.385452,-0.288547,0.126374,0.867293,28.854824,23.771309,-125.877479
16968,-3.902619,4.435618,7.989590,-0.035859,-0.115642,0.123308,-0.169483,0.004471,-0.106006,-0.039001,0.044445,0.079859,1.000000,-0.000847,0.000022,-0.000530,-0.385202,-0.288299,0.125501,0.867613,28.735769,23.802084,-125.939238
16969,-3.851689,4.543429,7.895352,0.070093,-0.242559,0.074226,-0.200565,0.019236,-0.125047,-0.038481,0.045538,0.078912,0.999999,-0.001003,0.000096,-0.000625,-0.384924,-0.288066,0.124435,0.867967,28.596299,23.845270,-126.006964
16970,-3.977409,4.653953,7.916546,0.205078,-0.244715,0.189750,-0.228487,0.031167,-0.141686,-0.039729,0.046658,0.079118,0.999999,-0.001142,0.000156,-0.000708,-0.384620,-0.287842,0.123202,0.868352,28.438553,23.898970,-126.080584
16971,-4.015902,4.673429,7.937226,0.241501,-0.252917,0.229503,-0.263923,0.025739,-0.145463,-0.040115,0.046868,0.079316,0.999999,-0.001320,0.000129,-0.000727,-0.384347,-0.287527,0.121820,0.868772,28.258773,23.950640,-126.157930
16972,-3.948454,4.578333,7.995673,0.132474,-0.264541,0.207022,-0.293841,0.029359,-0.154815,-0.039437,0.045931,0.079895,0.999999,-0.001469,0.000147,-0.000774,-0.384077,-0.287177,0.120287,0.869221,28.060115,24.006555,-126.239770
16973,-3.799994,4.530476,8.017200,0.031440,-0.370386,0.142330,-0.326184,0.043443,-0.179633,-0.037942,0.045470,0.080106,0.999998,-0.001631,0.000217,-0.000898,-0.383754,-0.286838,0.118550,0.869714,27.838749,24.075864,-126.331287
16974,-3.792216,4.551255,8.024799,0.056841,-0.423284,0.152737,-0.358516,0.065108,-0.212120,-0.037848,0.045696,0.080179,0.999998,-0.001793,0.000326,-0.001061,-0.383346,-0.286551,0.116585,0.870254,27.593872,24.164601,-126.435098
16975,-3.814656,4.515783,7.951612,0.114003,-0.419942,0.085923,-0.409916,0.085964,-0.249452,-0.038056,0.045368,0.079440,0.999997,-0.002050,0.000430,-0.001247,-0.382861,-0.286275,0.114301,0.870861,27.313046,24.273233,-126.553970
16976,-3.798702,4.552242,8.064087,0.086466,-0.503634,0.183370,-0.455274,0.116899,-0.288245,-0.037874,0.045761,0.080559,0.999996,-0.002276,0.000584,-0.001441,-0.382286,-0.286068,0.111704,0.871519,27.000475,24.407352,-126.686635
16977,-3.683829,4.686176,8.102626,0.109238,-0.732440,0.218995,-0.513060,0.146799,-0.341862,-0.036698,0.047132,0.080933,0.999995,-0.002565,0.000734,-0.001709,-0.381575,-0.285908,0.108721,0.872260,26.645050,24.569766,-126.841665
16978,-3.459285,5.075622,8.228543,0.178593,-1.228570,0.380240,-0.589731,0.185100,-0.402343,-0.034414,0.051068,0.082167,0.999993,-0.002949,0.000925,-0.002012,-0.380724,-0.285798,0.105243,0.873094,26.234946,24.766459,-127.021779
16979,-3.301266,4.768946,8.286175,-0.093225,-1.208663,0.228811,-0.702360,0.258125,-0.469011,-0.032793,0.048057,0.082736,0.999990,-0.003512,0.001291,-0.002345,-0.379778,-0.285823,0.101037,0.873994,25.751389,25.016045,-127.221165
16980,-3.190596,4.930392,8.454957,-0.119256,-1.495883,0.371722,-0.763317,0.360260,-0.544022,-0.031619,0.049713,0.084417,0.999987,-0.003817,0.001801,-0.002720,-0.378631,-0.286211,0.096261,0.874903,25.224394,25.335514,-127.438856
16981,-3.129908,6.466914,9.005844,0.504248,-2.741708,1.365409,-0.899672,0.395799,-0.595346,-0.030928,0.065166,0.089827,0.999983,-0.004498,0.001979,-0.002977,-0.377466,-0.286511,0.090745,0.875898,24.607734,25.683641,-127.680207
16982,-3.193249,4.102837,8.676729,-0.654406,-1.153843,0.214982,-1.313296,0.387471,-0.670836,-0.031626,0.041704,0.086556,0.999971,-0.006566,0.001937,-0.003354,-0.376537,-0.286016,0.083322,0.877196,23.730139,26.042462,-127.973835
16983,-3.301513,4.262519,9.164434,-0.701506,-1.359713,0.709337,-1.209446,0.376452,-0.725204,-0.032687,0.043298,0.091446,0.999973,-0.006047,0.001882,-0.003626,-0.375201,-0.285674,0.076292,0.878518,22.892103,26.403542,-128.308295
16984,-4.145484,3.983529,10.002659,-0.797992,-0.779544,1.670337,-1.217483,0.283256,-0.788057,-0.041154,0.040606,0.099839,0.999973,-0.006087,0.001416,-0.003940,-0.373540,-0.284918,0.069308,0.880049,22.017643,26.724770,-128.710460
16985,-4.480212,3.039235,10.719190,-1.498414,-0.076005,2.101886,-1.111191,-0.016753,-0.845381,-0.044680,0.031176,0.107016,0.999976,-0.005556,-0.000084,-0.004227,-0.371358,-0.283044,0.063266,0.882030,21.152406,26.892424,-129.223157
16986,-4.068744,2.038227,11.391317,-2.608100,0.192562,2.171898,-0.842466,-0.409832,-0.869674,-0.040830,0.021039,0.113742,0.999980,-0.004212,-0.002049,-0.004348,-0.368541,-0.279931,0.059103,0.884490,20.392192,26.848240,-129.843706
16987,-3.099765,1.773906,11.092043,-3.053959,-0.289322,1.429081,-0.467274,-0.746028,-0.885612,-0.031331,0.018136,0.110762,0.999981,-0.002336,-0.003730,-0.004428,-0.365021,-0.276014,0.057193,0.887302,19.811234,26.619457,-130.545777
16988,-2.360676,2.371822,10.585331,-2.754050,-1.162008,0.878985,-0.087806,-0.959111,-0.904884,-0.024006,0.023873,0.105728,0.999978,-0.000439,-0.004796,-0.004524,-0.360809,-0.271841,0.057327,0.890299,19.427011,26.274467,-131.302155
16989,-1.726955,3.742250,10.262265,-2.052971,-2.521793,0.757377,0.085598,-1.087432,-0.935278,-0.017652,0.037461,0.102543,0.999974,0.000428,-0.005437,-0.004676,-0.356180,-0.267402,0.058420,0.893431,19.128771,25.861341,-132.098136
16990,-1.585640,4.967581,9.872777,-1.142548,-3.445732,0.745913,0.106921,-1.086386,-0.948758,-0.016157,0.049699,0.098667,0.999974,0.000535,-0.005432,-0.004744,-0.351436,-0.262999,0.059585,0.896534,18.846754,25.448131,-132.897847
16991,-1.516580,5.854146,9.860693,-0.604872,-4.118404,0.979762,0.066813,-1.030670,-0.893277,-0.015412,0.058577,0.098547,0.999977,0.000334,-0.005153,-0.004466,-0.347003,-0.258741,0.060543,0.899431,18.568014,25.050863,-133.646734
16992,-1.539864,6.377743,9.866900,-0.243241,-4.471073,1.157848,0.032034,-0.943977,-0.761919,-0.015621,0.063821,0.098606,0.999982,0.000160,-0.004720,-0.003810,-0.343207,-0.254766,0.061361,0.901964,18.316136,24.674348,-134.296497
16993,-1.396148,6.962084,10.117410,-0.075521,-4.997995,1.492000,-0.014059,-0.862460,-0.553839,-0.014205,0.069667,0.101108,0.999987,-0.000070,-0.004312,-0.002769,-0.340436,-0.251004,0.062095,0.904016,18.101590,24.301847,-134.800417
16994,-1.158786,7.368776,10.388645,-0.076645,-5.450946,1.756521,-0.115819,-0.772912,-0.324786,-0.011869,0.073767,0.103798,0.999991,-0.000579,-0.003865,-0.001624,-0.338834,-0.247400,0.062503,0.905582,17.895758,23.936610,-135.148968
16995,-0.778172,7.102774,10.424255,-0.436311,-5.467541,1.573059,-0.188634,-0.687595,-0.054833,-0.008120,0.071128,0.104148,0.999994,-0.000943,-0.003438,-0.000274,-0.338584,-0.243967,0.062770,0.906588,17.722857,23.568716,-135.315741
16996,-0.581191,6.458743,10.305259,-0.818481,-5.066499,1.228677,-0.196180,-0.557889,0.185746,-0.006159,0.064683,0.102972,0.999995,-0.000981,-0.002789,0.000929,-0.339452,-0.241035,0.063075,0.907026,17.613456,23.230260,-135.315636
16997,-0.371032,5.764513,10.265426,-1.285162,-4.639244,0.937739,-0.122925,-0.396690,0.383929,-0.004025,0.057701,0.102611,0.999996,-0.000615,-0.001983,0.001920,-0.341201,-0.238889,0.063679,0.906895,17.604653,22.944488,-135.164347
16998,-0.299534,5.334583,10.357622,-1.587035,-4.332337,0.889641,-0.031161,-0.187055,0.511177,-0.003229,0.053354,0.103565,0.999996,-0.000156,-0.000935,0.002556,-0.343459,-0.237812,0.064491,0.906268,17.691858,22.751975,-134.901403
16999,-0.583519,4.669514,10.520767,-1.853602,-3.624502,0.969635,0.076147,0.026856,0.574893,-0.005955,0.046638,0.105226,0.999996,0.000381,0.000134,0.002874,-0.345972,-0.237861,0.065499,0.905227,17.870376,22.663303,-134.557720
17000,-0.855766,4.125095,10.658988,-2.076155,-3.019490,1.047098,0.231643,0.250310,0.603583,-0.008548,0.041102,0.106648,0.999994,0.001158,0.001252,0.003018,-0.348472,-0.239185,0.066857,0.903819,18.160212,22.691173,-134.157884
17001,-1.315415,3.830039,10.860162,-2.094948,-2.482018,1.313547,0.411247,0.452352,0.613924,-0.013025,0.038037,0.108710,0.999991,0.002056,0.002262,0.003070,-0.350896,-0.241721,0.068686,0.902067,18.571814,22.823484,-133.708397
17002,-2.110899,3.819580,11.068996,-1.771257,-1.929811,1.793581,0.580028,0.622505,0.617934,-0.020881,0.037810,0.110865,0.999986,0.002900,0.003113,0.003090,-0.353154,-0.245320,0.070980,0.900035,19.095784,23.045262,-133.224212
17003,-2.688225,4.010280,11.272854,-1.498130,-1.665487,2.244122,0.696364,0.745366,0.623733,-0.026586,0.039627,0.112967,0.999982,0.003482,0.003727,0.003119,-0.355361,-0.249660,0.073587,0.897760,19.701515,23.326514,-132.704098
17004,-3.358387,4.358842,11.542723,-1.135027,-1.452961,2.840836,0.749236,0.849945,0.640622,-0.033231,0.043048,0.115731,0.999979,0.003746,0.004250,0.003203,-0.357570,-0.254555,0.076262,0.895282,20.354245,23.656933,-132.150976
17005,-4.102064,4.644609,11.674746,-0.718317,-1.133729,3.336294,0.736897,0.907936,0.669534,-0.040644,0.045879,0.117102,0.999977,0.003684,0.004540,0.003348,-0.359963,-0.259658,0.078812,0.892632,21.017662,24.005244,-131.558544
17006,-4.924772,4.917270,11.686547,-0.214291,-0.740889,3.767129,0.671611,0.929274,0.733362,-0.048882,0.048600,0.117257,0.999977,0.003358,0.004646,0.003667,-0.362686,-0.264710,0.081111,0.889836,21.666145,24.346941,-130.921954
17007,-5.632969,5.018242,11.696475,0.112677,-0.294175,4.102033,0.571694,0.901706,0.833385,-0.056009,0.049613,0.117360,0.999977,0.002858,0.004508,0.004167,-0.365991,-0.269397,0.083144,0.886884,22.284968,24.644566,-130.223663
17008,-6.184581,5.094598,11.570501,0.408103,0.079027,4.255218,0.454078,0.833130,0.958882,-0.061605,0.050387,0.116077,0.999977,0.002270,0.004166,0.004794,-0.369933,-0.273508,0.084946,0.883814,22.864547,24.873219,-129.468067
17009,-6.547728,4.905397,11.365630,0.487297,0.527355,4.172885,0.331910,0.733032,1.089754,-0.065325,0.048509,0.113977,0.999977,0.001660,0.003665,0.005449,-0.374595,-0.276876,0.086568,0.880639,23.399832,25.011448,-128.653676
17010,-6.873285,4.687089,11.138659,0.553366,0.982335,4.044015,0.212544,0.616374,1.209385,-0.068670,0.046337,0.111648,0.999976,0.001063,0.003082,0.006047,-0.379847,-0.279449,0.088045,0.877424,23.885101,25.055947,-127.801678
17011,-6.987046,4.569252,10.962855,0.552042,1.223376,3.901493,0.075704,0.481282,1.290011,-0.069899,0.045200,0.109814,0.999976,0.000379,0.002406,0.006450,-0.385599,-0.281114,0.089286,0.874252,24.297360,25.003371,-126.933735
17012,-7.223860,4.302057,10.768927,0.556039,1.664029,3.736583,-0.057347,0.318491,1.332045,-0.072352,0.042570,0.107792,0.999977,-0.000287,0.001592,0.006660,-0.391598,-0.281785,0.090314,0.871258,24.623402,24.852385,-126.089243
17013,-7.177114,4.020425,10.555282,0.430033,1.913299,3.425231,-0.175693,0.147039,1.345448,-0.071962,0.039813,0.105571,0.999977,-0.000878,0.000735,0.006727,-0.397759,-0.281453,0.091177,0.868481,24.862622,24.603735,-125.280774
17014,-6.943171,3.903161,10.339536,0.334316,1.914735,3.093502,-0.263405,-0.020838,1.330809,-0.069701,0.038705,0.103337,0.999977,-0.001317,-0.000104,0.006654,-0.403853,-0.280217,0.091969,0.865981,25.024512,24.270306,-124.531795
17015,-6.903749,3.685181,10.165008,0.272400,2.126468,2.835354,-0.331915,-0.175564,1.295549,-0.069364,0.036572,0.101528,0.999977,-0.001660,-0.000878,0.006478,-0.409831,-0.278171,0.092721,0.863749,25.116784,23.862239,-123.843459
17016,-6.973847,3.648547,9.967442,0.413504,2.306963,2.669399,-0.382008,-0.324340,1.233136,-0.070124,0.036244,0.099492,0.999978,-0.001910,-0.001622,0.006166,-0.415491,-0.275401,0.093473,0.861849,25.144219,23.392920,-123.236284
17017,-7.075124,3.676590,9.725721,0.654794,2.478599,2.499546,-0.447645,-0.496125,1.152247,-0.071203,0.036574,0.096999,0.999978,-0.002238,-0.002481,0.005761,-0.420823,-0.271775,0.094182,0.860335,25.092669,22.852966,-122.719085
17018,-7.133324,3.359088,9.257721,0.782263,2.852447,1.982379,-0.504987,-0.666807,1.063958,-0.071819,0.033443,0.092254,0.999977,-0.002525,-0.003334,0.005320,-0.425726,-0.267330,0.094880,0.859238,24.966680,22.247847,-122.300854
17019,-7.333356,2.946422,8.592837,1.027296,3.408092,1.305970,-0.507095,-0.843277,0.979795,-0.073839,0.029321,0.085543,0.999976,-0.002535,-0.004216,0.004899,-0.430192,-0.262144,0.095828,0.858506,24.800454,21.571078,-121.972887
17020,-7.378939,2.750207,7.971378,1.322214,3.705322,0.679021,-0.477388,-1.024465,0.867221,-0.074315,0.027370,0.079269,0.999975,-0.002387,-0.005122,0.004336,-0.434002,-0.256290,0.097141,0.858208,24.608097,20.829107,-121.756615
17021,-7.026073,2.372713,7.097134,1.427471,3.803689,-0.386266,-0.447460,-1.187206,0.744829,-0.070768,0.023622,0.070499,0.999973,-0.002237,-0.005936,0.003724,-0.437169,-0.249844,0.098773,0.858315,24.392647,20.031029,-121.645378
17022,-6.050421,2.339374,6.280600,1.429500,3.174003,-1.481596,-0.439285,-1.274520,0.566859,-0.060969,0.023359,0.062367,0.999973,-0.002196,-0.006373,0.002834,-0.439474,-0.243121,0.100404,0.858880,24.140887,19.230736,-121.654375
17023,-5.153941,2.342068,5.510350,1.459772,2.554438,-2.480884,-0.468691,-1.210135,0.348476,-0.051912,0.023459,0.054735,0.999977,-0.002343,-0.006051,0.001742,-0.440905,-0.236703,0.101497,0.859810,23.839799,18.514070,-121.761972
17024,-4.826180,1.797390,4.892589,1.289052,2.680716,-3.361981,-0.462288,-1.039897,0.171988,-0.048531,0.018045,0.048632,0.999983,-0.002311,-0.005199,0.000860,-0.441621,-0.231115,0.102029,0.860899,23.527347,17.927718,-121.923594
17025,-4.735470,1.240412,4.347674,1.169474,2.982399,-4.102792,-0.346291,-0.846828,0.086254,-0.047544,0.012459,0.043254,0.999989,-0.001731,-0.004234,0.000431,-0.441937,-0.226648,0.102533,0.861864,23.283481,17.460857,-122.080990
17026,-5.006461,1.251766,3.966584,1.538824,3.227802,-4.374075,-0.161005,-0.672378,0.104037,-0.050204,0.012523,0.039487,0.999994,-0.000805,-0.003362,0.000520,-0.442185,-0.223334,0.103468,0.862490,23.162617,17.082153,-122.187332
17027,-5.253562,1.796634,3.710514,2.204052,3.135305,-4.343901,-0.046988,-0.546412,0.150927,-0.052650,0.017935,0.036957,0.999996,-0.000235,-0.002732,0.000755,-0.442582,-0.220785,0.104667,0.862798,23.124067,16.758443,-122.235833
17028,-5.041920,2.372730,3.583844,2.589091,2.650309,-4.320227,-0.080124,-0.467172,0.199888,-0.050526,0.023691,0.035711,0.999997,-0.000401,-0.002336,0.000999,-0.443251,-0.218480,0.105602,0.862927,23.079894,16.466122,-122.240112
17029,-4.752773,2.597003,3.557093,2.633364,2.304941,-4.359363,-0.206096,-0.384022,0.223177,-0.047625,0.025953,0.035453,0.999997,-0.001030,-0.001920,0.001116,-0.444211,-0.216239,0.105834,0.862970,22.972759,16.211896,-122.210476
17030,-4.584261,2.192439,3.488014,2.306323,2.420178,-4.634653,-0.317350,-0.314336,0.242667,-0.045924,0.021924,0.034773,0.999997,-0.001587,-0.001572,0.001213,-0.445398,-0.214042,0.105451,0.862952,22.809367,15.990700,-122.154668
17031,-4.270289,1.682412,3.629936,1.727760,2.471788,-4.797971,-0.326453,-0.256004,0.252858,-0.042771,0.016829,0.036217,0.999997,-0.001632,-0.001280,0.001264,-0.446675,-0.212068,0.104909,0.862846,22.645984,15.797829,-122.078228
17032,-3.951333,1.312551,3.746055,1.255419,2.434799,-4.927566,-0.254691,-0.190429,0.262948,-0.039566,0.013121,0.037406,0.999998,-0.001273,-0.000952,0.001315,-0.447943,-0.210533,0.104541,0.862609,22.529128,15.638005,-121.981837
17033,-3.763215,1.377028,4.037201,1.080567,2.250751,-4.701575,-0.145114,-0.114975,0.259428,-0.037673,0.013751,0.040340,0.999999,-0.000726,-0.000575,0.001297,-0.449125,-0.209569,0.104473,0.862237,22.479010,15.518740,-121.869289
17034,-3.679081,1.871337,4.418660,1.228143,1.903119,-4.206273,-0.091864,-0.038697,0.234234,-0.036821,0.018691,0.044171,0.999999,-0.000459,-0.000193,0.001171,-0.450176,-0.209067,0.104436,0.861815,22.460118,15.445731,-121.753965
17035,-3.781308,2.021695,4.757310,1.236922,1.904371,-3.824288,-0.095796,0.012593,0.209531,-0.037831,0.020200,0.047566,0.999999,-0.000479,0.000063,0.001048,-0.451154,-0.208789,0.104240,0.861395,22.438384,15.405129,-121.640064
17036,-3.738452,2.206128,5.085611,1.201715,1.765877,-3.476756,-0.090344,0.020410,0.207706,-0.037402,0.022045,0.050850,0.999999,-0.000452,0.000102,0.001039,-0.452119,-0.208558,0.104049,0.860968,22.419868,15.369301,-121.525909
17037,-3.594479,2.460020,5.390828,1.178155,1.505415,-3.150955,-0.094293,0.009214,0.220907,-0.035969,0.024586,0.053898,0.999999,-0.000471,0.000046,0.001105,-0.453140,-0.208263,0.103879,0.860523,22.400293,15.324584,-121.406744
17038,-3.476637,2.546614,5.663113,1.061150,1.363345,-2.909185,-0.090612,-0.008001,0.250123,-0.034800,0.025448,0.056618,0.999999,-0.000453,-0.000040,0.001251,-0.454271,-0.207887,0.103795,0.860028,22.385888,15.264516,-121.275750
17039,-3.166500,2.745326,5.941768,0.929471,1.000757,-2.671070,-0.095280,-0.022714,0.269845,-0.031709,0.027439,0.059401,0.999999,-0.000476,-0.000114,0.001349,-0.455484,-0.207427,0.103744,0.859503,22.370668,15.192341,-121.137137
17040,-2.852670,2.997605,6.273453,0.814899,0.603524,-2.366126,-0.135350,0.004509,0.272756,-0.028566,0.029980,0.062715,0.999999,-0.000677,0.000023,0.001364,-0.456764,-0.206990,0.103462,0.858963,22.334320,15.134060,-120.990930
17041,-2.806672,2.945627,6.533889,0.643167,0.595602,-2.165634,-0.187104,0.048131,0.266961,-0.028090,0.029480,0.065318,0.999999,-0.000936,0.000241,0.001335,-0.458093,-0.206625,0.102852,0.858416,22.269995,15.100287,-120.838014
17042,-2.822802,2.899629,6.798190,0.506063,0.630983,-1.942669,-0.220268,0.090374,0.276257,-0.028237,0.029032,0.067963,0.999998,-0.001101,0.000452,0.001381,-0.459518,-0.206360,0.102011,0.857819,22.190363,15.087089,-120.670526
17043,-2.884721,2.758775,6.959455,0.366906,0.754898,-1.833842,-0.243119,0.123763,0.289988,-0.028844,0.027631,0.069579,0.999998,-0.001216,0.000619,0.001450,-0.461039,-0.206178,0.101011,0.857164,22.101593,15.088913,-120.488033
17044,-2.824939,2.752482,7.114286,0.271094,0.700093,-1.712942,-0.246776,0.142083,0.284206,-0.028238,0.027572,0.071129,0.999998,-0.001234,0.000710,0.001421,-0.462548,-0.206069,0.099945,0.856502,22.010928,15.101955,-120.304609
17045,-2.655955,3.036817,7.424037,0.272378,0.386653,-1.376517,-0.278907,0.189626,0.263945,-0.026529,0.030437,0.074223,0.999998,-0.001395,0.000948,0.001320,-0.464024,-0.206098,0.098611,0.855851,21.901837,15.144971,-120.121890
17046,-2.534953,3.007481,7.748231,0.057324,0.278337,-1.127918,-0.325883,0.239115,0.230096,-0.025292,0.030172,0.077463,0.999997,-0.001629,0.001196,0.001150,-0.465426,-0.206245,0.096926,0.855247,21.763926,15.221840,-119.946839
17047,-2.396727,3.266897,8.097197,0.043950,-0.012987,-0.758444,-0.372954,0.302430,0.188906,-0.023876,0.032797,0.080947,0.999997,-0.001865,0.001512,0.000945,-0.466728,-0.206573,0.094849,0.854691,21.597024,15.341662,-119.780899
17048,-2.304772,3.196001,8.440640,-0.192217,-0.095629,-0.500085,-0.421414,0.366451,0.153119,-0.022918,0.032120,0.084381,0.999996,-0.002107,0.001832,0.000766,-0.467955,-0.207076,0.092378,0.854169,21.401066,15.503561,-119.620948
17049,-2.259004,3.026016,8.782048,-0.481138,-0.095907,-0.265784,-0.420628,0.427139,0.140723,-0.022424,0.030429,0.087805,0.999995,-0.002103,0.002136,0.000704,-0.469151,-0.207845,0.089755,0.853605,21.207660,15.701029,-119.455315
17050,-2.143155,3.096210,9.212998,-0.664407,-0.297459,0.113482,-0.356468,0.498685,0.137878,-0.021223,0.031112,0.092128,0.999995,-0.001782,0.002493,0.000689,-0.470297,-0.209068,0.087233,0.852937,21.055201,15.937731,-119.276214
17051,-2.228131,3.051900,9.506160,-0.788626,-0.268742,0.382966,-0.288334,0.566043,0.143758,-0.022034,0.030640,0.095080,0.999995,-0.001442,0.002830,0.000719,-0.471421,-0.210735,0.084850,0.852147,20.947382,16.209699,-119.079879
17052,-2.434791,2.965711,9.727167,-0.867127,-0.115317,0.607290,-0.206065,0.611671,0.153069,-0.024073,0.029739,0.097315,0.999994,-0.001030,0.003058,0.000765,-0.472513,-0.212783,0.082718,0.851242,20.891762,16.504398,-118.868643
17053,-2.574507,3.077928,9.846113,-0.789493,-0.120385,0.789651,-0.135391,0.635419,0.146316,-0.025455,0.030827,0.098521,0.999994,-0.000677,0.003177,0.000732,-0.473505,-0.215100,0.080823,0.850290,20.878129,16.813343,-118.656038
17054,-2.918137,2.990146,9.955801,-0.775402,0.154781,0.955273,-0.092168,0.632574,0.141653,-0.028888,0.029927,0.099636,0.999995,-0.000461,0.003163,0.000708,-0.474425,-0.217506,0.079112,0.849325,20.889502,17.121690,-118.446246
17055,-3.371955,2.916767,10.010967,-0.681496,0.521973,1.112509,-0.049218,0.586589,0.151313,-0.033448,0.029167,0.100201,0.999995,-0.000246,0.002933,0.000757,-0.475316,-0.219814,0.077702,0.848362,20.925329,17.403384,-118.240471
17056,-3.481408,2.931072,9.960022,-0.629990,0.567665,1.104917,-0.026950,0.509324,0.146698,-0.034582,0.029299,0.099685,0.999996,-0.000135,0.002547,0.000733,-0.476130,-0.221846,0.076565,0.847480,20.969195,17.644525,-118.053331
17057,-3.470886,3.106823,9.953356,-0.522364,0.427508,1.156037,-0.062560,0.447905,0.101579,-0.034502,0.031082,0.099601,0.999997,-0.000313,0.002240,0.000508,-0.476765,-0.223550,0.075373,0.846782,20.981677,17.861998,-117.904494
17058,-3.539169,2.700034,9.764638,-0.741264,0.682480,0.871351,-0.083886,0.387653,0.051633,-0.035209,0.027032,0.097703,0.999998,-0.000419,0.001938,0.000258,-0.477189,-0.224965,0.074177,0.846274,20.969882,18.057456,-117.796469
17059,-3.630807,2.300760,9.559598,-0.934296,0.960087,0.582860,-0.027290,0.328096,0.037925,-0.036156,0.023014,0.095652,0.999999,-0.000136,0.001640,0.000190,-0.477466,-0.226267,0.073348,0.845843,20.984394,18.223893,-117.709037
17060,-3.741279,2.091725,9.259890,-0.931779,1.170543,0.280856,0.079933,0.264823,0.033394,-0.037294,0.020874,0.092657,0.999999,0.000400,0.001324,0.000167,-0.477579,-0.227560,0.073118,0.845452,21.055599,18.357327,-117.637510
17061,-3.669232,2.270806,9.015708,-0.738003,1.025400,0.102284,0.171000,0.210997,0.016314,-0.036599,0.022628,0.090215,0.999999,0.000855,0.001055,0.000082,-0.477494,-0.228847,0.073381,0.845129,21.172350,18.465457,-117.587259
17062,-3.407338,2.627672,8.868515,-0.535771,0.621512,0.010336,0.193930,0.196289,-0.015780,-0.033984,0.026193,0.088744,0.999999,0.000970,0.000981,-0.000079,-0.477243,-0.230139,0.073740,0.844889,21.295777,18.572239,-117.557806
17063,-3.166943,2.777799,8.883793,-0.558110,0.328978,-0.002096,0.175403,0.222278,-0.048812,-0.031564,0.027708,0.088897,0.999999,0.000877,0.001111,-0.000244,-0.476880,-0.231508,0.073920,0.844704,21.404448,18.699793,-117.541284
17064,-3.131522,2.887234,9.015204,-0.575664,0.214791,0.139139,0.148736,0.262430,-0.053248,-0.031189,0.028814,0.090214,0.999999,0.000744,0.001312,-0.000266,-0.476545,-0.232984,0.073887,0.844490,21.500176,18.849590,-117.517822
17065,-3.260506,3.111346,9.182555,-0.450998,0.169945,0.404862,0.138641,0.291394,-0.034524,-0.032466,0.031055,0.091894,0.999999,0.000693,0.001457,-0.000173,-0.476308,-0.234551,0.073763,0.844201,21.595602,19.010913,-117.477397
17066,-3.604387,3.333541,9.326880,-0.223897,0.306475,0.720624,0.097545,0.295639,0.000967,-0.035906,0.033290,0.093338,0.999999,0.000488,0.001478,0.000005,-0.476272,-0.236024,0.073498,0.843834,21.674722,19.166873,-117.415407
17067,-3.755777,3.431871,9.419008,-0.147879,0.353020,0.885666,0.037818,0.258583,0.034596,-0.037442,0.034294,0.094245,0.999999,0.000189,0.001293,0.000173,-0.476432,-0.237186,0.073107,0.843452,21.723152,19.295988,-117.342865
17068,-3.924351,3.236589,9.311597,-0.188621,0.592974,0.779510,-0.040054,0.202936,0.039412,-0.039155,0.032377,0.093149,0.999999,-0.000200,0.001015,0.000197,-0.476685,-0.237925,0.072528,0.843151,21.724094,19.394361,-117.279672
17069,-4.107387,2.861469,9.044038,-0.278048,0.960983,0.475774,-0.067595,0.129846,0.027744,-0.041019,0.028640,0.090457,1.000000,-0.000338,0.000649,0.000139,-0.476892,-0.238295,0.071991,0.842975,21.701476,19.456397,-117.239858
17070,-3.972952,2.679423,8.848688,-0.384187,0.956790,0.197302,-0.067272,0.051254,-0.012506,-0.039705,0.026826,0.088488,1.000000,-0.000336,0.000256,-0.000063,-0.476904,-0.238349,0.071596,0.842987,21.665821,19.485045,-117.240065
17071,-3.625312,2.851751,8.781323,-0.365594,0.573787,0.082974,-0.063130,0.008006,-0.067455,-0.036240,0.028557,0.087806,1.000000,-0.000316,0.000040,-0.000337,-0.476660,-0.238249,0.071255,0.843182,21.618695,19.502384,-117.281501
17072,-3.449128,2.980665,8.777375,-0.334108,0.350564,0.066008,-0.075967,0.005098,-0.107469,-0.034473,0.029859,0.087763,1.000000,-0.000380,0.000025,-0.000537,-0.476265,-0.238122,0.070821,0.843478,21.556663,19.526460,-117.345758
17073,-3.434763,3.112018,8.734804,-0.211379,0.263895,0.069859,-0.089611,0.007804,-0.117633,-0.034326,0.031180,0.087335,1.000000,-0.000448,0.000039,-0.000588,-0.475840,-0.237976,0.070309,0.843801,21.484789,19.554165,-117.415709
17074,-3.408508,3.319707,8.800758,-0.084516,0.112967,0.190902,-0.119536,0.015971,-0.108282,-0.034060,0.033268,0.087990,1.000000,-0.000598,0.000080,-0.000541,-0.475496,-0.237791,0.069664,0.844100,21.398361,19.584055,-117.478097
17075,-3.258950,3.541674,8.907418,-0.016605,-0.155524,0.310643,-0.168888,0.028633,-0.092272,-0.032560,0.035507,0.089049,1.000000,-0.000844,0.000143,-0.000461,-0.475280,-0.237536,0.068798,0.844366,21.287315,19.617387,-117.529203
17076,-3.253400,3.542465,9.001052,-0.046509,-0.186810,0.391013,-0.233021,0.056514,-0.077967,-0.032495,0.035542,0.089978,0.999999,-0.001165,0.000283,-0.000390,-0.475212,-0.237241,0.067613,0.844582,21.144520,19.662414,-117.565625
17077,-3.302302,3.475374,9.125450,-0.115919,-0.142729,0.493786,-0.267477,0.065605,-0.060686,-0.032983,0.034886,0.091219,0.999999,-0.001337,0.000328,-0.000303,-0.475257,-0.236896,0.066280,0.844759,20.985618,19.708771,-117.590886
17078,-3.291757,3.397385,9.216600,-0.203188,-0.139783,0.544084,-0.270006,0.078307,-0.038859,-0.032875,0.034105,0.092133,0.999999,-0.001350,0.000392,-0.000194,-0.475404,-0.236591,0.064933,0.844867,20.830589,19.757282,-117.600614
17079,-3.238098,3.394292,9.364737,-0.278274,-0.219730,0.655312,-0.259090,0.077661,-0.028077,-0.032340,0.034069,0.093616,0.999999,-0.001295,0.000388,-0.000140,-0.475579,-0.236305,0.063646,0.844946,20.683521,19.803342,-117.604967
17080,-3.212011,3.456786,9.480968,-0.276690,-0.307741,0.769553,-0.245474,0.079676,-0.014853,-0.032080,0.034687,0.094780,0.999999,-0.001227,0.000398,-0.000074,-0.475797,-0.236056,0.062428,0.844984,20.547183,19.847697,-117.600986
17081,-3.375084,3.305490,9.490497,-0.310570,-0.107938,0.783484,-0.217539,0.060004,0.005139,-0.033723,0.033157,0.094879,0.999999,-0.001088,0.000300,0.000026,-0.476057,-0.235783,0.061396,0.844989,20.428995,19.877587,-117.590346
17082,-3.385061,3.361997,9.465395,-0.236402,-0.139822,0.783534,-0.181127,0.042929,0.018139,-0.033833,0.033703,0.094631,1.000000,-0.000906,0.000215,0.000091,-0.476326,-0.235521,0.060576,0.844970,20.333222,19.895637,-117.575511
17083,-3.165963,3.391744,9.463475,-0.294845,-0.347920,0.717108,-0.162315,0.028257,0.025280,-0.031651,0.033990,0.094612,1.000000,-0.000812,0.000141,0.000126,-0.476595,-0.235239,0.059878,0.844947,20.248274,19.904491,-117.560157
17084,-3.106573,3.261079,9.357490,-0.363757,-0.321413,0.560953,-0.120339,0.035041,0.039090,-0.031056,0.032661,0.093561,1.000000,-0.000602,0.000175,0.000195,-0.476878,-0.235082,0.059358,0.844867,20.190831,19.914190,-117.535054
17085,-3.005959,3.375544,9.405627,-0.335675,-0.477830,0.606281,-0.052808,0.053429,0.066658,-0.030046,0.033770,0.094055,1.000000,-0.000264,0.000267,0.000333,-0.477201,-0.235154,0.059110,0.844682,20.178490,19.928410,-117.490712
17086,-2.850317,3.676941,9.396625,-0.166485,-0.771100,0.642859,-0.002957,0.082187,0.106301,-0.028484,0.036756,0.093977,1.000000,-0.000015,0.000411,0.000532,-0.477644,-0.235456,0.059053,0.844352,20.204808,19.950182,-117.417244
17087,-2.658296,3.935400,9.539303,-0.120781,-1.089757,0.786843,0.027120,0.135417,0.161994,-0.026550,0.039320,0.095416,0.999999,0.000136,0.000677,0.000810,-0.478299,-0.236037,0.059059,0.843818,20.262839,19.989525,-117.300987
17088,-2.740171,4.151871,9.631624,0.028539,-1.151358,0.966380,0.034762,0.195972,0.236511,-0.027356,0.041470,0.096350,0.999999,0.000174,0.000980,0.001183,-0.479279,-0.236870,0.059042,0.843029,20.344624,20.046417,-117.128893
17089,-3.088735,4.307445,9.690338,0.258209,-0.954420,1.188195,-0.014265,0.237560,0.294067,-0.030836,0.043036,0.096937,0.999998,-0.000071,0.001188,0.001470,-0.480570,-0.237742,0.058786,0.842066,20.412619,20.113955,-116.915106
17090,-3.415105,4.055964,9.722191,0.173842,-0.557027,1.245987,-0.071468,0.240513,0.347102,-0.034104,0.040535,0.097248,0.999998,-0.000357,0.001203,0.001736,-0.482152,-0.238474,0.058345,0.840985,20.459035,20.172265,-116.670000
17091,-3.707467,3.692513,9.626978,0.046691,-0.110934,1.143780,-0.093359,0.200377,0.382989,-0.037049,0.036899,0.096290,0.999998,-0.000467,0.001002,0.001915,-0.483897,-0.238972,0.057951,0.839868,20.497010,20.201650,-116.412956
17092,-3.857156,3.397657,9.439523,-0.044407,0.196379,0.933744,-0.077317,0.137327,0.404180,-0.038575,0.033935,0.094409,0.999998,-0.000387,0.000687,0.002021,-0.485691,-0.239238,0.057803,0.838766,20.543997,20.192786,-116.157121
17093,-3.769931,3.244942,9.274124,-0.132642,0.233397,0.707737,-0.036889,0.075215,0.415542,-0.037732,0.032388,0.092749,0.999998,-0.000184,0.000376,0.002078,-0.487464,-0.239335,0.057987,0.837696,20.611422,20.148062,-115.908304
17094,-3.617106,3.250582,9.175381,-0.154038,0.129185,0.569841,0.004732,0.037446,0.416086,-0.036221,0.032428,0.091761,0.999998,0.000024,0.000187,0.002080,-0.489177,-0.239376,0.058440,0.836654,20.699966,20.082676,-115.667326
17095,-3.535125,3.300395,9.110491,-0.127634,0.061061,0.500930,0.032977,0.015900,0.413406,-0.035412,0.032916,0.091113,0.999998,0.000165,0.000080,0.002067,-0.490836,-0.239395,0.059058,0.835633,20.801970,20.005906,-115.432905
17096,-3.498231,3.330309,9.076196,-0.113270,0.039222,0.467949,0.044859,0.008805,0.416577,-0.035048,0.033210,0.090771,0.999998,0.000224,0.000044,0.002083,-0.492491,-0.239412,0.059748,0.834604,20.910723,19.924292,-115.198339
17097,-3.503983,3.344456,8.969541,-0.060061,0.069449,0.380815,0.013064,0.029504,0.365326,-0.035088,0.033375,0.089703,0.999998,0.000065,0.000148,0.001827,-0.493973,-0.239451,0.060192,0.833685,20.992261,19.863883,-114.988825
17098,-3.650277,3.293105,8.887928,-0.008962,0.242395,0.341399,-0.077999,0.030442,0.265598,-0.036533,0.032917,0.088872,0.999999,-0.000390,0.000152,0.001328,-0.495149,-0.239299,0.060136,0.833035,21.002479,19.824297,-114.835789
17099,-3.791318,2.827323,8.780615,-0.271650,0.615982,0.137881,-0.119127,0.015020,0.176286,-0.037932,0.028292,0.087792,0.999999,-0.000596,0.000075,0.000881,-0.495995,-0.239007,0.059838,0.832637,20.970434,19.794817,-114.737087
17100,-3.798033,2.544234,8.676672,-0.441091,0.779888,-0.046417,-0.089809,-0.022548,0.091349,-0.038002,0.025464,0.086751,1.000000,-0.000449,-0.000113,0.000457,-0.496442,-0.238657,0.059655,0.832484,20.936278,19.762691,-114.694700
17101,-3.795276,2.510970,8.538464,-0.400749,0.817118,-0.180129,-0.010835,-0.057436,0.030421,-0.037981,0.025109,0.085372,1.000000,-0.000054,-0.000287,0.000152,-0.496530,-0.238375,0.059814,0.832501,20.932806,19.724402,-114.694768
17102,-3.653883,2.774479,8.514431,-0.233389,0.575318,-0.160814,0.059850,-0.095126,-0.015390,-0.036577,0.027722,0.085135,1.000000,0.000299,-0.000476,-0.000077,-0.496332,-0.238126,0.060307,0.832655,20.958565,19.675308,-114.728854
17103,-3.591152,3.176511,8.477831,0.079390,0.335574,-0.079174,0.084888,-0.120617,-0.051007,-0.035955,0.031738,0.084770,1.000000,0.000424,-0.000603,-0.000255,-0.495947,-0.237843,0.060923,0.832920,20.989727,19.619937,-114.789030
17104,-3.504300,3.380817,8.480335,0.207310,0.169213,-0.037489,0.078092,-0.136147,-0.070166,-0.035089,0.033787,0.084793,1.000000,0.000390,-0.000681,-0.000351,-0.495486,-0.237485,0.061529,0.833252,21.012565,19.560180,-114.863183
17105,-3.475723,3.413612,8.433707,0.245111,0.145683,-0.077212,0.076272,-0.153980,-0.066747,-0.034811,0.034116,0.084323,1.000000,0.000381,-0.000770,-0.000334,-0.495034,-0.237046,0.062173,0.833597,21.033495,19.490259,-114.939599
17106,-3.327369,3.475458,8.412140,0.246991,0.003231,-0.124898,0.079781,-0.156374,-0.040705,-0.033332,0.034728,0.084109,1.000000,0.000399,-0.000782,-0.000204,-0.494687,-0.236599,0.062871,0.833878,21.061567,19.413680,-115.001447
17107,-3.231421,3.535103,8.404316,0.260346,-0.094548,-0.143415,0.090904,-0.144272,-0.032782,-0.032369,0.035318,0.084036,1.000000,0.000455,-0.000721,-0.000164,-0.494362,-0.236226,0.063593,0.834122,21.098163,19.342027,-115.056509
17108,-3.201978,3.623487,8.411982,0.314989,-0.152712,-0.116234,0.082652,-0.130640,-0.033266,-0.032069,0.036205,0.084114,1.000000,0.000413,-0.000653,-0.000166,-0.494050,-0.235890,0.064247,0.834352,21.131265,19.277736,-115.108557
17109,-3.300791,3.642767,8.357740,0.395124,-0.060852,-0.124707,0.057441,-0.113974,-0.045478,-0.033047,0.036411,0.083569,1.000000,0.000287,-0.000570,-0.000227,-0.493720,-0.235564,0.064739,0.834601,21.148620,19.224952,-115.164202
17110,-3.352106,3.474105,8.311401,0.304948,0.082320,-0.206146,0.042707,-0.114604,-0.049369,-0.033560,0.034732,0.083102,1.000000,0.000214,-0.000573,-0.000247,-0.493392,-0.235201,0.065169,0.834864,21.157085,19.172592,-115.221861
17111,-3.289935,3.404661,8.328389,0.219212,0.070305,-0.235399,0.052832,-0.110255,-0.052108,-0.032936,0.034033,0.083275,1.000000,0.000264,-0.000551,-0.000261,-0.493041,-0.234882,0.065625,0.835126,21.170947,19.123193,-115.280437
17112,-3.288873,3.425011,8.313329,0.242516,0.068972,-0.242146,0.069376,-0.100963,-0.057332,-0.032921,0.034231,0.083129,1.000000,0.000347,-0.000505,-0.000287,-0.492653,-0.234644,0.066122,0.835382,21.194292,19.079797,-115.339604
17113,-3.182357,3.560983,8.378099,0.276669,-0.091075,-0.173409,0.077669,-0.088603,-0.056733,-0.031851,0.035586,0.083781,1.000000,0.000388,-0.000443,-0.000284,-0.492259,-0.234478,0.066623,0.835621,21.223169,19.042972,-115.396066
17114,-3.049979,3.687375,8.494258,0.267901,-0.275479,-0.070826,0.077865,-0.075782,-0.069527,-0.030519,0.036851,0.084945,1.000000,0.000389,-0.000379,-0.000348,-0.491818,-0.234370,0.067080,0.835875,21.250999,19.015608,-115.456613
17115,-3.007281,3.701829,8.633829,0.195002,-0.331008,0.043412,0.076621,-0.046015,-0.065023,-0.030081,0.036995,0.086346,1.000000,0.000383,-0.000230,-0.000325,-0.491405,-0.234381,0.067462,0.836083,21.280854,19.003294,-115.508403
17116,-3.093838,3.726673,8.647087,0.238743,-0.267042,0.092045,0.097646,-0.036267,-0.046685,-0.030945,0.037232,0.086483,1.000000,0.000488,-0.000181,-0.000233,-0.491049,-0.234480,0.067931,0.836227,21.327071,18.992336,-115.547376
17117,-3.130956,3.699531,8.657955,0.220258,-0.216947,0.104672,0.118200,-0.037208,-0.016095,-0.031323,0.036947,0.086596,1.000000,0.000591,-0.000186,-0.000080,-0.490795,-0.234613,0.068522,0.836291,21.390394,18.974584,-115.569597
17118,-3.147057,3.575280,8.593446,0.148542,-0.123542,0.010579,0.158518,-0.041602,0.023481,-0.031493,0.035681,0.085956,1.000000,0.000793,-0.000208,0.000117,-0.490658,-0.234814,0.069341,0.836247,21.483979,18.946173,-115.570202
17119,-3.068103,3.420354,8.528789,0.009563,-0.092195,-0.125392,0.219374,-0.033213,0.058655,-0.030705,0.034101,0.085320,0.999999,0.001097,-0.000166,0.000293,-0.490598,-0.235187,0.070434,0.836086,21.619232,18.914883,-115.549464
17120,-2.849272,3.441105,8.476095,-0.060013,-0.269073,-0.235231,0.286859,0.003721,0.081966,-0.028505,0.034278,0.084811,0.999999,0.001434,0.000019,0.000410,-0.490570,-0.235871,0.071746,0.835798,21.800258,18.898206,-115.507150
17121,-2.799236,3.470176,8.517908,-0.105528,-0.317251,-0.204320,0.342612,0.064731,0.096793,-0.027982,0.034542,0.085247,0.999998,0.001713,0.000324,0.000484,-0.490558,-0.236940,0.073158,0.835380,22.020161,18.910696,-115.443039
17122,-2.814820,3.644613,8.612863,-0.042084,-0.391362,-0.053960,0.368337,0.128808,0.112443,-0.028113,0.036272,0.086214,0.999998,0.001842,0.000644,0.000562,-0.490603,-0.238335,0.074540,0.834835,22.262660,18.953522,-115.355197
17123,-2.752001,3.926588,8.781861,0.034567,-0.600061,0.174869,0.339456,0.202510,0.102936,-0.027451,0.039103,0.087913,0.999998,0.001697,0.001013,0.000515,-0.490667,-0.239967,0.075608,0.834233,22.492367,19.037158,-115.255679
17124,-2.956995,4.189445,8.990644,0.185724,-0.583372,0.519399,0.240584,0.271050,0.071022,-0.029463,0.041776,0.089997,0.999998,0.001203,0.001355,0.000355,-0.490742,-0.241656,0.076057,0.833661,22.665302,19.163712,-115.157479
17125,-3.309214,4.089202,9.111302,0.159735,-0.256617,0.703816,0.126632,0.286148,0.039464,-0.032970,0.040828,0.091186,0.999999,0.000633,0.001431,0.000197,-0.490826,-0.243137,0.075956,0.833189,22.768450,19.305017,-115.073163
17126,-3.622992,3.776084,9.089933,0.027429,0.156755,0.674751,0.070870,0.247894,0.019415,-0.036121,0.037725,0.090958,0.999999,0.000354,0.001239,0.000097,-0.490881,-0.244331,0.075692,0.832832,22.833415,19.430438,-115.008627
17127,-3.735078,3.429468,9.078663,-0.212144,0.416867,0.575545,0.100646,0.170432,0.007287,-0.037275,0.034248,0.090836,1.000000,0.000503,0.000852,0.000036,-0.490817,-0.245279,0.075726,0.832588,22.907069,19.517606,-114.969131
17128,-3.731286,3.466661,9.088086,-0.208313,0.389570,0.595883,0.177189,0.082723,-0.004329,-0.037275,0.034587,0.090927,1.000000,0.000886,0.000414,-0.000022,-0.490579,-0.246054,0.076281,0.832449,23.015731,19.561026,-114.956621
17129,-3.615711,3.590480,9.002408,-0.136464,0.242148,0.528055,0.233399,0.006771,-0.033431,-0.036148,0.035806,0.090067,0.999999,0.001167,0.000034,-0.000167,-0.490119,-0.246661,0.077220,0.832453,23.144921,19.570948,-114.978592
17130,-3.599479,3.822178,9.053444,-0.007915,0.114862,0.652342,0.263222,-0.045206,-0.055597,-0.036005,0.038113,0.090577,0.999999,0.001316,-0.000226,-0.000278,-0.489511,-0.247134,0.078383,0.832563,23.283089,19.558530,-115.025190
17131,-3.583006,4.181821,9.160682,0.194644,-0.081525,0.873710,0.226822,-0.090103,-0.079947,-0.035855,0.041729,0.091638,0.999999,0.001134,-0.000451,-0.000400,-0.488826,-0.247339,0.079474,0.832800,23.392039,19.528143,-115.096426
17132,-3.564922,4.479349,9.251759,0.363360,-0.245139,1.058198,0.145765,-0.147912,-0.086307,-0.035698,0.044741,0.092524,0.999999,0.000729,-0.000740,-0.000432,-0.488193,-0.247108,0.080361,0.833155,23.448952,19.468879,-115.184992
17133,-3.546526,4.503944,9.479622,0.265440,-0.283594,1.258703,0.031775,-0.208066,-0.080219,-0.035546,0.045039,0.094766,0.999999,0.000159,-0.001040,-0.000401,-0.487700,-0.246345,0.080927,0.833615,23.436768,19.376666,-115.284885
17134,-3.401408,4.473859,9.804953,0.040233,-0.410101,1.481215,-0.066405,-0.278189,-0.070630,-0.034135,0.044783,0.097987,0.999999,-0.000332,-0.001391,-0.000353,-0.487340,-0.245046,0.081267,0.834175,23.364931,19.245303,-115.396005
17135,-3.231490,4.295642,9.924709,-0.197603,-0.456606,1.463272,-0.129560,-0.338957,-0.048063,-0.032473,0.043028,0.099164,0.999998,-0.000648,-0.001695,-0.000240,-0.487124,-0.243330,0.081518,0.834779,23.256445,19.076698,-115.508983
17136,-3.277566,3.914321,9.824576,-0.392651,-0.187235,1.250642,-0.124952,-0.385134,-0.006023,-0.032964,0.039206,0.098158,0.999998,-0.000625,-0.001926,-0.000030,-0.487058,-0.241414,0.081953,0.835330,23.155302,18.874075,-115.608960
17137,-3.378627,3.995472,9.840174,-0.263094,-0.111196,1.328504,-0.079111,-0.450235,0.040394,-0.034016,0.039987,0.098310,0.999997,-0.000396,-0.002251,0.000202,-0.487102,-0.239318,0.082793,0.835826,23.084086,18.626562,-115.698236
17138,-3.399683,4.297005,9.832467,0.017314,-0.203840,1.441528,-0.073419,-0.532168,0.084301,-0.034276,0.042992,0.098218,0.999996,-0.000367,-0.002661,0.000422,-0.487285,-0.236874,0.083909,0.836303,23.018460,18.325902,-115.781912
17139,-3.462632,4.227680,9.626193,0.127832,-0.044394,1.255645,-0.097468,-0.619567,0.119601,-0.034950,0.042303,0.096133,0.999995,-0.000487,-0.003098,0.000598,-0.487604,-0.233988,0.085177,0.836802,22.939192,17.971136,-115.866104
17140,-3.562525,4.142720,9.354271,0.277388,0.166909,1.015553,-0.107080,-0.702040,0.172156,-0.035989,0.041446,0.093395,0.999993,-0.000535,-0.003510,0.000861,-0.488112,-0.230709,0.086667,0.837262,22.858347,17.561020,-115.939676
17141,-3.642984,4.028624,9.086407,0.397155,0.383347,0.758907,-0.102216,-0.799627,0.233208,-0.036840,0.040290,0.090697,0.999991,-0.000511,-0.003998,0.001166,-0.488821,-0.227003,0.088485,0.837672,22.784171,17.085703,-116.001535
17142,-3.820049,4.175219,8.899920,0.721877,0.554601,0.694658,-0.034301,-0.890068,0.308691,-0.038660,0.041708,0.088821,0.999989,-0.000172,-0.004450,0.001543,-0.489719,-0.223047,0.090892,0.837952,22.755778,16.545818,-116.041969
17143,-5.001722,5.040272,9.256350,1.783460,1.215844,1.652087,-0.008027,-1.085942,0.430150,-0.050627,0.050298,0.092288,0.999983,-0.000040,-0.005430,0.002151,-0.490993,-0.218272,0.094021,0.838119,22.748805,15.875535,-116.060635
17144,-6.134915,5.396455,10.471023,2.070646,2.093566,3.138257,-0.187774,-1.471649,0.554879,-0.062267,0.053891,0.104204,0.999969,-0.000939,-0.007358,0.002774,-0.492782,-0.211372,0.097477,0.838443,22.634138,14.973754,-116.098369
17145,-6.011691,4.438308,10.730278,1.285889,2.648367,2.927163,-0.320398,-2.032171,0.698990,-0.061358,0.044341,0.106612,0.999941,-0.001602,-0.010161,0.003495,-0.494994,-0.201705,0.101900,0.838995,22.432729,13.743712,-116.182049
17146,-3.986003,3.700937,9.957384,0.338578,1.496984,1.428841,-0.331542,-2.434157,0.759030,-0.041208,0.037019,0.099016,0.999917,-0.001658,-0.012170,0.003795,-0.497197,-0.190266,0.107318,0.839688,22.215235,12.287143,-116.317384
17147,-1.471026,3.152200,9.047838,-0.644865,-0.210381,-0.143237,-0.323985,-2.488971,0.681823,-0.015942,0.031615,0.090234,0.999915,-0.001620,-0.012445,0.003409,-0.498952,-0.178624,0.112812,0.840484,21.995806,10.817832,-116.500810
17148,0.287292,2.720447,8.431766,-1.379200,-1.368032,-1.163947,-0.274894,-2.288187,0.518874,0.001838,0.027326,0.084305,0.999930,-0.001374,-0.011441,0.002594,-0.500018,-0.168014,0.117849,0.841347,21.802294,9.489244,-116.721799
17149,0.856651,2.087088,7.981403,-1.863936,-1.429532,-1.858286,-0.147086,-1.958170,0.363820,0.007747,0.020944,0.079877,0.999950,-0.000735,-0.009791,0.001819,-0.500456,-0.159182,0.122453,0.842146,21.685249,8.368769,-116.951472
17150,0.074416,2.188764,7.918360,-1.339699,-0.659569,-1.733994,0.077577,-1.641685,0.256867,0.000066,0.021857,0.079194,0.999965,0.000388,-0.008208,0.001284,-0.500420,-0.152296,0.127116,0.842750,21.702759,7.439085,-117.168873
17151,-1.208925,3.511980,8.952465,-0.035174,0.044349,-0.120562,0.135139,-1.478387,0.171324,-0.012781,0.035049,0.089456,0.999972,0.000676,-0.007392,0.000857,-0.500049,-0.146287,0.131540,0.843355,21.755004,6.614679,-117.397716
17152,-2.963619,4.396404,10.323864,1.035072,1.421071,1.659025,-0.013406,-1.589984,0.104181,-0.030479,0.043955,0.102996,0.999968,-0.000067,-0.007950,0.000521,-0.499403,-0.139472,0.135560,0.844255,21.719275,5.745071,-117.685717
17153,-3.691707,3.855759,10.654392,0.925504,2.504195,1.801094,-0.104807,-1.923281,0.148756,-0.037968,0.038585,0.106162,0.999953,-0.000524,-0.009616,0.000744,-0.498741,-0.130981,0.140046,0.845274,21.631666,4.688380,-118.019704
17154,-3.502901,3.439936,10.436453,0.715902,2.702038,1.376762,-0.021950,-2.303764,0.251013,-0.036271,0.034366,0.103948,0.999933,-0.000110,-0.011519,0.001255,-0.498136,-0.121002,0.145883,0.846131,21.596790,3.406959,-118.377485
17155,-3.215019,3.366234,9.993204,0.817126,2.655470,0.855289,0.111352,-2.671152,0.346489,-0.033539,0.033550,0.099509,0.999909,0.000557,-0.013355,0.001732,-0.497502,-0.109711,0.153231,0.846744,21.645526,1.909961,-118.762351
17156,-1.929825,3.378910,9.260331,0.596359,1.660833,0.075386,0.180510,-2.936759,0.351565,-0.020715,0.033670,0.092336,0.999890,0.000903,-0.014683,0.001758,-0.496553,-0.097443,0.161507,0.847263,21.743555,0.270752,-119.201643
17157,0.028501,2.511698,8.289007,-0.621406,0.411131,-1.183859,0.129788,-2.949034,0.221802,-0.000965,0.025063,0.082898,0.999890,0.000649,-0.014745,0.001109,-0.494954,-0.085079,0.169497,0.847970,21.825475,-1.346398,-119.716039
17158,1.940879,1.607385,7.112830,-1.846879,-0.874311,-2.548781,0.253868,-2.683409,0.018623,0.018451,0.015985,0.071400,0.999909,0.001269,-0.013417,0.000093,-0.492572,-0.074305,0.177238,0.848786,21.994358,-2.778091,-120.284596
17159,2.526817,1.600844,6.646425,-1.959588,-1.312031,-2.916395,0.367925,-2.271578,-0.231132,0.024529,0.015857,0.066775,0.999933,0.001840,-0.011358,-0.001156,-0.489369,-0.065767,0.184325,0.849833,22.244061,-3.934949,-120.903652
17160,2.282129,2.078535,6.883405,-1.495673,-1.114801,-2.503220,0.461066,-1.864223,-0.429701,0.022222,0.020578,0.069091,0.999952,0.002305,-0.009321,-0.002148,-0.485617,-0.059364,0.190727,0.851044,22.560177,-4.829874,-121.544611
17161,1.305516,3.339709,7.793860,-0.224070,-0.487928,-1.250402,0.541602,-1.580863,-0.496065,0.012521,0.033154,0.078129,0.999962,0.002708,-0.007904,-0.002480,-0.481781,-0.054420,0.196745,0.852184,22.929208,-5.556342,-122.164533
17162,-0.200679,5.143931,8.994951,1.692506,0.416448,0.403484,0.451827,-1.524150,-0.421034,-0.002585,0.051241,0.090047,0.999966,0.002259,-0.007621,-0.002105,-0.478315,-0.049424,0.202253,0.853150,23.249942,-6.266240,-122.736372
17163,-0.125530,6.161241,9.524065,2.358792,0.164515,1.281991,0.125788,-1.646551,-0.303710,-0.001946,0.061555,0.095265,0.999965,0.000629,-0.008233,-0.001519,-0.475268,-0.043003,0.206674,0.854141,23.387525,-7.064674,-123.278365
17164,1.364645,5.524701,9.087334,1.234704,-0.793882,0.808410,-0.186998,-1.702221,-0.192734,0.012926,0.055319,0.090934,0.999963,-0.000935,-0.008511,-0.000964,-0.472676,-0.035485,0.209904,0.855137,23.348117,-7.917342,-123.775234
17165,1.551501,4.750960,8.974968,0.636538,-0.509651,0.427533,-0.255506,-1.649411,-0.089554,0.014796,0.047618,0.089813,0.999965,-0.001278,-0.008247,-0.000448,-0.470552,-0.027919,0.212717,0.855893,23.266841,-8.765910,-124.205950
17166,0.097625,5.186182,9.930475,1.659412,0.915601,1.229317,-0.287216,-1.708384,0.015930,0.000124,0.052004,0.099234,0.999962,-0.001436,-0.008542,0.000080,-0.468793,-0.019912,0.215534,0.856377,23.167211,-9.670245,-124.592848
17167,-0.046376,5.243410,10.282308,1.841874,1.257883,1.511747,-0.456334,-1.957610,0.095391,-0.001494,0.052668,0.102692,0.999949,-0.002282,-0.009788,0.000477,-0.467074,-0.010354,0.218198,0.856810,22.979329,-10.724503,-124.993632
17168,1.897110,3.787103,9.041464,0.018111,0.059611,0.171395,-0.625101,-2.116098,0.087873,0.017997,0.038162,0.090490,0.999939,-0.003125,-0.010580,0.000439,-0.465114,0.000270,0.220486,0.857354,22.709737,-11.862585,-125.430813
17169,3.517919,1.936029,7.788716,-1.991848,-0.705825,-1.308568,-0.525408,-1.977259,-0.029815,0.034410,0.019560,0.078179,0.999948,-0.002627,-0.009886,-0.000149,-0.462742,0.009937,0.222851,0.857968,22.511521,-12.902761,-125.898251
17170,2.989244,1.785297,7.931871,-1.744349,-0.037383,-1.327905,-0.214717,-1.751600,-0.165251,0.029211,0.017914,0.079557,0.999961,-0.001074,-0.008758,-0.000826,-0.460020,0.017766,0.226016,0.858477,22.504420,-13.794891,-126.387531
17171,1.033966,2.765917,9.122452,0.031235,1.632620,-0.364398,0.061794,-1.714767,-0.203316,0.009585,0.027621,0.091317,0.999963,0.000309,-0.008574,-0.001017,-0.457160,0.024756,0.230266,0.858702,22.666601,-14.658286,-126.893037
17172,0.077251,5.017616,10.022160,2.320557,1.813200,1.001686,0.007062,-1.925957,-0.207894,-0.000140,0.050172,0.100225,0.999953,0.000035,-0.009630,-0.001039,-0.453997,0.032771,0.234748,0.858898,22.820003,-15.631141,-127.453373
17173,1.272792,5.412571,9.607950,2.124548,0.665199,1.062480,-0.471195,-2.131522,-0.259578,0.011774,0.054336,0.096081,0.999940,-0.002356,-0.010657,-0.001298,-0.450237,0.042690,0.237622,0.859651,22.730809,-16.700522,-128.093912
17174,3.013109,3.462169,8.458958,-0.151168,-0.098124,-0.190619,-0.737717,-2.141374,-0.343599,0.029284,0.034883,0.084778,0.999934,-0.003689,-0.010707,-0.001718,-0.445997,0.053146,0.239364,0.860795,22.515159,-17.758532,-128.782904
17175,3.068667,2.075077,8.067996,-1.109533,0.477131,-1.017568,-0.632666,-2.045189,-0.401273,0.029902,0.020946,0.080922,0.999941,-0.003163,-0.010226,-0.002006,-0.441588,0.062878,0.241326,0.861863,22.374516,-18.754699,-129.483390
17176,3.313585,2.359249,8.249472,-0.942277,0.368425,-0.670814,-0.381265,-1.975658,-0.460123,0.032374,0.023675,0.082772,0.999947,-0.001906,-0.009878,-0.002301,-0.437046,0.071677,0.244212,0.862678,22.395948,-19.702214,-130.202777
17177,2.464517,3.565256,8.759603,0.577819,0.751004,-0.085633,-0.259123,-1.950450,-0.511322,0.023881,0.035705,0.087785,0.999948,-0.001296,-0.009752,-0.002557,-0.432305,0.080031,0.247558,0.863379,22.507908,-20.624073,-130.951527
17178,1.592025,4.604215,9.423798,1.990261,1.290429,0.527167,-0.415247,-2.054769,-0.601806,0.015090,0.046192,0.094300,0.999941,-0.002076,-0.010274,-0.003009,-0.426940,0.089051,0.250468,0.864325,22.571710,-21.580503,-131.781335
17179,2.337276,3.839563,9.058244,1.086232,1.084812,0.182183,-0.729505,-2.215525,-0.728058,0.022509,0.038643,0.090694,0.999925,-0.003647,-0.011077,-0.003640,-0.420623,0.099267,0.252382,0.865752,22.512002,-22.593879,-132.728160
17180,3.341185,2.369401,8.341122,-0.520630,0.907205,-0.579315,-0.789409,-2.231961,-0.874328,0.032583,0.023880,0.083684,0.999920,-0.003947,-0.011160,-0.004372,-0.413565,0.109480,0.254108,0.867414,22.470417,-23.585045,-133.767898
17181,3.609869,1.823810,8.335973,-0.987933,1.143114,-0.671545,-0.677932,-2.205834,-1.039106,0.035272,0.018337,0.083690,0.999920,-0.003390,-0.011029,-0.005195,-0.405811,0.119123,0.256309,0.869156,22.548081,-24.525545,-134.906090
17182,3.488621,2.439794,8.573809,-0.325460,1.152268,-0.315468,-0.537918,-2.195897,-1.194273,0.034088,0.024424,0.086050,0.999918,-0.002690,-0.010979,-0.005971,-0.397423,0.128220,0.259153,0.870893,22.764757,-25.424277,-136.142190
17183,3.408949,3.209613,8.708765,0.418553,0.982066,0.017028,-0.603626,-2.250847,-1.380469,0.033329,0.032128,0.087369,0.999908,-0.003018,-0.011254,-0.006902,-0.388031,0.137424,0.261889,0.872904,23.020089,-26.305501,-137.515631
17184,4.659772,2.928696,7.783071,-0.561464,-0.009986,-0.296934,-0.701813,-2.253597,-1.535459,0.045942,0.029207,0.078248,0.999901,-0.003509,-0.011268,-0.007677,-0.377828,0.146600,0.264263,0.875168,23.286130,-27.148033,-138.994652
17185,5.796651,2.762727,6.787077,-1.447930,-1.009118,-0.637637,-0.615287,-2.069881,-1.591915,0.057479,0.027378,0.068383,0.999910,-0.003076,-0.010349,-0.007959,-0.367601,0.154708,0.266654,0.877400,23.620035,-27.873803,-140.476517
17186,4.857551,3.784298,7.321861,0.009202,-0.643726,-0.267487,-0.506258,-1.855110,-1.541313,0.048185,0.037657,0.073571,0.999924,-0.002531,-0.009275,-0.007706,-0.357917,0.161713,0.269052,0.879407,23.998128,-28.490900,-141.884959
17187,4.332093,4.691524,7.416366,1.063118,-0.752622,-0.113067,-0.530274,-1.786195,-1.464139,0.043000,0.046797,0.074424,0.999930,-0.002651,-0.008931,-0.007321,-0.348582,0.168540,0.271112,0.881239,24.350021,-29.081834,-143.242585
17188,5.207471,4.216789,7.005559,0.101858,-1.083495,-0.179831,-0.664000,-1.693203,-1.400536,0.051775,0.042038,0.070355,0.999934,-0.003320,-0.008466,-0.007003,-0.339503,0.175253,0.272336,0.883095,24.611977,-29.633319,-144.546855
17189,5.062059,3.767941,7.051572,-0.070744,-0.620749,-0.370468,-0.531785,-1.540186,-1.281169,0.050317,0.037544,0.070804,0.999946,-0.002659,-0.007701,-0.006406,-0.331226,0.181208,0.273741,0.884601,24.907726,-30.127992,-145.748070
17190,5.003023,4.424068,7.058114,0.452252,-0.926319,-0.150569,-0.555718,-1.478399,-1.205460,0.049774,0.044137,0.070827,0.999951,-0.002779,-0.007392,-0.006027,-0.323321,0.187013,0.274847,0.885973,25.171593,-30.604159,-146.894018
17191,6.146691,3.669267,6.387838,-0.960881,-1.314332,-0.357610,-0.539933,-1.325431,-1.093572,0.061242,0.036530,0.064186,0.999959,-0.002700,-0.006627,-0.005468,-0.316099,0.192252,0.275641,0.887211,25.398817,-31.023941,-147.937537
17192,5.633806,3.655246,6.382556,-0.579918,-1.002784,-0.620551,-0.412861,-1.127561,-0.943091,0.056149,0.036419,0.064067,0.999971,-0.002064,-0.005638,-0.004715,-0.309925,0.196606,0.276526,0.888158,25.631793,-31.375217,-148.838208
17193,5.292270,4.164491,6.633523,0.067440,-0.974695,-0.410563,-0.368190,-0.984002,-0.810648,0.052764,0.041553,0.066519,0.999978,-0.001841,-0.004920,-0.004053,-0.304559,0.200428,0.277239,0.888938,25.832990,-31.682210,-149.622325
17194,4.894259,3.920403,7.060718,0.302737,-0.335734,-0.380162,-0.383731,-0.892227,-0.691132,0.048763,0.039171,0.070750,0.999982,-0.001919,-0.004461,-0.003456,-0.299831,0.204022,0.277616,0.889610,25.978562,-31.970006,-150.309685
17195,4.997085,3.710678,6.941945,0.096463,-0.274147,-0.493571,-0.351061,-0.860764,-0.601276,0.049783,0.037079,0.069569,0.999985,-0.001755,-0.004304,-0.003006,-0.295562,0.207546,0.277986,0.890108,26.113014,-32.262592,-150.936860
17196,5.785914,3.881161,6.568347,-0.428856,-0.907288,-0.290283,-0.388264,-0.734987,-0.566909,0.057727,0.038776,0.065820,0.999987,-0.001941,-0.003675,-0.002835,-0.291582,0.210605,0.277966,0.890708,26.198959,-32.498342,-151.507211
17197,5.015077,3.068377,7.285303,-0.198369,0.423916,-0.462691,-0.361233,-0.626868,-0.505828,0.050000,0.030689,0.072954,0.999990,-0.001806,-0.003134,-0.002529,-0.288039,0.213226,0.277833,0.891278,26.265183,-32.693185,-152.010241
17198,4.400232,3.991907,7.888050,1.004159,0.434838,0.001646,-0.308654,-0.664422,-0.457525,0.043831,0.039940,0.078965,0.999991,-0.001543,-0.003322,-0.002288,-0.284715,0.215999,0.277937,0.891646,26.354424,-32.919176,-152.495899
17199,5.399128,3.489447,7.004382,-0.223261,-0.134138,-0.308992,-0.447648,-0.683714,-0.451482,0.053830,0.034930,0.070150,0.999989,-0.002238,-0.003419,-0.002257,-0.281230,0.219062,0.277431,0.892162,26.367286,-33.156059,-152.985973
17200,6.116451,3.264217,6.340732,-1.028694,-0.640572,-0.495909,-0.388304,-0.537128,-0.426902,0.061064,0.032635,0.063508,0.999992,-0.001942,-0.002686,-0.002135,-0.278124,0.221416,0.276956,0.892702,26.383921,-33.324033,-153.416802
17201,5.227884,3.418914,7.147852,-0.056631,0.097636,-0.320651,-0.372840,-0.397235,-0.396403,0.052205,0.034219,0.071518,0.999994,-0.001864,-0.001986,-0.001982,-0.275354,0.223165,0.276314,0.893324,26.376487,-33.427786,-153.787605
17202,4.523635,3.698841,7.530967,0.756280,0.404061,-0.319274,-0.361432,-0.420785,-0.366201,0.045146,0.037042,0.075338,0.999994,-0.001807,-0.002104,-0.001831,-0.272703,0.225041,0.275723,0.893849,26.370556,-33.551501,-154.146798
17203,5.536045,3.422383,6.679819,-0.366886,-0.290785,-0.498113,-0.430844,-0.398900,-0.357918,0.055288,0.034269,0.066835,0.999994,-0.002154,-0.001994,-0.001790,-0.270032,0.226924,0.274775,0.894476,26.318794,-33.666071,-154.495334
17204,5.433446,3.052050,6.528366,-0.540590,-0.086369,-0.803958,-0.422830,-0.236048,-0.346584,0.054310,0.030564,0.065283,0.999996,-0.002114,-0.001180,-0.001733,-0.267647,0.228080,0.273631,0.895249,26.241056,-33.700345,-154.786659
17205,4.602380,3.271837,7.210371,0.403911,0.462319,-0.674888,-0.399639,-0.159759,-0.341667,0.046022,0.032784,0.072075,0.999996,-0.001998,-0.000799,-0.001708,-0.265407,0.228869,0.272477,0.896066,26.161717,-33.696835,-155.052413
17206,4.741199,3.338364,7.490580,0.420820,0.523514,-0.363812,-0.453242,-0.165806,-0.363036,0.047411,0.033467,0.074869,0.999995,-0.002266,-0.000829,-0.001815,-0.263006,0.229724,0.271117,0.896967,26.060388,-33.691537,-155.332537
17207,5.523485,3.117696,6.900725,-0.456494,0.038139,-0.451114,-0.433567,-0.125300,-0.371663,0.055250,0.031224,0.068974,0.999996,-0.002168,-0.000626,-0.001858,-0.260635,0.230360,0.269795,0.897894,25.966005,-33.663449,-155.606449
17208,5.603739,3.538132,6.772343,-0.307859,-0.385102,-0.350035,-0.461885,0.008603,-0.394362,0.056110,0.035427,0.067639,0.999995,-0.002309,0.000043,-0.001972,-0.258314,0.230397,0.268200,0.899033,25.840969,-33.561264,-155.853296
17209,5.702022,3.777545,6.587480,-0.309297,-0.730464,-0.349685,-0.545439,0.162022,-0.435058,0.057156,0.037831,0.065725,0.999994,-0.002727,0.000810,-0.002175,-0.255910,0.229797,0.266071,0.900505,25.655715,-33.370190,-156.080145
17210,5.774765,3.599014,6.914122,-0.405680,-0.472490,-0.131893,-0.626947,0.337267,-0.453530,0.057946,0.036075,0.068931,0.999991,-0.003135,0.001686,-0.002268,-0.253565,0.228482,0.263372,0.902295,25.401436,-33.084817,-156.266248
17211,4.379875,3.263741,8.222257,0.806043,0.963649,-0.021765,-0.565004,0.375373,-0.376529,0.044014,0.032787,0.082048,0.999992,-0.002825,0.001877,-0.001883,-0.251678,0.227016,0.260807,0.903937,25.150077,-32.799113,-156.395223
17212,4.440595,3.970118,8.444292,1.206320,0.495138,0.438465,-0.621815,0.232627,-0.340433,0.044572,0.039888,0.084267,0.999993,-0.003109,0.001163,-0.001702,-0.249706,0.226309,0.258125,0.905429,24.876915,-32.596882,-156.543599
17213,6.264659,3.073604,7.551218,-0.977489,-0.026391,0.422420,-0.717062,0.230165,-0.315558,0.062782,0.030907,0.075329,0.999992,-0.003585,0.001151,-0.001578,-0.247726,0.225762,0.254979,0.907000,24.540981,-32.402390,-156.679000
17214,5.831456,3.389404,8.207100,-0.291072,0.199766,0.804536,-0.677877,0.303272,-0.258092,0.058483,0.034096,0.081867,0.999992,-0.003389,0.001516,-0.001290,-0.246146,0.224903,0.251855,0.908515,24.198173,-32.184171,-156.758795
17215,6.056786,3.500626,8.134120,-0.435642,-0.067320,0.906838,-0.744967,0.265484,-0.190703,0.060709,0.035251,0.081130,0.999992,-0.003725,0.001327,-0.000954,-0.244738,0.224382,0.248388,0.909978,23.800466,-32.001734,-156.809543
17216,6.526717,3.687010,8.054539,-0.728288,-0.483337,1.155592,-0.754337,0.323809,-0.106323,0.065417,0.037139,0.080300,0.999991,-0.003772,0.001619,-0.000532,-0.243780,0.223706,0.244714,0.911396,23.362531,-31.808466,-156.793104
17217,4.812049,3.430588,9.267630,0.816901,0.883933,1.112723,-0.664096,0.266530,-0.007728,0.048245,0.034611,0.092497,0.999994,-0.003320,0.001333,-0.000039,-0.243291,0.223300,0.241401,0.912509,22.952687,-31.667376,-156.733135
17218,5.694541,4.133778,8.698969,0.361258,-0.330426,1.365324,-0.636743,0.068238,0.027417,0.056969,0.041622,0.086838,0.999995,-0.003184,0.000341,0.000137,-0.242757,0.223803,0.238418,0.913311,22.575285,-31.638604,-156.703537
17219,7.064197,3.497362,7.561830,-1.378474,-0.981102,0.978635,-0.645597,0.136350,0.023772,0.070689,0.035226,0.075457,0.999995,-0.003228,0.000682,0.000119,-0.242269,0.224001,0.235308,0.914199,22.184590,-31.572639,-156.659707
17220,6.181158,3.581880,7.924021,-0.527950,-0.611881,0.825605,-0.563988,0.224767,0.029581,0.061895,0.036051,0.079069,0.999995,-0.002820,0.001124,0.000148,-0.242007,0.223700,0.232460,0.915070,21.827879,-31.460850,-156.589832
17221,5.939297,3.689587,7.882855,-0.291390,-0.696601,0.697175,-0.622089,0.250328,-0.014745,0.059494,0.037136,0.078639,0.999994,-0.003110,0.001252,-0.000074,-0.241499,0.223299,0.229359,0.916084,21.449210,-31.325611,-156.542808
17222,6.433623,3.276632,6.999161,-1.174142,-1.073783,0.116264,-0.696935,0.337480,-0.114472,0.064473,0.032973,0.069768,0.999992,-0.003485,0.001687,-0.000572,-0.240553,0.222471,0.225921,0.917388,21.050084,-31.122943,-156.537467
17223,7.347308,3.358754,5.732206,-2.252477,-2.176808,-0.415368,-0.763935,0.581501,-0.243541,0.073680,0.033716,0.056979,0.999988,-0.003820,0.002907,-0.001218,-0.239207,0.220455,0.222019,0.919177,20.624727,-30.763226,-156.556916
17224,9.267967,4.577864,3.636425,-3.803750,-4.949613,-0.806780,-1.041143,1.069592,-0.440264,0.092972,0.045761,0.035629,0.999970,-0.005206,0.005348,-0.002201,-0.237188,0.216299,0.216470,0.922007,20.047548,-30.102318,-156.589294
17225,7.690116,2.089801,7.288496,-2.904716,-0.732121,0.562748,-1.182272,1.847179,-0.437287,0.077615,0.021156,0.072046,0.999937,-0.005911,0.009236,-0.002186,-0.235848,0.208710,0.209323,0.925743,19.306977,-29.022983,-156.455841
17226,-6.583357,0.245499,15.887537,9.927066,9.791501,0.256631,-0.258987,1.137556,-0.095600,-0.064927,0.002692,0.159243,0.999983,-0.001295,0.005688,-0.000478,-0.236293,0.203656,0.206915,0.927295,19.074916,-28.390900,-156.275491
17227,2.515946,3.800195,11.749879,3.262505,1.675157,2.244708,-0.513334,-0.159077,-0.314982,0.025126,0.038264,0.117421,0.999995,-0.002567,-0.000795,-0.001575,-0.234110,0.204685,0.205075,0.928031,18.894033,-28.419781,-156.508733
17228,8.932689,-0.164076,6.929234,-5.333861,0.306873,0.151741,-0.223292,0.135608,-0.419417,0.089370,-0.001751,0.069234,0.999997,-0.001116,0.000678,-0.002097,-0.232044,0.203897,0.204345,0.928884,18.880475,-28.269974,-156.743415
17229,2.267393,3.817480,11.203881,3.289936,1.441044,1.691257,0.128930,0.174264,-0.429661,0.022853,0.038054,0.112044,0.999997,0.000645,0.000871,-0.002148,-0.230323,0.202510,0.205210,0.929425,19.066515,-28.096942,-156.976240
17230,4.039651,3.354838,10.026100,1.265704,0.661550,1.414810,-0.016390,-0.300161,-0.436298,0.040319,0.033469,0.100319,0.999996,-0.000082,-0.001501,-0.002181,-0.227941,0.203486,0.205956,0.929634,19.218858,-28.178916,-157.312918
17231,6.484329,3.425402,7.897279,-1.292271,-1.208123,0.818271,0.088618,-0.236421,-0.404850,0.064819,0.034088,0.079065,0.999997,0.000443,-0.001182,-0.002024,-0.225868,0.204078,0.207080,0.929760,19.415884,-28.231312,-157.617913
17232,4.652714,3.413581,8.747649,0.425897,-0.144415,0.657237,0.115271,-0.134592,-0.427287,0.046541,0.033986,0.087527,0.999997,0.000576,-0.000673,-0.002136,-0.223830,0.204141,0.208239,0.929980,19.624919,-28.223641,-157.913979
17233,4.521571,3.407608,8.654103,0.490287,-0.109897,0.516753,0.121099,-0.194565,-0.463912,0.045210,0.033919,0.086606,0.999997,0.000605,-0.000973,-0.002320,-0.221557,0.204438,0.209523,0.930171,19.853694,-28.240094,-158.246354
17234,5.096109,3.138942,7.935048,-0.334422,-0.390513,0.113228,0.142248,-0.145564,-0.475083,0.050978,0.031212,0.079410,0.999997,0.000711,-0.000728,-0.002375,-0.219311,0.204470,0.210867,0.930392,20.093157,-28.226914,-158.574010
17235,4.296732,3.271478,8.385095,0.496269,0.007670,0.148630,0.179547,-0.054287,-0.452186,0.043018,0.032542,0.083892,0.999997,0.000898,-0.000271,-0.002261,-0.217297,0.204060,0.212254,0.930640,20.337004,-28.167845,-158.867735
17236,2.977300,3.170476,9.111418,1.722165,0.891016,0.095608,0.199590,-0.137400,-0.439090,0.029780,0.031548,0.091166,0.999997,0.000998,-0.000687,-0.002195,-0.215281,0.204026,0.213815,0.930758,20.597569,-28.155006,-159.171260
17237,4.313691,3.123637,8.039219,0.278059,0.021304,-0.173382,0.139171,-0.206527,-0.460010,0.043125,0.031081,0.080458,0.999997,0.000696,-0.001033,-0.002300,-0.213024,0.204356,0.215184,0.930889,20.836570,-28.173627,-159.504144
17238,4.760588,3.034311,7.615614,-0.272089,-0.218553,-0.339255,0.156250,-0.072320,-0.471614,0.047650,0.030171,0.076197,0.999997,0.000781,-0.000362,-0.002358,-0.210881,0.204029,0.216506,0.931143,21.074319,-28.117022,-159.812100
17239,3.824825,3.367616,8.493901,0.893972,0.249566,0.049104,0.117566,-0.026785,-0.470177,0.038316,0.033536,0.084964,0.999997,0.000588,-0.000134,-0.002351,-0.208745,0.203532,0.217591,0.931480,21.283490,-28.035155,-160.108847
17240,3.991688,3.428318,8.465210,0.755369,0.158328,0.124666,0.101251,-0.077453,-0.454713,0.039962,0.034149,0.084685,0.999997,0.000506,-0.000387,-0.002274,-0.206616,0.203302,0.218641,0.931759,21.484441,-27.982790,-160.406925
17241,4.288518,3.321721,7.984027,0.299462,-0.053209,-0.165030,0.155042,-0.067809,-0.453988,0.042933,0.033058,0.079880,0.999997,0.000775,-0.000339,-0.002270,-0.204547,0.202972,0.219924,0.931985,21.714063,-27.924244,-160.702736
17242,4.067426,3.423586,8.062062,0.530979,-0.003672,-0.170092,0.223632,-0.037217,-0.469824,0.040739,0.034050,0.080666,0.999997,0.001118,-0.000186,-0.002349,-0.202513,0.202410,0.221516,0.932174,21.983885,-27.845125,-160.999366
17243,4.299091,3.598634,7.781563,0.309964,-0.317190,-0.232072,0.303054,-0.026301,-0.502879,0.043071,0.035760,0.077876,0.999996,0.001515,-0.000132,-0.002514,-0.200408,0.201679,0.223493,0.932316,22.306067,-27.751499,-161.313323
17244,4.592840,3.396820,7.562611,-0.127454,-0.304193,-0.340802,0.331722,0.041687,-0.541325,0.046036,0.033718,0.075673,0.999995,0.001659,0.000208,-0.002707,-0.198235,0.200557,0.225578,0.932520,22.646963,-27.612077,-161.631634
17245,4.401799,3.197694,7.571475,-0.098184,-0.042437,-0.489782,0.379545,0.114893,-0.581456,0.044154,0.031705,0.075750,0.999994,0.001898,0.000574,-0.002907,-0.195996,0.199000,0.227846,0.932776,23.015927,-27.423114,-161.954872
17246,4.526932,3.246056,7.363739,-0.289560,-0.182222,-0.585702,0.333993,0.187556,-0.632258,0.045440,0.032194,0.073649,0.999993,0.001670,0.000938,-0.003161,-0.193562,0.197087,0.229882,0.933191,23.362584,-27.182856,-162.286974
17247,4.607338,3.021965,7.340610,-0.522265,0.000319,-0.649104,0.272055,0.300818,-0.684569,0.046287,0.029962,0.073377,0.999992,0.001360,0.001504,-0.003423,-0.190942,0.194643,0.231563,0.933827,23.671645,-26.869245,-162.619304
17248,4.036691,2.900212,7.950320,0.012729,0.586225,-0.454832,0.228377,0.383667,-0.717912,0.040623,0.028766,0.079458,0.999991,0.001142,0.001918,-0.003590,-0.188225,0.191811,0.232995,0.934609,23.952232,-26.503181,-162.946126
17249,2.419066,3.131998,9.170277,1.764874,1.460520,-0.091215,0.244891,0.319819,-0.715777,0.024449,0.031121,0.091702,0.999992,0.001224,0.001599,-0.003579,-0.185448,0.189262,0.234552,0.935294,24.245554,-26.169360,-163.286153
17250,3.574935,3.512344,8.341239,0.658767,0.451258,-0.114487,0.208682,0.166080,-0.718095,0.035944,0.034908,0.083419,0.999993,0.001043,0.000830,-0.003590,-0.182450,0.187459,0.236087,0.935860,24.534154,-25.913868,-163.664435
17251,4.579341,3.717441,7.542408,-0.387308,-0.353887,-0.252245,0.172953,0.256985,-0.694541,0.046019,0.036950,0.075397,0.999993,0.000865,0.001285,-0.003473,-0.179625,0.185289,0.237340,0.936522,24.782800,-25.614825,-164.003719
17252,3.461152,3.932145,8.377390,0.831989,0.194052,0.030677,0.169308,0.299055,-0.632868,0.034861,0.039140,0.083755,0.999994,0.000847,0.001495,-0.003164,-0.177141,0.182996,0.238483,0.937155,25.007157,-25.307793,-164.293068
17253,3.821765,4.335069,8.178080,0.578835,-0.312889,0.179635,0.109325,0.230741,-0.606416,0.038443,0.043190,0.081760,0.999995,0.000547,0.001154,-0.003032,-0.174634,0.181105,0.239374,0.937766,25.195921,-25.041434,-164.584663
17254,4.795477,3.908355,7.226108,-0.747531,-0.670241,-0.353291,0.070162,0.305785,-0.600747,0.048182,0.038914,0.072201,0.999994,0.000351,0.001529,-0.003004,-0.172215,0.178901,0.240012,0.938472,25.350858,-24.737054,-164.850254
17255,4.655822,3.974304,7.083295,-0.696739,-0.756616,-0.507498,0.057854,0.459421,-0.609581,0.046842,0.039580,0.070737,0.999993,0.000289,0.002297,-0.003048,-0.169917,0.175974,0.240461,0.939330,25.481036,-24.350149,-165.078695
17256,4.789702,3.883718,6.900345,-0.969359,-0.808257,-0.645036,-0.029918,0.614583,-0.620043,0.048229,0.038698,0.068850,0.999990,-0.000150,0.003073,-0.003100,-0.167685,0.172377,0.240375,0.940419,25.544484,-23.880327,-165.268701
17257,5.621347,4.449741,5.908348,-1.805565,-1.992093,-0.920049,-0.164841,0.841077,-0.619076,0.056599,0.044371,0.058809,0.999986,-0.000824,0.004205,-0.003095,-0.165602,0.167826,0.239454,0.941845,25.503636,-23.293408,-165.397090
17258,7.745339,5.464899,3.722245,-3.916273,-4.475235,-1.545669,-0.506728,1.285061,-0.634947,0.077863,0.054495,0.036585,0.999971,-0.002534,0.006425,-0.003175,-0.163689,0.161440,0.236564,0.944024,25.223769,-22.473257,-165.416415
17259,8.937908,6.320278,2.714136,-5.014244,-6.059830,-1.730080,-1.022810,2.053420,-0.594236,0.089837,0.063071,0.025898,0.999930,-0.005114,0.010267,-0.002971,-0.162441,0.151883,0.230549,0.947308,24.567361,-21.263752,-165.220728
17260,6.293449,5.271753,4.457762,-2.813858,-3.854642,-1.782275,-1.429881,2.732407,-0.416380,0.063642,0.052898,0.043334,0.999879,-0.007149,0.013661,-0.002082,-0.162481,0.139617,0.221879,0.951250,23.595249,-19.738212,-164.776035
17261,4.519523,4.286066,5.819452,-1.478402,-2.136150,-1.694383,-1.449906,3.076454,-0.206939,0.046125,0.043230,0.057177,0.999855,-0.007249,0.015382,-0.001035,-0.163845,0.125927,0.212629,0.955032,22.569514,-18.071568,-164.165332
17262,4.972211,3.715340,5.731924,-2.301782,-2.014474,-1.937582,-1.454950,3.413650,-0.101061,0.050707,0.037539,0.056187,0.999828,-0.007274,0.017067,-0.000505,-0.166015,0.110702,0.202946,0.958643,21.530016,-16.238256,-163.457699
17263,5.419044,2.814035,5.145491,-3.316745,-1.827588,-2.783387,-1.414469,3.873790,-0.056727,0.055179,0.028483,0.050192,0.999787,-0.007072,0.019368,-0.000284,-0.168828,0.093244,0.192972,0.962063,20.515546,-14.156480,-162.668126
17264,5.526102,3.103948,4.797957,-3.549245,-2.476570,-3.145531,-1.431049,4.430130,-0.060708,0.056312,0.031359,0.046516,0.999729,-0.007155,0.022149,-0.000304,-0.172065,0.073073,0.182358,0.965298,19.507058,-11.760933,-161.814891
17265,4.421004,2.610295,5.214683,-2.883902,-1.788885,-3.330182,-1.500366,5.033640,-0.020749,0.045503,0.026483,0.050815,0.999655,-0.007501,0.025165,-0.000104,-0.175921,0.050044,0.170765,0.968187,18.480818,-9.032025,-160.875580
17266,2.231575,2.361037,6.242234,-1.152261,-0.746654,-2.911787,-1.393359,5.475812,0.076812,0.024001,0.024051,0.061614,0.999601,-0.006966,0.027375,0.000384,-0.180516,0.024825,0.159148,0.970294,17.551660,-6.063566,-159.858988
17267,-0.560212,2.402220,7.593541,1.130930,0.365663,-1.918527,-1.246014,5.676686,0.192699,-0.003471,0.024491,0.075902,0.999577,-0.006229,0.028379,0.000963,-0.185713,-0.001426,0.147922,0.971405,16.756553,-2.990537,-158.794154
17268,-2.577856,2.590761,8.420474,2.640784,0.939555,-1.072829,-1.099969,5.650584,0.238646,-0.023420,0.026344,0.084745,0.999585,-0.005499,0.028249,0.001193,-0.190947,-0.027655,0.137304,0.971557,16.102564,0.074530,-157.751360
17269,-3.451990,2.316426,8.982603,2.859663,1.438057,-0.447846,-1.003540,5.565738,0.240844,-0.032033,0.023578,0.090623,0.999599,-0.005017,0.027825,0.001204,-0.195974,-0.053536,0.127124,0.970859,15.558095,3.102648,-156.751697
17270,-4.451115,1.745456,9.354790,3.048758,2.207721,-0.005724,-0.836548,5.425388,0.304458,-0.041980,0.017784,0.094636,0.999622,-0.004182,0.027124,0.001522,-0.201015,-0.078821,0.117810,0.969279,15.160696,6.052241,-155.761306
17271,-5.408141,2.064773,9.705631,3.480824,2.176627,0.714869,-0.704778,5.254066,0.377367,-0.051548,0.020894,0.098359,0.999647,-0.003523,0.026267,0.001887,-0.206115,-0.103305,0.109249,0.966907,14.889026,8.901522,-154.767323
17272,-6.440816,1.943044,10.171023,3.738989,2.603357,1.497605,-0.577049,5.015876,0.498125,-0.061880,0.019571,0.103227,0.999678,-0.002885,0.025077,0.002490,-0.211459,-0.126637,0.101540,0.963814,14.743413,11.605139,-153.744472
17273,-7.568567,2.306241,10.670187,4.208116,2.659695,2.501693,-0.500499,4.624475,0.629310,-0.073265,0.023099,0.108357,0.999725,-0.002502,0.023120,0.003146,-0.217064,-0.148021,0.094635,0.960217,14.691475,14.074317,-152.700585
17274,-8.778045,2.665465,11.747945,4.525942,2.839432,4.101312,-0.469588,4.045046,0.732567,-0.085479,0.026617,0.119161,0.999786,-0.002348,0.020224,0.003663,-0.222759,-0.166537,0.088539,0.956454,14.693160,16.207967,-151.675438
17275,-9.019732,2.817232,12.412837,4.083459,2.715507,4.996190,-0.609498,3.319310,0.727793,-0.088224,0.028230,0.125518,0.999851,-0.003047,0.016596,0.003639,-0.228144,-0.181370,0.082544,0.953017,14.617206,17.940734,-150.754815
17276,-8.949005,1.917975,12.802011,3.136036,3.340569,5.242175,-0.740234,2.515949,0.646548,-0.087933,0.019370,0.129061,0.999909,-0.003701,0.012579,0.003233,-0.232877,-0.192216,0.076750,0.950227,14.436862,19.241455,-149.999426
17277,-7.825634,1.162178,12.519733,1.755681,3.308518,4.515637,-0.730957,1.743038,0.540576,-0.077193,0.011871,0.125830,0.999952,-0.003655,0.008715,0.002703,-0.236762,-0.199416,0.071788,0.948169,14.215146,20.130953,-149.423542
17278,-5.996778,1.225337,11.641594,0.510860,2.221291,3.140786,-0.674863,1.156073,0.427803,-0.059320,0.012520,0.116718,0.999975,-0.003374,0.005780,0.002139,-0.239835,-0.203925,0.067669,0.946739,13.978451,20.711836,-149.002191
17279,-4.162313,1.237551,10.498607,-0.558287,1.196411,1.471512,-0.630950,0.853319,0.342490,-0.041196,0.012636,0.105123,0.999984,-0.003155,0.004267,0.001712,-0.242338,-0.207076,0.064030,0.945670,13.735691,21.138122,-148.678540
17280,-3.234771,1.289487,9.574706,-0.936678,0.603609,0.314463,-0.542288,0.801379,0.304140,-0.031984,0.013106,0.095840,0.999987,-0.002711,0.004007,0.001521,-0.244554,-0.210093,0.060833,0.944645,13.534758,21.541372,-148.385000
17281,-3.064518,1.385139,8.889738,-0.788485,0.364525,-0.347899,-0.392361,0.858658,0.304730,-0.030284,0.013980,0.089001,0.999988,-0.001962,0.004293,0.001524,-0.246616,-0.213561,0.058271,0.943492,13.424500,21.977663,-148.084483
17282,-3.412724,2.006397,8.764348,-0.246470,-0.060271,-0.199095,-0.280822,0.944164,0.296096,-0.033743,0.020137,0.087775,0.999987,-0.001404,0.004721,0.001480,-0.248548,-0.217565,0.056121,0.942199,13.383498,22.462663,-147.775253
17283,-4.178905,2.113079,8.922077,0.260252,0.176547,0.258670,-0.201949,0.969649,0.285347,-0.041386,0.021162,0.089401,0.999987,-0.001010,0.004848,0.001427,-0.250334,-0.221786,0.054297,0.940848,13.389108,22.963833,-147.469195
17284,-4.471398,2.504626,8.933245,0.581218,-0.056839,0.469715,-0.090428,0.910053,0.322698,-0.044347,0.025015,0.089523,0.999988,-0.000452,0.004550,0.001613,-0.252159,-0.225849,0.053113,0.939461,13.467415,23.426163,-147.146340
17285,-4.507770,3.141249,8.808053,0.878149,-0.615009,0.512979,-0.043699,0.853278,0.373253,-0.044760,0.031348,0.088265,0.999989,-0.000218,0.004266,0.001866,-0.254138,-0.229688,0.052275,0.938043,13.584265,23.850059,-146.800410
17286,-4.071023,3.750959,8.630684,0.833974,-1.378556,0.313286,-0.083202,0.853367,0.432367,-0.040423,0.037458,0.086464,0.999988,-0.000416,0.004267,0.002162,-0.256445,-0.233455,0.051320,0.936537,13.696639,24.264907,-146.415066
17287,-4.186802,3.740385,8.670268,0.835222,-1.338268,0.395366,-0.209098,0.940188,0.460442,-0.041546,0.037399,0.086859,0.999986,-0.001045,0.004701,0.002302,-0.259036,-0.237456,0.049695,0.934904,13.752665,24.724230,-145.998794
17288,-4.186816,2.986343,8.407269,0.545915,-0.716440,0.001488,-0.275670,1.005217,0.499720,-0.041520,0.029875,0.084241,0.999983,-0.001378,0.005026,0.002499,-0.261908,-0.241655,0.047720,0.933129,13.789060,25.213593,-145.545414
17289,-4.020998,2.789909,8.296406,0.312102,-0.665688,-0.208457,-0.228175,1.098057,0.584612,-0.039835,0.027877,0.083152,0.999980,-0.001141,0.005490,0.002923,-0.265122,-0.246323,0.045945,0.931088,13.885829,25.742984,-145.024200
17290,-4.458805,3.356409,8.384908,0.780996,-0.961368,0.183226,-0.229890,1.159003,0.685098,-0.044216,0.033509,0.084067,0.999977,-0.001149,0.005795,0.003425,-0.268818,-0.251237,0.044204,0.928797,14.019122,26.290948,-144.426780
17291,-4.547805,3.508217,8.446481,0.808036,-1.077703,0.312440,-0.288376,1.178671,0.800712,-0.045120,0.035023,0.084681,0.999974,-0.001442,0.005893,0.004004,-0.273106,-0.256128,0.042308,0.926295,14.159328,26.832923,-143.751209
17292,-4.474673,3.842601,8.585311,0.773094,-1.437754,0.474710,-0.372007,1.186497,0.922335,-0.044414,0.038381,0.086046,0.999970,-0.001860,0.005932,0.004612,-0.278060,-0.260898,0.040168,0.923581,14.294574,27.360176,-142.992843
17293,-4.239171,3.619670,8.516963,0.459836,-1.401787,0.258772,-0.428546,1.238818,1.060731,-0.042055,0.036156,0.085353,0.999964,-0.002143,0.006194,0.005304,-0.283712,-0.265790,0.037872,0.920559,14.450189,27.895554,-142.135107
17294,-4.264470,3.626987,8.444758,0.444360,-1.418947,0.209450,-0.421429,1.335177,1.173919,-0.042293,0.036199,0.084654,0.999958,-0.002107,0.006676,0.005870,-0.289879,-0.271090,0.035619,0.917176,14.661229,28.465156,-141.183201
17295,-4.762036,3.165793,8.481812,0.442731,-0.794212,0.376167,-0.394633,1.412499,1.262669,-0.047219,0.031527,0.085090,0.999953,-0.001973,0.007062,0.006313,-0.296399,-0.276748,0.033496,0.913475,14.933312,29.061515,-140.155018
17296,-5.032159,3.302867,8.517294,0.575964,-0.781832,0.571527,-0.300317,1.425893,1.307323,-0.049928,0.032830,0.085480,0.999952,-0.001502,0.007129,0.006537,-0.302974,-0.282570,0.031840,0.909587,15.288396,29.653220,-139.085817
17297,-4.638431,3.948855,8.464521,0.588879,-1.540083,0.484749,-0.281916,1.453002,1.429169,-0.046049,0.039278,0.084925,0.999947,-0.001410,0.007265,0.007146,-0.310044,-0.288498,0.030398,0.905382,15.710314,30.235345,-137.923943
17298,-4.496572,4.408429,8.250071,0.768773,-1.966099,0.348994,-0.229176,1.505374,1.700890,-0.044717,0.043798,0.082788,0.999935,-0.001146,0.007527,0.008504,-0.318246,-0.294667,0.029501,0.900567,16.271695,30.794331,-136.565620
17299,-4.690324,4.873602,8.060679,1.153729,-2.167130,0.419469,-0.105967,1.562848,2.111741,-0.046783,0.048284,0.080947,0.999914,-0.000530,0.007814,0.010558,-0.328073,-0.301190,0.029670,0.894859,17.064193,31.303878,-134.918260
17300,-4.996972,5.490063,8.011493,1.605234,-2.377590,0.725929,0.157817,1.572107,2.638327,-0.050056,0.054177,0.080551,0.999882,0.000789,0.007860,0.013191,-0.339797,-0.308043,0.031788,0.888052,18.205211,31.702807,-132.913571
17301,-5.511857,5.995555,8.261268,1.923609,-2.339921,1.385334,0.302036,1.578411,3.195615,-0.055411,0.058946,0.083139,0.999840,0.001510,0.007892,0.015977,-0.353677,-0.314999,0.035389,0.880020,19.636589,31.963466,-130.534928
17302,-5.952538,6.154362,8.091939,2.216006,-1.976214,1.587661,0.033179,1.662386,3.209599,-0.059827,0.060572,0.081426,0.999837,0.000166,0.008311,0.016047,-0.367947,-0.321742,0.037666,0.871596,20.944713,32.217770,-128.114242
17303,-6.484275,4.480176,8.501499,1.069381,-0.348609,1.725315,-0.423319,1.682603,2.948040,-0.064778,0.044027,0.085466,0.999854,-0.002116,0.008413,0.014739,-0.381699,-0.327687,0.037489,0.863436,21.922583,32.496915,-125.840961
17304,-6.891572,0.375837,8.229999,-1.363170,2.925049,0.431797,-0.346003,1.582540,2.736750,-0.068306,0.002964,0.082837,0.999874,-0.001730,0.007912,0.013683,-0.394293,-0.333294,0.037475,0.855596,22.873415,32.736560,-123.714794
17305,-6.721534,1.255334,8.123595,-1.015390,2.231935,0.518432,-0.150199,1.486661,2.240161,-0.066745,0.011865,0.081724,0.999909,-0.000751,0.007433,0.011200,-0.404329,-0.338902,0.037657,0.848672,23.767899,33.009786,-121.915216
17306,-7.132938,1.582388,8.309190,-0.906209,2.267002,0.979099,-0.187892,1.321766,1.717338,-0.070911,0.015292,0.083547,0.999941,-0.000939,0.006609,0.008587,-0.412124,-0.343779,0.037117,0.842967,24.449090,33.298052,-120.478253
17307,-7.088885,0.738521,8.056039,-1.490549,2.839647,0.454263,0.001052,1.086523,1.459424,-0.070501,0.006869,0.080944,0.999959,0.000005,0.005433,0.007297,-0.418417,-0.348071,0.037415,0.838078,25.123148,33.511965,-119.261835
17308,-6.699799,3.246601,8.081137,-0.108990,0.944678,1.133851,0.228021,0.889445,1.412502,-0.066864,0.031901,0.081146,0.999965,0.001140,0.004447,0.007062,-0.424054,-0.351990,0.038987,0.833523,25.884112,33.622479,-118.127228
17309,-6.332737,4.894731,7.916847,0.857011,-0.287758,1.408725,0.086072,0.746767,1.463212,-0.063387,0.048450,0.079426,0.999966,0.000430,0.003734,0.007316,-0.430090,-0.354984,0.040361,0.829084,26.559937,33.635330,-117.002771
17310,-5.602686,4.370571,7.200634,0.587681,-0.278885,0.282729,-0.127332,0.731836,1.420794,-0.056072,0.043353,0.072184,0.999968,-0.000637,0.003659,0.007104,-0.436303,-0.357438,0.040801,0.824751,27.096217,33.641231,-115.908323
17311,-5.527792,3.652751,6.854930,0.214541,0.224056,-0.284177,-0.203367,0.788740,1.314081,-0.055246,0.036234,0.068730,0.999970,-0.001017,0.003944,0.006570,-0.442191,-0.359965,0.040613,0.820514,27.564048,33.696547,-114.861177
17312,-5.895699,2.931521,6.974757,-0.306843,0.927301,-0.270899,-0.086960,0.779371,1.233551,-0.058864,0.028982,0.069964,0.999973,-0.000435,0.003897,0.006168,-0.447519,-0.362702,0.040773,0.816402,28.070647,33.760870,-113.864427
17313,-6.032513,3.623539,7.279127,-0.049290,0.561779,0.296133,0.061440,0.704326,1.195920,-0.060283,0.035852,0.073015,0.999976,0.000307,0.003522,0.005980,-0.452379,-0.365460,0.041641,0.812440,28.637900,33.790196,-112.914329
17314,-6.062069,4.222599,7.650709,0.066512,0.168208,0.821174,0.078515,0.588878,1.183774,-0.060643,0.041837,0.076702,0.999978,0.000393,0.002944,0.005919,-0.457121,-0.367768,0.042810,0.808674,29.188981,33.756896,-112.009278
17315,-5.781163,4.118216,7.762500,-0.234852,0.019224,0.703111,0.008749,0.472161,1.083844,-0.057850,0.040865,0.077763,0.999983,0.000044,0.002361,0.005419,-0.461538,-0.369457,0.043783,0.805337,29.644303,33.687240,-111.205128
17316,-5.572558,3.371450,7.555445,-0.750950,0.367209,0.127424,-0.031054,0.407185,0.897538,-0.055722,0.033476,0.075663,0.999988,-0.000155,0.002036,0.004488,-0.465257,-0.370817,0.044397,0.802533,30.000811,33.633252,-110.535163
17317,-5.652639,3.024397,7.321014,-0.875947,0.709554,-0.146999,0.085543,0.365431,0.783452,-0.056510,0.029991,0.073326,0.999991,0.000428,0.001827,0.003917,-0.468276,-0.372304,0.045366,0.800031,30.378238,33.588256,-109.948824
17318,-5.625514,4.020633,7.288631,-0.203870,0.167472,0.230524,0.193477,0.322034,0.777000,-0.056293,0.039917,0.073016,0.999991,0.000967,0.001610,0.003885,-0.471057,-0.373859,0.046853,0.797584,30.805491,33.519936,-109.381746
17319,-5.569943,5.049089,7.183208,0.531824,-0.377531,0.564707,0.156235,0.280552,0.839687,-0.055810,0.050201,0.071950,0.999990,0.000781,0.001403,0.004198,-0.474131,-0.375144,0.048408,0.795062,31.222819,33.409634,-108.794211
17320,-5.673010,5.093135,7.065893,0.619200,-0.239023,0.560787,0.070258,0.219661,0.955797,-0.056895,0.050635,0.070739,0.999988,0.000351,0.001098,0.004779,-0.477811,-0.375942,0.049979,0.792380,31.613395,33.231048,-108.161866
17321,-5.690386,5.262657,6.916350,0.794964,-0.208483,0.542784,0.122865,0.131315,1.174567,-0.057166,0.052249,0.069233,0.999982,0.000614,0.000657,0.005873,-0.482215,-0.376455,0.052384,0.789308,32.082723,32.939719,-107.438162
17322,-5.712469,6.033720,7.034763,1.225954,-0.532404,0.991849,0.205022,0.024643,1.516091,-0.057571,0.059830,0.070416,0.999971,0.001025,0.000123,0.007580,-0.487769,-0.376633,0.056006,0.785552,32.676285,32.486004,-106.562708
17323,-5.618407,6.871289,7.155062,1.671512,-0.930796,1.426217,0.181631,-0.064843,1.904434,-0.056858,0.068109,0.071594,0.999954,0.000908,-0.000324,0.009522,-0.494824,-0.376271,0.060486,0.780968,33.344047,31.860326,-105.511511
17324,-5.493277,6.631336,7.244978,1.354178,-0.758982,1.333046,0.026399,-0.133157,2.173247,-0.055697,0.065701,0.072422,0.999941,0.000132,-0.000666,0.010866,-0.503155,-0.375132,0.065024,0.775811,33.968196,31.106363,-104.351080
17325,-5.274425,5.335470,7.151595,0.370908,-0.108734,0.544930,-0.095919,-0.163248,2.240444,-0.053396,0.052793,0.071447,0.999937,-0.000480,-0.000816,0.011202,-0.511898,-0.373506,0.069287,0.770489,34.513325,30.306715,-103.183840
17326,-5.047944,3.856111,7.115610,-0.787135,0.546733,-0.322523,-0.114802,-0.160250,2.089702,-0.050936,0.038071,0.071093,0.999945,-0.000574,-0.000801,0.010448,-0.520044,-0.371847,0.073175,0.765460,34.984097,29.548553,-102.114361
17327,-4.955635,2.909406,6.967571,-1.460717,1.044836,-0.961497,0.016496,-0.140941,1.845611,-0.049871,0.028629,0.069643,0.999957,0.000082,-0.000705,0.009228,-0.526960,-0.370662,0.077059,0.760910,35.451762,28.872801,-101.183692
17328,-5.018453,2.974391,6.879689,-1.402930,1.188828,-0.982092,0.212364,-0.129405,1.637994,-0.050470,0.029258,0.068796,0.999966,0.001062,-0.000647,0.008190,-0.532695,-0.370082,0.081262,0.756750,35.965301,28.264641,-100.370474
17329,-5.050643,4.141485,7.045600,-0.698976,0.777171,-0.262420,0.313352,-0.110749,1.483297,-0.050850,0.040928,0.070492,0.999971,0.001567,-0.000554,0.007416,-0.537625,-0.369887,0.085510,0.752882,36.490480,27.711348,-99.642364
17330,-5.616255,5.709377,7.619840,0.116230,0.588153,1.225438,0.258434,-0.158517,1.451744,-0.056635,0.056585,0.076227,0.999973,0.001292,-0.000793,0.007259,-0.542494,-0.369352,0.089613,0.749165,36.956932,27.141074,-98.957589
17331,-6.149943,6.360711,7.922395,0.418854,0.858626,2.024956,0.106240,-0.305743,1.610884,-0.062130,0.063066,0.079163,0.999966,0.000531,-0.001529,0.008054,-0.548134,-0.367764,0.093838,0.745314,37.337220,26.444357,-98.257733
17332,-6.637878,7.101551,8.509089,0.600014,1.044397,3.049770,0.018265,-0.559181,1.954466,-0.067306,0.070353,0.084910,0.999948,0.000091,-0.002796,0.009772,-0.555058,-0.364793,0.099048,0.740963,37.686160,25.508280,-97.491751
17333,-5.639944,6.228012,7.937964,0.150886,0.851157,1.713630,-0.036961,-0.784081,2.333576,-0.057432,0.061629,0.079144,0.999924,-0.000185,-0.003920,0.011668,-0.563296,-0.360607,0.105362,0.735907,38.028920,24.333393,-96.637597
17334,-4.493652,6.000217,7.913367,-0.167493,0.142999,1.085167,0.039354,-0.877730,2.478097,-0.046022,0.059421,0.078945,0.999914,0.000197,-0.004389,0.012390,-0.571797,-0.356151,0.112460,0.730450,38.405496,23.059896,-95.764136
17335,-3.736027,5.627501,7.837368,-0.509909,-0.173456,0.519605,0.097203,-0.912655,2.484758,-0.038412,0.055764,0.078227,0.999912,0.000486,-0.004563,0.012423,-0.580092,-0.351673,0.119865,0.724881,38.787332,21.763508,-94.919262
17336,-3.767813,5.651556,7.867868,-0.551253,0.073749,0.566421,0.154983,-0.946846,2.408810,-0.038727,0.055992,0.078541,0.999916,0.000775,-0.004734,0.012044,-0.587898,-0.347219,0.127420,0.719429,39.159978,20.473750,-94.139742
17337,-3.227299,5.565801,7.843168,-0.673334,-0.179630,0.307559,0.055373,-0.952829,2.234422,-0.033265,0.055268,0.078290,0.999926,0.000277,-0.004764,0.011172,-0.595146,-0.342511,0.134317,0.714455,39.426657,19.240956,-93.459670
17338,-2.610103,5.786745,7.924524,-0.613289,-0.631637,0.302593,-0.035393,-0.900847,1.990889,-0.027032,0.057615,0.079115,0.999940,-0.000177,-0.004504,0.009954,-0.601643,-0.337832,0.140295,0.710079,39.594302,18.117129,-92.882168
17339,-2.797465,6.255152,8.267450,-0.476110,-0.443229,0.905395,-0.150653,-0.876176,1.789274,-0.028895,0.062358,0.082502,0.999950,-0.000753,-0.004381,0.008946,-0.607563,-0.333003,0.145438,0.706275,39.659009,17.077092,-92.395334
17340,-2.621152,5.671435,8.103233,-0.813523,-0.270090,0.383429,-0.270490,-0.887071,1.648280,-0.027037,0.056603,0.080837,0.999955,-0.001352,-0.004435,0.008241,-0.613128,-0.327838,0.149938,0.702933,39.625601,16.083332,-91.979675
17341,-2.291617,5.398512,7.953417,-0.923700,-0.340018,0.019985,-0.217982,-0.857793,1.527134,-0.023669,0.053893,0.079375,0.999961,-0.001090,-0.004289,0.007636,-0.618144,-0.323005,0.154325,0.699821,39.603776,15.147246,-91.610738
17342,-3.015471,6.047389,8.235416,-0.584239,0.346459,0.818507,-0.112839,-0.878094,1.484435,-0.030964,0.060292,0.082185,0.999963,-0.000564,-0.004390,0.007422,-0.622785,-0.318430,0.159059,0.696736,39.628497,14.217491,-91.269810
17343,-2.933112,6.435017,8.178331,-0.252163,0.386103,0.989265,-0.139799,-0.990914,1.502032,-0.030218,0.064183,0.081590,0.999959,-0.000699,-0.004955,0.007510,-0.627386,-0.313342,0.164070,0.693747,39.624228,13.231751,-90.965711
17344,-2.230385,6.667867,7.873160,0.117472,-0.101302,0.741691,-0.197368,-1.000220,1.483845,-0.023191,0.066586,0.078551,0.999959,-0.000987,-0.005001,0.007419,-0.631962,-0.308028,0.168864,0.690816,39.578579,12.248384,-90.673343
17345,-2.058213,6.818580,7.798947,0.296384,-0.098722,0.744419,-0.314708,-1.001272,1.452279,-0.021467,0.068155,0.077776,0.999960,-0.001574,-0.005006,0.007261,-0.636552,-0.302345,0.173198,0.688035,39.458447,11.276770,-90.396047
17346,-1.162793,6.511604,7.317511,0.392339,-0.697685,0.018698,-0.466341,-0.931802,1.354886,-0.012410,0.065204,0.072967,0.999963,-0.002332,-0.004659,0.006774,-0.641054,-0.296476,0.176625,0.685533,39.243383,10.371823,-90.134202
17347,-1.241556,6.623513,7.452964,0.439161,-0.502487,0.212870,-0.573688,-0.788395,1.232496,-0.013117,0.066369,0.074289,0.999969,-0.002868,-0.003942,0.006162,-0.645372,-0.290846,0.179035,0.683264,38.963655,9.576252,-89.872527
17348,-1.978231,6.804053,7.727364,0.459960,0.311452,0.656799,-0.661663,-0.749792,1.194211,-0.020478,0.068175,0.076972,0.999970,-0.003308,-0.003749,0.005971,-0.649690,-0.285077,0.180950,0.681095,38.629512,8.812794,-89.609629
17349,-1.447287,6.181143,7.602577,0.117178,-0.004579,0.091088,-0.779181,-0.740499,1.184564,-0.015121,0.062019,0.075729,0.999968,-0.003896,-0.003702,0.005923,-0.654104,-0.278953,0.182413,0.679013,38.225682,8.058886,-89.344153
17350,-0.950291,5.508870,7.555290,-0.312769,-0.315429,-0.424696,-0.709797,-0.690853,1.123458,-0.010074,0.055301,0.075323,0.999972,-0.003549,-0.003454,0.005617,-0.658227,-0.273259,0.183849,0.676954,37.856918,7.350492,-89.083354
17351,-1.337843,5.693456,7.928236,-0.346672,0.132588,0.032263,-0.588710,-0.708391,1.076238,-0.013966,0.057093,0.079066,0.999975,-0.002944,-0.003542,0.005381,-0.661967,-0.267938,0.185683,0.674931,37.552018,6.652467,-88.847342
17352,-0.879696,5.406899,7.678963,-0.366239,-0.164560,-0.388653,-0.549084,-0.739863,1.018277,-0.009356,0.054233,0.076607,0.999976,-0.002745,-0.003699,0.005091,-0.665403,-0.262678,0.187664,0.673068,37.262625,5.961280,-88.644776
17353,-0.595932,5.384418,7.687116,-0.340550,-0.337407,-0.420777,-0.462468,-0.701906,0.930251,-0.006480,0.053992,0.076724,0.999980,-0.002312,-0.003510,0.004651,-0.668431,-0.257909,0.189690,0.671343,37.018697,5.319062,-88.467231
17354,-0.724735,5.522129,7.802849,-0.267243,-0.120140,-0.230581,-0.408462,-0.693860,0.869495,-0.007758,0.055347,0.077889,0.999982,-0.002042,-0.003469,0.004347,-0.671174,-0.253393,0.191781,0.669730,36.801213,4.701919,-88.311635
17355,-0.322070,5.212454,7.443090,-0.256210,-0.387340,-0.732128,-0.397226,-0.626938,0.791338,-0.003660,0.052258,0.074316,0.999985,-0.001986,-0.003135,0.003957,-0.673677,-0.249208,0.193584,0.668266,36.588282,4.143086,-88.167649
17356,-0.581261,5.487149,7.761908,-0.204788,-0.071565,-0.291859,-0.305244,-0.563138,0.726233,-0.006230,0.054968,0.077518,0.999988,-0.001526,-0.002816,0.003631,-0.675899,-0.245599,0.195390,0.666831,36.425727,3.636083,-88.029412
17357,-0.827459,5.759591,7.857973,-0.027634,0.249564,-0.038148,-0.280825,-0.555251,0.712353,-0.008698,0.057676,0.078475,0.999989,-0.001404,-0.002776,0.003562,-0.678031,-0.242111,0.197232,0.665399,36.276336,3.138013,-87.894344
17358,-0.551612,5.708999,7.888695,-0.051686,0.056886,-0.059641,-0.334697,-0.534384,0.695612,-0.005926,0.057202,0.078776,0.999989,-0.001673,-0.002672,0.003478,-0.680184,-0.238517,0.198796,0.664033,36.094426,2.655448,-87.757840
17359,-0.462077,5.732118,7.852776,0.017953,0.050473,-0.079582,-0.308760,-0.492109,0.671313,-0.005006,0.057426,0.078427,0.999990,-0.001544,-0.002461,0.003357,-0.682247,-0.235174,0.200273,0.662663,35.926977,2.201291,-87.617695
17360,-0.797326,6.319044,7.905353,0.474082,0.469881,0.317192,-0.313175,-0.497861,0.681189,-0.008385,0.063286,0.078934,0.999990,-0.001566,-0.002489,0.003406,-0.684335,-0.231779,0.201759,0.661254,35.755483,1.741355,-87.472830
17361,-0.872495,6.507134,7.978387,0.611621,0.632422,0.482158,-0.420208,-0.534380,0.726275,-0.009174,0.065206,0.079623,0.999988,-0.002101,-0.002672,0.003631,-0.686638,-0.227850,0.203068,0.659830,35.522281,1.250105,-87.318380
17362,-0.474260,6.129172,7.979127,0.363212,0.317721,0.248345,-0.515710,-0.571643,0.741623,-0.005198,0.061478,0.079618,0.999986,-0.002579,-0.002858,0.003708,-0.689050,-0.223445,0.204197,0.658472,35.232399,0.736842,-87.166102
17363,-0.056485,5.728331,7.908979,0.145867,-0.018584,-0.048139,-0.586129,-0.575437,0.718687,-0.000998,0.057512,0.078919,0.999985,-0.002931,-0.002877,0.003593,-0.691435,-0.218806,0.205081,0.657254,34.901326,0.230439,-87.023959
17364,-0.190823,5.602533,8.161327,-0.052258,0.188708,0.086445,-0.658253,-0.561972,0.614203,-0.002310,0.056287,0.081422,0.999986,-0.003291,-0.002810,0.003071,-0.693557,-0.214059,0.205556,0.656433,34.527129,-0.234896,-86.922629
17365,-0.442530,4.823174,8.211440,-0.674927,0.483386,-0.315500,-0.693638,-0.594841,0.541112,-0.004800,0.048503,0.081933,0.999986,-0.003468,-0.002974,0.002706,-0.695416,-0.209153,0.205950,0.655924,34.132777,-0.691214,-86.864293
17366,-0.536434,4.345925,8.210866,-1.018518,0.630014,-0.584571,-0.597419,-0.630615,0.509859,-0.005734,0.043690,0.081961,0.999987,-0.002987,-0.003153,0.002549,-0.697024,-0.204489,0.206741,0.655439,33.792862,-1.154402,-86.828422
17367,-0.226058,4.462670,8.219559,-0.864552,0.404249,-0.505907,-0.476185,-0.667036,0.467379,-0.002639,0.044816,0.082081,0.999989,-0.002381,-0.003335,0.002337,-0.698307,-0.200170,0.208011,0.655004,33.523370,-1.620968,-86.822834
17368,0.021771,4.741176,8.214059,-0.579856,0.252712,-0.349640,-0.400250,-0.688818,0.427787,-0.000167,0.047576,0.082045,0.999990,-0.002001,-0.003444,0.002139,-0.699354,-0.196078,0.209559,0.654631,33.297562,-2.085732,-86.840127
17369,-0.079489,5.232572,8.260173,-0.169382,0.465182,-0.046885,-0.363206,-0.685194,0.395294,-0.001181,0.052474,0.082503,0.999991,-0.001816,-0.003426,0.001976,-0.700242,-0.192161,0.211182,0.654322,33.094123,-2.538298,-86.871048
17370,-0.253365,5.684794,8.491175,0.105216,0.754789,0.380428,-0.389998,-0.725731,0.407884,-0.002958,0.057008,0.084790,0.999989,-0.001950,-0.003629,0.002039,-0.701147,-0.187997,0.212865,0.654017,32.875323,-3.014710,-86.906000
17371,-0.031195,5.342031,8.663493,-0.225169,0.601460,0.345118,-0.467952,-0.803507,0.439282,-0.000777,0.053621,0.086507,0.999987,-0.002340,-0.004018,0.002196,-0.702121,-0.183271,0.214592,0.653749,32.613057,-3.538100,-86.948926
17372,0.663398,4.942909,8.403488,-0.344230,-0.033068,-0.046899,-0.415158,-0.815801,0.476287,0.006173,0.049618,0.083958,0.999987,-0.002076,-0.004079,0.002381,-0.703143,-0.178642,0.216561,0.653283,32.379847,-4.079374,-86.974501
17373,0.922335,5.076981,8.397394,-0.181588,-0.186730,0.039928,-0.371957,-0.763512,0.511773,0.008773,0.050949,0.083913,0.999988,-0.001860,-0.003818,0.002559,-0.704274,-0.174297,0.218515,0.652587,32.169427,-4.605870,-86.965699
17374,1.015350,5.163382,8.386495,-0.066703,-0.181382,0.086134,-0.362439,-0.700931,0.543465,0.009719,0.051813,0.083806,0.999989,-0.001812,-0.003505,0.002717,-0.705559,-0.170147,0.220300,0.651694,31.960805,-5.111979,-86.919418
17375,1.113357,5.281463,8.375142,0.077786,-0.181668,0.149072,-0.396989,-0.625305,0.558660,0.010724,0.053011,0.083680,0.999989,-0.001985,-0.003127,0.002793,-0.706984,-0.166104,0.221716,0.650712,31.729444,-5.585307,-86.841729
17376,0.849674,4.978579,8.465008,-0.204005,0.137543,0.041417,-0.416908,-0.573937,0.568468,0.008112,0.049986,0.084570,0.999990,-0.002085,-0.002870,0.002842,-0.708506,-0.162140,0.222887,0.649655,31.483306,-6.036570,-86.740710
17377,0.637253,4.757489,8.635462,-0.457335,0.415712,0.047758,-0.390666,-0.580849,0.582256,0.005983,0.047761,0.086279,0.999990,-0.001953,-0.002904,0.002911,-0.710022,-0.158232,0.224176,0.648518,31.251144,-6.494518,-86.633969
17378,0.467115,4.690070,8.780841,-0.568397,0.669601,0.114346,-0.350458,-0.641231,0.572788,0.004255,0.047067,0.087740,0.999989,-0.001752,-0.003206,0.002864,-0.711400,-0.154274,0.225796,0.647399,31.043113,-6.979239,-86.547080
17379,0.649134,4.272620,8.823039,-0.906947,0.531342,-0.044520,-0.321417,-0.715292,0.531699,0.006062,0.042884,0.088184,0.999989,-0.001607,-0.003576,0.002658,-0.712517,-0.150226,0.227738,0.646441,30.856521,-7.487518,-86.501757
17380,0.780619,4.216587,8.841114,-0.936899,0.485475,-0.043342,-0.187715,-0.776827,0.490380,0.007359,0.042267,0.088401,0.999989,-0.000939,-0.003884,0.002452,-0.713321,-0.146496,0.230294,0.645505,30.750723,-8.014264,-86.492823
17381,0.733150,4.804210,8.939051,-0.481245,0.709310,0.325804,-0.098310,-0.853118,0.491141,0.006832,0.048103,0.089397,0.999988,-0.000492,-0.004266,0.002456,-0.713951,-0.142838,0.233407,0.644510,30.699536,-8.578328,-86.506314
17382,1.007436,5.182453,8.751851,-0.042748,0.573093,0.392038,-0.085850,-0.919112,0.511467,0.009539,0.051887,0.087541,0.999986,-0.000429,-0.004596,0.002557,-0.714548,-0.138981,0.236803,0.643452,30.656620,-9.181332,-86.527768
17383,1.562548,5.103057,8.420072,0.099213,0.086679,0.155365,-0.163936,-0.918800,0.506028,0.015109,0.051138,0.084229,0.999986,-0.000820,-0.004594,0.002530,-0.715156,-0.134851,0.239936,0.642494,30.569872,-9.782099,-86.552217
17384,1.532416,4.800082,8.470822,-0.179672,0.183797,0.040078,-0.147832,-0.897657,0.492249,0.014826,0.048100,0.084740,0.999987,-0.000739,-0.004488,0.002461,-0.715720,-0.130857,0.243030,0.641527,30.492197,-10.368973,-86.575465
17385,1.174020,5.026722,8.661680,-0.100038,0.695340,0.245967,-0.109234,-0.912937,0.508194,0.011217,0.050343,0.086641,0.999986,-0.000546,-0.004565,0.002541,-0.716266,-0.126932,0.246306,0.640456,30.436468,-10.967519,-86.595603
17386,1.367195,5.149498,8.728945,-0.012921,0.643224,0.393488,-0.150107,-0.979639,0.535053,0.013106,0.051596,0.087316,0.999984,-0.000751,-0.004898,0.002675,-0.716828,-0.122607,0.249699,0.639356,30.358240,-11.607370,-86.620212
17387,1.908308,4.535570,8.431271,-0.345098,0.091318,-0.057132,-0.185667,-1.007433,0.540479,0.018535,0.045485,0.084365,0.999983,-0.000928,-0.005037,0.002702,-0.717363,-0.118058,0.253074,0.638284,30.261208,-12.261988,-86.650456
17388,2.425550,4.276288,7.985267,-0.299957,-0.415070,-0.449393,-0.170134,-0.971941,0.482633,0.023764,0.042889,0.079933,0.999985,-0.000851,-0.004860,0.002413,-0.717733,-0.113744,0.256328,0.637351,30.176920,-12.882982,-86.697458
17389,2.632901,3.978889,7.960144,-0.526190,-0.572035,-0.564832,-0.102132,-0.890774,0.423177,0.025890,0.039885,0.079697,0.999988,-0.000511,-0.004454,0.002116,-0.717954,-0.110009,0.259467,0.636488,30.133695,-13.446127,-86.751187
17390,2.616223,4.192397,7.839219,-0.285640,-0.453950,-0.561420,0.010542,-0.807249,0.395363,0.025763,0.041971,0.078499,0.999990,0.000053,-0.004036,0.001977,-0.718122,-0.106975,0.262644,0.635512,30.152672,-13.960471,-86.793294
17391,2.752016,4.764176,7.755399,0.243952,-0.423904,-0.316506,0.078738,-0.722905,0.381350,0.027149,0.047663,0.077671,0.999992,0.000394,-0.003615,0.001907,-0.718301,-0.104473,0.265721,0.634446,30.207092,-14.428438,-86.818915
17392,2.552786,5.206131,7.817262,0.567765,-0.068212,-0.096585,0.065088,-0.649923,0.381084,0.025174,0.052084,0.078272,0.999993,0.000325,-0.003250,0.001905,-0.718578,-0.102150,0.268490,0.633344,30.248223,-14.860718,-86.822383
17393,2.846765,5.003957,7.707918,0.458985,-0.339239,-0.209066,0.015792,-0.582232,0.374602,0.028149,0.050086,0.077165,0.999994,0.000079,-0.002911,0.001873,-0.718935,-0.099873,0.270852,0.632295,30.257128,-15.257102,-86.810136
17394,2.998440,4.717192,7.613476,0.267044,-0.493679,-0.384418,-0.004021,-0.506121,0.348535,0.029709,0.047225,0.076209,0.999995,-0.000020,-0.002531,0.001743,-0.719321,-0.097798,0.272862,0.631316,30.251755,-15.608814,-86.787474
17395,3.062751,4.746770,7.703494,0.247523,-0.478837,-0.275112,0.001434,-0.396640,0.314846,0.030400,0.047515,0.077096,0.999997,0.000007,-0.001983,0.001574,-0.719735,-0.096136,0.274477,0.630398,30.245522,-15.896124,-86.750218
17396,2.869386,4.933264,7.950707,0.268921,-0.162297,-0.030795,-0.021998,-0.313208,0.292754,0.028497,0.049383,0.079546,0.999998,-0.000110,-0.001566,0.001464,-0.720208,-0.094679,0.275706,0.629542,30.221522,-16.136238,-86.698182
17397,2.791625,4.831857,8.151224,0.078859,-0.025554,0.065342,-0.073637,-0.261705,0.282871,0.027741,0.048388,0.081531,0.999998,-0.000368,-0.001309,0.001414,-0.720736,-0.093215,0.276581,0.628772,30.165163,-16.347501,-86.636530
17398,2.787251,4.548045,8.296908,-0.230755,-0.009566,0.048282,-0.098599,-0.235843,0.254883,0.027717,0.045557,0.082979,0.999998,-0.000493,-0.001179,0.001274,-0.721227,-0.091777,0.277271,0.628116,30.095714,-16.538295,-86.580299
17399,2.796248,4.572532,8.461688,-0.284827,0.054483,0.199457,-0.102018,-0.228611,0.220762,0.027815,0.045799,0.084625,0.999999,-0.000510,-0.001143,0.001104,-0.721614,-0.090400,0.277907,0.627590,30.028867,-16.715182,-86.540239
17400,2.742595,4.712726,8.627281,-0.244039,0.201513,0.388359,-0.106746,-0.250826,0.193303,0.027272,0.047200,0.086282,0.999999,-0.000534,-0.001254,0.000967,-0.721890,-0.088971,0.278595,0.627171,29.964769,-16.895645,-86.519839
17401,2.832292,4.728060,8.593195,-0.197818,0.145548,0.393144,-0.143490,-0.283897,0.192454,0.028155,0.047369,0.085938,0.999998,-0.000717,-0.001419,0.000962,-0.722126,-0.087310,0.279286,0.626826,29.882861,-17.091787,-86.510463
17402,3.060897,4.501417,8.517367,-0.327065,-0.098982,0.289812,-0.170555,-0.295176,0.166840,0.030446,0.045112,0.085180,0.999998,-0.000853,-0.001476,0.000834,-0.722281,-0.085548,0.279921,0.626607,29.789884,-17.286693,-86.516494
17403,3.153464,4.252797,8.476238,-0.500537,-0.211983,0.166373,-0.176119,-0.290725,0.136631,0.031382,0.042624,0.084771,0.999998,-0.000881,-0.001454,0.000683,-0.722342,-0.083824,0.280508,0.626507,29.698294,-17.470329,-86.537560
17404,3.223952,4.048138,8.404064,-0.624106,-0.305229,0.032454,-0.144329,-0.278475,0.096518,0.032103,0.040558,0.084056,0.999999,-0.000722,-0.001392,0.000483,-0.722284,-0.082307,0.281133,0.626495,29.629775,-17.636995,-86.574742
17405,3.177315,4.389645,8.322294,-0.285343,-0.183626,0.112517,-0.083145,-0.241539,0.077750,0.031656,0.043943,0.083243,0.999999,-0.000416,-0.001208,0.000389,-0.722188,-0.081156,0.281807,0.626453,29.596311,-17.779520,-86.611494
17406,3.118066,4.618181,8.366223,-0.110389,-0.046489,0.238643,-0.082532,-0.215086,0.080760,0.031072,0.046229,0.083677,0.999999,-0.000413,-0.001075,0.000404,-0.722142,-0.080082,0.282389,0.626382,29.560073,-17.910197,-86.637889
17407,3.193188,4.723829,8.208160,0.070020,-0.112366,0.180677,-0.083035,-0.177835,0.088908,0.031838,0.047287,0.082090,0.999999,-0.000415,-0.000889,0.000445,-0.722168,-0.079115,0.282838,0.626272,29.519127,-18.024170,-86.649703
17408,3.170458,4.624664,8.287329,-0.050968,-0.073736,0.192865,-0.073526,-0.127512,0.091153,0.031631,0.046292,0.082876,1.000000,-0.000368,-0.000638,0.000456,-0.722273,-0.078333,0.283135,0.626115,29.478348,-18.114141,-86.644502
17409,2.822414,4.827181,8.522836,-0.009700,0.371095,0.373999,-0.069105,-0.125140,0.109406,0.028144,0.048317,0.085229,1.000000,-0.000346,-0.000626,0.000547,-0.722432,-0.077552,0.283444,0.625889,29.437145,-18.207622,-86.629758
17410,2.760264,4.857488,8.654992,-0.046782,0.487995,0.477248,-0.095931,-0.164574,0.136070,0.027498,0.048635,0.086549,0.999999,-0.000480,-0.000823,0.000680,-0.722633,-0.076509,0.283823,0.625614,29.379504,-18.328722,-86.611772
17411,2.828730,4.622851,8.652238,-0.234353,0.397960,0.386348,-0.118454,-0.202023,0.132035,0.028169,0.046298,0.086523,0.999999,-0.000592,-0.001010,0.000660,-0.722770,-0.075277,0.284263,0.625405,29.313322,-18.466889,-86.607695
17412,2.957006,4.458299,8.651890,-0.359433,0.269308,0.349681,-0.116995,-0.241163,0.122907,0.029438,0.044652,0.086528,0.999999,-0.000585,-0.001206,0.000615,-0.722826,-0.073937,0.284846,0.625235,29.252838,-18.622536,-86.618979
17413,3.077207,4.595766,8.663525,-0.232276,0.215927,0.460884,-0.109850,-0.264962,0.103416,0.030633,0.046021,0.086651,0.999999,-0.000549,-0.001325,0.000517,-0.722778,-0.072580,0.285529,0.625138,29.202243,-18.784126,-86.648291
17414,2.977947,4.754939,8.813189,-0.168305,0.412257,0.625298,-0.121325,-0.298001,0.113264,0.029621,0.047620,0.088147,0.999999,-0.000607,-0.001490,0.000566,-0.722721,-0.071060,0.286299,0.625026,29.146324,-18.965535,-86.681159
17415,3.103768,4.809716,8.749530,-0.072151,0.324311,0.637695,-0.168793,-0.338525,0.117325,0.030861,0.048189,0.087507,0.999998,-0.000844,-0.001693,0.000587,-0.722628,-0.069239,0.287066,0.624987,29.066693,-19.167856,-86.724507
17416,3.157557,4.469999,8.782845,-0.365791,0.250156,0.526215,-0.213221,-0.372102,0.099019,0.031390,0.044809,0.087839,0.999998,-0.001066,-0.001861,0.000495,-0.722446,-0.067176,0.287810,0.625079,28.967889,-19.382517,-86.786307
17417,3.217790,4.218895,8.798856,-0.573740,0.186511,0.444455,-0.209824,-0.414961,0.073471,0.031980,0.042293,0.088011,0.999997,-0.001049,-0.002075,0.000367,-0.722114,-0.065030,0.288707,0.625277,28.880127,-19.611116,-86.874886
17418,3.153415,4.277364,8.793763,-0.512430,0.302524,0.444791,-0.192558,-0.463381,0.053302,0.031319,0.042867,0.087969,0.999997,-0.000963,-0.002317,0.000267,-0.721643,-0.062822,0.289826,0.625528,28.810740,-19.859124,-86.987360
17419,2.984441,4.370652,8.914686,-0.490636,0.562756,0.527693,-0.181738,-0.520196,0.065746,0.029598,0.043797,0.089184,0.999996,-0.000909,-0.002601,0.000329,-0.721116,-0.060458,0.291184,0.625738,28.751609,-20.138619,-87.110596
17420,3.381072,4.227529,8.532742,-0.399340,0.108053,0.283844,-0.174143,-0.559093,0.059738,0.033559,0.042360,0.085385,0.999996,-0.000871,-0.002795,0.000299,-0.720510,-0.058007,0.292704,0.625960,28.702288,-20.436707,-87.247572
17421,3.270063,4.281557,8.377632,-0.275402,0.232021,0.141200,-0.165154,-0.553799,0.041538,0.032460,0.042892,0.083831,0.999996,-0.000826,-0.002769,0.000208,-0.719841,-0.055632,0.294222,0.626233,28.661804,-20.726603,-87.393606
17422,3.025715,4.515666,8.423882,-0.100843,0.575195,0.195645,-0.152799,-0.585482,0.031207,0.030003,0.045226,0.084292,0.999995,-0.000764,-0.002927,0.000156,-0.719088,-0.053215,0.295891,0.626522,28.634304,-21.030299,-87.553786
17423,2.939501,4.780930,8.477541,0.106683,0.782014,0.323557,-0.216765,-0.630242,0.016462,0.029124,0.047904,0.084816,0.999994,-0.001084,-0.003151,0.000082,-0.718227,-0.050452,0.297510,0.626970,28.578760,-21.351909,-87.736037
17424,2.711878,4.682268,8.693786,-0.080495,1.097948,0.368054,-0.307596,-0.715171,-0.052224,0.026820,0.046949,0.086962,0.999992,-0.001538,-0.003576,-0.000261,-0.717043,-0.047196,0.299131,0.627807,28.494843,-21.698338,-87.979589
