// General information: 
//  MT Manager version: 2022.0.0 
//  XDA version: 2022.0.0 build 7085 rev 119802 built on 2022-11-08
// Device information: 
//  DeviceId: 00B472EE
//  ProductCode: MTW2-3A7G6
//  Firmware Version: 4.14.0
//  Hardware Version: 2.0.0
// Device settings: 
//  Filter Profile: human(46.1)
//  Option Flags: Orientation Smoother Disabled, Position/Velocity Smoother Disabled, Continuous Zero Rotation Update Disabled, AHS Disabled, ICC Disabled
// Coordinate system: ENU
PacketCounter,Acc_X,Acc_Y,Acc_Z,FreeAcc_E,FreeAcc_N,FreeAcc_U,Gyr_X,Gyr_Y,Gyr_Z,VelInc_X,VelInc_Y,VelInc_Z,OriInc_q0,OriInc_q1,OriInc_q2,OriInc_q3,Quat_q0,Quat_q1,Quat_q2,Quat_q3,Roll,Pitch,Yaw
10119,-4.287120,2.927682,8.454643,-0.067704,-0.041357,0.108271,-0.016559,-0.068152,-0.014777,-0.042898,0.029287,0.084529,1.000000,-0.000083,-0.000341,-0.000074,-0.440827,-0.273514,0.032969,0.854268,19.326205,25.991797,-120.909134
10120,-4.243886,2.414701,8.506991,-0.484534,0.228820,-0.018653,-0.073234,-0.024811,-0.002766,-0.042449,0.024179,0.085056,1.000000,-0.000366,-0.000124,-0.000014,-0.440910,-0.273256,0.032701,0.854319,19.281244,25.980025,-120.915850
10121,-4.326993,2.570838,8.425782,-0.287233,0.215205,-0.004677,0.043730,-0.069014,0.003021,-0.043299,0.025689,0.084248,1.000000,0.000219,-0.000345,0.000015,-0.440847,-0.273069,0.033031,0.854398,19.300089,25.944268,-120.928727
10122,-4.188065,2.888851,8.424500,-0.116134,-0.078986,0.027934,0.031294,-0.059223,0.005490,-0.041906,0.028874,0.084237,1.000000,0.000156,-0.000296,0.000027,-0.440817,-0.272892,0.033297,0.854460,19.314026,25.912324,-120.937724
10123,-4.398676,2.833318,8.356375,-0.024656,0.134053,0.045632,0.007184,-0.034530,0.006423,-0.044002,0.028329,0.083557,1.000000,0.000036,-0.000173,0.000032,-0.440826,-0.272772,0.033398,0.854489,19.315974,25.894540,-120.941123
10124,-4.405290,2.991445,8.355521,0.095788,0.047357,0.094816,0.036327,-0.052218,0.009366,-0.044076,0.029897,0.083549,1.000000,0.000182,-0.000261,0.000047,-0.440807,-0.272636,0.033676,0.854532,19.334460,25.865652,-120.946322
10125,-4.385536,3.009884,8.313243,0.121704,0.033485,0.055768,0.021684,-0.046674,0.004557,-0.043875,0.030089,0.083125,1.000000,0.000108,-0.000233,0.000023,-0.440785,-0.272496,0.033864,0.854581,19.343123,25.841659,-120.953534
10126,-4.349465,2.922671,8.348575,0.024347,0.056478,0.044025,0.016899,-0.040415,0.007380,-0.043513,0.029218,0.083479,1.000000,0.000084,-0.000202,0.000037,-0.440785,-0.272367,0.034030,0.854615,19.351042,25.819529,-120.957448
10127,-4.292799,2.948095,8.431842,-0.023538,-0.014419,0.097640,0.013799,-0.036856,0.006381,-0.042944,0.029474,0.084313,1.000000,0.000069,-0.000184,0.000032,-0.440783,-0.272251,0.034165,0.854647,19.356587,25.800500,-120.961574
10128,-4.236005,3.001838,8.361287,0.025499,-0.074658,0.029044,0.019304,-0.040195,-0.000554,-0.042377,0.030010,0.083607,1.000000,0.000097,-0.000201,-0.000003,-0.440746,-0.272130,0.034330,0.854698,19.363831,25.779998,-120.970208
10129,-4.317975,2.995472,8.303117,0.089249,0.005023,0.013377,-0.008236,-0.027397,-0.013867,-0.043189,0.029961,0.083024,1.000000,-0.000041,-0.000137,-0.000069,-0.440690,-0.272010,0.034323,0.854766,19.352337,25.769920,-120.984395
10130,-4.353503,2.888236,8.308094,0.026752,0.096900,0.001038,-0.018456,-0.011143,-0.010545,-0.043538,0.028892,0.083076,1.000000,-0.000092,-0.000056,-0.000053,-0.440667,-0.271932,0.034249,0.854806,19.338008,25.767018,-120.992897
10131,-4.359940,2.879306,8.330924,0.013642,0.103292,0.020568,0.000291,-0.023629,-0.004497,-0.043609,0.028794,0.083304,1.000000,0.000001,-0.000118,-0.000022,-0.440640,-0.271845,0.034282,0.854846,19.334202,25.757195,-121.000604
10132,-4.304957,2.929038,8.340994,0.020764,0.030245,0.020051,0.006294,-0.022242,-0.000331,-0.043059,0.029288,0.083406,1.000000,0.000031,-0.000111,-0.000002,-0.440625,-0.271772,0.034352,0.854874,19.335704,25.746353,-121.005311
10133,-4.303098,2.904156,8.414359,-0.034348,0.032231,0.074172,0.009618,-0.014762,0.007370,-0.043038,0.029036,0.084142,1.000000,0.000048,-0.000074,0.000037,-0.440636,-0.271741,0.034423,0.854875,19.341174,25.739045,-121.004193
10134,-4.369098,2.794029,8.433023,-0.093873,0.148765,0.085825,0.009241,-0.017323,0.009395,-0.043700,0.027934,0.084328,1.000000,0.000046,-0.000087,0.000047,-0.440660,-0.271694,0.034508,0.854875,19.347350,25.729018,-121.002027
10135,-4.314571,2.894274,8.377843,-0.018649,0.058028,0.045147,0.024619,-0.022177,0.016576,-0.043157,0.028929,0.083777,1.000000,0.000123,-0.000111,0.000083,-0.440690,-0.271663,0.034671,0.854863,19.363112,25.715961,-120.996839
10136,-4.319455,2.842679,8.383635,-0.057941,0.094930,0.036753,0.012532,-0.012051,0.017056,-0.043202,0.028418,0.083836,1.000000,0.000063,-0.000060,0.000085,-0.440742,-0.271644,0.034769,0.854837,19.373647,25.707327,-120.988971
10137,-4.448102,2.794172,8.374437,-0.030328,0.227925,0.070193,0.024045,-0.016239,0.020790,-0.044491,0.027927,0.083744,1.000000,0.000120,-0.000081,0.000104,-0.440792,-0.271636,0.034922,0.854808,19.390700,25.696691,-120.979957
10138,-4.263925,2.990550,8.425035,0.001443,-0.039117,0.092066,0.043971,-0.021060,0.027271,-0.042652,0.029881,0.084252,1.000000,0.000220,-0.000105,0.000136,-0.440844,-0.271646,0.035188,0.854767,19.421072,25.681239,-120.967874
10139,-4.222591,2.961542,8.372276,-0.014797,-0.040559,0.020631,0.019183,-0.012171,0.017047,-0.042234,0.029604,0.083723,1.000000,0.000096,-0.000061,0.000085,-0.440887,-0.271646,0.035305,0.854740,19.434720,25.673509,-120.960078
10140,-4.223539,3.105079,8.339558,0.105564,-0.118853,0.036310,0.033542,-0.009171,0.010897,-0.042241,0.031034,0.083399,1.000000,0.000168,-0.000046,0.000054,-0.440885,-0.271687,0.035478,0.854721,19.455945,25.667595,-120.955308
10141,-4.170581,3.180023,8.355821,0.125779,-0.207254,0.049729,0.017693,0.010483,0.001542,-0.041702,0.031793,0.083563,1.000000,0.000088,0.000052,0.000008,-0.440865,-0.271783,0.035520,0.854699,19.466823,25.675048,-120.952327
10142,-4.299686,2.942979,8.361825,0.006744,0.034388,0.039588,-0.003043,0.029758,-0.005066,-0.042984,0.029432,0.083624,1.000000,-0.000015,0.000149,-0.000025,-0.440852,-0.271913,0.035429,0.854668,19.466515,25.693210,-120.948879
10143,-4.369903,2.831535,8.379106,-0.052785,0.150734,0.051265,0.001126,0.027231,-0.003728,-0.043687,0.028316,0.083797,1.000000,0.000006,0.000136,-0.000019,-0.440836,-0.272044,0.035355,0.854638,19.468102,25.710664,-120.945361
10144,-4.364637,2.862298,8.364343,-0.026786,0.128665,0.045698,-0.000737,0.018876,-0.000067,-0.043638,0.028623,0.083647,1.000000,-0.000004,0.000094,-0.000000,-0.440839,-0.272131,0.035305,0.854610,19.469418,25.721994,-120.941221
10145,-4.335347,2.890839,8.357394,-0.016770,0.088501,0.035668,-0.003671,0.009494,0.003236,-0.043350,0.028909,0.083575,1.000000,-0.000018,0.000047,0.000016,-0.440854,-0.272176,0.035260,0.854590,19.468433,25.728566,-120.937567
10146,-4.351584,2.900799,8.327836,0.012122,0.099503,0.020609,-0.000498,0.010363,0.004284,-0.043512,0.029007,0.083281,1.000000,-0.000002,0.000052,0.000021,-0.440874,-0.272226,0.035236,0.854565,19.470236,25.734465,-120.932622
10147,-4.312640,2.842726,8.347877,-0.059134,0.100403,0.003291,-0.000572,0.005940,0.004219,-0.043125,0.028427,0.083480,1.000000,-0.000003,0.000030,0.000021,-0.440889,-0.272262,0.035213,0.854547,19.470947,25.738932,-120.928988
10148,-4.291167,2.933171,8.387358,-0.022860,0.021679,0.054652,0.006696,-0.000144,0.006547,-0.042913,0.029327,0.083875,1.000000,0.000033,-0.000001,0.000033,-0.440907,-0.272283,0.035245,0.854529,19.476494,25.738724,-120.924913
10149,-4.260888,2.988163,8.307855,0.042178,-0.020793,-0.009498,0.007416,0.002763,0.002457,-0.042608,0.029878,0.083080,1.000000,0.000037,0.000014,0.000012,-0.440904,-0.272323,0.035261,0.854518,19.481042,25.741776,-120.923043
10150,-4.307204,2.967449,8.365738,0.019020,0.017171,0.053552,0.003515,0.001215,-0.001013,-0.043071,0.029673,0.083658,1.000000,0.000018,0.000006,-0.000005,-0.440894,-0.272344,0.035267,0.854516,19.482923,25.743745,-120.923213
10151,-4.339393,3.056973,8.331440,0.116174,-0.006334,0.065307,0.007342,-0.001660,0.002392,-0.043395,0.030566,0.083315,1.000000,0.000037,-0.000008,0.000012,-0.440890,-0.272365,0.035292,0.854510,19.487005,25.744425,-120.922215
10152,-4.315150,3.008956,8.322695,0.073914,0.005925,0.032925,-0.003552,-0.003427,0.000981,-0.043153,0.030091,0.083226,1.000000,-0.000018,-0.000017,0.000005,-0.440897,-0.272350,0.035281,0.854512,19.484928,25.743506,-120.922174
10153,-4.338153,3.010512,8.315650,0.089791,0.023483,0.037398,-0.009177,-0.002257,-0.005205,-0.043382,0.030110,0.083155,1.000000,-0.000046,-0.000011,-0.000026,-0.440883,-0.272334,0.035226,0.854526,19.477521,25.745333,-120.925815
10154,-4.353325,2.993602,8.359868,0.063663,0.036795,0.076452,-0.016935,-0.005366,-0.005602,-0.043535,0.029944,0.083595,1.000000,-0.000085,-0.000027,-0.000028,-0.440880,-0.272283,0.035153,0.854547,19.465883,25.744624,-120.930133
10155,-4.374597,2.901880,8.320947,0.027184,0.115017,0.025106,-0.022128,-0.003880,-0.000766,-0.043747,0.029028,0.083205,1.000000,-0.000111,-0.000019,-0.000004,-0.440902,-0.272230,0.035053,0.854557,19.452084,25.744723,-120.931594
10156,-4.365962,2.859082,8.364752,-0.028015,0.125586,0.045735,-0.024268,-0.005931,-0.001489,-0.043662,0.028601,0.083643,1.000000,-0.000121,-0.000030,-0.000007,-0.440927,-0.272159,0.034955,0.854571,19.437264,25.742923,-120.933565
10157,-4.295441,2.827363,8.379751,-0.089148,0.086685,0.018364,-0.025376,-0.009168,-0.001887,-0.042958,0.028285,0.083792,1.000000,-0.000127,-0.000046,-0.000009,-0.440950,-0.272077,0.034850,0.854589,19.420813,25.740360,-120.936406
10158,-4.295133,2.848244,8.388944,-0.076162,0.071355,0.032319,-0.026021,-0.007652,0.002265,-0.042955,0.028493,0.083884,1.000000,-0.000130,-0.000038,0.000011,-0.440993,-0.271995,0.034754,0.854597,19.405810,25.736914,-120.936487
10159,-4.310076,2.879181,8.369097,-0.034183,0.067016,0.031222,-0.026133,-0.014285,0.002159,-0.043107,0.028802,0.083684,1.000000,-0.000131,-0.000071,0.000011,-0.441029,-0.271888,0.034664,0.854616,19.389524,25.730815,-120.938558
10160,-4.308887,2.900152,8.378736,-0.021197,0.051685,0.045177,-0.025211,-0.022102,0.002379,-0.043098,0.029012,0.083779,1.000000,-0.000126,-0.000111,0.000012,-0.441069,-0.271745,0.034603,0.854643,19.373692,25.719537,-120.941618
10161,-4.307522,2.946762,8.315810,0.046813,0.033878,0.005026,-0.025978,-0.024989,-0.000084,-0.043086,0.029478,0.083149,1.000000,-0.000130,-0.000125,-0.000000,-0.441094,-0.271594,0.034535,0.854681,19.355931,25.708068,-120.947221
10162,-4.266027,2.885533,8.338107,-0.024439,0.034971,-0.012305,-0.044518,-0.023220,-0.001810,-0.042670,0.028874,0.083370,1.000000,-0.000223,-0.000116,-0.000009,-0.441142,-0.271405,0.034388,0.854723,19.327850,25.696979,-120.953020
10163,-4.281754,3.056588,8.287239,0.138006,-0.047498,0.002260,-0.023330,-0.035523,0.002830,-0.042833,0.030575,0.082861,1.000000,-0.000117,-0.000178,0.000014,-0.441176,-0.271213,0.034357,0.854767,19.311404,25.679249,-120.958789
10164,-4.291458,2.828276,8.340600,-0.047852,0.089443,-0.016205,-0.044710,-0.014718,0.000382,-0.042921,0.028301,0.083397,1.000000,-0.000224,-0.000074,0.000002,-0.441235,-0.271059,0.034194,0.854792,19.284563,25.672339,-120.961476
10165,-4.304938,2.810247,8.385932,-0.073986,0.102567,0.022852,-0.011984,-0.026778,0.002284,-0.043061,0.028107,0.083852,1.000000,-0.000060,-0.000134,0.000011,-0.441253,-0.270930,0.034192,0.854823,19.275291,25.659432,-120.965685
10166,-4.257185,2.827764,8.409967,-0.092960,0.051421,0.027848,-0.017680,-0.012705,0.004924,-0.042578,0.028284,0.084094,1.000000,-0.000088,-0.000064,0.000025,-0.441295,-0.270844,0.034145,0.854831,19.265303,25.652750,-120.965221
10167,-4.225509,2.832821,8.396092,-0.096022,0.026444,0.003841,-0.002126,-0.004287,0.005777,-0.042258,0.028328,0.083960,1.000000,-0.000011,-0.000021,0.000029,-0.441321,-0.270832,0.034140,0.854822,19.264614,25.651332,-120.962410
10168,-4.265356,2.891032,8.375848,-0.024974,0.025023,0.021178,-0.003252,0.014261,0.001274,-0.042648,0.028911,0.083761,1.000000,-0.000016,0.000071,0.000006,-0.441332,-0.270894,0.034091,0.854798,19.264393,25.659925,-120.958480
10169,-4.342926,2.820615,8.350528,-0.029414,0.130638,0.012294,-0.003744,0.024614,0.005581,-0.043420,0.028207,0.083510,1.000000,-0.000019,0.000123,0.000028,-0.441361,-0.271002,0.034015,0.854752,19.265352,25.674204,-120.950139
10170,-4.321257,2.818689,8.356957,-0.045495,0.112568,0.007815,0.003487,0.016314,0.007859,-0.043207,0.028184,0.083574,1.000000,0.000017,0.000082,0.000039,-0.441391,-0.271086,0.034000,0.854710,19.270893,25.682662,-120.941825
10171,-4.314769,2.850348,8.342641,-0.019491,0.090331,0.002242,0.004798,0.008820,0.012553,-0.043146,0.028499,0.083429,1.000000,0.000024,0.000044,0.000063,-0.441434,-0.271144,0.034006,0.854670,19.277140,25.687049,-120.932778
10172,-4.284830,2.903041,8.344046,0.003619,0.035191,0.006134,0.008502,0.001541,0.009336,-0.042849,0.029025,0.083442,1.000000,0.000043,0.000008,0.000047,-0.441462,-0.271176,0.034046,0.854644,19.284597,25.687237,-120.926676
10173,-4.300776,2.936886,8.322792,0.045605,0.030864,0.005042,-0.000517,0.005907,0.010772,-0.043007,0.029367,0.083229,1.000000,-0.000003,0.000030,0.000054,-0.441506,-0.271210,0.034032,0.854610,19.287068,25.690357,-120.919008
10174,-4.315775,2.898411,8.358126,0.006382,0.059327,0.030148,-0.002016,0.002347,0.005889,-0.043158,0.028984,0.083581,1.000000,-0.000010,0.000012,0.000029,-0.441533,-0.271223,0.034021,0.854593,19.287676,25.691633,-120.914806
10175,-4.315170,2.875637,8.350006,-0.006804,0.074155,0.016200,0.001045,-0.003423,0.006829,-0.043154,0.028754,0.083499,1.000000,0.000005,-0.000017,0.000034,-0.441557,-0.271222,0.034030,0.854581,19.289154,25.690502,-120.911490
10176,-4.336986,2.829221,8.407612,-0.059047,0.109342,0.060834,-0.003276,-0.009732,0.005338,-0.043375,0.028292,0.084074,1.000000,-0.000016,-0.000049,0.000027,-0.441582,-0.271180,0.034039,0.854581,19.287797,25.685349,-120.910155
10177,-4.318921,2.704855,8.396049,-0.153576,0.173687,0.006132,0.015757,-0.002316,0.005150,-0.043191,0.027041,0.083962,1.000000,0.000079,-0.000012,0.000026,-0.441574,-0.271216,0.034107,0.854571,19.297395,25.685118,-120.908194
10178,-4.227384,2.817210,8.384313,-0.110213,0.038940,-0.010112,0.061502,-0.008350,0.002700,-0.042278,0.028146,0.083850,1.000000,0.000308,-0.000042,0.000014,-0.441499,-0.271324,0.034387,0.854564,19.332591,25.681212,-120.908154
10179,-4.354834,3.105271,8.384443,0.155545,-0.034323,0.131195,0.073973,0.001397,0.009051,-0.043549,0.031020,0.083856,1.000000,0.000370,0.000007,0.000045,-0.441435,-0.271503,0.034699,0.854527,19.376857,25.682222,-120.902427
10180,-4.305111,2.899390,8.323922,0.005715,0.066265,-0.003319,0.052688,0.004852,0.010789,-0.043051,0.028970,0.083248,1.000000,0.000263,0.000024,0.000054,-0.441409,-0.271646,0.034922,0.854486,19.410311,25.683912,-120.894755
10181,-4.335631,2.922177,8.345020,0.021662,0.075385,0.034648,0.061223,-0.010931,0.017754,-0.043363,0.029192,0.083457,1.000000,0.000306,-0.000055,0.000089,-0.441396,-0.271744,0.035220,0.854450,19.448431,25.676584,-120.886596
10182,-4.289563,3.040495,8.318157,0.096983,-0.023549,0.027370,0.039900,-0.009688,0.019473,-0.042903,0.030384,0.083186,1.000000,0.000199,-0.000048,0.000097,-0.441422,-0.271795,0.035433,0.854411,19.475477,25.668753,-120.876797
10183,-4.362587,2.858457,8.252821,0.027115,0.157953,-0.051216,0.021020,-0.008261,0.019831,-0.043632,0.028572,0.082529,1.000000,0.000105,-0.000041,0.000099,-0.441468,-0.271814,0.035557,0.854376,19.491373,25.662473,-120.867430
10184,-4.277721,2.959461,8.344267,0.015506,0.017018,0.020093,0.017427,-0.013893,0.020772,-0.042786,0.029583,0.083442,1.000000,0.000087,-0.000069,0.000104,-0.441529,-0.271798,0.035685,0.854344,19.505490,25.652117,-120.857752
10185,-4.268732,3.015089,8.338990,0.054594,-0.020390,0.028461,0.004009,-0.020256,0.020673,-0.042699,0.030145,0.083386,1.000000,0.000020,-0.000101,0.000103,-0.441602,-0.271728,0.035763,0.854326,19.510740,25.639200,-120.850157
10186,-4.236951,3.113125,8.357823,0.103875,-0.105882,0.060231,-0.013930,-0.022209,0.014796,-0.042381,0.031134,0.083571,1.000000,-0.000070,-0.000111,0.000074,-0.441679,-0.271608,0.035768,0.854324,19.504573,25.625495,-120.845827
10187,-4.211756,3.110100,8.366438,0.087795,-0.124121,0.055736,-0.017379,-0.016773,0.009375,-0.042126,0.031106,0.083658,1.000000,-0.000087,-0.000084,0.000047,-0.441736,-0.271508,0.035731,0.854328,19.494961,25.616617,-120.843877
10188,-4.172968,3.165129,8.428343,0.081971,-0.198903,0.108118,-0.031227,-0.003902,0.000636,-0.041731,0.031664,0.084278,1.000000,-0.000156,-0.000020,0.000003,-0.441779,-0.271431,0.035602,0.854336,19.476896,25.615508,-120.844144
10189,-4.285742,2.917327,8.384642,-0.024129,0.044307,0.045206,-0.041766,0.014243,-0.000454,-0.042851,0.029191,0.083843,1.000000,-0.000209,0.000071,-0.000002,-0.441834,-0.271411,0.035378,0.854323,19.453627,25.625248,-120.841329
10190,-4.324149,2.808640,8.389060,-0.086633,0.136193,0.032971,-0.033705,0.015481,-0.002162,-0.043235,0.028101,0.083889,1.000000,-0.000169,0.000077,-0.000011,-0.441872,-0.271412,0.035192,0.854311,19.435190,25.635145,-120.839171
10191,-4.315564,2.649993,8.391558,-0.207260,0.222471,-0.016139,-0.030137,0.016676,0.003356,-0.043149,0.026512,0.083915,1.000000,-0.000151,0.000083,0.000017,-0.441925,-0.271427,0.035019,0.854285,19.419820,25.645413,-120.833821
10192,-4.318365,2.789630,8.359251,-0.086897,0.144169,-0.000498,-0.001932,0.006776,0.005957,-0.043182,0.027896,0.083594,1.000000,-0.000010,0.000034,0.000030,-0.441954,-0.271459,0.034999,0.854261,19.420897,25.649060,-120.828640
10193,-4.318759,2.766353,8.350842,-0.100080,0.159007,-0.014439,-0.013949,0.016901,0.012994,-0.043182,0.027667,0.083510,1.000000,-0.000070,0.000085,0.000065,-0.442032,-0.271510,0.034905,0.854208,19.417232,25.657704,-120.816709
10194,-4.320240,2.835955,8.374767,-0.060928,0.113309,0.027398,0.010400,0.005439,0.018668,-0.043203,0.028351,0.083750,1.000000,0.000052,0.000027,0.000093,-0.442098,-0.271561,0.034958,0.854156,19.428552,25.658207,-120.804190
10195,-4.245645,3.002119,8.350123,0.037620,-0.040773,0.023963,0.001847,0.016795,0.018156,-0.042452,0.030017,0.083505,1.000000,0.000009,0.000084,0.000091,-0.442179,-0.271646,0.034938,0.854088,19.435250,25.665794,-120.788880
10196,-4.299845,2.930249,8.332196,0.017197,0.047123,0.010652,-0.006145,0.022214,0.013420,-0.042991,0.029302,0.083326,1.000000,-0.000031,0.000111,0.000067,-0.442248,-0.271733,0.034875,0.854027,19.437269,25.676358,-120.775958
10197,-4.269458,2.887191,8.381841,-0.053982,0.039601,0.026770,-0.003603,0.009481,0.009777,-0.042692,0.028871,0.083820,1.000000,-0.000018,0.000047,0.000049,-0.442292,-0.271775,0.034840,0.853992,19.438081,25.681516,-120.768215
10198,-4.316592,2.940420,8.302374,0.046000,0.057827,-0.004375,-0.005829,0.003011,0.008983,-0.043166,0.029405,0.083024,1.000000,-0.000029,0.000015,0.000045,-0.442338,-0.271782,0.034815,0.853967,19.437369,25.682550,-120.762014
10199,-4.324438,2.955658,8.332384,0.045960,0.049035,0.029100,-0.002394,-0.000202,0.007903,-0.043246,0.029556,0.083323,1.000000,-0.000012,-0.000001,0.000040,-0.442365,-0.271786,0.034806,0.853952,19.437515,25.682872,-120.758191
10200,-4.271362,3.027754,8.349666,0.066180,-0.039190,0.042404,-0.009353,0.004031,0.003493,-0.042712,0.030281,0.083496,1.000000,-0.000047,0.000020,0.000017,-0.442392,-0.271790,0.034757,0.853939,19.433451,25.685505,-120.755066
10201,-4.364178,3.036135,8.320562,0.129987,0.032095,0.060407,-0.010466,0.000796,0.003096,-0.043642,0.030365,0.083204,1.000000,-0.000052,0.000004,0.000015,-0.442415,-0.271781,0.034703,0.853932,19.427799,25.687287,-120.753319
10202,-4.302040,2.997396,8.356609,0.055848,0.000113,0.052490,-0.020891,0.003804,0.006226,-0.043020,0.029981,0.083564,1.000000,-0.000104,0.000019,0.000031,-0.442469,-0.271758,0.034608,0.853915,19.417815,25.689277,-120.748604
10203,-4.339316,2.890311,8.360972,-0.006655,0.091832,0.040278,-0.025479,0.001573,0.006869,-0.043393,0.028912,0.083606,1.000000,-0.000127,0.000008,0.000034,-0.442535,-0.271719,0.034491,0.853898,19.404589,25.690769,-120.743507
10204,-4.246944,2.951813,8.334404,0.010555,-0.012539,-0.003928,-0.008868,-0.008558,0.005693,-0.042474,0.029521,0.083341,1.000000,-0.000044,-0.000043,0.000028,-0.442569,-0.271670,0.034474,0.853897,19.400222,25.686181,-120.741723
10205,-4.284319,2.890921,8.355224,-0.025785,0.048819,0.011748,-0.033201,0.000694,0.006495,-0.042844,0.028922,0.083548,1.000000,-0.000166,0.000003,0.000032,-0.442639,-0.271610,0.034327,0.853885,19.382421,25.687276,-120.737709
10206,-4.359362,2.795812,8.323674,-0.043316,0.169803,-0.010982,-0.020662,-0.019817,0.001701,-0.043602,0.027966,0.083230,1.000000,-0.000103,-0.000099,0.000009,-0.442669,-0.271488,0.034280,0.853910,19.369231,25.677362,-120.740692
10207,-4.297423,2.919946,8.337061,0.016096,0.044331,0.010667,-0.031169,-0.021228,0.004750,-0.042984,0.029211,0.083361,1.000000,-0.000156,-0.000106,0.000024,-0.442725,-0.271339,0.034188,0.853933,19.350121,25.666974,-120.742419
10208,-4.439430,2.687591,8.397093,-0.115943,0.284203,0.053855,-0.037387,-0.018544,0.009247,-0.044403,0.026890,0.083962,1.000000,-0.000187,-0.000093,0.000046,-0.442810,-0.271184,0.034077,0.853942,19.329428,25.656315,-120.740600
10209,-4.322780,2.816760,8.403053,-0.075453,0.116222,0.046961,0.017423,-0.031289,0.018391,-0.043244,0.028156,0.084026,1.000000,0.000087,-0.000156,0.000092,-0.442858,-0.271098,0.034232,0.853939,19.340793,25.637837,-120.736018
10210,-4.353603,3.024356,8.410318,0.087111,0.016984,0.128447,0.040798,-0.017598,0.019684,-0.043546,0.030222,0.084106,1.000000,0.000204,-0.000088,0.000098,-0.442883,-0.271117,0.034467,0.853910,19.367688,25.625707,-120.727746
10211,-4.267320,3.038044,8.387528,0.065139,-0.050470,0.075870,0.053753,-0.000896,0.024096,-0.042677,0.030353,0.083883,1.000000,0.000269,-0.000004,0.000120,-0.442910,-0.271240,0.034718,0.853847,19.404116,25.622566,-120.713429
10212,-4.206459,3.195168,8.324869,0.179607,-0.177990,0.043422,0.046763,-0.001093,0.026133,-0.042069,0.031927,0.083256,1.000000,0.000234,-0.000005,0.000131,-0.442957,-0.271343,0.034951,0.853780,19.437599,25.618118,-120.697821
10213,-4.105810,3.171108,8.403882,0.073586,-0.254412,0.059936,0.005682,0.016134,0.015048,-0.041054,0.031706,0.084043,1.000000,0.000028,0.000081,0.000075,-0.443019,-0.271433,0.034946,0.853720,19.445708,25.625853,-120.684669
10214,-4.251514,2.920499,8.372662,-0.029574,0.013603,0.021187,-0.031837,0.036779,0.002988,-0.042500,0.029218,0.083730,1.000000,-0.000159,0.000184,0.000015,-0.443080,-0.271527,0.034727,0.853667,19.431625,25.646275,-120.674921
10215,-4.276237,2.826255,8.413033,-0.108005,0.078956,0.037955,-0.013130,0.026476,0.002485,-0.042752,0.028268,0.084134,1.000000,-0.000066,0.000132,0.000012,-0.443108,-0.271622,0.034604,0.853627,19.426699,25.661988,-120.668063
10216,-4.232982,2.867058,8.442870,-0.113890,0.012616,0.056815,-0.002495,0.034516,-0.000466,-0.042315,0.028672,0.084436,1.000000,-0.000012,0.000173,-0.000002,-0.443114,-0.271772,0.034511,0.853580,19.428329,25.681848,-120.660866
10217,-4.213818,2.888848,8.456102,-0.116886,-0.020779,0.066244,0.025952,0.055183,0.004711,-0.042116,0.028877,0.084576,1.000000,0.000130,0.000276,0.000024,-0.443097,-0.272076,0.034497,0.853493,19.449046,25.712613,-120.647458
10218,-4.358099,2.832990,8.545023,-0.144335,0.106075,0.187522,0.080778,0.083791,0.005557,-0.043546,0.028294,0.085480,1.000000,0.000404,0.000419,0.000028,-0.443024,-0.272619,0.034659,0.853350,19.504510,25.757934,-120.626177
10219,-4.402343,2.718653,8.452295,-0.177949,0.225963,0.093383,0.173623,0.098759,0.022981,-0.043985,0.027108,0.084568,0.999999,0.000868,0.000494,0.000115,-0.442899,-0.273433,0.035200,0.853133,19.618612,25.808760,-120.591499
10220,-4.380868,2.978735,8.346435,0.033773,0.075291,0.072704,0.251357,0.092824,0.041616,-0.043776,0.029673,0.083522,0.999999,0.001257,0.000464,0.000208,-0.442747,-0.274386,0.036118,0.852867,19.782196,25.851913,-120.546455
10221,-4.321271,3.276198,8.290600,0.226690,-0.135009,0.090404,0.247098,0.119134,0.063890,-0.043174,0.032646,0.082972,0.999999,0.001235,0.000596,0.000319,-0.442700,-0.275440,0.036983,0.852515,19.951207,25.905541,-120.482319
10222,-4.162996,3.523446,8.305589,0.300591,-0.406075,0.110653,0.231059,0.155973,0.071435,-0.041578,0.035124,0.083129,0.999999,0.001155,0.000780,0.000357,-0.442713,-0.276611,0.037716,0.852097,20.117217,25.976596,-120.405321
10223,-4.090390,3.855047,8.591754,0.335784,-0.716572,0.423747,0.200807,0.253044,0.072144,-0.040809,0.038449,0.086008,0.999999,0.001004,0.001265,0.000361,-0.442788,-0.278131,0.038100,0.851546,20.275251,26.100167,-120.306312
10224,-4.571119,3.642027,8.788424,0.259340,-0.261073,0.735312,0.203589,0.399257,0.113444,-0.045556,0.036305,0.088012,0.999997,0.001018,0.001996,0.000567,-0.443061,-0.280267,0.038235,0.850697,20.461079,26.293116,-120.149469
10225,-5.237825,3.419449,8.574641,0.452429,0.419803,0.783098,0.374078,0.426520,0.195984,-0.052229,0.033983,0.085922,0.999995,0.001870,0.002133,0.000980,-0.443436,-0.282883,0.039149,0.849594,20.769922,26.484171,-119.937572
10226,-4.969007,3.833642,8.770152,0.467027,-0.071294,0.961345,0.541096,0.348522,0.225449,-0.049580,0.038043,0.087891,0.999994,0.002705,0.001743,0.001127,-0.443693,-0.285525,0.040988,0.848488,21.175986,26.625511,-119.722616
10227,-4.541862,3.244486,8.968959,-0.318587,-0.082193,0.746144,0.297223,0.397504,0.191145,-0.045271,0.032268,0.089828,0.999996,0.001486,0.001988,0.000956,-0.444145,-0.287842,0.041634,0.847437,21.439059,26.799692,-119.517163
10228,-4.266168,3.406258,8.331337,-0.041035,-0.278090,0.143954,0.440385,0.303312,0.094968,-0.042551,0.033859,0.083453,0.999996,0.002202,0.001517,0.000475,-0.443974,-0.290092,0.042957,0.846692,21.749468,26.942368,-119.388518
10229,-3.450657,5.725533,8.423640,1.179742,-2.320693,0.621330,0.591589,0.191749,-0.048110,-0.034412,0.057014,0.084438,0.999995,0.002958,0.000959,-0.000241,-0.442953,-0.292237,0.044955,0.846386,22.096006,27.056260,-119.370568
10230,-2.481792,6.690409,8.615479,1.304262,-3.707374,0.661155,0.075080,0.411836,-0.222571,-0.024566,0.066899,0.086231,0.999997,0.000375,0.002059,-0.001113,-0.441991,-0.294204,0.044030,0.846256,22.124006,27.323982,-119.403306
10231,-2.425577,5.863264,9.080676,0.414558,-3.395845,0.723716,-0.290692,0.575158,-0.354788,-0.023890,0.058807,0.090790,0.999993,-0.001453,0.002876,-0.001774,-0.441029,-0.296082,0.041004,0.846255,21.923816,27.707199,-119.477617
10232,-1.479390,3.489458,8.861435,-1.596122,-2.707096,-0.701502,-0.304211,0.502953,-0.150279,-0.014545,0.035040,0.088598,0.999995,-0.001521,0.002515,-0.000751,-0.440943,-0.297576,0.038380,0.845899,21.763996,28.007830,-119.446503
10233,-1.382831,8.324581,9.448729,1.487250,-5.838886,1.331073,1.034417,-0.031404,0.123873,-0.013895,0.082747,0.094914,0.999986,0.005172,-0.000157,0.000619,-0.439914,-0.299705,0.043004,0.845460,22.388243,27.965642,-119.379491
10234,1.828956,11.236930,9.938564,1.830161,-10.122520,1.258574,0.683715,-0.098390,0.324390,0.018059,0.112058,0.099778,0.999993,0.003419,-0.000492,0.001622,-0.440235,-0.300729,0.046591,0.844739,22.859412,27.843219,-119.209647
10235,2.778927,8.618213,9.160922,-0.047694,-9.088276,-0.684739,-0.073722,0.240599,0.421944,0.027717,0.086274,0.091544,0.999997,-0.000369,0.001203,0.002110,-0.442185,-0.301491,0.046387,0.843460,22.964173,27.876524,-118.896355
10236,3.043544,6.735363,9.562183,-1.718640,-8.219792,-1.121032,0.195817,0.105161,0.507576,0.030315,0.067337,0.095672,0.999996,0.000979,0.000526,0.002538,-0.444052,-0.302257,0.047740,0.842128,23.230246,27.818968,-118.566817
10237,3.808568,6.858604,10.206504,-2.309192,-8.983899,-0.886580,0.300080,-0.008126,0.540153,0.037896,0.068535,0.102169,0.999995,0.001500,-0.000041,0.002701,-0.445873,-0.302760,0.049848,0.840862,23.552066,27.691287,-118.247026
10238,3.882114,6.174914,10.108448,-2.775502,-8.585636,-1.212431,0.194693,-0.061831,0.502292,0.038635,0.061748,0.101157,0.999996,0.000973,-0.000309,0.002511,-0.447672,-0.302816,0.051559,0.839782,23.794141,27.544393,-117.965338
10239,3.512802,5.362554,10.099466,-3.197858,-7.783979,-1.310969,0.226461,-0.112471,0.472318,0.034945,0.053594,0.101075,0.999996,0.001132,-0.000562,0.002362,-0.449289,-0.302723,0.053493,0.838830,24.040475,27.374149,-117.714969
10240,2.707079,5.357405,10.165930,-2.911250,-7.122043,-0.858524,0.362048,-0.208673,0.460202,0.026842,0.053452,0.101784,0.999995,0.001810,-0.001043,0.002301,-0.450612,-0.302545,0.056172,0.838009,24.346692,27.158132,-117.499228
10241,1.818509,5.427172,10.208684,-2.534527,-6.418252,-0.359633,0.397459,-0.272313,0.442326,0.017926,0.054109,0.102219,0.999995,0.001987,-0.001362,0.002212,-0.451795,-0.302163,0.059141,0.837306,24.660729,26.908471,-117.311919
10242,0.530255,4.942739,10.315200,-2.436405,-5.072329,0.159781,0.454822,-0.339449,0.411942,0.005026,0.049203,0.103273,0.999994,0.002274,-0.001697,0.002060,-0.452729,-0.301654,0.062428,0.836746,24.988277,26.633959,-117.163147
10243,-0.321429,5.011846,9.930369,-1.849737,-4.294879,0.285129,0.581438,-0.491678,0.378419,-0.003553,0.049823,0.099440,0.999991,0.002907,-0.002458,0.001892,-0.453290,-0.300777,0.066569,0.836439,25.361108,26.283475,-117.076742
10244,-0.115377,5.073538,8.932974,-1.357572,-4.254484,-0.560236,0.596434,-0.515892,0.318900,-0.001465,0.050467,0.089477,0.999991,0.002982,-0.002579,0.001594,-0.453550,-0.299870,0.070706,0.836284,25.721257,25.939093,-117.034763
10245,-0.367762,4.990735,8.106501,-0.876404,-3.808140,-1.124327,0.579806,-0.411673,0.265249,-0.003911,0.049667,0.081201,0.999993,0.002899,-0.002058,0.001326,-0.453654,-0.299349,0.074489,0.836086,26.071461,25.656724,-116.996234
10246,-0.495051,5.534814,7.543742,-0.151076,-3.881860,-1.286536,0.617890,-0.265977,0.249206,-0.005120,0.055108,0.075601,0.999994,0.003089,-0.001330,0.001246,-0.453668,-0.299552,0.078042,0.835681,26.454553,25.457974,-116.928724
10247,-1.004697,6.285587,8.111046,0.223395,-3.935092,-0.285263,0.618526,-0.071253,0.332057,-0.010180,0.062588,0.081301,0.999994,0.003093,-0.000356,0.001660,-0.454114,-0.300505,0.081315,0.834785,26.882800,25.331896,-116.759643
10248,-2.379345,6.872516,9.150421,0.543608,-3.248533,1.402201,0.681382,0.004095,0.548164,-0.023979,0.068347,0.091738,0.999990,0.003407,0.000020,0.002741,-0.455375,-0.301852,0.084968,0.833247,27.405680,25.191781,-116.449081
10249,-4.383148,7.646214,10.763476,0.891297,-2.189256,3.896437,0.682683,-0.081160,0.841148,-0.044195,0.075909,0.107877,0.999985,0.003413,-0.000406,0.004206,-0.457823,-0.302684,0.089298,0.831147,27.988248,24.922067,-116.000637
10250,-5.958933,7.895108,11.318320,1.306657,-0.973719,5.130132,0.515759,-0.368996,1.086208,-0.060225,0.078333,0.113275,0.999980,0.002579,-0.001845,0.005431,-0.461383,-0.301848,0.093922,0.828971,28.489857,24.442423,-115.506959
10251,-5.431468,6.352383,10.180671,0.651217,-0.236016,3.340921,0.254190,-0.626783,1.249879,-0.055029,0.063052,0.101715,0.999975,0.001271,-0.003134,0.006249,-0.465890,-0.299221,0.098340,0.826888,28.841726,23.779163,-115.006013
10252,-4.732070,4.699587,8.440002,0.229837,0.447394,0.932428,0.146556,-0.712113,1.301423,-0.047925,0.046624,0.084264,0.999972,0.000733,-0.003561,0.006507,-0.470687,-0.295978,0.102543,0.824824,29.122703,23.062020,-114.510242
10253,-5.166844,4.355765,8.344220,0.209518,1.150299,0.860933,0.171460,-0.653459,1.345776,-0.052232,0.043136,0.083309,0.999972,0.000857,-0.003267,0.006729,-0.475651,-0.292966,0.106811,0.822507,29.427787,22.353802,-113.978413
10254,-6.751772,4.008560,9.338513,-0.035466,2.725803,2.079703,0.207795,-0.679323,1.491599,-0.068130,0.039482,0.093196,0.999966,0.001039,-0.003397,0.007458,-0.481102,-0.289868,0.111456,0.819814,29.769208,21.594320,-113.384025
10255,-7.386305,2.905321,9.377638,-0.643837,4.010214,1.782084,0.263566,-0.895656,1.613972,-0.074513,0.028330,0.093481,0.999957,0.001318,-0.004478,0.008070,-0.486830,-0.285898,0.117057,0.817041,30.132708,20.683656,-112.798612
10256,-6.573314,2.241610,8.215790,-0.763747,3.922709,0.175236,0.291854,-1.068543,1.545826,-0.066341,0.021785,0.081837,0.999955,0.001459,-0.005343,0.007729,-0.492080,-0.281334,0.123049,0.814597,30.467690,19.709265,-112.312550
10257,-7.119704,1.301964,7.325872,-0.752061,5.079114,-0.885842,0.232287,-0.999633,1.347998,-0.071647,0.012453,0.072916,0.999964,0.001161,-0.004998,0.006740,-0.496624,-0.276975,0.128372,0.812508,30.732560,18.819214,-111.916299
10258,-8.164699,1.475335,7.136499,-0.158290,6.068788,-0.707153,0.424806,-1.057099,1.158428,-0.082106,0.014128,0.070962,0.999967,0.002124,-0.005285,0.005792,-0.500047,-0.272991,0.134317,0.810795,31.061978,17.959731,-111.643462
10259,-7.960079,2.094246,6.620950,0.514714,5.770692,-0.979927,0.497471,-1.092101,0.976930,-0.080061,0.020388,0.065824,0.999970,0.002487,-0.005460,0.004885,-0.502592,-0.269126,0.140415,0.809479,31.396711,17.131191,-111.480994
10260,-7.840042,1.607446,6.013512,0.461187,6.034651,-1.838906,0.494894,-1.012720,0.775689,-0.078765,0.015621,0.059776,0.999977,0.002474,-0.005064,0.003878,-0.504342,-0.265728,0.145998,0.808525,31.702968,16.405227,-111.402114
10261,-8.819809,1.635499,6.839979,0.346340,6.980801,-0.958533,0.635855,-0.931777,0.592505,-0.088563,0.015876,0.068039,0.999980,0.003179,-0.004659,0.002963,-0.505212,-0.263113,0.151718,0.807783,32.069786,15.770024,-111.394974
10262,-10.571198,2.307790,7.863752,0.869420,8.351901,0.598948,0.672814,-1.070656,0.474816,-0.106185,0.022563,0.078146,0.999977,0.003364,-0.005353,0.002374,-0.505421,-0.260130,0.157756,0.807462,32.428480,15.107106,-111.495445
10263,-9.201089,1.799640,6.578023,0.784206,7.476238,-1.172198,0.566941,-1.242662,0.352758,-0.092449,0.017648,0.065257,0.999975,0.002835,-0.006213,0.001764,-0.505123,-0.256253,0.163650,0.807716,32.697683,14.396578,-111.715012
10264,-7.395405,0.646251,4.652568,0.446558,6.427973,-3.876608,0.391669,-1.043902,0.208869,-0.074202,0.006294,0.046151,0.999984,0.001958,-0.005219,0.001044,-0.504602,-0.252859,0.168127,0.808191,32.866014,13.829978,-111.944761
10265,-7.415843,0.862228,4.412224,0.780132,6.397032,-4.009677,0.382194,-0.699667,0.096038,-0.074316,0.008503,0.043879,0.999992,0.001911,-0.003498,0.000480,-0.503920,-0.250909,0.171561,0.808502,33.043444,13.462797,-112.121159
10266,-8.236250,2.086955,5.077744,1.603305,6.654983,-2.663201,0.270058,-0.401023,0.090935,-0.082474,0.020764,0.050640,0.999997,0.001350,-0.002005,0.000455,-0.503604,-0.249897,0.173771,0.808541,33.178784,13.242927,-112.204875
10267,-7.858847,2.725043,4.934298,2.017028,6.057245,-2.547980,0.025362,-0.165219,0.152311,-0.078650,0.027184,0.049281,0.999999,0.000127,-0.000826,0.000762,-0.504047,-0.249161,0.174480,0.808339,33.198303,13.115839,-112.182641
10268,-6.841311,2.053683,4.418724,1.449559,5.420868,-3.562948,-0.224559,0.159491,0.206981,-0.068399,0.020516,0.044219,0.999999,-0.001123,0.000797,0.001035,-0.505302,-0.249066,0.173422,0.807812,33.104475,13.128543,-112.028946
10269,-6.517777,1.575905,4.518618,0.910758,5.328394,-3.799247,-0.356539,0.476760,0.230281,-0.065088,0.015765,0.045313,0.999995,-0.001783,0.002384,0.001151,-0.507089,-0.249895,0.171059,0.806940,32.961047,13.286238,-111.761957
10270,-6.287373,1.305036,4.980405,0.339155,5.220476,-3.594169,-0.469606,0.737181,0.179807,-0.062701,0.013111,0.050005,0.999990,-0.002348,0.003686,0.000899,-0.509026,-0.251530,0.167512,0.805956,32.767453,13.586161,-111.436910
10271,-6.198939,0.992899,5.471273,-0.233819,5.234618,-3.340352,-0.525219,0.942904,0.086679,-0.061735,0.010046,0.054978,0.999985,-0.002626,0.004714,0.000433,-0.510818,-0.253924,0.163094,0.804977,32.548193,14.015410,-111.093300
10272,-6.454795,-0.084158,4.999402,-0.705264,5.865744,-4.177045,-0.394274,1.052436,-0.059166,-0.064284,-0.000724,0.050334,0.999984,-0.001971,0.005262,-0.000296,-0.511931,-0.257205,0.158736,0.804099,32.397456,14.543385,-110.788318
10273,-5.186256,1.334865,5.681470,-0.525366,4.050447,-3.158701,0.116011,1.007795,-0.244612,-0.051559,0.013379,0.057083,0.999986,0.000580,0.005039,-0.001223,-0.511590,-0.261755,0.156293,0.803326,32.514156,15.107626,-110.589829
10274,-4.991851,3.380565,7.264838,-0.050621,2.907010,-0.831007,0.355970,0.888419,-0.502884,-0.049510,0.033801,0.072929,0.999985,0.001780,0.004442,-0.002514,-0.509791,-0.266631,0.154784,0.803158,32.726906,15.692734,-110.556500
10275,-2.428912,4.650693,6.970419,0.120426,-0.010079,-1.089160,0.776822,0.533904,-0.816994,-0.023913,0.046334,0.069949,0.999981,0.003884,0.002670,-0.004085,-0.505875,-0.271393,0.155435,0.803913,33.106549,16.206051,-110.792069
10276,-0.037489,8.141998,8.235370,0.979750,-3.788391,1.086873,1.079881,0.434140,-1.097953,0.000250,0.080974,0.082792,0.999968,0.005399,0.002171,-0.005490,-0.500318,-0.276722,0.157176,0.805234,33.610345,16.760776,-111.196940
10277,-0.256549,11.013023,10.253508,1.748820,-5.041546,4.258837,0.593332,0.625974,-1.119730,-0.001628,0.109836,0.102867,0.999975,0.002967,0.003130,-0.005599,-0.495466,-0.281611,0.156432,0.806683,33.846987,17.417236,-111.546533
10278,-2.667549,8.852131,9.561850,1.384364,-2.034625,3.258152,-0.083884,0.805301,-0.838047,-0.025919,0.088671,0.095687,0.999983,-0.000419,0.004026,-0.004190,-0.492825,-0.285310,0.152911,0.807676,33.753463,18.068814,-111.695517
10279,-6.073682,7.499702,9.124933,1.857060,1.471739,3.255705,-0.233892,0.909967,-0.691728,-0.060061,0.075312,0.091436,0.999983,-0.001169,0.004550,-0.003459,-0.491051,-0.288943,0.148724,0.808246,33.605755,18.724079,-111.738021
10280,-7.297563,4.328005,9.462580,-0.137126,3.857930,2.295971,-1.405796,0.998986,-0.794423,-0.072328,0.044234,0.094679,0.999955,-0.007029,0.004995,-0.003972,-0.490592,-0.290114,0.139430,0.809761,32.776988,19.453291,-111.809073
10281,-5.811732,1.462670,7.472708,-1.439169,3.898937,-1.182330,-0.622780,0.605960,-0.755412,-0.057834,0.015078,0.074856,0.999983,-0.003114,0.003030,-0.003777,-0.488849,-0.291574,0.134313,0.811154,32.356221,19.980806,-111.997700
10282,-3.920940,6.937028,9.375147,0.674581,-0.635104,2.456389,-0.216036,0.393049,-0.749564,-0.038765,0.069617,0.093753,0.999990,-0.001080,0.001965,-0.003748,-0.486383,-0.293148,0.131376,0.812549,32.143150,20.401490,-112.256228
10283,-3.237643,6.248333,9.021325,0.194495,-0.986077,1.584502,-1.065492,0.638953,-0.699038,-0.031869,0.063075,0.089981,0.999975,-0.005327,0.003195,-0.003495,-0.485509,-0.293617,0.124452,0.813991,31.476766,20.925797,-112.413484
10284,-3.993485,3.504162,8.924186,-1.370284,0.896691,0.443247,-1.226361,0.710602,-0.706206,-0.039493,0.035728,0.089165,0.999969,-0.006132,0.003553,-0.003531,-0.484862,-0.293971,0.116690,0.815398,30.721365,21.484483,-112.559134
10285,-5.252473,3.229553,8.931571,-1.046433,1.980275,0.806776,-1.068488,0.501079,-0.760264,-0.052177,0.032971,0.089272,0.999975,-0.005342,0.002505,-0.003801,-0.483610,-0.293872,0.109985,0.817107,30.016891,21.954465,-112.807230
10286,-5.475109,5.162366,8.629984,0.688789,1.107335,1.562794,-0.741325,0.182826,-0.766309,-0.054473,0.052152,0.086157,0.999985,-0.003707,0.000914,-0.003832,-0.481662,-0.293251,0.105381,0.819085,29.458459,22.264282,-113.162258
10287,-5.821669,7.542544,8.340649,2.787121,0.121047,2.539014,-0.605362,0.002046,-0.634414,-0.057976,0.075862,0.083178,0.999990,-0.003027,0.000010,-0.003172,-0.479944,-0.292146,0.101951,0.820921,28.980894,22.444947,-113.504512
10288,-4.366036,7.199233,6.488195,3.139988,-0.796268,0.311225,-0.774065,0.077669,-0.435216,-0.043478,0.072338,0.064619,0.999990,-0.003870,0.000388,-0.002176,-0.479323,-0.290834,0.097945,0.822236,28.455642,22.604871,-113.717744
10289,-3.961014,6.222755,7.980634,1.490507,-0.876843,0.916309,-0.985870,0.440990,-0.221739,-0.039365,0.062664,0.079585,0.999985,-0.004929,0.002205,-0.001109,-0.480049,-0.290403,0.092498,0.822595,27.893693,22.889877,-113.709572
10290,-4.516776,2.559747,8.884313,-1.436439,1.290616,0.294431,-1.403157,0.612792,-0.135807,-0.044878,0.026251,0.088798,0.999970,-0.007016,0.003064,-0.000679,-0.481797,-0.289618,0.085051,0.822654,27.129489,23.238303,-113.607962
10291,-3.838531,0.485200,8.476948,-2.943345,1.767078,-1.150007,-0.761249,0.362352,-0.148914,-0.038228,0.005203,0.084819,0.999991,-0.003806,0.001812,-0.000745,-0.482432,-0.289350,0.080817,0.822803,26.700894,23.464356,-113.588242
10292,-3.608598,3.158315,8.832181,-1.200064,0.079883,0.165174,-0.287955,0.136504,-0.186523,-0.035996,0.031744,0.088301,0.999998,-0.001440,0.000683,-0.000933,-0.482135,-0.289300,0.079027,0.823168,26.509632,23.583237,-113.653930
10293,-3.690705,3.370869,8.311658,-0.698378,0.075184,-0.139318,-0.501408,0.259563,-0.193875,-0.036766,0.033953,0.083079,0.999996,-0.002507,0.001298,-0.000969,-0.482159,-0.289248,0.076043,0.823453,26.207216,23.768112,-113.690413
10294,-4.508874,3.101354,8.734761,-0.800970,0.787226,0.433425,-0.515476,0.254152,-0.193029,-0.044948,0.031282,0.087324,0.999995,-0.002577,0.001271,-0.000965,-0.482203,-0.289132,0.073022,0.823742,25.896280,23.948600,-113.728813
10295,-4.608723,3.008973,8.481768,-0.666344,0.916658,0.234711,-0.359136,0.129859,-0.182677,-0.046005,0.030284,0.084793,0.999998,-0.001796,0.000649,-0.000913,-0.482012,-0.288880,0.070951,0.824123,25.662401,24.063420,-113.796518
10296,-4.513405,3.925971,8.177741,0.176942,0.378294,0.310803,-0.202588,0.030980,-0.155957,-0.045091,0.039378,0.081745,0.999999,-0.001013,0.000155,-0.000780,-0.481672,-0.288583,0.069810,0.824523,25.513785,24.119117,-113.876097
10297,-4.186530,4.172839,8.198879,0.249489,-0.048168,0.291599,-0.249539,0.070504,-0.119945,-0.041811,0.041856,0.081951,0.999999,-0.001248,0.000353,-0.000600,-0.481558,-0.288327,0.068423,0.824796,25.350152,24.187455,-113.925090
10298,-4.337107,3.891850,8.164440,0.130258,0.210416,0.214964,-0.240392,0.070951,-0.103092,-0.043322,0.039039,0.081613,0.999999,-0.001202,0.000355,-0.000515,-0.481502,-0.288084,0.067106,0.825021,25.196263,24.250531,-113.964328
10299,-4.219796,3.876625,8.113268,0.118478,0.111626,0.118752,-0.174316,0.048339,-0.084886,-0.042162,0.038855,0.081109,1.000000,-0.000872,0.000242,-0.000424,-0.481415,-0.287905,0.066133,0.825213,25.081251,24.298614,-113.999707
10300,-4.214576,3.702604,8.296864,-0.102119,0.154085,0.201087,-0.156611,0.060773,-0.055349,-0.042110,0.037103,0.082952,1.000000,-0.000783,0.000304,-0.000277,-0.481431,-0.287805,0.065255,0.825309,24.985255,24.344680,-114.014775
10301,-4.404735,3.467482,8.328431,-0.218345,0.420022,0.215462,-0.092247,0.039044,-0.027047,-0.044026,0.034719,0.083277,1.000000,-0.000461,0.000195,-0.000135,-0.481460,-0.287767,0.064726,0.825347,24.929727,24.373851,-114.019826
10302,-4.101145,3.447297,8.122399,-0.231780,0.208834,-0.087499,-0.013170,-0.007680,-0.009891,-0.041013,0.034480,0.081220,1.000000,-0.000066,-0.000038,-0.000049,-0.481435,-0.287714,0.064670,0.825384,24.919075,24.373348,-114.027211
10303,-4.075767,3.686443,8.333599,-0.172035,0.023770,0.168318,-0.025001,0.013371,-0.003855,-0.040751,0.036876,0.083334,1.000000,-0.000125,0.000067,-0.000019,-0.481455,-0.287724,0.064513,0.825381,24.904683,24.383586,-114.025873
10304,-4.103463,3.618177,8.224005,-0.153387,0.100114,0.063056,-0.010171,-0.004962,-0.007021,-0.041035,0.036187,0.082237,1.000000,-0.000051,-0.000025,-0.000035,-0.481438,-0.287689,0.064467,0.825407,24.896721,24.383800,-114.030901
10305,-4.136557,3.889725,8.095258,0.135376,0.005732,0.074471,-0.007871,-0.022122,-0.020220,-0.041371,0.038905,0.080946,1.000000,-0.000039,-0.000111,-0.000101,-0.481355,-0.287598,0.064443,0.825489,24.884394,24.379524,-114.048308
10306,-3.744719,4.282923,7.869939,0.409489,-0.488565,-0.122697,0.028419,-0.030004,-0.021487,-0.037454,0.042822,0.078700,1.000000,0.000142,-0.000150,-0.000107,-0.481214,-0.287558,0.064596,0.825573,24.892401,24.370210,-114.068219
10307,-3.720838,4.409559,7.942776,0.458886,-0.591326,-0.024108,-0.066274,0.048570,-0.044523,-0.037179,0.044130,0.079422,1.000000,-0.000331,0.000243,-0.000223,-0.481137,-0.287626,0.064126,0.825631,24.848652,24.408508,-114.080773
10308,-3.887643,3.997538,7.880669,0.248134,-0.234890,-0.164772,-0.123782,0.052993,-0.086960,-0.038838,0.040041,0.078792,1.000000,-0.000619,0.000265,-0.000435,-0.480972,-0.287583,0.063357,0.825801,24.763032,24.458072,-114.116167
10309,-3.994312,4.277420,7.952491,0.471785,-0.321360,0.044649,-0.154982,0.047527,-0.119160,-0.039899,0.042860,0.079501,0.999999,-0.000775,0.000238,-0.000596,-0.480714,-0.287458,0.062416,0.826067,24.650644,24.513631,-114.171783
10310,-4.171682,3.723181,8.070283,0.069554,0.080389,0.004803,-0.245263,0.080696,-0.129240,-0.041660,0.037358,0.080674,0.999999,-0.001226,0.000403,-0.000646,-0.480556,-0.287249,0.061018,0.826335,24.488198,24.587570,-114.224401
10311,-4.387036,2.966746,8.415770,-0.589449,0.577649,0.096483,-0.262593,0.063300,-0.138459,-0.043823,0.029808,0.084133,0.999999,-0.001313,0.000316,-0.000692,-0.480376,-0.286935,0.059567,0.826655,24.311010,24.655644,-114.287353
10312,-4.671209,2.452387,8.497767,-0.898789,1.053727,0.093282,-0.190283,0.008542,-0.123140,-0.046693,0.024633,0.084956,0.999999,-0.000951,0.000043,-0.000616,-0.480141,-0.286558,0.058578,0.826993,24.173414,24.690177,-114.355658
10313,-4.284256,2.577101,8.370150,-0.868513,0.682337,-0.125799,-0.024536,-0.070622,-0.105216,-0.042859,0.025804,0.083683,1.000000,-0.000123,-0.000353,-0.000526,-0.479716,-0.286251,0.058480,0.827353,24.125852,24.680227,-114.434435
10314,-3.991393,3.226533,8.347714,-0.467790,0.099567,-0.025077,0.043464,-0.081246,-0.086154,-0.039934,0.032264,0.083468,1.000000,0.000217,-0.000406,-0.000431,-0.479273,-0.286052,0.058725,0.827661,24.121381,24.659019,-114.504672
10315,-3.659704,3.944759,7.867365,0.208329,-0.468537,-0.294963,0.097827,-0.124185,-0.120335,-0.036622,0.039431,0.078670,1.000000,0.000489,-0.000621,-0.000602,-0.478594,-0.285820,0.059239,0.828097,24.134524,24.624570,-114.605952
10316,-3.378859,4.740249,7.715989,0.787534,-1.098426,-0.242088,0.023664,-0.091162,-0.183793,-0.033780,0.047424,0.077150,0.999999,0.000118,-0.000456,-0.000919,-0.477771,-0.285562,0.059287,0.828658,24.094308,24.621023,-114.734880
10317,-3.691391,4.515670,7.811927,0.696056,-0.749330,-0.117442,-0.194647,0.017834,-0.233219,-0.036854,0.045276,0.078079,0.999999,-0.000973,0.000089,-0.001166,-0.477083,-0.285252,0.058090,0.829246,23.928061,24.686966,-114.864625
10318,-3.985434,3.925744,8.038000,0.263437,-0.253807,-0.026439,-0.284931,0.031153,-0.276453,-0.039787,0.039427,0.080330,0.999998,-0.001425,0.000156,-0.001382,-0.476351,-0.284789,0.056434,0.829940,23.701446,24.768356,-115.015958
10319,-4.612664,3.416891,8.293537,0.012347,0.462062,0.263063,-0.341311,0.038082,-0.276006,-0.046064,0.034374,0.082886,0.999998,-0.001707,0.000190,-0.001380,-0.475697,-0.284224,0.054520,0.830636,23.442382,24.853791,-115.166024
10320,-4.760773,2.461349,8.384824,-0.673115,1.058036,0.059284,-0.304851,-0.011918,-0.230679,-0.047584,0.024796,0.083808,0.999998,-0.001524,-0.000060,-0.001153,-0.475167,-0.283520,0.052948,0.831282,23.210234,24.900962,-115.302524
10321,-4.265169,2.802101,8.507606,-0.646866,0.430305,0.077670,-0.088990,-0.100362,-0.201435,-0.042666,0.028102,0.085042,0.999999,-0.000445,-0.000502,-0.001007,-0.474425,-0.282957,0.052516,0.831924,23.098886,24.895715,-115.444478
10322,-4.268637,2.893015,8.351753,-0.481593,0.406739,-0.017526,-0.048210,-0.063208,-0.162496,-0.042689,0.028985,0.083497,1.000000,-0.000241,-0.000316,-0.000812,-0.473799,-0.282630,0.052230,0.832410,23.024968,24.899972,-115.554304
10323,-4.224304,3.295207,8.358248,-0.191210,0.147743,0.112283,0.059075,-0.063235,-0.116514,-0.042250,0.032952,0.083579,1.000000,0.000295,-0.000316,-0.000583,-0.473210,-0.282550,0.052446,0.832759,23.023029,24.894982,-115.637734
10324,-4.096620,3.683647,8.333194,0.064279,-0.162894,0.175456,0.098928,-0.035366,-0.081693,-0.040966,0.036812,0.083343,1.000000,0.000495,-0.000177,-0.000408,-0.472720,-0.282666,0.052820,0.832974,23.056089,24.895761,-115.693708
10325,-4.567506,3.580221,8.196408,0.236803,0.303295,0.222906,0.076725,0.016869,-0.052037,-0.045659,0.035783,0.081982,1.000000,0.000384,0.000084,-0.000260,-0.472395,-0.282944,0.053011,0.833052,23.088377,24.918565,-115.719846
10326,-4.402072,3.849937,8.064498,0.436995,0.045919,0.139362,0.133605,-0.024107,-0.022984,-0.044026,0.038451,0.080665,1.000000,0.000668,-0.000121,-0.000115,-0.472103,-0.283173,0.053586,0.833103,23.156832,24.912141,-115.738925
10327,-4.624943,4.206331,7.971409,0.837594,0.051325,0.282979,0.019052,0.002004,-0.013022,-0.046246,0.042059,0.079719,1.000000,0.000095,0.000010,-0.000065,-0.472018,-0.283242,0.053627,0.833125,23.164111,24.918380,-115.746047
10328,-4.234941,3.590205,8.130631,0.136323,0.041006,0.031661,-0.054739,-0.000649,-0.004396,-0.042349,0.035925,0.081296,1.000000,-0.000274,-0.000003,-0.000022,-0.472076,-0.283120,0.053389,0.833149,23.131653,24.920135,-115.748506
10329,-3.861647,3.883730,8.257715,0.148061,-0.449504,0.084866,-0.020553,-0.003735,-0.004206,-0.038617,0.038847,0.082572,1.000000,-0.000103,-0.000019,-0.000021,-0.472082,-0.283070,0.053291,0.833169,23.117852,24.921378,-115.751911
10330,-3.914014,3.730824,8.330308,0.017346,-0.340334,0.112858,-0.073041,0.064891,-0.005291,-0.039112,0.037340,0.083302,1.000000,-0.000365,0.000324,-0.000026,-0.472180,-0.283177,0.052821,0.833107,23.081538,24.957873,-115.738644
10331,-4.120445,3.808548,8.193969,0.229096,-0.196879,0.113691,-0.021146,0.058836,0.000485,-0.041180,0.038094,0.081948,1.000000,-0.000106,0.000294,0.000002,-0.472223,-0.283385,0.052580,0.833027,23.075127,24.990997,-115.723804
10332,-3.973508,4.148321,8.218829,0.413495,-0.514794,0.192836,-0.034215,0.099666,-0.000345,-0.039694,0.041497,0.082201,1.000000,-0.000171,0.000498,-0.000002,-0.472295,-0.283727,0.052196,0.832894,23.065931,25.044720,-115.699057
10333,-4.531751,3.382425,8.368739,-0.029455,0.322958,0.282271,-0.039997,0.151649,0.017583,-0.045257,0.033837,0.083715,1.000000,-0.000200,0.000758,0.000088,-0.472461,-0.284273,0.051682,0.832646,23.062776,25.122906,-115.651234
10334,-4.445640,3.573798,8.401315,0.053291,0.134140,0.340981,0.106533,0.127829,0.053476,-0.044412,0.035681,0.084061,1.000000,0.000533,0.000639,0.000267,-0.472564,-0.285050,0.051894,0.832308,23.150593,25.179354,-115.588092
10335,-4.421918,3.353099,8.551229,-0.222541,0.203962,0.376963,0.140136,0.200873,0.093518,-0.044149,0.033450,0.085580,0.999999,0.000701,0.001004,0.000468,-0.472801,-0.286206,0.052121,0.831763,23.274938,25.266213,-115.483510
10336,-4.980188,3.299591,8.483916,-0.044181,0.702437,0.539650,0.329728,0.191558,0.171686,-0.049749,0.032813,0.084941,0.999998,0.001649,0.000958,0.000858,-0.473091,-0.287745,0.053280,0.830993,23.527185,25.328977,-115.335180
10337,-4.277021,3.854894,8.407470,0.098132,-0.148947,0.375866,0.435907,0.147613,0.232558,-0.042753,0.038316,0.084190,0.999997,0.002180,0.000738,0.001163,-0.473464,-0.289339,0.055062,0.830110,23.850290,25.355123,-115.162568
10338,-3.895945,3.131690,8.538989,-0.710592,-0.079262,0.055890,0.319928,0.271729,0.243706,-0.038881,0.031133,0.085493,0.999997,0.001600,0.001359,0.001219,-0.474085,-0.291164,0.056093,0.829048,24.124279,25.441704,-114.951005
10339,-4.214527,2.850909,8.546957,-0.854481,0.339087,0.091605,0.435723,0.255682,0.247696,-0.042071,0.028271,0.085585,0.999996,0.002179,0.001278,0.001238,-0.474543,-0.293199,0.057639,0.827962,24.463757,25.519034,-114.740941
10340,-3.772091,3.564006,8.453063,-0.497289,-0.377793,0.086535,0.679231,0.216656,0.243330,-0.037672,0.035307,0.084692,0.999993,0.003396,0.001083,0.001217,-0.474613,-0.295643,0.060288,0.826863,24.938332,25.574651,-114.542769
10341,-3.319215,4.791665,8.352196,0.234612,-1.378525,0.275947,0.679798,0.276260,0.186020,-0.033121,0.047601,0.083730,0.999993,0.003399,0.001381,0.000930,-0.474453,-0.298353,0.062702,0.825802,25.405800,25.674725,-114.361115
10342,-2.760085,5.510832,8.263055,0.538142,-2.206783,0.242434,0.600195,0.396135,0.038197,-0.027447,0.054855,0.082850,0.999994,0.003001,0.001981,0.000191,-0.473835,-0.301406,0.064292,0.824925,25.806655,25.871040,-114.229961
10343,-2.179671,6.250538,8.224015,0.822878,-3.094765,0.247105,0.514546,0.478855,-0.181224,-0.021543,0.062313,0.082452,0.999993,0.002573,0.002394,-0.000906,-0.472460,-0.304668,0.064993,0.824461,26.114083,26.165160,-114.200120
10344,-1.983092,6.331013,8.833249,0.402394,-3.460576,0.670748,0.226599,0.693931,-0.461211,-0.019378,0.063255,0.088472,0.999991,0.001133,0.003470,-0.002306,-0.470434,-0.308219,0.063579,0.824410,26.213288,26.639629,-114.268865
10345,-2.601931,4.824972,9.357154,-0.820057,-2.324345,0.748101,-0.149646,0.900893,-0.814820,-0.025401,0.048424,0.093651,0.999981,-0.000748,0.004504,-0.004074,-0.467580,-0.311844,0.059576,0.824968,26.029653,27.310321,-114.484027
10346,-2.438038,4.565027,10.055391,-1.513499,-2.561271,1.097964,0.251491,0.686825,-1.140301,-0.023774,0.045660,0.100694,0.999977,0.001257,0.003434,-0.005701,-0.462678,-0.315605,0.057223,0.826467,25.956705,27.951472,-114.951885
10347,-2.733518,6.490724,9.938006,-0.023641,-3.484225,1.858788,0.934865,0.242105,-1.545001,-0.026715,0.064650,0.099715,0.999959,0.004674,0.001211,-0.007725,-0.454866,-0.319206,0.058077,0.829356,26.098109,28.465964,-115.785285
10348,0.099942,6.808043,12.603471,-2.552885,-6.502852,2.693342,0.536106,0.049178,-1.763514,0.001629,0.067730,0.126216,0.999958,0.002680,0.000246,-0.008817,-0.446692,-0.321136,0.057365,0.833095,25.914942,28.935438,-116.806177
10349,1.444008,6.304207,12.193741,-3.315376,-7.212038,1.479306,0.516341,-0.320967,-1.729180,0.014787,0.062600,0.122123,0.999958,0.002582,-0.001605,-0.008646,-0.438549,-0.321440,0.057449,0.837288,25.670341,29.201825,-117.918091
10350,2.761748,8.056780,10.463482,-1.756972,-8.955329,0.123901,0.989692,-0.871188,-1.536186,0.027775,0.079835,0.105152,0.999949,0.004948,-0.004356,-0.007681,-0.430254,-0.320396,0.061025,0.841727,25.674022,29.134346,-119.073905
10351,4.199551,12.031650,10.106042,0.366703,-12.421524,0.679953,1.052377,-1.074671,-1.236258,0.042190,0.119521,0.101917,0.999953,0.005262,-0.005373,-0.006181,-0.423019,-0.318500,0.065783,0.845746,25.775043,28.887076,-120.108824
10352,5.058258,13.160797,8.920637,1.283766,-13.579767,-0.204823,0.275413,-0.861311,-0.925645,0.050805,0.131250,0.089606,0.999979,0.001377,-0.004307,-0.004628,-0.418373,-0.315746,0.067288,0.848965,25.552947,28.673051,-120.897763
10353,5.756156,11.132549,7.598724,0.316847,-12.605708,-2.342539,-0.056296,-0.680783,-0.603462,0.057638,0.111173,0.076152,0.999990,-0.000281,-0.003404,-0.003017,-0.415673,-0.312935,0.067530,0.851309,25.260521,28.467976,-121.443144
10354,5.996109,9.732022,7.483207,-0.692616,-11.856417,-3.059205,-0.012148,-0.526220,-0.294883,0.059907,0.097236,0.074984,0.999995,-0.000061,-0.002631,-0.001474,-0.414256,-0.310776,0.068106,0.852744,25.101815,28.268112,-121.762392
10355,6.018833,8.337803,7.979256,-1.933859,-11.022136,-3.165402,0.064342,-0.368243,0.029119,0.060029,0.083361,0.079930,0.999998,0.000322,-0.001841,0.000146,-0.414164,-0.309321,0.069207,0.853229,25.100621,28.067843,-121.845632
10356,5.073258,7.192765,9.091703,-2.904784,-9.698430,-2.220894,0.215044,-0.245464,0.337194,0.050500,0.071915,0.091056,0.999997,0.001075,-0.001227,0.001686,-0.415183,-0.308610,0.071149,0.852831,25.284948,27.859441,-121.715173
10357,2.986441,6.666456,11.270070,-3.562726,-8.033363,0.343417,0.435837,-0.227556,0.633147,0.029525,0.066513,0.112879,0.999992,0.002179,-0.001138,0.003166,-0.417138,-0.308303,0.074483,0.851703,25.679403,27.582528,-121.407278
10358,0.261082,6.343900,12.897551,-3.482423,-5.877199,2.836009,0.534726,-0.560112,0.857733,0.001978,0.063103,0.129151,0.999983,0.002674,-0.002801,0.004289,-0.419750,-0.306717,0.079244,0.850562,26.141857,27.080214,-121.067221
10359,0.911361,4.944402,11.403109,-3.832206,-5.161827,0.863276,0.558808,-0.891981,0.892697,0.008385,0.049164,0.114207,0.999976,0.002794,-0.004460,0.004463,-0.422341,-0.303716,0.084889,0.849811,26.580688,26.391258,-120.806853
10360,-0.117165,4.086075,10.635218,-3.470510,-3.607866,0.422292,0.498213,-0.919963,0.753253,-0.001814,0.040590,0.106446,0.999979,0.002491,-0.004600,0.003766,-0.424385,-0.300542,0.090086,0.849386,26.938627,25.727379,-120.641731
10361,-1.323001,4.044510,10.201780,-2.678387,-2.466697,0.624008,0.553165,-1.025753,0.617484,-0.013878,0.040121,0.102059,0.999978,0.002766,-0.005129,0.003087,-0.425720,-0.297052,0.095569,0.849346,27.279856,25.038550,-120.588370
10362,-1.536406,4.408565,9.462119,-1.893627,-2.319444,0.304641,0.598461,-1.079781,0.562618,-0.015998,0.043758,0.094667,0.999977,0.002992,-0.005399,0.002813,-0.426695,-0.293472,0.101237,0.849445,27.623231,24.342024,-120.587083
10363,-1.099585,5.127325,8.377307,-0.973510,-2.889511,-0.411649,0.538578,-1.043479,0.507481,-0.011563,0.051019,0.083851,0.999980,0.002693,-0.005217,0.002537,-0.427539,-0.289901,0.106525,0.849600,27.924123,23.672799,-120.609287
10364,-0.062811,5.217102,7.257179,-0.730223,-3.587990,-1.659087,0.285771,-0.843217,0.446454,-0.001051,0.052065,0.072642,0.999988,0.001429,-0.004216,0.002232,-0.428567,-0.286697,0.110182,0.849703,28.087503,23.127215,-120.610037
10365,0.585720,4.787416,6.250120,-0.716270,-3.719984,-2.886298,0.083289,-0.531770,0.377397,0.005601,0.047859,0.062536,0.999995,0.000416,-0.002659,0.001887,-0.429772,-0.284380,0.112250,0.849602,28.157026,22.751562,-120.557751
10366,-0.069001,4.946474,8.782898,-1.759853,-3.400353,-0.487875,0.061282,-0.045070,0.400056,-0.000809,0.049436,0.087844,0.999998,0.000306,-0.000225,0.002000,-0.431358,-0.284103,0.113170,0.848769,28.271549,22.621522,-120.351707
10367,-7.621849,6.516197,15.167565,-0.920397,1.408927,8.291856,0.406589,-0.076071,0.843554,-0.076549,0.064531,0.151778,0.999989,0.002033,-0.000380,0.004218,-0.434331,-0.284148,0.116292,0.846814,28.673632,22.347440,-119.913232
10368,-9.158349,7.558572,14.677477,0.736676,2.304082,8.910859,0.847191,-1.281963,1.437602,-0.093060,0.074299,0.146498,0.999945,0.004236,-0.006410,0.007188,-0.438444,-0.279716,0.124694,0.844972,29.305128,21.306834,-119.520212
10369,-1.909176,5.667470,9.092497,-0.585276,-1.962391,0.875638,0.517062,-1.526044,1.575081,-0.020230,0.056283,0.090919,0.999937,0.002585,-0.007630,0.007875,-0.443413,-0.273374,0.132451,0.843272,29.736978,20.096148,-119.140269
10370,-2.173917,2.909756,6.721211,-0.912175,0.049521,-2.227732,0.159359,-1.051612,1.410225,-0.022296,0.028888,0.067119,0.999961,0.000797,-0.005258,0.007051,-0.448427,-0.268357,0.137372,0.841443,29.971363,19.172427,-118.714308
10371,-4.513603,4.727183,8.705429,0.272422,1.100043,1.013959,0.401627,-1.004699,1.367816,-0.045894,0.046785,0.086919,0.999962,0.002008,-0.005023,0.006839,-0.452953,-0.264051,0.143177,0.839411,30.334639,18.275759,-118.303163
10372,-4.682651,4.893155,8.313554,0.713223,1.326161,0.804060,0.176011,-1.012658,1.416635,-0.047591,0.048523,0.082939,0.999962,0.000880,-0.005063,0.007083,-0.457924,-0.259184,0.148068,0.837380,30.565961,17.365293,-117.876661
10373,-4.165288,2.635208,6.417196,0.033204,2.220867,-2.031944,-0.025924,-0.843482,1.354689,-0.042100,0.026076,0.063992,0.999968,-0.000130,-0.004217,0.006773,-0.463007,-0.254553,0.151673,0.835358,30.681029,16.548952,-117.434888
10374,-4.688610,1.276792,6.103532,-0.493514,3.460515,-2.837936,-0.014243,-0.556589,1.146767,-0.047128,0.012502,0.060903,0.999980,-0.000071,-0.002783,0.005734,-0.467383,-0.251328,0.154353,0.833404,30.789987,15.940104,-117.016016
10375,-6.537014,2.397035,8.428796,-0.214765,4.595526,0.104834,0.068012,-0.408693,0.963764,-0.065657,0.023626,0.084162,0.999986,0.000340,-0.002043,0.004819,-0.471007,-0.249009,0.156829,0.831596,30.929455,15.451053,-116.647644
10376,-10.114221,3.274193,11.747622,0.067843,7.436125,4.177360,0.253281,-0.543408,1.018929,-0.101626,0.032076,0.117241,0.999983,0.001266,-0.002717,0.005095,-0.474494,-0.246551,0.160422,0.829658,31.166679,14.884269,-116.295409
10377,-12.416057,3.903467,11.732234,1.497007,9.330909,4.942820,0.560957,-1.276147,1.258551,-0.125147,0.037921,0.116633,0.999956,0.002805,-0.006381,0.006293,-0.477993,-0.241542,0.167344,0.827754,31.549102,13.880427,-116.051879
10378,-7.777764,2.286013,7.471280,0.772017,6.109529,-0.668689,0.514241,-1.598205,1.259056,-0.078513,0.022176,0.074145,0.999945,0.002571,-0.007991,0.006295,-0.481220,-0.235098,0.174798,0.826198,31.875076,12.723299,-115.915486
10379,-7.976189,-0.184098,5.107812,0.433645,7.451379,-3.979142,0.274691,-1.250056,0.987299,-0.080068,-0.002305,0.050575,0.999967,0.001373,-0.006250,0.004936,-0.483879,-0.229703,0.180112,0.825020,32.054755,11.812765,-115.811838
10380,-9.350570,-0.080448,5.327928,0.987424,8.721441,-3.584863,0.559667,-1.157335,0.732371,-0.093808,-0.001296,0.052734,0.999973,0.002798,-0.005787,0.003662,-0.485202,-0.225625,0.186052,0.824049,32.375755,11.029101,-115.809879
10381,-9.227431,0.890417,5.912433,1.323614,8.304987,-2.729683,0.490624,-0.984070,0.548157,-0.092587,0.008506,0.058690,0.999981,0.002453,-0.004920,0.002741,-0.485992,-0.222230,0.191087,0.823354,32.649716,10.382188,-115.848270
10382,-9.589024,0.288573,5.450491,1.321107,8.925567,-3.462220,0.446415,-0.830052,0.394066,-0.096121,0.002575,0.054112,0.999987,0.002232,-0.004150,0.001970,-0.486319,-0.219526,0.195372,0.822880,32.893446,9.861136,-115.916501
10383,-9.112305,0.923315,5.999291,1.281363,8.334582,-2.829113,0.502141,-0.657531,0.258226,-0.091331,0.008965,0.059716,0.999991,0.002511,-0.003288,0.001291,-0.486192,-0.217775,0.199324,0.822473,33.167124,9.462855,-115.998540
10384,-10.536632,2.222704,7.068318,2.241276,9.198022,-1.078013,0.540190,-0.595117,0.205304,-0.105599,0.021928,0.070429,0.999991,0.002701,-0.002976,0.001027,-0.485851,-0.216442,0.203209,0.822075,33.462090,9.114352,-116.088269
10385,-9.385620,2.231064,5.191614,2.792235,7.995602,-2.863322,0.509184,-0.593711,0.213311,-0.094034,0.022079,0.051694,0.999992,0.002546,-0.002969,0.001067,-0.485575,-0.215013,0.206974,0.821674,33.739827,8.762476,-116.175379
10386,-8.825319,1.543970,2.977044,3.287004,7.545381,-5.187148,0.419915,-0.226141,0.203482,-0.088302,0.015287,0.029703,0.999997,0.002100,-0.001131,0.001017,-0.485725,-0.214900,0.209460,0.820984,33.984185,8.590964,-116.150040
10387,-10.439794,1.022611,2.184217,4.040039,9.116709,-5.892306,0.342887,0.251056,0.163776,-0.104379,0.010103,0.021991,0.999997,0.001714,0.001255,0.000819,-0.486294,-0.216590,0.210430,0.819955,34.204185,8.657412,-115.989493
10388,-11.923966,-0.938749,0.784552,4.037091,11.115896,-7.859290,0.105496,0.792737,-0.037267,-0.119209,-0.009370,0.008313,0.999992,0.000527,0.003964,-0.000186,-0.486858,-0.220142,0.208887,0.819068,34.301705,9.045897,-115.748180
10389,-15.409927,-4.706687,-2.252976,4.537558,15.507852,-11.711428,-0.091654,1.618772,-0.643906,-0.154425,-0.046580,-0.021259,0.999962,-0.000458,0.008094,-0.003219,-0.485995,-0.227218,0.203845,0.818919,34.285219,10.021033,-115.526992
10390,-17.016928,-2.451191,7.940986,0.909947,17.036036,-1.592123,0.450575,1.877292,-1.139357,-0.169551,-0.023726,0.080949,0.999937,0.002253,0.009386,-0.005697,-0.482701,-0.237154,0.199816,0.819043,34.556486,11.278357,-115.455820
10391,-9.788806,4.023982,15.181495,-1.971789,8.302908,6.608721,1.155766,0.436959,-1.131537,-0.097329,0.039913,0.152259,0.999965,0.005779,0.002185,-0.005658,-0.477114,-0.242869,0.202126,0.820075,35.138087,11.856831,-115.852653
10392,4.235735,8.330706,13.784310,-4.418346,-6.182610,5.005995,1.591711,-0.244745,-1.630462,0.042859,0.081858,0.138551,0.999934,0.007958,-0.001224,-0.008152,-0.468217,-0.247302,0.207238,0.822598,35.870071,12.286245,-116.713143
10393,3.896304,13.192909,11.998844,-0.206973,-8.449761,6.366274,0.209181,0.083002,-1.844633,0.040227,0.131436,0.120110,0.999957,0.001046,0.000415,-0.009223,-0.460435,-0.250046,0.205593,0.826564,35.803034,12.946064,-117.562457
10394,-2.538080,6.708283,5.717420,2.122805,-0.558532,-0.906997,-0.761397,0.548718,-1.559538,-0.024699,0.067494,0.056986,0.999959,-0.003807,0.002744,-0.007798,-0.455487,-0.252162,0.199219,0.830216,35.237743,13.722130,-118.121672
10395,-6.478897,6.273746,4.407132,4.423259,2.767099,-1.237408,0.213955,0.470998,-1.207249,-0.064305,0.063079,0.044290,0.999978,0.001070,0.002355,-0.006036,-0.450663,-0.255812,0.197491,0.832142,35.257007,14.343793,-118.543214
10396,-4.716318,8.149740,6.658378,3.426729,0.408719,1.191181,0.110152,0.584901,-0.895557,-0.046603,0.081670,0.066766,0.999986,0.000551,0.002924,-0.004478,-0.447368,-0.259382,0.195477,0.833290,35.261313,14.914680,-118.775821
10397,-2.596581,8.570197,8.470428,1.558218,-1.541361,2.317184,0.056414,0.576463,-0.712322,-0.025416,0.085769,0.084802,0.999989,0.000282,0.002882,-0.003562,-0.444882,-0.262617,0.193480,0.834073,35.254190,15.422365,-118.923336
10398,-2.092235,8.557999,8.309108,1.374015,-2.072384,2.039508,-0.187549,0.565209,-0.580149,-0.020439,0.085718,0.083069,0.999991,-0.000938,0.002826,-0.002901,-0.443252,-0.265125,0.190672,0.834794,35.122977,15.879611,-119.011173
10399,-2.516046,5.829737,7.573854,0.262496,-0.413095,0.058450,-0.414229,0.721111,-0.433027,-0.024761,0.058508,0.075707,0.999989,-0.002071,0.003606,-0.002165,-0.442673,-0.267640,0.186754,0.835184,34.894856,16.362649,-118.975688
10400,-4.991523,5.335578,10.492084,-0.699861,2.046044,2.788512,-0.440743,0.753755,-0.368689,-0.049421,0.053679,0.104990,0.999989,-0.002204,0.003769,-0.001843,-0.442423,-0.270162,0.182744,0.835392,34.664120,16.838899,-118.899208
10401,-5.723048,1.745410,9.459790,-2.025671,4.433955,0.263189,-0.607893,0.468093,-0.397648,-0.056974,0.017855,0.094678,0.999991,-0.003039,0.002340,-0.001988,-0.442003,-0.271147,0.178615,0.836187,34.304210,17.191308,-118.936560
10402,-3.520280,2.989205,8.423316,-1.612063,1.800744,-0.515457,0.238946,0.105464,-0.503821,-0.035083,0.029880,0.084287,0.999996,0.001195,0.000527,-0.002519,-0.439665,-0.272574,0.178692,0.836939,34.377581,17.405083,-119.150038
10403,-4.326010,6.512797,8.334485,1.050402,0.499577,1.555754,0.077834,0.072176,-0.539612,-0.043054,0.065212,0.083386,0.999996,0.000389,0.000361,-0.002698,-0.437360,-0.273542,0.178105,0.837956,34.348093,17.616233,-119.393037
10404,-2.978788,7.376047,6.795902,1.907199,-1.234420,0.400154,-0.118197,0.032288,-0.536415,-0.029579,0.073880,0.067920,0.999996,-0.000591,0.000161,-0.002682,-0.435302,-0.273903,0.176799,0.839185,34.202675,17.805647,-119.648243
10405,-1.859378,8.553826,5.387415,2.986273,-2.949814,-0.430257,-0.145610,0.282853,-0.392756,-0.018350,0.085614,0.053838,0.999997,-0.000728,0.001414,-0.001964,-0.434098,-0.275134,0.175017,0.839779,34.087625,18.068608,-119.748211
10406,-2.689058,10.132365,7.728261,2.946026,-3.091641,2.491125,-0.548190,0.565572,-0.261761,-0.026540,0.101570,0.077080,0.999991,-0.002741,0.002828,-0.001309,-0.434244,-0.276554,0.171121,0.840040,33.792245,18.422225,-119.688264
10407,-4.076588,4.560399,8.637609,-0.456137,1.125166,0.701498,-1.347545,0.812329,-0.243983,-0.040359,0.046235,0.086230,0.999968,-0.006738,0.004062,-0.001220,-0.435760,-0.277256,0.163340,0.840572,33.066980,18.890074,-119.540482
10408,-4.439149,2.115363,8.243907,-1.577336,2.688330,-0.733749,-0.697042,0.478577,-0.278852,-0.044164,0.021503,0.082470,0.999990,-0.003485,0.002393,-0.001394,-0.435941,-0.277982,0.158974,0.841076,32.672739,19.208141,-119.524568
10409,-3.850288,5.092391,8.485817,-0.063941,0.451324,0.796660,-0.299510,0.276481,-0.263500,-0.038318,0.051102,0.084835,0.999997,-0.001498,0.001382,-0.001318,-0.435464,-0.278716,0.156730,0.841501,32.485900,19.425435,-119.568781
10410,-3.291069,5.605714,7.815900,0.428367,-0.369609,0.337338,-0.509690,0.344584,-0.204223,-0.032719,0.056290,0.078072,0.999995,-0.002548,0.001723,-0.001021,-0.435582,-0.279223,0.153544,0.841859,32.196353,19.655891,-119.561179
10411,-3.165851,5.461963,7.534689,0.468743,-0.452224,-0.004392,-0.509578,0.359901,-0.200841,-0.031468,0.054843,0.075264,0.999995,-0.002548,0.001800,-0.001004,-0.435718,-0.279797,0.150319,0.842180,31.908144,19.894251,-119.548334
10412,-3.151033,5.445011,7.647969,0.407786,-0.516532,0.068356,-0.630261,0.396721,-0.253971,-0.031289,0.054731,0.076370,0.999992,-0.003151,0.001984,-0.001270,-0.435825,-0.280291,0.146439,0.842644,31.545571,20.165168,-119.552423
10413,-4.436017,5.022552,8.344799,0.343138,0.703015,0.860986,-0.749094,0.393431,-0.274363,-0.044127,0.050598,0.083346,0.999990,-0.003745,0.001967,-0.001372,-0.435999,-0.280530,0.142024,0.843230,31.109598,20.441945,-119.570429
10414,-4.210312,3.678364,8.322913,-0.589528,1.222553,0.121357,-0.747183,0.301169,-0.242735,-0.041933,0.037145,0.083154,0.999991,-0.003736,0.001506,-0.001214,-0.436233,-0.280349,0.137871,0.843858,30.670043,20.662489,-119.602876
10415,-3.956014,3.132843,8.626452,-1.210911,1.267092,0.026432,-0.560701,0.217244,-0.217435,-0.039432,0.031613,0.086219,0.999995,-0.002804,0.001086,-0.001087,-0.436245,-0.280207,0.134710,0.844410,30.331537,20.835523,-119.649942
10416,-3.404423,3.216099,8.221276,-1.145469,0.730725,-0.449112,-0.396144,0.162423,-0.206840,-0.033944,0.032359,0.082176,0.999997,-0.001981,0.000812,-0.001034,-0.436034,-0.280176,0.132388,0.844896,30.083409,20.976642,-119.709064
10417,-3.502641,4.048219,8.255869,-0.552859,0.285867,0.007112,-0.265153,0.175812,-0.186516,-0.034916,0.040624,0.082536,0.999998,-0.001326,0.000879,-0.000933,-0.435729,-0.280479,0.130606,0.845230,29.914582,21.119884,-119.754167
10418,-3.573443,4.617273,7.976257,0.029298,-0.016401,0.072057,-0.189138,0.199945,-0.151913,-0.035620,0.046275,0.079754,0.999999,-0.000946,0.001000,-0.000760,-0.435482,-0.281019,0.129153,0.845401,29.799139,21.263640,-119.773575
10419,-3.855795,4.575249,8.184124,0.013130,0.199604,0.323379,-0.213923,0.247969,-0.083962,-0.038437,0.045856,0.081840,0.999999,-0.001070,0.001240,-0.000420,-0.435583,-0.281670,0.127573,0.845373,29.687093,21.413424,-119.742664
10420,-3.709532,4.152028,8.169736,-0.323878,0.299347,0.064051,-0.214848,0.223159,-0.100280,-0.036983,0.041627,0.081694,0.999999,-0.001074,0.001116,-0.000501,-0.435603,-0.282217,0.126033,0.845411,29.569297,21.554043,-119.728025
10421,-4.016765,4.656268,8.377036,0.034763,0.214722,0.576855,-0.154532,0.179576,-0.113362,-0.040066,0.046650,0.083770,0.999999,-0.000773,0.000898,-0.000567,-0.435450,-0.282726,0.124811,0.845501,29.477736,21.678140,-119.734215
10422,-4.331862,4.922009,8.261150,0.427934,0.293368,0.721475,-0.132933,0.119582,-0.070062,-0.043252,0.049290,0.082605,1.000000,-0.000665,0.000598,-0.000350,-0.435416,-0.282994,0.123884,0.845565,29.401141,21.758612,-119.735218
10423,-3.774345,4.782395,7.992840,0.239286,-0.080481,0.234139,-0.115308,0.093763,-0.029206,-0.037699,0.047876,0.079918,1.000000,-0.000577,0.000469,-0.000146,-0.435509,-0.283173,0.123134,0.845567,29.339075,21.816216,-119.722482
10424,-3.870979,4.729990,8.116929,0.179639,0.010271,0.346517,-0.111461,0.097627,-0.024462,-0.038664,0.047350,0.081162,1.000000,-0.000557,0.000488,-0.000122,-0.435623,-0.283366,0.122411,0.845548,29.281372,21.872927,-119.705771
10425,-3.902456,4.503322,7.948180,0.145896,0.164421,0.118794,-0.108812,0.058365,-0.013527,-0.038998,0.045079,0.079469,1.000000,-0.000544,0.000292,-0.000068,-0.435751,-0.283399,0.121788,0.845561,29.222201,21.908465,-119.695376
10426,-3.482909,4.785137,7.888669,0.181080,-0.346626,0.041568,-0.083796,0.034161,-0.034510,-0.034807,0.047890,0.078873,1.000000,-0.000419,0.000171,-0.000173,-0.435744,-0.283390,0.121305,0.845637,29.171167,21.936271,-119.703316
10427,-3.936391,4.625919,7.996926,0.227035,0.097175,0.226442,-0.163971,0.058681,-0.034015,-0.039333,0.046331,0.079943,1.000000,-0.000820,0.000293,-0.000170,-0.435863,-0.283317,0.120419,0.845727,29.076301,21.977690,-119.703951
10428,-3.794887,4.384402,8.134429,-0.070608,0.108574,0.176122,-0.129123,0.026140,-0.024989,-0.037933,0.043901,0.081321,1.000000,-0.000646,0.000131,-0.000125,-0.435956,-0.283169,0.119775,0.845820,29.000281,21.998810,-119.709239
10429,-3.865879,4.427449,8.128865,0.003266,0.131461,0.217690,-0.127306,0.010872,-0.026044,-0.038649,0.044331,0.081263,1.000000,-0.000637,0.000054,-0.000130,-0.436028,-0.282969,0.119160,0.845937,28.922639,22.014048,-119.719990
10430,-4.199396,4.373118,8.314180,0.021831,0.416601,0.468881,-0.122546,0.001824,0.000760,-0.041993,0.043782,0.083115,1.000000,-0.000613,0.000009,0.000004,-0.436205,-0.282717,0.118633,0.846004,28.852863,22.015829,-119.718666
10431,-3.771158,3.431690,8.025114,-0.628948,0.638169,-0.347079,-0.100712,-0.039810,0.030737,-0.037733,0.034352,0.080226,1.000000,-0.000504,-0.000199,0.000154,-0.436449,-0.282326,0.118321,0.846052,28.796299,21.989928,-119.713814
10432,-3.240550,3.597363,7.926511,-0.696809,0.118230,-0.551357,-0.032265,-0.057788,-0.002202,-0.032428,0.035987,0.079250,1.000000,-0.000161,-0.000289,-0.000011,-0.436451,-0.282021,0.118302,0.846156,28.771011,21.962594,-119.731832
10433,-3.285139,4.379936,7.716955,-0.023063,-0.299269,-0.355559,-0.050126,-0.040802,-0.051364,-0.032856,0.043827,0.077152,1.000000,-0.000251,-0.000204,-0.000257,-0.436275,-0.281784,0.118090,0.846355,28.726630,21.958812,-119.771731
10434,-3.219152,4.512700,7.610847,0.104671,-0.433193,-0.407701,-0.130587,0.026646,-0.078459,-0.032164,0.045189,0.076083,1.000000,-0.000653,0.000133,-0.000392,-0.436142,-0.281667,0.117363,0.846563,28.638929,21.994859,-119.805993
10435,-4.009799,4.054520,8.292971,-0.224114,0.425605,0.240152,-0.206850,0.090709,-0.081336,-0.040044,0.040647,0.082906,0.999999,-0.001034,0.000454,-0.000407,-0.436138,-0.281662,0.116159,0.846733,28.513214,22.065311,-119.823273
10436,-4.654644,3.044694,8.814500,-0.897185,1.500331,0.462298,-0.151546,0.025155,-0.053675,-0.046527,0.030526,0.088128,1.000000,-0.000758,0.000126,-0.000268,-0.436138,-0.281477,0.115381,0.846901,28.418281,22.093719,-119.844674
10437,-4.025659,2.839319,8.034587,-0.868170,1.154068,-0.499436,0.067547,-0.129047,-0.036590,-0.040303,0.028373,0.080329,1.000000,0.000338,-0.000645,-0.000183,-0.435809,-0.281114,0.115880,0.847123,28.434449,22.041233,-119.902534
10438,-3.108760,3.918935,7.946705,-0.512759,-0.209742,-0.439020,0.097978,-0.127974,-0.083038,-0.031122,0.039163,0.079466,1.000000,0.000490,-0.000640,-0.000415,-0.435245,-0.280842,0.116452,0.847425,28.459617,22.000506,-119.984975
10439,-3.221553,4.338381,7.860176,-0.126625,-0.361284,-0.281908,0.006408,-0.082750,-0.139168,-0.032218,0.043404,0.078590,1.000000,0.000032,-0.000414,-0.000696,-0.434593,-0.280601,0.116446,0.847840,28.424967,21.999343,-120.084963
10440,-3.163522,5.132685,7.429859,0.632805,-0.865510,-0.304503,-0.016905,-0.083987,-0.201663,-0.031615,0.051365,0.074281,0.999999,-0.000085,-0.000420,-0.001008,-0.433712,-0.280333,0.116268,0.848404,28.365029,22.013038,-120.218917
10441,-3.070001,5.704508,7.338987,1.035182,-1.293315,-0.164749,-0.198970,-0.004131,-0.236796,-0.030634,0.057154,0.073332,0.999999,-0.000995,-0.000021,-0.001184,-0.432979,-0.280036,0.115084,0.849037,28.201373,22.077736,-120.349026
10442,-3.099377,5.414399,7.408143,0.836084,-1.132760,-0.230410,-0.438720,0.114118,-0.291159,-0.030873,0.054351,0.073980,0.999996,-0.002194,0.000571,-0.001456,-0.432421,-0.279745,0.112561,0.849755,27.902673,22.214973,-120.474427
10443,-4.406316,4.758696,8.423505,0.461793,0.199326,0.806295,-0.622321,0.209819,-0.273973,-0.043909,0.047909,0.084132,0.999994,-0.003112,0.001049,-0.001370,-0.432239,-0.279458,0.109063,0.850399,27.511347,22.396823,-120.564187
10444,-4.959832,3.279703,8.376278,-0.208782,1.478545,0.350404,-0.568586,0.120689,-0.213653,-0.049513,0.033088,0.083699,0.999995,-0.002843,0.000603,-0.001068,-0.432188,-0.278866,0.106081,0.850996,27.153817,22.515545,-120.647163
10445,-4.288636,3.909014,8.328041,-0.042479,0.538152,0.323268,-0.165479,-0.092139,-0.161065,-0.042893,0.039194,0.083228,0.999999,-0.000827,-0.000461,-0.000805,-0.431680,-0.278216,0.105335,0.851559,27.014271,22.513052,-120.762111
10446,-3.719305,3.841144,8.468799,-0.412218,0.101524,0.193702,-0.331243,-0.027777,-0.170068,-0.037172,0.038583,0.084619,0.999998,-0.001656,-0.000139,-0.000850,-0.431401,-0.277481,0.103742,0.852136,26.785518,22.544034,-120.863655
10447,-4.105935,4.771473,7.557847,0.936086,-0.112357,-0.021988,-0.080343,-0.151197,-0.138020,-0.041084,0.047773,0.075528,0.999999,-0.000402,-0.000756,-0.000690,-0.430841,-0.276749,0.103518,0.852684,26.693282,22.504743,-120.982313
10448,-2.983665,4.101675,8.481006,-0.545153,-0.671210,0.031375,-0.433989,0.039167,-0.241828,-0.029770,0.041237,0.084727,0.999997,-0.002170,0.000196,-0.001209,-0.430429,-0.276114,0.101243,0.853371,26.397393,22.587831,-121.105341
10449,-4.275882,4.535809,7.841525,0.748439,0.103057,0.176078,-0.176370,-0.058243,-0.123498,-0.042754,0.045454,0.078363,0.999999,-0.000882,-0.000291,-0.000617,-0.430111,-0.275563,0.100429,0.853805,26.263081,22.591767,-121.190062
10450,-3.369777,4.878849,8.627006,0.128311,-0.889101,0.616923,-0.236834,0.052476,-0.070354,-0.033658,0.048902,0.086221,0.999999,-0.001184,0.000262,-0.000352,-0.430162,-0.275321,0.099203,0.854001,26.117908,22.637630,-121.214556
10451,-4.826113,3.422014,8.432692,-0.040945,1.140679,0.424936,-0.308197,0.101324,-0.020449,-0.048215,0.034355,0.084298,0.999999,-0.001541,0.000507,-0.000102,-0.430545,-0.275115,0.097625,0.854056,25.946913,22.697375,-121.198338
10452,-4.075204,4.829059,8.208009,0.690510,-0.300210,0.518410,0.096862,-0.075496,0.048593,-0.040795,0.048241,0.082088,1.000000,0.000484,-0.000377,0.000243,-0.430581,-0.274986,0.098263,0.854006,26.005012,22.647388,-121.191435
10453,-3.971075,5.524695,8.128835,1.158235,-0.795527,0.694229,-0.074214,0.053584,0.096531,-0.039716,0.055258,0.081278,1.000000,-0.000371,0.000268,0.000483,-0.431117,-0.275022,0.097948,0.853760,25.988209,22.653217,-121.122968
10454,-4.275437,4.964053,7.971975,1.009429,-0.202457,0.454427,-0.069732,0.073934,0.139795,-0.042760,0.049638,0.079718,1.000000,-0.000349,0.000370,0.000699,-0.431845,-0.275127,0.097678,0.853389,25.986114,22.657292,-121.024526
10455,-4.168971,5.031694,7.887791,1.052938,-0.320163,0.370844,-0.078626,0.052995,0.153005,-0.041707,0.050316,0.078869,1.000000,-0.000393,0.000265,0.000765,-0.432628,-0.275125,0.097423,0.853023,25.978992,22.648660,-120.924653
10456,-3.231073,4.846955,7.938146,0.459959,-0.955988,-0.023843,-0.166623,0.064070,0.092925,-0.032308,0.048521,0.079351,0.999999,-0.000833,0.000320,0.000465,-0.433284,-0.275000,0.096696,0.852813,25.910269,22.659469,-120.855061
10457,-3.654928,4.425539,8.436831,0.109450,-0.415844,0.382363,-0.334537,0.161201,0.096583,-0.036503,0.044379,0.084324,0.999998,-0.001673,0.000806,0.000483,-0.434228,-0.274931,0.095039,0.852541,25.755838,22.720942,-120.757350
10458,-3.109416,4.027443,7.972113,-0.151693,-0.588474,-0.374784,-0.202702,0.089286,0.072257,-0.031073,0.040344,0.079694,0.999999,-0.001014,0.000446,0.000361,-0.434857,-0.274846,0.094075,0.852355,25.664687,22.750168,-120.692539
10459,-2.846304,3.429231,9.019100,-1.253413,-0.542660,0.154237,-0.347208,0.285000,0.044531,-0.028342,0.034443,0.090172,0.999997,-0.001736,0.001425,0.000223,-0.435652,-0.275299,0.092023,0.852027,25.504727,22.888836,-120.590957
10460,-4.109735,3.149771,9.480290,-1.103849,0.558979,0.918383,-0.164682,0.241005,0.079448,-0.040996,0.031559,0.094826,0.999999,-0.000823,0.001205,0.000397,-0.436327,-0.275939,0.090901,0.851595,25.452967,22.995007,-120.481529
10461,-2.616067,3.907361,8.584363,-0.794505,-1.017233,-0.110288,0.133068,0.110228,0.058414,-0.026125,0.039009,0.085884,1.000000,0.000665,0.000551,0.000292,-0.436438,-0.276686,0.091293,0.851253,25.553124,23.039940,-120.419091
10462,-1.409980,4.127202,8.813233,-1.343339,-2.141762,-0.309892,-0.098507,0.347658,-0.050509,-0.013936,0.041319,0.088136,0.999998,-0.000493,0.001738,-0.000253,-0.436517,-0.277982,0.090040,0.850924,25.522279,23.233244,-120.353801
10463,-1.935064,3.254676,9.172781,-1.910443,-1.276773,-0.158825,-0.243582,0.492535,-0.222306,-0.019088,0.032680,0.091735,0.999996,-0.001218,0.002463,-0.001112,-0.436126,-0.279658,0.087606,0.850830,25.384955,23.544955,-120.346891
10464,-1.582101,3.549353,9.186153,-1.888177,-1.789706,-0.183676,-0.088562,0.394495,-0.447055,-0.015560,0.035569,0.091877,0.999995,-0.000443,0.001972,-0.002235,-0.434518,-0.281346,0.085738,0.851286,25.275086,23.859936,-120.493827
10465,-1.301744,5.851630,9.472396,-0.606361,-3.489297,0.823065,0.031701,0.273807,-0.598991,-0.012712,0.058540,0.094751,0.999995,0.000159,0.001369,-0.002995,-0.432035,-0.282847,0.084422,0.852183,25.184209,24.150080,-120.760444
10466,2.357082,9.598359,11.699391,-1.012490,-8.910239,2.602717,0.196613,-0.054314,-0.535528,0.023796,0.095805,0.117095,0.999996,0.000983,-0.000272,-0.002678,-0.429450,-0.283273,0.084614,0.853328,25.166164,24.253538,-121.079109
10467,4.335984,9.059299,10.246684,-1.536418,-9.998863,0.362196,-0.212288,-0.116454,-0.467233,0.043512,0.090600,0.102396,0.999997,-0.001061,-0.000582,-0.002336,-0.427705,-0.282526,0.083288,0.854582,24.922061,24.307824,-121.376030
10468,5.102159,6.834139,8.217648,-2.322434,-9.028222,-2.507585,0.120590,0.022271,-0.484297,0.051196,0.068168,0.082212,0.999997,0.000603,0.000111,-0.002421,-0.425472,-0.283088,0.083066,0.855532,24.879624,24.437331,-121.646151
10469,4.478564,11.188889,10.431800,-0.363691,-11.470711,1.248989,0.600418,-0.244555,-0.396742,0.044879,0.111486,0.104708,0.999993,0.003002,-0.001223,-0.001984,-0.422821,-0.283487,0.085589,0.856465,25.103217,24.406954,-121.937158
10470,5.059955,9.450673,8.778331,-0.978331,-10.645918,-0.998817,0.416576,-0.290191,-0.193296,0.050563,0.094275,0.088053,0.999996,0.002083,-0.001451,-0.000966,-0.421277,-0.283215,0.087707,0.857101,25.264563,24.304716,-122.124537
10471,4.810938,9.555789,8.572713,-0.734719,-10.466013,-0.988193,0.603340,-0.263536,-0.056842,0.048023,0.095285,0.086078,0.999995,0.003017,-0.001318,-0.000284,-0.420064,-0.283380,0.090771,0.857323,25.568369,24.182029,-122.227346
10472,4.098064,8.955374,8.563863,-0.840423,-9.496326,-0.899457,0.493208,-0.204408,0.072761,0.040860,0.089357,0.085901,0.999996,0.002466,-0.001022,0.000364,-0.419582,-0.283514,0.093412,0.857231,25.845096,24.059515,-122.241542
10473,3.580079,8.091438,8.834566,-1.356768,-8.535370,-0.776966,0.447349,-0.121580,0.122707,0.035697,0.080738,0.088548,0.999997,0.002237,-0.000608,0.000614,-0.419422,-0.283870,0.095769,0.856932,26.116974,23.965025,-122.205029
10474,2.078921,7.346162,9.562689,-1.566437,-6.924088,0.154063,0.387621,-0.093816,0.166930,0.020683,0.073293,0.095779,0.999998,0.001938,-0.000469,0.000835,-0.419540,-0.284208,0.097858,0.856525,26.366644,23.875615,-122.136864
10475,1.207039,6.399382,9.659731,-1.853892,-5.620234,0.222014,0.418709,-0.184356,0.172201,0.011926,0.063802,0.096742,0.999997,0.002094,-0.000922,0.000861,-0.419599,-0.284205,0.100297,0.856215,26.625989,23.735351,-122.091000
10476,0.629037,5.938405,9.633799,-1.892670,-4.831378,0.264299,0.495457,-0.267358,0.163922,0.006113,0.059150,0.096493,0.999996,0.002477,-0.001337,0.000820,-0.419460,-0.284025,0.103207,0.855997,26.916442,23.557371,-122.074455
10477,-0.196847,5.705606,9.740850,-1.735514,-3.993156,0.604565,0.494688,-0.318356,0.140099,-0.002164,0.056813,0.097546,0.999995,0.002473,-0.001592,0.000700,-0.419200,-0.283617,0.106208,0.855893,27.196274,23.356240,-122.086060
10478,-0.432092,5.183565,9.318439,-1.747862,-3.399983,0.150950,0.497836,-0.370938,0.143115,-0.004531,0.051600,0.093305,0.999995,0.002489,-0.001855,0.000716,-0.418907,-0.283004,0.109313,0.855848,27.470960,23.130873,-122.112650
10479,-0.632841,5.166283,8.853506,-1.420068,-3.150173,-0.141338,0.542337,-0.325344,0.132106,-0.006507,0.051418,0.088664,0.999995,0.002712,-0.001627,0.000661,-0.418535,-0.282662,0.112521,0.855728,27.774881,22.928105,-122.132755
10480,-1.149680,5.484184,9.135867,-1.156443,-2.901889,0.439308,0.574666,-0.216350,0.169555,-0.011642,0.054569,0.091503,0.999995,0.002873,-0.001082,0.000848,-0.418324,-0.282850,0.115666,0.855349,28.115903,22.774156,-122.102314
10481,-2.844222,6.383030,10.166447,-0.385612,-2.110806,2.335742,0.679210,-0.191672,0.322454,-0.028642,0.063439,0.101853,0.999992,0.003396,-0.000958,0.001612,-0.418639,-0.283249,0.119448,0.854543,28.552688,22.587030,-121.981598
10482,-3.255826,6.552912,9.810209,0.082626,-1.785144,2.294598,0.784662,-0.369968,0.570532,-0.032926,0.065050,0.098297,0.999987,0.003923,-0.001850,0.002853,-0.419739,-0.282975,0.124376,0.853390,29.078349,22.244822,-121.781928
10483,-3.250951,6.901989,9.433905,0.481946,-1.873492,2.164832,0.757486,-0.419574,0.686206,-0.032943,0.068550,0.094530,0.999985,0.003787,-0.002098,0.003431,-0.421339,-0.282329,0.129479,0.852055,29.604922,21.839693,-121.538279
10484,-3.633692,6.043310,9.344393,0.138189,-0.922948,1.856540,0.545282,-0.478891,0.729000,-0.036780,0.060045,0.093520,0.999987,0.002726,-0.002394,0.003645,-0.423359,-0.280970,0.133834,0.850830,30.007008,21.395060,-121.294747
10485,-3.693653,5.564173,9.089783,0.001339,-0.464944,1.457181,0.457004,-0.625849,0.688722,-0.037412,0.055306,0.090908,0.999987,0.002285,-0.003129,0.003444,-0.425235,-0.278797,0.138090,0.849929,30.332616,20.883747,-121.121202
10486,-2.892416,5.377107,8.704088,-0.266593,-0.884637,0.779100,0.275012,-0.712868,0.594806,-0.029394,0.053564,0.087010,0.999988,0.001375,-0.003564,0.002974,-0.426882,-0.275946,0.141597,0.849456,30.523008,20.360028,-121.027848
10487,-2.492506,4.772704,8.247718,-0.556787,-0.756470,-0.007931,0.175939,-0.705800,0.511032,-0.025338,0.047590,0.082430,0.999990,0.000880,-0.003529,0.002555,-0.428317,-0.272945,0.144577,0.849201,30.642287,19.859900,-120.977551
10488,-2.916817,4.829116,8.064450,-0.180065,-0.367225,0.020707,0.187348,-0.703139,0.505022,-0.029573,0.048141,0.080586,0.999990,0.000937,-0.003516,0.002525,-0.429693,-0.270001,0.147561,0.848934,30.765060,19.366826,-120.931408
10489,-3.427383,5.252393,8.187443,0.294139,-0.111918,0.495999,0.261813,-0.676640,0.565402,-0.034699,0.052319,0.081826,0.999989,0.001309,-0.003383,0.002827,-0.431247,-0.267257,0.150910,0.848425,30.944019,18.864821,-120.846570
10490,-5.559311,5.616792,9.724302,0.684698,1.562261,2.601226,0.396172,-0.712500,0.764755,-0.056153,0.055761,0.097154,0.999984,0.001981,-0.003562,0.003824,-0.433418,-0.264516,0.155141,0.847415,31.226362,18.290039,-120.672650
10491,-6.898402,5.953611,9.755914,1.549629,2.641163,3.180775,0.631314,-1.116528,1.069249,-0.069844,0.058857,0.097357,0.999965,0.003157,-0.005583,0.005346,-0.436243,-0.260301,0.161666,0.846049,31.650409,17.421743,-120.473151
10492,-5.006560,5.897582,8.500302,1.354260,1.275246,1.529179,0.590211,-1.335160,1.246253,-0.050997,0.058409,0.084838,0.999954,0.002951,-0.006676,0.006231,-0.439648,-0.254929,0.168684,0.844551,32.050313,16.396189,-120.260726
10493,-4.608412,3.716828,7.162121,0.540761,2.269119,-0.818003,0.423950,-1.341985,1.289246,-0.046801,0.036717,0.071387,0.999954,0.002120,-0.006710,0.006446,-0.443410,-0.249083,0.175081,0.843026,32.355827,15.349197,-120.036058
10494,-4.427398,2.239901,6.576559,-0.156675,3.032755,-2.154614,0.533212,-1.283154,1.250782,-0.044833,0.021945,0.065538,0.999956,0.002666,-0.006416,0.006254,-0.446876,-0.243759,0.181718,0.841346,32.716734,14.345008,-119.819670
10495,-5.636459,1.749926,6.998426,-0.126768,4.488320,-1.834804,0.642788,-1.184063,1.164709,-0.056878,0.016945,0.069704,0.999960,0.003214,-0.005920,0.005823,-0.449908,-0.239135,0.188498,0.839563,33.133538,13.410349,-119.621746
10496,-6.621146,2.278414,7.433243,0.456800,5.233015,-1.055508,0.692548,-1.150664,1.062850,-0.066757,0.022174,0.074027,0.999963,0.003463,-0.005753,0.005314,-0.452441,-0.234860,0.195252,0.837863,33.564069,12.525901,-119.471219
10497,-6.872101,2.249608,7.184300,0.708901,5.572679,-1.307315,0.551130,-1.066117,0.953980,-0.069209,0.021969,0.071536,0.999971,0.002756,-0.005331,0.004770,-0.454745,-0.230693,0.201102,0.836389,33.905581,11.712277,-119.352570
10498,-6.831746,2.285006,6.563736,1.076102,5.559274,-1.880997,0.458152,-0.914199,0.853901,-0.068713,0.022407,0.065376,0.999978,0.002291,-0.004571,0.004269,-0.456858,-0.227056,0.206072,0.835021,34.190637,11.005391,-119.237777
10499,-7.424569,2.819282,6.819431,1.577562,5.939026,-1.338299,0.415709,-0.741008,0.796879,-0.074609,0.027755,0.067976,0.999983,0.002079,-0.003705,0.003984,-0.458949,-0.224080,0.210413,0.833595,34.455602,10.395698,-119.097024
10500,-8.867214,3.771516,8.491794,1.958517,7.064988,0.732965,0.367779,-0.686079,0.825823,-0.089117,0.037192,0.084681,0.999984,0.001839,-0.003430,0.004129,-0.461251,-0.221200,0.214437,0.832067,34.696007,9.804552,-118.927440
10501,-8.821767,2.640220,8.586401,1.124690,7.708718,0.078182,0.321915,-0.805856,0.934518,-0.088684,0.025851,0.085549,0.999980,0.001610,-0.004029,0.004673,-0.463915,-0.217579,0.218671,0.830437,34.910396,9.118791,-118.748294
10502,-7.061441,1.083429,6.206407,0.581147,6.644804,-3.099653,0.434169,-0.827707,0.943836,-0.070920,0.010366,0.061794,0.999978,0.002171,-0.004139,0.004719,-0.466447,-0.214121,0.223411,0.828654,35.185456,8.421027,-118.575437
10503,-6.641877,1.134625,5.424667,0.847477,6.198013,-3.838185,0.391541,-0.511211,0.798065,-0.066601,0.010975,0.054098,0.999987,0.001958,-0.002556,0.003990,-0.468762,-0.212021,0.227080,0.826888,35.439379,7.917272,-118.368988
10504,-8.568390,1.138602,5.797912,1.522442,7.994095,-3.323799,0.258263,-0.184830,0.636176,-0.085773,0.011038,0.057914,0.999994,0.001291,-0.000924,0.003181,-0.470906,-0.211147,0.229248,0.825294,35.619432,7.620298,-118.131245
10505,-9.560575,1.024975,5.311250,2.146710,8.863191,-3.688986,0.196418,0.030828,0.516248,-0.095623,0.009951,0.053137,0.999996,0.000982,0.000154,0.002581,-0.472865,-0.211147,0.230530,0.823815,35.765244,7.462236,-117.878022
10506,-9.618777,0.813057,4.643552,2.361488,8.909183,-4.354287,0.037933,0.339837,0.353933,-0.096123,0.007952,0.046600,0.999997,0.000190,0.001699,0.001770,-0.474674,-0.212236,0.230250,0.822572,35.823542,7.502591,-117.596790
10507,-11.333062,0.457251,5.001943,2.643250,10.634998,-4.018192,-0.180780,0.734135,0.149653,-0.113149,0.004533,0.050431,0.999993,-0.000904,0.003671,0.000748,-0.476324,-0.214659,0.227915,0.821639,35.762253,7.794575,-117.277934
10508,-13.048457,-0.791376,3.828073,3.164739,12.478910,-5.362726,-0.435183,1.014600,-0.109721,-0.130292,-0.007758,0.038959,0.999985,-0.002176,0.005073,-0.000549,-0.477490,-0.217921,0.223585,0.821294,35.553619,8.304582,-116.986801
10509,-12.128385,-1.992504,4.806615,1.297018,12.313195,-5.244240,-0.502607,1.395176,-0.531283,-0.120997,-0.019481,0.048960,0.999969,-0.002513,0.006976,-0.002656,-0.477400,-0.223050,0.217592,0.821579,35.298355,9.134368,-116.768570
10510,-10.798756,3.560924,12.503614,0.026607,9.659111,4.055682,0.106884,0.945004,-0.640269,-0.107281,0.035886,0.125563,0.999984,0.000534,0.004725,-0.003201,-0.475671,-0.227889,0.215052,0.821922,35.361918,9.789272,-116.754087
10511,-1.152154,5.866301,11.208591,-1.993456,-0.149373,2.732305,0.198346,0.260443,-0.680883,-0.011176,0.058590,0.112159,0.999993,0.000992,0.001302,-0.003404,-0.472920,-0.230178,0.214452,0.823028,35.434198,10.139706,-116.988881
10512,3.329585,8.681763,11.170997,-2.128195,-5.448596,3.492672,0.153821,0.304507,-0.949079,0.033877,0.086572,0.111725,0.999987,0.000769,0.001523,-0.004745,-0.469158,-0.232818,0.213265,0.824745,35.459815,10.598235,-117.335895
10513,0.407892,8.866837,10.313388,-0.234800,-3.187298,3.413737,-0.248180,0.268757,-0.773996,0.004561,0.088779,0.103018,0.999991,-0.001241,0.001344,-0.003870,-0.466535,-0.234182,0.210691,0.826507,35.264938,10.982968,-117.613026
10514,-0.992296,5.752889,7.034770,0.210239,-0.989611,-0.727283,-0.178984,0.313859,-0.538508,-0.009658,0.057618,0.070311,0.999995,-0.000895,0.001569,-0.002693,-0.464848,-0.235636,0.208582,0.827578,35.133167,11.308797,-117.763884
10515,-4.238853,3.754027,6.080658,0.897447,2.612262,-1.976529,-0.153502,0.561328,-0.445324,-0.042134,0.037681,0.060896,0.999993,-0.000768,0.002807,-0.002227,-0.463765,-0.238079,0.206100,0.828108,35.039693,11.720964,-117.787983
10516,-5.194203,2.647879,7.528332,-0.277782,4.095547,-1.221078,0.028509,0.589871,-0.431697,-0.051662,0.026580,0.075440,0.999993,0.000143,0.002949,-0.002158,-0.462549,-0.241039,0.204330,0.828371,35.054287,12.140724,-117.796120
10517,-3.410388,3.332420,9.309738,-1.719837,2.377289,0.227102,0.301745,0.389389,-0.517792,-0.033836,0.033271,0.093214,0.999994,0.001509,0.001947,-0.002589,-0.460432,-0.243892,0.204036,0.828787,35.201466,12.496483,-117.912803
10518,-1.259938,4.483465,9.994857,-2.391423,-0.006514,0.951456,0.273208,0.277274,-0.693344,-0.012306,0.044741,0.100027,0.999992,0.001366,0.001386,-0.003467,-0.457506,-0.246384,0.203677,0.829758,35.305706,12.856541,-118.150851
10519,-2.150069,4.229986,10.030098,-2.211423,0.844598,1.027720,0.171612,0.240873,-0.792549,-0.021212,0.042298,0.100363,0.999991,0.000858,0.001204,-0.003963,-0.454244,-0.248595,0.202841,0.831095,35.335707,13.234254,-118.449047
10520,-2.900654,4.073982,8.777137,-1.248363,1.386681,0.115445,0.312810,0.054385,-0.856394,-0.028808,0.040726,0.087843,0.999990,0.001564,0.000272,-0.004282,-0.450348,-0.250405,0.202946,0.832645,35.424049,13.544791,-118.841269
10521,-2.377486,4.029699,7.718182,-0.914789,0.810509,-0.870243,0.270415,0.050107,-0.979466,-0.023558,0.040308,0.077242,0.999987,0.001352,0.000251,-0.004897,-0.445973,-0.252227,0.202709,0.834505,35.470274,13.896199,-119.294559
10522,-2.317484,4.819386,6.981753,-0.024277,0.223375,-1.021140,0.331985,0.052448,-1.106384,-0.022890,0.048205,0.069904,0.999983,0.001660,0.000262,-0.005532,-0.440984,-0.254312,0.202574,0.836554,35.535369,14.289834,-119.808160
10523,-1.382848,6.845708,6.310908,1.173044,-1.771155,-0.642634,0.238712,0.091184,-1.183054,-0.013395,0.068462,0.063197,0.999982,0.001194,0.000456,-0.005915,-0.435813,-0.256426,0.201843,0.838792,35.536022,14.728856,-120.346416
10524,-0.331077,8.024419,5.646263,1.750365,-3.445253,-0.787912,-0.041287,0.358518,-1.163332,-0.002743,0.080273,0.056451,0.999981,-0.000206,0.001793,-0.005817,-0.431341,-0.259017,0.199388,0.840892,35.398857,15.283942,-120.784564
10525,-2.477967,9.277230,6.383907,3.096093,-2.383505,1.035962,-0.191890,0.625157,-0.962050,-0.024133,0.092951,0.063826,0.999983,-0.000959,0.003126,-0.004810,-0.428158,-0.262200,0.195965,0.842336,35.220157,15.897220,-121.036447
10526,-4.515762,9.909953,8.049662,3.446937,-1.001653,3.245278,-0.241927,0.677185,-0.563775,-0.044605,0.099323,0.080528,0.999990,-0.001210,0.003386,-0.002819,-0.426760,-0.265092,0.192750,0.842882,35.069807,16.401463,-121.078429
10527,-5.801513,8.705175,8.924116,2.793712,0.710148,3.632294,-0.521544,0.586266,-0.269002,-0.057636,0.087362,0.089183,0.999991,-0.002608,0.002931,-0.001345,-0.426875,-0.266721,0.188927,0.843175,34.789954,16.767497,-121.009360
10528,-4.077205,5.294728,8.345131,0.197960,1.079971,0.821829,-0.583041,0.483060,-0.195780,-0.040519,0.053230,0.083394,0.999992,-0.002915,0.002415,-0.000979,-0.427281,-0.267705,0.185171,0.843491,34.475737,17.060015,-120.940957
10529,-3.970799,5.506347,8.601006,0.138572,0.824429,1.112748,-0.465792,0.329151,-0.255248,-0.039496,0.055314,0.085947,0.999995,-0.002329,0.001646,-0.001276,-0.427126,-0.268348,0.182144,0.844023,34.203818,17.300750,-120.955764
10530,-3.700555,6.388366,7.988617,0.951103,-0.008534,1.023285,-0.499716,0.230449,-0.273980,-0.036826,0.064134,0.079769,0.999995,-0.002499,0.001152,-0.001370,-0.426849,-0.268510,0.179170,0.844749,33.899991,17.499087,-121.014126
10531,-3.634229,6.407641,7.917253,1.007792,-0.141417,0.953568,-0.644338,0.237487,-0.236918,-0.036172,0.064374,0.079008,0.999993,-0.003222,0.001187,-0.001185,-0.426919,-0.268365,0.175606,0.845508,33.518379,17.690176,-121.053140
10532,-3.436008,5.474363,7.907227,0.371806,0.169333,0.391806,-0.681246,0.220468,-0.201642,-0.034218,0.055047,0.078923,0.999993,-0.003406,0.001102,-0.001008,-0.427172,-0.268026,0.171979,0.846233,33.119425,17.860240,-121.081212
10533,-3.078411,5.015329,7.709085,0.067305,0.070942,-0.114742,-0.695212,0.215149,-0.184974,-0.030655,0.050449,0.076949,0.999993,-0.003476,0.001076,-0.000925,-0.427498,-0.267625,0.168313,0.846931,32.713462,18.023901,-121.104093
10534,-2.648325,4.835363,7.647194,-0.180308,-0.237047,-0.390119,-0.714259,0.260721,-0.184458,-0.026339,0.048651,0.076333,0.999992,-0.003571,0.001304,-0.000922,-0.427889,-0.267364,0.164478,0.847570,32.301401,18.207727,-121.112973
10535,-3.200553,4.354102,8.448197,-0.653605,0.468040,0.183664,-0.698872,0.316065,-0.166870,-0.031836,0.043863,0.084379,0.999992,-0.003494,0.001580,-0.000834,-0.428369,-0.267360,0.160600,0.848072,31.905506,18.414511,-121.096702
10536,-4.122818,3.523531,8.818812,-0.921375,1.657314,0.365153,-0.544311,0.244422,-0.112714,-0.041100,0.035498,0.088142,0.999995,-0.002722,0.001222,-0.000564,-0.428813,-0.267328,0.157612,0.848419,31.599994,18.568637,-121.076479
10537,-3.624560,3.035602,8.789442,-1.442028,1.494994,-0.050922,-0.288388,0.141254,-0.091913,-0.036170,0.030499,0.087876,0.999999,-0.001442,0.000706,-0.000460,-0.428915,-0.267397,0.155946,0.848653,31.433265,18.667767,-121.079048
10538,-3.629787,3.683211,8.566638,-0.881363,1.091645,0.094894,-0.118638,0.049171,-0.094568,-0.036259,0.036900,0.085653,1.000000,-0.000593,0.000246,-0.000473,-0.428710,-0.267433,0.155205,0.848881,31.354679,18.721101,-121.111972
10539,-3.291173,4.427674,8.076838,-0.273544,0.352855,-0.041706,-0.075484,0.004803,-0.106735,-0.032886,0.044325,0.080752,1.000000,-0.000377,0.000024,-0.000534,-0.428357,-0.267391,0.154714,0.849162,31.293425,18.757883,-121.165514
10540,-3.220070,4.828641,8.117688,-0.070092,0.051594,0.165985,-0.058694,0.040110,-0.088900,-0.032163,0.048325,0.081169,1.000000,-0.000293,0.000201,-0.000444,-0.428089,-0.267512,0.154255,0.849342,31.249120,18.805027,-121.198491
10541,-3.533825,4.491060,8.140022,-0.143504,0.494232,0.119715,-0.071274,0.010233,-0.072851,-0.035318,0.044952,0.081386,1.000000,-0.000356,0.000051,-0.000364,-0.427878,-0.267475,0.153816,0.849540,31.196367,18.834309,-121.232887
10542,-2.906757,4.894744,7.926033,-0.062389,-0.264331,-0.057895,-0.021543,-0.005381,-0.095680,-0.029046,0.048970,0.079254,1.000000,-0.000108,-0.000027,-0.000478,-0.427497,-0.267488,0.153603,0.849767,31.167541,18.861117,-121.283726
10543,-3.571939,5.354195,8.039031,0.498336,-0.002221,0.473411,-0.096247,0.015077,-0.102425,-0.035686,0.053599,0.080367,1.000000,-0.000481,0.000075,-0.000512,-0.427197,-0.267440,0.153007,0.850040,31.095947,18.901475,-121.331997
10544,-3.635055,5.091415,8.103023,0.331031,0.194114,0.417065,-0.115501,-0.016836,-0.085334,-0.036336,0.050976,0.080998,1.000000,-0.000578,-0.000084,-0.000427,-0.426976,-0.267196,0.152433,0.850331,31.013788,18.919496,-121.381129
10545,-3.772876,5.253243,8.351750,0.368381,0.209537,0.742087,-0.096372,-0.046251,-0.060012,-0.037732,0.052584,0.083483,1.000000,-0.000482,-0.000231,-0.000300,-0.426810,-0.266855,0.152024,0.850594,30.943027,18.917109,-121.426607
10546,-3.492227,4.970732,7.883954,0.332537,0.131953,0.133797,-0.089096,-0.095041,-0.031606,-0.034952,0.049748,0.078801,1.000000,-0.000445,-0.000475,-0.000158,-0.426722,-0.266293,0.151800,0.850854,30.877153,18.880754,-121.472195
10547,-2.711816,4.967805,7.532777,0.161187,-0.508622,-0.405718,-0.095295,-0.060519,-0.023594,-0.027135,0.049717,0.075296,1.000000,-0.000476,-0.000303,-0.000118,-0.426698,-0.265866,0.151475,0.851058,30.811766,18.860564,-121.503141
10548,-2.405271,5.101448,7.447711,0.155940,-0.843308,-0.509838,-0.146003,0.000490,-0.049149,-0.024040,0.051075,0.074440,1.000000,-0.000730,0.000002,-0.000246,-0.426683,-0.265602,0.150783,0.851271,30.719961,18.876275,-121.528163
10549,-3.098418,5.135838,7.892794,0.276351,-0.307755,0.091962,-0.267651,0.074655,-0.089122,-0.030932,0.051478,0.078871,0.999999,-0.001338,0.000373,-0.000446,-0.426710,-0.265431,0.149349,0.851563,30.558329,18.941697,-121.551442
10550,-2.974156,4.188232,7.741501,-0.292953,0.125269,-0.527422,-0.296498,0.044686,-0.114233,-0.029700,0.042014,0.077359,0.999999,-0.001482,0.000223,-0.000571,-0.426650,-0.265082,0.147834,0.851966,30.373587,18.998018,-121.596977
10551,-3.283916,4.846239,8.254640,0.009874,-0.027332,0.307010,-0.290116,0.070616,-0.146222,-0.032775,0.048606,0.082488,0.999999,-0.001451,0.000353,-0.000731,-0.426459,-0.264888,0.146237,0.852398,30.188746,19.077781,-121.651816
10552,-4.523869,4.947113,9.172622,0.181354,0.906439,1.510816,-0.260296,0.028946,-0.091639,-0.045203,0.049611,0.091668,0.999999,-0.001301,0.000145,-0.000458,-0.426434,-0.264531,0.144939,0.852743,30.026828,19.119536,-121.690694
10553,-4.963577,4.391485,8.939408,0.193309,1.573908,1.201878,-0.160197,-0.113310,0.029223,-0.049693,0.043979,0.089331,1.000000,-0.000801,-0.000567,0.000146,-0.426684,-0.263701,0.144519,0.852946,29.928132,19.057536,-121.709570
10554,-3.034710,4.077613,8.040191,-0.437388,0.196666,-0.312632,-0.039284,-0.162876,0.074553,-0.030428,0.040781,0.080369,1.000000,-0.000196,-0.000814,0.000373,-0.426935,-0.262877,0.144793,0.853028,29.902411,18.956416,-121.719254
10555,-3.243418,3.450565,7.661083,-0.513517,0.735661,-0.850910,-0.099369,-0.097862,0.045230,-0.032479,0.034536,0.076578,1.000000,-0.000497,-0.000489,0.000226,-0.427183,-0.262231,0.144620,0.853132,29.842858,18.897536,-121.724934
10556,-2.360307,2.851643,7.545736,-1.270010,0.381413,-1.513131,-0.006266,-0.073084,0.005450,-0.023631,0.028518,0.075448,1.000000,-0.000031,-0.000365,0.000027,-0.427162,-0.261910,0.144751,0.853219,29.833134,18.860730,-121.743711
10557,-1.613753,2.701250,7.635709,-1.790014,-0.126589,-1.751371,0.030018,-0.017023,-0.095485,-0.016131,0.027009,0.076360,1.000000,0.000150,-0.000085,-0.000477,-0.426698,-0.261986,0.144773,0.853424,29.831616,18.882121,-121.798932
10558,-1.254768,3.767417,7.002152,-0.917533,-1.067156,-1.886950,0.094110,0.021323,-0.250352,-0.012493,0.037657,0.070041,0.999999,0.000471,0.000107,-0.001252,-0.425522,-0.262467,0.144796,0.853860,29.845028,18.965159,-121.923661
10559,-1.489445,5.680981,6.814157,0.540534,-2.043282,-1.068692,-0.025851,0.206994,-0.359405,-0.014722,0.056845,0.068150,0.999998,-0.000129,0.001035,-0.001797,-0.424166,-0.263570,0.143755,0.854370,29.787934,19.172968,-122.050263
10560,-4.375175,7.024298,8.608246,1.826767,-0.547177,1.974932,-0.295078,0.332389,-0.340885,-0.043489,0.070444,0.086051,0.999996,-0.001475,0.001662,-0.001704,-0.423336,-0.264617,0.141335,0.854862,29.592540,19.436223,-122.129716
10561,-5.215284,5.335781,8.761557,1.076588,1.082990,1.593559,-0.394769,0.204291,-0.215727,-0.052006,0.053587,0.087563,0.999997,-0.001974,0.001021,-0.001079,-0.423075,-0.264821,0.138912,0.855325,29.347864,19.601406,-122.182716
10562,-4.113637,3.958116,8.215663,-0.042477,0.989086,0.142494,-0.270628,0.097830,-0.131856,-0.041070,0.039719,0.082123,0.999999,-0.001353,0.000489,-0.000659,-0.422937,-0.264766,0.137368,0.855660,29.179125,19.688310,-122.223232
10563,-3.328381,3.715527,8.164411,-0.552166,0.484526,-0.273235,-0.217719,0.080492,-0.122243,-0.033228,0.037264,0.081617,0.999999,-0.001089,0.000402,-0.000611,-0.422752,-0.264749,0.136088,0.855961,29.039718,19.765230,-122.264346
10564,-3.186460,3.004069,8.274163,-1.140327,0.780321,-0.553614,-0.178240,0.114593,-0.167369,-0.031792,0.030141,0.082733,0.999999,-0.000891,0.000573,-0.000837,-0.422349,-0.264985,0.134856,0.856281,28.918891,19.870204,-122.319339
10565,-3.068327,2.364854,8.387085,-1.673337,1.048089,-0.787626,-0.193528,0.130494,-0.294335,-0.030594,0.023775,0.083868,0.999998,-0.000968,0.000652,-0.001472,-0.421429,-0.265348,0.133344,0.856859,28.766634,20.019599,-122.438092
10566,-3.282334,3.540694,8.378862,-0.792020,0.474665,-0.186530,-0.007996,0.064350,-0.392991,-0.032727,0.035475,0.083798,0.999998,-0.000040,0.000322,-0.001965,-0.419797,-0.265876,0.132647,0.857604,28.696382,20.161247,-122.629097
10567,-3.445402,5.090349,8.085135,0.458508,-0.371269,0.326530,0.055399,0.037286,-0.411123,-0.034334,0.050952,0.080872,0.999998,0.000277,0.000186,-0.002056,-0.417980,-0.266439,0.132242,0.858379,28.654760,20.295552,-122.838447
10568,-4.026606,6.191274,8.289181,1.347670,-0.620318,1.189805,-0.095961,0.062182,-0.357374,-0.040130,0.062024,0.082875,0.999998,-0.000480,0.000311,-0.001787,-0.416614,-0.266750,0.131219,0.859104,28.539453,20.425921,-123.011661
10569,-3.484827,5.325471,7.780951,0.807042,-0.547323,0.192155,-0.207908,0.071217,-0.308609,-0.034738,0.053389,0.077766,0.999998,-0.001040,0.000356,-0.001543,-0.415607,-0.266839,0.129748,0.859786,28.368610,20.548563,-123.156869
10570,-4.049758,5.250014,8.548105,0.626808,-0.094097,0.986914,-0.285915,0.106007,-0.277857,-0.040379,0.052678,0.085427,0.999998,-0.001430,0.000530,-0.001389,-0.414862,-0.266889,0.127922,0.860404,28.162935,20.678531,-123.275595
10571,-4.332181,4.550603,8.692637,0.256978,0.523609,0.896998,-0.289591,0.066818,-0.250432,-0.043236,0.045686,0.086875,0.999998,-0.001448,0.000334,-0.001252,-0.414209,-0.266750,0.126186,0.861018,27.955070,20.782326,-123.391722
10572,-4.250804,5.487993,8.709629,0.826629,-0.152308,1.293099,-0.099381,-0.039177,-0.200951,-0.042470,0.054966,0.087061,0.999999,-0.000497,-0.000196,-0.001005,-0.413451,-0.266511,0.125567,0.861547,27.855551,20.817458,-123.511457
10573,-3.779216,6.541304,8.141807,1.590521,-1.185338,1.115504,-0.014187,-0.050514,-0.005860,-0.037811,0.065420,0.081404,1.000000,-0.000071,-0.000253,-0.000029,-0.413408,-0.266283,0.125585,0.861635,27.840356,20.795978,-123.529087
10574,-3.549804,8.238591,7.840174,2.732993,-2.408762,1.530694,0.219926,-0.064471,0.222183,-0.035615,0.082260,0.078481,0.999999,0.001100,-0.000322,0.001111,-0.414031,-0.266328,0.126957,0.861121,28.002490,20.704812,-123.426953
10575,-3.407505,6.560500,8.373225,1.283013,-1.463531,1.186131,-0.418268,0.225661,0.287548,-0.034075,0.065731,0.083633,0.999996,-0.002091,0.001128,0.001438,-0.415964,-0.266266,0.125056,0.860487,27.840281,20.744416,-123.206480
10576,-4.190647,4.100994,8.193985,0.211705,0.665980,0.238813,-0.446668,0.182054,0.320113,-0.041898,0.041126,0.081886,0.999996,-0.002233,0.000910,0.001601,-0.418047,-0.265928,0.123176,0.859853,27.664311,20.752405,-122.980627
10577,-3.129957,3.286314,7.848802,-0.650261,0.330563,-0.775649,-0.316902,0.121410,0.328542,-0.031306,0.032936,0.078455,0.999997,-0.001585,0.000607,0.001643,-0.419950,-0.265601,0.121982,0.859196,27.557656,20.729311,-122.767671
10578,-2.855895,2.790970,7.602567,-0.966343,0.411922,-1.289709,-0.314614,0.223676,0.295729,-0.028515,0.027987,0.076014,0.999997,-0.001573,0.001118,0.001479,-0.421773,-0.265728,0.120548,0.858466,27.456809,20.765808,-122.543332
10579,-2.573010,2.956894,7.679618,-1.039879,0.068201,-1.253826,-0.184342,0.271847,0.193921,-0.025654,0.029615,0.076804,0.999998,-0.000922,0.001359,0.000970,-0.423009,-0.266405,0.119426,0.857805,27.415425,20.855343,-122.360966
10580,-1.982228,4.266371,8.246938,-0.787305,-1.234976,-0.431959,-0.165230,0.293317,0.040840,-0.019710,0.042728,0.082463,0.999999,-0.000826,0.001467,0.000204,-0.423579,-0.267297,0.118146,0.857423,27.358319,20.994888,-122.255623
10581,-1.682630,4.990940,8.343758,-0.507716,-1.955324,-0.154646,-0.320377,0.329556,-0.204143,-0.016638,0.050060,0.083385,0.999997,-0.001602,0.001648,-0.001021,-0.423321,-0.268166,0.115787,0.857601,27.167458,21.218717,-122.274274
10582,-1.159847,4.940154,8.495983,-0.876914,-2.400605,-0.252366,-0.471016,0.391243,-0.472098,-0.011315,0.049628,0.084865,0.999993,-0.002355,0.001956,-0.002360,-0.422151,-0.269126,0.112300,0.858340,26.843143,21.542353,-122.423445
10583,-1.865248,5.571181,9.173601,-0.477835,-2.334720,0.817102,-0.314412,0.384287,-0.561311,-0.018320,0.055908,0.091684,0.999993,-0.001572,0.001921,-0.002807,-0.420374,-0.270439,0.109370,0.859178,26.587508,21.885826,-122.626029
10584,-0.920951,6.998210,8.982528,0.089807,-4.020616,0.880073,-0.071490,0.313411,-0.522034,-0.008886,0.070038,0.089814,0.999995,-0.000357,0.001567,-0.002610,-0.418397,-0.271928,0.107692,0.859884,26.470764,22.181177,-122.827878
10585,-0.052851,6.399193,8.928076,-0.737536,-4.382074,0.233004,-0.129764,0.500175,-0.554223,-0.000128,0.064051,0.089240,0.999993,-0.000649,0.002501,-0.002771,-0.416454,-0.274116,0.105322,0.860426,26.331391,22.581046,-122.997535
10586,1.689939,7.093709,10.833147,-2.263387,-6.320711,1.388150,0.087080,0.396781,-0.577182,0.017319,0.070840,0.108328,0.999994,0.000435,0.001984,-0.002886,-0.414058,-0.276315,0.104074,0.861031,26.299278,22.932521,-123.209381
10587,1.862633,8.647760,9.949779,-0.899750,-7.447612,1.186132,0.200792,0.242719,-0.743578,0.019068,0.086307,0.099562,0.999992,0.001004,0.001214,-0.003718,-0.410700,-0.278171,0.103399,0.862122,26.277505,23.247439,-123.557472
10588,4.357836,9.600768,9.299238,-1.273705,-9.972299,0.014366,0.391230,0.096221,-0.863434,0.044037,0.095636,0.093159,0.999989,0.001956,0.000481,-0.004317,-0.406479,-0.279840,0.103681,0.863548,26.320532,23.517142,-124.013728
10589,4.490456,9.993665,9.774729,-1.457783,-10.390157,0.458688,0.024005,0.152906,-0.970729,0.045464,0.099705,0.097725,0.999988,0.000120,0.000765,-0.004854,-0.402328,-0.281057,0.102110,0.865282,26.132579,23.842435,-124.515906
10590,5.098265,8.675517,8.921220,-2.220150,-9.979461,-1.076248,0.195272,-0.002608,-0.972566,0.051402,0.086419,0.089297,0.999988,0.000976,-0.000013,-0.004863,-0.397839,-0.281940,0.101587,0.867130,26.021762,24.087140,-125.064041
10591,5.569148,9.793855,9.302193,-2.085080,-11.102257,-0.546791,0.388777,-0.104428,-0.898939,0.056082,0.097506,0.093241,0.999988,0.001944,-0.000522,-0.004495,-0.393338,-0.282717,0.102214,0.868855,26.025497,24.259510,-125.599617
10592,5.181642,9.765358,10.125435,-2.479974,-10.826797,0.255348,0.420923,-0.190899,-0.687308,0.052054,0.097262,0.101509,0.999991,0.002105,-0.000954,-0.003437,-0.389656,-0.283072,0.103441,0.870252,26.085332,24.335316,-126.040172
10593,4.953543,9.302777,10.212416,-2.787181,-10.317759,0.244515,0.531252,-0.376433,-0.380862,0.049519,0.092662,0.102464,0.999993,0.002656,-0.001882,-0.001904,-0.387054,-0.282664,0.105954,0.871243,26.259354,24.237353,-126.358680
10594,4.795780,8.943695,9.680882,-2.687379,-9.883732,-0.231577,0.556354,-0.468680,-0.099970,0.047775,0.089143,0.097169,0.999993,0.002782,-0.002343,-0.000500,-0.385581,-0.281758,0.109138,0.871796,26.501758,24.023326,-126.545328
10595,4.194624,8.732969,9.302750,-2.317009,-9.222704,-0.327266,0.521221,-0.471128,0.135944,0.041667,0.087115,0.093353,0.999994,0.002606,-0.002356,0.000680,-0.385187,-0.280628,0.112522,0.871905,26.778900,23.745714,-126.600678
10596,3.027672,8.447236,9.374676,-1.919376,-8.101120,0.141920,0.499425,-0.421585,0.374309,0.029921,0.084294,0.094021,0.999993,0.002497,-0.002108,0.001872,-0.385877,-0.279548,0.116031,0.871486,27.100825,23.434301,-126.511137
10597,2.086852,7.990000,8.790665,-1.356664,-7.009405,-0.091699,0.550989,-0.404270,0.619983,0.020443,0.079721,0.088168,0.999989,0.002755,-0.002021,0.003100,-0.387579,-0.278478,0.120095,0.870522,27.508026,23.063478,-126.282232
10598,1.476738,7.614333,8.305296,-0.977785,-6.214731,-0.349237,0.587270,-0.312233,0.772094,0.014344,0.075955,0.083299,0.999987,0.002936,-0.001561,0.003860,-0.389929,-0.277799,0.124325,0.869095,27.974683,22.700310,-125.947300
10599,0.450237,7.126869,8.303504,-0.722069,-5.038097,-0.115336,0.509510,-0.201272,0.836454,0.004121,0.071075,0.083221,0.999988,0.002548,-0.001006,0.004182,-0.392737,-0.277383,0.128113,0.867412,28.421005,22.369687,-125.547913
10600,0.322016,5.986818,7.485162,-0.874999,-4.122107,-1.197842,0.404615,-0.128263,0.801287,0.002933,0.059729,0.074974,0.999990,0.002023,-0.000641,0.004006,-0.395564,-0.277113,0.131225,0.865746,28.803238,22.086395,-125.150173
10601,0.207190,5.876788,7.508481,-0.897177,-3.911693,-1.161073,0.296792,0.051189,0.654037,0.001899,0.058663,0.075171,0.999994,0.001484,0.000256,0.003270,-0.398027,-0.277478,0.133337,0.864177,29.113392,21.927755,-124.780069
10602,-1.971628,5.905970,10.253924,-1.348815,-2.209637,1.900931,0.202501,0.238292,0.596208,-0.019770,0.058897,0.102622,0.999994,0.001013,0.001191,0.002981,-0.400479,-0.278520,0.134559,0.862518,29.376165,21.881072,-124.386549
10603,-5.265253,5.456094,12.704066,-1.378910,0.698836,4.901047,0.540975,-0.113555,0.833339,-0.052950,0.053997,0.127157,0.999987,0.002705,-0.000568,0.004167,-0.403250,-0.278535,0.138303,0.860628,29.840626,21.585491,-123.973122
10604,-4.836925,6.797317,12.408109,-0.645858,-0.309832,5.121918,0.996360,-0.743400,1.088464,-0.049198,0.067088,0.124235,0.999966,0.004982,-0.003717,0.005442,-0.406018,-0.276591,0.145595,0.858748,30.537895,20.904790,-123.624171
10605,-3.278668,6.058160,10.120315,-0.565494,-0.900259,2.383151,0.661851,-0.892781,1.133387,-0.033580,0.060058,0.101254,0.999969,0.003309,-0.004464,0.005667,-0.409319,-0.273253,0.151836,0.857168,31.029597,20.129843,-123.306952
10606,-3.972592,4.932783,9.369756,-0.443966,0.490902,1.477385,0.545089,-0.919515,1.065602,-0.040418,0.048858,0.093646,0.999972,0.002725,-0.004598,0.005328,-0.412432,-0.269619,0.157500,0.855803,31.431349,19.363850,-123.042082
10607,-4.185744,5.513780,9.059401,0.235249,0.461076,1.576976,0.514913,-1.044057,1.031958,-0.042613,0.054686,0.090514,0.999970,0.002575,-0.005220,0.005160,-0.415331,-0.265378,0.163266,0.854646,31.793191,18.541329,-122.840198
10608,-3.563488,5.779556,8.085140,0.688732,-0.086317,0.722360,0.421596,-1.030663,1.051062,-0.036354,0.057435,0.080787,0.999971,0.002108,-0.005153,0.005255,-0.418410,-0.260991,0.168593,0.853460,32.099841,17.722651,-122.630866
10609,-3.578429,5.959313,7.354036,1.272853,-0.076591,0.225857,0.409245,-0.979103,1.114082,-0.036475,0.059241,0.073484,0.999970,0.002046,-0.004895,0.005570,-0.421804,-0.256708,0.173859,0.852030,32.410803,16.904459,-122.378060
10610,-3.058701,5.921382,6.650626,1.425305,-0.386254,-0.513928,0.352008,-0.856518,1.181199,-0.031220,0.058914,0.066477,0.999972,0.001760,-0.004283,0.005906,-0.425628,-0.252775,0.178671,0.850307,32.703390,16.127678,-122.058118
10611,-3.740200,5.253726,6.734245,1.324519,0.693429,-0.609202,0.334552,-0.661591,1.276025,-0.037958,0.052184,0.067305,0.999973,0.001673,-0.003308,0.006380,-0.430040,-0.249513,0.183132,0.848099,33.011982,15.409528,-121.632714
10612,-4.191684,5.117296,7.499723,1.031908,1.349811,0.041970,0.372866,-0.578601,1.370548,-0.042482,0.050743,0.074970,0.999971,0.001864,-0.002893,0.006853,-0.434844,-0.246608,0.187656,0.845506,33.353663,14.703332,-121.139598
10613,-6.091348,5.000922,10.020967,0.442398,3.408240,2.464068,0.391590,-0.577203,1.529507,-0.061582,0.049344,0.100130,0.999965,0.001958,-0.002886,0.007647,-0.440281,-0.243562,0.192468,0.842488,33.719372,13.940574,-120.573377
10614,-6.727175,4.397257,10.523017,0.068106,4.529365,2.629159,0.543600,-0.970511,1.738066,-0.068159,0.043097,0.105019,0.999947,0.002718,-0.004852,0.008690,-0.445984,-0.238993,0.198995,0.839274,34.154072,12.924316,-120.042666
10615,-5.123605,3.407437,8.684882,-0.292539,3.693055,0.165336,0.527404,-1.159953,1.810503,-0.052043,0.033377,0.086637,0.999939,0.002637,-0.005800,0.009052,-0.451780,-0.233473,0.205965,0.836040,34.562935,11.787561,-119.549187
10616,-6.174708,2.378906,7.581954,0.179089,5.150197,-1.169061,0.477433,-1.145254,1.719411,-0.062381,0.023074,0.075519,0.999944,0.002387,-0.005726,0.008597,-0.457206,-0.227989,0.212538,0.832954,34.923068,10.687962,-119.104664
10617,-6.724916,1.939921,6.899394,0.541341,5.902140,-1.973170,0.521319,-1.161484,1.569920,-0.067797,0.018689,0.068651,0.999949,0.002607,-0.005807,0.007849,-0.461902,-0.222652,0.219159,0.830086,35.286018,9.623898,-118.745138
10618,-6.676049,1.426746,6.226271,0.555051,6.137564,-2.928533,0.553965,-1.093374,1.384495,-0.067196,0.013631,0.061934,0.999957,0.002770,-0.005467,0.006922,-0.465814,-0.217875,0.225510,0.827462,35.648899,8.654432,-118.458472
10619,-7.226218,1.180907,5.749177,0.911407,6.762559,-3.480145,0.603194,-0.939260,1.148628,-0.072597,0.011220,0.057186,0.999968,0.003016,-0.004696,0.005743,-0.468843,-0.214083,0.231450,0.825097,36.026882,7.830931,-118.237101
10620,-8.079929,1.434530,5.428456,1.650112,7.428017,-3.574774,0.628146,-0.745593,0.896988,-0.081064,0.013812,0.054027,0.999978,0.003141,-0.003728,0.004485,-0.470999,-0.211445,0.236739,0.823047,36.408169,7.183643,-118.072994
10621,-8.846031,2.017996,5.724203,2.209708,7.976075,-2.987043,0.610313,-0.499028,0.723425,-0.088675,0.019685,0.057082,0.999986,0.003052,-0.002495,0.003617,-0.472740,-0.209963,0.241196,0.821131,36.778149,6.705631,-117.908831
10622,-9.492396,3.071482,6.501212,2.736867,8.315110,-1.739725,0.624454,-0.287352,0.721336,-0.095127,0.030169,0.064970,0.999988,0.003122,-0.001437,0.003607,-0.474695,-0.209395,0.245187,0.818964,37.162340,6.326553,-117.675650
10623,-10.580818,5.082160,8.027480,3.661162,8.817048,0.726584,0.515756,-0.229876,0.870415,-0.106120,0.050153,0.080283,0.999987,0.002579,-0.001149,0.004352,-0.477436,-0.208606,0.248758,0.816491,37.492187,5.918721,-117.356542
10624,-8.287466,4.558657,7.154652,2.720747,6.931293,-0.581968,0.083231,-0.234113,1.011925,-0.083187,0.045136,0.071468,0.999986,0.000416,-0.001171,0.005060,-0.481184,-0.206595,0.250703,0.814204,37.577529,5.460129,-116.976129
10625,-6.392480,2.058224,5.389047,1.158233,5.972994,-3.719785,-0.157065,0.041459,1.006352,-0.064016,0.020303,0.053888,0.999987,-0.000785,0.000207,0.005032,-0.485492,-0.205124,0.251001,0.811924,37.531513,5.127484,-116.501964
10626,-7.108449,2.286599,5.889164,1.305293,6.659018,-3.149790,-0.119686,0.275225,0.944415,-0.071110,0.022566,0.058976,0.999988,-0.000598,0.001376,0.004722,-0.489789,-0.204771,0.250807,0.809488,37.509111,4.924006,-115.974220
10627,-7.332156,2.168692,6.439603,0.952618,7.043399,-2.783106,-0.238527,0.436171,0.881545,-0.073276,0.021441,0.064530,0.999987,-0.001193,0.002181,0.004408,-0.494145,-0.204849,0.249671,0.807169,37.419678,4.815596,-115.418777
10628,-6.991850,1.139221,6.247902,0.146575,7.103255,-3.588373,-0.286634,0.571366,0.749590,-0.069782,0.011220,0.062662,0.999988,-0.001433,0.002857,0.003748,-0.498172,-0.205517,0.247862,0.805079,37.300929,4.816191,-114.876342
10629,-7.694927,0.983305,6.465185,0.146065,7.829105,-3.436107,-0.274928,0.719216,0.534520,-0.076742,0.009717,0.064915,0.999989,-0.001375,0.003596,0.002673,-0.501493,-0.207070,0.245504,0.803340,37.185508,4.959873,-114.380853
10630,-9.319160,1.080366,6.280971,0.926367,9.208043,-3.346025,-0.324674,0.789928,0.238417,-0.092955,0.010795,0.063160,0.999990,-0.001623,0.003950,0.001192,-0.503752,-0.209142,0.242458,0.802314,37.033558,5.239409,-113.996834
10631,-10.682777,-1.179974,2.888978,1.793253,10.666962,-7.193677,-0.379344,0.997166,-0.258854,-0.106697,-0.011606,0.029444,0.999985,-0.001897,0.004986,-0.001294,-0.504311,-0.212508,0.238140,0.802371,36.837601,5.786814,-113.770560
10632,-11.924712,-1.566871,2.670214,2.114175,11.879548,-7.325229,-0.013741,1.260204,-0.972087,-0.119150,-0.015088,0.027454,0.999968,-0.000069,0.006301,-0.004860,-0.501911,-0.218688,0.233861,0.803474,36.828307,6.699638,-113.783081
10633,-9.480644,5.644612,11.879890,0.765296,8.202712,4.151618,0.490773,0.861420,-1.357464,-0.093909,0.056793,0.119344,0.999965,0.002454,0.004307,-0.006787,-0.496908,-0.224975,0.232162,0.805338,37.068346,7.564057,-114.110113
10634,-0.943236,7.122202,12.826493,-2.310511,-0.119766,4.705563,0.209073,0.437570,-1.349783,-0.008671,0.071148,0.128359,0.999974,0.001045,0.002188,-0.006749,-0.491734,-0.228825,0.230387,0.807935,37.123551,8.231507,-114.579716
10635,4.449535,11.120055,12.555743,-1.744222,-6.765796,6.070597,0.461613,0.144841,-1.338711,0.045328,0.110609,0.125781,0.999975,0.002308,0.000724,-0.006693,-0.485949,-0.232098,0.230340,0.810511,37.303565,8.764192,-115.146234
10636,1.693826,9.853319,9.574658,0.256760,-4.339187,3.330138,-0.667150,0.571987,-1.024781,0.017717,0.098762,0.095367,0.999977,-0.003336,0.002860,-0.005124,-0.483219,-0.233978,0.225047,0.813086,36.878102,9.380729,-115.419883
10637,-3.581096,4.051294,5.809693,0.802365,2.208292,-2.231879,-0.571015,0.777425,-0.741290,-0.035434,0.040811,0.058119,0.999982,-0.002855,0.003887,-0.003706,-0.481737,-0.236602,0.219960,0.814596,36.537682,9.993978,-115.494837
10638,-5.568530,3.195896,6.768978,0.479854,4.391553,-1.595348,-0.048821,0.719728,-0.677178,-0.055333,0.032163,0.067881,0.999988,-0.000244,0.003599,-0.003386,-0.479823,-0.240166,0.217219,0.815418,36.497694,10.557297,-115.561860
10639,-3.378966,3.124481,9.547505,-2.193679,2.743458,0.187068,0.005808,0.654216,-0.817732,-0.033349,0.031379,0.095586,0.999986,0.000029,0.003271,-0.004089,-0.477182,-0.243747,0.214671,0.816579,36.470909,11.139778,-115.718146
10640,-2.591246,3.634588,10.524832,-2.806926,1.849502,1.114197,0.091668,0.430144,-0.972421,-0.025509,0.036422,0.105320,0.999986,0.000458,0.002151,-0.004862,-0.473556,-0.246770,0.212825,0.818263,36.462631,11.670149,-116.025314
10641,-1.751322,3.499007,9.254461,-2.521491,0.955014,-0.133596,0.100490,0.371924,-1.087450,-0.017151,0.035037,0.092594,0.999983,0.000502,0.001860,-0.005437,-0.469368,-0.249698,0.210992,0.820261,36.440092,12.214318,-116.407879
10642,-3.279679,4.914809,8.791339,-0.669326,1.500739,0.651460,0.214101,0.335132,-1.149551,-0.032367,0.049241,0.088021,0.999982,0.001070,0.001676,-0.005748,-0.464731,-0.252791,0.209639,0.822298,36.470753,12.761148,-116.833122
10643,-3.459560,6.702919,8.242811,0.881626,0.650990,1.306651,0.213774,0.240058,-1.149585,-0.034111,0.067138,0.082541,0.999982,0.001069,0.001200,-0.005748,-0.459975,-0.255489,0.208483,0.824429,36.488671,13.265923,-117.292530
10644,-2.480112,8.157009,6.759113,2.259588,-1.164319,0.766115,0.116711,0.197054,-1.091809,-0.024289,0.081664,0.067663,0.999984,0.000584,0.000985,-0.005459,-0.455524,-0.257712,0.207108,0.826553,36.450954,13.729573,-117.740365
10645,-2.196469,9.654895,6.281279,3.353009,-2.310937,1.183298,-0.056616,0.361500,-0.947779,-0.021393,0.096669,0.062824,0.999987,-0.000283,0.001807,-0.004739,-0.452045,-0.260069,0.204807,0.828296,36.339360,14.221099,-118.063935
