PacketCounter,Acc_X,Acc_Y,Acc_Z,FreeAcc_E,FreeAcc_N,FreeAcc_U,Gyr_X,Gyr_Y,Gyr_Z,VelInc_X,VelInc_Y,VelInc_Z,OriInc_q0,OriInc_q1,OriInc_q2,OriInc_q3,Quat_q0,Quat_q1,Quat_q2,Quat_q3,Roll,Pitch,Yaw
25610,-4.058795,1.803022,8.525419,0.038618,0.058319,-0.200062,0.078905,0.053007,-0.027746,-0.040563,0.018002,0.085272,1.000000,0.000395,0.000265,-0.000139,-0.825002,-0.193468,-0.133694,0.513875,11.553892,24.798735,-61.287243
25611,-4.084769,1.808041,8.572332,0.030311,0.052113,-0.146479,0.075875,0.043759,-0.036195,-0.040826,0.018055,0.085739,1.000000,0.000379,0.000219,-0.000181,-0.824805,-0.193869,-0.133721,0.514034,11.589698,24.828149,-61.304451
25612,-4.150188,1.699078,8.542880,-0.098690,0.067833,-0.165025,0.063532,0.042502,-0.038835,-0.041480,0.016972,0.085443,1.000000,0.000318,0.000213,-0.000194,-0.824612,-0.194211,-0.133781,0.514198,11.617301,24.857319,-61.323580
25613,-4.198309,1.688674,8.568800,-0.130177,0.084115,-0.123635,0.065175,0.035657,-0.031986,-0.041965,0.016866,0.085701,1.000000,0.000326,0.000178,-0.000160,-0.824441,-0.194549,-0.133799,0.514340,11.647628,24.881737,-61.339192
25614,-4.291721,1.875952,8.457809,-0.005842,0.278003,-0.148564,0.045099,0.035101,-0.026623,-0.042900,0.018746,0.084590,1.000000,0.000225,0.000176,-0.000133,-0.824303,-0.194804,-0.133863,0.514448,11.667447,24.905357,-61.351688
25615,-4.156180,1.805654,8.467116,-0.009777,0.134322,-0.210181,0.008330,0.025365,-0.015183,-0.041550,0.018056,0.084677,1.000000,0.000042,0.000127,-0.000076,-0.824236,-0.194893,-0.133968,0.514494,11.669026,24.922113,-61.358209
25616,-4.097146,1.918851,8.492599,0.119622,0.118495,-0.191643,-0.001463,0.012497,-0.013668,-0.040965,0.019192,0.084928,1.000000,-0.000007,0.000062,-0.000068,-0.824192,-0.194907,-0.134047,0.514539,11.664321,24.931550,-61.365576
25617,-4.113093,1.635462,8.473144,-0.140643,0.028122,-0.254138,-0.036132,0.008284,0.001881,-0.041128,0.016370,0.084730,1.000000,-0.000181,0.000041,0.000009,-0.824224,-0.194780,-0.134180,0.514501,11.643979,24.936767,-61.363715
25618,-4.115329,1.589588,8.531622,-0.179745,-0.014813,-0.209627,-0.007213,0.005175,0.004429,-0.041151,0.015898,0.085317,1.000000,-0.000036,0.000026,0.000022,-0.824237,-0.194764,-0.134225,0.514475,11.640305,24.940000,-61.360821
25619,-4.184311,1.743440,8.502935,-0.071577,0.113678,-0.177860,0.001279,0.002693,0.009104,-0.041843,0.017432,0.085030,1.000000,0.000006,0.000013,0.000046,-0.824255,-0.194782,-0.134232,0.514438,11.642938,24.941267,-61.355221
25620,-4.139609,1.763098,8.498189,-0.034841,0.087736,-0.197326,0.004862,-0.000119,0.004562,-0.041397,0.017628,0.084982,1.000000,0.000024,-0.000001,0.000023,-0.824259,-0.194801,-0.134224,0.514424,11.645932,24.941513,-61.352920
25621,-4.155411,1.870716,8.527351,0.055139,0.129082,-0.145059,0.011460,-0.002169,0.001424,-0.041555,0.018702,0.085274,1.000000,0.000057,-0.000011,0.000007,-0.824251,-0.194843,-0.134193,0.514430,11.652128,24.940970,-61.352696
25622,-4.107330,1.948040,8.536263,0.145924,0.117380,-0.143265,-0.004027,-0.005394,-0.015030,-0.041074,0.019485,0.085361,1.000000,-0.000020,-0.000027,-0.000075,-0.824218,-0.194800,-0.134206,0.514497,11.644633,24.940522,-61.363193
25623,-4.125009,1.807579,8.564177,0.014109,0.064299,-0.136746,-0.019183,-0.009959,-0.029802,-0.041252,0.018090,0.085638,1.000000,-0.000096,-0.000050,-0.000149,-0.824164,-0.194675,-0.134251,0.514618,11.624741,24.939230,-61.383275
25624,-4.109343,1.889591,8.548180,0.097139,0.093456,-0.142607,-0.016563,-0.016951,-0.043320,-0.041097,0.018912,0.085477,1.000000,-0.000083,-0.000085,-0.000217,-0.824078,-0.194531,-0.134276,0.514805,11.602062,24.935554,-61.412751
25625,-4.124393,1.795754,8.542261,0.009536,0.073709,-0.158670,-0.032316,-0.018244,-0.055253,-0.041247,0.017983,0.085416,1.000000,-0.000162,-0.000091,-0.000276,-0.823976,-0.194314,-0.134346,0.515030,11.567582,24.932534,-61.449630
25626,-4.138140,1.941926,8.514614,0.138863,0.157963,-0.150923,-0.025083,-0.023265,-0.058138,-0.041386,0.019442,0.085139,1.000000,-0.000125,-0.000116,-0.000291,-0.823864,-0.194109,-0.134381,0.515278,11.535824,24.926985,-61.489071
25627,-4.106517,1.683532,8.539536,-0.075038,0.022595,-0.189003,-0.051212,-0.008541,-0.043065,-0.041065,0.016866,0.085389,1.000000,-0.000256,-0.000043,-0.000215,-0.823806,-0.193847,-0.134528,0.515431,11.494248,24.927996,-61.517165
25628,-4.133543,1.566694,8.587545,-0.186451,-0.021637,-0.156011,-0.026743,-0.003607,-0.028611,-0.041335,0.015684,0.085873,1.000000,-0.000134,-0.000018,-0.000143,-0.823759,-0.193705,-0.134619,0.515536,11.470291,24.930073,-61.535844
25629,-4.082089,1.508412,8.597461,-0.214333,-0.089769,-0.179355,-0.000531,0.008046,-0.013269,-0.040816,0.015087,0.085976,1.000000,-0.000003,0.000040,-0.000066,-0.823717,-0.193715,-0.134675,0.515585,11.466368,24.936998,-61.543421
25630,-4.122549,1.597070,8.580707,-0.152403,-0.016359,-0.161207,0.024283,0.011793,0.004424,-0.041221,0.015959,0.085811,1.000000,0.000121,0.000059,0.000022,-0.823695,-0.193845,-0.134667,0.515574,11.481084,24.943955,-61.539709
25631,-4.118501,1.706529,8.558913,-0.053981,0.031128,-0.162537,0.028448,0.014058,0.002517,-0.041179,0.017053,0.085594,1.000000,0.000142,0.000070,0.000013,-0.823661,-0.194000,-0.134658,0.515571,11.498150,24.952465,-61.536772
25632,-4.146344,1.833273,8.559129,0.046571,0.100409,-0.127673,0.031162,0.016460,0.005341,-0.041457,0.018318,0.085598,1.000000,0.000156,0.000082,0.000027,-0.823632,-0.194172,-0.134650,0.515556,11.517300,24.961936,-61.531898
25633,-4.135782,1.857519,8.503958,0.070586,0.124840,-0.176723,0.016114,0.004285,-0.007158,-0.041355,0.018570,0.085042,1.000000,0.000081,0.000021,-0.000036,-0.823592,-0.194244,-0.134642,0.515594,11.524255,24.966079,-61.536180
25634,-4.178848,1.887411,8.473887,0.078463,0.184012,-0.179836,0.002194,0.001949,-0.017483,-0.041786,0.018877,0.084739,1.000000,0.000011,0.000010,-0.000087,-0.823541,-0.194243,-0.134671,0.515668,11.520069,24.970014,-61.547270
25635,-4.168546,1.868774,8.502176,0.068109,0.156000,-0.162448,-0.012806,-0.009781,-0.025325,-0.041687,0.018698,0.085019,1.000000,-0.000064,-0.000049,-0.000127,-0.823492,-0.194148,-0.134697,0.515775,11.504989,24.968361,-61.564569
25636,-4.180582,1.834670,8.509300,0.034609,0.150525,-0.157243,-0.018865,-0.011615,-0.031236,-0.041808,0.018361,0.085089,1.000000,-0.000094,-0.000058,-0.000156,-0.823435,-0.194017,-0.134738,0.515904,11.484420,24.966246,-61.585887
25637,-4.209760,1.661392,8.543889,-0.130898,0.092008,-0.145488,-0.025663,-0.015539,-0.024396,-0.042102,0.016630,0.085433,1.000000,-0.000128,-0.000078,-0.000122,-0.823405,-0.193855,-0.134773,0.516004,11.461940,24.961270,-61.603324
25638,-4.208643,1.658842,8.544935,-0.130699,0.091955,-0.145485,-0.013818,-0.018578,-0.016638,-0.042093,0.016598,0.085444,1.000000,-0.000069,-0.000093,-0.000083,-0.823386,-0.193736,-0.134758,0.516084,11.447714,24.953570,-61.616471
25639,-4.198147,1.631009,8.525789,-0.150896,0.083036,-0.171938,-0.000914,-0.012371,-0.012913,-0.041986,0.016313,0.085255,1.000000,-0.000005,-0.000062,-0.000065,-0.823359,-0.193692,-0.134731,0.516150,11.442562,24.949093,-61.626405
25640,-4.189215,1.560143,8.564714,-0.210339,0.031280,-0.153874,0.004394,-0.012779,0.004198,-0.041898,0.015599,0.085645,1.000000,0.000022,-0.000064,0.000021,-0.823372,-0.193677,-0.134673,0.516151,11.444523,24.942278,-61.625917
25641,-4.160685,1.678283,8.541884,-0.093641,0.065802,-0.164961,0.023688,-0.014717,0.006923,-0.041614,0.016771,0.085418,1.000000,0.000118,-0.000074,0.000035,-0.823374,-0.193741,-0.134554,0.516154,11.458484,24.934260,-61.623877
25642,-4.109318,1.811601,8.540458,0.046275,0.077882,-0.163873,0.024853,-0.013069,0.005165,-0.041099,0.018104,0.085404,1.000000,0.000124,-0.000065,0.000026,-0.823369,-0.193811,-0.134441,0.516165,11.472404,24.927173,-61.622831
25643,-4.152786,1.794505,8.545234,0.009918,0.103660,-0.144385,0.023004,-0.012190,0.002005,-0.041533,0.017935,0.085452,1.000000,0.000115,-0.000061,0.000010,-0.823358,-0.193875,-0.134340,0.516186,11.484820,24.921149,-61.623525
25644,-4.124843,1.907826,8.498307,0.121720,0.147787,-0.177403,0.007947,-0.015882,-0.003452,-0.041255,0.019076,0.084981,1.000000,0.000040,-0.000079,-0.000017,-0.823349,-0.193862,-0.134267,0.516223,11.486655,24.913465,-61.628169
25645,-4.150406,1.795357,8.546212,0.010286,0.103493,-0.144384,-0.012863,-0.014404,-0.007648,-0.041510,0.017961,0.085458,1.000000,-0.000064,-0.000072,-0.000038,-0.823349,-0.193767,-0.134258,0.516262,11.475914,24.907316,-61.635110
25646,-4.107654,1.755300,8.528791,-0.007049,0.063319,-0.185117,-0.004781,-0.016279,-0.012423,-0.041082,0.017558,0.085284,1.000000,-0.000024,-0.000081,-0.000062,-0.823330,-0.193694,-0.134225,0.516328,11.468098,24.900430,-61.645356
25647,-4.081387,1.822089,8.540629,0.065442,0.064493,-0.173620,-0.010484,-0.010661,-0.006507,-0.040818,0.018227,0.085403,1.000000,-0.000052,-0.000053,-0.000033,-0.823327,-0.193620,-0.134225,0.516359,11.459224,24.896265,-61.651115
25648,-3.969143,1.868979,8.529478,0.156954,-0.000278,-0.222352,-0.013834,-0.010092,-0.009590,-0.039695,0.018698,0.085291,1.000000,-0.000069,-0.000050,-0.000048,-0.823320,-0.193527,-0.134238,0.516402,11.447289,24.892528,-61.658828
25649,-4.067483,1.854586,8.559473,0.104430,0.060190,-0.156914,-0.033172,0.000037,-0.008373,-0.040674,0.018562,0.085592,1.000000,-0.000166,0.000000,-0.000042,-0.823328,-0.193386,-0.134342,0.516416,11.425519,24.894571,-61.664392
25650,-4.227937,1.711511,8.491338,-0.092054,0.165168,-0.175686,-0.039376,-0.007313,-0.005926,-0.042282,0.017133,0.084908,1.000000,-0.000197,-0.000037,-0.000030,-0.823353,-0.193198,-0.134429,0.516423,11.400053,24.891975,-61.669486
25651,-4.278544,1.533214,8.552202,-0.270883,0.110026,-0.132224,-0.025473,-0.013759,-0.005757,-0.042791,0.015344,0.085517,1.000000,-0.000127,-0.000069,-0.000029,-0.823369,-0.193055,-0.134453,0.516445,11.382662,24.885989,-61.675152
25652,-4.209532,1.570235,8.593814,-0.206040,0.052035,-0.117623,0.001016,-0.012506,-0.001998,-0.042101,0.015702,0.085936,1.000000,0.000005,-0.000063,-0.000010,-0.823369,-0.193022,-0.134411,0.516468,11.381091,24.880029,-61.678459
25653,-4.216568,1.641468,8.555851,-0.146226,0.103616,-0.135687,0.008545,-0.010660,0.000728,-0.042170,0.016411,0.085557,1.000000,0.000043,-0.000053,0.000004,-0.823367,-0.193031,-0.134355,0.516483,11.384994,24.875091,-61.679738
25654,-4.156199,1.747090,8.534596,-0.026674,0.106882,-0.161081,0.018176,-0.011775,0.000531,-0.041567,0.017463,0.085345,1.000000,0.000091,-0.000059,0.000003,-0.823356,-0.193073,-0.134269,0.516507,11.393952,24.869256,-61.681388
25655,-4.126714,1.874256,8.559705,0.099893,0.122273,-0.128359,0.008321,-0.016919,0.001320,-0.041275,0.018739,0.085594,1.000000,0.000042,-0.000085,0.000007,-0.823360,-0.193065,-0.134187,0.516525,11.397539,24.860764,-61.683095
25656,-4.056006,1.751545,8.458209,0.016519,0.065230,-0.270367,0.002006,-0.016672,0.001495,-0.040567,0.017514,0.084579,1.000000,0.000010,-0.000083,0.000007,-0.823371,-0.193029,-0.134121,0.516539,11.397227,24.852070,-61.684761
25657,-3.708820,2.093637,8.583700,0.477453,-0.134128,-0.243329,-0.015497,-0.007574,0.004330,-0.037092,0.020942,0.085834,1.000000,-0.000077,-0.000038,0.000022,-0.823399,-0.192949,-0.134137,0.516520,11.388462,24.848495,-61.683431
25658,-4.106348,1.774192,8.580112,0.020463,0.061524,-0.136740,-0.051659,0.000482,0.004715,-0.041064,0.017763,0.085797,1.000000,-0.000258,0.000002,0.000024,-0.823458,-0.192738,-0.134277,0.516468,11.359139,24.849071,-61.680963
25659,-4.294088,1.514618,8.535024,-0.292580,0.131809,-0.144341,-0.030828,-0.000846,0.010449,-0.042942,0.015157,0.085348,1.000000,-0.000154,-0.000004,0.000052,-0.823512,-0.192617,-0.134354,0.516407,11.343582,24.848546,-61.674988
25660,-4.107882,1.720364,8.615622,-0.023372,0.028004,-0.114133,-0.018501,0.000293,0.011522,-0.041080,0.017209,0.086155,1.000000,-0.000093,0.000001,0.000058,-0.823557,-0.192546,-0.134401,0.516349,11.335018,24.848251,-61.668330
25661,-4.158736,1.819565,8.547922,0.044120,0.138804,-0.135309,-0.018381,0.005666,0.001618,-0.041585,0.018203,0.085479,1.000000,-0.000092,0.000028,0.000008,-0.823572,-0.192487,-0.134481,0.516326,11.324603,24.852410,-61.667022
25662,-4.165915,1.897420,8.557930,0.113822,0.171342,-0.109548,-0.034585,0.000475,-0.000526,-0.041659,0.018989,0.085576,1.000000,-0.000173,0.000002,-0.000003,-0.823601,-0.192343,-0.134583,0.516307,11.303699,24.853574,-61.667801
25663,-4.206252,1.740849,8.563957,-0.041162,0.140718,-0.115111,-0.047883,0.003652,-0.003539,-0.042061,0.017430,0.085636,1.000000,-0.000239,0.000018,-0.000018,-0.823632,-0.192154,-0.134735,0.516288,11.274964,24.857201,-61.669937
25664,-4.224321,1.593788,8.567512,-0.177859,0.097232,-0.130424,-0.037899,0.001342,-0.000507,-0.042243,0.015954,0.085672,1.000000,-0.000189,0.000007,-0.000003,-0.823664,-0.191998,-0.134849,0.516265,11.252210,24.858849,-61.670599
25665,-4.248412,1.532165,8.604712,-0.240141,0.076698,-0.098057,-0.028865,-0.004987,-0.004906,-0.042486,0.015335,0.086044,1.000000,-0.000144,-0.000025,-0.000025,-0.823679,-0.191865,-0.134918,0.516273,11.233552,24.857804,-61.674649
25666,-4.194000,1.523250,8.580516,-0.223796,0.041953,-0.144009,-0.011301,-0.005015,0.005514,-0.041943,0.015236,0.085803,1.000000,-0.000057,-0.000025,0.000028,-0.823705,-0.191806,-0.134931,0.516249,11.227276,24.855207,-61.672364
25667,-4.155534,1.627434,8.609646,-0.112652,0.038962,-0.115842,0.010880,0.001267,0.005810,-0.041555,0.016268,0.086098,1.000000,0.000054,0.000006,0.000029,-0.823706,-0.191859,-0.134914,0.516234,11.234453,24.856514,-61.669031
25668,-4.168590,1.828697,8.546717,0.060887,0.156543,-0.130775,0.012379,0.001577,0.005735,-0.041686,0.018280,0.085469,1.000000,0.000062,0.000008,0.000029,-0.823705,-0.191915,-0.134893,0.516219,11.242143,24.857597,-61.665799
25669,-4.116474,1.773053,8.556149,0.033019,0.088370,-0.154123,-0.004444,-0.000489,0.004884,-0.041165,0.017731,0.085561,1.000000,-0.000022,-0.000002,0.000024,-0.823719,-0.191900,-0.134909,0.516199,11.240209,24.858037,-61.663258
25670,-4.152818,1.682619,8.599200,-0.062933,0.062498,-0.116529,-0.003825,-0.003611,0.003585,-0.041530,0.016827,0.085991,1.000000,-0.000019,-0.000018,0.000018,-0.823732,-0.191874,-0.134910,0.516187,11.237787,24.856444,-61.661996
25671,-4.153122,1.677943,8.575362,-0.067682,0.071913,-0.138443,0.000301,-0.001634,-0.001426,-0.041532,0.016780,0.085753,1.000000,0.000002,-0.000008,-0.000007,-0.823726,-0.191872,-0.134916,0.516197,11.236872,24.856955,-61.663491
25672,-4.207938,1.676544,8.552148,-0.093497,0.125665,-0.136312,0.010319,-0.003652,0.004713,-0.042081,0.016760,0.085522,1.000000,0.000052,-0.000018,0.000024,-0.823728,-0.191905,-0.134879,0.516190,11.242844,24.855214,-61.661535
25673,-4.170387,1.536500,8.578166,-0.204192,0.028286,-0.153733,0.016314,-0.002414,0.004411,-0.041705,0.015357,0.085782,1.000000,0.000082,-0.000012,0.000022,-0.823722,-0.191970,-0.134835,0.516187,11.252572,24.854662,-61.659558
25674,-4.197377,1.658559,8.555652,-0.108545,0.107104,-0.140836,0.038323,-0.001954,0.009945,-0.041975,0.016567,0.085559,1.000000,0.000192,-0.000010,0.000050,-0.823710,-0.192127,-0.134728,0.516176,11.276039,24.853288,-61.654153
25675,-4.137353,1.766297,8.533932,0.010994,0.110276,-0.166278,0.028468,-0.007097,0.010728,-0.041378,0.017649,0.085340,1.000000,0.000142,-0.000035,0.000054,-0.823711,-0.192234,-0.134627,0.516160,11.294100,24.849417,-61.648820
25676,-3.932715,1.914062,8.526151,0.229575,0.007968,-0.232898,0.027288,-0.008894,0.010930,-0.039332,0.019127,0.085262,1.000000,0.000136,-0.000044,0.000055,-0.823717,-0.192328,-0.134519,0.516144,11.311139,24.844030,-61.643666
25677,-3.963397,1.936710,8.572417,0.236826,0.020006,-0.174783,-0.009841,0.003492,0.009387,-0.039633,0.019369,0.085724,1.000000,-0.000049,0.000017,0.000047,-0.823745,-0.192304,-0.134562,0.516098,11.307479,24.846252,-61.637871
25678,-4.138321,1.951740,8.499142,0.174424,0.199731,-0.163849,-0.025411,-0.004668,0.007499,-0.041386,0.019527,0.084988,1.000000,-0.000127,-0.000023,0.000037,-0.823789,-0.192190,-0.134611,0.516057,11.293651,24.843625,-61.634318
25679,-4.104571,1.745081,8.488352,0.004704,0.097687,-0.224394,-0.041144,0.002815,0.005735,-0.041045,0.017467,0.084881,1.000000,-0.000206,0.000014,0.000029,-0.823838,-0.192033,-0.134734,0.516005,11.271127,24.845867,-61.630822
25680,-4.063641,1.899189,8.507840,0.165001,0.118557,-0.196963,-0.046149,-0.002592,0.009522,-0.040638,0.019010,0.085073,1.000000,-0.000231,-0.000013,0.000048,-0.823906,-0.191840,-0.134843,0.515939,11.246051,24.844183,-61.625758
25681,-4.050888,1.690254,8.547639,-0.013099,0.010334,-0.203915,-0.064770,-0.003327,0.010171,-0.040511,0.016928,0.085470,1.000000,-0.000324,-0.000017,0.000051,-0.823993,-0.191573,-0.134999,0.515859,11.210851,24.842489,-61.620263
25682,-4.050261,1.690066,8.572588,-0.007960,0.000720,-0.182001,-0.057310,0.006404,0.013740,-0.040501,0.016922,0.085722,1.000000,-0.000287,0.000032,0.000069,-0.824077,-0.191360,-0.135169,0.515760,11.180943,24.845397,-61.611481
25683,-4.124462,1.736626,8.590184,0.006971,0.071975,-0.126972,-0.060995,0.008325,0.008977,-0.041242,0.017391,0.085898,1.000000,-0.000305,0.000042,0.000045,-0.824149,-0.191138,-0.135364,0.515675,11.148190,24.850388,-61.605325
25684,-4.188125,1.564709,8.574152,-0.171186,0.063944,-0.144627,-0.057432,0.005386,0.002865,-0.041879,0.015671,0.085738,1.000000,-0.000287,0.000027,0.000014,-0.824205,-0.190914,-0.135541,0.515622,11.115327,24.853936,-61.603409
25685,-4.275648,1.570952,8.550008,-0.199827,0.148900,-0.128185,-0.042425,0.000149,-0.003394,-0.042756,0.015728,0.085497,1.000000,-0.000212,0.000001,-0.000017,-0.824233,-0.190739,-0.135666,0.515609,11.089556,24.855715,-61.605907
25686,-4.183646,1.659569,8.531389,-0.077476,0.120863,-0.167945,-0.034578,-0.007976,-0.007602,-0.041839,0.016612,0.085309,1.000000,-0.000173,-0.000040,-0.000038,-0.824250,-0.190568,-0.135739,0.515627,11.066379,24.852904,-61.612102
25687,-4.074217,1.619868,8.660587,-0.059566,-0.039373,-0.105789,-0.035212,0.003469,-0.000787,-0.040741,0.016214,0.086604,1.000000,-0.000176,0.000017,-0.000004,-0.824275,-0.190433,-0.135857,0.515605,11.045568,24.856298,-61.612597
25688,-4.253047,1.571507,8.549501,-0.180983,0.135696,-0.137935,-0.021599,-0.001209,0.002344,-0.042531,0.015724,0.085493,1.000000,-0.000108,-0.000006,0.000012,-0.824300,-0.190340,-0.135915,0.515584,11.032763,24.856197,-61.611807
25689,-4.184804,1.607850,8.590925,-0.116138,0.077591,-0.123402,-0.015005,-0.003236,-0.000810,-0.041849,0.016085,0.085907,1.000000,-0.000075,-0.000016,-0.000004,-0.824311,-0.190271,-0.135954,0.515582,11.023158,24.855837,-61.613133
25690,-4.139898,1.626272,8.586595,-0.079431,0.051656,-0.142933,-0.007122,-0.002604,0.005153,-0.041401,0.016265,0.085865,1.000000,-0.000036,-0.000013,0.000026,-0.824330,-0.190235,-0.135966,0.515561,11.019309,24.854644,-61.610770
25691,-4.208907,1.779730,8.559741,0.028852,0.180024,-0.111231,-0.005659,-0.002581,0.001974,-0.042090,0.017799,0.085596,1.000000,-0.000028,-0.000013,0.000010,-0.824339,-0.190208,-0.135981,0.515553,11.015800,24.854361,-61.610284
25692,-4.166412,1.744348,8.565564,0.016423,0.130308,-0.130055,-0.020664,-0.005817,0.001163,-0.041667,0.017452,0.085653,1.000000,-0.000103,-0.000029,0.000006,-0.824363,-0.190106,-0.136018,0.515542,11.002990,24.851798,-61.610782
25693,-4.103867,1.664341,8.579344,-0.026888,0.043761,-0.157934,-0.020047,-0.008936,-0.000142,-0.041042,0.016652,0.085790,1.000000,-0.000100,-0.000045,-0.000001,-0.824384,-0.190002,-0.136046,0.515540,10.990381,24.848200,-61.612421
25694,-4.090756,1.694222,8.573849,0.007004,0.049128,-0.163174,-0.020364,-0.007448,-0.000267,-0.040911,0.016951,0.085735,1.000000,-0.000102,-0.000037,-0.000001,-0.824405,-0.189896,-0.136078,0.515537,10.977288,24.844875,-61.614000
25695,-4.159499,1.609950,8.591477,-0.096689,0.064006,-0.133152,-0.020046,-0.008937,-0.000144,-0.041599,0.016108,0.085911,1.000000,-0.000100,-0.000045,-0.000001,-0.824426,-0.189792,-0.136105,0.515534,10.964680,24.841277,-61.615628
25696,-4.168681,1.630360,8.588276,-0.081048,0.082314,-0.128622,-0.015568,-0.008152,-0.001919,-0.041690,0.016311,0.085880,1.000000,-0.000078,-0.000041,-0.000010,-0.824439,-0.189703,-0.136123,0.515542,10.953870,24.837736,-61.618314
25697,-4.168153,1.629208,8.588751,-0.080846,0.082149,-0.128619,-0.008411,-0.005260,-0.003967,-0.041683,0.016297,0.085886,1.000000,-0.000042,-0.000026,-0.000020,-0.824437,-0.189654,-0.136140,0.515560,10.947104,24.836637,-61.621868
25698,-4.154802,1.664691,8.606892,-0.042005,0.077952,-0.111949,-0.000619,-0.005344,-0.005768,-0.041550,0.016648,0.086068,1.000000,-0.000003,-0.000027,-0.000029,-0.824424,-0.189630,-0.136134,0.515590,10.943999,24.835094,-61.626602
25699,-4.172764,1.752720,8.541593,0.028322,0.157416,-0.147429,-0.007830,-0.008664,-0.008379,-0.041731,0.017532,0.085413,1.000000,-0.000039,-0.000043,-0.000042,-0.824411,-0.189572,-0.136140,0.515630,10.936237,24.832574,-61.633307
25700,-4.144104,1.636225,8.587777,-0.061991,0.068937,-0.138384,-0.015887,-0.015128,-0.009117,-0.041447,0.016371,0.085873,1.000000,-0.000079,-0.000076,-0.000046,-0.824411,-0.189458,-0.136137,0.515673,10.923022,24.825889,-61.641287
25701,-4.180062,1.539772,8.607112,-0.162865,0.052510,-0.122646,-0.010774,-0.017318,-0.010648,-0.041807,0.015405,0.086067,1.000000,-0.000054,-0.000087,-0.000053,-0.824402,-0.189364,-0.136116,0.515728,10.912557,24.818756,-61.650397
25702,-4.189285,1.556889,8.579977,-0.152173,0.080383,-0.140025,0.010859,-0.015818,-0.009893,-0.041899,0.015566,0.085797,1.000000,0.000054,-0.000079,-0.000049,-0.824374,-0.189358,-0.136042,0.515794,10.914433,24.811765,-61.658938
25703,-4.152458,1.607881,8.619817,-0.090118,0.053561,-0.111221,0.015955,-0.009688,-0.005901,-0.041528,0.016073,0.086197,1.000000,0.000080,-0.000048,-0.000030,-0.824346,-0.189397,-0.135980,0.515840,10.920869,24.808434,-61.664223
25704,-4.172022,1.648948,8.588276,-0.063984,0.099794,-0.124074,0.025900,-0.012294,-0.005982,-0.041725,0.016480,0.085882,1.000000,0.000130,-0.000061,-0.000030,-0.824312,-0.189465,-0.135878,0.515897,10.932557,24.803003,-61.669920
25705,-4.103805,1.684517,8.605202,-0.004069,0.051235,-0.131486,0.029461,-0.006758,-0.005024,-0.041041,0.016834,0.086053,1.000000,0.000147,-0.000034,-0.000025,-0.824272,-0.189567,-0.135792,0.515946,10.947096,24.801242,-61.674336
25706,-3.996744,1.863703,8.569536,0.201091,0.052400,-0.177278,0.015638,-0.008201,-0.006025,-0.039970,0.018632,0.085695,1.000000,0.000078,-0.000041,-0.000030,-0.824245,-0.189604,-0.135733,0.515992,10.953099,24.798120,-61.679570
25707,-4.107054,1.620022,8.543221,-0.067652,0.055933,-0.196488,0.006911,-0.003511,-0.003037,-0.041072,0.016198,0.085432,1.000000,0.000035,-0.000018,-0.000015,-0.824229,-0.189623,-0.135717,0.516014,10.955421,24.797956,-61.682324
25708,-4.172516,1.600969,8.598184,-0.112296,0.075566,-0.123341,0.016295,-0.002568,0.002847,-0.041726,0.016002,0.085983,1.000000,0.000081,-0.000013,0.000014,-0.824220,-0.189682,-0.135671,0.516018,10.964390,24.797037,-61.681386
25709,-4.093141,1.663370,8.584655,-0.023645,0.041993,-0.157918,0.021691,0.001934,0.005404,-0.040931,0.016623,0.085849,1.000000,0.000108,0.000010,0.000027,-0.824208,-0.189782,-0.135631,0.516012,10.977634,24.799033,-61.678311
25710,-4.103824,1.683156,8.556279,-0.012956,0.069868,-0.175299,0.025887,0.004494,0.006607,-0.041037,0.016819,0.085566,1.000000,0.000129,0.000022,0.000033,-0.824195,-0.189902,-0.135587,0.516000,10.993432,24.801675,-61.674195
25711,-4.104012,1.685756,8.555677,-0.012742,0.069693,-0.175298,0.026263,0.003437,0.011388,-0.041040,0.016844,0.085560,1.000000,0.000131,0.000017,0.000057,-0.824193,-0.190029,-0.135535,0.515971,11.010921,24.803878,-61.667306
25712,-4.158024,1.695348,8.579988,-0.028642,0.104311,-0.129307,0.021711,0.002077,0.006955,-0.041580,0.016943,0.085802,1.000000,0.000109,0.000010,0.000035,-0.824186,-0.190126,-0.135491,0.515957,11.024295,24.805121,-61.663263
25713,-4.093334,1.672767,8.582736,-0.022821,0.041541,-0.157914,0.021745,-0.006105,0.002993,-0.040936,0.016718,0.085828,1.000000,0.000109,-0.000031,0.000015,-0.824174,-0.190203,-0.135421,0.515967,11.036537,24.802857,-61.662504
25714,-4.100245,1.750112,8.568656,0.041957,0.083625,-0.154115,0.018393,-0.005524,-0.000086,-0.041005,0.017493,0.085687,1.000000,0.000092,-0.000028,-0.000000,-0.824157,-0.190262,-0.135360,0.515987,11.045794,24.800596,-61.663742
25715,-4.102260,1.697957,8.578701,-0.006965,0.059672,-0.153386,0.013617,-0.004676,0.003122,-0.041025,0.016973,0.085787,1.000000,0.000068,-0.000023,0.000016,-0.824152,-0.190310,-0.135316,0.515990,11.053489,24.799138,-61.662877
25716,-4.069642,1.686847,8.580170,-0.003963,0.028320,-0.167692,0.011800,-0.003497,0.003073,-0.040698,0.016863,0.085802,1.000000,0.000059,-0.000017,0.000015,-0.824148,-0.190349,-0.135278,0.515991,11.059893,24.797671,-61.661913
25717,-4.024239,1.711904,8.599276,0.037700,-0.007303,-0.165347,0.014181,0.000242,0.004224,-0.040243,0.017112,0.085994,1.000000,0.000071,0.000001,0.000021,-0.824141,-0.190413,-0.135252,0.515986,11.068449,24.798857,-61.659771
25718,-4.076245,1.769360,8.589762,0.065985,0.060658,-0.141990,0.009367,0.000802,0.004327,-0.040762,0.017689,0.085899,1.000000,0.000047,0.000004,0.000022,-0.824141,-0.190454,-0.135237,0.515976,11.074003,24.799668,-61.657509
25719,-4.121689,1.746035,8.570294,0.024747,0.095931,-0.144332,0.001987,0.004648,-0.005184,-0.041214,0.017461,0.085704,1.000000,0.000010,0.000023,-0.000026,-0.824118,-0.190472,-0.135269,0.515997,11.073356,24.804366,-61.660682
25720,-4.159826,1.646767,8.564874,-0.081085,0.089191,-0.150466,0.004140,0.002126,-0.003458,-0.041597,0.016467,0.085650,1.000000,0.000021,0.000011,-0.000017,-0.824101,-0.190490,-0.135280,0.516014,11.073960,24.806779,-61.663082
25721,-4.147872,1.678743,8.558337,-0.047180,0.094434,-0.155720,0.009461,0.006050,-0.007116,-0.041476,0.016785,0.085585,1.000000,0.000047,0.000030,-0.000036,-0.824065,-0.190542,-0.135301,0.516046,11.077161,24.812487,-61.667263
25722,-4.103304,1.703331,8.577136,-0.005531,0.058932,-0.153381,0.015774,0.005800,-0.007295,-0.041030,0.017028,0.085774,1.000000,0.000079,0.000029,-0.000036,-0.824025,-0.190614,-0.135301,0.516084,11.083619,24.817388,-61.671595
25723,-4.160970,1.653399,8.587611,-0.075501,0.079214,-0.128551,0.013957,0.006978,-0.007344,-0.041606,0.016530,0.085879,1.000000,0.000070,0.000035,-0.000037,-0.823984,-0.190686,-0.135314,0.516119,11.089393,24.823637,-61.675721
25724,-4.149145,1.686176,8.580849,-0.041612,0.084580,-0.133810,0.019426,0.003588,-0.005644,-0.041489,0.016855,0.085811,1.000000,0.000097,0.000018,-0.000028,-0.823947,-0.190769,-0.135294,0.516154,11.098260,24.827114,-61.679298
25725,-4.095049,1.685099,8.579505,-0.020352,0.040166,-0.157903,0.022443,0.004352,-0.004244,-0.040948,0.016842,0.085798,1.000000,0.000112,0.000022,-0.000021,-0.823907,-0.190872,-0.135271,0.516185,11.109557,24.831561,-61.681826
25726,-4.115487,1.730870,8.571031,0.010738,0.076829,-0.148853,0.024804,0.007947,-0.004647,-0.041151,0.017299,0.085714,1.000000,0.000124,0.000040,-0.000023,-0.823864,-0.190988,-0.135254,0.516215,11.121988,24.837379,-61.684254
25727,-4.123649,1.807727,8.556306,0.075535,0.118782,-0.145065,0.010979,0.006503,-0.005642,-0.041233,0.018074,0.085565,1.000000,0.000055,0.000033,-0.000028,-0.823830,-0.191049,-0.135272,0.516243,11.126466,24.843205,-61.687529
25728,-4.119657,1.674157,8.556427,-0.042946,0.062391,-0.170017,-0.001929,0.000304,-0.009365,-0.041196,0.016744,0.085564,1.000000,-0.000010,0.000002,-0.000047,-0.823805,-0.191032,-0.135296,0.516282,11.121961,24.845249,-61.693810
25729,-4.187275,1.640410,8.539528,-0.102426,0.110600,-0.162556,0.002942,0.000182,-0.004810,-0.041872,0.016404,0.085396,1.000000,0.000015,0.000001,-0.000024,-0.823785,-0.191044,-0.135308,0.516306,11.121734,24.847424,-61.697221
25730,-4.169414,1.783523,8.536851,0.034697,0.153945,-0.147394,-0.001273,-0.002526,-0.007562,-0.041695,0.017837,0.085368,1.000000,-0.000006,-0.000013,-0.000038,-0.823767,-0.191024,-0.135318,0.516341,11.117928,24.847677,-61.702729
25731,-4.122112,1.619704,8.566799,-0.091458,0.038202,-0.169271,-0.004215,-0.002708,-0.002752,-0.041222,0.016199,0.085667,1.000000,-0.000021,-0.000014,-0.000014,-0.823762,-0.191000,-0.135334,0.516353,11.113995,24.847999,-61.705063
25732,-4.175985,1.627144,8.591583,-0.107337,0.072808,-0.123264,0.010828,0.000826,0.001147,-0.041760,0.016267,0.085917,1.000000,0.000054,0.000004,0.000006,-0.823752,-0.191045,-0.135318,0.516357,11.119561,24.849174,-61.704768
25733,-4.138942,1.723088,8.572466,-0.006051,0.088882,-0.139058,0.013825,0.001446,0.000994,-0.041389,0.017225,0.085726,1.000000,0.000069,0.000007,0.000005,-0.823736,-0.191108,-0.135301,0.516363,11.127140,24.851438,-61.704451
25734,-4.161907,1.710083,8.550574,-0.029059,0.111341,-0.151170,0.012345,0.001282,0.002623,-0.041619,0.017095,0.085507,1.000000,0.000062,0.000006,0.000013,-0.823727,-0.191161,-0.135282,0.516362,11.133984,24.852705,-61.703185
25735,-4.149317,1.742661,8.544187,0.004855,0.116570,-0.156434,0.005844,-0.004438,0.006486,-0.041496,0.017423,0.085441,1.000000,0.000029,-0.000022,0.000032,-0.823736,-0.191181,-0.135256,0.516347,11.138095,24.851118,-61.700386
25736,-4.156288,1.582832,8.574882,-0.142355,0.045190,-0.154200,0.008523,-0.002331,0.006208,-0.041564,0.015823,0.085749,1.000000,0.000043,-0.000012,0.000031,-0.823744,-0.191211,-0.135228,0.516332,11.143498,24.849958,-61.697340
25737,-4.162367,1.669196,8.608458,-0.067619,0.067983,-0.106614,0.025346,-0.000267,0.007048,-0.041624,0.016680,0.086087,1.000000,0.000127,-0.000001,0.000035,-0.823733,-0.191322,-0.135169,0.516323,11.159153,24.850637,-61.693651
25738,-4.130777,1.654654,8.585565,-0.069591,0.046210,-0.142829,0.022874,0.003740,0.005193,-0.041307,0.016536,0.085858,1.000000,0.000114,0.000019,0.000026,-0.823719,-0.191427,-0.135130,0.516316,11.172825,24.853001,-61.690491
25739,-4.151088,1.701217,8.576940,-0.038475,0.082737,-0.133781,0.034228,0.009192,0.004329,-0.041507,0.016997,0.085774,1.000000,0.000171,0.000046,0.000022,-0.823687,-0.191597,-0.135089,0.516315,11.193346,24.859278,-61.687193
25740,-4.121832,1.638385,8.587951,-0.084619,0.027614,-0.147348,0.032186,0.004109,0.004860,-0.041217,0.016369,0.085883,1.000000,0.000161,0.000021,0.000024,-0.823664,-0.191740,-0.135028,0.516315,11.212288,24.861885,-61.684193
25741,-4.154081,1.654122,8.585705,-0.087189,0.058724,-0.133028,0.042770,-0.001473,0.005035,-0.041542,0.016522,0.085860,1.000000,0.000214,-0.000007,0.000025,-0.823633,-0.191918,-0.134921,0.516326,11.237316,24.862082,-61.681538
25742,-4.155005,1.648946,8.537104,-0.096925,0.077824,-0.176828,0.042845,-0.000885,0.011243,-0.041551,0.016469,0.085374,1.000000,0.000214,-0.000004,0.000056,-0.823619,-0.192096,-0.134806,0.516311,11.263769,24.861166,-61.675197
25743,-4.152816,1.667596,8.608292,-0.081786,0.048896,-0.111122,0.059426,-0.005232,0.011110,-0.041531,0.016648,0.086087,1.000000,0.000297,-0.000026,0.000056,-0.823588,-0.192338,-0.134634,0.516317,11.299702,24.858678,-61.670015
25744,-4.138626,1.748983,8.542744,-0.008697,0.097190,-0.160946,0.060235,-0.002392,0.006117,-0.041388,0.017463,0.085432,1.000000,0.000301,-0.000012,0.000031,-0.823545,-0.192581,-0.134473,0.516337,11.334705,24.857486,-61.667037
25745,-4.093636,1.773094,8.537122,0.028013,0.071123,-0.180537,0.046446,-0.003537,0.008232,-0.040939,0.017709,0.085375,1.000000,0.000232,-0.000018,0.000041,-0.823518,-0.192771,-0.134345,0.516341,11.362545,24.856221,-61.663058
25746,-4.105586,1.746054,8.542819,-0.005477,0.065651,-0.175262,0.052742,-0.003939,0.006496,-0.041058,0.017437,0.085432,1.000000,0.000264,-0.000020,0.000032,-0.823484,-0.192980,-0.134196,0.516356,11.393272,24.854114,-61.660040
25747,-4.104402,1.755125,8.566162,-0.000287,0.055893,-0.153361,0.044067,-0.007280,0.007087,-0.041048,0.017531,0.085664,1.000000,0.000220,-0.000036,0.000035,-0.823463,-0.193149,-0.134060,0.516362,11.419265,24.850785,-61.656505
25748,-4.061546,1.724756,8.571359,-0.012746,0.006191,-0.172203,0.042512,-0.008037,0.002507,-0.040619,0.017229,0.085716,1.000000,0.000213,-0.000040,0.000013,-0.823432,-0.193302,-0.133925,0.516390,11.442876,24.846827,-61.656471
25749,-4.115360,1.731462,8.571702,-0.033543,0.050225,-0.148083,0.047048,-0.006812,0.005375,-0.041157,0.017293,0.085720,1.000000,0.000235,-0.000034,0.000027,-0.823398,-0.193484,-0.133784,0.516412,11.470146,24.844068,-61.654927
25750,-4.135152,1.774866,8.539087,-0.007417,0.096461,-0.160937,0.046713,-0.005475,0.003691,-0.041354,0.017728,0.085394,1.000000,0.000234,-0.000027,0.000018,-0.823364,-0.193662,-0.133647,0.516435,11.496606,24.841414,-61.653841
25751,-4.096747,1.878271,8.542983,0.098844,0.102950,-0.154871,0.045494,-0.007573,0.000793,-0.040971,0.018763,0.085433,1.000000,0.000227,-0.000038,0.000004,-0.823324,-0.193832,-0.133512,0.516470,11.521758,24.838678,-61.654584
25752,-4.073096,1.895684,8.564164,0.122253,0.080379,-0.142774,0.027147,-0.010090,-0.001502,-0.040735,0.018946,0.085642,1.000000,0.000136,-0.000050,-0.000008,-0.823298,-0.193914,-0.133412,0.516507,11.535412,24.834026,-61.657295
25753,-4.079157,1.776294,8.513472,0.009275,0.061389,-0.206955,0.015680,-0.007938,-0.002897,-0.040795,0.017757,0.085134,1.000000,0.000078,-0.000040,-0.000014,-0.823277,-0.193958,-0.133356,0.516538,11.542554,24.831466,-61.660354
25754,-4.099692,1.777126,8.563881,0.001181,0.055112,-0.153357,0.012325,-0.007371,-0.005974,-0.041000,0.017767,0.085638,1.000000,0.000062,-0.000037,-0.000030,-0.823252,-0.193983,-0.133309,0.516580,11.546698,24.828854,-61.665490
25755,-4.112189,1.741713,8.546529,-0.037254,0.059082,-0.169973,0.010585,-0.005586,0.000181,-0.041124,0.017413,0.085465,1.000000,0.000053,-0.000028,0.000001,-0.823242,-0.194015,-0.133273,0.516594,11.551814,24.827336,-61.666571
25756,-4.136085,1.684492,8.583456,-0.099457,0.038611,-0.137511,0.015966,-0.001225,0.001156,-0.041361,0.016838,0.085836,1.000000,0.000080,-0.000006,0.000006,-0.823228,-0.194075,-0.133235,0.516603,11.560222,24.827357,-61.666519
25757,-4.121917,1.766553,8.541939,-0.021371,0.077177,-0.165448,0.022548,0.005083,0.003472,-0.041217,0.017655,0.085422,1.000000,0.000113,0.000025,0.000017,-0.823202,-0.194187,-0.133208,0.516609,11.573612,24.831546,-61.665223
25758,-4.129504,1.843862,8.526738,0.043416,0.119250,-0.161688,0.017206,0.001026,0.005601,-0.041295,0.018430,0.085269,1.000000,0.000086,0.000005,0.000028,-0.823197,-0.194262,-0.133172,0.516599,11.584005,24.832320,-61.662137
25759,-4.098840,1.788796,8.586503,0.007237,0.044834,-0.131456,0.008101,0.006769,0.003788,-0.040986,0.017884,0.085867,1.000000,0.000041,0.000034,0.000019,-0.823192,-0.194317,-0.133190,0.516582,11.589295,24.837295,-61.659123
25760,-4.090380,1.758565,8.542349,-0.017967,0.045590,-0.179770,0.015687,0.000565,0.004129,-0.040904,0.017578,0.085425,1.000000,0.000078,0.000003,0.000021,-0.823184,-0.194383,-0.133157,0.516577,11.598411,24.837978,-61.657006
25761,-4.109661,1.808532,8.557781,0.018134,0.072529,-0.148831,0.012053,0.002924,0.004023,-0.041096,0.018079,0.085579,1.000000,0.000060,0.000015,0.000020,-0.823178,-0.194444,-0.133149,0.516566,11.605817,24.840761,-61.654293
25762,-4.090542,1.761235,8.541722,-0.017546,0.045349,-0.179768,0.015668,0.000413,0.002576,-0.040905,0.017605,0.085419,1.000000,0.000078,0.000002,0.000013,-0.823167,-0.194509,-0.133118,0.516567,11.614511,24.841537,-61.653155
25763,-4.117695,1.881842,8.518485,0.078200,0.123950,-0.166971,0.012669,-0.000204,0.002734,-0.041177,0.018812,0.085186,1.000000,0.000063,-0.000001,0.000014,-0.823148,-0.194568,-0.133095,0.516582,11.621746,24.843022,-61.654053
25764,-4.129789,1.850827,8.525091,0.044712,0.118479,-0.161685,-0.004968,-0.005086,0.006919,-0.041301,0.018509,0.085249,1.000000,-0.000025,-0.000025,0.000035,-0.823171,-0.194536,-0.133089,0.516558,11.619451,24.840212,-61.650930
25765,-4.092073,1.709414,8.552521,-0.066002,0.021088,-0.178998,-0.006149,-0.006882,0.007129,-0.040924,0.017095,0.085523,1.000000,-0.000031,-0.000034,0.000036,-0.823193,-0.194501,-0.133084,0.516538,11.616717,24.837278,-61.648506
25766,-4.136104,1.690336,8.557712,-0.102272,0.046907,-0.159379,0.001069,-0.003548,0.009705,-0.041363,0.016901,0.085576,1.000000,0.000005,-0.000018,0.000049,-0.823217,-0.194500,-0.133067,0.516504,11.618686,24.835010,-61.643464
25767,-4.177682,1.725547,8.552042,-0.089393,0.096374,-0.140527,0.010720,-0.004522,0.011045,-0.041780,0.017249,0.085520,1.000000,0.000054,-0.000023,0.000055,-0.823238,-0.194541,-0.133025,0.516466,11.626796,24.832693,-61.636765
25768,-4.030340,1.820861,8.554513,0.058874,0.014535,-0.182776,0.011604,-0.001087,0.012254,-0.040305,0.018201,0.085546,1.000000,0.000058,-0.000005,0.000061,-0.823257,-0.194591,-0.132988,0.516427,11.635595,24.831510,-61.629834
25769,-4.139000,1.827602,8.556097,0.017073,0.102785,-0.134496,0.005606,-0.002319,0.012571,-0.041392,0.018271,0.085561,1.000000,0.000028,-0.000012,0.000063,-0.823279,-0.194620,-0.132966,0.516386,11.641260,24.830444,-61.623227
25770,-4.153508,1.743244,8.573444,-0.065553,0.073545,-0.128434,-0.000450,-0.004008,0.008233,-0.041538,0.017431,0.085734,1.000000,-0.000002,-0.000020,0.000041,-0.823301,-0.194610,-0.132953,0.516358,11.641951,24.828086,-61.619155
25771,-4.118753,1.780310,8.540609,-0.018390,0.075421,-0.165428,0.008019,-0.006779,0.009783,-0.041191,0.017798,0.085405,1.000000,0.000040,-0.000034,0.000049,-0.823321,-0.194634,-0.132909,0.516329,11.648027,24.824771,-61.614057
25772,-4.105547,1.812770,8.534205,0.015494,0.080783,-0.170720,0.005000,-0.007547,0.008390,-0.041059,0.018124,0.085341,1.000000,0.000025,-0.000038,0.000042,-0.823340,-0.194638,-0.132867,0.516308,11.651692,24.820408,-61.610340
25773,-4.096873,1.742866,8.573136,-0.043891,0.028878,-0.152571,0.004683,-0.006059,0.008258,-0.040972,0.017425,0.085731,1.000000,0.000023,-0.000030,0.000041,-0.823356,-0.194650,-0.132836,0.516285,11.655506,24.817721,-61.606526
25774,-4.110802,1.894646,8.543673,0.085493,0.113067,-0.145080,0.008039,-0.006627,0.011334,-0.041112,0.018941,0.085436,1.000000,0.000040,-0.000033,0.000057,-0.823380,-0.194670,-0.132787,0.516253,11.661724,24.813533,-61.600872
25775,-4.112686,1.841352,8.554656,0.036582,0.089098,-0.144304,-0.012783,-0.005132,0.007186,-0.041130,0.018418,0.085544,1.000000,-0.000064,-0.000026,0.000036,-0.823409,-0.194612,-0.132806,0.516223,11.655307,24.811502,-61.597717
25776,-4.075052,1.699422,8.582241,-0.074174,-0.008134,-0.161606,-0.010630,-0.007647,0.008922,-0.040755,0.016997,0.085820,1.000000,-0.000053,-0.000038,0.000045,-0.823445,-0.194552,-0.132803,0.516189,11.650148,24.807022,-61.593685
25777,-4.145197,1.608099,8.552721,-0.187749,0.025882,-0.175169,0.010405,-0.003039,0.010910,-0.041454,0.016074,0.085527,1.000000,0.000052,-0.000015,0.000055,-0.823460,-0.194597,-0.132768,0.516157,11.658095,24.805726,-61.587898
25778,-4.148247,1.748274,8.574967,-0.063850,0.072542,-0.128415,0.019739,-0.002530,0.012114,-0.041485,0.017472,0.085751,1.000000,0.000099,-0.000013,0.000061,-0.823472,-0.194676,-0.132704,0.516125,11.671437,24.803747,-61.581240
25779,-4.113574,1.786921,8.541724,-0.016695,0.074419,-0.165417,0.023352,-0.005044,0.010666,-0.041139,0.017857,0.085418,1.000000,0.000117,-0.000025,0.000053,-0.823476,-0.194769,-0.132627,0.516103,11.686631,24.801306,-61.575725
25780,-4.141852,1.859691,8.553200,0.034851,0.119832,-0.129968,0.015874,-0.006426,0.012617,-0.041422,0.018588,0.085532,1.000000,0.000079,-0.000032,0.000063,-0.823495,-0.194823,-0.132557,0.516071,11.697679,24.797079,-61.569256
25781,-4.136441,1.732615,8.578738,-0.078672,0.053768,-0.132927,0.014058,-0.005246,0.012564,-0.041368,0.017318,0.085788,1.000000,0.000070,-0.000026,0.000063,-0.823518,-0.194877,-0.132503,0.516027,11.708038,24.794176,-61.561487
25782,-4.096329,1.877783,8.524187,0.066736,0.103323,-0.171493,0.019191,-0.007301,0.012588,-0.040968,0.018767,0.085242,1.000000,0.000096,-0.000037,0.000063,-0.823534,-0.194942,-0.132420,0.515998,11.720930,24.789459,-61.555150
25783,-4.085074,1.861694,8.552370,0.056512,0.075162,-0.154120,-0.003152,-0.006258,0.006975,-0.040854,0.018617,0.085522,1.000000,-0.000016,-0.000031,0.000035,-0.823550,-0.194922,-0.132410,0.515983,11.719883,24.786970,-61.553240
25784,-4.080290,1.728121,8.554391,-0.062010,0.018810,-0.178966,-0.001040,-0.009080,0.005608,-0.040807,0.017281,0.085542,1.000000,-0.000005,-0.000045,0.000028,-0.823569,-0.194895,-0.132380,0.515971,11.719278,24.782067,-61.551445
25785,-4.127330,1.848096,8.581988,0.025442,0.091217,-0.112591,0.010428,-0.011243,0.006994,-0.041279,0.018475,0.085819,1.000000,0.000052,-0.000056,0.000035,-0.823585,-0.194915,-0.132314,0.515954,11.725814,24.776412,-61.547884
25786,-4.069765,1.894032,8.546921,0.090797,0.080301,-0.159423,-0.013079,-0.011839,0.003148,-0.040703,0.018945,0.085466,1.000000,-0.000065,-0.000059,0.000016,-0.823612,-0.194829,-0.132306,0.515946,11.717526,24.770247,-61.547963
25787,-4.112745,1.682234,8.541018,-0.118273,0.035479,-0.185729,-0.010650,-0.007791,0.007377,-0.041131,0.016825,0.085408,1.000000,-0.000053,-0.000039,0.000037,-0.823638,-0.194774,-0.132308,0.515925,11.712224,24.766815,-61.545770
25788,-4.127793,1.789000,8.570319,-0.028047,0.076714,-0.133695,0.000164,-0.007133,0.006946,-0.041282,0.017888,0.085702,1.000000,0.000001,-0.000036,0.000035,-0.823658,-0.194758,-0.132282,0.515906,11.712760,24.762849,-61.542899
25789,-4.124396,1.842703,8.559909,0.021325,0.100272,-0.134478,-0.002794,-0.007439,0.010209,-0.041248,0.018426,0.085597,1.000000,-0.000014,-0.000037,0.000051,-0.823684,-0.194738,-0.132262,0.515876,11.712731,24.759229,-61.538690
25790,-4.047530,1.844473,8.532915,0.055764,0.052654,-0.190352,-0.009762,-0.004355,0.008584,-0.040478,0.018447,0.085327,1.000000,-0.000049,-0.000022,0.000043,-0.823716,-0.194690,-0.132271,0.515841,11.708152,24.756632,-61.534452
25791,-4.159979,1.752292,8.604418,-0.074312,0.074179,-0.096673,-0.009783,-0.004508,0.007033,-0.041602,0.017526,0.086042,1.000000,-0.000049,-0.000023,0.000035,-0.823743,-0.194645,-0.132285,0.515811,11.703443,24.754958,-61.531010
25792,-4.068888,1.833948,8.536097,0.037959,0.065337,-0.180530,-0.005346,-0.004048,0.002137,-0.040691,0.018341,0.085360,1.000000,-0.000027,-0.000020,0.000011,-0.823754,-0.194611,-0.132290,0.515805,11.699743,24.753282,-61.530715
25793,-4.070017,1.789396,8.594912,-0.000959,0.022163,-0.135963,-0.012568,0.000984,0.005035,-0.040700,0.017898,0.085948,1.000000,-0.000063,0.000005,0.000025,-0.823768,-0.194570,-0.132336,0.515786,11.693214,24.755096,-61.529237
25794,-4.129058,1.723818,8.534903,-0.085871,0.071340,-0.176673,-0.005999,-0.001225,0.000322,-0.041291,0.017241,0.085348,1.000000,-0.000030,-0.000006,0.000002,-0.823773,-0.194539,-0.132355,0.515785,11.688822,24.755215,-61.529702
25795,-4.161137,1.736156,8.533373,-0.088409,0.102420,-0.162327,0.003336,-0.000723,0.001522,-0.041612,0.017360,0.085334,1.000000,0.000017,-0.000004,0.000008,-0.823768,-0.194555,-0.132357,0.515787,11.690407,24.756362,-61.529788
25796,-4.035596,1.825330,8.562053,0.046589,0.023921,-0.172984,0.003378,-0.000417,0.004625,-0.040357,0.018251,0.085621,1.000000,0.000017,-0.000002,0.000023,-0.823775,-0.194568,-0.132351,0.515773,11.692544,24.756436,-61.527492
25797,-4.096772,1.712233,8.536381,-0.082443,0.039594,-0.191008,0.003930,0.004353,0.004149,-0.040966,0.017120,0.085365,1.000000,0.000020,0.000022,0.000021,-0.823773,-0.194602,-0.132370,0.515758,11.695417,24.760111,-61.525008
25798,-4.059482,1.807768,8.516251,0.018806,0.055785,-0.206935,0.013940,0.002185,0.008715,-0.040595,0.018070,0.085164,1.000000,0.000070,0.000011,0.000044,-0.823779,-0.194668,-0.132344,0.515731,11.704804,24.761170,-61.519852
25799,-4.058090,1.818254,8.563961,0.029011,0.036406,-0.163159,0.000421,-0.000723,0.007888,-0.040582,0.018181,0.085640,1.000000,0.000002,-0.000004,0.000039,-0.823795,-0.194675,-0.132347,0.515701,11.706381,24.761470,-61.515455
25800,-4.122898,1.642343,8.501294,-0.159181,0.047655,-0.224154,0.008530,-0.002321,0.006198,-0.041230,0.016419,0.085013,1.000000,0.000043,-0.000012,0.000031,-0.823802,-0.194705,-0.132319,0.515686,11.711775,24.760292,-61.512431
25801,-4.075404,1.907405,8.497356,0.099508,0.115807,-0.198695,0.001384,-0.013391,0.004369,-0.040760,0.019073,0.084971,1.000000,0.000007,-0.000067,0.000022,-0.823817,-0.194682,-0.132271,0.515682,11.712276,24.753947,-61.511683
25802,-4.039192,1.520821,8.524405,-0.233280,-0.075624,-0.261074,-0.010978,-0.019231,0.019451,-0.040402,0.015209,0.085239,1.000000,-0.000055,-0.000096,0.000097,-0.823889,-0.194597,-0.132211,0.515616,11.709013,24.741741,-61.502637
25803,-4.063306,1.842753,8.561505,0.045321,0.054256,-0.158643,0.017052,-0.017578,0.024596,-0.040643,0.018415,0.085613,1.000000,0.000085,-0.000088,0.000123,-0.823942,-0.194641,-0.132085,0.515546,11.723512,24.730664,-61.490220
25804,-4.182921,1.818909,8.570538,-0.030144,0.137221,-0.104977,-0.002101,-0.014529,0.032795,-0.041838,0.018183,0.085702,1.000000,-0.000011,-0.000073,0.000164,-0.824036,-0.194613,-0.132008,0.515426,11.729029,24.719539,-61.472335
25805,-4.268380,1.831458,8.546491,-0.058687,0.222143,-0.088335,0.015345,-0.015634,0.032297,-0.042693,0.018301,0.085463,1.000000,0.000077,-0.000078,0.000161,-0.824116,-0.194658,-0.131888,0.515312,11.744646,24.708493,-61.453765
25806,-4.030799,1.920298,8.597904,0.123286,0.045617,-0.125502,-0.012611,-0.025021,0.027897,-0.040321,0.019203,0.085973,1.000000,-0.000063,-0.000125,0.000139,-0.824214,-0.194557,-0.131800,0.515216,11.742304,24.692048,-61.440258
25807,-4.169486,1.747051,8.587705,-0.094059,0.094623,-0.108685,-0.002339,-0.016212,0.015731,-0.041703,0.017468,0.085873,1.000000,-0.000012,-0.000081,0.000079,-0.824249,-0.194524,-0.131737,0.515188,11.743428,24.683244,-61.436018
25808,-4.160147,1.869292,8.638701,0.019417,0.113302,-0.044626,0.007695,-0.018236,0.021840,-0.041611,0.018685,0.086384,1.000000,0.000038,-0.000091,0.000109,-0.824308,-0.194520,-0.131631,0.515124,11.751516,24.671313,-61.425384
25809,-4.057700,1.930152,8.574728,0.116221,0.085985,-0.133045,-0.000321,-0.019649,0.008157,-0.040586,0.019300,0.085743,1.000000,-0.000002,-0.000098,0.000041,-0.824341,-0.194475,-0.131558,0.515106,11.751684,24.660956,-61.422665
25810,-4.078663,1.920027,8.578073,0.098198,0.098865,-0.123213,-0.019720,-0.010065,0.003221,-0.040791,0.019208,0.085777,1.000000,-0.000099,-0.000050,0.000016,-0.824372,-0.194367,-0.131574,0.515092,11.739704,24.655780,-61.422476
25811,-4.105575,1.802086,8.602843,-0.018090,0.064076,-0.111774,-0.018242,-0.009913,0.001587,-0.041060,0.018028,0.086025,1.000000,-0.000091,-0.000050,0.000008,-0.824396,-0.194270,-0.131593,0.515086,11.728501,24.651679,-61.423284
25812,-4.005003,1.821359,8.621299,0.044537,-0.015659,-0.133743,-0.017686,-0.005144,0.001112,-0.040052,0.018221,0.086210,1.000000,-0.000088,-0.000026,0.000006,-0.824417,-0.194182,-0.131626,0.515077,11.717408,24.649510,-61.423764
25813,-3.938605,1.843482,8.590092,0.094434,-0.045071,-0.185135,-0.019596,0.003633,-0.001225,-0.039384,0.018443,0.085900,1.000000,-0.000098,0.000018,-0.000006,-0.824425,-0.194113,-0.131707,0.515070,11.705389,24.653430,-61.424862
25814,-4.062124,1.806426,8.551039,0.008985,0.057088,-0.175210,-0.025399,0.008368,-0.004606,-0.040617,0.018076,0.085510,1.000000,-0.000127,0.000042,-0.000023,-0.824430,-0.194024,-0.131821,0.515067,11.689125,24.659505,-61.427144
25815,-4.138880,1.802315,8.578731,-0.025010,0.104461,-0.119301,-0.024477,0.003750,-0.005765,-0.041387,0.018035,0.085786,1.000000,-0.000122,0.000019,-0.000029,-0.824437,-0.193930,-0.131920,0.515065,11.673158,24.663793,-61.429561
25816,-4.118170,1.800046,8.528685,-0.016590,0.110672,-0.172904,-0.023533,-0.000715,-0.005375,-0.041182,0.018012,0.085285,1.000000,-0.000118,-0.000004,-0.000027,-0.824444,-0.193824,-0.131993,0.515075,11.657280,24.664859,-61.433479
25817,-4.078337,1.714586,8.569286,-0.073207,0.027480,-0.169079,-0.027072,0.002260,0.000731,-0.040782,0.017157,0.085691,1.000000,-0.000135,0.000011,0.000004,-0.824466,-0.193722,-0.132086,0.515055,11.641426,24.667733,-61.433334
25818,-4.142794,1.737862,8.566508,-0.078529,0.089988,-0.140371,-0.014398,0.002025,0.003443,-0.041427,0.017384,0.085664,1.000000,-0.000072,0.000010,0.000017,-0.824485,-0.193667,-0.132138,0.515032,11.633199,24.669316,-61.431459
25819,-4.113663,1.862583,8.590796,0.048206,0.105179,-0.108058,-0.017375,0.001567,0.005156,-0.041136,0.018632,0.085907,1.000000,-0.000087,0.000008,0.000026,-0.824510,-0.193606,-0.132199,0.514998,11.623984,24.671274,-61.428380
25820,-4.069837,1.875095,8.562102,0.079844,0.088860,-0.149619,-0.027363,0.003901,0.002150,-0.040697,0.018762,0.085619,1.000000,-0.000137,0.000020,0.000011,-0.824537,-0.193502,-0.132293,0.514970,11.608095,24.674060,-61.427066
25821,-3.917940,2.067791,8.519704,0.321352,0.064005,-0.215604,-0.036160,-0.000173,-0.004990,-0.039179,0.020694,0.085193,1.000000,-0.000181,-0.000001,-0.000025,-0.824556,-0.193351,-0.132405,0.514967,11.585425,24.676196,-61.430393
25822,-3.882092,2.112947,8.559607,0.383458,0.037232,-0.187012,-0.078435,0.005879,-0.013492,-0.038817,0.021166,0.085589,1.000000,-0.000392,0.000029,-0.000067,-0.824591,-0.193031,-0.132654,0.514968,11.536343,24.681889,-61.438495
25823,-4.134648,1.923017,8.479789,0.109096,0.203529,-0.187367,-0.102247,-0.001393,-0.021390,-0.041345,0.019278,0.084788,1.000000,-0.000511,-0.000007,-0.000107,-0.824631,-0.192595,-0.132946,0.514992,11.471562,24.685224,-61.452379
25824,-4.098801,1.732000,8.590737,-0.035823,0.053760,-0.138155,-0.113879,-0.005026,-0.017529,-0.040989,0.017373,0.085896,1.000000,-0.000569,-0.000025,-0.000088,-0.824696,-0.192098,-0.133245,0.514995,11.400553,24.685235,-61.464354
25825,-4.136498,1.627521,8.612013,-0.136623,0.037270,-0.122169,-0.099508,0.001003,-0.018596,-0.041363,0.016322,0.086112,1.000000,-0.000498,0.000005,-0.000093,-0.824728,-0.191685,-0.133536,0.515023,11.338201,24.689888,-61.478418
25826,-4.157201,1.658308,8.581617,-0.110504,0.083511,-0.135019,-0.085289,0.001367,-0.012863,-0.041570,0.016622,0.085809,1.000000,-0.000426,0.000007,-0.000064,-0.824773,-0.191325,-0.133784,0.515020,11.285107,24.692944,-61.486718
25827,-4.077309,1.715421,8.593085,-0.016966,0.040339,-0.147993,-0.078995,0.000953,-0.014614,-0.040771,0.017191,0.085924,1.000000,-0.000395,0.000005,-0.000073,-0.824808,-0.190994,-0.134019,0.515025,11.235559,24.696632,-61.495592
25828,-4.138395,1.599670,8.591829,-0.141032,0.046581,-0.144041,-0.070605,0.005911,-0.013794,-0.041380,0.016030,0.085914,1.000000,-0.000353,0.000030,-0.000069,-0.824834,-0.190706,-0.134248,0.515032,11.190868,24.702332,-61.503917
25829,-4.142923,1.727167,8.592227,-0.022086,0.102676,-0.119275,-0.058023,0.005090,-0.017283,-0.041426,0.017300,0.085918,1.000000,-0.000290,0.000025,-0.000086,-0.824844,-0.190469,-0.134450,0.515051,11.152822,24.708520,-61.512964
25830,-4.108847,1.762147,8.584315,0.030012,0.095105,-0.134449,-0.065899,0.004609,-0.021675,-0.041085,0.017654,0.085838,1.000000,-0.000329,0.000023,-0.000108,-0.824845,-0.190191,-0.134669,0.515094,11.108716,24.714348,-61.526333
25831,-4.101581,1.684322,8.623424,-0.029361,0.043176,-0.116264,-0.069807,0.000421,-0.024300,-0.041014,0.016878,0.086228,1.000000,-0.000349,0.000002,-0.000122,-0.824841,-0.189893,-0.134887,0.515155,11.061850,24.719033,-61.542612
25832,-4.164442,1.751198,8.587642,0.009466,0.139042,-0.110242,-0.066623,-0.001323,-0.033651,-0.041642,0.017548,0.085870,1.000000,-0.000333,-0.000007,-0.000168,-0.824816,-0.189589,-0.135095,0.515252,11.013922,24.722820,-61.564123
25833,-4.113057,1.686933,8.598057,-0.018490,0.070875,-0.133628,-0.084034,-0.000091,-0.031617,-0.041128,0.016912,0.085973,1.000000,-0.000420,-0.000000,-0.000158,-0.824811,-0.189223,-0.135356,0.515325,10.956955,24.727861,-61.583782
25834,-4.083924,1.612901,8.610855,-0.064680,0.015784,-0.147168,-0.074339,-0.000795,-0.027189,-0.040837,0.016167,0.086102,1.000000,-0.000372,-0.000004,-0.000136,-0.824810,-0.188893,-0.135579,0.515390,10.906300,24.731207,-61.601238
25835,-4.145987,1.683843,8.599346,-0.020820,0.101887,-0.119264,-0.072249,-0.003752,-0.030134,-0.041459,0.016876,0.085987,1.000000,-0.000361,-0.000019,-0.000151,-0.824797,-0.188569,-0.135793,0.515473,10.856286,24.734084,-61.621114
25836,-4.091671,1.673441,8.599702,0.000348,0.057625,-0.143472,-0.077015,-0.002903,-0.026925,-0.040916,0.016773,0.085990,1.000000,-0.000385,-0.000015,-0.000135,-0.824799,-0.188223,-0.136014,0.515537,10.804057,24.736187,-61.638664
25837,-4.119912,1.544565,8.599380,-0.120943,0.032437,-0.153857,-0.075175,-0.003943,-0.025336,-0.041199,0.015483,0.085987,1.000000,-0.000376,-0.000020,-0.000127,-0.824802,-0.187889,-0.136230,0.515598,10.753597,24.738388,-61.655522
25838,-4.129229,1.564169,8.620799,-0.100270,0.041123,-0.127462,-0.059827,-0.002067,-0.022885,-0.041291,0.015672,0.086203,1.000000,-0.000299,-0.000010,-0.000114,-0.824798,-0.187618,-0.136407,0.515656,10.712302,24.740504,-61.670473
25839,-4.107298,1.567972,8.619280,-0.081822,0.027974,-0.137309,-0.052968,0.002452,-0.023513,-0.041070,0.015707,0.086189,1.000000,-0.000265,0.000012,-0.000118,-0.824778,-0.187394,-0.136590,0.515721,10.675319,24.746179,-61.685927
25840,-4.090670,1.465076,8.637217,-0.161695,-0.032527,-0.145509,-0.045497,0.003855,-0.025452,-0.040903,0.014676,0.086370,1.000000,-0.000227,0.000019,-0.000127,-0.824750,-0.187196,-0.136757,0.515794,10.641853,24.751884,-61.701784
25841,-4.136903,1.437669,8.618159,-0.202921,0.002761,-0.147681,-0.018484,0.009695,-0.023724,-0.041363,0.014390,0.086182,1.000000,-0.000092,0.000048,-0.000119,-0.824700,-0.187130,-0.136882,0.515864,10.624892,24.761387,-61.714717
25842,-4.112748,1.503406,8.629665,-0.130352,0.003929,-0.136477,-0.003480,0.012926,-0.022935,-0.041120,0.015040,0.086299,1.000000,-0.000017,0.000065,-0.000115,-0.824633,-0.187130,-0.136976,0.515947,10.616589,24.771924,-61.727963
25843,-4.090940,1.521342,8.674518,-0.101862,-0.028453,-0.102572,0.015065,0.021552,-0.022731,-0.040898,0.015212,0.086751,1.000000,0.000075,0.000108,-0.000114,-0.824532,-0.187238,-0.137061,0.516045,10.619662,24.788414,-61.741825
25844,-4.094791,1.513770,8.625099,-0.111688,-0.009291,-0.146324,0.033906,0.028551,-0.023961,-0.040934,0.015128,0.086259,1.000000,0.000170,0.000143,-0.000120,-0.824417,-0.187432,-0.137123,0.516143,10.633268,24.807861,-61.753892
25845,-4.093122,1.623714,8.603379,-0.013153,0.038000,-0.147978,0.050634,0.038360,-0.023803,-0.040913,0.016220,0.086046,1.000000,0.000253,0.000192,-0.000119,-0.824272,-0.187728,-0.137187,0.516250,10.657233,24.833837,-61.765784
25846,-4.078358,1.774166,8.623196,0.129043,0.071653,-0.111224,0.034423,0.041496,-0.020424,-0.040764,0.017731,0.086243,1.000000,0.000172,0.000207,-0.000102,-0.824156,-0.187960,-0.137298,0.516321,10.672688,24.860206,-61.774134
25847,-4.104327,1.570489,8.584484,-0.066877,0.023596,-0.169023,0.035450,0.050622,-0.025962,-0.041019,0.015695,0.085858,1.000000,0.000177,0.000253,-0.000130,-0.824014,-0.188222,-0.137454,0.516410,10.687991,24.893197,-61.785195
25848,-4.067654,1.739688,8.649096,0.103562,0.025095,-0.098377,0.056115,0.064907,-0.020062,-0.040647,0.017377,0.086509,1.000000,0.000281,0.000325,-0.000100,-0.823863,-0.188604,-0.137605,0.516472,10.717123,24.932713,-61.790560
25849,-4.017843,1.762496,8.763961,0.149798,-0.067302,-0.013223,0.038289,0.105277,-0.016817,-0.040131,0.017612,0.087664,1.000000,0.000191,0.000526,-0.000084,-0.823716,-0.189021,-0.137971,0.516456,10.739184,24.995097,-61.787059
25850,-3.971822,1.616393,8.685024,0.037141,-0.138981,-0.127801,0.054718,0.146661,-0.013199,-0.039653,0.016143,0.086884,1.000000,0.000274,0.000733,-0.000066,-0.823526,-0.189613,-0.138456,0.516412,10.773409,25.079901,-61.778475
25851,-3.943269,2.032769,8.749502,0.429678,-0.043460,-0.012240,0.070001,0.169463,-0.022001,-0.039356,0.020301,0.087535,1.000000,0.000350,0.000847,-0.000110,-0.823282,-0.190326,-0.139008,0.516391,10.815555,25.179204,-61.772435
25852,-3.779022,2.139435,8.867289,0.605676,-0.204622,0.040143,0.009996,0.207739,-0.029955,-0.037695,0.021396,0.088713,0.999999,0.000050,0.001039,-0.000150,-0.823048,-0.190879,-0.139876,0.516326,10.822884,25.300175,-61.766897
25853,-3.748838,1.609437,8.955469,0.153622,-0.499538,0.014382,-0.004303,0.274678,-0.035641,-0.037362,0.016103,0.089606,0.999999,-0.000022,0.001373,-0.000178,-0.822758,-0.191550,-0.141064,0.516216,10.824271,25.460310,-61.757757
25854,-4.192396,0.728175,8.988411,-0.819738,-0.540535,0.083457,0.098664,0.394731,-0.040052,-0.041745,0.007246,0.089970,0.999998,0.000493,0.001974,-0.000200,-0.822278,-0.192943,-0.142481,0.516073,10.889415,25.687588,-61.736041
25855,-4.493346,1.474786,8.684511,-0.284593,0.083502,0.071524,0.432640,0.467077,-0.107191,-0.044723,0.014584,0.086981,0.999995,0.002163,0.002335,-0.000536,-0.821246,-0.195850,-0.143402,0.516366,11.132127,25.963395,-61.746092
25856,-4.449082,2.714918,8.646133,0.844703,0.488299,0.235616,0.440655,0.487671,-0.122309,-0.044263,0.026986,0.086629,0.999994,0.002203,0.002438,-0.000612,-0.820142,-0.198827,-0.144395,0.516706,11.376657,26.251956,-61.762425
25857,-4.111589,2.283373,8.579591,0.591577,0.023755,-0.046546,0.305080,0.531468,-0.100553,-0.040876,0.022723,0.085939,0.999995,0.001525,0.002657,-0.000503,-0.819185,-0.201380,-0.145900,0.516812,11.552753,26.563456,-61.758661
25858,-3.981133,2.487962,8.788710,0.841819,-0.161720,0.114330,0.264394,0.554409,-0.097748,-0.039555,0.024783,0.088030,0.999995,0.001322,0.002772,-0.000489,-0.818256,-0.203820,-0.147595,0.516847,11.707871,26.886724,-61.748899
25859,-4.275167,2.538223,8.950471,0.780162,-0.049057,0.396093,0.093568,0.563657,-0.080534,-0.042489,0.025357,0.089637,0.999996,0.000468,0.002818,-0.000403,-0.817529,-0.205601,-0.149754,0.516670,11.771340,27.213791,-61.726165
25860,-5.110493,2.234965,8.774259,0.167475,0.522440,0.569923,0.029242,0.530179,-0.043626,-0.050867,0.022348,0.087881,0.999996,0.000146,0.002651,-0.000218,-0.816984,-0.207054,-0.151899,0.516325,11.806555,27.517108,-61.684353
25861,-5.178898,2.259230,8.544323,0.173873,0.654204,0.408476,-0.059575,0.442103,0.000657,-0.051600,0.022618,0.085551,0.999998,-0.000298,0.002211,0.000003,-0.816709,-0.207954,-0.153869,0.515816,11.799341,27.766224,-61.625240
25862,-4.711391,1.661674,8.159266,-0.161863,0.221852,-0.249401,-0.183437,0.385178,0.038782,-0.046960,0.016683,0.081668,0.999998,-0.000917,0.001926,0.000194,-0.816699,-0.208225,-0.155884,0.515117,11.728537,27.978595,-61.550253
25863,-4.584971,1.823542,8.015744,0.059502,0.235384,-0.403098,-0.264465,0.324271,0.040678,-0.045723,0.018332,0.080207,0.999998,-0.001322,0.001621,0.000203,-0.816806,-0.208021,-0.157858,0.514428,11.608786,28.157851,-61.485059
25864,-4.949997,1.452067,7.716247,-0.415702,0.510968,-0.554315,-0.338742,0.285063,0.118487,-0.049399,0.014622,0.077208,0.999997,-0.001694,0.001425,0.000592,-0.817233,-0.207461,-0.159779,0.513381,11.466945,28.305147,-61.373010
25865,-4.257159,1.635112,7.694983,0.068813,0.049526,-0.868275,-0.427787,0.218969,0.209741,-0.042505,0.016471,0.076961,0.999997,-0.002139,0.001095,0.001049,-0.818035,-0.206445,-0.161565,0.511952,11.298481,28.405722,-61.211013
25866,-4.755817,1.327860,7.753552,-0.391174,0.282234,-0.633044,-0.447652,0.195577,0.285370,-0.047501,0.013384,0.077552,0.999996,-0.002238,0.000978,0.001427,-0.819064,-0.205341,-0.163225,0.510222,11.139673,28.484669,-61.004350
25867,-3.896944,1.447592,7.635288,0.097423,-0.269202,-1.123768,-0.439562,0.105070,0.368836,-0.038956,0.014572,0.076341,0.999996,-0.002198,0.000525,0.001844,-0.820356,-0.204116,-0.164410,0.508254,11.006272,28.504952,-60.756987
25868,-4.289563,0.883371,7.372408,-0.577123,-0.057325,-1.257180,-0.484113,0.124665,0.408841,-0.042868,0.008925,0.073729,0.999995,-0.002421,0.000623,0.002044,-0.821780,-0.202780,-0.165743,0.506051,10.860213,28.531496,-60.480351
25869,-4.935707,-0.078750,7.238443,-1.713572,0.112383,-1.221210,-0.405217,0.114636,0.345382,-0.049314,-0.000726,0.072414,0.999996,-0.002026,0.000573,0.001727,-0.822966,-0.201691,-0.166901,0.504175,10.739947,28.560318,-60.244774
25870,-5.639138,-0.506917,7.278485,-2.391576,0.447331,-0.918114,-0.217742,0.069782,0.258921,-0.056359,-0.005063,0.072810,0.999999,-0.001089,0.000349,0.001295,-0.823776,-0.201184,-0.167486,0.502859,10.697582,28.572850,-60.070883
25871,-6.627456,0.344884,7.964063,-2.020941,1.204157,0.283558,0.088030,-0.075801,0.250565,-0.066309,0.003331,0.079617,0.999999,0.000440,-0.000379,0.001253,-0.824379,-0.201565,-0.166717,0.501972,10.819375,28.505039,-59.919273
25872,-5.776914,1.409790,7.777809,-0.739174,1.097928,-0.112039,0.177420,-0.281469,0.301631,-0.057900,0.013942,0.077709,0.999997,0.000887,-0.001407,0.001508,-0.825188,-0.201838,-0.164817,0.501161,10.995302,28.314822,-59.761570
25873,-4.710836,1.803604,7.714641,0.039352,0.498540,-0.608864,0.202164,-0.350738,0.327883,-0.047273,0.017881,0.077082,0.999997,0.001011,-0.001754,0.001639,-0.826105,-0.202055,-0.162552,0.500302,11.188151,28.082787,-59.593032
25874,-4.244317,2.057338,8.271658,0.470157,-0.004998,-0.302380,0.142193,-0.387026,0.281052,-0.042632,0.020455,0.082649,0.999997,0.000711,-0.001935,0.001405,-0.826974,-0.201899,-0.160323,0.499648,11.329462,27.834706,-59.463776
25875,-3.518964,2.434345,8.537130,1.110621,-0.502943,-0.341410,0.161967,-0.449873,0.181820,-0.035404,0.024242,0.085311,0.999997,0.000810,-0.002249,0.000909,-0.827627,-0.201588,-0.157892,0.499465,11.448309,27.562965,-59.404301
25876,-3.215253,2.627974,8.374859,1.379215,-0.539979,-0.582932,0.028386,-0.479914,0.085303,-0.032365,0.026254,0.083675,0.999997,0.000142,-0.002400,0.000427,-0.828186,-0.200570,-0.155758,0.499619,11.460094,27.284607,-59.412376
25877,-3.445500,2.376973,8.356784,1.032118,-0.422036,-0.532936,-0.073137,-0.450399,0.008439,-0.034644,0.023799,0.083481,0.999997,-0.000366,-0.002252,0.000042,-0.828627,-0.199150,-0.154082,0.499976,11.393699,27.032399,-59.464477
25878,-4.234080,1.849471,8.285450,0.194233,0.039344,-0.328111,-0.207220,-0.459930,-0.015950,-0.042530,0.018584,0.082738,0.999997,-0.001036,-0.002300,-0.000080,-0.829142,-0.197126,-0.152720,0.500341,11.243182,26.776637,-59.533045
25879,-4.181434,0.734053,8.277605,-0.776337,-0.419468,-0.551849,-0.234458,-0.472484,-0.027226,-0.042009,0.007443,0.082668,0.999997,-0.001172,-0.002362,-0.000136,-0.829669,-0.194948,-0.151389,0.500725,11.074227,26.515320,-59.606997
25880,-4.440944,0.339769,8.684979,-1.224088,-0.531975,-0.143938,-0.156368,-0.442346,-0.053126,-0.044600,0.003477,0.086749,0.999997,-0.000782,-0.002212,-0.000266,-0.830019,-0.193148,-0.150007,0.501259,10.944791,26.273189,-59.694912
25881,-5.214683,1.050342,8.781606,-0.944487,0.364808,0.404331,-0.013818,-0.415354,-0.081524,-0.052325,0.010531,0.087707,0.999998,-0.000069,-0.002077,-0.000408,-0.830135,-0.191989,-0.148411,0.501986,10.891406,26.049951,-59.796345
25882,-5.266906,2.235496,9.069533,0.086802,0.808148,0.879993,0.054392,-0.383154,-0.024883,-0.052840,0.022337,0.090600,0.999998,0.000272,-0.001916,-0.000124,-0.830301,-0.191231,-0.146718,0.502499,10.894585,25.837905,-59.858573
25883,-3.870281,2.926766,9.176022,1.323049,-0.006779,0.482643,-0.024725,-0.280836,0.058574,-0.038840,0.029268,0.091702,0.999999,-0.000124,-0.001404,0.000293,-0.830663,-0.190472,-0.145573,0.502522,10.880915,25.675684,-59.858232
25884,-4.095993,0.834934,9.126814,-0.653404,-0.670648,0.182125,-0.057610,-0.155423,0.104899,-0.041035,0.008354,0.091234,1.000000,-0.000288,-0.000777,0.000524,-0.831091,-0.189916,-0.144982,0.502195,10.867175,25.577730,-59.811926
25885,-4.195440,1.374386,8.744876,-0.251225,-0.179883,-0.021466,0.171508,-0.117942,0.072886,-0.042011,0.013654,0.087436,0.999999,0.000858,-0.000590,0.000364,-0.831184,-0.190390,-0.144007,0.502141,10.978100,25.505543,-59.782775
25886,-4.417614,1.365678,8.680863,-0.383552,0.020295,0.015345,0.169006,-0.088206,0.079756,-0.044220,0.013566,0.086801,0.999999,0.000845,-0.000441,0.000399,-0.831284,-0.190925,-0.143150,0.502018,11.090711,25.448031,-59.744328
25887,-4.365997,1.793103,8.609661,-0.005615,0.191821,0.003958,0.240706,-0.089487,0.065525,-0.043704,0.017813,0.086099,0.999999,0.001204,-0.000447,0.000328,-0.831278,-0.191749,-0.142126,0.502005,11.240587,25.392123,-59.715032
25888,-4.069494,2.133042,8.522686,0.404580,0.141298,-0.139884,0.216304,-0.086071,0.051753,-0.040737,0.021228,0.085232,0.999999,0.001082,-0.000430,0.000259,-0.831259,-0.192466,-0.141186,0.502028,11.372740,25.338791,-59.694070
25889,-3.987032,1.981625,8.600792,0.291106,-0.024794,-0.132218,0.168179,-0.080852,0.040041,-0.039909,0.019736,0.086008,1.000000,0.000841,-0.000404,0.000200,-0.831259,-0.192988,-0.140404,0.502047,11.474591,25.290154,-59.678031
25890,-4.221510,1.989694,8.507565,0.169211,0.203340,-0.112756,0.189830,-0.079835,0.039327,-0.042253,0.019808,0.085078,0.999999,0.000949,-0.000399,0.000197,-0.831228,-0.193601,-0.139568,0.502096,11.588482,25.241672,-59.664240
25891,-4.027553,2.142859,8.552855,0.379356,0.094628,-0.127055,0.121089,-0.071234,0.040433,-0.040310,0.021369,0.085527,1.000000,0.000605,-0.000356,0.000202,-0.831257,-0.193955,-0.138945,0.502084,11.663836,25.198842,-59.648777
25892,-4.097258,1.886509,8.579497,0.107868,0.029608,-0.120335,0.096312,-0.062585,0.051265,-0.041004,0.018813,0.085791,1.000000,0.000482,-0.000313,0.000256,-0.831333,-0.194231,-0.138403,0.502000,11.728146,25.158616,-59.625535
25893,-4.291129,1.732910,8.565289,-0.130401,0.122892,-0.078787,0.119777,-0.055183,0.048351,-0.042939,0.017267,0.085651,1.000000,0.000599,-0.000276,0.000242,-0.831372,-0.194626,-0.137841,0.501938,11.805720,25.123719,-59.603210
25894,-4.204137,1.936309,8.552780,0.076877,0.145718,-0.089162,0.107170,-0.054477,0.048635,-0.042069,0.019307,0.085527,1.000000,0.000536,-0.000272,0.000243,-0.831424,-0.194965,-0.137308,0.501865,11.875926,25.088296,-59.580671
25895,-4.357800,1.747646,8.544579,-0.174087,0.189340,-0.066491,0.125412,-0.053426,0.038620,-0.043604,0.017414,0.085445,1.000000,0.000627,-0.000267,0.000193,-0.831422,-0.195385,-0.136748,0.501859,11.954210,25.055884,-59.566189
25896,-4.130283,1.796604,8.532568,-0.041010,0.036276,-0.164437,0.158060,-0.061768,0.032141,-0.041332,0.017892,0.085327,1.000000,0.000790,-0.000309,0.000161,-0.831388,-0.195906,-0.136073,0.501896,12.048775,25.018284,-59.554933
25897,-4.127517,1.901038,8.589709,0.038985,0.049282,-0.095204,0.162276,-0.059575,0.030221,-0.041304,0.018934,0.085900,1.000000,0.000811,-0.000298,0.000151,-0.831336,-0.196455,-0.135404,0.501948,12.145557,24.983205,-59.545519
25898,-4.123220,2.036831,8.516095,0.142871,0.134328,-0.136169,0.178559,-0.062277,0.034622,-0.041262,0.020285,0.085166,1.000000,0.000893,-0.000311,0.000173,-0.831287,-0.197062,-0.134672,0.501988,12.252409,24.944985,-59.532949
25899,-4.083859,1.790588,8.615087,-0.071590,-0.048100,-0.112359,0.155357,-0.052961,0.048493,-0.040866,0.017829,0.086154,1.000000,0.000777,-0.000265,0.000242,-0.831282,-0.197611,-0.134029,0.501952,12.350326,24.911310,-59.511522
25900,-3.985098,1.881582,8.522516,0.035440,-0.047230,-0.218360,0.178266,-0.057369,0.054396,-0.039881,0.018729,0.085230,1.000000,0.000891,-0.000287,0.000272,-0.831278,-0.198241,-0.133299,0.501904,12.462343,24.873362,-59.486248
25901,-3.861240,2.133670,8.521021,0.299672,-0.041717,-0.222173,0.152558,-0.037437,0.053292,-0.038634,0.021261,0.085219,1.000000,0.000763,-0.000187,0.000266,-0.831278,-0.198820,-0.132722,0.501829,12.560710,24.847596,-59.459658
25902,-4.024475,1.984155,8.581361,0.079222,-0.008410,-0.129369,0.125925,-0.020763,0.052535,-0.040259,0.019777,0.085822,1.000000,0.000630,-0.000104,0.000263,-0.831296,-0.199323,-0.132278,0.501717,12.644289,24.830271,-59.430642
25903,-4.182213,1.921388,8.524685,-0.063081,0.110787,-0.125757,0.130740,-0.021416,0.052421,-0.041836,0.019147,0.085255,1.000000,0.000654,-0.000107,0.000262,-0.831312,-0.199848,-0.131823,0.501602,12.730805,24.813164,-59.400760
25904,-4.152764,1.843795,8.690186,-0.128196,-0.025780,-0.007217,0.138125,-0.021099,0.041197,-0.041541,0.018369,0.086910,1.000000,0.000691,-0.000105,0.000206,-0.831289,-0.200393,-0.131358,0.501545,12.818383,24.797008,-59.378836
25905,-4.693204,1.414055,8.620917,-0.778411,0.243686,0.070661,0.258776,-0.048461,0.036690,-0.046956,0.014020,0.086216,0.999999,0.001294,-0.000242,0.000183,-0.831146,-0.201374,-0.130485,0.501616,12.972568,24.766944,-59.364000
25906,-4.020145,2.191049,8.469156,0.194189,0.104200,-0.187708,0.306109,-0.075413,0.036119,-0.040237,0.021774,0.084710,0.999999,0.001531,-0.000377,0.000181,-0.830974,-0.202477,-0.129377,0.501743,13.151783,24.721031,-59.353041
25907,-3.894098,2.451236,8.462614,0.458465,0.109630,-0.191558,0.242768,-0.062594,0.035375,-0.038972,0.024403,0.084644,0.999999,0.001214,-0.000313,0.000177,-0.830840,-0.203359,-0.128486,0.501838,13.295475,24.683694,-59.343523
25908,-3.936005,2.309466,8.420453,0.293373,0.098474,-0.240123,0.183066,-0.051699,0.039435,-0.039386,0.023010,0.084215,1.000000,0.000915,-0.000258,0.000197,-0.830783,-0.204012,-0.127781,0.501847,13.406359,24.650514,-59.327339
25909,-3.962533,2.214845,8.467910,0.182158,0.054109,-0.206617,0.140870,-0.034295,0.043805,-0.039645,0.022080,0.084688,1.000000,0.000704,-0.000171,0.000219,-0.830773,-0.204539,-0.127257,0.501783,13.495410,24.627146,-59.304684
25910,-4.017519,2.184425,8.502238,0.117335,0.064872,-0.159593,0.119313,-0.019889,0.041509,-0.040188,0.021785,0.085031,1.000000,0.000597,-0.000099,0.000208,-0.830765,-0.205008,-0.126842,0.501709,13.572186,24.611361,-59.282661
25911,-4.123422,2.205558,8.502024,0.075739,0.153048,-0.111021,0.107846,-0.025096,0.042449,-0.041250,0.022001,0.085027,1.000000,0.000539,-0.000125,0.000212,-0.830772,-0.205423,-0.126439,0.501630,13.642562,24.593440,-59.261000
25912,-3.958449,2.319434,8.423010,0.242376,0.105523,-0.224866,0.100295,-0.026650,0.041311,-0.039601,0.023144,0.084236,1.000000,0.000501,-0.000133,0.000207,-0.830787,-0.205796,-0.126044,0.501552,13.707940,24.573869,-59.240154
25913,-4.027089,2.258502,8.489422,0.148980,0.101060,-0.150589,0.047324,-0.012629,0.032398,-0.040280,0.022558,0.084897,1.000000,0.000237,-0.000063,0.000162,-0.830817,-0.205986,-0.125854,0.501471,13.741890,24.564372,-59.223892
25914,-3.978953,2.055711,8.433044,-0.013001,0.005746,-0.264177,0.037366,-0.020879,0.016444,-0.039800,0.020538,0.084330,1.000000,0.000187,-0.000104,0.000082,-0.830831,-0.206096,-0.125666,0.501450,13.765224,24.551375,-59.217432
25915,-4.068315,2.126177,8.546364,0.004360,0.051108,-0.111681,0.029374,-0.011204,0.018843,-0.040690,0.021245,0.085464,1.000000,0.000147,-0.000056,0.000094,-0.830837,-0.206210,-0.125541,0.501425,13.785478,24.544920,-59.210778
25916,-4.076885,2.018335,8.546077,-0.098781,0.013193,-0.131770,0.036816,-0.017729,0.017692,-0.040778,0.020164,0.085461,1.000000,0.000184,-0.000089,0.000088,-0.830852,-0.206327,-0.125367,0.501395,13.809005,24.533502,-59.203095
25917,-4.276504,1.962162,8.641222,-0.247108,0.100366,0.022867,0.078614,-0.023818,0.018342,-0.042777,0.019584,0.086415,1.000000,0.000393,-0.000119,0.000092,-0.830812,-0.206614,-0.125065,0.501419,13.856622,24.520060,-59.199208
25918,-4.337923,1.989544,8.589014,-0.262429,0.182100,0.007953,0.145984,-0.047427,0.029251,-0.043403,0.019826,0.085894,1.000000,0.000730,-0.000237,0.000146,-0.830762,-0.207117,-0.124482,0.501440,13.943751,24.490522,-59.188977
25919,-3.929977,2.351995,8.446459,0.233546,0.076455,-0.207540,0.166358,-0.056235,0.027833,-0.039327,0.023444,0.084473,1.000000,0.000832,-0.000281,0.000139,-0.830699,-0.207683,-0.123817,0.501474,14.041966,24.456583,-59.178958
25920,-3.783543,2.473899,8.440671,0.397105,0.012960,-0.245952,0.099628,-0.045864,0.008932,-0.037856,0.024695,0.084410,1.000000,0.000498,-0.000229,0.000045,-0.830644,-0.207984,-0.123377,0.501548,14.097448,24.430716,-59.180992
25921,-3.969185,2.316320,8.534205,0.163559,0.049446,-0.121288,0.050747,-0.037581,-0.002589,-0.039708,0.023142,0.085340,1.000000,0.000254,-0.000188,-0.000013,-0.830606,-0.208101,-0.123110,0.501629,14.122924,24.411711,-59.188421
25922,-4.197509,2.079271,8.472231,-0.157192,0.160986,-0.134334,0.048200,-0.041804,-0.008288,-0.041992,0.020774,0.084719,1.000000,0.000241,-0.000209,-0.000041,-0.830558,-0.208188,-0.122834,0.501739,14.144847,24.390510,-59.200369
25923,-3.973683,2.207267,8.511955,0.055586,0.020988,-0.163229,0.049887,-0.043712,-0.014402,-0.039754,0.022054,0.085116,1.000000,0.000249,-0.000219,-0.000072,-0.830497,-0.208278,-0.122557,0.501872,14.166387,24.369826,-59.215490
25924,-4.005816,2.304703,8.517459,0.122747,0.084650,-0.123358,0.041762,-0.034886,-0.019734,-0.040071,0.023033,0.085172,1.000000,0.000209,-0.000174,-0.000099,-0.830423,-0.208349,-0.122338,0.502018,14.182183,24.354082,-59.233364
25925,-4.162868,2.242155,8.513637,-0.009396,0.184517,-0.075922,0.043468,-0.033400,-0.009025,-0.041642,0.022405,0.085134,1.000000,0.000217,-0.000167,-0.000045,-0.830364,-0.208446,-0.122114,0.502130,14.202102,24.338802,-59.245963
25926,-4.121979,2.045767,8.633255,-0.169732,0.016404,-0.031078,0.061757,-0.028884,0.000695,-0.041232,0.020431,0.086333,1.000000,0.000309,-0.000144,0.000003,-0.830316,-0.208627,-0.121848,0.502198,14.234872,24.323530,-59.250468
25927,-4.270812,2.185928,8.658427,-0.123798,0.176962,0.083767,0.123623,-0.039244,0.013418,-0.042727,0.021803,0.086589,1.000000,0.000618,-0.000196,0.000067,-0.830236,-0.209055,-0.121375,0.502267,14.305961,24.301736,-59.249694
25928,-4.094279,2.167193,8.682671,-0.071309,0.016380,0.028210,0.157377,-0.032942,0.026980,-0.040960,0.021598,0.086837,1.000000,0.000787,-0.000165,0.000135,-0.830157,-0.209639,-0.120824,0.502287,14.399829,24.280488,-59.238862
25929,-4.110926,2.063928,8.784120,-0.187908,-0.065586,0.100972,0.191051,-0.031295,0.055104,-0.041129,0.020544,0.087854,0.999999,0.000955,-0.000156,0.000276,-0.830116,-0.210387,-0.120172,0.502199,14.520434,24.256711,-59.209323
25930,-4.215863,2.096515,8.782444,-0.229510,0.022735,0.149589,0.267100,-0.027608,0.057783,-0.042177,0.020836,0.087847,0.999999,0.001335,-0.000138,0.000289,-0.829994,-0.211458,-0.119336,0.502151,14.685156,24.233927,-59.179020
25931,-3.747344,2.661390,8.656438,0.465481,-0.066512,-0.022981,0.295226,-0.019445,0.055623,-0.037489,0.026476,0.086600,0.999999,0.001476,-0.000097,0.000278,-0.829824,-0.212671,-0.118470,0.502123,14.866208,24.216968,-59.149413
25932,-3.607390,2.978999,8.749218,0.788608,-0.103657,0.076894,0.200137,0.041258,0.072919,-0.036067,0.029689,0.087529,0.999999,0.001001,0.000206,0.000365,-0.829767,-0.213645,-0.118071,0.501898,15.000836,24.229917,-59.098923
25933,-3.682356,3.046276,8.732854,0.798834,-0.022900,0.110195,0.145972,0.071778,0.073189,-0.036803,0.030386,0.087364,1.000000,0.000730,0.000359,0.000366,-0.829758,-0.214473,-0.117938,0.501590,15.107012,24.259856,-59.041088
25934,-3.457202,3.274808,8.915680,1.096119,-0.206464,0.233299,0.046969,0.143517,0.083024,-0.034522,0.032713,0.089189,1.000000,0.000235,0.000718,0.000415,-0.829829,-0.215073,-0.118337,0.501122,15.163397,24.327686,-58.967603
25935,-3.517947,3.024337,8.821966,0.851226,-0.230928,0.115641,-0.031014,0.210989,0.089270,-0.035100,0.030241,0.088252,0.999999,-0.000155,0.001055,0.000446,-0.829956,-0.215530,-0.119208,0.500509,15.181830,24.432664,-58.879098
25936,-2.807158,2.752922,9.055074,0.954225,-1.027032,-0.040909,-0.063810,0.352704,0.083378,-0.027923,0.027546,0.090591,0.999998,-0.000319,0.001764,0.000417,-0.830020,-0.216194,-0.120751,0.499746,15.189509,24.616053,-58.770689
25937,-2.055805,3.277586,9.395599,1.787708,-1.593627,0.062049,-0.066339,0.530727,0.059439,-0.020318,0.032801,0.093999,0.999996,-0.000332,0.002654,0.000297,-0.829904,-0.217286,-0.123064,0.498899,15.203114,24.902240,-58.648878
25938,-0.557084,5.906074,10.247461,4.840575,-2.136762,0.780005,-0.185926,0.725623,0.031205,-0.005208,0.059155,0.102439,0.999993,-0.000930,0.003628,0.000156,-0.829730,-0.218340,-0.126514,0.497866,15.154713,25.299681,-58.510067
25939,0.848431,7.941766,11.209371,7.368429,-2.875715,1.451271,-0.687524,0.801609,0.257736,0.008830,0.079814,0.111785,0.999985,-0.003438,0.004008,0.001289,-0.830597,-0.217647,-0.131273,0.495486,14.885628,25.705910,-58.221071
25940,4.138237,5.816524,14.694578,7.264383,-7.891638,2.509172,-1.837692,0.634141,1.268208,0.041471,0.059774,0.146270,0.999933,-0.009188,0.003171,0.006341,-0.835264,-0.212401,-0.137080,0.488292,14.215703,25.875909,-57.339034
25941,4.898171,-0.232294,12.125249,2.518018,-9.712549,-1.422735,-0.637533,0.307163,1.749094,0.049183,-0.001507,0.121183,0.999955,-0.003188,0.001536,0.008745,-0.839980,-0.211672,-0.138049,0.480178,14.342211,25.797895,-56.208392
25942,6.629092,4.605122,13.992196,7.765038,-9.653566,0.552809,-0.454381,0.152137,1.686490,0.066004,0.046926,0.139766,0.999962,-0.002272,0.000761,0.008432,-0.844370,-0.211282,-0.137999,0.472604,14.542137,25.642177,-55.146069
25943,5.632267,1.123998,13.292308,4.373639,-10.072212,-0.373900,-0.643111,-0.041748,1.457481,0.056209,0.012077,0.132897,0.999968,-0.003216,-0.000209,0.007287,-0.848526,-0.209448,-0.137778,0.465997,14.556943,25.405473,-54.251618
25944,3.903515,0.791574,12.833075,3.257387,-8.653593,-0.063043,-0.401190,-0.283380,1.242561,0.038802,0.008415,0.128369,0.999978,-0.002006,-0.001417,0.006213,-0.852015,-0.207934,-0.136216,0.460737,14.631593,25.069821,-53.535642
25945,2.491715,0.853347,11.509672,2.538597,-6.883660,-0.561771,-0.369322,-0.435298,1.042572,0.024621,0.008875,0.115134,0.999982,-0.001847,-0.002176,0.005213,-0.855096,-0.206047,-0.134103,0.456478,14.658276,24.673937,-52.966784
25946,0.234743,0.546808,10.943613,1.038183,-5.067928,-0.150661,-0.299401,-0.393897,0.777865,0.002110,0.005640,0.109432,0.999989,-0.001497,-0.001969,0.003889,-0.857433,-0.204384,-0.132309,0.453355,14.656327,24.343685,-52.556126
25947,-3.738583,0.373068,11.456428,-1.296641,-2.466677,1.917608,-0.264850,-0.504423,0.472296,-0.037684,0.003794,0.114464,0.999993,-0.001324,-0.002522,0.002361,-0.859118,-0.202393,-0.130236,0.451655,14.588520,23.991413,-52.347783
25948,-4.240139,-0.301060,9.861425,-2.231362,-1.637768,0.563018,-0.149501,-0.802239,0.158715,-0.042794,-0.002971,0.098445,0.999991,-0.000748,-0.004011,0.000794,-0.860140,-0.200037,-0.126975,0.451687,14.489871,23.524518,-52.378140
25949,-2.962315,-0.439994,8.294725,-1.728019,-1.849161,-1.364877,0.029361,-0.793454,-0.142306,-0.029955,-0.004391,0.082828,0.999992,0.000147,-0.003967,-0.000712,-0.860302,-0.198254,-0.123611,0.453096,14.422551,23.100316,-52.586441
25950,-4.588901,-0.142183,7.714620,-2.442875,-0.186969,-1.176100,0.168022,-0.726036,-0.330031,-0.046171,-0.001411,0.076978,0.999992,0.000840,-0.003630,-0.001650,-0.859828,-0.197122,-0.120443,0.455338,14.396657,22.745331,-52.898138
25951,-5.239267,0.749487,7.232407,-2.103215,1.018022,-1.160568,0.138210,-0.708303,-0.363218,-0.052635,0.007540,0.072143,0.999992,0.000691,-0.003542,-0.001816,-0.859300,-0.195856,-0.117416,0.457666,14.348676,22.399644,-53.224373
25952,-6.219072,0.993238,6.074017,-2.484227,2.435164,-1.784276,0.089344,-0.663844,-0.287839,-0.062378,0.009995,0.060538,0.999993,0.000447,-0.003319,-0.001439,-0.858936,-0.194547,-0.114650,0.459604,14.295139,22.072765,-53.499106
25953,-6.623647,1.571651,5.138737,-2.249527,3.483287,-2.359124,0.042329,-0.517673,-0.202391,-0.066353,0.015773,0.051219,0.999996,0.000212,-0.002588,-0.001012,-0.858737,-0.193396,-0.112505,0.460990,14.243123,21.810126,-53.698043
25954,-8.717230,1.546640,4.988641,-3.425121,5.136291,-1.740781,0.033572,-0.345059,-0.142555,-0.087247,0.015520,0.049739,0.999998,0.000168,-0.001725,-0.000713,-0.858567,-0.192661,-0.111093,0.461956,14.210523,21.639417,-53.836025
25955,-9.857179,2.080612,4.787167,-3.605115,6.374659,-1.399801,0.002805,-0.305934,-0.122679,-0.098632,0.020866,0.047721,0.999999,0.000014,-0.001530,-0.000613,-0.858461,-0.191876,-0.109876,0.462770,14.166755,21.483741,-53.954704
25956,-10.960784,2.112777,4.602854,-4.182142,7.326396,-1.174262,0.015087,-0.257546,-0.084175,-0.109658,0.021170,0.045889,0.999999,0.000075,-0.001288,-0.000421,-0.858390,-0.191295,-0.108826,0.463389,14.141974,21.353309,-54.044151
25957,-11.432208,3.086337,4.245354,-3.630184,8.344126,-1.127003,-0.006604,-0.296956,-0.019238,-0.114382,0.030876,0.042283,0.999999,-0.000033,-0.001485,-0.000096,-0.858520,-0.190551,-0.107577,0.463747,14.116548,21.189222,-54.099776
25958,-10.610838,2.390034,3.383354,-3.774335,7.766462,-2.383983,-0.093635,-0.207872,0.009098,-0.106145,0.023911,0.033712,0.999999,-0.000468,-0.001039,0.000045,-0.858739,-0.189668,-0.106903,0.463858,14.052726,21.073289,-54.125882
25959,-11.278773,2.053752,3.225374,-4.424531,8.183483,-2.377248,0.043193,-0.110878,-0.010192,-0.112805,0.020536,0.032196,1.000000,0.000216,-0.000554,-0.000051,-0.858737,-0.189581,-0.106337,0.464029,14.068315,21.012597,-54.148478
25960,-11.877721,1.802730,2.311391,-4.967429,8.904480,-3.051954,0.172220,-0.039872,-0.067197,-0.118776,0.018047,0.023106,1.000000,0.000861,-0.000199,-0.000336,-0.858436,-0.190189,-0.105839,0.464449,14.149589,21.000683,-54.194893
25961,-12.450730,1.827680,0.201775,-5.259382,10.246532,-4.738319,0.473338,0.124099,-0.159572,-0.124491,0.018371,0.002138,0.999997,0.002367,0.000620,-0.000798,-0.857545,-0.192421,-0.105434,0.465268,14.392586,21.093069,-54.271518
25962,-8.531350,5.141494,2.963346,-0.334184,7.708670,-2.851023,0.469808,0.352759,-0.003004,-0.085260,0.051346,0.029905,0.999996,0.002349,0.001764,-0.000015,-0.856894,-0.195251,-0.105866,0.465190,14.679866,21.290006,-54.219342
25963,-8.062905,7.311594,9.326515,1.742329,5.631443,3.252716,-0.127149,0.367101,0.164632,-0.080518,0.073109,0.093367,0.999998,-0.000636,0.001836,0.000823,-0.857198,-0.195653,-0.107591,0.464064,14.663189,21.471827,-54.064984
25964,3.147854,7.760627,14.038385,8.300625,-4.638565,3.483746,-0.532676,0.263965,0.129604,0.031613,0.078000,0.140135,0.999995,-0.002663,0.001320,0.000648,-0.857872,-0.194048,-0.109840,0.462964,14.400406,21.600456,-53.947357
25965,0.744402,3.402348,16.098742,3.507383,-5.822363,5.190415,-1.420579,0.377102,0.127847,0.007725,0.035171,0.160726,0.999973,-0.007103,0.001885,0.000639,-0.859310,-0.188901,-0.114631,0.461262,13.635795,21.794185,-53.815134
25966,-8.393249,-5.649807,8.269934,-9.114664,-0.127261,-0.449725,-0.705437,0.151530,0.337737,-0.083774,-0.056347,0.082962,0.999992,-0.003527,0.000758,0.001689,-0.860659,-0.186408,-0.116599,0.459263,13.314094,21.834376,-53.591111
25967,-7.671833,-5.630882,9.425778,-8.656889,-1.193952,0.338251,0.334215,0.230655,0.276447,-0.076532,-0.056572,0.094252,0.999997,0.001671,0.001153,0.001382,-0.860840,-0.188541,-0.116580,0.458057,13.579420,21.927794,-53.392659
25968,-4.041013,-2.010293,10.501656,-3.667355,-2.568843,0.704257,1.115640,-0.062877,0.106125,-0.040432,-0.020710,0.104889,0.999984,0.005578,-0.000314,0.000531,-0.860053,-0.193254,-0.113662,0.458305,14.237951,21.879064,-53.338837
25969,-2.291245,3.525430,8.504816,1.771390,-0.266752,-0.496036,1.392408,-0.007219,0.024538,-0.022920,0.034658,0.085290,0.999976,0.006962,-0.000036,0.000123,-0.858741,-0.199234,-0.110432,0.458993,15.039531,21.873537,-53.326252
25970,-5.322898,7.282446,8.734893,3.129944,3.685656,1.775402,0.962989,0.078477,0.172395,-0.053257,0.072357,0.087719,0.999988,0.004815,0.000392,0.000862,-0.858122,-0.203638,-0.108396,0.458703,15.633396,21.891641,-53.211217
25971,-3.873365,5.886151,8.730368,2.715903,1.874495,0.910141,0.253897,-0.002410,0.290706,-0.038820,0.058694,0.087378,0.999998,0.001269,-0.000012,0.001454,-0.858524,-0.204881,-0.107524,0.457602,15.842261,21.847145,-53.039706
25972,-3.301067,2.901599,8.328439,0.534010,0.139662,-0.411915,0.095257,-0.003095,0.185864,-0.033039,0.028946,0.083298,0.999999,0.000476,-0.000015,0.000929,-0.858851,-0.205379,-0.107112,0.456860,15.936758,21.817154,-52.930318
25973,-4.074194,2.506577,8.571124,-0.239562,0.401144,-0.008207,0.119770,-0.010882,0.041294,-0.040752,0.025006,0.085724,1.000000,0.000599,-0.000054,0.000206,-0.858822,-0.205894,-0.106765,0.456764,16.013272,21.806623,-52.908435
25974,-4.116263,3.123380,8.845687,0.236774,0.611756,0.410570,0.101727,-0.048226,-0.014500,-0.041182,0.031192,0.088463,1.000000,0.000509,-0.000241,-0.000072,-0.858708,-0.206210,-0.106350,0.456933,16.064393,21.783234,-52.925680
25975,-3.552721,2.775079,8.726545,0.258160,0.075293,0.005824,0.021015,-0.057131,-0.010936,-0.035551,0.027744,0.087258,1.000000,0.000105,-0.000286,-0.000055,-0.858685,-0.206168,-0.106084,0.457056,16.069926,21.755536,-52.942700
25976,-3.671395,2.068938,8.711759,-0.397787,-0.179061,-0.145004,0.047468,-0.041503,0.001606,-0.036732,0.020668,0.087115,1.000000,0.000237,-0.000208,0.000008,-0.858660,-0.206275,-0.105806,0.457120,16.093931,21.733305,-52.949262
25977,-3.379297,1.983566,8.607644,-0.310598,-0.392957,-0.368386,0.101982,-0.013693,-0.010247,-0.033798,0.019793,0.086084,1.000000,0.000510,-0.000068,-0.000051,-0.858533,-0.206680,-0.105540,0.457238,16.148744,21.729410,-52.958463
25978,-3.357014,2.749265,8.342177,0.331033,0.084785,-0.415712,0.121027,0.007901,-0.005678,-0.033566,0.027443,0.083440,1.000000,0.000605,0.000040,-0.000028,-0.858388,-0.207211,-0.105313,0.457321,16.216428,21.735537,-52.960889
25979,-2.739073,3.036702,8.204566,0.912853,-0.175975,-0.692671,0.038864,0.066762,-0.004128,-0.027363,0.030352,0.082061,1.000000,0.000194,0.000334,-0.000021,-0.858297,-0.207532,-0.105531,0.457296,16.241537,21.774909,-52.952601
25980,-3.190272,3.034365,8.311762,0.662806,0.101085,-0.430734,-0.035948,0.132372,-0.022278,-0.031844,0.030362,0.083133,1.000000,-0.000180,0.000662,-0.000111,-0.858212,-0.207666,-0.106214,0.457237,16.223603,21.852170,-52.943386
25981,-4.079146,3.087232,8.714601,0.218623,0.596342,0.272513,-0.101274,0.123883,-0.019579,-0.040734,0.030920,0.087156,1.000000,-0.000506,0.000619,-0.000098,-0.858200,-0.207508,-0.107012,0.457145,16.168766,21.925362,-52.934393
25982,-3.728035,2.682073,8.545477,0.094628,0.210740,-0.114050,-0.141211,0.077214,-0.014414,-0.037245,0.026884,0.085450,1.000000,-0.000706,0.000386,-0.000072,-0.858270,-0.207067,-0.107691,0.457053,16.088694,21.971028,-52.930119
25983,-3.565175,2.174237,8.662840,-0.222420,-0.215467,-0.200889,-0.096418,0.085083,-0.026790,-0.035612,0.021789,0.086633,1.000000,-0.000482,0.000425,-0.000134,-0.858257,-0.206838,-0.108319,0.457034,16.032550,22.024042,-52.932221
25984,-3.630669,2.058927,8.588287,-0.343496,-0.193214,-0.272022,-0.044341,0.078270,-0.056634,-0.036267,0.020619,0.085893,1.000000,-0.000222,0.000391,-0.000283,-0.858129,-0.206793,-0.108825,0.457174,15.998602,22.076972,-52.952948
25985,-3.952853,2.329529,8.876351,-0.291602,0.043574,0.175026,0.004639,0.066615,-0.068781,-0.039491,0.023307,0.088777,1.000000,0.000023,0.000333,-0.000344,-0.857925,-0.206932,-0.109186,0.457409,15.989699,22.126432,-52.983235
25986,-3.821521,2.268939,8.626821,-0.263959,0.025643,-0.111975,0.026752,0.018839,-0.065154,-0.038200,0.022690,0.086275,1.000000,0.000134,0.000094,-0.000326,-0.857736,-0.207050,-0.109283,0.457686,15.990716,22.147964,-53.019192
25987,-3.572155,2.431008,8.547913,0.011361,-0.046672,-0.234869,0.056142,0.022030,-0.088619,-0.035701,0.024302,0.085490,1.000000,0.000281,0.000110,-0.000443,-0.857457,-0.207297,-0.109356,0.458080,16.003937,22.176020,-53.068906
25988,-3.333278,2.459620,8.322134,0.171009,-0.111805,-0.518784,0.047402,0.041003,-0.119519,-0.033301,0.024596,0.083234,1.000000,0.000237,0.000205,-0.000598,-0.857109,-0.207526,-0.109557,0.458578,16.005959,22.218356,-53.133430
25989,-3.672016,3.012916,8.475384,0.448052,0.335133,-0.113181,0.031135,0.067724,-0.124497,-0.036673,0.030139,0.084771,1.000000,0.000156,0.000339,-0.000622,-0.856748,-0.207750,-0.109920,0.459064,15.999639,22.277223,-53.196715
25990,-3.699567,2.734501,8.557268,0.210305,0.175459,-0.101040,-0.050738,0.076515,-0.095049,-0.036950,0.027384,0.085580,1.000000,-0.000254,0.000383,-0.000475,-0.856539,-0.207653,-0.110472,0.459367,15.953116,22.335232,-53.240690
25991,-3.650545,2.053611,8.594042,-0.318654,-0.216693,-0.260052,-0.036815,0.081248,-0.082262,-0.036462,0.020567,0.085951,1.000000,-0.000184,0.000406,-0.000411,-0.856337,-0.207640,-0.111005,0.459620,15.918199,22.394829,-53.276629
25992,-3.699410,2.409541,8.642705,-0.039975,-0.034029,-0.107787,0.006194,0.092575,-0.090113,-0.036943,0.024109,0.086445,1.000000,0.000031,0.000463,-0.000451,-0.856070,-0.207826,-0.111491,0.459916,15.906332,22.460866,-53.315040
25993,-4.101106,2.668444,8.710242,-0.039056,0.351936,0.171430,0.019217,0.075568,-0.061149,-0.040970,0.026689,0.087120,1.000000,0.000096,0.000378,-0.000306,-0.855861,-0.208052,-0.111848,0.460115,15.907834,22.513993,-53.339423
25994,-3.807689,2.739722,8.621845,0.187375,0.203166,-0.001246,0.019273,0.062838,-0.064532,-0.038041,0.027401,0.086233,1.000000,0.000096,0.000314,-0.000323,-0.855656,-0.208240,-0.112150,0.460339,15.907291,22.559624,-53.367666
25995,-3.897397,2.786699,8.464615,0.182738,0.359943,-0.094553,-0.006381,0.042556,-0.076804,-0.038945,0.027885,0.084654,1.000000,-0.000032,0.000213,-0.000384,-0.855455,-0.208271,-0.112441,0.460626,15.888366,22.597029,-53.407032
25996,-3.503200,2.677245,8.384659,0.316583,0.048276,-0.344848,-0.044863,0.054924,-0.101060,-0.034995,0.026809,0.083850,1.000000,-0.000224,0.000275,-0.000505,-0.855236,-0.208146,-0.112894,0.460978,15.842113,22.644001,-53.458482
25997,-3.590943,3.307631,8.329062,0.807322,0.444185,-0.202303,-0.071438,0.072545,-0.120210,-0.035859,0.033128,0.083292,1.000000,-0.000357,0.000363,-0.000601,-0.854986,-0.207944,-0.113509,0.461382,15.777816,22.704652,-53.518788
25998,-3.382512,3.624006,8.372187,1.205912,0.424250,-0.167271,-0.222882,0.115748,-0.080451,-0.033762,0.036347,0.083701,0.999999,-0.001114,0.000579,-0.000402,-0.854964,-0.207209,-0.114611,0.461481,15.638111,22.781845,-53.547867
25999,-3.809328,2.552823,8.693813,0.105771,0.073140,0.015520,-0.311435,0.156531,-0.027886,-0.038022,0.025669,0.086928,0.999998,-0.001557,0.000783,-0.000139,-0.855125,-0.206228,-0.116042,0.461265,15.463043,22.874378,-53.539199
26000,-3.884699,2.135929,8.778365,-0.253533,-0.111458,0.017674,-0.266820,0.159897,-0.025597,-0.038774,0.021481,0.087786,0.999999,-0.001334,0.000799,-0.000128,-0.855246,-0.205438,-0.117377,0.461056,15.313535,22.967469,-53.528596
26001,-4.229985,1.458651,8.978149,-0.981056,-0.281270,0.166589,-0.200633,0.158902,-0.003605,-0.042228,0.014677,0.089800,0.999999,-0.001003,0.000795,-0.000018,-0.855343,-0.204949,-0.118536,0.460796,15.207623,23.057686,-53.505451
26002,-3.910159,0.576314,8.904025,-1.526724,-0.924658,-0.235776,-0.066747,0.173788,-0.012212,-0.039024,0.005795,0.089072,1.000000,-0.000334,0.000869,-0.000061,-0.855278,-0.205053,-0.119455,0.460633,15.176698,23.156481,-53.484866
26003,-4.076202,1.541771,9.035841,-0.799355,-0.405106,0.179099,0.126538,0.188402,-0.046328,-0.040673,0.015370,0.090406,0.999999,0.000633,0.000942,-0.000232,-0.854923,-0.206004,-0.120032,0.460719,15.249875,23.269475,-53.482695
26004,-3.384447,3.586385,8.802127,1.288565,0.169136,0.192561,0.181659,0.233640,-0.059116,-0.033731,0.035794,0.088093,0.999999,0.000908,0.001168,-0.000296,-0.854456,-0.207280,-0.120683,0.460842,15.354169,23.408403,-53.480243
26005,-0.371834,6.443926,8.686818,5.337656,-0.630026,-0.419306,-0.018330,0.344833,-0.139623,-0.003524,0.064450,0.086868,0.999998,-0.000092,0.001724,-0.000698,-0.853938,-0.207915,-0.122357,0.461075,15.332371,23.621926,-53.508123
26006,1.154432,8.039923,9.458148,7.575220,-1.353451,-0.003872,-0.585246,0.606318,-0.274362,0.011941,0.080659,0.094310,0.999990,-0.002926,0.003032,-0.001372,-0.853533,-0.206641,-0.126589,0.461256,14.969218,23.999199,-53.575177
26007,-0.972396,5.491250,9.978501,4.412181,-1.281565,0.654305,-1.112122,0.825118,-0.341851,-0.009219,0.055482,0.099516,0.999975,-0.005561,0.004126,-0.001709,-0.853345,-0.203582,-0.133033,0.461149,14.300593,24.507277,-53.652371
26008,-0.449633,5.476931,10.618896,4.867321,-1.961057,0.930702,-1.265897,0.886951,-0.299730,-0.003944,0.055446,0.105858,0.999969,-0.006329,0.004435,-0.001499,-0.853324,-0.200017,-0.140046,0.460671,13.553847,25.042713,-53.701707
26009,-0.499984,0.224931,10.241545,0.568281,-4.342708,-0.538786,-1.388211,0.980965,0.039910,-0.004498,0.002959,0.102419,0.999964,-0.006941,0.004905,0.000200,-0.854084,-0.196380,-0.147387,0.458532,12.830161,25.585314,-53.535205
26010,4.175558,5.009779,15.782500,7.619389,-7.940465,3.245407,-0.094031,0.647246,0.863383,0.042049,0.050353,0.157666,0.999985,-0.000470,0.003236,0.004317,-0.855665,-0.198092,-0.149526,0.454136,13.047441,25.836833,-52.908434
26011,7.662356,4.082635,12.810767,8.596922,-9.460590,-1.090072,-0.102202,0.412166,1.515623,0.076575,0.041472,0.127929,0.999969,-0.000511,0.002061,0.007578,-0.858875,-0.199719,-0.150011,0.447150,13.425088,25.867450,-51.908608
26012,6.799308,5.113958,14.468085,9.192264,-9.003217,0.964669,-0.132135,0.257831,1.609560,0.067764,0.051781,0.144559,0.999967,-0.000661,0.001289,0.008048,-0.862381,-0.200925,-0.149811,0.439869,13.799143,25.794842,-50.874653
26013,7.401294,3.066720,12.823955,7.800345,-9.620664,-1.138950,-0.205149,-0.043878,1.332921,0.073778,0.031291,0.128224,0.999977,-0.001026,-0.000219,0.006665,-0.865540,-0.200932,-0.148714,0.433994,14.035745,25.584544,-50.057578
26014,5.449530,2.041407,12.438807,5.874935,-8.559366,-0.823233,-0.302667,-0.005222,0.996039,0.054389,0.020873,0.124358,0.999986,-0.001513,-0.000026,0.004980,-0.867996,-0.200345,-0.148355,0.429460,14.125214,25.443661,-49.445497
26015,-0.030645,0.981165,13.553338,1.925329,-5.856807,2.297114,-0.167458,-0.273781,0.761096,-0.000530,0.009923,0.135524,0.999991,-0.000837,-0.001369,0.003805,-0.870008,-0.199580,-0.146736,0.426289,14.211317,25.181082,-49.018461
26016,-0.119506,0.878626,11.373908,1.573616,-4.777016,0.427203,0.071845,-0.655318,0.597220,-0.001594,0.008741,0.113737,0.999990,0.000359,-0.003277,0.002986,-0.871680,-0.198928,-0.143144,0.424396,14.362730,24.733641,-48.755375
26017,0.845846,1.309631,9.636587,2.308775,-4.338075,-1.377950,0.064784,-0.556129,0.342128,0.008168,0.013079,0.096393,0.999995,0.000324,-0.002781,0.001711,-0.872751,-0.198256,-0.140211,0.423486,14.450228,24.371838,-48.631794
26018,0.204774,0.786071,9.260339,1.447553,-3.992770,-1.543709,0.061898,-0.341029,0.088007,0.001886,0.007833,0.092609,0.999998,0.000309,-0.001705,0.000440,-0.873112,-0.197862,-0.138514,0.423485,14.484749,24.170902,-48.632240
26019,0.167865,1.500988,10.241835,2.045095,-4.007209,-0.488731,0.098224,-0.170212,-0.111397,0.001600,0.014959,0.102427,0.999999,0.000491,-0.000851,-0.000557,-0.872916,-0.197831,-0.137640,0.424189,14.502072,24.087498,-48.724473
26020,-0.998848,0.886055,11.236068,0.913553,-4.000391,0.732181,-0.045194,-0.189171,-0.145170,-0.010088,0.008893,0.112349,0.999999,-0.000226,-0.000946,-0.000726,-0.872780,-0.197129,-0.137063,0.424981,14.427215,24.004182,-48.842768
26021,-1.259729,0.378776,11.002187,0.326683,-3.973883,0.525588,-0.067549,-0.281677,-0.136409,-0.012750,0.003834,0.110003,0.999999,-0.000338,-0.001408,-0.000682,-0.872770,-0.196117,-0.136075,0.425787,14.336580,23.861821,-48.967027
26022,-2.564673,0.499380,12.320053,-0.272253,-3.567711,2.262397,-0.259603,-0.370958,-0.195948,-0.025870,0.005179,0.123146,0.999997,-0.001298,-0.001855,-0.000980,-0.872855,-0.194057,-0.135210,0.426830,14.115946,23.684243,-49.143478
26023,-4.219271,-1.006103,11.560175,-2.531335,-2.846942,1.932042,-0.199187,-0.712095,-0.170589,-0.042612,-0.009910,0.115460,0.999993,-0.000996,-0.003560,-0.000853,-0.873182,-0.191522,-0.132654,0.428106,13.916796,23.306288,-49.352084
26024,-4.941637,-0.713310,11.863021,-2.760217,-2.222181,2.560740,0.108020,-0.947095,-0.174835,-0.049984,-0.007154,0.118391,0.999988,0.000540,-0.004735,-0.000874,-0.873321,-0.189845,-0.128463,0.429846,13.880879,22.804444,-49.599887
26025,-10.357213,-0.164944,12.098241,-5.661520,1.918234,4.949726,0.533178,-1.533450,-0.126969,-0.104497,-0.001904,0.120179,0.999967,0.002666,-0.007667,-0.000635,-0.873520,-0.188757,-0.120702,0.432162,14.068650,21.963669,-49.903190
26026,-4.896161,0.398630,7.643607,-2.301155,0.447137,-1.034431,0.386760,-2.074399,-0.043946,-0.049750,0.003850,0.075930,0.999944,0.001934,-0.010372,-0.000220,-0.874262,-0.185924,-0.110850,0.434524,14.166203,20.818013,-50.241205
26027,-4.245002,-0.807446,4.820413,-3.059914,0.611691,-4.140810,0.356072,-1.624519,-0.050590,-0.042842,-0.008149,0.047843,0.999965,0.001780,-0.008123,-0.000253,-0.874712,-0.183885,-0.102987,0.436417,14.273446,19.917647,-50.512759
26028,-9.167591,0.168678,5.476845,-5.264560,4.542346,-1.705981,0.246930,-1.384562,-0.071949,-0.092052,0.001653,0.054134,0.999975,0.001235,-0.006923,-0.000360,-0.875017,-0.181899,-0.096466,0.438123,14.330295,19.159973,-50.763528
26029,-10.521387,-0.516543,3.999620,-6.674102,5.854410,-2.874120,-0.083482,-1.331101,-0.108103,-0.105480,-0.005092,0.039297,0.999978,-0.000417,-0.006655,-0.000541,-0.875497,-0.178532,-0.090895,0.439738,14.196501,18.431529,-51.023399
26030,-11.883630,-2.116964,2.759971,-8.785959,6.561931,-4.062380,-0.067836,-1.120752,-0.162493,-0.119006,-0.021064,0.026940,0.999984,-0.000339,-0.005604,-0.000812,-0.875694,-0.175690,-0.086291,0.441415,14.075811,17.832418,-51.283860
26031,-14.691182,-0.362419,1.654790,-9.038239,10.123148,-3.936421,0.132156,-1.059309,-0.224053,-0.147001,-0.003470,0.015767,0.999985,0.000661,-0.005297,-0.001120,-0.875541,-0.173806,-0.081541,0.443364,14.063711,17.271685,-51.567795
26032,-14.497170,-0.246604,-0.242383,-8.786375,10.829982,-5.838082,-0.139929,-0.768750,-0.228069,-0.144964,-0.002303,-0.002979,0.999992,-0.000700,-0.003844,-0.001140,-0.875461,-0.171391,-0.078693,0.444973,13.910998,16.876716,-51.812250
26033,-19.693721,-0.247311,-1.542032,-11.806847,15.277641,-5.632670,0.287487,-0.557266,-0.203155,-0.196896,-0.002250,-0.015972,0.999995,0.001437,-0.002786,-0.001016,-0.874984,-0.171310,-0.075785,0.446444,14.016827,16.593613,-52.010107
26034,-19.713041,-0.063459,-10.281422,-11.383383,18.688172,-13.747514,0.815236,-0.129789,-0.617900,-0.197063,0.000394,-0.102942,0.999987,0.004076,-0.000649,-0.003089,-0.872942,-0.174347,-0.073935,0.449565,14.375271,16.609192,-52.387718
26035,-15.638708,10.932471,-3.718705,-0.051287,19.049921,-5.941360,2.663039,1.306282,-1.167128,-0.155976,0.110709,-0.034699,0.999873,0.013315,0.006531,-0.005835,-0.867401,-0.188447,-0.074674,0.454453,15.761142,17.507157,-52.860362
26036,-14.230908,15.761970,18.735361,4.040884,11.471247,15.761604,-0.516942,1.143651,-0.455701,-0.140876,0.158427,0.187753,0.999978,-0.002585,0.005718,-0.002278,-0.866405,-0.188626,-0.081246,0.455151,15.439813,18.209355,-52.939846
26037,11.821795,12.156607,19.498334,16.132152,-10.535386,7.405970,0.056707,0.198085,0.019403,0.118399,0.121522,0.194901,0.999999,0.000284,0.000990,0.000097,-0.866304,-0.189340,-0.081977,0.454914,15.485666,18.318675,-52.898046
26038,-3.865241,4.753832,11.042252,1.423000,0.978464,2.696715,-1.789735,0.423141,0.654228,-0.038577,0.048398,0.110074,0.999952,-0.008949,0.002116,0.003271,-0.869270,-0.182806,-0.087267,0.450928,14.600569,18.456374,-52.450691
26039,-10.105626,-4.311834,6.141250,-9.446786,2.847314,-1.997268,-0.265513,0.439998,0.707777,-0.100767,-0.043394,0.061692,0.999990,-0.001328,0.002200,0.003539,-0.870902,-0.182960,-0.089141,0.447335,14.601607,18.599754,-51.970487
26040,-4.345431,-6.162253,11.989904,-7.599771,-4.833301,1.118727,-0.597887,0.339259,0.303222,-0.043158,-0.061329,0.120156,0.999993,-0.002989,0.001696,0.001516,-0.871968,-0.181246,-0.091687,0.445438,14.331401,18.745423,-51.742094
26041,-0.768381,-8.386184,8.967290,-7.289336,-7.513779,-3.352165,0.966710,0.274668,-0.170768,-0.007633,-0.084287,0.089277,0.999987,0.004834,0.001373,-0.000854,-0.870567,-0.185996,-0.090903,0.446379,14.865938,18.924597,-51.801304
26042,-6.040332,1.994066,9.345574,-2.037493,1.702843,1.175873,1.735965,0.345176,-0.265513,-0.060216,0.019208,0.093729,0.999960,0.008680,0.001726,-0.001328,-0.868167,-0.194191,-0.088783,0.447988,15.827107,19.156434,-51.901548
26043,-4.306667,7.017870,9.879205,2.945158,2.687895,2.414136,1.445698,0.172433,-0.115754,-0.042941,0.069487,0.099333,0.999973,0.007228,0.000862,-0.000579,-0.866398,-0.200796,-0.086424,0.448962,16.641590,19.272124,-51.940892
26044,-3.375792,7.946302,9.022981,4.191260,2.738139,1.627990,0.745713,0.088331,0.009427,-0.033722,0.079124,0.090540,0.999993,0.003729,0.000442,0.000047,-0.865624,-0.204224,-0.085133,0.449154,17.074905,19.319861,-51.920264
26045,-4.865702,5.851756,8.430442,1.611408,2.982278,1.027045,0.218108,0.034674,-0.010207,-0.048639,0.058428,0.084377,0.999999,0.001091,0.000173,-0.000051,-0.865356,-0.205245,-0.084822,0.449265,17.199267,19.342851,-51.921066
26046,-5.324061,4.846129,9.111802,0.492070,2.508129,1.515272,0.070272,-0.132882,-0.064260,-0.053286,0.048446,0.091100,1.000000,0.000351,-0.000664,-0.000321,-0.865194,-0.205220,-0.084164,0.449711,17.218417,19.281888,-51.982595
26047,-3.296267,3.458907,8.805483,0.555984,0.439953,0.180470,-0.206172,-0.203702,-0.064466,-0.033041,0.034690,0.087985,0.999999,-0.001031,-0.001019,-0.000322,-0.865337,-0.203849,-0.083831,0.450122,17.075591,19.183725,-52.057572
26048,-2.994813,2.009383,8.999215,-0.447530,-0.583243,-0.145635,-0.184588,-0.174286,-0.059836,-0.030020,0.020186,0.089947,0.999999,-0.000923,-0.000871,-0.000299,-0.865461,-0.202629,-0.083563,0.450483,16.947417,19.099137,-52.123595
26049,-2.401597,1.013097,8.696429,-0.898176,-1.387297,-0.885729,-0.088893,-0.144268,-0.077864,-0.024075,0.010179,0.086942,1.000000,-0.000444,-0.000721,-0.000389,-0.865428,-0.201894,-0.083236,0.450939,16.873031,19.035474,-52.195348
26050,-2.430977,1.182949,8.565388,-0.776322,-1.215015,-0.947252,0.124140,-0.078380,-0.083668,-0.024338,0.011787,0.085652,1.000000,0.000621,-0.000392,-0.000418,-0.865144,-0.202216,-0.082711,0.451434,16.922951,19.007309,-52.258071
26051,-2.790056,1.765845,8.559923,-0.521867,-0.650979,-0.676017,0.229004,-0.042743,-0.073628,-0.027912,0.017571,0.085613,0.999999,0.001145,-0.000214,-0.000368,-0.864756,-0.203084,-0.082102,0.451900,17.037221,18.998569,-52.309442
26052,-1.582315,2.458122,7.794634,0.753361,-0.891712,-1.570138,0.386531,0.029071,-0.046651,-0.015806,0.024434,0.077996,0.999998,0.001933,0.000145,-0.000233,-0.864243,-0.204798,-0.081412,0.452232,17.250687,19.023237,-52.331658
26053,-2.574472,4.522535,8.195951,1.819723,0.693645,-0.301532,0.517496,0.148528,-0.007326,-0.025682,0.045014,0.082095,0.999996,0.002587,0.000743,-0.000037,-0.863625,-0.207371,-0.080908,0.452330,17.553970,19.107960,-52.310053
26054,-3.270954,3.970181,8.020532,0.963294,0.981903,-0.384097,0.073259,0.158583,-0.022609,-0.032641,0.039676,0.080246,1.000000,0.000366,0.000793,-0.000113,-0.863432,-0.208033,-0.081461,0.452295,17.600295,19.199366,-52.294466
26055,-2.366998,3.601325,8.263576,1.180540,-0.001712,-0.567949,0.017901,0.213983,-0.049217,-0.023573,0.036012,0.082664,0.999999,0.000090,0.001070,-0.000246,-0.863207,-0.208580,-0.082412,0.452301,17.613685,19.326983,-52.284701
26056,-3.398705,3.254542,8.564184,0.305735,0.449586,-0.056006,-0.139368,0.218387,-0.072108,-0.033882,0.032617,0.085656,0.999999,-0.000697,0.001092,-0.000361,-0.863097,-0.208439,-0.083754,0.452330,17.532375,19.459621,-52.286795
26057,-3.384012,2.804837,8.910524,-0.043602,0.050867,0.122680,-0.132167,0.216499,-0.083330,-0.033732,0.028121,0.089123,0.999999,-0.000661,0.001082,-0.000417,-0.862947,-0.208329,-0.085091,0.452416,17.453373,19.594460,-52.296568
26058,-4.116636,2.379765,9.364339,-0.809327,0.177155,0.657002,-0.112689,0.129559,-0.092532,-0.041095,0.023869,0.093657,1.000000,-0.000563,0.000648,-0.000463,-0.862798,-0.208093,-0.086011,0.452635,17.377789,19.682032,-52.327081
26059,-3.322639,1.471273,8.668210,-1.051496,-0.573636,-0.490256,-0.025412,0.101831,-0.091181,-0.033176,0.014739,0.086697,1.000000,-0.000127,0.000509,-0.000456,-0.862567,-0.208180,-0.086619,0.452920,17.351208,19.755523,-52.362599
26060,-3.286450,2.176096,9.025470,-0.463654,-0.413328,0.016322,0.130390,0.103413,-0.099300,-0.032807,0.021718,0.090286,1.000000,0.000652,0.000517,-0.000496,-0.862159,-0.208930,-0.086883,0.453300,17.411850,19.829940,-52.401887
26061,-3.395817,2.518517,8.751194,-0.238201,-0.056039,-0.096825,0.187498,0.079244,-0.102306,-0.033911,0.025120,0.087549,0.999999,0.000937,0.000396,-0.000512,-0.861689,-0.209878,-0.086923,0.453748,17.503491,19.893048,-52.447920
26062,-3.568104,2.700195,8.772602,-0.194804,0.135986,0.032336,0.199662,0.092162,-0.082882,-0.035629,0.026929,0.087769,0.999999,0.000998,0.000461,-0.000414,-0.861249,-0.210908,-0.086964,0.454098,17.606354,19.958593,-52.479529
26063,-4.170550,3.243028,8.856877,-0.106630,0.800262,0.468517,0.227385,0.042453,-0.087171,-0.041673,0.032348,0.088614,0.999999,0.001137,0.000212,-0.000436,-0.860785,-0.211950,-0.086740,0.454536,17.721485,19.999147,-52.523386
26064,-3.418445,4.013298,8.382142,0.966896,0.818792,0.008072,0.148809,0.014970,-0.063190,-0.034166,0.040081,0.083854,1.000000,0.000744,0.000075,-0.000316,-0.860475,-0.212594,-0.086542,0.454859,17.794247,20.019236,-52.557685
26065,-2.941788,4.261797,8.417525,1.441364,0.562674,-0.051662,-0.024890,0.077248,-0.016173,-0.029382,0.042631,0.084181,1.000000,-0.000124,0.000386,-0.000081,-0.860424,-0.212661,-0.086966,0.454844,17.781267,20.066471,-52.553771
26066,-3.256520,3.763160,8.469467,0.864469,0.527475,-0.041679,-0.231644,0.104446,0.004377,-0.032522,0.037729,0.084668,0.999999,-0.001158,0.000522,0.000022,-0.860632,-0.211901,-0.087947,0.454616,17.655186,20.123591,-52.532223
26067,-2.934556,3.138833,8.380102,0.566710,0.024118,-0.412252,-0.345449,0.132034,-0.021952,-0.029287,0.031536,0.083766,0.999998,-0.001727,0.000660,-0.000110,-0.860881,-0.210711,-0.089339,0.454427,17.460950,20.201724,-52.521738
26068,-2.751301,2.783828,8.188894,0.423642,-0.195492,-0.748499,-0.431789,0.188613,-0.070435,-0.027426,0.028025,0.081854,0.999997,-0.002159,0.000943,-0.000352,-0.861087,-0.209245,-0.091216,0.454340,17.210320,20.317784,-52.528874
26069,-2.109410,0.849925,7.875881,-0.740009,-1.495078,-1.786581,-0.549207,0.314569,-0.128962,-0.020965,0.008729,0.078768,0.999995,-0.002746,0.001573,-0.000645,-0.861213,-0.207542,-0.093968,0.454322,16.888769,20.513913,-52.548891
26070,-2.744719,-0.230489,9.697367,-1.989888,-2.381384,-0.221302,-0.177175,0.437217,-0.271199,-0.027238,-0.002182,0.097035,0.999996,-0.000886,0.002186,-0.001356,-0.860571,-0.207641,-0.096544,0.454953,16.757609,20.799544,-52.630768
26071,-1.608083,2.949971,9.969066,1.303828,-1.789077,0.471746,0.038235,0.385387,-0.381616,-0.015832,0.029511,0.099727,0.999996,0.000191,0.001927,-0.001908,-0.859467,-0.208501,-0.098527,0.456220,16.723189,21.076020,-52.787868
26072,-0.754115,7.463238,9.772094,5.548521,-0.151939,1.185158,0.169061,0.539199,-0.452168,-0.007109,0.074566,0.097804,0.999993,0.000845,0.002696,-0.002261,-0.857986,-0.210230,-0.100939,0.457684,16.757233,21.447360,-52.959007
26073,0.150626,9.610804,9.675359,7.913211,0.229918,1.292685,-0.700779,0.689744,-0.439226,0.002051,0.096442,0.096410,0.999986,-0.003504,0.003449,-0.002196,-0.857351,-0.208582,-0.105975,0.458489,16.304220,21.899494,-53.098391
26074,-0.452937,7.192566,10.327528,5.719803,-0.798815,1.378274,-1.512538,0.873864,-0.365574,-0.003947,0.072712,0.102745,0.999960,-0.007563,0.004369,-0.001828,-0.857591,-0.203896,-0.113575,0.458328,15.410315,22.439223,-53.168658
26075,0.137284,3.253448,10.796942,2.967615,-3.371519,0.531412,-1.545660,0.875657,-0.340063,0.001901,0.033365,0.107706,0.999959,-0.007728,0.004378,-0.001700,-0.857851,-0.199080,-0.121220,0.458000,14.500443,22.975324,-53.232738
26076,6.385414,6.274114,15.154800,9.199991,-8.426062,2.603662,-0.546043,0.654351,-0.094133,0.064379,0.063124,0.151166,0.999991,-0.002730,0.003272,-0.000471,-0.857773,-0.198174,-0.125379,0.457420,14.204049,23.352764,-53.188940
26077,9.487481,3.908205,14.935033,9.069458,-11.729222,0.604021,-0.936325,0.127221,0.775828,0.094815,0.040148,0.149104,0.999981,-0.004682,0.000636,0.003879,-0.860379,-0.194935,-0.127294,0.453369,13.861680,23.315709,-52.699775
26078,14.313984,6.625534,14.525315,14.078121,-13.579195,-1.027260,0.461359,-0.140051,0.805532,0.142771,0.066495,0.145506,0.999989,0.002307,-0.000700,0.004028,-0.861834,-0.197109,-0.124869,0.450332,14.308762,23.126410,-52.234362
26079,8.800405,4.562044,14.143470,9.265396,-10.385078,0.414639,-0.132325,-0.420530,0.799953,0.087523,0.046065,0.141589,0.999990,-0.000662,-0.002103,0.004000,-0.864028,-0.196085,-0.122548,0.447201,14.396244,22.777176,-51.815513
26080,6.472545,4.042447,12.519780,7.448461,-8.155242,-0.169477,0.145682,-0.546234,0.779925,0.064225,0.040584,0.125403,0.999988,0.000728,-0.002731,0.003900,-0.865952,-0.195965,-0.119106,0.444453,14.625999,22.363077,-51.432397
26081,1.570079,3.427287,12.558409,4.082998,-4.878664,1.652564,-0.025436,-0.596679,0.706072,0.015205,0.034343,0.125626,0.999989,-0.000127,-0.002983,0.003530,-0.867908,-0.194935,-0.115859,0.441943,14.735976,21.926063,-51.101055
26082,-1.157685,2.446402,11.644482,1.614520,-2.957413,1.657503,0.044461,-0.743164,0.532114,-0.012074,0.024406,0.116406,0.999990,0.000222,-0.003716,0.002661,-0.869460,-0.193789,-0.112025,0.440382,14.834524,21.437414,-50.901205
26083,-1.095617,1.395958,10.072822,0.701835,-2.820795,-0.006523,0.087395,-0.718536,0.243559,-0.011335,0.013902,0.100694,0.999993,0.000437,-0.003593,0.001218,-0.870325,-0.192707,-0.108441,0.440043,14.896413,20.999341,-50.867133
26084,-0.833988,0.865221,9.856650,0.372825,-3.160329,-0.406799,0.176245,-0.583202,-0.078140,-0.008624,0.008569,0.098549,0.999995,0.000881,-0.002916,-0.000391,-0.870294,-0.192144,-0.105600,0.441042,14.947244,20.688845,-51.005928
26085,-2.284702,1.060135,11.122624,-0.357384,-2.506112,1.307017,0.273721,-0.586981,-0.299833,-0.023158,0.010484,0.111173,0.999994,0.001369,-0.002935,-0.001499,-0.869693,-0.191865,-0.102697,0.443029,15.009577,20.403706,-51.273133
26086,-2.830177,0.558584,10.572028,-1.147902,-2.092559,0.882759,0.273376,-0.806714,-0.357681,-0.028718,0.005493,0.105613,0.999989,0.001367,-0.004034,-0.001788,-0.869042,-0.191077,-0.098935,0.445497,15.048330,20.011300,-51.612187
26087,-1.810070,0.226588,10.203535,-0.890652,-2.807426,0.125334,0.321666,-0.829631,-0.328499,-0.018520,0.002132,0.101963,0.999989,0.001608,-0.004148,-0.001642,-0.868424,-0.190444,-0.094894,0.447847,15.122732,19.596560,-51.933900
26088,-4.623586,-0.514538,10.141893,-3.206785,-1.022390,0.825473,0.476749,-0.952449,-0.210281,-0.046724,-0.005338,0.101185,0.999985,0.002384,-0.004762,-0.001051,-0.867936,-0.190275,-0.089899,0.449889,15.303872,19.102443,-52.209319
26089,-3.582991,0.165286,8.288544,-2.108018,-0.614799,-1.052409,0.537094,-1.083372,-0.123689,-0.036277,0.001453,0.082694,0.999982,0.002685,-0.005417,-0.000618,-0.867638,-0.190089,-0.084074,0.451665,15.531931,18.518156,-52.452900
26090,-2.838960,-0.343017,6.829148,-2.126444,-0.799078,-2.766133,0.539615,-0.792021,-0.049990,-0.028661,-0.003607,0.068169,0.999988,0.002698,-0.003960,-0.000250,-0.867334,-0.190615,-0.079475,0.452860,15.790568,18.089799,-52.611392
26091,-8.008861,1.682991,8.423110,-3.591961,3.535327,0.794926,0.888335,-0.637296,0.084089,-0.080364,0.016423,0.084049,0.999985,0.004442,-0.003186,0.000420,-0.866938,-0.193033,-0.074590,0.453424,16.281509,17.720963,-52.665873
26092,-7.981779,3.365495,8.157627,-2.274032,4.529466,0.952721,0.199303,-0.899885,0.156641,-0.080210,0.033511,0.081249,0.999989,0.000997,-0.004499,0.000783,-0.867425,-0.191910,-0.070095,0.453686,16.376311,17.201792,-52.727947
26093,-5.938218,0.109251,5.133339,-3.627981,2.557567,-3.337979,-0.087697,-0.750299,0.135808,-0.059575,0.001075,0.051110,0.999993,-0.000438,-0.003751,0.000679,-0.868091,-0.189855,-0.066884,0.453762,16.311546,16.763469,-52.773887
26094,-7.824708,0.695115,5.929116,-4.308751,4.024826,-1.932399,0.085606,-0.425250,0.001093,-0.078373,0.006925,0.059128,0.999998,0.000428,-0.002126,0.000005,-0.868151,-0.189259,-0.064852,0.454191,16.339416,16.530326,-52.845142
26095,-10.375733,0.952377,6.641263,-5.632589,5.868305,-0.511833,0.108791,-0.478531,-0.131263,-0.103910,0.009556,0.066169,0.999997,0.000544,-0.002393,-0.000656,-0.867916,-0.188585,-0.062633,0.455230,16.357281,16.285171,-52.998742
26096,-8.847030,1.064683,5.734158,-4.606380,5.148167,-1.777672,0.171380,-0.527104,-0.265092,-0.088607,0.010715,0.057117,0.999995,0.000857,-0.002636,-0.001325,-0.867311,-0.188041,-0.060214,0.456932,16.387694,16.039082,-53.239495
26097,-10.061398,1.060410,5.775835,-5.308360,6.111956,-1.435247,0.244598,-0.489122,-0.368234,-0.100735,0.010719,0.057525,0.999995,0.001223,-0.002446,-0.001841,-0.866393,-0.187860,-0.057867,0.459047,16.446909,15.827645,-53.530826
26098,-8.862448,2.316095,5.034115,-3.532627,6.148368,-2.133660,0.304171,-0.565217,-0.443629,-0.088715,0.023281,0.050126,0.999992,0.001521,-0.002826,-0.002218,-0.865244,-0.187747,-0.055147,0.461587,16.525915,15.590106,-53.879876
26099,-7.546828,2.209038,4.197385,-2.791780,5.419506,-3.309818,0.186294,-0.359340,-0.451469,-0.075493,0.022222,0.041859,0.999995,0.000931,-0.001797,-0.002257,-0.864129,-0.187589,-0.053579,0.463919,16.546985,15.465100,-54.197140
26100,-9.048668,2.793754,5.213087,-3.223961,6.526730,-1.820970,0.300601,-0.259830,-0.354463,-0.090505,0.028020,0.052055,0.999996,0.001503,-0.001299,-0.001772,-0.863090,-0.188187,-0.052101,0.465776,16.652918,15.381312,-54.443548
26101,-7.011345,3.255947,4.613363,-1.642125,5.396970,-2.797034,0.166613,-0.292116,-0.200843,-0.070148,0.032592,0.046058,0.999998,0.000833,-0.001461,-0.001004,-0.862543,-0.188168,-0.050640,0.466957,16.704685,15.253611,-54.607238
26102,-6.233586,2.312327,3.973965,-1.928700,4.565411,-3.860042,0.117774,-0.069840,-0.048306,-0.062344,0.023115,0.039731,1.000000,0.000589,-0.000349,-0.000242,-0.862335,-0.188498,-0.050119,0.467263,16.760937,15.224117,-54.647038
26103,-7.852202,2.318219,4.243014,-2.857230,5.736342,-3.182078,0.075616,0.128890,0.107404,-0.078507,0.023124,0.042489,1.000000,0.000378,0.000644,0.000537,-0.862482,-0.189151,-0.050400,0.466698,16.825964,15.277292,-54.563848
26104,-9.981011,1.219295,4.153140,-4.961045,6.883526,-3.003807,-0.138789,0.192017,0.338561,-0.099791,0.012053,0.041619,0.999998,-0.000694,0.000960,0.001693,-0.863351,-0.189083,-0.051241,0.465023,16.805090,15.327348,-54.338725
26105,-11.463532,-1.137499,1.099742,-7.496722,7.983306,-6.073500,-0.231543,0.334949,0.458740,-0.114590,-0.011625,0.011203,0.999995,-0.001158,0.001675,0.002294,-0.864543,-0.188983,-0.052800,0.462670,16.756781,15.436392,-54.020841
26106,-8.373953,-3.183545,-0.097969,-7.355028,4.952905,-8.532264,-0.034591,0.800918,0.303769,-0.083694,-0.031963,-0.000639,0.999991,-0.000173,0.004005,0.001519,-0.865058,-0.190761,-0.056064,0.460589,16.819799,15.826315,-53.710566
26107,-4.733707,0.675895,7.138096,-2.692003,1.218533,-1.745229,0.670355,1.533638,-0.175201,-0.046782,0.006560,0.071763,0.999965,0.003352,0.007668,-0.000876,-0.863545,-0.197143,-0.061336,0.460067,17.250640,16.698266,-53.543720
26108,5.424033,6.794840,23.845596,6.905777,-10.481045,12.247162,0.694676,1.819460,-0.763629,0.056665,0.066908,0.238181,0.999945,0.003473,0.009097,-0.003818,-0.860497,-0.204080,-0.068353,0.461762,17.615130,17.824797,-53.654174
26109,-6.701158,7.896146,19.447189,1.394546,0.885573,12.158117,-0.052307,0.734332,-0.296018,-0.066180,0.079111,0.194695,0.999992,-0.000262,0.003672,-0.001480,-0.859603,-0.205451,-0.071948,0.462272,17.573430,18.278876,-53.691369
26110,-6.281153,1.564883,3.601195,-2.471730,4.048723,-4.123343,-0.605156,0.576324,0.179368,-0.062722,0.015702,0.036145,0.999991,-0.003026,0.002882,0.000897,-0.860423,-0.204241,-0.075649,0.460690,17.291419,18.563995,-53.484139
26111,-8.034551,0.589431,8.748584,-4.538444,2.665331,0.852029,0.089784,1.115173,0.178830,-0.079861,0.005783,0.087935,0.999984,0.000449,0.005576,0.000894,-0.860300,-0.207266,-0.080071,0.458817,17.441018,19.145266,-53.180368
26112,-1.971498,2.102534,11.425077,0.033931,-2.412432,1.720677,-0.014700,0.556760,-0.072274,-0.019389,0.021041,0.114304,0.999996,-0.000073,0.002784,-0.000361,-0.859922,-0.208447,-0.082584,0.458546,17.451365,19.462872,-53.121275
26113,-3.242600,1.627385,7.446570,-0.852134,-0.018183,-1.573305,0.287359,0.730906,-0.173371,-0.032139,0.016195,0.074607,0.999992,0.001437,0.003655,-0.000867,-0.858908,-0.211290,-0.085264,0.458655,17.626705,19.894316,-53.089048
26114,-6.345368,6.664905,10.019856,1.442857,3.568913,3.235776,0.269867,0.697071,-0.050770,-0.063087,0.066530,0.100509,0.999993,0.001349,0.003485,-0.000254,-0.858202,-0.214021,-0.087702,0.458251,17.814758,20.284478,-52.989493
26115,-3.608119,4.763401,9.422677,1.488829,0.804356,1.215977,-0.481483,0.518444,0.077855,-0.035856,0.047847,0.094205,0.999994,-0.002407,0.002592,0.000389,-0.858653,-0.213182,-0.090963,0.457158,17.587922,20.556243,-52.849061
26116,-4.735744,2.076810,9.355189,-1.303571,0.340277,0.791304,-0.364117,0.460680,0.022041,-0.047144,0.020933,0.093623,0.999996,-0.001821,0.002303,0.000110,-0.858877,-0.212677,-0.093759,0.456408,17.412904,20.805044,-52.751736
26117,-6.246002,1.650814,9.680165,-2.476786,1.091759,1.506182,-0.243916,0.233391,-0.042902,-0.062343,0.016640,0.096854,0.999999,-0.001220,0.001167,-0.000215,-0.858919,-0.212149,-0.095380,0.456239,17.279040,20.942394,-52.735494
26118,-5.878183,2.302132,9.760162,-1.713595,1.099639,1.631437,-0.043309,0.020498,-0.030578,-0.058768,0.023051,0.097603,1.000000,-0.000217,0.000102,-0.000153,-0.858883,-0.211991,-0.095609,0.456331,17.248248,20.959674,-52.750070
26119,-4.088684,2.458327,9.229351,-0.556124,0.090319,0.561521,-0.020358,-0.080182,0.028550,-0.040927,0.024587,0.092275,1.000000,-0.000102,-0.000401,0.000143,-0.858998,-0.211742,-0.095301,0.456295,17.236868,20.913580,-52.749422
26120,-4.043045,2.796092,9.177025,-0.258648,0.254479,0.591660,0.047553,-0.116120,0.073208,-0.040494,0.027924,0.091753,1.000000,0.000238,-0.000581,0.000366,-0.859168,-0.211712,-0.094625,0.456129,17.270960,20.838466,-52.728064
26121,-3.700734,2.396423,8.513650,-0.387045,0.108666,-0.233602,0.051406,-0.142913,0.078958,-0.037078,0.023928,0.085116,1.000000,0.000257,-0.000715,0.000395,-0.859351,-0.211651,-0.093830,0.455978,17.307067,20.749502,-52.709419
26122,-3.095049,3.147581,8.436249,0.563240,0.072116,-0.308244,0.071357,-0.135539,0.066025,-0.031018,0.031435,0.084353,1.000000,0.000357,-0.000678,0.000330,-0.859488,-0.211677,-0.093025,0.455873,17.351955,20.664967,-52.695934
26123,-2.717011,3.325851,8.286339,0.919057,-0.045618,-0.525057,-0.021195,-0.106927,0.082765,-0.027228,0.033256,0.082845,1.000000,-0.000106,-0.000535,0.000414,-0.859738,-0.211387,-0.092546,0.455633,17.349478,20.595000,-52.668619
26124,-2.858676,2.696914,8.451391,0.311398,-0.317816,-0.502832,-0.042074,-0.039490,0.086077,-0.028615,0.026975,0.084503,1.000000,-0.000210,-0.000197,0.000430,-0.859995,-0.211153,-0.092390,0.455288,17.339610,20.559567,-52.625931
26125,-3.081388,2.448615,8.559278,-0.025099,-0.319396,-0.397313,-0.011187,-0.031442,0.052194,-0.030834,0.024483,0.085587,1.000000,-0.000056,-0.000157,0.000261,-0.860130,-0.211064,-0.092244,0.455103,17.341433,20.536031,-52.602660
26126,-3.227113,2.183235,8.334744,-0.321833,-0.241771,-0.621023,0.051162,-0.010060,0.003972,-0.032276,0.021810,0.083351,1.000000,0.000256,-0.000050,0.000020,-0.860088,-0.211260,-0.092090,0.455123,17.370014,20.530718,-52.602569
26127,-3.250297,2.513916,8.687806,-0.079745,-0.222403,-0.205068,0.097944,0.006008,-0.031823,-0.032496,0.025102,0.086891,1.000000,0.000490,0.000030,-0.000159,-0.859899,-0.211686,-0.091945,0.455311,17.419507,20.541998,-52.621520
26128,-3.461745,2.738929,8.656013,-0.018192,0.056821,-0.096288,0.067690,-0.025650,-0.058973,-0.034620,0.027370,0.086565,1.000000,0.000338,-0.000128,-0.000295,-0.859704,-0.211889,-0.091753,0.455625,17.443659,20.538967,-52.661039
26129,-2.974936,2.353586,8.242856,-0.046201,-0.314418,-0.744430,0.067535,0.001598,-0.079008,-0.029739,0.023520,0.082437,1.000000,0.000338,0.000008,-0.000395,-0.859441,-0.212153,-0.091709,0.456006,17.465762,20.555945,-52.708330
26130,-2.714067,2.850993,8.273120,0.510089,-0.282298,-0.669441,0.070899,0.039502,-0.119067,-0.027107,0.028497,0.082747,1.000000,0.000354,0.000198,-0.000595,-0.859075,-0.212489,-0.091853,0.456510,17.483604,20.598889,-52.770967
26131,-2.911664,2.971045,8.235368,0.504689,-0.067048,-0.600361,-0.004652,0.097109,-0.140692,-0.029056,0.029733,0.082367,1.000000,-0.000023,0.000486,-0.000703,-0.858704,-0.212632,-0.092448,0.457021,17.457752,20.678629,-52.836716
26132,-3.101931,2.462515,8.419467,-0.015320,-0.266771,-0.512044,-0.043702,0.144105,-0.146489,-0.030941,0.024666,0.084212,0.999999,-0.000219,0.000721,-0.000732,-0.858347,-0.212703,-0.093332,0.457479,17.410865,20.783419,-52.896278
26133,-3.386375,2.387935,8.709662,-0.230994,-0.232069,-0.173147,-0.030149,0.145940,-0.173952,-0.033779,0.023922,0.087118,0.999999,-0.000151,0.000730,-0.000870,-0.857903,-0.212832,-0.094230,0.458067,17.366383,20.895420,-52.972719
26134,-3.577058,2.444405,8.505294,-0.269613,0.019609,-0.271336,-0.000205,0.131394,-0.172707,-0.035694,0.024475,0.085076,0.999999,-0.000001,0.000657,-0.000864,-0.857444,-0.213047,-0.094988,0.458670,17.337800,20.997660,-53.050206
