// General information: 
//  MT Manager version: 2022.0.0 
//  XDA version: 2022.0.0 build 7085 rev 119802 built on 2022-11-08
// Device information: 
//  DeviceId: 00B4737C
//  ProductCode: MTW2-3A7G6
//  Firmware Version: 4.14.0
//  Hardware Version: 2.0.0
// Device settings: 
//  Filter Profile: human(46.1)
//  Option Flags: Orientation Smoother Disabled, Position/Velocity Smoother Disabled, Continuous Zero Rotation Update Disabled, AHS Disabled, ICC Disabled
// Coordinate system: ENU
PacketCounter,Acc_X,Acc_Y,Acc_Z,FreeAcc_E,FreeAcc_N,FreeAcc_U,Gyr_X,Gyr_Y,Gyr_Z,VelInc_X,VelInc_Y,VelInc_Z,OriInc_q0,OriInc_q1,OriInc_q2,OriInc_q3,Quat_q0,Quat_q1,Quat_q2,Quat_q3,Roll,Pitch,Yaw
51866,-2.391663,5.909741,7.252867,0.103729,1.092514,-0.218693,-0.167265,-0.448242,-0.345524,-0.023977,0.059199,0.072425,0.999996,-0.000836,-0.002241,-0.001728,-0.924274,-0.236057,-0.220703,-0.203185,33.621154,18.183015,30.332194
51867,-2.414021,5.995953,7.297839,0.056539,1.162626,-0.133724,-0.371497,-0.327283,-0.346075,-0.024156,0.060137,0.072827,0.999995,-0.001857,-0.001636,-0.001730,-0.925420,-0.234299,-0.219155,-0.201674,33.319524,18.126528,30.054024
51868,-1.449722,5.045419,6.855253,0.863486,1.043997,-1.285275,-0.433743,-0.115800,-0.311362,-0.014458,0.050625,0.068434,0.999996,-0.002169,-0.000579,-0.001557,-0.926366,-0.232051,-0.218507,-0.200633,33.007615,18.162977,29.863806
51869,-2.523163,5.633441,8.056225,0.411965,0.645377,0.307508,-0.389901,0.229706,-0.167261,-0.025092,0.056512,0.080481,0.999997,-0.001950,0.001149,-0.000836,-0.926731,-0.229842,-0.219307,-0.200616,32.780814,18.316012,29.859145
51870,-2.607070,3.562538,8.147350,0.951594,-1.065355,-0.656972,-0.406800,0.172986,-0.150867,-0.025973,0.035811,0.081423,0.999997,-0.002034,0.000865,-0.000754,-0.927157,-0.227601,-0.219836,-0.200623,32.538808,18.440547,29.844008
51871,-3.466740,4.559439,8.464096,0.138026,-0.729299,0.380285,-0.161485,0.214060,-0.148707,-0.034543,0.045688,0.084641,0.999999,-0.000807,0.001070,-0.000744,-0.927253,-0.226485,-0.220768,-0.200420,32.443773,18.580201,29.842529
51872,-3.871150,4.931930,8.289833,-0.373899,-0.534900,0.560601,-0.145427,0.102986,-0.077167,-0.038650,0.049394,0.082882,1.000000,-0.000727,0.000515,-0.000386,-0.927380,-0.225606,-0.221150,-0.200401,32.356037,18.648180,29.841721
51873,-3.120972,4.728407,8.143362,0.227325,-0.285323,0.100917,-0.085944,0.086300,-0.020115,-0.031170,0.047322,0.081427,1.000000,-0.000430,0.000431,-0.000101,-0.927401,-0.225108,-0.221420,-0.200566,32.311848,18.686666,29.864213
51874,-3.169624,4.991959,8.160672,0.127100,-0.090255,0.263941,-0.044979,0.071554,-0.002696,-0.031666,0.049938,0.081607,1.000000,-0.000225,0.000358,-0.000013,-0.927375,-0.224808,-0.221672,-0.200746,32.290575,18.716620,29.891196
51875,-3.343620,4.902084,8.153568,0.007414,-0.240531,0.268631,-0.013897,0.058266,0.021037,-0.033418,0.049023,0.081542,1.000000,-0.000069,0.000291,0.000105,-0.927304,-0.224718,-0.221839,-0.200990,32.291465,18.728950,29.925640
51876,-3.308049,4.872505,8.263181,0.101664,-0.286132,0.329917,0.047068,0.022631,0.054724,-0.033084,0.048697,0.082647,1.000000,0.000235,0.000113,0.000274,-0.927170,-0.224958,-0.221892,-0.201278,32.327289,18.717626,29.966171
51877,-3.309559,5.033423,8.055160,-0.048469,-0.096320,0.245269,0.077037,-0.016476,0.083829,-0.033123,0.050289,0.080568,1.000000,0.000385,-0.000082,0.000419,-0.927017,-0.225433,-0.221732,-0.201629,32.382734,18.674519,30.008513
51878,-2.701078,5.333275,7.678285,0.179451,0.548836,-0.098663,0.097122,0.029550,0.118344,-0.027031,0.053279,0.076813,1.000000,0.000486,0.000148,0.000592,-0.926755,-0.225968,-0.221796,-0.202165,32.458293,18.646924,30.083727
51879,-3.369035,5.662558,8.239477,-0.173787,0.301589,0.731637,0.079703,0.105077,0.185597,-0.033700,0.056561,0.082435,0.999999,0.000399,0.000525,0.000928,-0.926359,-0.226446,-0.222087,-0.203121,32.544409,18.631098,30.217338
51880,-3.262752,4.835455,7.924080,-0.017340,-0.231078,0.024208,0.031368,0.014105,0.200206,-0.032670,0.048309,0.079251,0.999999,0.000157,0.000071,0.001001,-0.926104,-0.226783,-0.221920,-0.204091,32.593886,18.570612,30.329129
51881,-2.823676,5.429742,7.834463,0.129356,0.478690,0.116470,0.075221,0.054093,0.184003,-0.028265,0.054242,0.078373,0.999999,0.000376,0.000270,0.000920,-0.925769,-0.227289,-0.221972,-0.204986,32.671654,18.530408,30.445217
51882,-2.891942,5.836143,7.778304,-0.070518,0.784487,0.301931,-0.016129,0.048847,0.178373,-0.028952,0.058342,0.077785,1.000000,-0.000081,0.000244,0.000892,-0.925549,-0.227346,-0.221941,-0.205947,32.693767,18.493221,30.557056
51883,-3.050763,5.667159,7.891119,-0.102488,0.530523,0.355973,-0.101521,0.066140,0.159193,-0.030527,0.056687,0.078893,0.999999,-0.000508,0.000331,0.000796,-0.925426,-0.226994,-0.221895,-0.206937,32.667437,18.466354,30.664383
51884,-3.354084,5.268893,8.048248,-0.167996,0.012166,0.373432,-0.146060,0.009795,0.148692,-0.033576,0.052723,0.080446,0.999999,-0.000730,0.000049,0.000743,-0.925426,-0.226457,-0.221582,-0.207860,32.606174,18.419581,30.748392
51885,-2.938532,4.947231,7.848601,0.147883,0.022230,-0.081900,-0.146630,-0.031254,0.117415,-0.029427,0.049513,0.078445,1.000000,-0.000733,-0.000156,0.000587,-0.925502,-0.225951,-0.221086,-0.208596,32.537180,18.358776,30.802803
51886,-2.940849,5.167345,7.964280,0.127201,0.167182,0.123895,-0.135672,-0.042857,0.084449,-0.029447,0.051715,0.079601,1.000000,-0.000678,-0.000214,0.000422,-0.925614,-0.225445,-0.220613,-0.209150,32.466078,18.306527,30.837094
51887,-2.658497,5.050307,7.761378,0.274994,0.282445,-0.186848,-0.166039,-0.028755,0.063625,-0.026612,0.050559,0.077568,1.000000,-0.000830,-0.000144,0.000318,-0.925764,-0.224787,-0.220168,-0.209661,32.377553,18.263573,30.865031
51888,-2.801457,5.052185,7.938395,0.235529,0.166869,0.000952,-0.155003,0.012279,0.048761,-0.028022,0.050577,0.079346,1.000000,-0.000775,0.000061,0.000244,-0.925872,-0.224094,-0.219969,-0.210132,32.295251,18.249047,30.899066
51889,-3.194533,5.036245,8.084354,-0.017853,-0.074411,0.233193,-0.171943,-0.013116,0.037925,-0.031960,0.050426,0.080798,1.000000,-0.000860,-0.000066,0.000190,-0.926038,-0.223364,-0.219618,-0.210548,32.200828,18.221561,30.919033
51890,-2.805194,3.837626,8.133600,0.662779,-0.862671,-0.454887,-0.139048,-0.039131,0.014692,-0.028071,0.038431,0.081304,1.000000,-0.000695,-0.000196,0.000073,-0.926219,-0.222761,-0.219236,-0.210787,32.117059,18.192588,30.919205
51891,-3.066899,3.502753,8.241153,0.593503,-1.295412,-0.455262,0.048227,-0.071410,-0.018917,-0.030695,0.035011,0.082409,1.000000,0.000241,-0.000357,-0.000095,-0.926262,-0.223048,-0.218911,-0.210632,32.133769,18.154187,30.891471
51892,-2.879424,4.650819,8.122423,0.349471,-0.243822,-0.029367,0.168784,-0.091365,-0.039275,-0.028822,0.046445,0.081250,1.000000,0.000844,-0.000457,-0.000196,-0.926214,-0.223866,-0.218671,-0.210225,32.212580,18.116347,30.847325
51893,-2.903823,4.817967,7.981365,0.210551,-0.089075,-0.050777,0.160285,-0.099605,-0.058203,-0.029064,0.048124,0.079838,1.000000,0.000801,-0.000498,-0.000291,-0.926203,-0.224657,-0.218376,-0.209735,32.284285,18.076368,30.790396
51894,-3.017811,4.213232,8.082048,0.344699,-0.682615,-0.242253,0.220242,-0.107843,-0.091631,-0.030202,0.042057,0.080851,0.999999,0.001101,-0.000539,-0.000458,-0.926168,-0.225674,-0.218172,-0.209010,32.382692,18.046712,30.714186
51895,-2.827409,4.464325,7.927680,0.354295,-0.355247,-0.298446,0.287961,-0.136684,-0.139891,-0.028297,0.044549,0.079322,0.999998,0.001440,-0.000683,-0.000699,-0.926136,-0.227004,-0.217930,-0.207960,32.510918,18.014117,30.603609
51896,-2.950142,4.659507,8.153029,0.317935,-0.354310,0.018871,0.365936,-0.127923,-0.156420,-0.029517,0.046469,0.081597,0.999998,0.001830,-0.000640,-0.000782,-0.926020,-0.228644,-0.217858,-0.206753,32.680659,17.995098,30.487880
51897,-3.388934,4.839951,8.091223,-0.114869,-0.428290,0.196367,0.403816,-0.169388,-0.144186,-0.033923,0.048260,0.080981,0.999997,0.002019,-0.000847,-0.000721,-0.925889,-0.230537,-0.217587,-0.205517,32.871280,17.948684,30.364315
51898,-2.813583,5.831529,7.931907,0.010530,0.671462,0.404310,0.434241,-0.166771,-0.110890,-0.028170,0.058159,0.079422,0.999997,0.002171,-0.000834,-0.000554,-0.925681,-0.232581,-0.217351,-0.204400,33.083449,17.897527,30.258776
51899,-3.219567,6.205711,7.881963,-0.442308,0.763042,0.686068,0.333126,-0.129316,-0.040499,-0.032234,0.061932,0.078902,0.999998,0.001666,-0.000647,-0.000202,-0.925474,-0.234217,-0.217071,-0.203765,33.253824,17.838652,30.200438
51900,-3.528715,5.083264,8.253968,-0.199577,-0.448706,0.491591,0.283995,-0.164782,0.004893,-0.035356,0.050715,0.082583,0.999999,0.001420,-0.000824,0.000024,-0.925314,-0.235687,-0.216554,-0.203348,33.398049,17.752613,30.153523
51901,-3.611181,4.483109,8.337943,-0.065262,-1.035770,0.266151,0.389569,-0.255268,-0.004529,-0.036217,0.044669,0.083420,0.999997,0.001948,-0.001276,-0.000023,-0.925133,-0.237750,-0.215707,-0.202669,33.593696,17.622560,30.071174
51902,-3.594813,5.017728,8.135292,-0.304332,-0.567204,0.378915,0.438843,-0.339812,-0.051824,-0.036073,0.050008,0.081402,0.999996,0.002194,-0.001699,-0.000259,-0.925026,-0.240051,-0.214602,-0.201613,33.800539,17.471406,29.937030
51903,-2.713819,5.795785,7.694441,-0.010708,0.594536,0.177641,0.395794,-0.366922,-0.115409,-0.027246,0.057821,0.077009,0.999996,0.001979,-0.001835,-0.000577,-0.925058,-0.242131,-0.213375,-0.200279,33.972102,17.324338,29.761268
51904,-2.429413,6.334922,7.441847,-0.047952,1.223420,0.183075,0.268932,-0.321184,-0.152578,-0.024365,0.063268,0.074464,0.999998,0.001345,-0.001606,-0.000763,-0.925226,-0.243516,-0.212304,-0.198958,34.068989,17.215052,29.582584
51905,-2.563192,6.849823,7.499634,-0.273313,1.535570,0.545974,0.116247,-0.266537,-0.151436,-0.025680,0.068474,0.075002,0.999999,0.000581,-0.001333,-0.000757,-0.925516,-0.244164,-0.211304,-0.197875,34.085818,17.127691,29.422394
51906,-3.247752,6.952647,7.916397,-0.680331,1.138344,1.132533,-0.007726,-0.273695,-0.094677,-0.032553,0.069545,0.079117,0.999999,-0.000039,-0.001368,-0.000473,-0.925908,-0.244282,-0.210106,-0.197171,34.037926,17.022488,29.288508
51907,-2.984430,6.270007,7.843518,-0.342905,0.746423,0.630768,-0.194101,-0.315344,-0.106751,-0.029934,0.062792,0.078327,0.999998,-0.000971,-0.001577,-0.000534,-0.926579,-0.243590,-0.208518,-0.196561,33.879622,16.897294,29.134597
51908,-2.955562,5.457077,8.087354,-0.024148,0.039179,0.381330,-0.372694,-0.369860,-0.204956,-0.029649,0.054752,0.080717,0.999996,-0.001863,-0.001849,-0.001025,-0.927616,-0.241995,-0.206649,-0.195609,33.598209,16.780647,28.914631
51909,-2.713730,5.226119,8.076429,0.192802,0.000765,0.180708,-0.366395,-0.407586,-0.288840,-0.027226,0.052448,0.080613,0.999995,-0.001832,-0.002038,-0.001444,-0.928757,-0.240403,-0.204682,-0.194219,33.307370,16.667605,28.640744
51910,-2.616055,5.089509,7.881410,0.177662,0.044788,-0.074638,-0.463911,-0.409288,-0.354217,-0.026231,0.051124,0.078642,0.999994,-0.002320,-0.002046,-0.001771,-0.930072,-0.238265,-0.202717,-0.192617,32.949871,16.576542,28.334710
51911,-2.761962,5.609402,8.080206,-0.029567,0.372959,0.397271,-0.468102,-0.400386,-0.377493,-0.027675,0.056335,0.080615,0.999993,-0.002341,-0.002002,-0.001887,-0.931392,-0.236097,-0.200787,-0.190922,32.590096,16.491352,28.020249
51912,-2.873764,5.942329,8.235460,-0.181969,0.591481,0.723402,-0.574783,-0.390934,-0.380864,-0.028785,0.059714,0.082127,0.999992,-0.002874,-0.001955,-0.001904,-0.932820,-0.233391,-0.198828,-0.189324,32.168231,16.413518,27.708181
51913,-3.373973,6.246577,8.622220,-0.560499,0.544438,1.328892,-0.682461,-0.444587,-0.394567,-0.033807,0.062826,0.085933,0.999990,-0.003412,-0.002223,-0.001973,-0.934421,-0.230243,-0.196501,-0.187706,31.680752,16.307587,27.372698
51914,-3.089972,5.417814,8.366349,-0.281688,0.163320,0.617523,-0.947963,-0.494881,-0.508841,-0.030968,0.054652,0.083329,0.999982,-0.004740,-0.002474,-0.002544,-0.936459,-0.225756,-0.193844,-0.185748,31.019285,16.211677,26.964938
51915,-2.855647,5.349514,8.200689,-0.206332,0.366372,0.377760,-1.033389,-0.543733,-0.609434,-0.028615,0.054005,0.081651,0.999978,-0.005167,-0.002719,-0.003047,-0.938697,-0.220836,-0.190958,-0.183343,30.293684,16.112652,26.491847
51916,-2.014881,5.683172,7.834787,0.203241,1.234419,-0.005762,-1.066597,-0.512513,-0.594049,-0.020179,0.057308,0.077991,0.999978,-0.005333,-0.002563,-0.002970,-0.940888,-0.215709,-0.188190,-0.181065,29.552750,16.022623,26.037818
51917,-2.300632,6.083133,7.837817,-0.209114,1.550433,0.251110,-1.066967,-0.432096,-0.455265,-0.023036,0.061301,0.078002,0.999981,-0.005335,-0.002160,-0.002276,-0.942837,-0.210657,-0.185615,-0.179522,28.841465,15.924793,25.680537
51918,-2.177390,5.538238,7.925194,0.013672,1.210241,0.023767,-1.082262,-0.337618,-0.288496,-0.021827,0.055841,0.078914,0.999983,-0.005411,-0.001688,-0.001442,-0.944533,-0.205567,-0.183317,-0.178869,28.151166,15.828469,25.439079
51919,-2.607433,5.366515,8.263710,-0.236234,0.867956,0.339996,-1.012280,-0.272994,-0.131712,-0.026151,0.054100,0.082328,0.999986,-0.005061,-0.001365,-0.000659,-0.945926,-0.200919,-0.181192,-0.178956,27.531787,15.716513,25.299165
51920,-2.401066,5.451608,8.310592,-0.124030,1.097226,0.352490,-1.018529,-0.250184,-0.048748,-0.024101,0.054944,0.082797,0.999986,-0.005093,-0.001251,-0.000244,-0.947205,-0.196258,-0.179108,-0.179456,26.920239,15.596765,25.210901
51921,-2.575791,5.521097,8.521184,-0.275916,1.105252,0.600241,-1.023920,-0.244180,-0.005851,-0.025860,0.055647,0.084896,0.999986,-0.005120,-0.001221,-0.000029,-0.948418,-0.191633,-0.176974,-0.180167,26.315623,15.464392,25.148186
51922,-3.076410,5.415108,8.216800,-0.877695,0.983283,0.413031,-1.050129,-0.261771,0.090034,-0.030896,0.054567,0.081842,0.999985,-0.005251,-0.001309,0.000450,-0.949559,-0.186945,-0.174663,-0.181332,25.705971,15.302031,25.133789
51923,-2.300573,4.730726,8.129877,-0.115625,0.811258,-0.164115,-1.039936,-0.227856,0.189867,-0.023143,0.047707,0.081025,0.999985,-0.005200,-0.001139,0.000949,-0.950541,-0.182392,-0.172397,-0.182989,25.122143,15.128783,25.183128
51924,-2.412444,4.113393,8.489778,0.038179,0.199863,-0.077489,-0.990720,-0.173208,0.268219,-0.024253,0.041521,0.084672,0.999986,-0.004954,-0.000866,0.001341,-0.951333,-0.178050,-0.170386,-0.185020,24.578143,14.969315,25.290174
51925,-2.744864,3.682907,9.333539,0.138442,-0.471879,0.578193,-0.994874,-0.165010,0.247260,-0.027571,0.037259,0.093128,0.999987,-0.004974,-0.000825,0.001236,-0.952113,-0.173693,-0.168397,-0.186957,24.032691,14.816280,25.389157
51926,-2.904304,2.732021,9.371047,0.231393,-1.294689,0.286060,-1.082165,-0.241007,0.104184,-0.029170,0.027811,0.093526,0.999984,-0.005411,-0.001205,0.000521,-0.953141,-0.168831,-0.166111,-0.188215,23.409772,14.661125,25.394146
51927,-2.286737,2.081519,8.972961,0.754854,-1.422006,-0.459440,-1.005234,-0.235725,-0.031350,-0.022970,0.021269,0.089596,0.999987,-0.005026,-0.001179,-0.000157,-0.954198,-0.164246,-0.164006,-0.188762,22.816072,14.535578,25.328004
51928,-2.750386,2.513841,9.165576,0.234854,-1.207036,0.004593,-0.909701,-0.207448,-0.123690,-0.027583,0.025572,0.091512,0.999989,-0.004548,-0.001037,-0.000618,-0.955219,-0.159977,-0.162223,-0.188808,22.263509,14.448361,25.219352
51929,-2.622412,2.678484,9.036238,0.198344,-0.900045,-0.073346,-0.908617,-0.174578,-0.240425,-0.026270,0.027226,0.090216,0.999989,-0.004543,-0.000873,-0.001202,-0.956299,-0.155615,-0.160662,-0.188318,21.700500,14.398961,25.054569
51930,-1.924041,2.860007,8.927315,0.672710,-0.343554,-0.272918,-0.932727,-0.102193,-0.392382,-0.019229,0.029054,0.089129,0.999987,-0.004664,-0.000511,-0.001962,-0.957461,-0.150913,-0.159565,-0.187171,21.104178,14.422000,24.822499
51931,-0.742807,3.262330,8.404573,1.368381,0.703645,-0.898483,-1.005652,0.058643,-0.585930,-0.007307,0.033067,0.083882,0.999983,-0.005028,0.000293,-0.002930,-0.958701,-0.145581,-0.159285,-0.185273,20.449890,14.564433,24.516478
51932,-0.752521,3.397803,8.669720,1.406339,0.866603,-0.617823,-1.037660,0.335887,-0.713483,-0.007257,0.034453,0.086532,0.999979,-0.005188,0.001679,-0.003567,-0.959826,-0.139703,-0.160417,-0.182983,19.769294,14.881347,24.194203
51933,-1.913335,4.383607,10.198289,0.644302,1.090497,1.379993,-0.911059,0.466666,-0.713306,-0.018738,0.044367,0.101826,0.999981,-0.004555,0.002333,-0.003567,-0.960720,-0.134338,-0.162257,-0.180676,19.167648,15.261444,23.893420
51934,-1.987381,4.765917,10.829478,0.708157,1.409295,2.080683,-0.869655,0.332514,-0.587254,-0.019553,0.048187,0.108119,0.999985,-0.004348,0.001663,-0.002936,-0.961546,-0.129360,-0.163429,-0.178845,18.596170,15.546374,23.633476
51935,-0.447649,4.312078,9.850682,1.859494,1.886614,0.618644,-0.694889,0.272291,-0.418924,-0.004252,0.043472,0.098362,0.999991,-0.003474,0.001361,-0.002095,-0.962136,-0.125443,-0.164325,-0.177637,18.148398,15.761812,23.454088
51936,-0.172087,5.159978,10.258296,2.001187,2.763474,1.152971,-0.537443,0.251953,-0.225509,-0.001533,0.051877,0.102446,0.999995,-0.002687,0.001260,-0.001128,-0.962458,-0.122427,-0.165169,-0.177214,17.815828,15.934882,23.379077
51937,0.209278,3.857468,10.058215,2.655388,1.818829,0.469926,-0.396416,0.115310,-0.024678,0.002156,0.038774,0.100504,0.999998,-0.001982,0.000577,-0.000123,-0.962623,-0.120410,-0.165322,-0.177557,17.591358,15.993398,23.392111
51938,0.243644,3.932671,9.589319,2.485110,2.009133,0.049762,-0.129597,-0.016774,0.042644,0.002420,0.039389,0.095868,1.000000,-0.000648,-0.000084,0.000213,-0.962673,-0.119815,-0.165070,-0.177923,17.520569,15.972785,23.419777
51939,-0.583738,3.618654,9.385077,1.763002,1.451381,0.000588,-0.127196,-0.094983,0.077912,-0.005896,0.036244,0.093825,1.000000,-0.000636,-0.000475,0.000390,-0.962756,-0.119368,-0.164383,-0.178410,17.456080,15.898149,23.453137
51940,0.069274,4.489234,9.642616,2.141739,2.447228,0.314602,-0.050893,-0.297648,0.119721,0.000522,0.044917,0.096416,0.999999,-0.000254,-0.001488,0.000599,-0.962919,-0.119466,-0.162802,-0.178914,17.428579,15.710823,23.474474
51941,0.869571,3.287043,8.520208,2.779506,1.845133,-1.267254,-0.025080,-0.396539,0.241221,0.008487,0.032891,0.085215,0.999997,-0.000125,-0.001983,0.001206,-0.963036,-0.119915,-0.160652,-0.179923,17.433041,15.442846,23.546723
51942,-0.763736,3.549809,8.442238,1.191009,1.444208,-0.815389,0.183708,-0.390630,0.395094,-0.007872,0.035405,0.084440,0.999996,0.000919,-0.001953,0.001975,-0.962876,-0.121446,-0.158668,-0.181506,17.576487,15.157233,23.707183
51943,-2.429579,2.822113,8.288826,-0.144518,0.122735,-0.727779,0.273847,-0.431274,0.505867,-0.024546,0.028046,0.082874,0.999994,0.001369,-0.002156,0.002529,-0.962585,-0.123577,-0.156454,-0.183525,17.788297,14.823440,23.921237
51944,-3.780960,1.514773,7.747869,-1.146817,-1.538363,-1.272334,0.271033,-0.436912,0.470741,-0.038014,0.014953,0.077416,0.999994,0.001355,-0.002185,0.002354,-0.962317,-0.125628,-0.154277,-0.185371,17.988085,14.498248,24.113455
51945,-5.786721,0.167918,7.098310,-2.734831,-3.472855,-1.790214,0.395544,-0.311680,0.330579,-0.057980,0.001443,0.070896,0.999995,0.001978,-0.001558,0.001653,-0.961995,-0.128094,-0.152858,-0.186524,18.247456,14.259445,24.247769
51946,-6.965573,1.369926,7.911366,-3.898762,-3.063755,-0.410643,0.363917,-0.351466,0.166937,-0.069806,0.013497,0.079016,0.999996,0.001820,-0.001757,0.000835,-0.961868,-0.130277,-0.151368,-0.186886,18.460260,14.034030,24.282332
51947,-5.802504,-0.314509,7.021580,-2.657313,-3.972705,-2.052101,0.312258,-0.390040,-0.006252,-0.058162,-0.003253,0.070097,0.999997,0.001561,-0.001950,-0.000031,-0.961959,-0.132152,-0.149718,-0.186428,18.621097,13.814006,24.211461
51948,-5.816250,0.603266,7.185678,-2.930229,-3.216707,-1.633869,0.477620,-0.369284,-0.143878,-0.058291,0.005903,0.071763,0.999995,0.002388,-0.001846,-0.000719,-0.962045,-0.134663,-0.148449,-0.185197,18.856427,13.635913,24.067425
51949,-5.387912,1.673106,7.304915,-2.869810,-2.144845,-1.306550,0.469430,-0.400851,-0.151347,-0.054013,0.016601,0.072980,0.999995,0.002347,-0.002004,-0.000757,-0.962158,-0.137187,-0.146993,-0.183913,19.087543,13.438455,23.912146
51950,-4.560380,2.241603,6.294821,-2.666510,-1.131512,-2.259152,0.488122,-0.382885,0.000086,-0.045724,0.022262,0.062915,0.999995,0.002441,-0.001914,0.000000,-0.962096,-0.139864,-0.145567,-0.183354,19.347402,13.227029,23.844232
51951,-4.795851,3.100648,5.796771,-3.319975,-0.389551,-2.393617,0.430392,-0.209543,0.297132,-0.048065,0.030810,0.057984,0.999996,0.002152,-0.001048,0.001486,-0.961668,-0.142348,-0.144687,-0.184385,19.621836,13.049242,23.973817
51952,-3.904060,3.247806,6.191309,-2.452206,-0.035191,-2.189858,0.126410,-0.101099,0.660059,-0.039179,0.032310,0.061914,0.999994,0.000632,-0.000505,0.003300,-0.961033,-0.143503,-0.143814,-0.187457,19.768926,12.862941,24.325349
51953,-1.754672,1.206237,6.233120,0.109559,-1.026410,-3.307297,-0.022344,-0.073717,0.963944,-0.017628,0.011985,0.062323,0.999988,-0.000112,-0.000369,0.004820,-0.960182,-0.144161,-0.142693,-0.192112,19.870241,12.628648,24.849316
51954,2.328321,-0.558888,6.965627,4.533403,-1.077283,-4.108210,0.003717,-0.170690,1.035914,0.023252,-0.005470,0.069676,0.999986,0.000019,-0.000853,0.005180,-0.959288,-0.145058,-0.141095,-0.197020,19.985669,12.330071,25.392845
51955,6.237527,-3.076788,8.255238,9.250354,-1.935019,-4.596467,0.445580,-0.133581,0.506134,0.062398,-0.030794,0.082525,0.999994,0.002228,-0.000668,0.002531,-0.958550,-0.147685,-0.140468,-0.199097,20.293595,12.150676,25.650269
51956,4.593625,2.376416,16.412172,8.769421,0.201625,4.991103,1.632749,1.090782,-1.268943,0.046975,0.022129,0.164053,0.999932,0.008164,0.005454,-0.006345,-0.957772,-0.153501,-0.148215,-0.192723,21.123932,12.987948,25.186044
51957,-15.258829,9.726477,29.329622,-6.530386,-4.632133,23.706813,-0.154249,0.041205,-0.876751,-0.152099,0.098158,0.293252,0.999990,-0.000771,0.000206,-0.004384,-0.958694,-0.152070,-0.148862,-0.188733,20.926944,13.180850,24.718821
51958,7.130488,-2.845940,-1.891648,6.571664,0.804279,-14.135588,-0.287707,-0.555222,-0.716298,0.071254,-0.028742,-0.018677,0.999989,-0.001439,-0.002776,-0.003581,-0.959988,-0.150658,-0.146439,-0.185152,20.643748,13.024653,24.215079
51959,-8.140338,8.596398,10.159278,-6.401349,1.939923,4.280927,1.133027,0.720227,-0.363622,-0.080880,0.085533,0.102370,0.999976,0.005665,0.003601,-0.001818,-0.958920,-0.155155,-0.151144,-0.183179,21.279986,13.475381,24.172375
51960,-0.436543,7.677173,7.177534,-0.225246,4.887017,-0.500716,-0.034959,0.148353,-0.195243,-0.004237,0.076788,0.071765,0.999999,-0.000175,0.000742,-0.000976,-0.959010,-0.154681,-0.151941,-0.182447,21.239554,13.590687,24.102939
51961,-2.562938,9.203044,7.399376,-2.468114,5.348945,0.737786,0.083929,0.482239,0.000099,-0.025451,0.091999,0.074094,0.999997,0.000420,0.002411,0.000000,-0.958574,-0.154646,-0.154263,-0.182820,21.311233,13.839326,24.211830
51962,-3.832474,7.440175,7.870068,-2.863358,3.179193,0.849202,-0.221300,0.558440,0.256049,-0.038200,0.074440,0.078725,0.999995,-0.001106,0.002792,0.001280,-0.958072,-0.153249,-0.156505,-0.184712,21.244602,14.079766,24.478442
51963,-3.994224,4.914590,9.999093,-1.456576,0.397104,1.926541,-0.356787,0.478885,0.446222,-0.039813,0.049235,0.099999,0.999993,-0.001784,0.002394,0.002231,-0.957548,-0.151457,-0.158063,-0.187558,21.125510,14.234558,24.832347
51964,-3.408586,1.473792,10.137352,0.198813,-2.407677,0.709663,-0.375804,0.372897,0.389299,-0.033926,0.014862,0.101409,0.999995,-0.001879,0.001864,0.001946,-0.957165,-0.149593,-0.159167,-0.190063,20.980132,14.349374,25.132490
51965,-3.813644,1.319819,10.632066,0.088680,-2.796681,1.209894,-0.209635,0.210672,0.233026,-0.038040,0.013265,0.106347,0.999998,-0.001048,0.001053,0.001165,-0.956927,-0.148584,-0.159740,-0.191565,20.903064,14.405970,25.311589
51966,-3.072067,1.744399,9.839782,0.321188,-1.919940,0.459239,-0.195193,0.067353,0.071614,-0.030694,0.017529,0.098391,0.999999,-0.000976,0.000337,0.000358,-0.956945,-0.147622,-0.159788,-0.192177,20.801991,14.422998,25.371511
51967,-2.756989,1.728880,9.547675,0.493859,-1.725685,0.113350,-0.076317,0.019704,-0.041535,-0.027557,0.017331,0.095473,1.000000,-0.000382,0.000099,-0.000208,-0.957022,-0.147209,-0.159779,-0.192117,20.753090,14.433789,25.358502
51968,-2.612674,2.407934,9.408925,0.348321,-1.026483,0.186166,-0.067585,-0.054279,-0.164158,-0.026132,0.024133,0.094074,1.000000,-0.000338,-0.000271,-0.000821,-0.957269,-0.146785,-0.159542,-0.191409,20.686276,14.433562,25.262461
51969,-2.026883,2.867774,9.059680,0.583881,-0.294723,-0.118235,0.010494,-0.062868,-0.244148,-0.020262,0.028698,0.090592,0.999999,0.000052,-0.000314,-0.001221,-0.957541,-0.146703,-0.159369,-0.190249,20.654531,14.441118,25.120004
51970,-2.456513,3.337220,8.918121,0.006666,-0.019393,0.021129,0.011995,-0.051768,-0.256837,-0.024545,0.033398,0.089177,0.999999,0.000060,-0.000259,-0.001284,-0.957813,-0.146583,-0.159288,-0.189035,20.620606,14.460820,24.973163
51971,-2.243634,3.450979,8.753663,0.100420,0.207898,-0.142297,0.070821,-0.036780,-0.239023,-0.022411,0.034506,0.087545,0.999999,0.000354,-0.000184,-0.001195,-0.958013,-0.146768,-0.159293,-0.187871,20.625354,14.481210,24.838949
51972,-3.128545,3.459302,9.398967,-0.443172,-0.285697,0.666679,0.067854,-0.032844,-0.230931,-0.031261,0.034597,0.093996,0.999999,0.000339,-0.000164,-0.001155,-0.958202,-0.146919,-0.159336,-0.186749,20.627900,14.505804,24.710369
51973,-3.419590,2.870890,9.615937,-0.438370,-0.977662,0.735007,0.159461,-0.125875,-0.217339,-0.034225,0.028669,0.096161,0.999999,0.000797,-0.000629,-0.001087,-0.958385,-0.147628,-0.158981,-0.185552,20.681756,14.474188,24.569583
51974,-2.321150,3.489902,9.477351,0.284975,0.031754,0.546129,0.194717,-0.149902,-0.164246,-0.023254,0.034826,0.094790,0.999999,0.000974,-0.000750,-0.000821,-0.958508,-0.148548,-0.158531,-0.184562,20.760196,14.422738,24.453468
51975,-2.715611,6.875466,9.321135,-1.159871,2.888641,1.669494,0.273854,-0.142669,0.042204,-0.027237,0.068621,0.093286,0.999999,0.001369,-0.000713,0.000211,-0.958375,-0.150025,-0.158009,-0.184505,20.914518,14.329752,24.452606
51976,-2.156189,9.189917,7.432148,-2.072214,5.570264,0.628504,-0.014646,-0.090927,0.398079,-0.021779,0.091861,0.074305,0.999998,-0.000073,-0.000455,0.001990,-0.958086,-0.150332,-0.157228,-0.186419,20.952906,14.195165,24.659341
51977,-1.685209,8.332219,6.940839,-1.615634,5.088567,-0.224312,-0.145038,0.118431,0.837048,-0.017160,0.083301,0.069358,0.999991,-0.000725,0.000592,0.004185,-0.957308,-0.150191,-0.156970,-0.190693,20.988700,14.078829,25.152075
51978,-1.326054,6.619904,7.496043,-0.614777,3.582976,-0.402252,-0.346605,0.266340,1.079131,-0.013518,0.066256,0.074864,0.999983,-0.001733,0.001332,0.005396,-0.956310,-0.149101,-0.157068,-0.196390,20.945446,13.995638,25.809619
51979,-1.257847,3.959297,7.547089,0.297642,1.263036,-1.296064,-0.368211,0.374156,1.102908,-0.012656,0.039662,0.075422,0.999981,-0.001841,0.001871,0.005515,-0.955184,-0.147852,-0.157611,-0.202291,20.901286,13.961939,26.502688
51980,-0.224313,2.286359,7.719423,1.815603,0.231108,-1.969390,-0.395401,0.513234,0.959286,-0.002155,0.023006,0.077154,0.999983,-0.001977,0.002566,0.004796,-0.954081,-0.146177,-0.158917,-0.207622,20.826225,14.036541,27.146072
51981,-2.111882,2.589485,9.874536,0.880600,-0.768880,0.546133,-0.292573,0.606878,0.764792,-0.020918,0.025959,0.098771,0.999987,-0.001463,0.003034,0.003824,-0.953000,-0.144774,-0.160886,-0.212007,20.793440,14.197327,27.701693
51982,-4.749905,1.730650,11.034942,-0.625322,-2.915234,1.953237,-0.445034,0.335216,0.561084,-0.047363,0.017419,0.110390,0.999992,-0.002225,0.001676,0.002805,-0.952445,-0.142727,-0.161570,-0.215342,20.629283,14.258872,28.088140
51983,-3.235252,0.499797,9.198935,0.451482,-2.899152,-0.499894,-0.247717,0.137037,0.443435,-0.032301,0.005040,0.092005,0.999997,-0.001239,0.000685,0.002217,-0.952024,-0.141771,-0.161578,-0.217814,20.555084,14.234608,28.367899
51984,-3.889113,-0.301264,9.897724,0.456625,-4.023910,0.025022,-0.155460,0.117241,0.369872,-0.038828,-0.003008,0.099002,0.999998,-0.000777,0.000586,0.001849,-0.951629,-0.141182,-0.161671,-0.219846,20.519665,14.218770,28.603110
51985,-2.473342,-2.153145,10.208048,2.475152,-5.026934,-0.671503,0.021538,0.001932,0.202387,-0.024711,-0.021567,0.102078,0.999999,0.000108,0.000010,0.001012,-0.951384,-0.141452,-0.161500,-0.220856,20.559134,14.170998,28.721367
51986,-2.483299,-2.196217,10.423167,2.565176,-5.124854,-0.496668,0.257996,-0.060998,-0.084285,-0.024874,-0.022086,0.104196,0.999999,0.001290,-0.000305,-0.000421,-0.951337,-0.142658,-0.161521,-0.220266,20.689800,14.150894,28.668218
51987,-2.454562,-1.021474,10.306627,2.102435,-4.104218,-0.219467,0.394623,-0.161826,-0.439068,-0.024652,-0.010364,0.103026,0.999995,0.001973,-0.000809,-0.002195,-0.951662,-0.144355,-0.161436,-0.217807,20.846633,14.145329,28.397456
51988,-2.225408,-0.176248,9.365243,1.626271,-3.107873,-0.846777,0.437042,-0.235278,-0.786651,-0.022371,-0.001879,0.093622,0.999989,0.002185,-0.001176,-0.003933,-0.952378,-0.146033,-0.161325,-0.213601,20.976021,14.175840,27.919746
51989,-2.786877,0.936469,9.498403,0.784752,-2.456693,-0.209976,0.585206,-0.251129,-1.019622,-0.027941,0.009229,0.094976,0.999982,0.002926,-0.001256,-0.005098,-0.953223,-0.148252,-0.161432,-0.208152,21.157660,14.243508,27.309676
51990,-3.643863,2.449842,9.986978,-0.302528,-1.653977,0.966551,0.650623,-0.372686,-1.167115,-0.036482,0.024386,0.099881,0.999976,0.003253,-0.001863,-0.005836,-0.954229,-0.150775,-0.161161,-0.201846,21.349689,14.282434,26.592875
51991,-3.152385,3.463560,9.490583,-0.399096,-0.471201,0.752518,0.685682,-0.527047,-1.232697,-0.031561,0.034505,0.094941,0.999972,0.003428,-0.002635,-0.006163,-0.955353,-0.153566,-0.160200,-0.195074,21.544463,14.251694,25.806273
51992,-3.511058,4.939344,8.833282,-1.418892,0.800082,0.774950,0.710196,-0.572906,-1.191966,-0.035070,0.049289,0.088407,0.999972,0.003551,-0.002865,-0.005960,-0.956399,-0.156537,-0.159034,-0.188429,21.757134,14.194061,25.032579
51993,-2.873570,5.777064,8.204087,-1.325409,1.931274,0.358462,0.640034,-0.565236,-1.083824,-0.028655,0.057663,0.082144,0.999976,0.003200,-0.002826,-0.005419,-0.957346,-0.159250,-0.157717,-0.182355,21.945412,14.116823,24.319496
51994,-2.028674,7.205175,7.973816,-1.055062,3.566876,0.472052,0.567886,-0.508635,-0.908677,-0.020163,0.071917,0.079891,0.999982,0.002839,-0.002543,-0.004543,-0.958104,-0.161692,-0.156488,-0.177212,22.119673,14.037435,23.715279
51995,-1.821722,7.237661,7.745688,-0.929389,3.713130,0.239520,0.437890,-0.409080,-0.641581,-0.018144,0.072265,0.077578,0.999990,0.002189,-0.002045,-0.003208,-0.958629,-0.163639,-0.155374,-0.173529,22.261704,13.951459,23.278952
51996,-1.839931,7.176491,7.812323,-0.884493,3.615201,0.290169,0.320190,-0.304245,-0.393723,-0.018377,0.071676,0.078210,0.999996,0.001601,-0.001521,-0.001969,-0.958938,-0.165109,-0.154482,-0.171206,22.374368,13.871284,23.001777
51997,-1.953775,6.224697,8.176026,-0.587501,2.615500,0.297974,0.186906,-0.227589,-0.221991,-0.019562,0.062192,0.081796,0.999998,0.000935,-0.001138,-0.001110,-0.959147,-0.166026,-0.153674,-0.169873,22.439118,13.791310,22.835210
51998,-1.520305,5.718100,8.497228,0.049265,2.234889,0.297393,0.050060,-0.164881,-0.126562,-0.015237,0.057169,0.084974,0.999999,0.000250,-0.000824,-0.000633,-0.959337,-0.166287,-0.152998,-0.169153,22.439834,13.727080,22.735083
51999,-3.397041,5.063421,9.281182,-1.189899,0.731887,1.203978,0.060972,-0.172324,-0.004388,-0.034049,0.050607,0.092798,1.000000,0.000305,-0.000862,-0.000022,-0.959419,-0.166723,-0.152167,-0.169006,22.464368,13.628768,22.699618
52000,-1.675523,4.084305,8.598884,0.364068,0.688927,-0.178243,-0.123732,-0.218351,0.023278,-0.016854,0.040894,0.085945,0.999999,-0.000619,-0.001092,0.000116,-0.959666,-0.166310,-0.150962,-0.169092,22.382189,13.503444,22.669209
52001,-1.682669,3.495462,8.639368,0.513715,0.155433,-0.357517,-0.063327,-0.127446,-0.004451,-0.016881,0.034982,0.086372,1.000000,-0.000317,-0.000637,-0.000022,-0.959816,-0.166113,-0.150242,-0.169075,22.338173,13.428923,22.643968
52002,-1.088923,3.723953,8.406004,0.891722,0.648851,-0.620393,-0.118434,-0.083885,-0.059084,-0.010913,0.037293,0.084033,1.000000,-0.000592,-0.000419,-0.000295,-0.960025,-0.165549,-0.149755,-0.168873,22.255740,13.392721,22.599027
52003,-1.011110,4.095638,8.157779,0.767991,1.084113,-0.725288,-0.111036,0.017099,-0.054588,-0.010093,0.041004,0.081556,1.000000,-0.000555,0.000085,-0.000273,-0.960148,-0.164964,-0.149729,-0.168772,22.185594,13.405532,22.578813
52004,-2.009715,3.670520,8.667554,0.164024,0.211505,-0.191539,-0.144328,0.119496,-0.014877,-0.020043,0.036769,0.086661,1.000000,-0.000722,0.000597,-0.000074,-0.960188,-0.164136,-0.150160,-0.168970,22.104427,13.467598,22.603249
52005,-2.207267,3.658385,8.680490,-0.001115,0.136692,-0.138597,-0.099082,0.121979,0.021326,-0.022024,0.036625,0.086800,1.000000,-0.000495,0.000610,0.000107,-0.960157,-0.163578,-0.150584,-0.169310,22.056251,13.519579,22.647662
52006,-2.006807,2.755027,9.037267,0.559259,-0.673777,-0.193807,-0.083133,0.176379,0.019331,-0.019991,0.027586,0.090379,1.000000,-0.000416,0.000882,0.000097,-0.960073,-0.163021,-0.151311,-0.169672,22.017504,13.604547,22.703259
52007,-3.398020,2.765668,9.877574,-0.391627,-1.398640,0.894897,-0.008227,0.078614,-0.024848,-0.033938,0.027665,0.098788,1.000000,-0.000041,0.000393,-0.000124,-0.960039,-0.162900,-0.151641,-0.169687,22.013172,13.643452,22.712810
52008,-2.194968,1.444369,9.320574,0.864418,-1.972923,-0.371420,0.013968,0.031747,-0.152156,-0.021924,0.014454,0.093210,1.000000,0.000070,0.000159,-0.000761,-0.960130,-0.162802,-0.151896,-0.169034,22.000453,13.688436,22.642679
52009,-3.015473,2.984585,9.800281,-0.126833,-1.033654,0.815662,0.091161,-0.064237,-0.252578,-0.030149,0.029839,0.098007,0.999999,0.000456,-0.000321,-0.001263,-0.960316,-0.163102,-0.151810,-0.167764,22.015757,13.700480,22.496144
52010,-2.104894,2.031647,8.737737,0.583592,-1.267069,-0.704440,0.119512,-0.061796,-0.312163,-0.021044,0.020297,0.087383,0.999999,0.000598,-0.000309,-0.001561,-0.960524,-0.163468,-0.151835,-0.166187,22.037806,13.730186,22.317843
52011,-2.738136,2.949821,9.437729,0.012760,-0.872833,0.410206,0.203970,-0.073843,-0.359523,-0.027363,0.029451,0.094397,0.999998,0.001020,-0.000369,-0.001798,-0.960709,-0.164234,-0.151884,-0.164309,22.102975,13.760394,22.110706
52012,-2.392862,2.840937,9.038545,0.220320,-0.744107,-0.071549,0.186025,-0.092671,-0.438245,-0.023908,0.028378,0.090401,0.999997,0.000930,-0.000463,-0.002191,-0.960982,-0.164848,-0.151918,-0.162048,22.144888,13.801213,21.856644
52013,-2.571908,3.540534,8.971113,-0.140414,-0.169654,0.166413,0.196449,-0.117856,-0.526135,-0.025679,0.035385,0.089731,0.999996,0.000982,-0.000589,-0.002631,-0.961331,-0.165483,-0.151884,-0.159338,22.181225,13.844486,21.548660
52014,-2.297614,3.727280,8.787989,0.005575,0.144911,0.004611,0.158388,-0.125982,-0.574568,-0.022924,0.037269,0.087895,0.999995,0.000792,-0.000630,-0.002873,-0.961748,-0.165885,-0.151847,-0.156413,22.187262,13.897384,21.212622
52015,-1.788478,4.389401,8.687675,0.277855,0.947645,0.034440,0.117438,-0.108873,-0.589486,-0.017803,0.043896,0.086893,0.999995,0.000587,-0.000544,-0.002947,-0.962190,-0.166082,-0.151845,-0.153463,22.169925,13.959265,20.871901
52016,-1.403630,5.389691,8.983742,0.501135,1.906138,0.572014,0.045463,-0.061460,-0.547319,-0.013916,0.053915,0.089845,0.999996,0.000227,-0.000307,-0.002737,-0.962614,-0.165909,-0.152005,-0.150806,22.117553,14.040289,20.564903
52017,-2.133852,5.645093,8.356345,-0.420753,2.071372,0.275982,-0.006829,0.000611,-0.373786,-0.021233,0.056494,0.083562,0.999998,-0.000034,0.000003,-0.001869,-0.962899,-0.165590,-0.152253,-0.149077,22.062998,14.113166,20.366254
52018,-2.451117,5.764703,8.489800,-0.677485,2.050115,0.514679,-0.051863,0.091061,-0.174460,-0.024422,0.057690,0.084894,0.999999,-0.000259,0.000455,-0.000872,-0.963002,-0.165117,-0.152765,-0.148414,22.012180,14.194484,20.296934
52019,-2.435731,5.937265,8.784787,-0.594706,2.146955,0.835940,-0.168168,0.127347,-0.027627,-0.024293,0.059450,0.087813,0.999999,-0.000841,0.000637,-0.000138,-0.963062,-0.164193,-0.153217,-0.148579,21.918589,14.260090,20.315799
52020,-2.067885,5.009845,8.556895,-0.117326,1.519684,0.200898,-0.273276,0.165294,0.041408,-0.020619,0.050211,0.085517,0.999999,-0.001366,0.000826,0.000207,-0.963127,-0.162764,-0.153743,-0.149186,21.773953,14.334635,20.380958
52021,-1.801728,3.892491,8.586947,0.402654,0.621635,-0.242697,-0.305619,0.209127,0.031541,-0.017934,0.039053,0.085829,0.999998,-0.001528,0.001046,0.000158,-0.963189,-0.161165,-0.154438,-0.149807,21.614478,14.431295,20.449927
52022,-1.829729,2.642746,8.941881,0.807774,-0.576524,-0.362595,-0.315400,0.255072,-0.082520,-0.018172,0.026576,0.089400,0.999998,-0.001577,0.001275,-0.000413,-0.963305,-0.159368,-0.155464,-0.149921,21.433636,14.580097,20.465978
52023,-1.840386,2.721156,9.582134,1.017698,-0.635830,0.245583,-0.320650,0.264142,-0.289072,-0.018238,0.027392,0.095802,0.999997,-0.001603,0.001321,-0.001445,-0.963567,-0.157406,-0.156667,-0.149052,21.223873,14.773266,20.369342
52024,-1.883167,3.317339,9.995284,1.002464,-0.163924,0.837412,-0.382490,0.257878,-0.486334,-0.018622,0.033410,0.099913,0.999994,-0.001912,0.001289,-0.002432,-0.964023,-0.154967,-0.157974,-0.147274,20.947152,15.006920,20.161464
52025,-1.287241,4.597258,9.439801,1.071706,1.400378,0.617632,-0.464675,0.260659,-0.553301,-0.012622,0.046227,0.094307,0.999993,-0.002323,0.001303,-0.002766,-0.964577,-0.152101,-0.159256,-0.145239,20.614963,15.250910,19.915324
52026,-1.078489,5.309205,9.526102,1.156696,2.168542,0.867026,-0.519669,0.391311,-0.468784,-0.010474,0.053364,0.095143,0.999992,-0.002598,0.001957,-0.002344,-0.964992,-0.148914,-0.161089,-0.143752,20.266952,15.550415,19.741699
52027,-0.859952,5.936994,9.811092,1.343200,2.824171,1.253663,-0.597224,0.456906,-0.289164,-0.008289,0.059675,0.097952,0.999992,-0.002986,0.002285,-0.001446,-0.965269,-0.145477,-0.163017,-0.143242,19.906538,15.844830,19.679565
52028,0.406001,5.889640,9.764043,2.509531,3.287692,0.821305,-0.662985,0.556868,-0.056968,0.004348,0.059218,0.097433,0.999991,-0.003315,0.002784,-0.000285,-0.965328,-0.141808,-0.165238,-0.143975,19.546323,16.151873,19.765919
52029,1.975189,6.568559,11.013622,4.233993,4.233522,1.698037,-0.694016,0.609858,0.224135,0.020013,0.066089,0.109847,0.999989,-0.003470,0.003049,0.001121,-0.965144,-0.138215,-0.167456,-0.146126,19.218753,16.430019,20.019139
52030,3.128475,5.330972,11.092887,5.587396,3.571728,1.016955,-0.823286,0.550689,0.515806,0.031451,0.053846,0.110622,0.999984,-0.004116,0.002753,0.002579,-0.964858,-0.134248,-0.169122,-0.149747,18.858149,16.627640,20.424265
52031,4.009678,5.451307,11.679385,6.538146,3.968311,1.309651,-0.607709,0.431145,0.669631,0.040165,0.055002,0.116541,0.999987,-0.003039,0.002156,0.003348,-0.964388,-0.131576,-0.170220,-0.153845,18.643772,16.728172,20.892609
52032,5.097453,5.952683,11.629753,7.318426,4.911467,1.095412,-0.581560,0.165146,0.716415,0.050856,0.060047,0.116081,0.999989,-0.002908,0.000826,0.003582,-0.964067,-0.129231,-0.170065,-0.157965,18.434079,16.683189,21.336743
52033,6.020815,5.083867,11.271154,8.169066,4.595393,0.251239,-0.484310,0.005195,0.709365,0.060030,0.051325,0.112586,0.999991,-0.002422,0.000026,0.003547,-0.963807,-0.127518,-0.169158,-0.161866,18.273389,16.546315,21.746350
52034,4.867780,5.385418,11.678722,7.136027,4.446262,1.068381,-0.304992,-0.248679,0.712298,0.048340,0.054205,0.116765,0.999992,-0.001525,-0.001243,0.003561,-0.963625,-0.126829,-0.167227,-0.165460,18.197345,16.279127,22.110369
52035,5.190328,5.035543,10.872787,7.139573,4.426441,0.184608,-0.238704,-0.473966,0.649024,0.051481,0.050653,0.108790,0.999991,-0.001194,-0.002370,0.003245,-0.963629,-0.126642,-0.164228,-0.168553,18.139546,15.891612,22.395806
52036,3.492554,4.777855,10.531060,5.493904,3.638945,0.311707,-0.054329,-0.604968,0.588260,0.034466,0.047909,0.105402,0.999991,-0.000272,-0.003025,0.002941,-0.963653,-0.127350,-0.160863,-0.171111,18.165554,15.453092,22.622682
52037,2.608683,5.093671,9.934480,4.318914,3.689249,0.146236,0.031079,-0.713316,0.565108,0.025588,0.050994,0.099445,0.999990,0.000155,-0.003567,0.002826,-0.963715,-0.128597,-0.156974,-0.173421,18.233807,14.948657,22.814751
52038,0.856892,4.997173,10.060818,2.744834,2.879370,0.727722,0.181049,-0.726834,0.644268,0.008042,0.049907,0.100683,0.999988,0.000905,-0.003634,0.003221,-0.963595,-0.130581,-0.153181,-0.175978,18.392573,14.433155,23.048116
52039,-0.603917,5.501690,10.345406,1.291396,2.660861,1.541229,0.194713,-0.848661,0.732844,-0.006680,0.054892,0.103480,0.999984,0.000974,-0.004243,0.003664,-0.963459,-0.132862,-0.148658,-0.178871,18.567221,13.822910,23.305238
52040,-0.486974,4.372452,10.084252,1.548354,1.671456,0.950915,0.186302,-0.893038,0.764524,-0.005487,0.043610,0.100860,0.999982,0.000932,-0.004465,0.003823,-0.963294,-0.135101,-0.143980,-0.181882,18.731684,13.193831,23.570104
52041,-1.173087,4.406126,10.211286,0.858625,1.332252,1.257397,0.224748,-0.976352,0.752873,-0.012395,0.043901,0.102103,0.999980,0.001124,-0.004882,0.003764,-0.963142,-0.137650,-0.138843,-0.184751,18.914059,12.508757,23.808960
52042,-0.548800,3.683390,9.836465,1.420468,0.935311,0.566653,0.239891,-0.979917,0.746010,-0.006107,0.036694,0.098380,0.999980,0.001199,-0.004900,0.003730,-0.962945,-0.140202,-0.133797,-0.187561,19.096402,11.834481,24.041577
52043,-0.814299,4.016472,10.249813,1.096681,0.952597,1.129982,0.299110,-1.019425,0.757216,-0.008817,0.039979,0.102514,0.999979,0.001496,-0.005097,0.003786,-0.962685,-0.143141,-0.128505,-0.190355,19.313399,11.123494,24.268589
52044,-0.202992,3.543608,10.026872,1.623859,0.746121,0.672605,0.276575,-1.048080,0.784831,-0.002694,0.035288,0.100305,0.999978,0.001383,-0.005240,0.003924,-0.962387,-0.145947,-0.123126,-0.193263,19.511551,10.403392,24.503305
52045,-0.320101,3.885860,10.369788,1.391983,0.833624,1.146353,0.294727,-1.042689,0.850580,-0.003907,0.038690,0.103736,0.999976,0.001474,-0.005213,0.004253,-0.961966,-0.148931,-0.117636,-0.196476,19.727290,9.660028,24.770566
52046,-0.372269,3.668454,10.367169,1.301942,0.535831,1.100166,0.211567,-1.060075,0.942978,-0.004445,0.036555,0.103688,0.999974,0.001058,-0.005300,0.004715,-0.961476,-0.151516,-0.112007,-0.200154,19.894771,8.901163,25.083148
52047,-0.855552,2.925895,10.092638,0.934755,-0.331702,0.683442,0.189680,-1.058935,1.044140,-0.009242,0.029116,0.100906,0.999972,0.000948,-0.005295,0.005221,-0.960849,-0.154105,-0.106175,-0.204325,20.057332,8.109279,25.446665
52048,-1.776000,2.464949,10.026935,0.146675,-1.190573,0.595431,0.170138,-1.079625,1.093115,-0.018435,0.024465,0.100192,0.999970,0.000851,-0.005398,0.005466,-0.960140,-0.156576,-0.100283,-0.208709,20.202264,7.308586,25.831318
52049,-1.768695,1.349214,9.312665,0.274580,-2.047564,-0.463611,0.143390,-1.098538,1.072342,-0.018270,0.013328,0.093037,0.999970,0.000717,-0.005493,0.005362,-0.959424,-0.158976,-0.094179,-0.212984,20.327982,6.488041,26.196740
52050,-2.641899,1.070087,9.132392,-0.533778,-2.699293,-0.650099,0.215810,-1.052703,1.001110,-0.026952,0.010468,0.091194,0.999973,0.001079,-0.005263,0.005006,-0.958650,-0.161575,-0.088526,-0.216902,20.483121,5.718361,26.531930
52051,-2.983860,0.446299,8.719956,-0.777617,-3.346818,-1.249195,0.150737,-1.042687,0.888209,-0.030312,0.004263,0.087046,0.999976,0.000754,-0.005213,0.004441,-0.957996,-0.163844,-0.082835,-0.220310,20.593854,4.963393,26.804440
52052,-3.437232,0.004339,8.516687,-1.125606,-3.933720,-1.590365,0.160830,-0.995315,0.709909,-0.034795,-0.000148,0.084994,0.999981,0.000804,-0.004977,0.003550,-0.957470,-0.165976,-0.077627,-0.222884,20.696855,4.281922,26.990575
52053,-3.917715,0.176046,8.920960,-1.605709,-4.179970,-1.157534,0.126332,-1.007005,0.500153,-0.039630,0.001605,0.089012,0.999984,0.000632,-0.005035,0.002501,-0.957175,-0.167913,-0.072398,-0.224454,20.772197,3.624484,27.058893
52054,-4.088779,0.283598,8.579144,-1.954934,-4.117614,-1.468655,0.048329,-1.053797,0.304662,-0.041343,0.002753,0.085575,0.999985,0.000242,-0.005269,0.001523,-0.957153,-0.169408,-0.067116,-0.225066,20.793131,2.993631,27.013744
52055,-4.166825,0.196682,7.278163,-2.332290,-3.878812,-2.749582,0.012278,-0.959934,0.156409,-0.042018,0.001930,0.072581,0.999988,0.000061,-0.004800,0.000782,-0.957269,-0.170609,-0.062276,-0.225058,20.792687,2.432092,26.906710
52056,-5.921355,0.507169,7.123434,-4.115772,-4.384670,-2.748862,-0.069248,-0.772407,0.121404,-0.059491,0.005060,0.071003,0.999992,-0.000346,-0.003862,0.000607,-0.957417,-0.171156,-0.058361,-0.225059,20.745543,1.989208,26.820716
52057,-7.452326,0.854241,6.198207,-5.848382,-4.516553,-3.481689,-0.231852,-0.577427,0.284607,-0.074714,0.008508,0.061757,0.999994,-0.001159,-0.002887,0.001423,-0.957450,-0.170782,-0.054973,-0.226057,20.611065,1.607665,26.861208
52058,-8.531218,-0.135845,5.372576,-6.575695,-5.594649,-4.604539,-0.601977,-0.222692,0.495817,-0.085368,-0.001409,0.053635,0.999992,-0.003010,-0.001113,0.002479,-0.957449,-0.168259,-0.052767,-0.228462,20.267951,1.384513,27.088911
52059,-10.885774,-1.179606,5.713072,-8.169488,-7.651288,-4.592733,-0.923504,0.102061,0.533541,-0.108797,-0.011822,0.057241,0.999986,-0.004617,0.000510,0.002668,-0.957567,-0.163856,-0.051646,-0.231405,19.742845,1.322249,27.401280
52060,-12.547356,-2.553917,6.251397,-8.940795,-9.718476,-4.460001,-1.324968,0.375525,0.396295,-0.125305,-0.025372,0.062918,0.999974,-0.006625,0.001878,0.001981,-0.958065,-0.157149,-0.051550,-0.234005,18.986587,1.445676,27.692990
52061,-12.976489,-3.202748,5.323457,-9.175738,-10.176194,-5.426892,-1.652135,0.539121,0.128809,-0.129600,-0.031668,0.053847,0.999962,-0.008261,0.002696,0.000644,-0.959029,-0.148615,-0.052012,-0.235524,18.040528,1.705182,27.866660
52062,-10.979674,-2.076182,5.892900,-7.791936,-8.378515,-4.457869,-1.680760,0.720371,-0.084029,-0.109592,-0.020217,0.059495,0.999958,-0.008404,0.003602,-0.000420,-0.960141,-0.139652,-0.053512,-0.236143,17.076193,2.109136,27.951519
52063,-8.025626,-0.549554,5.123597,-5.978098,-5.429342,-4.738514,-1.556228,0.753452,-0.198305,-0.080068,-0.005016,0.051578,0.999962,-0.007781,0.003767,-0.000992,-0.961216,-0.131204,-0.055365,-0.236186,16.180233,2.548067,27.972283
52064,-6.563359,0.359522,6.040639,-4.926532,-4.084792,-3.588642,-1.291203,0.833889,-0.334732,-0.065374,0.004096,0.060654,0.999969,-0.006456,0.004169,-0.001674,-0.962189,-0.123890,-0.058032,-0.235535,15.433920,3.056134,27.924161
52065,-3.594393,0.271489,6.867537,-2.118034,-2.864334,-2.923166,-0.443723,0.518950,-0.835817,-0.035753,0.003017,0.068762,0.999985,-0.002219,0.002595,-0.004179,-0.963276,-0.120865,-0.060472,-0.232023,15.152714,3.463682,27.546412
52066,13.875544,5.345688,12.312701,12.261737,8.285891,2.584046,1.541252,-0.153727,-2.389297,0.139278,0.050844,0.123632,0.999899,0.007706,-0.000769,-0.011946,-0.965057,-0.127705,-0.062925,-0.219994,15.947545,3.741972,26.207650
52067,26.504552,27.701589,27.762785,18.351200,29.103579,22.689460,3.236728,0.928059,-3.703504,0.271356,0.267503,0.280759,0.999687,0.016182,0.004640,-0.018516,-0.966465,-0.141065,-0.073247,-0.201695,17.656225,4.857459,24.330947
52068,-21.810557,12.535785,9.905845,-22.473014,-0.158645,5.217244,-2.419880,0.878933,-0.410188,-0.217413,0.126998,0.098485,0.999915,-0.012099,0.004395,-0.002051,-0.968175,-0.128296,-0.075304,-0.201262,16.259139,5.403675,24.258981
52069,-6.593626,-11.915745,-1.632410,-1.941593,-12.897233,-14.057259,0.315157,0.754611,-0.646102,-0.066382,-0.118918,-0.016262,0.999986,0.001576,0.003773,-0.003230,-0.968319,-0.128814,-0.079625,-0.198557,16.414874,5.914941,24.029997
52070,-6.315727,4.485021,15.765236,-4.030934,-2.015719,7.164689,0.664819,0.957085,-0.544575,-0.062280,0.044496,0.158100,0.999979,0.003324,0.004785,-0.002723,-0.968025,-0.130836,-0.085236,-0.196329,16.776804,6.525610,23.893063
52071,6.332459,0.829399,9.353297,7.519566,1.202740,-1.429339,0.465989,0.571015,-0.790060,0.063623,0.007825,0.093370,0.999985,0.002330,0.002855,-0.003950,-0.968232,-0.132177,-0.088920,-0.192739,17.001069,6.963596,23.558621
52072,1.253874,7.744742,7.463552,0.171071,5.738659,-0.631479,0.624817,0.993076,-0.732457,0.013193,0.077166,0.074812,0.999976,0.003124,0.004965,-0.003662,-0.968056,-0.133890,-0.094779,-0.189628,17.325876,7.627055,23.329930
52073,-4.142635,6.404708,8.176714,-3.976693,2.269730,0.388923,0.427670,1.162818,-0.412469,-0.040818,0.063956,0.082142,0.999979,0.002138,0.005814,-0.002062,-0.967584,-0.134649,-0.101026,-0.188266,17.565067,8.325868,23.309862
52074,-5.097453,6.088816,10.675049,-3.988197,1.065999,2.835262,0.331409,1.064015,-0.078066,-0.050382,0.060731,0.107120,0.999984,0.001657,0.005320,-0.000390,-0.966877,-0.135184,-0.106504,-0.188496,17.773333,8.916229,23.460171
52075,-4.934936,4.303642,11.212844,-2.985413,-0.581074,2.810764,0.197481,0.827335,0.069520,-0.048900,0.042908,0.112374,0.999991,0.000987,0.004137,0.000348,-0.966224,-0.135389,-0.110588,-0.189346,17.914443,9.348222,23.651626
52076,-4.078413,4.629651,10.556270,-2.410414,0.190229,2.172941,0.179765,0.597999,0.146215,-0.040502,0.046172,0.105726,0.999995,0.000899,0.002990,0.000731,-0.965623,-0.135747,-0.113515,-0.190419,18.045344,9.644133,23.845906
52077,-2.895060,5.168952,9.955257,-1.633797,1.267257,1.586049,0.093982,0.490455,0.257827,-0.028773,0.051606,0.099648,0.999996,0.000470,0.002452,0.001289,-0.965026,-0.135875,-0.115748,-0.192004,18.137062,9.858873,24.082910
52078,-2.172469,4.738126,9.561319,-0.912979,1.262231,0.965135,-0.069866,0.452720,0.351299,-0.021591,0.047377,0.095646,0.999996,-0.000349,0.002264,0.001756,-0.964465,-0.135282,-0.117594,-0.194108,18.141677,10.038566,24.365347
52079,-2.820775,3.449256,9.925762,-0.925914,-0.214316,1.025743,-0.128732,0.418916,0.374915,-0.028064,0.034504,0.099294,0.999996,-0.000644,0.002095,0.001875,-0.963932,-0.134473,-0.119187,-0.196335,18.116767,10.193459,24.654579
52080,-2.999114,1.669293,10.161985,-0.379087,-1.899649,0.736944,-0.202187,0.302454,0.270768,-0.029860,0.016755,0.101648,0.999997,-0.001011,0.001512,0.001354,-0.963614,-0.133338,-0.120231,-0.198026,18.034277,10.305930,24.865356
52081,-1.974342,1.311638,9.711855,0.549484,-1.681915,0.026405,-0.095307,0.205659,0.131768,-0.019652,0.013150,0.097133,0.999999,-0.000477,0.001028,0.000659,-0.963416,-0.132752,-0.120994,-0.198916,17.998379,10.388498,24.981425
52082,-1.123602,1.911886,9.289105,0.990836,-0.697454,-0.339724,-0.041065,0.208633,0.060345,-0.011145,0.019135,0.092899,0.999999,-0.000205,0.001043,0.000302,-0.963251,-0.132359,-0.121885,-0.199432,17.984696,10.487386,25.058680
52083,-0.994893,2.750133,8.986611,0.739449,0.169055,-0.392664,0.006519,0.225022,0.032202,-0.009852,0.027497,0.089878,0.999999,0.000033,0.001125,0.000161,-0.963071,-0.132180,-0.122907,-0.199793,17.997756,10.598148,25.123093
52084,-0.677371,2.482659,8.630829,1.033989,0.147225,-0.867143,-0.002415,0.310720,-0.027549,-0.006636,0.024829,0.086318,0.999999,-0.000012,0.001554,-0.000138,-0.962902,-0.131817,-0.124387,-0.199929,18.000932,10.768216,25.170076
52085,-1.267359,2.827220,8.995219,0.522384,0.144026,-0.314287,0.010764,0.360568,-0.105357,-0.012496,0.028274,0.089976,0.999998,0.000054,0.001803,-0.000527,-0.962769,-0.131437,-0.126154,-0.199715,18.006954,10.977020,25.182698
52086,-1.086120,3.510182,8.605055,0.360564,0.918749,-0.508183,0.003400,0.378713,-0.125823,-0.010676,0.035107,0.086071,0.999998,0.000017,0.001894,-0.000629,-0.962646,-0.130972,-0.128031,-0.199418,18.005670,11.201537,25.187471
52087,-1.549222,3.945078,8.811586,-0.105540,1.083686,-0.095583,0.032803,0.446977,-0.049690,-0.015285,0.039440,0.088157,0.999997,0.000164,0.002235,-0.000248,-0.962380,-0.130647,-0.130198,-0.199512,18.033624,11.447443,25.246726
52088,-1.729864,3.352408,8.927621,0.015095,0.474969,-0.132423,-0.012575,0.467392,0.018099,-0.017093,0.033528,0.089314,0.999997,-0.000063,0.002337,0.000090,-0.962058,-0.130109,-0.132390,-0.199974,18.042529,11.694735,25.347727
52089,-1.829164,2.178754,9.382272,0.518656,-0.680857,-0.046057,0.028103,0.500170,0.001693,-0.018057,0.021774,0.093871,0.999997,0.000141,0.002501,0.000008,-0.961698,-0.129741,-0.134774,-0.200351,18.076333,11.960406,25.445524
52090,-2.267994,2.268436,9.414913,0.153646,-0.777146,0.102071,0.045229,0.456571,-0.077254,-0.022456,0.022672,0.094206,0.999997,0.000226,0.002283,-0.000386,-0.961430,-0.129426,-0.137032,-0.200307,18.107806,12.218678,25.491877
52091,-2.188121,2.735392,9.402434,0.100759,-0.314928,0.215597,0.098750,0.440233,-0.132834,-0.021656,0.027322,0.094086,0.999997,0.000494,0.002201,-0.000664,-0.961190,-0.129364,-0.139284,-0.199948,18.164515,12.475598,25.504323
52092,-2.203884,3.564888,9.383649,-0.164135,0.429569,0.454093,0.075242,0.408355,-0.157249,-0.021819,0.035631,0.093895,0.999998,0.000376,0.002042,-0.000786,-0.961006,-0.129185,-0.141390,-0.199466,18.202038,12.721854,25.497734
52093,-2.504852,4.062611,8.942224,-0.703832,0.841970,0.263920,0.053447,0.397620,-0.111646,-0.024848,0.040616,0.089483,0.999998,0.000267,0.001988,-0.000558,-0.960795,-0.128962,-0.143377,-0.199211,18.233874,12.951793,25.514598
52094,-1.803621,4.501299,8.799264,-0.248133,1.565660,0.108441,0.019911,0.430663,-0.001478,-0.017846,0.045004,0.088036,0.999998,0.000100,0.002153,-0.000007,-0.960467,-0.128605,-0.145434,-0.199530,18.260306,13.182249,25.599402
52095,-2.501819,4.038154,9.135269,-0.553584,0.809775,0.437024,-0.011522,0.473671,0.113379,-0.024825,0.040373,0.091409,0.999997,-0.000058,0.002368,0.000567,-0.960009,-0.128157,-0.147576,-0.200450,18.287532,13.413120,25.756386
52096,-2.870570,3.076402,9.392408,-0.420152,-0.234329,0.467886,-0.039697,0.450673,0.164597,-0.028519,0.030759,0.093982,0.999997,-0.000198,0.002253,0.000823,-0.959529,-0.127614,-0.149561,-0.201620,18.303132,13.624522,25.938168
52097,-3.130028,2.087144,9.987262,-0.064558,-1.319647,0.777538,-0.008656,0.393572,0.119040,-0.031116,0.020857,0.099933,0.999998,-0.000043,0.001968,0.000595,-0.959112,-0.127263,-0.151317,-0.202511,18.330532,13.810768,26.083951
52098,-3.389830,1.630379,10.214154,-0.021716,-1.864300,0.911204,-0.017619,0.287561,-0.027372,-0.033749,0.016317,0.102189,0.999999,-0.000088,0.001438,-0.000137,-0.958927,-0.126845,-0.152663,-0.202639,18.326937,13.967940,26.128318
52099,-3.490714,2.028783,10.124552,-0.257650,-1.527107,0.976618,0.034411,0.154830,-0.180104,-0.034810,0.020302,0.101276,0.999999,0.000172,0.000774,-0.000901,-0.958964,-0.126712,-0.153508,-0.201910,18.328124,14.078375,26.062310
52100,-3.062615,1.615155,9.949830,0.209908,-1.665895,0.587705,-0.043927,0.059051,-0.341772,-0.030569,0.016226,0.099504,0.999998,-0.000220,0.000295,-0.001709,-0.959285,-0.126157,-0.153931,-0.200406,18.256243,14.167802,25.887879
52101,-3.367815,0.882535,9.729097,0.121897,-2.392201,0.239122,0.059985,-0.011693,-0.458612,-0.033664,0.008873,0.097292,0.999997,0.000300,-0.000058,-0.002293,-0.959708,-0.126096,-0.154179,-0.198215,18.225606,14.237648,25.634516
52102,-2.803400,0.319382,9.733975,0.803943,-2.652440,-0.064377,0.144993,-0.099722,-0.615072,-0.028073,0.003210,0.097328,0.999995,0.000725,-0.000499,-0.003075,-0.960293,-0.126395,-0.154199,-0.195151,18.216456,14.289419,25.277044
52103,-2.483094,-0.040393,9.732208,1.194887,-2.846045,-0.254679,0.275687,-0.126591,-0.789480,-0.024894,-0.000440,0.097306,0.999991,0.001378,-0.000633,-0.003947,-0.960974,-0.127220,-0.154313,-0.191130,18.257112,14.356216,24.816458
52104,-2.860801,0.342140,9.745673,0.729865,-2.671738,-0.034729,0.379059,-0.203486,-1.006260,-0.028690,0.003381,0.097434,0.999985,0.001895,-0.001017,-0.005031,-0.961833,-0.128436,-0.154303,-0.185934,18.321894,14.422291,24.219885
52105,-2.886651,-0.143535,9.427322,0.732333,-3.070741,-0.471278,0.437166,-0.255252,-1.253464,-0.028996,-0.001460,0.094233,0.999977,0.002186,-0.001276,-0.006267,-0.962890,-0.129789,-0.154238,-0.179465,18.382287,14.503800,23.474603
52106,-2.994388,0.223028,9.209203,0.424368,-2.749841,-0.534555,0.521634,-0.318713,-1.592341,-0.030073,0.002229,0.092050,0.999964,0.002608,-0.001594,-0.007962,-0.964188,-0.131331,-0.154168,-0.171247,18.438803,14.614509,22.526993
52107,-2.417242,2.299950,8.598681,0.122587,-0.534028,-0.605629,0.559021,-0.350967,-1.834802,-0.024112,0.022981,0.086009,0.999952,0.002795,-0.001755,-0.009174,-0.965616,-0.132884,-0.154108,-0.161798,18.478200,14.750937,21.436575
52108,-1.980889,3.736863,8.208470,0.022885,1.017905,-0.634988,0.490975,-0.270533,-1.902954,-0.019565,0.037354,0.082150,0.999951,0.002455,-0.001353,-0.009515,-0.966988,-0.133978,-0.154425,-0.152108,18.469806,14.945241,20.322259
52109,-2.280641,4.303567,8.498013,-0.239183,1.395544,-0.120779,0.405144,-0.190855,-1.907463,-0.022477,0.043079,0.085046,0.999952,0.002026,-0.000954,-0.009537,-0.968269,-0.134580,-0.155036,-0.142503,18.410808,15.181504,19.219037
52110,-2.212943,4.283006,8.426721,-0.135708,1.445912,-0.213658,0.269885,-0.140150,-1.900592,-0.021781,0.042924,0.084310,0.999954,0.001349,-0.000701,-0.009503,-0.969505,-0.134484,-0.155791,-0.133055,18.273034,15.443810,18.127527
52111,-3.109303,3.934460,8.763117,-0.710144,0.826363,0.224855,0.211875,-0.075403,-1.886609,-0.030754,0.039543,0.087661,0.999955,0.001059,-0.000377,-0.009433,-0.970634,-0.134066,-0.156785,-0.123754,18.101789,15.734440,17.053694
52112,-3.408101,3.874785,9.008785,-0.838233,0.696206,0.512007,0.077161,-0.085585,-1.915262,-0.033747,0.039037,0.090088,0.999954,0.000386,-0.000428,-0.009576,-0.971790,-0.132963,-0.157664,-0.114399,17.842379,16.022277,15.959151
52113,-3.473737,3.113110,9.397279,-0.588187,-0.046505,0.661968,-0.004238,-0.081472,-1.967929,-0.034467,0.031473,0.093958,0.999952,-0.000021,-0.000407,-0.009839,-0.972938,-0.131413,-0.158525,-0.104847,17.522349,16.314750,14.832298
52114,-3.294121,2.599756,9.346176,-0.325037,-0.389650,0.419748,-0.148698,-0.123349,-2.143753,-0.032717,0.026419,0.093422,0.999942,-0.000743,-0.000617,-0.010719,-0.974202,-0.129024,-0.159217,-0.094513,17.082095,16.608541,13.594041
52115,-2.742213,1.426206,9.244183,0.339341,-1.265198,-0.153902,-0.230129,-0.104670,-2.417045,-0.027295,0.014699,0.092411,0.999926,-0.001151,-0.000523,-0.012085,-0.975508,-0.126000,-0.160107,-0.082914,16.543424,16.946399,12.197844
52116,-3.857974,0.475620,12.618112,0.534934,-3.034211,3.026048,-0.150741,-0.065161,-2.632381,-0.038553,0.005359,0.126165,0.999913,-0.000754,-0.000326,-0.013162,-0.976664,-0.123150,-0.161343,-0.070212,16.005135,17.329309,10.678395
52117,-5.472989,6.881917,9.809456,-2.485437,3.628385,2.604655,-0.597588,-0.414398,-3.022714,-0.053881,0.069930,0.097774,0.999879,-0.002988,-0.002072,-0.015113,-0.978315,-0.117901,-0.160913,-0.055736,15.116205,17.560034,8.869426
52118,0.314979,10.317151,4.931112,1.309068,9.004380,-2.880288,-0.715108,-0.069151,-2.943352,0.004652,0.103286,0.048943,0.999885,-0.003575,-0.000346,-0.014716,-0.979504,-0.112016,-0.162066,-0.041932,14.178750,17.944418,7.152444
52119,1.838111,18.124483,7.250680,3.457376,16.378695,0.395868,-0.806931,0.332387,-2.302684,0.020588,0.181307,0.071742,0.999924,-0.004035,0.001662,-0.011513,-0.980101,-0.106109,-0.164766,-0.031557,13.309495,18.437921,5.858013
52120,7.203487,20.352631,8.338151,9.106995,18.944777,-0.128294,-1.068545,0.820868,-1.262045,0.073658,0.203505,0.081994,0.999957,-0.005343,0.004104,-0.006310,-0.980154,-0.099674,-0.169257,-0.026752,12.491736,19.054253,5.231450
52121,7.002425,21.322640,10.223761,9.649490,19.654524,1.535875,-1.141244,1.147068,-0.114655,0.070727,0.213763,0.100615,0.999967,-0.005706,0.005735,-0.000573,-0.979740,-0.093847,-0.174730,-0.027792,11.867294,19.704201,5.317861
52122,8.120998,16.758638,12.221151,11.436230,15.132284,1.865390,-0.890575,1.171055,1.056930,0.081032,0.168555,0.120988,0.999959,-0.004453,0.005855,0.005285,-0.978952,-0.090217,-0.179816,-0.034362,11.620330,20.234441,6.100989
52123,9.834149,17.659742,10.459097,12.188546,16.676837,-0.258369,-0.049874,1.026085,1.760114,0.097317,0.177483,0.104046,0.999948,-0.000249,0.005130,0.008800,-0.977703,-0.091425,-0.183959,-0.043550,12.010747,20.594496,7.290754
52124,5.727386,13.731349,13.226073,9.370160,12.090818,2.926463,-0.731969,1.202964,2.185693,0.056557,0.138416,0.131414,0.999915,-0.003660,0.006015,0.010928,-0.976376,-0.089565,-0.188641,-0.055520,12.109593,21.003432,8.761865
52125,5.276739,8.313191,12.084151,8.756790,7.103906,0.949705,-0.509566,0.843877,2.226520,0.052344,0.084023,0.120407,0.999926,-0.002548,0.004219,0.011132,-0.975124,-0.089011,-0.191518,-0.067312,12.347440,21.193866,10.216386
52126,3.782524,5.865915,12.690603,7.765009,4.549011,1.535290,-0.602111,0.854891,2.094166,0.037747,0.059436,0.126566,0.999932,-0.003010,0.004274,0.010471,-0.973804,-0.087764,-0.194513,-0.078541,12.498860,21.410589,11.594214
52127,3.228979,3.607364,12.335909,7.345648,2.441983,0.943276,-0.517139,0.625964,1.946747,0.032320,0.036707,0.123164,0.999944,-0.002586,0.003130,0.009734,-0.972611,-0.086971,-0.196385,-0.088863,12.670757,21.503390,12.856248
52128,2.711381,2.277703,13.092609,7.348769,1.067665,1.536785,-0.440419,0.559545,1.842783,0.027267,0.023316,0.130799,0.999951,-0.002202,0.002798,0.009214,-0.971387,-0.086364,-0.198074,-0.098562,12.851291,21.579305,14.046476
52129,2.139251,1.436547,12.936050,6.898635,0.252809,1.426775,-0.498153,0.339359,1.608438,0.021494,0.014860,0.129287,0.999963,-0.002491,0.001697,0.008042,-0.970448,-0.085449,-0.198653,-0.107083,12.947030,21.547039,15.067248
52130,3.476194,1.186641,12.371194,7.904418,0.503205,0.375773,-0.363941,0.181938,1.373967,0.034791,0.012330,0.123658,0.999974,-0.001820,0.000910,0.006870,-0.969661,-0.084927,-0.198723,-0.114252,13.048429,21.467980,15.923904
52131,4.978009,1.811093,11.764145,8.853942,1.646625,-0.574113,-0.334983,-0.027581,1.161884,0.049657,0.018597,0.117617,0.999982,-0.001675,-0.000138,0.005809,-0.969161,-0.084551,-0.197766,-0.120278,13.116990,21.284192,16.624291
52132,6.798723,2.494195,11.593640,10.223886,2.890293,-1.211899,-0.227302,-0.153230,1.032856,0.067768,0.025424,0.115960,0.999986,-0.001137,-0.000766,0.005164,-0.968772,-0.084541,-0.196420,-0.125508,13.200571,21.060391,17.227781
52133,6.218416,3.014214,12.671361,9.956906,3.157545,0.147553,0.023169,-0.470253,1.088975,0.061721,0.030464,0.126863,0.999982,0.000116,-0.002351,0.005445,-0.968537,-0.086095,-0.193541,-0.130634,13.428838,20.634756,17.818651
52134,6.720571,2.907424,12.823755,10.384646,3.201708,0.185991,0.146153,-0.907394,1.148083,0.066455,0.029363,0.128562,0.999973,0.000731,-0.004537,0.005740,-0.968574,-0.088483,-0.188716,-0.135724,13.702289,19.971426,18.377335
52135,4.795212,2.078325,12.806803,8.714270,1.823101,0.773254,0.321661,-1.273993,1.178468,0.047012,0.020856,0.128403,0.999961,0.001608,-0.006370,0.005892,-0.968810,-0.092093,-0.182065,-0.140635,14.063606,19.078844,18.894057
52136,2.718336,2.312341,12.516813,6.527852,1.375749,1.363038,0.371721,-1.593717,1.176018,0.026049,0.023046,0.125422,0.999949,0.001859,-0.007968,0.005880,-0.969211,-0.096059,-0.174027,-0.145318,14.418399,18.024297,19.352784
52137,-0.891662,1.955184,11.911925,2.960943,-0.134305,1.922781,0.504596,-1.838883,1.208811,-0.010128,0.019193,0.119079,0.999936,0.002523,-0.009194,0.006044,-0.969640,-0.100962,-0.164706,-0.149921,14.839943,16.806406,19.782696
52138,-1.824350,2.589941,10.731456,1.338073,0.186638,1.294496,0.469761,-1.972991,1.215448,-0.019457,0.025532,0.107187,0.999930,0.002349,-0.009865,0.006077,-0.970046,-0.105690,-0.154839,-0.154485,15.216828,15.530249,20.184413
52139,-4.249712,2.419931,9.934527,-1.281764,-0.805590,1.156071,0.491370,-1.929790,1.248066,-0.043602,0.023686,0.098987,0.999931,0.002457,-0.009649,0.006240,-0.970257,-0.110595,-0.145000,-0.159203,15.608285,14.250358,20.599562
52140,-5.298275,2.644919,9.387702,-2.661340,-1.021521,0.914131,0.454386,-1.890797,1.275631,-0.054034,0.025894,0.093429,0.999932,0.002272,-0.009454,0.006378,-0.970291,-0.115198,-0.135444,-0.164069,15.965084,13.005143,21.026479
52141,-6.328279,1.454205,8.965020,-3.560153,-2.558733,0.351311,0.428189,-1.778952,1.259398,-0.064166,0.013949,0.089112,0.999938,0.002141,-0.008895,0.006297,-0.970160,-0.119648,-0.126245,-0.168928,16.304540,11.802039,21.451611
52142,-6.689096,0.743166,9.417468,-3.702415,-3.572316,0.556073,0.449583,-1.698912,1.100304,-0.067727,0.006850,0.093618,0.999946,0.002248,-0.008494,0.005501,-0.969977,-0.123928,-0.117688,-0.173019,16.624588,10.685909,21.793131
52143,-7.457896,0.168635,9.760205,-4.286039,-4.584897,0.747352,0.435965,-1.644371,0.878029,-0.075384,0.001145,0.096987,0.999954,0.002180,-0.008222,0.004390,-0.969870,-0.128035,-0.109361,-0.176065,16.914997,9.616168,22.011425
52144,-7.480514,0.874503,10.268179,-4.550007,-4.191314,1.317639,0.463701,-1.638784,0.674782,-0.075672,0.008254,0.102084,0.999958,0.002318,-0.008194,0.003374,-0.969830,-0.132065,-0.101354,-0.178090,17.192649,8.601092,22.113198
52145,-8.300743,1.347753,10.490864,-5.567245,-4.254223,1.662447,0.576733,-1.754679,0.578845,-0.083962,0.012934,0.104213,0.999953,0.002884,-0.008773,0.002894,-0.969774,-0.136762,-0.092802,-0.179507,17.527596,7.521315,22.134872
52146,-6.625037,1.457569,9.452213,-4.471569,-3.415027,0.370547,0.572104,-1.846958,0.420605,-0.067150,0.014166,0.093946,0.999951,0.002860,-0.009235,0.002103,-0.969810,-0.141356,-0.084036,-0.180071,17.840763,6.435796,22.048569
52147,-7.295219,0.561174,9.188900,-5.014255,-4.513792,-0.197605,0.712784,-1.780677,0.232648,-0.073773,0.005200,0.091254,0.999953,0.003564,-0.008903,0.001163,-0.969793,-0.146551,-0.075715,-0.179700,18.231094,5.404474,21.863210
52148,-7.813787,1.116017,9.223661,-5.818466,-4.321670,-0.074047,0.758455,-1.760058,0.154154,-0.078954,0.010751,0.091585,0.999954,0.003792,-0.008800,0.000771,-0.969715,-0.151834,-0.067713,-0.178923,18.641847,4.415689,21.633377
52149,-8.896971,1.431058,8.404789,-7.215670,-4.312314,-0.802743,0.675706,-1.562346,0.267506,-0.089642,0.013908,0.083397,0.999963,0.003378,-0.007812,0.001338,-0.969447,-0.156629,-0.060389,-0.178865,19.019990,3.500471,21.493868
52150,-10.799062,1.522771,7.896941,-9.205594,-4.873085,-1.279977,0.498987,-1.253005,0.579370,-0.108526,0.014718,0.078328,0.999973,0.002495,-0.006265,0.002897,-0.968886,-0.160311,-0.054273,-0.180597,19.306299,2.709116,21.577972
52151,-11.049025,1.112013,7.617920,-9.418627,-5.354716,-1.814962,0.275908,-0.994124,1.032595,-0.110922,0.010444,0.075643,0.999973,0.001380,-0.004971,0.005163,-0.967966,-0.162850,-0.048744,-0.184786,19.479837,1.958804,21.951873
52152,-11.835222,-0.596213,7.846321,-9.548899,-7.352447,-2.279464,0.096830,-0.648179,1.440242,-0.118558,-0.006853,0.078076,0.999969,0.000484,-0.003241,0.007201,-0.966679,-0.164234,-0.044489,-0.191258,19.550104,1.328804,22.611933
52153,-12.593602,-2.210475,8.057828,-9.614659,-9.259220,-2.724941,-0.308690,-0.479828,1.546717,-0.125954,-0.022955,0.080311,0.999966,-0.001543,-0.002399,0.007733,-0.965516,-0.163558,-0.040488,-0.198464,19.386336,0.759895,23.360731
52154,-13.626888,-4.802141,6.776955,-9.710055,-11.657212,-4.862760,-0.528664,-0.235626,1.401815,-0.136008,-0.048796,0.067738,0.999971,-0.002643,-0.001178,0.007009,-0.964571,-0.161490,-0.037644,-0.205198,19.086339,0.363545,24.080700
52155,-15.370288,-4.603762,6.485473,-11.318390,-12.214935,-5.102101,-0.678637,-0.037933,1.089341,-0.153462,-0.046654,0.064983,0.999979,-0.003393,-0.000190,0.005447,-0.963979,-0.158461,-0.035789,-0.210605,18.698093,0.129215,24.669376
52156,-14.751385,-4.962170,4.516688,-10.789843,-11.778100,-7.077461,-0.790501,0.142320,0.841266,-0.147272,-0.050062,0.045469,0.999983,-0.003952,0.000712,0.004206,-0.963670,-0.154620,-0.034941,-0.214969,18.241781,0.049677,25.158526
52157,-14.864232,-4.812355,3.962651,-10.938960,-11.611605,-7.507234,-0.614209,0.475522,0.634893,-0.148394,-0.048472,0.040128,0.999987,-0.003071,0.002378,0.003174,-0.963358,-0.151245,-0.036010,-0.218561,17.887458,0.187335,25.594573
52158,-14.847994,-5.432253,2.802820,-10.752779,-11.873432,-8.705529,-0.486624,0.724191,0.263583,-0.148305,-0.054449,0.028698,0.999990,-0.002433,0.003621,0.001318,-0.963290,-0.148126,-0.038733,-0.220522,17.606230,0.532388,25.871076
52159,-12.325641,-5.907453,2.016360,-8.379281,-10.980736,-9.504504,0.459472,1.046610,-0.622906,-0.123332,-0.058738,0.020674,0.999979,0.002297,0.005233,-0.003115,-0.963407,-0.149033,-0.044694,-0.218265,17.862690,1.206699,25.719992
52160,2.847430,6.294795,16.005974,2.660920,2.235638,7.270049,2.252083,1.062418,-2.417707,0.030070,0.060784,0.160595,0.999849,0.011260,0.005312,-0.012088,-0.963978,-0.158131,-0.054030,-0.206934,19.115632,2.219127,24.604964
52161,5.068333,19.508119,26.939188,2.040184,11.313754,21.806565,0.806929,0.535418,-2.021130,0.053366,0.193462,0.270034,0.999937,0.004035,0.002677,-0.010105,-0.965222,-0.160876,-0.058999,-0.197447,19.529035,2.886931,23.618957
52162,-1.253885,-1.360008,-2.053724,-1.029597,-1.105718,-12.127174,-0.884094,0.647981,-1.103266,-0.012680,-0.013621,-0.020436,0.999970,-0.004420,0.003240,-0.005516,-0.966796,-0.155612,-0.062105,-0.192958,18.992448,3.441673,23.150049
52163,-8.990032,4.361448,11.386381,-7.624222,-2.876941,2.957617,1.390176,1.349949,-0.909025,-0.088931,0.043225,0.114768,0.999943,0.006951,0.006750,-0.004545,-0.966113,-0.160713,-0.070632,-0.189233,19.769320,4.338770,22.920902
52164,2.851107,4.405291,11.101022,3.350800,1.836034,1.856421,-0.003885,0.761666,-0.647189,0.029076,0.043962,0.110899,0.999988,-0.000019,0.003808,-0.003236,-0.966442,-0.159715,-0.074793,-0.186778,19.747207,4.870521,22.724856
52165,0.721762,4.585653,8.082600,0.832965,2.036834,-0.755445,0.600938,1.126256,-0.583221,0.007806,0.045591,0.080920,0.999975,0.003005,0.005631,-0.002916,-0.966058,-0.161320,-0.081222,-0.184690,20.079398,5.586061,22.636081
52166,-3.648854,6.838365,9.731029,-3.430613,1.887262,1.995673,0.366399,1.110525,-0.493806,-0.035778,0.068294,0.097635,0.999980,0.001832,0.005553,-0.002469,-0.965744,-0.161834,-0.087287,-0.183109,20.281022,6.276530,22.595813
52167,-3.146111,6.119008,9.672290,-2.616947,1.483254,1.669639,0.191701,0.977884,-0.275814,-0.030903,0.061140,0.096934,0.999987,0.000958,0.004889,-0.001379,-0.965398,-0.161722,-0.092369,-0.182542,20.393321,6.851874,22.648590
52168,-3.498212,6.264125,10.107420,-2.775490,1.375543,2.188991,0.124734,0.910719,-0.097068,-0.034491,0.062595,0.101271,0.999989,0.000624,0.004554,-0.000485,-0.964951,-0.161420,-0.096922,-0.182811,20.477597,7.355872,22.785704
52169,-2.770192,7.237277,8.790514,-2.666416,2.893042,1.225676,-0.009649,0.770238,0.105302,-0.027401,0.072363,0.088008,0.999992,-0.000048,0.003851,0.000527,-0.964477,-0.160703,-0.100510,-0.184003,20.497699,7.743581,23.004402
52170,-1.604907,7.622307,8.382488,-1.784833,3.808695,0.829187,-0.092049,0.859952,0.474150,-0.015869,0.076224,0.083858,0.999988,-0.000460,0.004300,0.002371,-0.963666,-0.159679,-0.104157,-0.187086,20.501083,8.105569,23.441573
52171,-1.000529,5.417367,8.837220,-0.364791,2.000353,0.400579,-0.139970,0.922795,0.878962,-0.009836,0.054192,0.088380,0.999979,-0.000700,0.004614,0.004395,-0.962449,-0.158586,-0.107736,-0.192184,20.514797,8.419899,24.111174
52172,-1.260526,2.432565,9.135857,0.529008,-0.781202,-0.321656,-0.046582,0.984585,1.007873,-0.012278,0.024285,0.091414,0.999975,-0.000233,0.004923,0.005039,-0.960959,-0.157930,-0.111594,-0.197896,20.596334,8.740957,24.864358
52173,-1.671926,1.321832,9.846977,0.813367,-2.086410,0.010258,-0.018995,0.950787,0.808244,-0.016304,0.013161,0.098547,0.999981,-0.000095,0.004754,0.004041,-0.959618,-0.157338,-0.115471,-0.202594,20.682183,9.082950,25.503178
52174,-2.203045,0.619764,9.939549,0.693446,-2.919012,-0.064351,-0.109925,0.853877,0.436826,-0.021619,0.006205,0.099485,0.999988,-0.000550,0.004269,0.002184,-0.958753,-0.156172,-0.119077,-0.205484,20.682413,9.447851,25.921550
52175,-1.559588,1.116683,9.753837,1.106782,-2.135923,-0.167532,0.025425,0.780935,0.150880,-0.015223,0.011143,0.097600,0.999992,0.000127,0.003905,0.000754,-0.958099,-0.155568,-0.122695,-0.206859,20.735805,9.831286,26.169948
52176,-1.831117,1.733869,9.770067,0.718830,-1.699195,0.107449,0.048080,0.702984,-0.021914,-0.017966,0.017317,0.097768,0.999994,0.000240,0.003515,-0.000110,-0.957642,-0.155033,-0.126095,-0.207332,20.783407,10.207947,26.309057
52177,-2.306713,1.330533,9.575154,0.449067,-2.187003,-0.128174,0.107762,0.654978,-0.191617,-0.022741,0.013276,0.095834,0.999994,0.000539,0.003275,-0.000958,-0.957332,-0.154733,-0.129457,-0.206913,20.848657,10.593203,26.346264
52178,-1.985029,2.506945,9.429067,0.331775,-0.974690,0.090442,0.183520,0.575008,-0.353219,-0.019535,0.025018,0.094370,0.999994,0.000918,0.002875,-0.001766,-0.957173,-0.154764,-0.132638,-0.205609,20.937162,10.968737,26.279457
52179,-1.619681,3.959793,8.897369,0.037388,0.587196,0.042256,0.203989,0.573938,-0.361405,-0.015870,0.039536,0.089060,0.999994,0.001020,0.002870,-0.001807,-0.956995,-0.154892,-0.135840,-0.204247,21.036760,11.345440,26.208445
52180,-2.163062,4.213207,9.173143,-0.371796,0.517145,0.491215,0.231573,0.597652,-0.260361,-0.021301,0.042054,0.091844,0.999994,0.001158,0.002988,-0.001302,-0.956665,-0.155190,-0.139103,-0.203368,21.163261,11.714159,26.198277
52181,-2.496323,3.518385,9.378721,-0.289969,-0.270712,0.502997,0.199874,0.557648,-0.227192,-0.024662,0.035118,0.093891,0.999995,0.000999,0.002788,-0.001136,-0.956343,-0.155404,-0.142116,-0.202634,21.274385,12.054592,26.198441
52182,-2.657134,3.360230,9.317790,-0.335297,-0.455011,0.427085,0.232247,0.504376,-0.264627,-0.026292,0.033529,0.093283,0.999995,0.001161,0.002522,-0.001323,-0.956063,-0.155792,-0.144934,-0.201657,21.396775,12.374458,26.167574
52183,-2.962926,3.179340,9.450297,-0.437403,-0.769522,0.551263,0.232309,0.473926,-0.289259,-0.029359,0.031726,0.094610,0.999995,0.001162,0.002370,-0.001446,-0.955821,-0.156198,-0.147626,-0.200535,21.515501,12.683335,26.117317
52184,-2.680223,3.725995,9.390388,-0.339868,-0.151076,0.632763,0.211257,0.383739,-0.331199,-0.026560,0.037205,0.093994,0.999996,0.001056,0.001919,-0.001656,-0.955697,-0.156556,-0.149896,-0.199157,21.611969,12.953056,26.025251
52185,-2.193635,3.473312,8.965688,0.071929,-0.052035,0.048925,0.154372,0.384707,-0.379816,-0.021698,0.034705,0.089726,0.999996,0.000772,0.001924,-0.001899,-0.955658,-0.156609,-0.152153,-0.197588,21.670109,13.233817,25.907047
52186,-2.322527,3.418027,9.065012,0.059475,-0.164410,0.148272,0.128224,0.368009,-0.449054,-0.022982,0.034174,0.090714,0.999996,0.000641,0.001840,-0.002245,-0.955713,-0.156494,-0.154356,-0.195694,21.702503,13.520307,25.747446
52187,-2.257462,2.100125,9.202539,0.638164,-1.304104,-0.216580,0.092871,0.352530,-0.552706,-0.022354,0.021020,0.092075,0.999995,0.000464,0.001763,-0.002764,-0.955900,-0.156148,-0.156531,-0.193317,21.700178,13.820688,25.527532
52188,-2.985844,0.550556,9.457490,0.624644,-3.010060,-0.367491,0.176315,0.324184,-0.700342,-0.029686,0.005526,0.094628,0.999992,0.000882,0.001621,-0.003502,-0.956174,-0.156107,-0.158763,-0.190146,21.722818,14.137180,25.220233
52189,-2.357344,-0.986675,9.736667,1.784465,-4.161201,-0.821950,0.322147,0.251031,-0.961361,-0.023499,-0.009911,0.097380,0.999986,0.001611,0.001255,-0.004807,-0.956621,-0.156623,-0.160986,-0.185550,21.788033,14.470605,24.753369
52190,-3.067835,-1.410624,10.338009,1.518662,-4.974372,-0.261500,0.521848,0.173454,-1.299704,-0.030681,-0.014177,0.103370,0.999975,0.002609,0.000867,-0.006498,-0.957252,-0.157886,-0.163281,-0.179107,21.913371,14.835480,24.083267
52191,-3.365779,0.164584,9.955897,0.662170,-3.611397,0.035905,0.633235,0.051615,-1.620057,-0.033619,0.001603,0.099573,0.999962,0.003166,0.000258,-0.008100,-0.958124,-0.159514,-0.165335,-0.170934,22.044780,15.206030,23.209631
52192,-3.877332,1.589606,9.457429,-0.349717,-2.409663,0.240903,0.706844,-0.012426,-1.810986,-0.038635,0.015912,0.094628,0.999953,0.003534,-0.000062,-0.009055,-0.959071,-0.161384,-0.167284,-0.161719,22.181795,15.585486,22.215857
52193,-3.749323,3.545739,9.052988,-0.845223,-0.490523,0.561846,0.694401,-0.095675,-1.907569,-0.037198,0.035499,0.090635,0.999948,0.003472,-0.000478,-0.009538,-0.960085,-0.163154,-0.168886,-0.151970,22.284294,15.944143,21.149188
52194,-3.723445,4.466249,8.129435,-1.319356,0.617702,0.075504,0.669762,-0.097695,-1.890761,-0.036851,0.044740,0.081426,0.999950,0.003349,-0.000488,-0.009454,-0.961010,-0.164817,-0.170427,-0.142304,22.369780,16.299342,20.090002
52195,-4.053559,5.208727,8.306274,-1.631475,1.165605,0.605339,0.728632,-0.099228,-1.817647,-0.040103,0.052150,0.083233,0.999952,0.003643,-0.000496,-0.009088,-0.961743,-0.166798,-0.171929,-0.132925,22.492503,16.640140,19.069659
52196,-3.216935,7.089521,8.515302,-1.068907,3.106226,1.247513,0.628702,-0.137096,-1.692714,-0.031628,0.070896,0.085354,0.999959,0.003143,-0.000685,-0.008463,-0.962423,-0.168429,-0.173060,-0.124189,22.571004,16.934635,18.108605
52197,-3.013368,5.664741,7.990107,-0.727845,2.042600,0.202745,0.383098,-0.064435,-1.555251,-0.029719,0.056726,0.080000,0.999968,0.001915,-0.000322,-0.007776,-0.963094,-0.168931,-0.174265,-0.116379,22.529982,17.238298,17.238919
52198,-3.256423,4.141258,8.929093,-0.278522,0.343516,0.545261,0.323316,-0.026467,-1.505919,-0.032264,0.041512,0.089354,0.999970,0.001617,-0.000132,-0.007530,-0.963694,-0.169165,-0.175561,-0.108883,22.461358,17.549825,16.403571
52199,-3.284588,2.335201,10.363339,0.546617,-1.702845,1.161912,0.213379,-0.040957,-1.605550,-0.032679,0.023504,0.103652,0.999967,0.001067,-0.000205,-0.008028,-0.964395,-0.168772,-0.176805,-0.100984,22.306210,17.874480,15.507370
52200,-4.610974,1.829837,14.913505,1.120781,-3.789853,5.399241,0.324505,-0.148960,-1.796322,-0.046055,0.018470,0.149131,0.999958,0.001623,-0.000745,-0.008981,-0.965123,-0.168795,-0.177728,-0.091969,22.169333,18.180426,14.477705
52201,-3.818968,7.664685,11.935674,0.067579,2.795894,4.608370,-0.719461,-0.727698,-2.302112,-0.037734,0.077511,0.118941,0.999921,-0.003597,-0.003638,-0.011510,-0.967364,-0.163566,-0.175787,-0.080943,21.299289,18.277609,13.031329
52202,1.190752,6.022212,6.643333,2.985860,3.989841,-2.263958,-0.737902,-0.435987,-2.412326,0.012490,0.060318,0.066238,0.999918,-0.003689,-0.002180,-0.012061,-0.969252,-0.158018,-0.175308,-0.069624,20.414924,18.531863,11.582658
52203,2.158563,9.366330,9.830534,4.886625,6.491196,1.278250,-0.810486,-0.106904,-2.052069,0.022495,0.093833,0.097937,0.999939,-0.004052,-0.000535,-0.010260,-0.970647,-0.152291,-0.176090,-0.060366,19.566684,18.872027,10.400394
52204,5.035552,9.960657,13.787539,9.085522,6.558763,3.938661,-0.977677,0.188325,-1.599332,0.051283,0.099871,0.137340,0.999956,-0.004888,0.000942,-0.007997,-0.971671,-0.146051,-0.177890,-0.053670,18.717407,19.270203,9.528318
52205,11.725977,12.216588,15.621507,15.960047,9.380734,3.900435,-1.259200,0.006964,-1.179138,0.117987,0.122452,0.155441,0.999963,-0.006296,0.000035,-0.005896,-0.972871,-0.138859,-0.178400,-0.049131,17.769201,19.479927,8.856126
52206,17.074828,12.693208,13.878488,20.362819,11.105420,0.546046,-0.639591,-0.027053,-0.833991,0.171258,0.126662,0.138403,0.999986,-0.003198,-0.000135,-0.004170,-0.973536,-0.134986,-0.178661,-0.045690,17.237382,19.604789,8.374190
52207,18.249863,16.854684,15.670605,21.983950,14.773281,2.882242,0.014263,-0.274176,-0.350432,0.182578,0.168216,0.156968,0.999998,0.000071,-0.001371,-0.001752,-0.973858,-0.134801,-0.177497,-0.043859,17.160976,19.505016,8.128422
52208,16.922959,14.411553,14.601579,20.433982,12.480342,1.762159,0.060929,-0.501523,0.274698,0.168665,0.144303,0.146483,0.999996,0.000305,-0.002508,0.001373,-0.974203,-0.135428,-0.174855,-0.044869,17.216895,19.179948,8.204378
52209,13.240199,10.849314,13.835877,16.763817,8.764994,1.438440,0.117980,-0.684765,0.620858,0.131590,0.108821,0.138874,0.999989,0.000590,-0.003424,0.003104,-0.974584,-0.136715,-0.171021,-0.047404,17.363009,18.686277,8.447580
52210,10.043342,8.504484,12.746358,13.370846,6.365043,0.974707,0.097765,-0.803004,0.792849,0.099582,0.085378,0.127906,0.999984,0.000489,-0.004015,0.003964,-0.975005,-0.138033,-0.166559,-0.050699,17.515225,18.107129,8.765543
52211,7.633231,6.348450,12.111013,10.868172,4.149362,0.671030,-0.142970,-0.772737,0.985448,0.075549,0.063945,0.121357,0.999980,-0.000715,-0.003864,0.004927,-0.975491,-0.138376,-0.161944,-0.055170,17.566035,17.498494,9.198293
52212,5.130593,5.206424,11.873150,8.364131,2.792908,0.987301,-0.290189,-0.811936,1.123183,0.050529,0.052522,0.118862,0.999975,-0.001451,-0.004060,0.005616,-0.976019,-0.138067,-0.157094,-0.060385,17.543831,16.856768,9.700127
52213,8.072477,4.807891,11.879937,11.020843,2.962739,0.145854,-0.465593,-0.936929,1.116204,0.079896,0.048803,0.119062,0.999971,-0.002328,-0.004685,0.005581,-0.976723,-0.136979,-0.151463,-0.065634,17.412549,16.134524,10.175539
52214,9.311544,5.955949,12.143731,12.008443,4.290766,0.532800,-0.284070,-1.157237,1.128447,0.092072,0.060254,0.121887,0.999966,-0.001420,-0.005786,0.005642,-0.977394,-0.136796,-0.144912,-0.070629,17.365276,15.304488,10.617111
52215,9.775840,6.429590,12.043167,12.170905,4.915889,0.658207,-0.207156,-1.416012,1.182350,0.096520,0.064994,0.121051,0.999957,-0.001036,-0.007080,0.005912,-0.978114,-0.137166,-0.136942,-0.075673,17.355850,14.307725,11.042755
52216,7.932931,7.472655,11.760253,9.987889,5.663862,1.377873,0.046500,-1.745364,1.207687,0.077846,0.075172,0.118304,0.999944,0.000232,-0.008727,0.006038,-0.978767,-0.138847,-0.127559,-0.080409,17.468036,13.142401,11.420756
52217,5.219140,7.497183,11.468366,7.046891,5.208084,1.942242,0.199043,-1.931783,1.218759,0.050622,0.075169,0.115252,0.999934,0.000995,-0.009659,0.006094,-0.979315,-0.141401,-0.117151,-0.084989,17.657952,11.854056,11.767596
52218,2.814653,8.220996,10.110525,4.023228,5.692065,1.551063,0.358670,-2.134495,1.216540,0.026564,0.082193,0.101542,0.999923,0.001793,-0.010672,0.006083,-0.979721,-0.144739,-0.105953,-0.089283,17.917787,10.472503,12.069580
52219,-0.297363,7.960567,10.094641,0.780198,4.703819,2.129599,0.497257,-2.071586,1.186182,-0.004491,0.079331,0.101103,0.999926,0.002486,-0.010358,0.005931,-0.979860,-0.148757,-0.094971,-0.093413,18.253116,9.109708,12.357900
52220,-3.084977,7.995417,10.137274,-2.192695,4.002581,2.652083,0.538642,-2.214503,1.140553,-0.032425,0.079499,0.101234,0.999919,0.002693,-0.011072,0.005703,-0.979900,-0.152932,-0.083488,-0.097152,18.590866,7.695228,12.585514
52221,-4.067276,6.659109,8.886774,-3.441551,2.759404,1.159822,0.548720,-2.198975,1.016759,-0.041985,0.066137,0.088593,0.999923,0.002744,-0.010995,0.005084,-0.979827,-0.157144,-0.072007,-0.100300,18.926001,6.291415,12.739156
52222,-5.933031,6.265986,8.490344,-5.486286,1.975827,0.795807,0.674305,-2.124033,0.820933,-0.060485,0.062128,0.084475,0.999929,0.003371,-0.010620,0.004105,-0.979581,-0.161768,-0.061259,-0.102464,19.313341,4.983260,12.791295
52223,-7.154693,5.990804,8.375864,-6.856399,1.363276,0.596922,0.799147,-2.119682,0.614475,-0.072614,0.059353,0.083231,0.999931,0.003996,-0.010598,0.003072,-0.979195,-0.166991,-0.050602,-0.103588,19.768544,3.698306,12.722187
52224,-6.474381,5.366235,7.805423,-6.349148,1.004613,-0.309375,0.960162,-2.240381,0.417207,-0.065726,0.053153,0.077578,0.999924,0.004801,-0.011202,0.002086,-0.978670,-0.172914,-0.039747,-0.103569,20.303398,2.406113,12.512700
52225,-7.045357,4.695749,6.872686,-7.057404,0.461610,-1.512290,1.363210,-2.236903,0.345085,-0.071299,0.046369,0.068250,0.999913,0.006816,-0.011184,0.001725,-0.977660,-0.180843,-0.029034,-0.103119,21.079446,1.115878,12.249632
52226,-8.119979,4.253270,6.172248,-8.231232,-0.038907,-2.439621,1.532853,-2.127671,0.422137,-0.081941,0.041890,0.061176,0.999912,0.007664,-0.010638,0.002111,-0.976280,-0.189446,-0.019008,-0.103085,21.951698,-0.111434,12.033450
52227,-10.613379,3.265764,5.986435,-10.612329,-1.508681,-3.161133,1.604998,-1.815410,0.726101,-0.106789,0.031794,0.059154,0.999920,0.008025,-0.009077,0.003630,-0.974465,-0.198315,-0.010124,-0.104820,22.874759,-1.251612,12.025759
52228,-12.560679,3.040151,6.339011,-12.544529,-2.409736,-3.178180,1.348169,-1.436129,1.179746,-0.126233,0.029234,0.062685,0.999934,0.006741,-0.007180,0.005899,-0.972519,-0.205651,-0.002630,-0.109126,23.633772,-2.279148,12.327826
52229,-13.900113,2.008463,6.793615,-13.671124,-4.017758,-3.460664,0.935370,-0.915052,1.808098,-0.139482,0.018509,0.067388,0.999938,0.004677,-0.004575,0.009040,-0.970505,-0.210750,0.003311,-0.117022,24.137530,-3.195926,13.067366
52230,-14.177260,1.305133,7.035303,-13.772764,-5.090637,-3.764740,0.494642,-0.452591,2.393236,-0.142073,0.011179,0.070061,0.999923,0.002473,-0.002263,0.011966,-0.968500,-0.213325,0.007773,-0.128213,24.344519,-4.000168,14.219159
52231,-13.530161,-0.161834,7.954346,-12.675670,-6.931422,-3.678117,0.147158,-0.010149,2.820992,-0.135264,-0.003585,0.079534,0.999900,0.000736,-0.000051,0.014104,-0.966421,-0.213946,0.010858,-0.141913,24.319205,-4.686910,15.697239
52232,-13.302295,-1.925329,8.915614,-11.777542,-9.139128,-3.656520,-0.012942,0.223248,2.977088,-0.132617,-0.021224,0.089306,0.999889,-0.000065,0.001116,0.014885,-0.964225,-0.213507,0.013008,-0.156576,24.167000,-5.275486,17.316874
52233,-12.787579,-2.379286,9.506568,-10.932119,-9.927175,-3.371586,-0.162181,0.255672,2.745384,-0.127412,-0.025467,0.095249,0.999905,-0.000811,0.001278,0.013726,-0.962158,-0.212347,0.014934,-0.170113,23.929637,-5.795821,18.823732
52234,-12.886166,-2.955148,8.605696,-10.688581,-10.316387,-4.505669,-0.417701,0.262797,2.232470,-0.128409,-0.030806,0.086289,0.999935,-0.002088,0.001314,0.011162,-0.960655,-0.209900,0.016431,-0.181145,23.556402,-6.177748,20.067714
52235,-13.429322,-2.738601,7.421592,-11.165510,-10.022756,-5.593915,-0.440500,0.352978,1.785552,-0.133911,-0.028419,0.074514,0.999956,-0.002202,0.001765,0.008928,-0.959474,-0.207316,0.017091,-0.190100,23.190626,-6.408625,21.097395
52236,-14.602795,-2.532524,6.339758,-12.232469,-10.006793,-6.638690,-0.469050,0.500378,1.573530,-0.145664,-0.026323,0.063823,0.999963,-0.002345,0.002502,0.007868,-0.958467,-0.204416,0.016804,-0.198176,22.810498,-6.501651,22.051143
52237,-14.591872,-2.713786,5.143050,-12.055392,-9.860031,-7.768149,-0.568074,0.872478,1.540126,-0.145478,-0.028112,0.052145,0.999957,-0.002840,0.004362,0.007701,-0.957542,-0.200686,0.014821,-0.206443,22.369178,-6.387049,23.068937
52238,-16.371263,-3.902038,5.349259,-12.995929,-11.835955,-8.120377,-0.711329,1.288938,1.661305,-0.163032,-0.040183,0.054686,0.999938,-0.003557,0.006445,0.008306,-0.956571,-0.195782,0.011087,-0.215680,21.830282,-6.065454,24.241474
52239,-16.887758,-6.692345,5.014478,-12.051907,-14.478235,-9.319717,-0.969198,1.643334,1.739484,-0.167867,-0.068138,0.051855,0.999917,-0.004846,0.008216,0.008697,-0.955647,-0.189245,0.006014,-0.225586,21.142365,-5.559401,25.525463
52240,-17.962783,-9.988516,5.860358,-11.192457,-18.203796,-9.498479,-1.209386,1.984263,1.465742,-0.178294,-0.100831,0.060985,0.999906,-0.006047,0.009921,0.007328,-0.955100,-0.181136,-0.000679,-0.234466,20.337040,-4.797964,26.724297
52241,-11.720789,-13.701172,12.628434,-3.093469,-20.882151,-3.573398,-0.704022,1.799352,0.243894,-0.115896,-0.136705,0.127813,0.999953,-0.003520,0.008997,0.001219,-0.955393,-0.175621,-0.008211,-0.237304,19.892138,-3.879684,27.217531
52242,53.927656,7.998332,40.715797,49.397344,15.337468,34.371760,5.217983,-1.406530,-5.641479,0.538156,0.054071,0.412582,0.999237,0.026083,-0.007031,-0.028200,-0.956828,-0.201814,-0.012593,-0.208789,23.089715,-3.449786,23.914220
52243,22.310249,41.708862,21.230560,6.630080,36.039977,26.862581,-2.180607,0.961277,-2.064509,0.228410,0.417023,0.206669,0.999876,-0.010903,0.004806,-0.010322,-0.961000,-0.190176,-0.016949,-0.200061,21.879277,-2.494173,23.037570
52244,-43.747278,-37.183219,-20.489250,-28.832806,-41.864874,-43.452520,-3.123674,2.751097,-1.731755,-0.443398,-0.371086,-0.193020,0.999746,-0.015617,0.013754,-0.008658,-0.965220,-0.172191,-0.028649,-0.194627,20.095075,-0.671617,22.681564
52245,-23.115675,15.242523,32.578550,-22.457007,-6.875839,25.911279,5.983279,-0.103798,-2.448333,-0.229518,0.145409,0.330087,0.999477,0.029911,-0.000519,-0.012240,-0.961961,-0.200674,-0.036033,-0.181829,23.527370,-0.209259,21.363885
52246,20.294277,10.182254,7.763430,16.695141,13.166971,1.309368,-2.995319,-0.493067,-2.170037,0.203850,0.100767,0.076622,0.999826,-0.014976,-0.002465,-0.010850,-0.966857,-0.186261,-0.033073,-0.171464,21.809194,0.004620,20.113574
52247,-0.345000,1.285007,0.564794,-0.646029,0.805274,-8.801093,1.376559,1.249291,-1.809671,-0.003298,0.012841,0.005757,0.999916,0.006883,0.006246,-0.009048,-0.966838,-0.191486,-0.041949,-0.163697,22.586130,1.055679,19.430257
52248,-6.262105,22.510870,13.057908,-10.590097,12.938743,11.089102,0.692796,0.764648,-1.288689,-0.060669,0.225049,0.131593,0.999966,0.003464,0.003823,-0.006443,-0.967035,-0.193903,-0.047410,-0.158107,22.966597,1.740851,18.924735
52249,-2.102944,8.067932,5.340046,-3.469504,4.489864,-1.698931,-0.698882,0.760249,-0.272742,-0.020717,0.080894,0.053197,0.999986,-0.003494,0.003801,-0.001364,-0.967732,-0.189826,-0.050776,-0.157743,22.563224,2.200028,18.954880
52250,-3.184834,7.963085,11.581637,-3.416826,1.902643,4.057888,-0.094566,0.797712,0.136810,-0.031441,0.079664,0.115905,0.999992,-0.000473,0.003989,0.000684,-0.967501,-0.188743,-0.054397,-0.159244,22.515489,2.587523,19.208521
52251,-2.848141,2.395418,10.062689,-1.690329,-2.311262,0.526953,-0.384561,0.574426,0.178978,-0.028214,0.024122,0.100662,0.999994,-0.001923,0.002872,0.000895,-0.967556,-0.186449,-0.056683,-0.160807,22.302664,2.850163,19.434484
52252,-1.053248,3.757409,9.871794,-0.390159,-0.415547,0.787063,-0.177951,0.459746,0.110261,-0.010326,0.037656,0.098708,0.999997,-0.000890,0.002299,0.000551,-0.967498,-0.185220,-0.058627,-0.161878,22.205036,3.065459,19.598777
52253,0.043678,3.304953,8.848027,0.626019,-0.068882,-0.388494,-0.194073,0.481789,0.211614,0.000615,0.033136,0.088447,0.999996,-0.000970,0.002409,0.001058,-0.967358,-0.183928,-0.060590,-0.163456,22.102759,3.273123,19.821016
52254,0.416770,2.855338,8.689913,1.111563,-0.259099,-0.727624,-0.057605,0.561104,0.250110,0.004376,0.028584,0.086879,0.999995,-0.000288,0.002806,0.001251,-0.967030,-0.183237,-0.062992,-0.165258,22.080995,3.512557,20.081023
52255,0.813822,2.464601,8.617205,1.626161,-0.420976,-0.971253,-0.007924,0.609942,0.157948,0.008381,0.024656,0.086146,0.999995,-0.000040,0.003050,0.000790,-0.966706,-0.182718,-0.065773,-0.166635,22.087126,3.799925,20.302273
52256,0.732836,3.134870,8.444540,1.365648,0.214939,-0.881659,0.067223,0.684799,0.078158,0.007605,0.031323,0.084430,0.999994,0.000336,0.003424,0.000391,-0.966346,-0.182469,-0.069033,-0.167675,22.135034,4.142016,20.497774
52257,0.377349,4.842658,8.437764,0.576707,1.609713,-0.228038,0.023429,0.749374,0.024015,0.004084,0.048417,0.084368,0.999993,0.000117,0.003747,0.000120,-0.966036,-0.181935,-0.072633,-0.168519,22.158583,4.531796,20.678496
52258,-0.016772,5.330067,8.420933,0.117424,1.932363,-0.036503,-0.124939,0.821125,0.018201,0.000173,0.053353,0.084176,0.999991,-0.000625,0.004106,0.000091,-0.965825,-0.180618,-0.076442,-0.169457,22.098851,4.959122,20.871896
52259,-0.644434,5.272871,8.394639,-0.397583,1.706983,-0.034337,-0.215476,0.856391,0.049243,-0.006098,0.052818,0.083916,0.999990,-0.001077,0.004282,0.000246,-0.965637,-0.178846,-0.080330,-0.170603,21.991710,5.400435,21.088645
52260,-0.769396,4.423660,8.718308,-0.129940,0.859880,-0.044738,-0.279537,0.906594,0.095285,-0.007320,0.044355,0.087155,0.999989,-0.001398,0.004533,0.000476,-0.965428,-0.176733,-0.084348,-0.172044,21.852083,5.857395,21.340307
52261,-0.849989,3.540243,8.983095,0.183041,0.023557,-0.121600,-0.314053,0.916312,0.129904,-0.008111,0.035538,0.089813,0.999988,-0.001570,0.004582,0.000650,-0.965192,-0.174461,-0.088366,-0.173665,21.697863,6.314398,21.611225
52262,-1.355382,2.864183,9.373976,0.079277,-0.822637,0.047756,-0.276376,0.954365,0.120852,-0.013124,0.028763,0.093763,0.999987,-0.001382,0.004772,0.000604,-0.964891,-0.172324,-0.092591,-0.175261,21.566594,6.792662,21.884855
52263,-1.666972,2.767357,9.779551,-0.008867,-1.091902,0.428586,-0.285708,0.892871,0.042140,-0.016239,0.027810,0.097829,0.999989,-0.001429,0.004464,0.000211,-0.964672,-0.170161,-0.096591,-0.176418,21.426378,7.256879,22.101990
52264,-1.730069,0.716805,9.929456,0.672445,-2.910199,-0.159764,-0.265964,0.850832,-0.083048,-0.016875,0.007307,0.099357,0.999990,-0.001330,0.004254,-0.000415,-0.964548,-0.168060,-0.100496,-0.176928,21.288138,7.723740,22.242325
52265,-2.720668,0.628572,10.761606,0.075186,-3.554037,0.721632,-0.070290,0.735699,-0.276545,-0.026802,0.006361,0.107713,0.999992,-0.000351,0.003678,-0.001383,-0.964470,-0.166907,-0.104194,-0.176302,21.245955,8.171185,22.253364
52266,-2.798758,0.550094,10.355167,-0.011801,-3.505651,0.339901,0.066344,0.571234,-0.447094,-0.027679,0.005529,0.103633,0.999993,0.000332,0.002856,-0.002235,-0.964502,-0.166464,-0.107346,-0.174648,21.263027,8.564608,22.137967
52267,-3.263177,1.315510,10.428526,-0.588606,-3.008317,0.757852,0.265806,0.482867,-0.504303,-0.032347,0.013098,0.104381,0.999993,0.001329,0.002414,-0.002522,-0.964452,-0.167025,-0.110307,-0.172532,21.386240,8.924764,21.973334
52268,-3.958520,2.322363,10.787042,-1.369919,-2.476548,1.563310,0.378740,0.314229,-0.539834,-0.039353,0.023126,0.107976,0.999993,0.001894,0.001571,-0.002699,-0.964419,-0.168257,-0.112565,-0.170042,21.564640,9.201048,21.754597
52269,-3.219231,3.499642,10.162980,-1.156850,-0.995160,1.303440,0.414364,0.138105,-0.550936,-0.032026,0.034874,0.101724,0.999994,0.002072,0.000691,-0.002755,-0.964453,-0.169795,-0.114030,-0.167325,21.755310,9.388743,21.492873
52270,-2.485692,3.836572,9.352443,-0.764936,-0.212602,0.566893,0.395489,0.076378,-0.512671,-0.024723,0.038244,0.093610,0.999995,0.001977,0.000382,-0.002563,-0.964495,-0.171320,-0.115131,-0.164752,21.936019,9.534134,21.238936
52271,-2.769086,3.908052,9.525899,-0.963621,-0.318880,0.801129,0.404130,0.030636,-0.487331,-0.027581,0.038955,0.095342,0.999995,0.002021,0.000153,-0.002437,-0.964526,-0.172930,-0.116013,-0.162252,22.121396,9.652909,20.989033
52272,-2.232315,3.877291,8.768143,-0.646933,0.051980,0.009515,0.318634,-0.039247,-0.514313,-0.022241,0.038690,0.087739,0.999995,0.001593,-0.000196,-0.002572,-0.964684,-0.174175,-0.116493,-0.159614,22.252741,9.738801,20.709541
52273,-1.248330,3.074560,8.922340,0.541205,-0.378515,-0.316206,0.329983,-0.004689,-0.571077,-0.012398,0.030634,0.089274,0.999995,0.001650,-0.000023,-0.002855,-0.964848,-0.175405,-0.117217,-0.156719,22.385846,9.858435,20.407222
52274,-1.756630,2.402802,9.351248,0.389117,-1.293952,-0.092642,0.303346,-0.023885,-0.694067,-0.017494,0.023947,0.093547,0.999993,0.001517,-0.000119,-0.003470,-0.965132,-0.176454,-0.117914,-0.153232,22.491290,9.992983,20.034692
52275,-0.952385,1.298529,9.009529,1.334054,-1.915186,-0.962989,0.310273,-0.030749,-0.910096,-0.009479,0.012889,0.090114,0.999988,0.001551,-0.000154,-0.004550,-0.965562,-0.177403,-0.118790,-0.148686,22.578533,10.174332,19.544549
52276,-1.440963,1.905310,9.476809,0.881914,-1.690725,-0.227276,0.355388,-0.042417,-1.166463,-0.014319,0.018968,0.094799,0.999981,0.001777,-0.000212,-0.005832,-0.966121,-0.178429,-0.119849,-0.142865,22.665374,10.404364,18.913964
52277,-1.988608,3.319070,8.804153,-0.116087,-0.391480,-0.204512,0.337926,-0.065483,-1.393206,-0.019684,0.033179,0.088091,0.999974,0.001690,-0.000327,-0.006966,-0.966829,-0.179232,-0.120998,-0.135929,22.715225,10.675319,18.156107
52278,-2.093370,5.319828,8.421762,-0.706963,1.513653,0.228101,0.220802,-0.059591,-1.474682,-0.020566,0.053258,0.084270,0.999972,0.001104,-0.000298,-0.007373,-0.967643,-0.179418,-0.122145,-0.128671,22.687201,10.965287,17.355026
52279,-1.847054,5.804766,8.190325,-0.570534,2.133141,0.152850,0.056145,-0.020587,-1.444872,-0.018059,0.058156,0.081918,0.999974,0.000281,-0.000103,-0.007224,-0.968511,-0.178780,-0.123360,-0.121683,22.564386,11.270524,16.577585
52280,-2.151562,5.621691,8.172803,-0.756523,1.939439,0.121741,-0.114890,0.034422,-1.424556,-0.021100,0.056415,0.081699,0.999974,-0.000574,0.000172,-0.007123,-0.969436,-0.177294,-0.124694,-0.114945,22.344557,11.595914,15.821620
52281,-2.376695,5.102992,8.447990,-0.733954,1.385894,0.217150,-0.219616,0.082052,-1.374157,-0.023381,0.051284,0.084433,0.999976,-0.001098,0.000410,-0.006871,-0.970347,-0.175288,-0.126167,-0.108549,22.067080,11.934655,15.101072
52282,-1.567314,4.170996,8.641649,0.296222,0.746841,-0.123226,-0.332146,0.136776,-1.329656,-0.015336,0.041956,0.086358,0.999976,-0.001661,0.000684,-0.006648,-0.971253,-0.172734,-0.127780,-0.102487,21.728475,12.286963,14.414013
52283,-2.009775,3.333389,8.710465,0.076166,-0.083021,-0.272794,-0.363815,0.196226,-1.347901,-0.019786,0.033626,0.087063,0.999975,-0.001819,0.000981,-0.006739,-0.972110,-0.169970,-0.129694,-0.096398,21.366887,12.672855,13.726505
52284,-2.279658,3.173595,9.018144,-0.020639,-0.310151,0.010656,-0.414798,0.233133,-1.420259,-0.022464,0.032083,0.090141,0.999972,-0.002074,0.001166,-0.007101,-0.972971,-0.166890,-0.131799,-0.090022,20.963936,13.086777,13.003626
52285,-2.293377,3.092837,9.210346,0.084251,-0.360679,0.163164,-0.448491,0.253588,-1.504203,-0.022583,0.031306,0.092062,0.999968,-0.002242,0.001268,-0.007521,-0.973827,-0.163565,-0.134069,-0.083266,20.525246,13.525651,12.234275
52286,-2.266299,2.014046,10.943941,0.788261,-1.778153,1.375611,-0.554002,0.287609,-1.609975,-0.022341,0.020624,0.109415,0.999963,-0.002770,0.001438,-0.008050,-0.974725,-0.159638,-0.136520,-0.076094,20.007199,13.995397,11.408311
52287,-4.948956,4.001631,11.929761,-1.629710,-0.569517,3.597788,-0.657578,0.107533,-1.943672,-0.049031,0.040886,0.119191,0.999947,-0.003288,0.000538,-0.009718,-0.975867,-0.155023,-0.138325,-0.067211,19.366721,14.426340,10.354164
52288,-3.072208,5.441062,8.489788,-0.898869,2.292877,0.436719,-1.297697,-0.134354,-2.441328,-0.030107,0.055330,0.084520,0.999904,-0.006488,-0.000672,-0.012206,-0.977697,-0.147007,-0.139083,-0.056149,18.268905,14.800467,8.966553
52289,-1.572543,7.493682,7.068887,0.100426,5.058939,-0.702892,-1.379096,0.065565,-2.678160,-0.014693,0.075623,0.070174,0.999887,-0.006895,0.000328,-0.013390,-0.979310,-0.138335,-0.140959,-0.044118,17.085426,15.300338,7.470598
52290,1.173605,11.770522,8.157510,3.046482,9.398916,0.619681,-1.506553,0.238808,-2.645977,0.013394,0.118145,0.080671,0.999883,-0.007532,0.001194,-0.013229,-0.980658,-0.128999,-0.143582,-0.032448,15.825210,15.857070,6.007981
52291,3.397624,14.885007,8.100486,5.343487,12.800075,0.498148,-1.583370,0.554456,-2.188772,0.035829,0.149099,0.079727,0.999905,-0.007917,0.002772,-0.010944,-0.981546,-0.119540,-0.147430,-0.023265,14.589290,16.490536,4.841011
52292,4.267258,17.917049,8.585227,6.533244,15.856109,1.087747,-1.504345,0.922750,-1.389998,0.044311,0.179504,0.084301,0.999937,-0.007522,0.004614,-0.006950,-0.981871,-0.110991,-0.152580,-0.018167,13.530160,17.193178,4.174769
52293,5.185551,17.289450,9.867237,7.940222,15.218334,1.523986,-1.473948,1.233039,-0.307541,0.052724,0.173533,0.097072,0.999953,-0.007370,0.006165,-0.001538,-0.981732,-0.103403,-0.158643,-0.018523,12.682842,17.918180,4.169304
52294,8.051576,15.339649,9.765436,10.630730,13.724113,-0.110789,-0.814011,1.250956,0.771069,0.080529,0.154101,0.096524,0.999965,-0.004070,0.006255,0.003855,-0.981059,-0.099874,-0.164279,-0.023665,12.407624,18.518334,4.794079
52295,9.509386,19.212486,12.560242,12.743256,17.323105,2.629850,-0.652179,1.452676,1.426174,0.094625,0.193207,0.124285,0.999943,-0.003261,0.007263,0.007131,-0.979969,-0.097691,-0.170572,-0.031979,12.370549,19.151169,5.832876
52296,6.465705,10.880390,12.107097,9.807355,9.236145,1.379672,-1.169384,1.340270,2.093196,0.064315,0.110182,0.119998,0.999906,-0.005847,0.006701,0.010466,-0.978974,-0.093498,-0.175888,-0.043949,12.168782,19.643211,7.255266
52297,7.799526,9.582089,12.225041,11.014489,8.395431,0.689199,-0.753770,1.163993,2.290789,0.077596,0.097170,0.121433,0.999910,-0.003769,0.005820,0.011454,-0.977714,-0.091601,-0.180280,-0.056426,12.255881,20.010192,8.776135
52298,5.977408,6.789123,12.075719,9.358678,5.695591,0.561024,-0.833077,1.012407,2.352324,0.059575,0.069094,0.120169,0.999909,-0.004165,0.005062,0.011761,-0.976433,-0.089331,-0.183875,-0.069200,12.305289,20.286839,10.317323
52299,6.719604,5.763705,11.570609,9.860047,5.138926,-0.398991,-0.685026,0.847131,2.359055,0.066996,0.058823,0.115222,0.999916,-0.003425,0.004236,0.011795,-0.975065,-0.087905,-0.186634,-0.081783,12.448040,20.461739,11.844113
52300,5.791054,4.617377,11.636120,9.091477,4.065465,-0.269705,-0.668721,0.792358,2.338055,0.057822,0.047238,0.115975,0.999918,-0.003344,0.003962,0.011690,-0.973585,-0.086474,-0.189155,-0.094213,12.589963,20.611046,13.352686
52301,4.234355,4.586624,12.764279,8.033681,3.734920,1.295931,-0.537379,0.538880,2.316275,0.042149,0.046698,0.127404,0.999926,-0.002687,0.002694,0.011581,-0.972149,-0.085842,-0.190422,-0.106289,12.800780,20.608995,14.815955
52302,4.910382,4.737116,12.941785,8.590745,4.170763,1.270765,-0.395746,0.241063,2.308729,0.048707,0.048191,0.129264,0.999931,-0.001979,0.001205,0.011543,-0.970794,-0.085961,-0.190353,-0.118050,13.066621,20.443961,16.232567
52303,4.220826,4.222705,13.338281,8.102556,3.567793,1.813720,-0.260860,-0.094711,2.299666,0.041655,0.042882,0.133347,0.999933,-0.001304,-0.000474,0.011498,-0.969579,-0.086991,-0.188636,-0.129481,13.391984,20.076112,17.594003
52304,5.054774,3.029547,12.980710,8.839850,2.808281,1.013006,-0.188862,-0.389997,2.208458,0.049955,0.030972,0.129876,0.999937,-0.000944,-0.001950,0.011042,-0.968536,-0.088384,-0.185623,-0.140253,13.706409,19.558774,18.852810
52305,2.993752,2.657097,13.826363,7.275736,1.778172,2.479200,-0.007904,-0.697898,2.098748,0.029174,0.026885,0.138365,0.999939,-0.000040,-0.003489,0.010494,-0.967661,-0.090835,-0.181183,-0.150178,14.080469,18.866566,19.994455
52306,3.313651,1.938883,12.816175,7.211917,1.336621,1.376265,-0.007636,-1.042938,1.967803,0.032275,0.019714,0.128331,0.999938,-0.000038,-0.005215,0.009839,-0.967068,-0.093337,-0.175198,-0.159288,14.389434,18.006375,20.998308
52307,1.502356,1.315048,12.779392,5.601911,0.114914,1.845010,0.114755,-1.222314,1.836375,0.014121,0.013210,0.127890,0.999939,0.000574,-0.006111,0.009182,-0.966568,-0.096522,-0.168384,-0.167560,14.725460,17.047349,21.888475
52308,0.768356,1.457714,12.388675,4.600722,-0.028249,1.807276,0.106842,-1.469693,1.701253,0.006649,0.014570,0.123946,0.999937,0.000534,-0.007348,0.008506,-0.966263,-0.099675,-0.160510,-0.175036,14.999713,15.979626,22.652508
52309,0.330246,1.851521,11.986617,3.764817,0.141556,1.720667,0.095577,-1.584748,1.610404,0.002204,0.018479,0.119895,0.999936,0.000478,-0.007924,0.008052,-0.966018,-0.102859,-0.151987,-0.182012,15.237885,14.844814,23.337287
52310,-0.376575,2.228292,12.032439,2.831924,0.107915,2.097409,0.127344,-1.700711,1.596821,-0.004966,0.022170,0.120300,0.999932,0.000637,-0.008503,0.007984,-0.965721,-0.106206,-0.143027,-0.188805,15.466895,13.659073,23.987932
52311,-0.191518,2.946669,11.579625,2.392349,0.780032,1.869334,0.154681,-1.862185,1.652341,-0.003236,0.029354,0.115793,0.999922,0.000773,-0.009311,0.008261,-0.965335,-0.109930,-0.133151,-0.195743,15.702174,12.358871,24.635788
52312,-1.183116,2.643985,11.797837,1.452047,-0.071765,2.247958,0.256163,-1.951499,1.762508,-0.013213,0.026176,0.117888,0.999913,0.001281,-0.009757,0.008812,-0.964677,-0.114217,-0.122971,-0.203052,15.983863,11.003620,25.322547
52313,-2.005286,2.248019,11.451428,0.530413,-0.880505,1.983330,0.305156,-2.139819,1.793848,-0.021476,0.022117,0.114324,0.999901,0.001526,-0.010699,0.008969,-0.963898,-0.118995,-0.111777,-0.210347,16.277155,9.521845,25.985538
52314,-3.478184,0.435544,11.380332,-0.326524,-3.287245,1.627605,0.389044,-2.127183,1.720687,-0.036024,0.003828,0.113432,0.999905,0.001945,-0.010636,0.008603,-0.962947,-0.124033,-0.100868,-0.217198,16.589872,8.069970,26.599835
52315,-5.456532,0.489183,12.031264,-2.153351,-4.450144,2.447580,0.456666,-2.294908,1.487610,-0.055974,0.004205,0.119686,0.999904,0.002283,-0.011474,0.007438,-0.962105,-0.129498,-0.089237,-0.222757,16.907924,6.546924,27.046201
52316,-6.003692,-1.108063,11.275228,-2.376468,-6.126477,1.197020,0.427965,-2.294075,1.185949,-0.061257,-0.011682,0.112030,0.999914,0.002140,-0.011470,0.005930,-0.961440,-0.134605,-0.077869,-0.226827,17.176575,5.087062,27.318271
52317,-8.859784,-0.075124,11.425734,-5.511593,-6.763689,1.716107,0.521232,-2.286483,0.830083,-0.089891,-0.001419,0.113231,0.999923,0.002606,-0.011432,0.004150,-0.960953,-0.140042,-0.066763,-0.229129,17.479299,3.677288,27.387790
52318,-9.967481,0.081280,9.460763,-7.144225,-6.823430,-0.259929,0.373788,-2.298419,0.542497,-0.100755,0.000365,0.093455,0.999929,0.001869,-0.011492,0.002712,-0.960760,-0.144616,-0.055730,-0.230045,17.684332,2.323935,27.292378
52319,-11.040263,-0.330666,7.835671,-8.378934,-7.356089,-2.127063,0.487225,-2.080365,0.322238,-0.111204,-0.003674,0.077194,0.999942,0.002436,-0.010402,0.001611,-0.960548,-0.149447,-0.045930,-0.230008,17.956179,1.116686,27.108819
52320,-12.661708,-0.176136,7.392168,-10.101770,-7.905807,-2.710585,0.535712,-1.886128,0.100781,-0.127306,-0.002021,0.072718,0.999952,0.002679,-0.009430,0.000504,-0.960410,-0.154177,-0.037376,-0.229007,18.256143,0.067441,26.834005
52321,-13.350880,-1.192485,6.619166,-10.523062,-8.886636,-4.001614,0.533983,-1.704148,-0.100767,-0.134072,-0.012032,0.065019,0.999960,0.002670,-0.008521,-0.000504,-0.960381,-0.158675,-0.029767,-0.227167,18.562360,-0.854718,26.476429
52322,-14.295097,-1.991186,5.850316,-11.246656,-9.747110,-5.225525,0.648665,-1.546054,-0.289897,-0.143426,-0.019891,0.057331,0.999964,0.003243,-0.007730,-0.001449,-0.960383,-0.163468,-0.023273,-0.224502,18.939387,-1.644345,26.040410
52323,-15.732593,-2.117393,4.837402,-12.711040,-10.132274,-6.471906,0.602467,-1.220169,-0.398038,-0.157659,-0.021004,0.047349,0.999975,0.003012,-0.006101,-0.001990,-0.960443,-0.167678,-0.018321,-0.221582,19.296772,-2.241803,25.601380
52324,-17.943465,-1.799998,4.503964,-14.957177,-10.652704,-6.932769,0.373538,-0.866030,-0.289878,-0.179653,-0.017823,0.044229,0.999988,0.001868,-0.004330,-0.001449,-0.960511,-0.170373,-0.014783,-0.219484,19.520148,-2.658892,25.285622
52325,-18.185076,-1.858834,2.955347,-15.348155,-10.280353,-8.534275,0.017474,-0.395174,0.141150,-0.181896,-0.018719,0.029192,0.999998,0.000087,-0.001976,0.000706,-0.960358,-0.170886,-0.012712,-0.219885,19.526630,-2.908074,25.291974
52326,-18.321147,-1.127716,2.779426,-15.758305,-9.727773,-8.506574,-0.419331,0.185745,0.810940,-0.183138,-0.011961,0.027989,0.999989,-0.002097,0.000929,0.004055,-0.959795,-0.168688,-0.012415,-0.224019,19.257612,-2.966237,25.772284
52327,-17.029255,-2.771535,1.872510,-13.864181,-10.438428,-9.810083,-0.770040,0.742964,1.501557,-0.170007,-0.028918,0.019467,0.999958,-0.003850,0.003715,0.007508,-0.958666,-0.164223,-0.013804,-0.231947,18.764087,-2.849653,26.731478
52328,-15.161255,-3.430875,2.845710,-11.603385,-10.689879,-8.913044,-0.991355,1.243001,1.983118,-0.151082,-0.035664,0.029572,0.999919,-0.004957,0.006215,0.009915,-0.957008,-0.158124,-0.016947,-0.242580,18.130304,-2.537766,28.042273
52329,-13.641612,-6.882047,3.213147,-8.355074,-13.182905,-9.402474,-1.090409,1.583688,2.154769,-0.135403,-0.070102,0.033586,0.999896,-0.005452,0.007918,0.010773,-0.955014,-0.151119,-0.021472,-0.254265,17.442787,-2.053698,29.502395
52330,-7.595050,-11.291187,4.885438,-0.518092,-14.410318,-8.757614,-0.067931,1.529723,0.930025,-0.075048,-0.113246,0.049469,0.999960,-0.000340,0.007649,0.004650,-0.953670,-0.148915,-0.027951,-0.259917,17.376425,-1.380870,30.279646
52331,37.552192,10.483492,25.048552,31.694007,19.567081,17.740347,6.056207,0.913850,-4.710876,0.378880,0.088327,0.251601,0.999254,0.030274,0.004568,-0.023549,-0.954438,-0.175780,-0.043649,-0.237160,20.869839,-0.003201,27.908104
52332,-4.274565,39.936048,35.803153,-14.998221,20.116668,37.782621,-0.969825,1.513658,-0.842986,-0.038356,0.401259,0.356390,0.999951,-0.004849,0.007568,-0.004215,-0.955905,-0.169137,-0.050425,-0.234726,20.308814,0.974113,27.766922
52333,-25.742516,-30.513496,-18.480387,-12.892614,-32.402039,-36.625289,-3.453829,1.950164,-0.821335,-0.260435,-0.307171,-0.176981,0.999795,-0.017268,0.009750,-0.004106,-0.959094,-0.150077,-0.056342,-0.233328,18.324306,2.180109,27.698255
52334,-16.560431,7.668175,28.268005,-12.474738,-9.119624,20.073521,5.363731,0.623645,-1.702863,-0.164100,0.070458,0.285139,0.999599,0.026815,0.003118,-0.008513,-0.956489,-0.174501,-0.066810,-0.224086,21.358767,2.842987,26.907163
52335,15.987732,9.125451,7.837323,12.234459,12.513177,-0.115438,-1.964667,0.108535,-1.735713,0.160708,0.090626,0.077394,0.999914,-0.009823,0.000543,-0.008678,-0.960025,-0.164341,-0.066628,-0.216576,20.179252,3.252935,26.004599
52336,-6.108086,4.159845,4.565156,-6.142693,-0.431938,-3.686409,1.590651,1.432194,-1.269838,-0.060486,0.041617,0.046417,0.999923,0.007953,0.007161,-0.006349,-0.959536,-0.169963,-0.076228,-0.211171,21.061123,4.272767,25.617784
52337,-6.076223,19.417061,13.135473,-9.845237,10.129067,9.858379,0.248854,0.726221,-0.788077,-0.059519,0.194243,0.131814,0.999985,0.001244,0.003631,-0.003940,-0.959861,-0.170047,-0.080629,-0.207967,21.177445,4.821788,25.351867
52338,-3.532175,6.602772,7.563473,-3.909436,1.951681,-0.107746,-0.373318,0.744729,-0.015521,-0.035035,0.066172,0.075642,0.999991,-0.001867,0.003724,-0.000078,-0.959880,-0.167447,-0.083792,-0.208735,20.972674,5.218689,25.503527
52339,-4.341647,7.806373,12.103689,-3.998063,1.374600,4.623877,-0.213193,0.565912,0.272744,-0.043180,0.078134,0.121076,0.999994,-0.001066,0.002830,0.001364,-0.959526,-0.165918,-0.086049,-0.210657,20.871797,5.464516,25.772077
52340,-4.275447,1.468713,9.555332,-2.128350,-3.275057,0.009988,-0.369108,0.356950,0.332214,-0.042608,0.014793,0.095602,0.999995,-0.001846,0.001785,0.001661,-0.959319,-0.163888,-0.087062,-0.212765,20.680973,5.583793,26.029751
52341,-1.417408,2.830333,9.807575,-0.013460,-0.908724,0.452904,-0.154249,0.270515,0.302692,-0.014084,0.028358,0.098073,0.999998,-0.000771,0.001353,0.001513,-0.958997,-0.162963,-0.087944,-0.214556,20.610900,5.666956,26.253365
52342,0.856691,1.798937,9.000395,2.231324,-0.547398,-0.885274,-0.102159,0.342054,0.355525,0.008689,0.018051,0.089980,0.999997,-0.000511,0.001710,0.001778,-0.958539,-0.162236,-0.089149,-0.216643,20.574828,5.774367,26.520288
52343,0.855027,0.965712,9.132656,2.606561,-1.270925,-1.057145,-0.061905,0.449015,0.231600,0.008744,0.009695,0.091304,0.999997,-0.000310,0.002245,0.001158,-0.958129,-0.161527,-0.091041,-0.218196,20.558229,5.967754,26.741750
52344,0.705180,0.363084,9.079267,2.728474,-1.817068,-1.308821,0.058258,0.458603,-0.062959,0.007261,0.003602,0.090777,0.999997,0.000291,0.002293,-0.000315,-0.957933,-0.161251,-0.093317,-0.218298,20.594356,6.222028,26.806672
52345,0.693276,1.594732,8.566631,2.154184,-0.621096,-1.363752,0.109321,0.476099,-0.383145,0.007167,0.015887,0.085658,0.999995,0.000547,0.002380,-0.001916,-0.958030,-0.161043,-0.096017,-0.216849,20.641182,6.553459,26.702472
52346,0.056303,3.643056,8.279673,0.782317,0.934594,-0.849309,0.154540,0.532966,-0.559388,0.000885,0.036364,0.082823,0.999992,0.000773,0.002665,-0.002797,-0.958243,-0.160911,-0.099152,-0.214583,20.703553,6.947900,26.515076
52347,-0.270892,4.532287,8.292108,0.223875,1.570198,-0.492926,0.073682,0.578346,-0.606481,-0.002332,0.045300,0.082945,0.999991,0.000368,0.002892,-0.003032,-0.958534,-0.160309,-0.102479,-0.212159,20.716063,7.379289,26.311521
52348,-1.192059,3.916946,8.792368,-0.161866,0.536966,-0.130017,0.047527,0.659913,-0.590544,-0.011515,0.039183,0.087971,0.999990,0.000238,0.003300,-0.002953,-0.958769,-0.159508,-0.106130,-0.209892,20.715520,7.848219,26.133183
52349,-1.691340,3.745280,9.279722,-0.337636,0.081911,0.330275,0.020093,0.654260,-0.582519,-0.016501,0.037492,0.092855,0.999990,0.000100,0.003271,-0.002913,-0.959003,-0.158577,-0.109740,-0.207664,20.698172,8.315319,25.957617
52350,-1.753321,4.637206,9.103049,-0.692633,0.909300,0.489554,0.036574,0.642937,-0.505983,-0.017123,0.046399,0.091094,0.999992,0.000183,0.003215,-0.002530,-0.959133,-0.157781,-0.113227,-0.205786,20.694711,8.757967,25.821065
52351,-1.091020,5.333046,8.520790,-0.446452,1.980100,0.092612,0.021995,0.695707,-0.295870,-0.010535,0.053337,0.085251,0.999993,0.000110,0.003479,-0.001479,-0.959014,-0.156973,-0.116808,-0.204957,20.701363,9.189217,25.809010
52352,-1.398643,5.823156,8.695198,-0.778451,2.257700,0.471680,0.005035,0.787351,-0.018896,-0.013638,0.058231,0.087008,0.999992,0.000025,0.003937,-0.000094,-0.958557,-0.156155,-0.120568,-0.205541,20.725828,9.610590,25.966525
52353,-1.399143,4.568896,8.795272,-0.239928,1.172798,0.124909,-0.043345,0.846714,0.177787,-0.013660,0.045696,0.088001,0.999991,-0.000217,0.004234,0.000889,-0.957883,-0.155157,-0.124431,-0.207132,20.744510,10.026591,26.243278
52354,-2.364554,4.211069,9.482158,-0.693851,0.300956,0.801601,-0.066009,0.840677,0.242803,-0.023298,0.042114,0.094906,0.999990,-0.000330,0.004203,0.001214,-0.957145,-0.154096,-0.128166,-0.209048,20.757868,10.423308,26.554944
52355,-2.630519,3.111304,9.293833,-0.525118,-0.694666,0.297528,-0.088326,0.792678,0.214727,-0.025970,0.031126,0.093028,0.999991,-0.000442,0.003963,0.001074,-0.956466,-0.152958,-0.131690,-0.210795,20.756536,10.802733,26.841489
52356,-2.956497,2.652623,9.625979,-0.476869,-1.285212,0.509966,-0.105442,0.738543,0.135465,-0.029227,0.026557,0.096354,0.999993,-0.000527,0.003693,0.000677,-0.955905,-0.151741,-0.134972,-0.212137,20.736317,11.166537,27.074195
52357,-2.383253,2.257226,9.681897,0.245117,-1.352605,0.317670,-0.084443,0.647084,0.024979,-0.023522,0.022610,0.096886,0.999995,-0.000422,0.003235,0.000125,-0.955494,-0.150643,-0.137946,-0.212857,20.714469,11.506682,27.227452
52358,-2.450886,2.398475,9.544691,0.144264,-1.199968,0.257049,-0.032022,0.610536,-0.060188,-0.024210,0.024007,0.095517,0.999995,-0.000160,0.003053,-0.000301,-0.955152,-0.149775,-0.140839,-0.213112,20.712108,11.841664,27.326947
52359,-2.566101,1.815133,8.798627,0.060131,-1.560874,-0.600997,-0.013752,0.568445,-0.144408,-0.025398,0.018176,0.088057,0.999996,-0.000069,0.002842,-0.000722,-0.954905,-0.148976,-0.143637,-0.212912,20.709691,12.174059,27.371450
52360,-2.405855,0.592242,9.505324,0.933481,-2.681340,-0.409028,0.077171,0.573579,-0.271599,-0.023778,0.005918,0.095124,0.999995,0.000386,0.002868,-0.001358,-0.954714,-0.148516,-0.146626,-0.212048,20.744665,12.532084,27.347633
52361,-2.747104,-0.929456,10.234500,1.488170,-4.295830,-0.195700,0.201558,0.512846,-0.526938,-0.027233,-0.009326,0.102406,0.999993,0.001008,0.002564,-0.002635,-0.954734,-0.148519,-0.149668,-0.209820,20.817106,12.912458,27.171107
52362,-3.432706,-0.305259,10.816628,0.916200,-4.176162,0.703786,0.327956,0.364403,-0.897042,-0.034144,-0.003077,0.108224,0.999987,0.001640,0.001822,-0.004485,-0.955142,-0.149008,-0.152382,-0.205623,20.907797,13.286166,26.760463
52363,-3.157408,1.619336,9.808052,0.168355,-2.139277,0.394386,0.323443,0.202302,-1.242255,-0.031374,0.016230,0.098139,0.999979,0.001617,0.001012,-0.006211,-0.955998,-0.149360,-0.154594,-0.199649,20.940302,13.647242,26.125564
52364,-2.712626,3.901226,9.030640,-0.436882,0.253315,0.379215,0.278732,0.151648,-1.448394,-0.026775,0.039081,0.090381,0.999973,0.001394,0.000758,-0.007242,-0.957089,-0.149396,-0.156641,-0.192680,20.914090,14.020381,25.365374
52365,-2.121025,5.887636,9.082846,-0.465670,2.284323,0.968094,0.148250,0.143034,-1.469938,-0.020712,0.058962,0.090887,0.999972,0.000741,0.000715,-0.007350,-0.958251,-0.148776,-0.158553,-0.185690,20.803507,14.395503,24.589803
52366,-1.833543,6.805134,8.404274,-0.654805,3.431497,0.584355,-0.092926,0.157718,-1.420706,-0.017785,0.068218,0.084025,0.999974,-0.000465,0.000789,-0.007103,-0.959487,-0.147033,-0.160242,-0.179133,20.557892,14.763113,23.842058
52367,-1.899592,6.096547,7.752317,-0.659775,2.998816,-0.249973,-0.270032,0.264365,-1.330739,-0.018487,0.061194,0.077465,0.999976,-0.001350,0.001322,-0.006654,-0.960639,-0.144399,-0.162233,-0.173213,20.223070,15.169295,23.163002
52368,-1.838781,2.723676,10.378730,1.367177,-0.502108,0.975983,-0.426493,0.396350,-1.287069,-0.018005,0.027575,0.103765,0.999975,-0.002132,0.001982,-0.006435,-0.961713,-0.140938,-0.164661,-0.167722,19.806766,15.630733,22.531167
52369,-6.233442,3.574552,15.326377,-0.922133,-2.320537,6.929309,-0.030144,0.264033,-1.386347,-0.061882,0.036199,0.153340,0.999975,-0.000151,0.001320,-0.006932,-0.962652,-0.139396,-0.166868,-0.161321,19.588898,16.039347,21.812950
52370,-1.611927,10.828570,10.348155,-0.485840,7.159272,3.432838,-1.215993,-0.354722,-1.721933,-0.015365,0.109047,0.102792,0.999943,-0.006080,-0.001774,-0.008610,-0.965128,-0.132363,-0.165339,-0.153855,18.601437,16.165800,20.779711
52371,2.557440,11.464727,6.962248,1.946480,10.029494,-0.753452,-1.101491,0.315391,-1.294862,0.026427,0.114859,0.068949,0.999963,-0.005507,0.001577,-0.006474,-0.966552,-0.125702,-0.166856,-0.148777,17.777368,16.567607,20.110045
52372,4.986564,12.766810,10.128011,5.015678,11.573639,1.646879,-1.317365,0.662231,-0.639316,0.050608,0.128170,0.100270,0.999968,-0.006587,0.003311,-0.003197,-0.967270,-0.118283,-0.169442,-0.147262,16.948926,17.035001,19.869623
52373,7.908852,12.600480,13.699043,8.985040,11.947995,3.806826,-1.411018,0.828793,-0.101334,0.079717,0.126925,0.135768,0.999966,-0.007055,0.004144,-0.000507,-0.967441,-0.110746,-0.172451,-0.148509,16.164315,17.504312,19.959166
52374,13.737760,11.036017,12.224328,14.031870,12.846569,0.087842,-0.986913,0.755844,0.019711,0.137826,0.110973,0.121176,0.999981,-0.004935,0.003779,0.000099,-0.967300,-0.105404,-0.175330,-0.149936,15.638079,17.913814,20.101751
52375,14.073275,13.055858,14.634643,14.696834,14.625173,2.548133,-0.417654,0.648181,0.108352,0.141135,0.130940,0.145616,0.999992,-0.002088,0.003241,0.000542,-0.966860,-0.102995,-0.178061,-0.151225,15.451276,18.250296,20.275666
52376,16.178794,10.662796,14.730455,17.193773,13.191209,1.268801,-0.500295,0.260021,0.184994,0.161880,0.107145,0.146827,0.999996,-0.002501,0.001300,0.000925,-0.966739,-0.100523,-0.178814,-0.152763,15.209435,18.362118,20.431519
52377,14.223535,8.576673,14.351409,15.808534,10.710170,1.013825,-0.100235,-0.300064,0.076940,0.141987,0.085893,0.143684,0.999999,-0.000501,-0.001500,0.000385,-0.966996,-0.100353,-0.177192,-0.153136,15.152898,18.176916,20.435408
52378,15.454951,9.069755,12.541121,16.070313,11.793560,-0.809886,0.157587,-0.778140,-0.117053,0.154113,0.090508,0.126083,0.999992,0.000788,-0.003891,-0.000585,-0.967686,-0.101585,-0.173579,-0.152104,15.182282,17.760336,20.251419
52379,12.569988,9.467524,11.535095,12.997175,11.257578,-0.591328,0.492048,-1.019842,-0.031196,0.125123,0.094370,0.116222,0.999984,0.002460,-0.005099,-0.000156,-0.968329,-0.104741,-0.168952,-0.151072,15.412652,17.190798,20.078341
52380,8.955690,8.817100,11.611570,9.894822,9.336335,0.564933,0.661256,-1.129772,0.378452,0.088731,0.087954,0.116910,0.999977,0.003306,-0.005649,0.001892,-0.968626,-0.109092,-0.163750,-0.151815,15.799809,16.505151,20.121218
52381,5.463199,8.025024,11.447544,6.785188,7.355257,1.374372,0.635031,-1.287589,0.770876,0.053583,0.080093,0.115077,0.999967,0.003175,-0.006438,0.003854,-0.968717,-0.113810,-0.157473,-0.154390,16.230448,15.661321,20.357697
52382,2.684770,5.319846,10.782413,4.621822,3.924584,0.911227,0.533211,-1.192962,1.069598,0.025919,0.053051,0.108122,0.999964,0.002666,-0.005965,0.005348,-0.968490,-0.118129,-0.151462,-0.158530,16.641017,14.828380,20.772986
52383,0.562783,4.486781,10.663777,2.746313,2.345922,1.192563,0.461007,-1.192688,1.209939,0.004721,0.044652,0.106771,0.999961,0.002305,-0.005963,0.006050,-0.968123,-0.122262,-0.145224,-0.163398,17.027812,13.959450,21.259876
52384,-0.605836,3.177242,10.900069,1.994531,0.588812,1.365251,0.310030,-1.094761,1.258886,-0.006854,0.031562,0.109014,0.999964,0.001550,-0.005474,0.006294,-0.967662,-0.125543,-0.139373,-0.168655,17.324258,13.143127,21.784596
52385,-0.875229,3.143608,10.732006,1.571393,0.395784,1.286678,0.284687,-1.176645,1.241603,-0.009578,0.031226,0.107310,0.999962,0.001423,-0.005883,0.006208,-0.967217,-0.128815,-0.133024,-0.173787,17.597526,12.271995,22.278776
52386,-1.098073,3.449345,10.676671,1.121800,0.503154,1.393606,0.269125,-1.165058,1.218991,-0.011812,0.034279,0.106746,0.999964,0.001346,-0.005825,0.006095,-0.966720,-0.131912,-0.126802,-0.178809,17.845803,11.419443,22.757247
52387,-0.688935,4.310046,10.119798,0.913585,1.452018,1.073808,0.212013,-1.197342,1.279959,-0.007770,0.042945,0.101199,0.999961,0.001060,-0.005987,0.006400,-0.966153,-0.134853,-0.120241,-0.184132,18.063791,10.525926,23.258126
52388,-1.151957,4.672033,9.562145,0.072370,1.621512,0.768069,0.178512,-1.099374,1.437526,-0.012380,0.046548,0.095597,0.999959,0.000893,-0.005497,0.007188,-0.965325,-0.137562,-0.114088,-0.190282,18.267407,9.666490,23.859808
52389,-1.365086,4.967445,9.302677,-0.440304,1.755454,0.665885,0.159491,-1.072141,1.596976,-0.014545,0.049487,0.092990,0.999953,0.000797,-0.005361,0.007985,-0.964257,-0.140296,-0.107845,-0.197219,18.470299,8.780113,24.548789
52390,-0.718256,4.721100,9.700775,0.177334,1.610368,0.877590,0.157584,-1.080937,1.718271,-0.008112,0.047068,0.097003,0.999948,0.000788,-0.005405,0.008591,-0.962979,-0.143016,-0.101545,-0.204711,18.665087,7.875329,25.298861
52391,-1.189282,4.176385,9.751045,-0.190152,0.804102,0.829367,0.349675,-1.208385,1.821527,-0.012861,0.041479,0.097507,0.999939,0.001748,-0.006042,0.009107,-0.961411,-0.146892,-0.094659,-0.212490,18.965979,6.868171,26.074819
