// General information: 
//  MT Manager version: 2022.0.0 
//  XDA version: 2022.0.0 build 7085 rev 119802 built on 2022-11-08
// Device information: 
//  DeviceId: 00B4737C
//  ProductCode: MTW2-3A7G6
//  Firmware Version: 4.14.0
//  Hardware Version: 2.0.0
// Device settings: 
//  Filter Profile: human(46.1)
//  Option Flags: Orientation Smoother Disabled, Position/Velocity Smoother Disabled, Continuous Zero Rotation Update Disabled, AHS Disabled, ICC Disabled
// Coordinate system: ENU
PacketCounter,Acc_X,Acc_Y,Acc_Z,FreeAcc_E,FreeAcc_N,FreeAcc_U,Gyr_X,Gyr_Y,Gyr_Z,VelInc_X,VelInc_Y,VelInc_Z,OriInc_q0,OriInc_q1,OriInc_q2,OriInc_q3,Quat_q0,Quat_q1,Quat_q2,Quat_q3,Roll,Pitch,Yaw
28325,-2.865000,3.806257,8.889426,-0.076891,0.039450,0.272462,-0.030924,-0.002654,-0.006392,-0.028650,0.038077,0.088888,1.000000,-0.000155,-0.000013,-0.000032,0.423197,0.219079,-0.114407,-0.871677,23.674707,16.564689,-124.711992
28326,-3.192058,3.623047,8.892275,-0.020731,0.410599,0.297666,-0.028897,-0.055375,0.006540,-0.031946,0.036242,0.088909,1.000000,-0.000144,-0.000277,0.000033,0.423268,0.218737,-0.114391,-0.871730,23.652378,16.530328,-124.717889
28327,-2.750686,3.966803,8.861836,-0.006137,-0.144260,0.277560,0.033246,-0.071314,0.000922,-0.027539,0.039653,0.088615,1.000000,0.000166,-0.000357,0.000005,0.423240,0.218460,-0.114673,-0.871776,23.663581,16.488807,-124.730419
28328,-3.235691,3.788139,8.976593,0.086598,0.357885,0.447104,0.000212,-0.119919,0.014797,-0.032414,0.037879,0.089747,1.000000,0.000001,-0.000600,0.000074,0.423278,0.217894,-0.114929,-0.871865,23.654838,16.418675,-124.747265
28329,-3.141805,3.690928,9.161646,-0.112167,0.360345,0.545266,0.067632,-0.179660,0.019764,-0.031504,0.036875,0.091601,1.000000,0.000338,-0.000898,0.000099,0.423239,0.217207,-0.115608,-0.871966,23.681340,16.315975,-124.774628
28330,-3.531638,3.531162,9.718181,-0.264063,0.800182,1.081096,0.105950,-0.299571,0.028617,-0.035467,0.035255,0.097147,0.999999,0.000530,-0.001498,0.000143,0.423118,0.216073,-0.116721,-0.872158,23.723298,16.148421,-124.827055
28331,-5.465070,3.391356,10.611370,0.294623,2.481584,2.341483,0.266336,-0.598053,0.114849,-0.054987,0.033741,0.105995,0.999994,0.001332,-0.002990,0.000574,0.423024,0.213924,-0.119255,-0.872391,23.850380,15.804463,-124.904204
28332,-4.354227,3.134894,10.444743,-0.384342,1.858103,1.775142,0.506208,-1.021647,0.199530,-0.044106,0.031041,0.104302,0.999983,0.002531,-0.005108,0.000998,0.422779,0.210380,-0.123821,-0.872735,24.100309,15.219336,-125.038878
28333,-3.312070,3.566841,8.707950,0.185788,0.835937,0.126406,0.719636,-1.305186,0.207225,-0.033725,0.035321,0.086988,0.999972,0.003598,-0.006526,0.001036,0.422143,0.206035,-0.129919,-0.873193,24.456477,14.485115,-125.242070
28334,-0.698552,5.063061,7.696135,0.242455,-2.074843,-0.813337,0.630563,-1.156415,0.105077,-0.007457,0.050384,0.077078,0.999978,0.003153,-0.005782,0.000525,0.421234,0.202209,-0.135203,-0.873724,24.758743,13.853786,-125.466470
28335,-2.156845,5.926806,8.315806,1.389104,-1.317736,0.447187,0.142621,-0.929562,0.057996,-0.021972,0.059202,0.083099,0.999989,0.000713,-0.004648,0.000290,0.420763,0.198373,-0.137821,-0.874421,24.790224,13.352611,-125.659873
28336,-2.441496,4.644202,8.126770,0.818442,-0.264780,-0.177680,-0.145440,-0.907404,0.074513,-0.024801,0.046492,0.081122,0.999989,-0.000727,-0.004537,0.000373,0.420645,0.194010,-0.139151,-0.875246,24.662033,12.858651,-125.839664
28337,-1.363469,4.280021,8.115104,0.019317,-0.848446,-0.576242,-0.149193,-0.788518,0.029479,-0.013961,0.042859,0.081064,0.999992,-0.000746,-0.003943,0.000147,0.420413,0.190190,-0.140164,-0.876034,24.534258,12.437370,-126.012416
28338,-1.503339,4.131397,8.186789,0.022592,-0.606820,-0.539991,-0.296407,-0.695954,-0.052091,-0.015307,0.041439,0.081754,0.999993,-0.001482,-0.003480,-0.000260,0.420017,0.186517,-0.140262,-0.876997,24.319380,12.082807,-126.205286
28339,-0.819030,3.858678,7.945930,-0.397891,-0.981981,-1.005009,-0.303734,-0.580142,-0.156295,-0.008390,0.038714,0.079376,0.999994,-0.001519,-0.002901,-0.000781,0.419249,0.183408,-0.139984,-0.878064,24.095787,11.812560,-126.424201
28340,-0.757497,3.969009,7.610352,-0.165208,-1.121952,-1.271138,-0.362516,-0.433129,-0.255776,-0.007689,0.039838,0.076015,0.999995,-0.001813,-0.002166,-0.001279,0.418194,0.180888,-0.139049,-0.879237,23.836018,11.641501,-126.660215
28341,-0.387449,4.047812,7.802397,-0.370668,-1.454946,-1.143324,-0.480938,-0.231420,-0.345241,-0.003895,0.040672,0.077922,0.999995,-0.002405,-0.001157,-0.001726,0.416992,0.179067,-0.137089,-0.880488,23.508847,11.595617,-126.895560
28342,-2.181367,4.426353,8.840028,0.540178,-0.217851,0.294612,-0.531911,-0.104918,-0.332412,-0.021786,0.044535,0.088271,0.999995,-0.002660,-0.000525,-0.001662,0.415972,0.177687,-0.134651,-0.881626,23.159946,11.612084,-127.094648
28343,-1.512706,4.221280,8.173559,0.333007,-0.710184,-0.522959,-0.555498,-0.104317,-0.247550,-0.015117,0.042458,0.081610,0.999995,-0.002777,-0.000522,-0.001238,0.415346,0.176201,-0.132182,-0.882592,22.806661,11.608590,-127.247748
28344,-0.977438,4.798933,7.989028,0.522782,-1.537165,-0.583744,-0.422324,0.174821,-0.083721,-0.009684,0.048162,0.079797,0.999997,-0.002112,0.000874,-0.000419,0.415504,0.176114,-0.129864,-0.882879,22.560199,11.715772,-127.249704
28345,-1.516330,4.340715,8.479869,0.350625,-0.840867,-0.209625,-0.716671,0.343538,0.026750,-0.015024,0.043709,0.084668,0.999992,-0.003583,0.001718,0.000134,0.416517,0.176087,-0.125993,-0.882968,22.164861,11.888136,-127.154643
28346,-1.544214,2.447979,9.160161,-1.196432,0.341069,-0.287064,-0.667532,0.527659,0.091951,-0.015212,0.024778,0.091560,0.999991,-0.003338,0.002638,0.000460,0.417881,0.176931,-0.122010,-0.882714,21.813594,12.145054,-126.985118
28347,-3.095536,1.912197,9.984558,-0.987493,1.875021,0.600722,-0.452256,0.452127,0.136863,-0.030743,0.019327,0.099872,0.999995,-0.002261,0.002261,0.000684,0.419203,0.177860,-0.119173,-0.882288,21.587791,12.352940,-126.808367
28348,-1.997160,0.971045,9.291030,-2.002447,1.510902,-0.595199,-0.205300,0.345150,0.106415,-0.019816,0.009795,0.092935,0.999998,-0.001026,0.001726,0.000532,0.420101,0.178853,-0.117621,-0.881868,21.495414,12.510837,-126.672059
28349,-1.734278,1.873064,9.108965,-1.469666,0.710782,-0.494743,0.151288,0.360225,0.030246,-0.017181,0.018659,0.091135,0.999998,0.000756,0.001801,0.000151,0.420355,0.180705,-0.117541,-0.881380,21.599292,12.692662,-126.573621
28350,-2.137597,3.257202,9.287094,-0.379818,0.164569,0.249980,0.230965,0.396175,-0.003680,-0.021191,0.032465,0.092951,0.999997,0.001155,0.001981,-0.000018,0.420404,0.182902,-0.117706,-0.880882,21.746987,12.900717,-126.485789
28351,-2.987606,3.463753,9.365891,0.186566,0.691853,0.585856,0.137009,0.330325,-0.011456,-0.029719,0.034575,0.093732,0.999998,0.000685,0.001652,-0.000057,0.420468,0.184615,-0.117587,-0.880510,21.836916,13.075088,-126.415645
28352,-2.076316,3.121383,8.768633,-0.355355,0.145934,-0.284025,0.168308,0.252449,-0.043989,-0.020646,0.031145,0.087739,0.999999,0.000842,0.001262,-0.000220,0.420309,0.186071,-0.117740,-0.880259,21.937267,13.215018,-126.380424
28353,-2.092441,4.080410,9.209021,0.103474,-0.424567,0.465593,0.181679,0.302796,-0.090953,-0.020766,0.040730,0.092159,0.999998,0.000908,0.001514,-0.000455,0.419963,0.187802,-0.117801,-0.880048,22.041932,13.391594,-126.359031
28354,-3.219718,4.370018,9.335060,0.874934,0.271852,0.946845,0.066974,0.194507,-0.050498,-0.032095,0.043677,0.093396,0.999999,0.000335,0.000973,-0.000252,0.419834,0.188793,-0.117624,-0.879921,22.080707,13.502052,-126.339703
28355,-1.905416,4.113956,8.664002,0.215173,-0.643013,-0.057669,0.015100,0.156860,-0.034021,-0.018979,0.041136,0.086658,1.000000,0.000075,0.000784,-0.000170,0.419808,0.189498,-0.117312,-0.879824,22.089817,13.588859,-126.319266
28356,-2.564149,4.039741,9.076868,0.357519,-0.076932,0.441586,-0.084670,0.184317,-0.046313,-0.025548,0.040442,0.090775,0.999999,-0.000423,0.000922,-0.000232,0.419834,0.190123,-0.116492,-0.879785,22.041783,13.693004,-126.299883
28357,-2.265122,3.498102,8.854742,-0.096946,-0.002611,-0.026752,-0.082142,0.122224,-0.057829,-0.022587,0.035024,0.088547,1.000000,-0.000411,0.000611,-0.000289,0.419774,0.190485,-0.115802,-0.879827,21.990331,13.766549,-126.300334
28358,-2.174198,3.632495,8.848293,-0.054257,-0.173839,-0.005483,-0.083128,0.140725,-0.080389,-0.021665,0.036370,0.088483,1.000000,-0.000416,0.000704,-0.000402,0.419622,0.190941,-0.115049,-0.879899,21.936447,13.854866,-126.309394
28359,-2.248561,3.900324,8.869937,0.161358,-0.299235,0.128577,-0.060119,0.180777,-0.068992,-0.022392,0.039038,0.088708,0.999999,-0.000301,0.000904,-0.000345,0.419526,0.191613,-0.114322,-0.879894,21.899209,13.961913,-126.303042
28360,-2.955214,3.796268,9.115418,0.387602,0.307703,0.482497,-0.162833,0.157354,-0.036826,-0.029473,0.038042,0.091146,0.999999,-0.000814,0.000787,-0.000184,0.419652,0.191950,-0.113224,-0.879902,21.806245,14.049766,-126.284755
28361,-1.973424,3.100256,8.657040,-0.459142,-0.063460,-0.419313,-0.105861,0.127922,-0.047577,-0.019671,0.031053,0.086567,1.000000,-0.000529,0.000640,-0.000238,0.419662,0.192281,-0.112427,-0.879927,21.742801,14.124159,-126.278520
28362,-1.840466,3.794542,8.602532,-0.033463,-0.620157,-0.252162,-0.050905,0.239134,-0.063746,-0.018290,0.037973,0.086038,0.999999,-0.000255,0.001196,-0.000319,0.419607,0.193227,-0.111624,-0.879848,21.714745,14.261287,-126.257301
28363,-2.451649,3.927835,8.801070,0.315472,-0.244626,0.124005,-0.145326,0.300074,-0.049772,-0.024375,0.039348,0.088019,0.999999,-0.000727,0.001500,-0.000249,0.419742,0.194234,-0.110290,-0.879731,21.637702,14.427791,-126.214700
28364,-2.125806,3.323514,8.705001,-0.256168,-0.157558,-0.260133,-0.170964,0.341504,-0.030914,-0.021104,0.033313,0.087058,0.999998,-0.000855,0.001708,-0.000155,0.420002,0.195358,-0.108775,-0.879546,21.551019,14.612580,-126.153415
28365,-2.649487,3.120110,9.025255,-0.249041,0.353374,0.087973,-0.108717,0.384724,-0.029191,-0.026317,0.031254,0.090286,0.999998,-0.000544,0.001924,-0.000146,0.420234,0.196801,-0.107444,-0.879277,21.502684,14.819976,-126.081635
28366,-2.237796,2.789010,8.711828,-0.592309,0.199686,-0.416333,-0.065978,0.343056,-0.045805,-0.022222,0.027924,0.087147,0.999998,-0.000330,0.001715,-0.000229,0.420323,0.198160,-0.106372,-0.879060,21.474472,15.008828,-126.028471
28367,-1.578837,2.907568,8.470264,-0.799117,-0.422889,-0.764235,0.040857,0.439320,-0.090505,-0.015589,0.029065,0.084743,0.999997,0.000204,0.002197,-0.000453,0.420163,0.200189,-0.105522,-0.878779,21.506579,15.258248,-125.978745
28368,-2.766234,3.763590,9.508838,-0.022840,-0.047677,0.781252,0.076972,0.571780,-0.063262,-0.027378,0.037608,0.095181,0.999996,0.000385,0.002859,-0.000316,0.420150,0.202860,-0.104580,-0.878285,21.571500,15.572625,-125.885025
28369,-3.878270,3.154321,9.415564,0.185711,1.165339,0.782165,0.016933,0.424937,0.023147,-0.038586,0.031531,0.094240,0.999998,0.000085,0.002125,0.000116,0.420502,0.204713,-0.103769,-0.877783,21.606655,15.790308,-125.774871
28370,-2.887151,2.652861,9.342935,-0.720207,0.681242,0.271005,0.124260,0.367914,0.052474,-0.028707,0.026463,0.093499,0.999998,0.000621,0.001840,0.000262,0.420838,0.206527,-0.103579,-0.877219,21.704915,15.971466,-125.661010
28371,-3.474384,2.927875,9.246700,-0.191844,0.957671,0.443589,0.253846,0.270271,0.049859,-0.034626,0.029153,0.092551,0.999998,0.001269,0.001351,0.000249,0.420982,0.208184,-0.104158,-0.876690,21.871337,16.100804,-125.569047
28372,-2.655738,3.489343,8.996251,-0.185347,-0.031736,0.193585,0.362944,0.220410,0.046990,-0.026466,0.034724,0.090055,0.999998,0.001815,0.001102,0.000235,0.420967,0.209854,-0.105318,-0.876160,22.097208,16.204140,-125.489923
28373,-3.564222,4.139561,9.120690,0.675238,0.282175,0.793487,0.321966,0.193506,0.068658,-0.035568,0.041236,0.091308,0.999998,0.001610,0.000968,0.000343,0.421074,0.211306,-0.106378,-0.875631,22.301341,16.288090,-125.404518
28374,-2.667846,3.697335,8.400962,0.169255,-0.139493,-0.256763,0.275701,0.096731,0.072054,-0.026651,0.036848,0.084073,0.999999,0.001379,0.000484,0.000360,0.421192,0.212237,-0.107442,-0.875219,22.473645,16.319897,-125.338863
28375,-1.984889,4.271216,8.458552,0.132433,-1.023334,-0.186404,0.266887,0.191865,0.026366,-0.019773,0.042597,0.084661,0.999999,0.001334,0.000959,0.000132,0.421172,0.213588,-0.108218,-0.874804,22.639880,16.411779,-125.276199
28376,-2.833976,4.384553,8.743492,0.523085,-0.429394,0.348333,0.100807,0.214555,-0.008853,-0.028244,0.043803,0.087487,0.999999,0.000504,0.001073,-0.000044,0.421185,0.214708,-0.108183,-0.874529,22.707268,16.523430,-125.227791
28377,-2.939087,3.939990,8.851380,0.208046,-0.080353,0.309512,0.016776,0.174105,-0.023034,-0.029309,0.039396,0.088543,1.000000,0.000084,0.000871,-0.000115,0.421206,0.215481,-0.107849,-0.874370,22.721603,16.616654,-125.196099
28378,-3.409388,3.705395,9.157756,0.152565,0.425695,0.628283,0.017192,0.122080,-0.022600,-0.034034,0.037050,0.091602,1.000000,0.000086,0.000610,-0.000113,0.421197,0.216028,-0.107628,-0.874266,22.732980,16.682435,-125.176485
28379,-3.434047,3.541077,9.004747,0.117292,0.543247,0.439556,0.066232,0.019949,-0.000541,-0.034331,0.035381,0.090063,1.000000,0.000331,0.000100,-0.000003,0.421189,0.216220,-0.107857,-0.874194,22.769030,16.689215,-125.166769
28380,-2.925985,3.673142,8.800909,0.018771,0.067147,0.162507,0.089672,-0.035361,0.003945,-0.029276,0.036691,0.088020,1.000000,0.000448,-0.000177,0.000020,0.421133,0.216217,-0.108313,-0.874165,22.815698,16.665919,-125.168916
28381,-3.000015,3.609383,9.160434,-0.155260,0.174694,0.477438,0.058188,-0.052509,-0.010646,-0.030022,0.036069,0.091607,1.000000,0.000291,-0.000263,-0.000053,0.421035,0.216079,-0.108652,-0.874205,22.840761,16.636717,-125.183591
28382,-3.753770,3.276494,9.337369,-0.049656,0.986490,0.724722,0.105204,-0.173167,0.008259,-0.037620,0.032714,0.093358,0.999999,0.000526,-0.000866,0.000041,0.420906,0.215504,-0.109471,-0.874307,22.887863,16.539711,-125.215403
28383,-2.465467,3.323198,8.498896,-0.335251,-0.033564,-0.366005,0.264665,-0.287561,-0.001690,-0.024777,0.033120,0.084997,0.999998,0.001323,-0.001438,-0.000008,0.420510,0.214770,-0.111212,-0.874458,23.017076,16.384523,-125.277995
28384,-2.573166,4.505346,8.664961,0.458162,-0.654591,0.255204,0.165543,-0.205495,-0.040574,-0.025812,0.044987,0.086660,0.999999,0.000828,-0.001027,-0.000203,0.420083,0.214207,-0.112310,-0.874661,23.089135,16.281531,-125.344483
28385,-2.748913,4.120294,8.638437,0.310028,-0.260473,0.136782,0.016528,-0.222491,-0.044462,-0.027576,0.041202,0.086357,0.999999,0.000083,-0.001112,-0.000222,0.419789,0.213257,-0.112786,-0.874973,23.074080,16.170406,-125.417076
28386,-3.091452,3.939703,8.848392,0.293640,0.137734,0.349357,-0.013214,-0.245190,-0.049338,-0.031013,0.039411,0.088443,0.999999,-0.000066,-0.001226,-0.000247,0.419492,0.212149,-0.113175,-0.875335,23.040079,16.048457,-125.497577
28387,-2.932642,3.662654,8.885289,0.018610,0.201507,0.233345,-0.050454,-0.311474,-0.066076,-0.029453,0.036659,0.088798,0.999999,-0.000252,-0.001557,-0.000330,0.419128,0.210681,-0.113521,-0.875819,22.978051,15.895158,-125.601836
28388,-2.493570,3.596124,8.571692,-0.103312,-0.089924,-0.189535,-0.012480,-0.372663,-0.118409,-0.025074,0.035981,0.085668,0.999998,-0.000062,-0.001863,-0.000592,0.418453,0.209055,-0.114107,-0.876455,22.926593,15.721247,-125.749460
28389,-0.934817,4.492273,7.443631,0.168607,-1.879866,-1.274555,0.084509,-0.217063,-0.142873,-0.009397,0.044898,0.074445,0.999999,0.000423,-0.001085,-0.000714,0.417660,0.208326,-0.114766,-0.876920,22.937057,15.634787,-125.873905
28390,-2.867009,6.122539,8.429693,1.923756,-1.369950,0.731852,-0.186315,0.200751,-0.004598,-0.028584,0.061305,0.084269,0.999999,-0.000932,0.001004,-0.000023,0.417991,0.208784,-0.113510,-0.876817,22.839134,15.738029,-125.826115
28391,-1.958460,2.798727,8.621767,-0.932913,-0.034934,-0.586020,-0.722057,0.221499,0.060074,-0.019498,0.028292,0.086138,0.999993,-0.003610,0.001107,0.000300,0.419168,0.208174,-0.109929,-0.876857,22.445126,15.838114,-125.739308
28392,-3.140452,1.357698,9.285889,-1.547630,1.757521,-0.197628,-0.214095,0.294556,0.016863,-0.031269,0.013674,0.092890,0.999998,-0.001070,0.001473,0.000084,0.419668,0.208972,-0.108375,-0.876621,22.340306,15.986759,-125.659282
28393,-2.274947,2.727168,8.899763,-0.922760,0.200708,-0.277133,0.120058,0.202509,-0.004491,-0.022659,0.027219,0.089037,0.999999,0.000600,0.001013,-0.000022,0.419686,0.210079,-0.108454,-0.876338,22.417944,16.091192,-125.610627
28394,-2.252478,3.022457,8.652452,-0.638520,-0.015109,-0.396433,0.087443,0.254217,-0.041834,-0.022408,0.030191,0.086566,0.999999,0.000437,0.001271,-0.000209,0.419591,0.211364,-0.108245,-0.876100,22.474730,16.231245,-125.571906
28395,-2.551271,3.775680,9.157607,-0.209920,-0.260945,0.410534,0.136864,0.286945,-0.087252,-0.025365,0.037705,0.091638,0.999999,0.000684,0.001435,-0.000436,0.419263,0.212918,-0.108134,-0.875895,22.554916,16.398405,-125.550463
28396,-3.210802,3.492656,8.666239,0.166759,0.411660,0.057180,0.110683,0.197073,-0.087846,-0.032007,0.034893,0.086713,0.999999,0.000553,0.000985,-0.000439,0.418910,0.214026,-0.108097,-0.875798,22.614421,16.518262,-125.549823
28397,-2.600292,4.247655,8.852135,0.236405,-0.546805,0.326811,0.140304,0.231485,-0.091255,-0.025881,0.042426,0.088581,0.999999,0.000702,0.001157,-0.000456,0.418527,0.215346,-0.108114,-0.875655,22.692520,16.656966,-125.543078
28398,-3.890311,4.024696,9.040145,0.695262,0.587810,0.781084,0.022864,0.163380,-0.044197,-0.038820,0.040245,0.090438,1.000000,0.000114,0.000817,-0.000221,0.418440,0.216098,-0.107810,-0.875549,22.706471,16.749362,-125.525876
28399,-2.070514,3.831321,8.386481,-0.157539,-0.723501,-0.391923,0.098499,0.158848,-0.023495,-0.020634,0.038274,0.083900,1.000000,0.000492,0.000794,-0.000117,0.418368,0.216977,-0.107866,-0.875360,22.766657,16.834632,-125.497255
28400,-3.794709,4.320817,9.343541,0.670699,0.309065,1.133802,-0.009837,0.247201,0.030601,-0.037838,0.043207,0.093480,0.999999,-0.000049,0.001236,0.000153,0.418688,0.217987,-0.107324,-0.875022,22.779615,16.954699,-125.419186
28401,-3.044574,2.635874,8.952273,-0.724090,0.764942,-0.053025,-0.091904,0.105275,0.081346,-0.030409,0.026388,0.089527,1.000000,-0.000460,0.000526,0.000407,0.419250,0.218175,-0.106774,-0.874773,22.744107,16.988418,-125.345187
28402,-2.800388,2.672241,9.050628,-0.890260,0.549569,-0.024823,0.179107,0.107696,0.034385,-0.027960,0.026637,0.090545,0.999999,0.000896,0.000538,0.000172,0.419306,0.218969,-0.107354,-0.874477,22.856641,17.033925,-125.297312
28403,-3.418997,3.211384,9.083638,-0.214131,0.702586,0.384149,0.225401,0.054400,0.029024,-0.034170,0.032006,0.090882,0.999999,0.001127,0.000272,0.000145,0.419257,0.219627,-0.108242,-0.874226,22.991092,17.052301,-125.264826
28404,-2.937853,3.675243,8.634163,0.029537,0.049710,0.020101,0.314028,0.006921,0.052642,-0.029385,0.036609,0.086400,0.999999,0.001570,0.000035,0.000263,0.419189,0.220252,-0.109644,-0.873927,23.177039,17.040363,-125.230320
28405,-3.077657,4.133194,8.841119,0.299031,-0.108916,0.415671,0.236060,0.047122,0.079679,-0.030772,0.041215,0.088467,0.999999,0.001180,0.000236,0.000398,0.419352,0.220873,-0.110647,-0.873565,23.325270,17.043267,-125.170739
28406,-3.221719,3.684269,8.786895,0.079681,0.298601,0.240535,0.194614,-0.002067,0.107534,-0.032238,0.036740,0.087904,0.999999,0.000973,-0.000010,0.000538,0.419648,0.221177,-0.111606,-0.873224,23.450982,17.013943,-125.108251
28407,-2.948356,3.629381,8.823087,-0.140892,0.137525,0.170962,0.242737,-0.028433,0.095794,-0.029513,0.036173,0.088271,0.999999,0.001214,-0.000142,0.000479,0.419830,0.221473,-0.112815,-0.872906,23.600302,16.973227,-125.058049
28408,-3.253870,3.697498,8.854130,0.042772,0.357695,0.312772,0.272159,-0.085805,0.094660,-0.032594,0.036839,0.088578,0.999999,0.001361,-0.000429,0.000473,0.419935,0.221581,-0.114273,-0.872638,23.762369,16.902621,-125.022955
28409,-2.980193,4.017827,8.883298,0.082178,-0.027663,0.381913,0.293712,-0.128963,0.077425,-0.029875,0.040036,0.088873,0.999999,0.001469,-0.000645,0.000387,0.419920,0.221555,-0.115895,-0.872439,23.930727,16.813216,-125.007599
28410,-3.729106,3.805343,8.894494,0.334954,0.725217,0.524654,0.258974,-0.266672,0.089376,-0.037427,0.037922,0.088944,0.999998,0.001295,-0.001333,0.000447,0.419911,0.220848,-0.117669,-0.872385,24.071486,16.648986,-125.019858
28411,-2.252863,3.907069,8.481328,-0.210635,-0.464571,-0.220338,0.320484,-0.334282,0.046816,-0.022680,0.038929,0.084838,0.999997,0.001602,-0.001671,0.000234,0.419607,0.219998,-0.119804,-0.872455,24.235895,16.459379,-125.072187
28412,-2.761599,4.568269,8.761030,0.382588,-0.430346,0.430335,0.216684,-0.312987,-0.001867,-0.027753,0.045588,0.087616,0.999998,0.001083,-0.001565,-0.000009,0.419215,0.219053,-0.121389,-0.872662,24.335053,16.292522,-125.146315
28413,-3.882219,3.908485,9.215459,0.348211,0.905327,0.879905,0.077402,-0.444852,-0.002742,-0.039027,0.039050,0.092083,0.999997,0.000387,-0.002224,-0.000014,0.418894,0.217239,-0.122640,-0.873095,24.345300,16.057031,-125.252972
28414,-1.995319,3.480237,7.906660,-0.337187,-0.309428,-0.958369,0.258720,-0.626019,-0.049772,-0.020192,0.034705,0.079049,0.999994,0.001294,-0.003130,-0.000249,0.418052,0.215042,-0.125011,-0.873706,24.440881,15.738300,-125.430256
28415,-0.830238,6.360426,7.438142,1.180971,-2.985778,-0.530416,0.431971,-0.181726,-0.062338,-0.008350,0.063446,0.074511,0.999997,0.002160,-0.000909,-0.000312,0.417247,0.215153,-0.127194,-0.873748,24.663831,15.654549,-125.504862
28416,-3.987702,6.067552,9.090918,1.961075,-0.252023,1.652574,-0.444066,-0.042614,0.106865,-0.039929,0.060856,0.090766,0.999997,-0.002220,-0.000213,0.000534,0.418206,0.213936,-0.125443,-0.873842,24.419056,15.603054,-125.453827
28417,-1.958194,1.474173,8.727475,-2.065967,0.964344,-1.038968,-0.566449,-0.072179,0.125351,-0.019623,0.014977,0.087225,0.999996,-0.002832,-0.000361,0.000627,0.419358,0.212321,-0.123236,-0.873998,24.104837,15.531944,-125.399381
28418,-3.254038,2.348647,9.301551,-1.003398,1.463274,0.161064,0.224821,-0.114565,0.047181,-0.032599,0.023374,0.093023,0.999999,0.001124,-0.000573,0.000236,0.419297,0.212227,-0.124494,-0.873871,24.229947,15.457159,-125.397922
28419,-2.446787,3.970406,8.688462,-0.066096,-0.172196,0.046633,0.194789,-0.174450,0.056529,-0.024555,0.039612,0.086902,0.999999,0.000974,-0.000872,0.000283,0.419274,0.211801,-0.125754,-0.873805,24.335096,15.348848,-125.405797
28420,-2.323208,4.001411,8.523738,-0.037386,-0.276010,-0.118096,0.086971,-0.099702,0.041277,-0.023283,0.039972,0.085243,1.000000,0.000435,-0.000499,0.000206,0.419342,0.211486,-0.126372,-0.873760,24.381269,15.283213,-125.404150
28421,-2.370315,4.042744,8.422979,0.065672,-0.257535,-0.177434,0.058397,-0.081723,0.010388,-0.023740,0.040402,0.084232,1.000000,0.000292,-0.000409,0.000052,0.419313,0.211208,-0.126794,-0.873779,24.407673,15.234224,-125.415271
28422,-2.033029,4.058782,8.289512,-0.046623,-0.533363,-0.376784,0.002959,-0.045434,-0.046890,-0.020340,0.040591,0.082891,1.000000,0.000015,-0.000227,-0.000234,0.419119,0.211010,-0.126838,-0.873914,24.396669,15.217773,-125.448041
28423,-1.950969,4.183086,8.335928,-0.027024,-0.676630,-0.308287,-0.067194,0.023198,-0.106222,-0.019478,0.041869,0.083347,1.000000,-0.000336,0.000116,-0.000531,0.418784,0.211001,-0.126368,-0.874145,24.341306,15.251093,-125.496008
28424,-2.193084,4.135184,8.218523,0.136701,-0.475727,-0.367665,-0.132924,0.060490,-0.153897,-0.021874,0.041423,0.082164,0.999999,-0.000665,0.000302,-0.000769,0.418332,0.211049,-0.125483,-0.874478,24.243974,15.315121,-125.560802
28425,-2.015873,4.557820,8.503834,0.192528,-0.885822,0.002140,-0.141136,0.153800,-0.176657,-0.020053,0.045656,0.085022,0.999999,-0.000706,0.000769,-0.000883,0.417855,0.211501,-0.124340,-0.874759,24.144413,15.433040,-125.614342
28426,-3.298051,4.259465,8.821095,0.566599,0.287644,0.503708,-0.270205,0.140756,-0.143778,-0.032888,0.042737,0.088176,0.999999,-0.001351,0.000704,-0.000719,0.417642,0.211605,-0.122697,-0.875068,23.974777,15.536442,-125.654519
28427,-2.537454,3.517850,8.549962,-0.223580,0.112868,-0.228690,-0.247038,0.122797,-0.132584,-0.025299,0.035301,0.085472,0.999999,-0.001235,0.000614,-0.000663,0.417446,0.211672,-0.121203,-0.875354,23.818618,15.627615,-125.692587
28428,-2.529705,3.968325,8.899240,-0.075519,-0.190569,0.252171,-0.253653,0.151541,-0.157587,-0.025198,0.039816,0.088961,0.999999,-0.001268,0.000758,-0.000788,0.417158,0.211865,-0.119594,-0.875665,23.656823,15.739640,-125.738345
28429,-3.409358,3.546501,9.365520,-0.075296,0.744479,0.739770,-0.248225,0.114343,-0.122686,-0.034018,0.035602,0.093631,0.999999,-0.001241,0.000572,-0.000613,0.417006,0.211886,-0.118121,-0.875932,23.500593,15.823917,-125.772834
28430,-2.734917,3.370542,8.813618,-0.305357,0.291807,0.002698,-0.087785,0.018835,-0.092804,-0.027325,0.033757,0.088124,1.000000,-0.000439,0.000094,-0.000464,0.416746,0.211805,-0.117584,-0.876148,23.434625,15.851205,-125.815258
28431,-2.611970,3.894512,8.945400,-0.073797,-0.140582,0.286053,-0.118279,0.061145,-0.107071,-0.026071,0.039012,0.089439,1.000000,-0.000591,0.000306,-0.000535,0.416485,0.211853,-0.116808,-0.876364,23.351617,15.903841,-125.855083
28432,-3.234536,3.685047,9.006757,0.112937,0.464470,0.431090,-0.104497,0.005927,-0.085008,-0.032327,0.036911,0.090049,1.000000,-0.000522,0.000030,-0.000425,0.416269,0.211676,-0.116233,-0.876586,23.276329,15.922461,-125.896377
28433,-2.552444,3.748422,8.643219,-0.050468,-0.124624,-0.052934,-0.066861,-0.025608,-0.088738,-0.025519,0.037524,0.086416,1.000000,-0.000334,-0.000128,-0.000444,0.416007,0.211443,-0.115877,-0.876814,23.219820,15.925102,-125.943612
28434,-2.926948,3.938768,9.095179,0.089581,0.051905,0.521356,-0.129446,-0.038937,-0.115782,-0.029264,0.039463,0.090921,1.000000,-0.000647,-0.000195,-0.000579,0.415656,0.211035,-0.115253,-0.877161,23.122703,15.926928,-126.012332
28435,-3.063563,3.663981,9.005313,0.039014,0.320639,0.375613,-0.148135,-0.132890,-0.126299,-0.030672,0.036726,0.090006,0.999999,-0.000741,-0.000664,-0.000631,0.415235,0.210181,-0.114728,-0.877634,23.007176,15.881326,-126.107468
28436,-2.427252,3.782209,8.519413,0.005481,-0.262657,-0.184188,-0.095392,-0.236087,-0.185121,-0.024338,0.037885,0.085147,0.999999,-0.000477,-0.001180,-0.000926,0.414429,0.209018,-0.114590,-0.878310,22.906802,15.794389,-126.259987
28437,-2.369982,4.432071,8.551538,0.424281,-0.720854,0.071095,-0.224769,-0.187396,-0.253615,-0.023724,0.044447,0.085443,0.999998,-0.001124,-0.000937,-0.001268,0.413492,0.207839,-0.113709,-0.879146,22.725240,15.747934,-126.437746
28438,-2.412686,4.664070,8.510210,0.657869,-0.853181,0.129013,-0.366578,-0.176859,-0.278779,-0.024137,0.046830,0.084995,0.999997,-0.001833,-0.000884,-0.001394,0.412588,0.206426,-0.112158,-0.880102,22.459661,15.712012,-126.627533
28439,-2.391607,4.614231,8.508668,0.655249,-0.868063,0.098173,-0.545843,-0.113659,-0.298235,-0.023895,0.046410,0.084947,0.999995,-0.002729,-0.000568,-0.001491,0.411832,0.204932,-0.109662,-0.881120,22.092335,15.712676,-126.811585
28440,-2.970463,4.310749,9.044570,0.592240,-0.258277,0.617680,-0.643740,-0.060840,-0.275990,-0.029672,0.043439,0.090297,0.999994,-0.003219,-0.000304,-0.001380,0.411283,0.203453,-0.106653,-0.882088,21.675496,15.735586,-126.973609
28441,-3.367944,3.635457,8.892936,0.485751,0.433714,0.347011,-0.609042,-0.133506,-0.211547,-0.033700,0.036661,0.088796,0.999995,-0.003045,-0.000668,-0.001058,0.410920,0.201686,-0.104014,-0.882977,21.283893,15.705073,-127.118351
28442,-3.038623,3.663206,9.247818,0.212510,0.132965,0.584968,-0.597742,-0.099107,-0.172886,-0.030400,0.036934,0.092353,0.999995,-0.002989,-0.000496,-0.000864,0.410749,0.200075,-0.101388,-0.883728,20.906681,15.684116,-127.231612
28443,-3.081300,3.114875,9.088053,-0.012963,0.482053,0.264847,-0.597065,-0.151275,-0.122356,-0.030863,0.031439,0.090764,0.999995,-0.002985,-0.000756,-0.000612,0.410781,0.198207,-0.098919,-0.884414,20.534522,15.624129,-127.326116
28444,-1.928830,3.241929,8.756093,-0.407766,-0.514252,-0.301182,-0.463671,-0.067948,-0.125724,-0.019298,0.032634,0.087479,0.999997,-0.002318,-0.000340,-0.000629,0.410693,0.196981,-0.096868,-0.884956,20.243179,15.609150,-127.406299
28445,-1.994562,3.672524,8.849778,-0.077382,-0.773004,-0.056636,-0.488555,0.077829,-0.146241,-0.019884,0.036956,0.088415,0.999997,-0.002443,0.000389,-0.000731,0.410604,0.196357,-0.094386,-0.885403,19.942442,15.676170,-127.468325
28446,-1.798066,3.788249,9.051190,-0.166024,-1.043493,0.106543,-0.571570,0.194699,-0.195825,-0.017855,0.038159,0.090421,0.999995,-0.002858,0.000973,-0.000979,0.410431,0.196103,-0.091247,-0.885869,19.592830,15.815556,-127.534778
28447,-1.677374,3.808828,9.121565,-0.221780,-1.210650,0.137608,-0.626238,0.313847,-0.260338,-0.016581,0.038395,0.091122,0.999993,-0.003131,0.001569,-0.001302,0.410112,0.196292,-0.087549,-0.886348,19.207829,16.030889,-127.610238
28448,-1.858519,3.950279,9.256334,-0.047052,-1.241513,0.345773,-0.674454,0.427307,-0.316941,-0.018325,0.039844,0.092469,0.999991,-0.003372,0.002137,-0.001585,0.409596,0.196906,-0.083356,-0.886854,18.791764,16.318010,-127.701912
28449,-1.786482,4.205847,9.384869,0.059231,-1.556722,0.508582,-0.756778,0.547936,-0.384367,-0.017527,0.042447,0.093737,0.999987,-0.003784,0.002740,-0.001922,0.408892,0.197908,-0.078486,-0.887401,18.323003,16.682182,-127.812800
28450,-1.869530,4.628953,9.665615,0.311794,-1.890479,0.895903,-0.899734,0.679556,-0.438921,-0.018265,0.046764,0.096509,0.999982,-0.004499,0.003398,-0.002195,0.408137,0.199219,-0.072652,-0.887951,17.768601,17.126866,-127.932464
28451,-1.920525,4.814069,10.018395,0.357493,-2.126365,1.258919,-1.091082,0.828089,-0.476983,-0.018675,0.048732,0.099997,0.999974,-0.005455,0.004140,-0.002385,0.407464,0.200801,-0.065622,-0.888451,17.103492,17.657460,-128.049460
28452,-2.527199,4.864843,10.419686,0.627159,-1.894008,1.790741,-1.291945,0.932731,-0.486023,-0.024667,0.049381,0.103995,0.999965,-0.006460,0.004664,-0.002430,0.406938,0.202431,-0.057477,-0.888887,16.323870,18.246051,-128.163964
28453,-2.465793,2.893591,10.378712,-0.713452,-0.825311,1.186254,-1.606813,0.959151,-0.501268,-0.024087,0.029830,0.103666,0.999953,-0.008034,0.004796,-0.002506,0.406646,0.203522,-0.047860,-0.889341,15.358307,18.849122,-128.291810
28454,-0.242557,-0.215477,9.229144,-3.705704,-0.479251,-1.367617,-0.921077,0.940984,-0.158948,-0.001993,-0.001728,0.092310,0.999978,-0.004605,0.004705,-0.000795,0.407137,0.205835,-0.041672,-0.888895,14.846135,19.390159,-128.231778
28455,0.726462,6.449633,9.489139,0.245102,-5.695949,0.170410,1.608815,0.911414,0.208559,0.007632,0.063738,0.095372,0.999957,0.008044,0.004557,0.001043,0.406632,0.213073,-0.047166,-0.887145,15.855783,19.858234,-127.957457
28456,3.069450,11.782644,10.077523,2.264853,-11.020441,1.288158,0.454231,1.067508,0.540635,0.030915,0.117681,0.100878,0.999980,0.002271,0.005338,0.002703,0.408834,0.218567,-0.047570,-0.884771,16.284414,20.356945,-127.455795
28457,3.082320,7.030501,9.955137,-0.999159,-7.945838,-0.122707,-1.100053,1.251695,0.896149,0.031127,0.070989,0.098968,0.999955,-0.005500,0.006258,0.004481,0.414333,0.221598,-0.041109,-0.881778,15.912415,20.899780,-126.710763
28458,3.633272,3.399374,10.613500,-4.095828,-6.179505,-0.733088,-0.487117,1.148894,1.043438,0.036762,0.034443,0.105841,0.999967,-0.002436,0.005744,0.005217,0.419740,0.225400,-0.037721,-0.878402,15.922822,21.365582,-125.896412
28459,4.110022,3.801770,11.580594,-4.456316,-7.009101,0.009181,0.094381,0.918832,1.064313,0.041429,0.038183,0.115634,0.999975,0.000472,0.004594,0.005322,0.424528,0.229391,-0.037395,-0.875076,16.263521,21.698254,-125.103663
28460,4.360591,3.649769,12.256850,-4.974999,-7.255234,0.442868,-0.091111,0.644434,1.008399,0.043816,0.036774,0.122411,0.999982,-0.000456,0.003222,0.005042,0.429202,0.231792,-0.036770,-0.872184,16.472109,21.886404,-124.390163
28461,4.075184,2.113606,12.557364,-6.040510,-6.166997,0.397204,-0.199082,0.272020,0.915868,0.040825,0.021448,0.125497,0.999988,-0.000995,0.001360,0.004579,0.433536,0.232341,-0.036368,-0.869909,16.575789,21.882098,-123.793529
28462,3.996529,1.354781,12.235170,-6.379056,-5.612624,-0.049848,0.022523,-0.149724,0.768350,0.039821,0.013687,0.122383,0.999992,0.000113,-0.000749,0.003842,0.436865,0.231565,-0.037669,-0.868394,16.744894,21.670374,-123.361452
28463,3.780100,2.081212,12.269654,-5.710180,-5.870758,0.291400,0.119123,-0.483244,0.602785,0.037442,0.020852,0.122800,0.999992,0.000596,-0.002416,0.003014,0.439321,0.229570,-0.039928,-0.867583,16.909437,21.300554,-123.084854
28464,2.190276,2.328090,12.600615,-4.816094,-4.758854,1.284620,0.044121,-0.809177,0.530016,0.021331,0.023310,0.126098,0.999988,0.000221,-0.004046,0.002650,0.441447,0.226016,-0.042491,-0.867316,16.991911,20.765188,-122.914092
28465,2.105491,2.629206,11.491584,-4.014816,-4.634925,0.473184,0.166862,-1.169709,0.502156,0.020316,0.026248,0.115058,0.999979,0.000834,-0.005849,0.002511,0.443254,0.221156,-0.046350,-0.867449,17.114267,20.034978,-122.822214
28466,1.688726,3.010024,10.672468,-3.108817,-4.322649,0.059580,0.112377,-1.270875,0.477872,0.016137,0.030079,0.106846,0.999977,0.000562,-0.006354,0.002389,0.444941,0.215744,-0.050168,-0.867736,17.192739,19.255097,-122.768144
28467,0.541811,3.081218,10.278655,-2.239265,-3.292014,0.166524,0.127872,-1.317404,0.463490,0.004669,0.030758,0.102839,0.999975,0.000639,-0.006587,0.002317,0.446552,0.210146,-0.054139,-0.868043,17.273641,18.450161,-122.727883
28468,-0.448103,3.378992,9.976477,-1.319440,-2.522551,0.338292,0.194644,-1.339333,0.472469,-0.005229,0.033681,0.099764,0.999974,0.000973,-0.006697,0.002362,0.448067,0.204601,-0.058455,-0.868307,17.392095,17.633603,-122.692292
28469,-1.139994,3.610742,9.468922,-0.520841,-1.932228,0.186864,0.191521,-1.311623,0.490725,-0.012109,0.035988,0.094646,0.999975,0.000958,-0.006558,0.002454,0.449688,0.199141,-0.062713,-0.868441,17.512367,16.826902,-122.638677
28470,-1.394293,3.401405,8.504403,-0.103372,-1.418058,-0.657597,0.134521,-1.204349,0.493644,-0.014539,0.033921,0.084981,0.999979,0.000673,-0.006022,0.002468,0.451353,0.194021,-0.066481,-0.868456,17.604701,16.080294,-122.570356
28471,-1.268622,3.001800,7.452021,-0.004867,-1.132571,-1.758529,0.024693,-0.958427,0.439274,-0.013109,0.029980,0.074462,0.999986,0.000123,-0.004792,0.002196,0.452993,0.189719,-0.069163,-0.868343,17.636812,15.475202,-122.485017
28472,-0.960695,2.648997,6.476125,-0.013106,-1.073557,-2.832182,-0.110296,-0.559574,0.317508,-0.009830,0.026510,0.064719,0.999995,-0.000551,-0.002798,0.001588,0.454323,0.186894,-0.070238,-0.868175,17.591509,15.111178,-122.401662
28473,-0.966246,3.086399,7.181965,0.073756,-1.340602,-2.051409,-0.248858,-0.003972,0.127672,-0.009684,0.030947,0.071781,0.999999,-0.001244,-0.000020,0.000638,0.455189,0.186220,-0.069273,-0.867944,17.464675,15.081429,-122.321284
28474,-6.732662,3.175145,13.308703,0.777394,2.977410,5.122577,-0.632176,0.310341,0.299541,-0.067168,0.032071,0.133090,0.999993,-0.003161,0.001552,0.001498,0.457224,0.185988,-0.066087,-0.867172,17.158111,15.196744,-122.092534
28475,-12.417902,1.510377,14.630022,1.929379,8.564805,7.317443,0.160892,-0.795864,0.761932,-0.124816,0.014512,0.145816,0.999985,0.000804,-0.003979,0.003810,0.460188,0.182604,-0.069299,-0.866072,17.322428,14.626364,-121.792159
28476,-7.389359,3.439445,11.714019,1.973079,3.723311,3.821298,1.094751,-1.804928,0.944743,-0.075107,0.033402,0.116651,0.999933,0.005474,-0.009024,0.004724,0.462665,0.176932,-0.079035,-0.865095,17.997179,13.473347,-121.579713
28477,-3.225234,1.644866,7.706534,0.027322,1.607669,-1.451396,-0.070211,-1.608065,0.816343,-0.032937,0.016342,0.076797,0.999959,-0.000351,-0.008040,0.004082,0.465680,0.169439,-0.083157,-0.864591,17.990687,12.447276,-121.407084
28478,-5.450399,-1.183357,7.577970,-0.930571,5.128621,-1.979217,-0.150683,-1.120370,0.591240,-0.054892,-0.011939,0.075482,0.999980,-0.000753,-0.005602,0.002956,0.467929,0.163960,-0.085598,-0.864195,17.927741,11.728757,-121.275842
28479,-7.528993,0.304500,8.899535,0.842538,6.144953,0.061934,0.360644,-1.084561,0.479521,-0.075778,0.002704,0.088590,0.999981,0.001803,-0.005423,0.002398,0.469306,0.159863,-0.090072,-0.863761,18.144901,11.047632,-121.197557
28480,-7.955593,0.887697,8.991612,1.523880,6.298983,0.332632,0.042869,-1.110422,0.384935,-0.080070,0.008704,0.089474,0.999983,0.000214,-0.005552,0.001925,0.470467,0.154956,-0.093153,-0.863697,18.168266,10.370925,-121.181972
28481,-7.844152,-0.180616,8.150422,0.993864,6.859944,-0.871499,-0.158645,-1.102077,0.207274,-0.078887,-0.001823,0.081072,0.999984,-0.000793,-0.005510,0.001036,0.471034,0.149680,-0.095204,-0.864094,18.059059,9.728892,-121.259073
28482,-8.550748,-0.641942,7.590198,1.266413,7.754304,-1.481761,-0.247585,-1.006228,-0.000467,-0.085888,-0.006326,0.075478,0.999987,-0.001238,-0.005031,-0.000002,0.470772,0.144711,-0.096486,-0.864941,17.884115,9.177157,-121.435595
28483,-9.179926,-0.320150,6.970481,2.139243,8.137351,-1.928066,-0.202303,-0.946938,-0.160372,-0.092130,-0.003057,0.069272,0.999988,-0.001012,-0.004735,-0.000802,0.469829,0.140172,-0.097706,-0.866064,17.724694,8.684006,-121.684871
28484,-8.695593,0.340643,6.277997,2.722926,7.374929,-2.509403,-0.232302,-0.805499,-0.301506,-0.087202,0.003610,0.062425,0.999990,-0.001162,-0.004027,-0.001508,0.468328,0.136248,-0.098364,-0.867427,17.542665,8.293108,-121.988605
28485,-9.189087,0.277903,6.172060,3.044356,7.828063,-2.597173,-0.203250,-0.586432,-0.380583,-0.092066,0.003017,0.061448,0.999993,-0.001016,-0.002932,-0.001903,0.466585,0.133372,-0.098577,-0.868788,17.378107,8.033665,-122.293934
28486,-8.979656,1.078220,5.714103,3.772089,7.196119,-2.853183,0.063894,-0.489197,-0.394873,-0.089914,0.010941,0.056925,0.999995,0.000319,-0.002446,-0.001974,0.464624,0.131554,-0.099715,-0.869986,17.369439,7.830343,-122.592359
28487,-7.702583,2.368875,5.497106,4.212141,5.403570,-2.868718,-0.034170,-0.224260,-0.406959,-0.077039,0.023855,0.054881,0.999997,-0.000171,-0.001121,-0.002035,0.462819,0.130661,-0.099801,-0.871072,17.310263,7.773153,-122.849654
28488,-7.959757,2.200318,5.813580,4.149409,5.702641,-2.583652,-0.289845,0.044523,-0.349162,-0.079546,0.022226,0.058121,0.999997,-0.001449,0.000223,-0.001746,0.461549,0.130322,-0.098189,-0.871979,17.115470,7.853354,-123.030823
28489,-7.780003,2.294444,5.942957,4.108220,5.475850,-2.447287,-0.244233,0.152691,-0.260521,-0.077725,0.023118,0.059461,0.999998,-0.001221,0.000763,-0.001303,0.460697,0.130513,-0.096583,-0.872580,16.955438,7.976986,-123.143644
28490,-6.734592,1.777151,5.751153,3.214489,4.855556,-2.907670,-0.294916,0.260050,-0.240297,-0.067250,0.017937,0.057573,0.999997,-0.001475,0.001300,-0.001201,0.460005,0.131048,-0.094522,-0.873091,16.770399,8.156173,-123.228948
28491,-7.196064,1.184613,6.458838,2.784682,5.568412,-2.319927,-0.079419,0.319691,-0.235139,-0.071843,0.011956,0.064699,0.999998,-0.000397,0.001598,-0.001176,0.459227,0.132334,-0.093266,-0.873441,16.710047,8.366903,-123.301162
28492,-5.511585,1.893145,6.831839,2.289648,3.778038,-1.994792,0.403518,0.120761,-0.219709,-0.055054,0.018854,0.068390,0.999997,0.002018,0.000604,-0.001099,0.458096,0.133855,-0.094588,-0.873661,16.922888,8.466215,-123.398613
28493,-2.558049,3.876281,7.393318,2.006889,0.254203,-1.319281,0.567444,0.026837,-0.207915,-0.025530,0.038579,0.074046,0.999995,0.002837,0.000134,-0.001040,0.456861,0.135333,-0.096846,-0.873833,17.227911,8.512588,-123.504807
28494,0.296612,3.706408,9.628830,-0.444041,-1.896685,0.323640,0.218650,0.096142,-0.261239,0.003061,0.036955,0.096327,0.999998,0.001093,0.000481,-0.001306,0.455658,0.136343,-0.097387,-0.874244,17.330655,8.606274,-123.628694
28495,4.657703,4.833914,13.488765,-3.291316,-5.927176,3.642516,0.660355,0.039901,-0.333460,0.046684,0.047816,0.135037,0.999993,0.003302,0.000200,-0.001667,0.453809,0.138147,-0.099935,-0.874635,17.678631,8.682198,-123.801726
28496,8.520792,9.637515,15.864123,-2.718198,-11.648657,6.742332,1.421130,0.277792,-0.454037,0.085646,0.095051,0.159201,0.999971,0.007106,0.001389,-0.002270,0.451008,0.142774,-0.105186,-0.874725,18.458774,8.910769,-123.997975
28497,-9.172977,11.402328,12.839212,9.249406,1.696031,7.233511,0.383265,0.413136,-0.132593,-0.091388,0.113837,0.128799,0.999996,0.001916,0.002066,-0.000663,0.450418,0.145476,-0.105817,-0.874507,18.675282,9.155587,-123.989649
28498,-1.785188,2.534815,6.673545,0.609436,0.363117,-2.488442,-1.225523,-0.133654,0.732192,-0.017990,0.025691,0.066567,0.999974,-0.006128,-0.000668,0.003661,0.454469,0.141704,-0.101272,-0.873568,18.029238,8.947370,-123.606827
28499,-2.137472,-0.306242,7.054107,-1.490680,2.255053,-2.948634,0.160463,0.808872,0.719191,-0.021078,-0.003195,0.070624,0.999985,0.000802,0.004044,0.003596,0.457943,0.145199,-0.100625,-0.871252,18.203528,9.256127,-123.059794
28500,-5.984200,1.268294,10.433226,0.561388,4.671486,1.328814,0.048700,0.557779,0.553907,-0.059585,0.012492,0.104502,0.999992,0.000243,0.002789,0.002770,0.460638,0.147424,-0.099945,-0.869534,18.294146,9.456818,-122.648851
28501,-1.066690,-1.858056,9.602528,-4.220016,2.260348,-1.217291,-0.179940,0.423571,0.264648,-0.010439,-0.018508,0.096064,0.999996,-0.000900,0.002118,0.001323,0.462174,0.148682,-0.098364,-0.868685,18.224519,9.636280,-122.421391
28502,-0.835202,-1.035329,9.790654,-3.814855,1.599420,-0.839695,0.718598,0.388003,-0.080548,-0.008166,-0.010702,0.097884,0.999992,0.003593,0.001940,-0.000403,0.461518,0.152030,-0.100511,-0.868208,18.637388,9.858324,-122.390457
28503,-1.055399,2.057397,8.984740,-1.111195,0.053507,-0.602157,1.008508,0.377824,-0.335599,-0.010350,0.020138,0.089969,0.999984,0.005043,0.001889,-0.001678,0.459522,0.156127,-0.103742,-0.868160,19.191866,10.121876,-122.499329
28504,-1.160248,4.325088,7.979578,0.953013,-1.156240,-0.786042,0.852774,0.487942,-0.478503,-0.011304,0.042937,0.080007,0.999985,0.004264,0.002440,-0.002393,0.457067,0.160414,-0.105931,-0.868410,19.647000,10.473174,-122.663663
28505,-2.847679,6.554927,9.149210,3.010730,-0.997631,1.355286,0.501283,0.665677,-0.464121,-0.028020,0.065385,0.091750,0.999989,0.002506,0.003328,-0.002321,0.455043,0.164657,-0.106194,-0.868647,19.907702,10.918415,-122.782429
28506,-3.544458,7.092691,9.114997,3.733113,-0.786066,1.650213,0.044884,0.585946,-0.302534,-0.035070,0.070960,0.091269,0.999995,0.000224,0.002930,-0.001513,0.454041,0.167427,-0.104790,-0.868812,19.920545,11.289550,-122.828011
28507,-3.028193,6.954371,9.123476,3.320614,-1.196560,1.514821,-0.209225,0.632325,-0.071721,-0.029968,0.069650,0.091257,0.999994,-0.001046,0.003162,-0.000359,0.454277,0.169699,-0.102368,-0.868536,19.814354,11.640640,-122.737521
28508,-1.590935,5.809580,8.581605,1.896585,-1.809350,0.338918,-0.398657,0.751828,0.121787,-0.015622,0.058257,0.085759,0.999991,-0.001993,0.003759,0.000609,0.455566,0.171959,-0.099016,-0.867805,19.626867,12.019054,-122.517909
28509,-3.408942,4.995304,9.418576,1.908562,0.091231,1.216006,-0.548135,0.882785,0.316481,-0.033753,0.050158,0.094198,0.999985,-0.002741,0.004414,0.001582,0.457884,0.174345,-0.094881,-0.866570,19.383159,12.431708,-122.166062
28510,-2.590258,3.127632,9.947017,-0.136128,0.383190,0.923633,-0.763763,0.788814,0.395935,-0.025573,0.031605,0.099451,0.999983,-0.003819,0.003944,0.001980,0.460673,0.175788,-0.090094,-0.865310,19.023495,12.780393,-121.790173
28511,-3.452598,0.829141,10.285037,-1.569924,2.289442,0.707908,-0.755343,0.691914,0.359069,-0.034185,0.008618,0.102937,0.999985,-0.003777,0.003460,0.001795,0.463237,0.176842,-0.085531,-0.864189,18.661637,13.085638,-121.454912
28512,-2.881325,-0.356063,9.937369,-2.642486,2.407613,-0.096693,-0.268931,0.476706,0.278164,-0.028571,-0.003467,0.099447,0.999995,-0.001345,0.002384,0.001391,0.464920,0.178124,-0.083495,-0.863221,18.560206,13.290160,-121.206167
28513,-2.066391,0.344473,9.581218,-2.402088,1.312168,-0.394812,0.180243,0.430538,0.160166,-0.020460,0.003342,0.095859,0.999997,0.000901,0.002153,0.000801,0.465672,0.180298,-0.083399,-0.862373,18.699672,13.491144,-121.031554
28514,-2.219863,1.166441,9.493500,-1.700186,0.969486,-0.190621,0.330521,0.421498,0.081225,-0.022003,0.011498,0.095001,0.999996,0.001653,0.002107,0.000406,0.465940,0.182815,-0.083900,-0.861649,18.915395,13.701268,-120.902051
28515,-2.666534,2.355006,9.774643,-0.728301,0.669435,0.542077,0.505352,0.409698,0.068936,-0.026473,0.023294,0.097860,0.999995,0.002527,0.002048,0.000345,0.465988,0.185691,-0.085169,-0.860883,19.229626,13.906725,-120.780301
28516,-2.974489,2.942589,9.255299,0.022755,0.615474,0.325723,0.470039,0.312656,0.085855,-0.029613,0.029195,0.092668,0.999996,0.002350,0.001563,0.000429,0.466094,0.188060,-0.086528,-0.860176,19.522173,14.055880,-120.667185
28517,-1.853874,2.886580,8.622587,-0.372381,-0.270832,-0.544140,0.441037,0.317462,0.044165,-0.018408,0.028671,0.086319,0.999996,0.002205,0.001587,0.000221,0.466049,0.190397,-0.087710,-0.859566,19.792939,14.215144,-120.575220
28518,-2.229746,3.619979,9.444834,-0.013848,-0.387122,0.537702,0.430569,0.370628,-0.026071,-0.022118,0.035999,0.094567,0.999996,0.002153,0.001853,-0.000130,0.465730,0.192968,-0.088657,-0.859069,20.051418,14.416325,-120.511017
28519,-3.773572,3.472161,9.559607,0.531685,0.977424,0.978215,0.419528,0.201510,-0.020781,-0.037636,0.034525,0.095707,0.999997,0.002098,0.001008,-0.000104,0.465368,0.194784,-0.089953,-0.858720,20.295858,14.525240,-120.477141
28520,-1.814806,2.884342,8.545025,-0.499078,-0.297511,-0.631584,0.457297,0.107681,-0.053659,-0.018094,0.028653,0.085526,0.999997,0.002286,0.000538,-0.000268,0.464782,0.196298,-0.091599,-0.858519,20.552887,14.590197,-120.480672
28521,-1.779662,3.279870,9.011914,-0.455463,-0.549385,-0.084899,0.456458,0.186008,-0.157850,-0.017687,0.032607,0.090210,0.999997,0.002282,0.000930,-0.000789,0.463784,0.198193,-0.092955,-0.858477,20.798808,14.718253,-120.524992
28522,-2.960071,3.230480,9.091224,0.010792,0.462429,0.268696,0.415195,0.097867,-0.230492,-0.029519,0.032150,0.090994,0.999997,0.002076,0.000489,-0.001152,0.462469,0.199646,-0.094267,-0.858707,21.006368,14.814132,-120.627923
28523,-2.396964,3.001694,8.563505,-0.248903,0.138972,-0.431438,0.449601,0.028056,-0.274353,-0.023917,0.029857,0.085706,0.999997,0.002248,0.000140,-0.001372,0.460899,0.200899,-0.095842,-0.859084,21.223306,14.882132,-120.769394
28524,-2.039135,3.251055,8.944634,-0.434758,-0.300575,-0.093918,0.331670,0.034205,-0.374538,-0.020315,0.032400,0.089504,0.999997,0.001658,0.000171,-0.001873,0.459014,0.201953,-0.096797,-0.859739,21.358849,14.974666,-120.965020
28525,-2.402787,3.420529,8.600876,-0.003158,-0.088032,-0.250226,0.344589,-0.037091,-0.469318,-0.023964,0.034113,0.086063,0.999996,0.001723,-0.000185,-0.002347,0.456674,0.202775,-0.097873,-0.860670,21.483746,15.049435,-121.227968
28526,-2.011510,4.436995,8.357874,0.636529,-0.983581,-0.209852,0.390772,0.002182,-0.521844,-0.019999,0.044259,0.083666,0.999995,0.001954,0.000011,-0.002609,0.454073,0.203895,-0.099006,-0.861651,21.629646,15.156791,-121.511595
28527,-2.095667,5.014638,8.536721,1.002773,-1.264771,0.177743,0.064830,0.141737,-0.493550,-0.020772,0.050170,0.085398,0.999997,0.000324,0.000709,-0.002468,0.451994,0.204860,-0.098443,-0.862579,21.600004,15.332776,-121.748831
28528,-2.692732,4.751945,8.227930,1.231572,-0.654906,-0.035939,0.021549,0.253555,-0.386371,-0.026731,0.047562,0.082318,0.999997,0.000108,0.001268,-0.001932,0.450471,0.206157,-0.097553,-0.863168,21.567210,15.545634,-121.903016
28529,-1.986918,4.595714,8.630725,0.567456,-1.192535,0.077383,-0.184342,0.358043,-0.318025,-0.019641,0.046068,0.086300,0.999997,-0.000922,0.001790,-0.001590,0.449507,0.207405,-0.095607,-0.863589,21.431914,15.799603,-121.996807
28530,-3.608700,3.596750,9.620564,0.216245,0.632889,1.053176,-0.266418,0.394076,-0.251601,-0.035852,0.036141,0.096228,0.999996,-0.001332,0.001970,-0.001258,0.448926,0.208592,-0.093296,-0.863858,21.261395,16.058725,-122.047007
28531,-3.082433,2.648065,8.740944,-0.363567,0.734401,-0.208201,-0.050022,0.229890,-0.207866,-0.030696,0.026534,0.087438,0.999999,-0.000250,0.001149,-0.001039,0.448232,0.209534,-0.092331,-0.864094,21.211271,16.220973,-122.108697
28532,-2.646368,4.304721,8.954386,0.522749,-0.617479,0.437203,0.064152,0.320859,-0.194235,-0.026278,0.043044,0.089600,0.999998,0.000321,0.001604,-0.000971,0.447515,0.211118,-0.091671,-0.864150,21.234156,16.428986,-122.143479
28533,-3.060522,3.832184,8.967074,0.369689,-0.040415,0.401147,-0.197490,0.290413,-0.152293,-0.030446,0.038434,0.089677,0.999998,-0.000987,0.001452,-0.000761,0.447243,0.211965,-0.089992,-0.864261,21.111580,16.612007,-122.161456
28534,-2.931087,3.318871,9.054374,-0.115687,0.115117,0.265067,-0.113198,0.290510,-0.146655,-0.029155,0.033261,0.090567,0.999999,-0.000566,0.001453,-0.000733,0.446902,0.212998,-0.088683,-0.864318,21.038207,16.793906,-122.176835
28535,-3.282546,3.210607,9.124544,-0.050984,0.427752,0.392936,-0.151620,0.240276,-0.140178,-0.032693,0.032198,0.091260,0.999999,-0.000758,0.001201,-0.000701,0.446608,0.213724,-0.087327,-0.864429,20.940467,16.947566,-122.199452
28536,-2.668170,3.479822,8.693683,0.018605,-0.238311,-0.078664,0.003531,0.281950,-0.108845,-0.026540,0.034811,0.086975,0.999999,0.000018,0.001410,-0.000544,0.446299,0.214963,-0.086582,-0.864356,20.939412,17.117107,-122.195979
28537,-3.018284,3.951936,9.045856,0.370424,-0.275527,0.499543,-0.072869,0.367894,-0.035102,-0.030009,0.039558,0.090499,0.999998,-0.000364,0.001839,-0.000176,0.446429,0.216369,-0.085393,-0.864056,20.912112,17.317541,-122.132611
28538,-3.429920,2.784966,9.211820,-0.370700,0.700949,0.373044,-0.079959,0.448874,0.083401,-0.034104,0.027872,0.092184,0.999997,-0.000400,0.002244,0.000417,0.447110,0.218059,-0.084121,-0.863404,20.906231,17.537115,-121.985605
28539,-3.461490,2.124844,9.432650,-0.968817,1.075290,0.354749,0.115121,0.403446,0.146758,-0.034440,0.021169,0.094408,0.999998,0.000576,0.002017,0.000734,0.447831,0.219961,-0.083861,-0.862573,21.020389,17.719259,-121.812227
28540,-3.398271,1.446063,9.628501,-1.628670,1.394031,0.274498,0.208253,0.390304,0.169083,-0.033807,0.014332,0.096366,0.999997,0.001041,0.001952,0.000845,0.448537,0.222004,-0.084057,-0.861663,21.191727,17.889365,-121.628711
28541,-3.603038,1.752304,9.638026,-1.360602,1.381184,0.443271,0.574696,0.291175,0.183490,-0.035906,0.017213,0.096482,0.999994,0.002873,0.001456,0.000917,0.448854,0.224434,-0.086068,-0.860669,21.569325,18.002744,-121.457636
28542,-3.242972,3.039156,8.836184,-0.295166,0.406548,0.065495,0.798861,0.224268,0.215391,-0.032363,0.030003,0.088519,0.999991,0.003994,0.001121,0.001077,0.449020,0.227062,-0.089230,-0.859570,22.077036,18.072472,-121.282942
28543,-3.137330,4.263175,8.620246,0.576537,-0.349169,0.280447,0.670774,0.229545,0.216403,-0.031320,0.042308,0.086381,0.999993,0.003354,0.001148,0.001082,0.449334,0.229421,-0.091827,-0.858506,22.512056,18.143431,-121.105539
28544,-3.034539,3.946255,8.459927,0.312822,-0.220410,-0.004269,0.441416,0.233514,0.198196,-0.030285,0.039246,0.084721,0.999996,0.002207,0.001168,0.000991,0.449827,0.231288,-0.093411,-0.857575,22.813441,18.219403,-120.937065
28545,-3.378801,4.095380,8.452945,0.544545,-0.009733,0.154452,0.473681,0.173239,0.137519,-0.033743,0.040730,0.084655,0.999997,0.002368,0.000866,0.000688,0.449994,0.232996,-0.095196,-0.856829,23.118410,18.276317,-120.815756
28546,-2.614130,4.584577,8.234827,0.590490,-0.891306,-0.090488,0.377889,0.159616,0.074728,-0.026093,0.045680,0.082456,0.999998,0.001889,0.000798,0.000374,0.449992,0.234458,-0.096530,-0.856282,23.357005,18.339684,-120.732430
28547,-3.417513,4.531690,8.558038,0.747690,-0.214934,0.426955,0.256884,0.226990,0.063234,-0.034092,0.045196,0.085677,0.999998,0.001284,0.001135,0.000316,0.450115,0.235942,-0.097178,-0.855736,23.529351,18.440824,-120.638793
28548,-2.288803,3.943461,8.288533,-0.121118,-0.788303,-0.386494,0.176702,0.218739,0.001355,-0.022798,0.039361,0.082945,0.999999,0.000884,0.001094,0.000007,0.450062,0.237239,-0.097431,-0.855377,23.644737,18.551574,-120.581303
28549,-2.401360,3.804721,8.741496,-0.416686,-0.651813,-0.011790,0.130483,0.320380,-0.109573,-0.023853,0.038003,0.087478,0.999998,0.000652,0.001602,-0.000548,0.449639,0.238920,-0.097123,-0.855166,23.721922,18.741105,-120.560095
28550,-2.433687,3.887424,9.061552,-0.533222,-0.712856,0.304325,0.194432,0.414537,-0.123766,-0.024125,0.038801,0.090703,0.999997,0.000972,0.002073,-0.000619,0.449121,0.241154,-0.096862,-0.854841,23.841026,18.983236,-120.523603
28551,-1.017947,5.225478,8.551203,-0.048898,-2.640236,-0.092031,0.476559,0.628981,-0.120001,-0.009879,0.052057,0.085668,0.999992,0.002383,0.003145,-0.000600,0.448380,0.244933,-0.097326,-0.854102,24.140130,19.336596,-120.430854
28552,0.313458,7.398322,9.079025,0.521665,-5.065144,0.738746,0.412195,1.159514,-0.319180,0.003779,0.073790,0.090922,0.999980,0.002061,0.005798,-0.001596,0.447111,0.250924,-0.096082,-0.853169,24.411556,20.013550,-120.313988
28553,-2.162721,5.218150,10.013139,-0.432434,-1.975172,1.504461,-0.214849,1.643881,-0.551015,-0.020659,0.052347,0.100248,0.999962,-0.001074,0.008219,-0.002755,0.445850,0.257675,-0.090783,-0.852396,24.323374,20.997793,-120.201825
28554,-0.051440,5.315601,10.497571,-1.721356,-3.958019,1.133658,0.282552,2.088099,-0.805895,0.000796,0.053006,0.105047,0.999936,0.001413,0.010440,-0.004029,0.443015,0.267519,-0.086276,-0.851309,24.512010,22.274204,-120.118202
28555,1.997237,6.316205,11.287221,-2.549764,-6.497716,1.257568,0.162347,2.767764,-1.136937,0.021890,0.062950,0.112629,0.999888,0.000812,0.013838,-0.005684,0.439153,0.280084,-0.079294,-0.849947,24.630997,23.983174,-120.040743
28556,-0.617129,6.748114,13.506393,-2.493414,-5.287623,4.120687,0.213395,3.391562,-1.396472,-0.003409,0.067367,0.135209,0.999831,0.001067,0.016957,-0.006982,0.434236,0.295437,-0.070774,-0.848025,24.790782,26.079066,-119.942438
28557,-0.521833,6.234541,14.882071,-3.959066,-5.687280,4.766942,0.144327,3.615669,-1.436863,-0.002079,0.062260,0.148922,0.999811,0.000722,0.018077,-0.007184,0.429184,0.311497,-0.061389,-0.845578,24.934884,28.300456,-119.797751
28558,-0.303423,2.539402,14.960787,-6.934019,-4.028529,3.072371,0.144994,3.833913,-1.563339,0.000032,0.025293,0.149645,0.999785,0.000725,0.019168,-0.007816,0.423480,0.328396,-0.051318,-0.842726,25.081993,30.665964,-119.659378
28559,1.763914,1.344683,14.956317,-8.969695,-5.147383,1.215771,1.842159,3.600850,-1.218268,0.020405,0.011952,0.149327,0.999777,0.009210,0.018003,-0.006091,0.416215,0.347671,-0.049432,-0.838717,26.299699,32.823045,-119.341287
28560,6.273563,15.876378,14.728473,-1.906148,-17.861274,3.808497,6.482296,2.887562,0.056580,0.064858,0.153919,0.151400,0.999371,0.032405,0.014435,0.000283,0.405686,0.373001,-0.070662,-0.831442,30.553076,34.258283,-118.358386
28561,12.502851,36.129005,18.030219,4.676706,-36.208890,11.484564,4.559338,2.465473,1.215207,0.125125,0.357839,0.186944,0.999646,0.022794,0.012326,0.006075,0.403036,0.391897,-0.086842,-0.822458,34.092571,35.074186,-116.718187
28562,12.797419,17.283363,18.111110,-6.690065,-24.168634,2.893037,-4.441210,2.261644,1.926256,0.128284,0.178011,0.175747,0.999643,-0.022203,0.011307,0.009630,0.420543,0.391238,-0.067761,-0.815773,32.703595,35.544165,-114.711496
28563,11.630785,-9.501121,18.682740,-22.743882,-7.244922,-7.657402,-5.865726,1.289153,1.894658,0.118379,-0.088379,0.188726,0.999504,-0.029324,0.006445,0.009472,0.440057,0.383283,-0.044793,-0.810825,30.278849,35.600430,-113.090842
28564,9.545835,-11.640860,18.107548,-22.964935,-4.696403,-7.563914,2.081203,-0.339790,0.198615,0.095269,-0.118191,0.180014,0.999944,0.010406,-0.001699,0.000993,0.436820,0.386387,-0.054351,-0.810518,31.467853,35.370709,-113.089711
28565,11.058766,2.912028,20.052752,-15.278806,-14.855750,-0.940013,1.630603,-1.774894,-0.956763,0.108933,0.026955,0.201725,0.999916,0.008153,-0.008874,-0.004784,0.429380,0.382935,-0.062964,-0.815493,31.697589,34.784393,-114.300688
28566,10.550105,0.830713,15.339138,-13.428275,-11.785639,-4.517202,-1.790507,-2.829124,-1.799881,0.103395,0.008752,0.154787,0.999819,-0.008952,-0.014145,-0.008999,0.424549,0.368021,-0.058275,-0.825181,29.499136,33.909745,-116.371313
28567,10.441336,-0.519266,10.893521,-11.440782,-9.636351,-7.767502,-0.745428,-3.511270,-2.264437,0.102415,-0.005949,0.110766,0.999775,-0.003727,-0.017555,-0.011321,0.415583,0.352476,-0.058451,-0.836442,27.686591,32.756367,-118.874597
28568,9.702501,5.910345,10.272139,-6.772033,-12.848143,-4.951379,0.111409,-3.630118,-2.320897,0.095816,0.057929,0.104500,0.999768,0.000557,-0.018149,-0.011604,0.404571,0.338091,-0.062349,-0.847425,26.410434,31.504426,-121.385973
28569,5.536025,9.685806,11.019361,-3.090998,-12.228172,-0.496109,-0.447473,-3.585592,-1.410647,0.054058,0.096721,0.110954,0.999812,-0.002237,-0.017927,-0.007053,0.398292,0.322314,-0.065287,-0.856280,25.186520,29.998347,-123.258735
28570,4.875494,8.922023,8.461535,-1.678788,-10.691860,-2.208170,-0.556745,-3.624030,-0.374881,0.047382,0.089367,0.085234,0.999830,-0.002784,-0.018119,-0.001874,0.396381,0.305725,-0.069495,-0.862893,24.273295,28.198271,-124.471980
28571,4.109593,8.505288,7.545125,-0.934195,-9.581970,-2.500799,-0.356038,-3.122933,0.394710,0.039745,0.085267,0.075927,0.999875,-0.001780,-0.015614,0.001973,0.397635,0.291313,-0.074722,-0.866856,23.797077,26.463632,-125.044565
28572,1.048978,8.349572,8.352219,0.227092,-7.137018,-0.348078,-0.282401,-2.702053,0.949997,0.008964,0.083659,0.083532,0.999896,-0.001412,-0.013510,0.004750,0.401159,0.278623,-0.080234,-0.868909,23.573650,24.823417,-125.177454
28573,0.137545,8.455889,8.152599,1.077328,-6.314281,0.033501,-0.509298,-2.431991,1.170175,-0.000110,0.084768,0.081315,0.999906,-0.002546,-0.012160,0.005851,0.406083,0.266482,-0.084504,-0.870025,23.306669,23.269720,-125.095174
28574,-0.282569,7.171656,8.081995,0.710673,-4.993746,-0.253265,-1.251582,-1.946157,1.040841,-0.003984,0.072202,0.080334,0.999920,-0.006258,-0.009731,0.005204,0.411468,0.254980,-0.084378,-0.870953,22.634489,22.006586,-124.967750
28575,-1.838289,5.465720,9.360951,-0.013793,-2.705143,0.843609,-1.827362,-1.484006,0.790283,-0.019292,0.055434,0.092964,0.999923,-0.009137,-0.007420,0.003951,0.416726,0.244345,-0.080459,-0.871873,21.624236,21.039778,-124.845313
28576,-4.121943,3.448510,12.078330,-1.223929,0.180045,3.348969,-2.239345,-1.292351,0.610003,-0.042105,0.035705,0.120118,0.999912,-0.011196,-0.006462,0.003050,0.421608,0.233744,-0.074114,-0.872993,20.361488,20.219639,-124.776004
28577,-6.675183,0.847557,15.692141,-3.014339,3.548020,6.613839,-2.166962,-1.545019,0.463180,-0.067983,0.010015,0.156296,0.999909,-0.010834,-0.007725,0.002316,0.425695,0.222177,-0.068433,-0.874493,19.099855,19.288312,-124.812068
28578,-10.658686,-2.313860,15.822767,-2.787948,8.738032,7.074526,-0.985100,-2.474034,0.524356,-0.108474,-0.022646,0.157006,0.999908,-0.004925,-0.012370,0.002622,0.428240,0.209030,-0.069954,-0.876369,18.474831,17.846086,-124.989419
28579,-6.398486,-0.564167,11.985891,-1.926982,4.858943,2.740446,0.871413,-3.144580,0.489776,-0.065843,-0.006321,0.118807,0.999864,0.004357,-0.015722,0.002449,0.428460,0.196857,-0.080992,-0.878129,18.876569,16.041103,-125.298650
28580,-7.224927,2.621085,11.963015,1.032914,3.892368,3.823755,0.513107,-2.745793,0.501744,-0.073948,0.025721,0.118689,0.999899,0.002565,-0.013729,0.002509,0.429045,0.185643,-0.089597,-0.879448,19.102106,14.456455,-125.543382
28581,-11.680886,1.429913,9.827975,3.732992,8.460248,2.416353,0.431530,-2.740100,0.822692,-0.118198,0.013605,0.096697,0.999895,0.002158,-0.013700,0.004113,0.431129,0.174072,-0.098112,-0.879886,19.328868,12.810644,-125.601415
28582,-9.421225,2.778751,5.159813,5.362130,6.007995,-2.180632,1.493843,-2.494884,1.082837,-0.094995,0.026894,0.050619,0.999880,0.007469,-0.012474,0.005414,0.433359,0.165730,-0.110976,-0.878873,20.202977,11.252053,-125.494712
28583,-8.843465,4.512673,1.545939,7.696518,4.501233,-5.180037,1.287160,-1.382700,1.175677,-0.088803,0.044507,0.015134,0.999938,0.006436,-0.006913,0.005878,0.436796,0.161723,-0.120581,-0.876650,21.003929,10.265521,-125.121999
28584,-12.768580,5.761473,2.321240,10.475378,7.107987,-3.381477,0.450165,-0.024120,0.987539,-0.127971,0.056931,0.023326,0.999985,0.002251,-0.000121,0.004938,0.440781,0.161966,-0.123387,-0.874217,21.352054,10.044576,-124.587187
28585,-22.205111,8.066605,11.954734,13.577836,14.198375,7.938382,-0.772638,0.628200,0.655185,-0.221938,0.080402,0.119934,0.999982,-0.003863,0.003141,0.003276,0.444770,0.162547,-0.119140,-0.872676,20.991872,10.237056,-124.086075
28586,-37.854151,-1.853896,14.636545,13.893990,32.904933,9.547377,-2.766415,-1.080325,1.195858,-0.379214,-0.018797,0.144577,0.999872,-0.013831,-0.005401,0.005979,0.451576,0.150911,-0.110412,-0.872418,19.477644,9.415735,-123.646964
28587,-23.369546,-8.029057,0.077630,6.697610,23.770817,-9.021083,1.626961,-3.146840,1.300081,-0.233134,-0.081790,-0.003556,0.999822,0.008134,-0.015733,0.006500,0.454301,0.140064,-0.125561,-0.870763,20.418978,7.460352,-123.549989
28588,-12.517891,0.645810,-5.649038,9.401495,9.404372,-13.304322,2.717465,-1.773949,0.796245,-0.124698,0.006738,-0.057508,0.999860,0.013587,-0.008869,0.003981,0.454727,0.137957,-0.141944,-0.868357,21.979383,6.344148,-123.487919
28589,-21.773861,2.649478,-1.484951,14.444503,16.452065,-7.809936,-0.697747,0.055243,0.374852,-0.217792,0.026035,-0.014881,0.999992,-0.003489,0.000276,0.001874,0.456956,0.136295,-0.139030,-0.867920,21.599171,6.287961,-123.266213
28590,-24.132556,-1.600972,0.134613,11.833962,20.984579,-7.676432,0.150908,-0.099755,0.736569,-0.241265,-0.016899,0.001213,0.999993,0.000755,-0.000499,0.003683,0.460016,0.135657,-0.140397,-0.866182,21.722146,6.075389,-122.889102
28591,-17.386492,1.371746,-1.366441,10.878506,13.658328,-8.742252,1.816192,-0.013897,0.845115,-0.173920,0.013106,-0.013556,0.999950,0.009081,-0.000069,0.004226,0.462477,0.139130,-0.148844,-0.862904,22.805548,5.879568,-122.434577
28592,-15.165738,3.836058,0.630474,10.705219,10.821650,-6.152011,0.738527,0.726672,0.450091,-0.151719,0.037994,0.006997,0.999984,0.003693,0.003633,0.002250,0.464478,0.143598,-0.150644,-0.860782,23.267189,6.158037,-122.028392
28593,-21.980736,2.797906,3.029398,12.472515,17.447564,-3.474582,-0.000741,1.168395,0.015243,-0.219628,0.027962,0.031577,0.999983,-0.000004,0.005842,0.000076,0.465469,0.148570,-0.147920,-0.859875,23.293948,6.765086,-121.748766
28594,-6.217311,-0.520665,7.915734,-0.246540,6.367560,-2.004025,-1.710626,1.245359,-0.094330,-0.061681,-0.004498,0.079583,0.999944,-0.008553,0.006227,-0.000472,0.467268,0.149966,-0.137573,-0.860375,22.338454,7.439988,-121.516394
28595,-11.716884,15.145115,34.400651,3.858903,4.736260,29.079082,0.744148,3.175332,-1.698536,-0.110398,0.151122,0.346358,0.999831,0.003721,0.015876,-0.008492,0.461552,0.166468,-0.132042,-0.861291,22.731267,9.489505,-121.716078
28596,-23.076449,4.701977,9.826977,11.673673,17.577109,4.538172,-1.370857,-1.839836,0.051741,-0.231666,0.047622,0.095816,0.999934,-0.006854,-0.009199,0.000259,0.461711,0.155299,-0.130404,-0.863539,21.883304,8.499277,-122.089613
28597,30.520094,-5.645930,-3.398911,-18.865756,-22.899053,-19.539649,-1.085646,0.653198,1.029039,0.305374,-0.055075,-0.034685,0.999967,-0.005428,0.003266,0.005145,0.467439,0.154902,-0.124986,-0.861327,21.361029,8.626657,-121.392952
28598,-8.869205,2.518044,14.280649,0.826489,6.950945,5.676410,0.675921,3.346793,-1.053811,-0.086152,0.025153,0.144347,0.999840,0.003379,0.016733,-0.005269,0.464435,0.171491,-0.119223,-0.860626,21.769199,10.628251,-121.243764
28599,-12.396548,2.018163,11.501787,3.166822,9.800297,3.750579,-0.390784,0.754683,-0.185648,-0.123511,0.020522,0.115445,0.999991,-0.001954,0.003773,-0.000928,0.464460,0.173902,-0.115612,-0.860621,21.553414,11.065644,-121.177709
28600,-0.727547,1.776383,8.203714,-1.659244,-0.071740,-1.552741,0.505652,1.014006,-0.432472,-0.006821,0.017571,0.082117,0.999982,0.002528,0.005070,-0.002162,0.462778,0.179650,-0.115040,-0.860423,21.836687,11.693388,-121.189618
28601,-5.247132,6.412631,11.550745,2.634225,1.221200,4.102815,0.543893,0.948581,-0.406011,-0.051792,0.063917,0.115928,0.999983,0.002719,0.004743,-0.002030,0.461122,0.185183,-0.114801,-0.860171,22.142210,12.280868,-121.198221
28602,-4.401423,7.041512,10.518388,3.029078,0.057049,3.241531,-0.055299,0.648323,-0.277355,-0.043575,0.070505,0.105306,0.999994,-0.000276,0.003242,-0.001387,0.460391,0.187966,-0.112796,-0.860224,22.105642,12.681118,-121.201859
28603,-5.783923,6.574176,10.702935,3.282142,1.398343,3.547634,-0.385052,0.454061,-0.027421,-0.057587,0.065956,0.107033,0.999996,-0.001925,0.002270,-0.000137,0.460928,0.189011,-0.110053,-0.860063,21.900484,12.924709,-121.113264
28604,-4.860194,6.382854,10.232701,2.893424,0.684740,2.845495,-0.422989,0.164499,0.253682,-0.048599,0.063983,0.102232,0.999997,-0.002115,0.000822,0.001268,0.462549,0.188567,-0.108079,-0.859540,21.693950,12.954562,-120.934999
28605,-3.247869,4.883139,9.135833,1.464558,0.132791,0.943441,-0.668989,0.047922,0.424284,-0.032561,0.049068,0.091202,0.999992,-0.003345,0.000240,0.002121,0.465062,0.186960,-0.105477,-0.858859,21.361560,12.887526,-120.689378
28606,-2.179142,4.090301,8.754341,0.537549,-0.347114,0.072056,-0.542501,0.244016,0.617708,-0.021811,0.041073,0.087459,0.999991,-0.002712,0.001220,0.003089,0.468387,0.186383,-0.103142,-0.857459,21.134566,12.885917,-120.295099
28607,-2.817337,3.008772,9.402222,-0.210820,0.757317,0.423218,-0.647688,0.283553,0.827975,-0.028165,0.030275,0.093964,0.999985,-0.003238,0.001418,0.004140,0.472715,0.185617,-0.100457,-0.855567,20.874772,12.864220,-119.777852
28608,-0.636056,-0.607488,8.828946,-3.787924,0.798016,-1.829065,-0.803375,0.337475,0.827150,-0.006187,-0.005746,0.088324,0.999982,-0.004017,0.001687,0.004136,0.477201,0.184707,-0.096974,-0.853673,20.528151,12.873948,-119.249041
28609,-1.273623,-2.896177,8.442059,-5.106883,2.493598,-2.814130,-0.066933,0.445021,0.488436,-0.012478,-0.028964,0.084458,0.999994,-0.000335,0.002225,0.002442,0.479598,0.186174,-0.096061,-0.852113,20.567291,13.011175,-118.884936
28610,-0.384094,-1.726271,8.218358,-4.565557,1.103758,-2.840897,0.756451,0.496917,0.137445,-0.003625,-0.017576,0.082127,0.999990,0.003782,0.002485,0.000687,0.479754,0.190001,-0.098206,-0.850935,21.038259,13.245736,-118.701564
28611,-0.938932,2.092894,9.436686,-1.938859,-0.429118,-0.306483,1.245658,0.691124,-0.082754,-0.009054,0.020344,0.094526,0.999975,0.006228,0.003456,-0.000414,0.478586,0.195929,-0.101750,-0.849832,21.772477,13.628313,-118.594655
28612,-4.901033,4.598836,10.899651,1.072607,1.631033,2.842716,1.064482,0.505106,-0.038179,-0.048726,0.045416,0.109363,0.999983,0.005322,0.002526,-0.000191,0.477671,0.200603,-0.105011,-0.848859,22.400898,13.900996,-118.499612
28613,-1.968071,3.522456,8.008110,0.050032,-0.250672,-0.849156,0.919416,0.157434,0.060512,-0.019628,0.034850,0.080257,0.999989,0.004597,0.000787,0.000303,0.477123,0.203397,-0.108581,-0.848053,22.940762,13.967399,-118.427189
28614,-0.217454,4.170820,8.558015,-0.594337,-2.069335,-0.536561,0.898824,0.394004,-0.104737,-0.001984,0.041324,0.085770,0.999988,0.004494,0.001970,-0.000524,0.476015,0.207229,-0.111331,-0.847391,23.461052,14.194750,-118.388558
28615,-3.316984,3.454892,10.273824,-0.574203,0.931309,1.469719,0.536933,0.312363,-0.267252,-0.032963,0.034317,0.102882,0.999994,0.002685,0.001562,-0.001336,0.474538,0.209942,-0.112569,-0.847388,23.747722,14.416489,-118.455738
28616,-3.796294,2.062470,8.697165,-0.741091,2.096316,-0.359534,0.965659,-0.086421,-0.342953,-0.037966,0.020270,0.087054,0.999987,0.004828,-0.000432,-0.001715,0.472058,0.212021,-0.116491,-0.847725,24.246464,14.447336,-118.658135
28617,-1.492768,4.021195,8.584054,-0.370441,-0.851762,-0.261745,1.299996,-0.097654,-0.495681,-0.014871,0.039690,0.086092,0.999976,0.006500,-0.000488,-0.002478,0.468551,0.214922,-0.121686,-0.848210,24.915084,14.510995,-118.945328
28618,-4.217501,5.487065,9.771554,1.331441,0.721565,2.065208,0.982270,-0.152421,-0.499888,-0.042113,0.054495,0.097952,0.999985,0.004911,-0.000762,-0.002499,0.465318,0.216841,-0.125657,-0.848923,25.397896,14.549796,-119.247813
28619,-2.038722,4.207315,8.019084,0.144944,-0.419718,-0.540896,0.783045,-0.348601,-0.444791,-0.020434,0.041804,0.080319,0.999988,0.003915,-0.001743,-0.002224,0.462397,0.217424,-0.129292,-0.849823,25.761201,14.476016,-119.570868
28620,-1.808049,4.563943,8.416406,0.044907,-0.769405,-0.099804,0.790578,-0.096299,-0.467164,-0.018015,0.045348,0.084335,0.999989,0.003953,-0.000481,-0.002336,0.459527,0.219105,-0.132352,-0.850477,26.142454,14.539586,-119.840787
28621,-2.889704,4.293584,8.450794,0.301876,0.302847,0.087726,0.560482,-0.126664,-0.460092,-0.028852,0.042765,0.084610,0.999993,0.002802,-0.000633,-0.002300,0.456910,0.220120,-0.134505,-0.851286,26.390310,14.587446,-120.114769
28622,-1.668881,4.803713,7.420201,0.537874,-1.014710,-0.890753,0.769669,-0.007086,-0.433342,-0.016588,0.047787,0.074386,0.999990,0.003848,-0.000035,-0.002167,0.454251,0.222101,-0.137306,-0.851748,26.769630,14.690918,-120.342561
28623,-2.153728,6.832935,7.514799,2.101509,-1.719862,0.208535,0.724437,0.255385,-0.336555,-0.021326,0.068092,0.075422,0.999991,0.003622,0.001277,-0.001683,0.452226,0.225026,-0.139420,-0.851714,27.153330,14.904998,-120.448337
28624,-1.903993,6.524823,7.730670,1.599900,-1.774724,0.199917,-0.012019,0.398951,-0.249886,-0.018804,0.065276,0.077340,0.999997,-0.000060,0.001995,-0.001249,0.451494,0.226834,-0.138173,-0.851826,27.137056,15.169700,-120.468726
28625,-2.461596,4.814351,8.858381,0.076282,-0.382313,0.558233,-0.298165,0.475955,-0.303801,-0.024332,0.048313,0.088570,0.999995,-0.001491,0.002380,-0.001519,0.450904,0.228361,-0.135468,-0.852165,26.954349,15.487932,-120.497606
28626,-3.634303,3.634268,8.933694,-0.223929,1.196422,0.421824,-0.137905,0.254637,-0.329711,-0.036169,0.036464,0.089358,0.999998,-0.000690,0.001273,-0.001649,0.449871,0.229321,-0.133917,-0.852699,26.843601,15.699500,-120.600414
28627,-2.262926,4.516881,8.567026,-0.097677,-0.475257,0.121168,0.147719,0.167341,-0.415011,-0.022464,0.045152,0.085722,0.999997,0.000739,0.000837,-0.002075,0.448083,0.230607,-0.133679,-0.853330,26.877147,15.888697,-120.772545
28628,-2.750184,5.296361,8.149919,0.885755,-0.550561,0.234617,0.027887,0.173954,-0.436022,-0.027315,0.053012,0.081530,0.999997,0.000139,0.000870,-0.002180,0.446347,0.231666,-0.132893,-0.854075,26.839059,16.086471,-120.953963
28629,-2.434901,6.010320,7.928806,1.329668,-1.258252,0.265371,-0.028955,0.254213,-0.396880,-0.024129,0.060163,0.079310,0.999997,-0.000145,0.001271,-0.001984,0.444894,0.232914,-0.131727,-0.854674,26.779298,16.315248,-121.093597
28630,-3.421588,5.341298,8.804499,0.898114,-0.105701,1.001089,-0.415218,0.418056,-0.264664,-0.033961,0.053641,0.088005,0.999995,-0.002076,0.002090,-0.001323,0.444562,0.233913,-0.128701,-0.855035,26.530028,16.593353,-121.119261
28631,-3.477312,3.133605,8.966593,-0.691489,1.146403,0.213198,-0.360996,0.306015,-0.148476,-0.034613,0.031524,0.089662,0.999997,-0.001805,0.001530,-0.000742,0.444585,0.234478,-0.126289,-0.855228,26.320547,16.784468,-121.114059
28632,-3.041306,3.350943,9.220767,-0.887937,0.628950,0.400873,0.002534,0.292612,-0.129869,-0.030256,0.033528,0.092252,0.999999,0.000013,0.001463,-0.000649,0.444253,0.235780,-0.125485,-0.855161,26.321275,16.963758,-121.102435
28633,-3.441816,3.644321,8.893580,-0.334778,0.766247,0.361972,0.113149,0.208510,-0.095609,-0.034308,0.036409,0.088992,0.999999,0.000566,0.001043,-0.000478,0.443881,0.236947,-0.125378,-0.855047,26.384092,17.091386,-121.095002
28634,-2.589942,4.579251,8.219396,0.220474,-0.481122,-0.068170,0.256661,0.222380,-0.081964,-0.025789,0.045698,0.082281,0.999998,0.001283,0.001112,-0.000410,0.443408,0.238483,-0.125872,-0.854793,26.532668,17.222395,-121.075956
28635,-2.925382,5.280535,8.399177,0.751508,-0.624892,0.484531,0.096905,0.365000,-0.071164,-0.029082,0.052775,0.084071,0.999998,0.000485,0.001825,-0.000356,0.443258,0.240266,-0.125377,-0.854444,26.602779,17.423928,-121.012883
28636,-2.828675,4.512249,8.088867,0.307263,-0.286960,-0.137217,0.000351,0.330064,-0.075885,-0.028136,0.045133,0.080935,0.999999,0.000002,0.001650,-0.000379,0.443182,0.241688,-0.124543,-0.854205,26.614439,17.608493,-120.961197
28637,-1.900264,4.929055,8.196395,0.067182,-1.319095,-0.151281,-0.034189,0.445166,-0.182185,-0.018775,0.049322,0.081997,0.999997,-0.000171,0.002226,-0.000911,0.442761,0.243591,-0.123176,-0.854081,26.598384,17.879536,-120.935974
28638,-2.390570,4.300036,8.323299,-0.212658,-0.605941,-0.165421,-0.219634,0.503972,-0.297328,-0.023632,0.043127,0.083245,0.999995,-0.001098,0.002520,-0.001487,0.442110,0.245402,-0.120748,-0.854246,26.461938,18.209990,-120.956980
28639,-0.978189,3.775640,9.421393,-1.856055,-1.535754,0.095434,-0.321426,0.691120,-0.384290,-0.009384,0.037926,0.094186,0.999991,-0.001607,0.003456,-0.001921,0.441317,0.247838,-0.117361,-0.854425,26.267544,18.658786,-120.976202
28640,0.893425,5.742808,7.550146,-0.469193,-4.242533,-1.294341,0.593766,1.158361,-0.439770,0.009498,0.057183,0.075618,0.999976,0.002969,0.005792,-0.002199,0.439415,0.254313,-0.116781,-0.853581,26.628968,19.361255,-120.898488
28641,0.686557,11.954703,9.248446,2.835094,-7.883637,2.785810,0.893336,2.048371,-0.844711,0.008320,0.119099,0.092937,0.999929,0.004467,0.010242,-0.004223,0.435883,0.265458,-0.114998,-0.852241,27.174024,20.622926,-120.789080
28642,-2.008469,7.825733,11.005053,0.222529,-3.623528,3.347591,-1.664723,2.477384,-1.114033,-0.018285,0.079276,0.109627,0.999873,-0.008323,0.012386,-0.005570,0.434758,0.272957,-0.101001,-0.852220,26.243971,22.173780,-120.712564
28643,0.556154,2.676328,11.016027,-4.552074,-2.937556,0.160445,-1.045855,2.751660,-1.488259,0.007277,0.027289,0.109926,0.999864,-0.005229,0.013758,-0.007441,0.431220,0.283088,-0.088508,-0.852101,25.609094,23.960464,-120.792910
28644,-1.462189,5.277804,12.504525,-2.846792,-3.441587,3.086340,0.597483,3.271206,-1.988200,-0.012049,0.052532,0.125414,0.999812,0.002987,0.016355,-0.009940,0.423316,0.299105,-0.081159,-0.851324,25.849662,26.139494,-121.023633
28645,-2.255746,8.776588,14.321675,-1.522709,-5.705313,6.071773,0.275582,3.540468,-2.218671,-0.019043,0.087792,0.143696,0.999781,0.001378,0.017701,-0.011093,0.414856,0.315557,-0.071493,-0.850416,25.871374,28.515151,-121.310633
28646,-0.431199,7.134720,15.571031,-4.497967,-6.777573,5.264847,-0.627166,3.778672,-2.269471,-0.000559,0.071856,0.155520,0.999752,-0.003136,0.018892,-0.011346,0.407491,0.331023,-0.057381,-0.849166,25.374778,31.025645,-121.578630
28647,0.291914,3.468817,16.518050,-8.059655,-5.580786,3.928756,-0.006483,3.485743,-1.657183,0.006084,0.034652,0.165092,0.999814,-0.000032,0.017428,-0.008285,0.401448,0.346187,-0.047488,-0.846604,25.367845,33.232572,-121.575695
28648,3.168956,11.254195,14.636119,-3.682155,-12.702563,3.451364,4.420271,2.828038,-0.322235,0.033956,0.109224,0.148330,0.999655,0.022099,0.014139,-0.001611,0.393015,0.366954,-0.059939,-0.841006,28.280860,34.757765,-120.888411
28649,7.052852,30.115306,14.579369,5.131520,-28.268629,8.722350,5.460288,2.482050,0.263428,0.072005,0.297134,0.153056,0.999549,0.027297,0.012408,0.001317,0.384741,0.387838,-0.078464,-0.833906,32.006402,35.906471,-119.846933
28650,11.790554,21.297519,15.363546,-2.645415,-25.808707,2.652537,-4.145062,2.693004,0.969048,0.118876,0.216650,0.147574,0.999683,-0.020723,0.013464,0.004845,0.397800,0.390557,-0.057851,-0.828175,30.570790,36.932429,-118.257696
28651,10.617598,-4.611099,13.271660,-15.821215,-7.668746,-8.852171,-5.886855,2.345880,1.684705,0.108094,-0.041299,0.132719,0.999463,-0.029429,0.011727,0.008422,0.416813,0.387824,-0.032065,-0.821481,28.339348,37.622013,-116.363057
28652,10.264047,-8.091212,13.940567,-18.208697,-5.791264,-9.586843,1.595762,1.199397,0.719001,0.103764,-0.081646,0.138136,0.999944,0.007979,0.005997,0.003595,0.416890,0.395908,-0.037507,-0.817345,29.790781,38.018414,-115.480450
28653,9.710294,4.317720,18.292469,-13.052737,-14.507119,-1.645590,2.376878,0.060794,0.224034,0.097112,0.041108,0.183392,0.999929,0.011884,0.000304,0.001120,0.413179,0.400996,-0.047521,-0.816228,31.251053,37.976523,-115.308120
28654,9.407926,2.688466,15.707581,-12.309084,-12.445742,-3.808504,-1.056284,-1.125485,-0.200057,0.093221,0.027622,0.157457,0.999970,-0.005281,-0.005627,-0.001000,0.414248,0.394225,-0.045128,-0.819115,30.312688,37.476938,-115.845873
28655,8.703155,-1.528909,12.728040,-12.692325,-8.378307,-6.848630,-0.762080,-1.983863,-0.644959,0.085714,-0.015080,0.128193,0.999938,-0.003810,-0.009919,-0.003225,0.412748,0.384592,-0.044825,-0.824450,29.205339,36.666175,-116.943622
28656,7.191625,2.765711,12.148697,-9.030545,-9.792164,-4.380366,0.457332,-2.666192,-0.842381,0.070403,0.027079,0.122495,0.999900,0.002287,-0.013331,-0.004212,0.407806,0.374665,-0.050582,-0.831121,28.618611,35.558104,-118.376701
28657,6.124241,6.725588,11.320263,-5.603560,-11.241906,-2.525896,0.128411,-3.018341,-0.723095,0.059767,0.066965,0.114155,0.999879,0.000642,-0.015091,-0.003615,0.403874,0.362468,-0.055889,-0.838081,27.864704,34.222700,-119.806338
28658,3.257298,8.222970,11.046033,-3.255616,-9.924926,-0.266532,-0.422212,-3.210176,-0.253602,0.030901,0.082423,0.110791,0.999868,-0.002111,-0.016050,-0.001268,0.402673,0.348155,-0.060128,-0.844409,26.976383,32.652860,-120.971818
28659,2.617362,7.816833,9.293886,-1.980088,-8.679076,-1.148226,-0.553554,-3.368658,0.274348,0.024498,0.078460,0.093144,0.999853,-0.002768,-0.016842,0.001372,0.403857,0.332630,-0.065022,-0.849723,26.209316,30.848324,-121.808460
28660,1.711096,8.314817,8.750302,-0.749383,-8.059494,-0.696472,-0.389102,-3.185838,0.645249,0.015447,0.083370,0.087596,0.999866,-0.001945,-0.015928,0.003226,0.406203,0.318022,-0.070857,-0.853722,25.715398,29.041367,-122.343003
28661,-1.016064,8.995463,9.656396,0.633856,-6.376458,1.768462,-0.450970,-3.095241,0.928074,-0.012069,0.090119,0.096184,0.999867,-0.002255,-0.015476,0.004640,0.409868,0.303466,-0.076666,-0.856761,25.303133,27.203336,-122.650135
28662,-1.888426,8.507614,9.687796,0.981192,-5.127693,2.125841,-0.625685,-3.141604,1.141752,-0.020886,0.085263,0.096294,0.999855,-0.003128,-0.015707,0.005708,0.414491,0.288212,-0.082135,-0.859293,24.858181,25.291848,-122.836266
28663,-2.409293,8.193255,9.113113,1.627228,-4.182128,1.842002,-0.497388,-3.059367,1.225231,-0.025983,0.082003,0.090539,0.999861,-0.002487,-0.015296,0.006126,0.419295,0.273436,-0.088077,-0.861201,24.528208,23.397393,-122.925085
28664,-3.302655,8.387406,9.169638,2.439924,-3.332237,2.363863,-0.574210,-2.890848,1.215945,-0.034855,0.083928,0.090960,0.999873,-0.002871,-0.014454,0.006079,0.424034,0.259181,-0.093304,-0.862737,24.176583,21.597298,-122.973431
28665,-4.119935,7.309779,9.489480,2.228032,-1.764854,2.530957,-0.794389,-2.761519,1.166177,-0.042928,0.073225,0.094019,0.999880,-0.003972,-0.013807,0.005831,0.428891,0.244951,-0.097220,-0.864060,23.707207,19.871445,-122.992200
28666,-4.715123,6.993119,10.864040,1.902233,-0.884444,3.779562,-0.635586,-2.655311,1.087096,-0.048966,0.070012,0.107776,0.999892,-0.003178,-0.013276,0.005435,0.433073,0.231527,-0.101476,-0.865185,23.327775,18.224091,-123.026344
28667,-7.828393,6.293326,13.045010,2.277987,2.289569,6.330678,-0.640300,-2.865907,1.139620,-0.080499,0.062894,0.129106,0.999876,-0.003201,-0.014329,0.005698,0.437369,0.217078,-0.106209,-0.866201,22.944486,16.449005,-123.058602
28668,-6.461458,4.566521,10.654043,1.755495,2.605094,3.080175,0.177456,-3.329224,1.126841,-0.066632,0.045200,0.105483,0.999845,0.000887,-0.016645,0.005634,0.440264,0.202381,-0.115450,-0.867111,23.001635,14.437028,-123.210434
28669,-6.029595,4.558062,9.786492,2.136857,2.589602,2.087845,0.320223,-3.103170,0.757648,-0.061977,0.045192,0.096985,0.999871,0.001601,-0.015515,0.003788,0.441505,0.189112,-0.124413,-0.868235,23.111022,12.622649,-123.501630
28670,-9.200915,3.087803,10.490104,2.707264,6.357458,2.696169,0.294932,-3.057343,0.327635,-0.093649,0.030572,0.103523,0.999881,0.001475,-0.015286,0.001638,0.440735,0.176228,-0.132722,-0.870104,23.169134,10.934289,-124.024701
28671,-8.464894,2.001896,8.186238,2.727644,6.458791,-0.142627,0.733458,-3.085417,-0.168609,-0.085882,0.019794,0.080617,0.999874,0.003667,-0.015426,-0.000843,0.437376,0.164456,-0.142539,-0.872547,23.445640,9.340743,-124.811784
28672,-7.680073,1.812040,6.243395,3.142247,5.876271,-2.273603,0.673636,-2.635143,-0.787300,-0.077543,0.018217,0.061477,0.999900,0.003368,-0.013175,-0.003936,0.431506,0.154941,-0.150563,-0.875858,23.671798,8.133216,-125.836937
28673,-9.002265,1.437590,4.811773,4.397593,7.007993,-3.664044,0.652195,-2.117897,-1.364256,-0.090426,0.014837,0.047209,0.999915,0.003261,-0.010589,-0.006821,0.423513,0.148034,-0.156911,-0.879830,23.879065,7.329917,-127.039653
28674,-8.681965,2.643365,6.151143,4.688555,6.202642,-2.083340,0.526805,-1.330864,-1.845228,-0.086979,0.027075,0.061004,0.999932,0.002634,-0.006654,-0.009226,0.413973,0.144696,-0.160653,-0.884240,24.016239,7.058318,-128.321835
28675,-21.528810,3.298008,17.245364,9.020547,17.512202,9.775645,-0.439831,-1.033749,-1.466343,-0.215924,0.034939,0.171263,0.999957,-0.002199,-0.005169,-0.007332,0.407071,0.140336,-0.159773,-0.888297,23.638519,6.848362,-129.325098
28676,-25.573323,-2.217351,7.459115,11.965052,22.313579,-1.243676,1.834546,-3.116716,-0.247809,-0.256880,-0.022514,0.070388,0.999836,0.009172,-0.015583,-0.001239,0.402167,0.130365,-0.174045,-0.889368,24.594776,5.272644,-130.185469
28677,-7.682568,1.289418,-0.940885,6.179664,4.824698,-9.494162,3.742233,-2.745148,0.173751,-0.076700,0.013014,-0.010219,0.999730,0.018709,-0.013725,0.000869,0.398095,0.125452,-0.196260,-0.887279,26.689095,3.804974,-130.768464
28678,-15.385645,2.418977,1.840955,10.920325,10.629621,-6.109225,0.151306,-0.498722,0.293896,-0.153937,0.023950,0.018044,0.999996,0.000757,-0.002494,0.001469,0.398852,0.123213,-0.198088,-0.886847,26.773297,3.470016,-130.743090
28679,-20.067978,-2.130066,2.961568,10.513885,17.248662,-6.989397,-0.000858,-0.396047,0.806982,-0.200650,-0.022110,0.029218,0.999990,-0.000004,-0.001980,0.004035,0.402114,0.120610,-0.199360,-0.885445,26.787435,3.052819,-130.423745
28680,-16.647915,-1.698831,2.721000,8.561210,14.419813,-7.319914,0.731569,-0.017748,1.141886,-0.166381,-0.018038,0.027131,0.999977,0.003658,-0.000089,0.005709,0.406740,0.120823,-0.203299,-0.882403,27.231944,2.742609,-129.841287
28681,-16.234810,-2.492700,2.515962,7.677709,14.619092,-7.956908,-0.095341,0.399494,1.219235,-0.162141,-0.025904,0.025496,0.999979,-0.000477,0.001997,0.006096,0.412638,0.121107,-0.202786,-0.879739,27.208067,2.621067,-129.108140
28682,-13.696189,-4.119485,2.552464,4.773548,13.682737,-8.781593,-0.319085,0.809105,1.175021,-0.136612,-0.041957,0.026144,0.999973,-0.001595,0.004045,0.005875,0.418847,0.122774,-0.200401,-0.877116,27.059129,2.722558,-128.293254
28683,-14.100143,-3.328880,4.535473,4.592924,14.103231,-6.577770,-0.197738,1.223447,1.118453,-0.140531,-0.034030,0.046249,0.999965,-0.000989,0.006117,0.005592,0.425137,0.126559,-0.197637,-0.874174,26.987247,3.050933,-127.397700
28684,-20.061274,-0.248778,2.152321,11.025369,16.636223,-6.843548,0.128470,1.554664,0.835204,-0.200425,-0.003340,0.023080,0.999961,0.000642,0.007773,0.004176,0.430264,0.132758,-0.195397,-0.871245,27.105424,3.622663,-126.561608
28685,2.277452,2.242957,8.793720,-3.290476,-1.208310,-1.137775,-1.730393,2.227060,-0.143032,0.023767,0.023171,0.087478,0.999900,-0.008652,0.011135,-0.000715,0.432961,0.138824,-0.182939,-0.871669,26.147157,4.795884,-126.058169
28686,-29.491907,19.943077,46.789861,12.230718,20.560612,43.887084,-1.913026,4.395249,-2.251049,-0.282269,0.207159,0.472238,0.999649,-0.009564,0.021974,-0.011254,0.428386,0.155809,-0.163445,-0.874926,25.038936,7.620256,-126.130415
28687,-20.553340,-4.123839,3.681266,7.709813,19.394274,-5.640197,-5.306666,-2.595949,0.720563,-0.205849,-0.041031,0.035233,0.999557,-0.026529,-0.012978,0.003602,0.433392,0.132395,-0.146267,-0.879346,21.969088,6.088270,-126.343744
28688,39.988765,-14.264269,-2.002144,-32.863105,-24.340227,-21.391660,-0.853649,1.922446,1.727649,0.400887,-0.139277,-0.023272,0.999907,-0.004268,0.009612,0.008638,0.442958,0.137685,-0.139460,-0.874861,21.625590,6.739767,-125.003470
28689,-15.925000,-0.904463,18.660848,1.392225,15.418612,9.237280,-0.486121,3.800178,-1.124472,-0.155712,-0.007704,0.189609,0.999801,-0.002430,0.019000,-0.005622,0.440980,0.153948,-0.128097,-0.874887,21.370799,8.997910,-124.798805
28690,-10.511209,-3.023008,10.744487,-0.389096,11.197277,0.653315,-0.060243,0.366917,-0.512067,-0.104992,-0.029929,0.107647,0.999995,-0.000301,0.001835,-0.002560,0.439060,0.155711,-0.126613,-0.875757,21.301109,9.296811,-124.994265
28691,0.285065,1.838404,7.125232,-1.634164,-0.705099,-2.667056,1.596951,1.332569,-0.879212,0.003405,0.017800,0.071375,0.999936,0.007985,0.006663,-0.004396,0.434820,0.165563,-0.129967,-0.875573,22.180491,10.189224,-125.178562
28692,-5.592481,11.258153,10.487218,6.853624,-1.281432,4.998659,1.916745,1.289853,-0.869127,-0.054755,0.111807,0.106302,0.999924,0.009583,0.006449,-0.004346,0.430275,0.175892,-0.134808,-0.875073,23.242683,11.059446,-125.351822
28693,-4.999817,12.890606,9.851124,7.733469,-2.882690,5.022820,-0.356695,1.157335,-0.198669,-0.049300,0.129131,0.098568,0.999981,-0.001783,0.005787,-0.000993,0.430529,0.180283,-0.130561,-0.874698,23.066106,11.710465,-125.189376
28694,-4.051405,4.967993,9.763041,1.690132,0.879539,1.710120,-2.505053,1.118223,-0.026490,-0.039963,0.050905,0.097222,0.999906,-0.012525,0.005591,-0.000132,0.433402,0.179745,-0.117147,-0.875289,21.676381,12.304967,-124.950587
28695,-4.468832,1.191944,10.178329,-0.864018,3.293026,0.836107,-1.304771,0.901801,0.010082,-0.044230,0.012582,0.101903,0.999969,-0.006524,0.004509,0.000050,0.435167,0.180819,-0.109471,-0.875186,20.968461,12.780965,-124.749637
28696,-3.799364,3.718241,10.039740,0.647316,1.142162,1.471506,-0.121976,0.578803,0.057878,-0.037714,0.037233,0.100484,0.999996,-0.000610,0.002894,0.000289,0.435887,0.183018,-0.107714,-0.874588,20.929683,13.075178,-124.592263
28697,-1.618137,4.298541,9.066334,0.264008,-1.044734,0.293375,-0.733210,0.570663,0.109329,-0.015947,0.043309,0.090551,0.999989,-0.003666,0.002853,0.000547,0.437372,0.183822,-0.103345,-0.874206,20.547198,13.355668,-124.410256
28698,-3.379956,2.423624,10.238590,-0.580413,1.419488,1.131440,-0.948607,0.657586,0.166252,-0.033483,0.024694,0.102380,0.999983,-0.004743,0.003288,0.000831,0.439345,0.184497,-0.097896,-0.873701,20.053406,13.672391,-124.179938
28699,-3.058087,-0.107896,9.960385,-2.467339,2.573800,-0.021873,-0.752399,0.434730,0.228292,-0.030363,-0.000739,0.099673,0.999990,-0.003762,0.002174,0.001141,0.441278,0.184597,-0.093847,-0.873150,19.669898,13.859170,-123.963177
28700,-1.925303,-0.843240,9.532041,-3.454406,2.039863,-0.914178,-0.027409,0.504223,0.190293,-0.019005,-0.008437,0.095370,0.999996,-0.000137,0.002521,0.000951,0.442411,0.186612,-0.092774,-0.872262,19.700838,14.090904,-123.753059
28701,-2.627116,0.983020,9.994435,-1.973038,1.504194,0.267034,0.575164,0.484547,0.194665,-0.026038,0.009517,0.100035,0.999992,0.002876,0.002423,0.000973,0.442980,0.189873,-0.094373,-0.871097,20.077411,14.310987,-123.544311
28702,-1.780152,1.175179,9.712571,-2.245207,0.708180,-0.151371,0.612946,0.479820,0.182663,-0.017579,0.011438,0.097203,0.999992,0.003065,0.002399,0.000913,0.443459,0.193198,-0.096138,-0.869929,20.475244,14.529005,-123.340560
28703,-3.051485,2.041533,9.385136,-0.885445,1.243790,0.148645,1.024712,0.407833,0.150266,-0.030338,0.019911,0.094016,0.999985,0.005124,0.002039,0.000751,0.443348,0.197135,-0.099815,-0.868687,21.101496,14.713796,-123.168443
28704,-1.794956,3.647339,8.666943,-0.173557,-0.679873,-0.265572,1.144157,0.331846,0.113747,-0.017826,0.035967,0.086906,0.999982,0.005721,0.001659,0.000569,0.442914,0.201017,-0.104145,-0.867510,21.788324,14.863266,-123.029866
28705,-2.347994,5.445104,9.516550,0.941161,-1.250184,1.290336,0.949136,0.367272,0.017650,-0.023310,0.053996,0.095465,0.999987,0.004746,0.001836,0.000088,0.442259,0.204666,-0.107446,-0.866588,22.352245,15.051281,-122.935147
28706,-3.795531,5.139793,8.240825,1.969759,0.120281,0.426451,0.656087,0.106020,-0.020964,-0.037906,0.051131,0.082596,0.999994,0.003280,0.000530,-0.000105,0.441594,0.206550,-0.110018,-0.866157,22.728349,15.108245,-122.918644
28707,-1.838741,5.899023,7.684691,1.685985,-1.897680,-0.284313,0.541259,0.165059,-0.071940,-0.018303,0.058789,0.077021,0.999996,0.002706,0.000825,-0.000360,0.440848,0.208465,-0.111905,-0.865836,23.034689,15.208168,-122.916870
28708,-2.792620,6.289553,8.464391,2.073010,-1.350113,0.811948,0.043978,0.213399,-0.097521,-0.027805,0.062890,0.084687,0.999999,0.000220,0.001067,-0.000488,0.440542,0.209504,-0.111509,-0.865793,23.055829,15.338775,-122.916708
28709,-2.303324,3.852058,8.331271,0.133279,-0.344043,-0.356606,-0.364828,0.194617,-0.125910,-0.022928,0.038687,0.083265,0.999998,-0.001824,0.000973,-0.000630,0.440521,0.209579,-0.109352,-0.866060,22.837146,15.466332,-122.937585
28710,-2.323081,2.809113,8.983012,-0.892173,0.252258,-0.162681,-0.221045,0.227292,-0.210897,-0.023099,0.028215,0.089825,0.999998,-0.001105,0.001136,-0.001054,0.440006,0.210155,-0.107659,-0.866394,22.690453,15.629413,-122.997067
28711,-3.315240,2.659759,9.309951,-0.625849,1.110562,0.341879,-0.101409,0.157108,-0.249041,-0.033046,0.026686,0.093112,0.999999,-0.000507,0.000786,-0.001245,0.439153,0.210713,-0.106595,-0.866823,22.601766,15.764185,-123.094852
28712,-2.648905,2.888238,8.611022,-0.496688,0.418904,-0.374143,0.090840,0.106338,-0.230930,-0.026410,0.028874,0.086137,0.999999,0.000454,0.000532,-0.001155,0.438155,0.211461,-0.106498,-0.867158,22.622810,15.867553,-123.193567
28713,-1.999901,4.206146,8.492207,0.140843,-0.901341,-0.170254,0.120315,0.239759,-0.218681,-0.019851,0.042032,0.084971,0.999999,0.000602,0.001199,-0.001093,0.437243,0.212846,-0.106246,-0.867310,22.670470,16.039346,-123.255804
28714,-3.030139,4.403358,8.907839,0.616508,-0.221424,0.555131,-0.135128,0.331471,-0.172714,-0.030116,0.044120,0.089099,0.999998,-0.000676,0.001657,-0.000864,0.436855,0.214044,-0.104737,-0.867394,22.584741,16.248969,-123.270935
28715,-3.206988,3.337141,8.967948,-0.083522,0.517798,0.265516,-0.189506,0.296952,-0.116720,-0.031917,0.033475,0.089695,0.999998,-0.000948,0.001485,-0.000584,0.436742,0.214945,-0.103124,-0.867421,22.473881,16.428513,-123.264344
28716,-2.420054,3.706678,8.742868,-0.137595,-0.360712,-0.020611,0.009874,0.234963,-0.112312,-0.024077,0.037076,0.087459,0.999999,0.000049,0.001175,-0.000562,0.436408,0.216008,-0.102519,-0.867397,22.474178,16.573772,-123.268781
28717,-2.096525,4.411213,8.790975,0.161012,-1.067599,0.185797,-0.079741,0.259856,-0.173335,-0.020813,0.044165,0.087919,0.999999,-0.000399,0.001299,-0.000867,0.435911,0.217016,-0.101402,-0.867527,22.414767,16.746066,-123.302212
28718,-2.796454,4.005488,8.334315,0.449488,-0.292090,-0.167096,-0.206575,0.244805,-0.224647,-0.027817,0.040172,0.083336,0.999998,-0.001033,0.001224,-0.001123,0.435327,0.217706,-0.099714,-0.867843,22.273559,16.920999,-123.366957
28719,-2.921603,3.974760,8.464424,0.437762,-0.217730,-0.027917,-0.296104,0.296033,-0.237238,-0.029043,0.039907,0.084628,0.999997,-0.001481,0.001480,-0.001186,0.434803,0.218431,-0.097510,-0.868174,22.081761,17.126143,-123.428551
28720,-3.393884,3.398382,9.103817,-0.008361,0.442919,0.470815,-0.428770,0.289409,-0.211370,-0.033771,0.034215,0.091014,0.999996,-0.002144,0.001447,-0.001057,0.434536,0.218822,-0.094774,-0.868512,21.817559,17.321505,-123.477302
28721,-2.970042,2.504058,8.910932,-0.764948,0.603711,-0.140749,-0.311913,0.220565,-0.205571,-0.029576,0.025210,0.089103,0.999998,-0.001560,0.001103,-0.001028,0.434124,0.219166,-0.092699,-0.868855,21.616042,17.479299,-123.539873
28722,-2.962161,2.940098,9.610978,-0.776317,0.274913,0.632940,-0.134036,0.252581,-0.212003,-0.029469,0.029497,0.096127,0.999998,-0.000670,0.001263,-0.001060,0.433510,0.220035,-0.091322,-0.869088,21.517428,17.654856,-123.598573
28723,-4.087945,2.211655,9.389920,-0.602931,1.590599,0.525579,-0.041746,0.130622,-0.162471,-0.040800,0.022169,0.093921,0.999999,-0.000209,0.000653,-0.000812,0.432946,0.220554,-0.090662,-0.869307,21.471431,17.755418,-123.657544
28724,-2.789867,2.318565,8.938073,-1.013485,0.502654,-0.233105,0.223197,0.064391,-0.184678,-0.027849,0.023112,0.089416,0.999999,0.001116,0.000322,-0.000923,0.431969,0.221366,-0.091275,-0.869522,21.569193,17.824878,-123.742710
28725,-3.603504,3.014782,9.280902,-0.265570,0.711257,0.561937,0.222736,0.043377,-0.201618,-0.035985,0.030081,0.092850,0.999999,0.001114,0.000217,-0.001008,0.430902,0.222094,-0.091909,-0.869799,21.661933,17.887364,-123.842748
28726,-3.850407,2.406234,8.996369,-0.449426,1.293615,0.171039,0.268108,-0.050642,-0.159112,-0.038508,0.023972,0.089986,0.999999,0.001341,-0.000253,-0.000796,0.429932,0.222490,-0.092993,-0.870063,21.781870,17.890458,-123.939037
28727,-2.920490,3.429150,9.141794,-0.317618,-0.052459,0.373424,0.575003,-0.014774,-0.122776,-0.029191,0.034046,0.091514,0.999996,0.002875,-0.000074,-0.000614,0.428786,0.223685,-0.095372,-0.870064,22.085952,17.905714,-124.007805
28728,-3.685487,3.605392,8.731046,0.366145,0.480670,0.308950,0.525043,-0.039642,-0.071350,-0.036859,0.035838,0.087397,0.999996,0.002625,-0.000198,-0.000357,0.427912,0.224636,-0.097647,-0.869997,22.368896,17.896430,-124.052648
28729,-2.382767,4.458698,8.475655,0.345256,-1.039321,-0.004803,0.624645,0.076231,-0.043056,-0.023786,0.044327,0.084904,0.999995,0.003123,0.000381,-0.000215,0.427095,0.226291,-0.100135,-0.869687,22.721547,17.943026,-124.055922
28730,-4.571640,4.211705,9.520257,0.794062,0.835013,1.498623,0.294243,0.137905,0.039057,-0.045659,0.041968,0.095296,0.999999,0.001471,0.000690,0.000195,0.427043,0.227464,-0.101150,-0.869289,22.903874,18.003421,-123.998114
28731,-2.657010,2.804766,8.274456,-0.638581,0.232477,-0.706040,0.508857,-0.014351,0.057722,-0.026584,0.027829,0.082814,0.999997,0.002544,-0.000072,0.000289,0.426743,0.228426,-0.103440,-0.868914,23.200993,17.979681,-123.966512
28732,-2.242450,4.709789,8.751500,0.185432,-1.246777,0.297222,0.620946,0.127336,-0.048639,-0.022357,0.046831,0.087675,0.999995,0.003105,0.000637,-0.000243,0.425930,0.230293,-0.105796,-0.868537,23.554964,18.053910,-123.959092
28733,-2.794777,3.702361,8.648110,-0.210266,-0.179327,-0.002916,0.263922,0.140246,-0.083890,-0.027872,0.036921,0.086549,0.999999,0.001320,0.000701,-0.000419,0.425372,0.231474,-0.106530,-0.868406,23.699042,18.143507,-123.968531
28734,-0.356409,3.694872,8.531063,-1.493931,-2.096753,-0.872348,0.466950,0.382225,-0.096244,-0.003383,0.036751,0.085403,0.999995,0.002335,0.001911,-0.000481,0.424659,0.234142,-0.107619,-0.867906,23.976246,18.362282,-123.924596
28735,1.053360,9.043548,6.434384,2.348768,-6.476465,-1.047320,1.780042,0.825529,-0.326290,0.010948,0.089841,0.065101,0.999951,0.008900,0.004128,-0.001631,0.421620,0.241634,-0.113187,-0.866625,25.001616,18.866807,-123.894125
28736,-0.251441,11.563543,9.449004,3.042425,-7.119845,2.958762,-0.142083,1.563242,-0.599632,-0.001429,0.115708,0.094422,0.999965,-0.000710,0.007816,-0.002998,0.420107,0.248404,-0.108534,-0.866040,24.940769,19.819892,-123.819671
28737,-1.698544,4.701451,9.677210,-0.971019,-1.947672,0.859408,-1.775699,1.895846,-0.801675,-0.015879,0.047937,0.096503,0.999908,-0.008878,0.009479,-0.004008,0.419871,0.253262,-0.095843,-0.866245,23.932085,20.995238,-123.783085
28738,1.166104,4.225083,9.918867,-2.957461,-4.132850,-0.233490,-0.039791,2.421817,-1.140015,0.013101,0.042199,0.099027,0.999910,-0.000199,0.012109,-0.005700,0.416151,0.264157,-0.089122,-0.865504,23.892804,22.524662,-123.816478
28739,-0.643012,7.785495,12.400834,-1.140043,-5.473203,3.734758,-0.043108,3.007100,-1.364562,-0.004033,0.077915,0.124064,0.999864,-0.000216,0.015035,-0.006822,0.411630,0.277618,-0.080851,-0.864264,23.857863,24.412893,-123.831823
28740,-0.791385,6.340647,12.605459,-2.344018,-4.867922,3.245333,-0.893031,3.458814,-1.475118,-0.005265,0.064014,0.125876,0.999813,-0.004465,0.017293,-0.007375,0.407862,0.291237,-0.067800,-0.862689,23.352892,26.563445,-123.806593
28741,-2.660339,3.206910,14.964033,-5.000172,-2.251518,4.719139,-1.159733,3.980851,-1.547530,-0.023367,0.033127,0.149937,0.999755,-0.005798,0.019903,-0.007737,0.404175,0.306462,-0.052399,-0.860220,22.726566,29.005458,-123.715373
28742,-3.375139,-1.511171,15.913883,-8.578716,0.692731,4.073272,-0.340620,3.927715,-1.473188,-0.030726,-0.014606,0.159787,0.999779,-0.001703,0.019637,-0.007365,0.399347,0.322952,-0.040718,-0.857068,22.580575,31.403606,-123.609453
28743,0.226813,1.102960,13.036575,-7.300252,-3.370665,0.508480,3.688643,3.650967,-0.438428,0.004670,0.008615,0.130469,0.999661,0.018441,0.018253,-0.002192,0.392178,0.345907,-0.048499,-0.850995,25.082880,33.414341,-122.875288
28744,3.649834,22.297483,11.344579,4.358087,-19.938090,5.095868,9.341988,3.542931,0.633434,0.037927,0.217494,0.123030,0.998747,0.046690,0.017707,0.003166,0.379137,0.378669,-0.082313,-0.840291,31.303823,35.027422,-121.325141
28745,7.993864,49.102166,15.804527,13.194327,-42.173723,17.968938,3.436981,3.812110,1.488913,0.079394,0.488819,0.164942,0.999643,0.017183,0.019058,0.007444,0.380384,0.400414,-0.092305,-0.828527,34.640345,36.390496,-118.974413
28746,8.543365,17.675976,13.720440,-2.765482,-20.601004,2.077754,-6.088446,3.354674,2.595111,0.085320,0.181905,0.130286,0.999312,-0.030435,0.016770,0.012973,0.404652,0.401226,-0.065835,-0.819110,32.871730,37.158010,-116.094397
28747,10.363923,-6.561282,14.623513,-17.792350,-6.854723,-9.035254,-5.796821,2.888850,3.176559,0.106734,-0.059690,0.146496,0.999350,-0.028978,0.014441,0.015879,0.430049,0.399981,-0.042582,-0.808245,31.398601,37.585219,-113.040178
28748,9.229507,-8.122030,16.696679,-19.665452,-6.254478,-7.799781,2.447801,1.671557,1.566814,0.094324,-0.082516,0.165179,0.999859,0.012238,0.008357,0.007834,0.431829,0.411578,-0.052002,-0.800889,33.784309,37.904265,-111.427462
28749,9.099896,1.578852,21.394695,-16.735919,-13.442076,-0.743537,1.139742,0.268958,0.362279,0.091259,0.014735,0.213910,0.999981,0.005699,0.001345,0.001811,0.431092,0.414968,-0.056720,-0.799215,34.636387,37.907891,-111.091178
28750,10.098034,-3.799756,17.959581,-18.060809,-9.863330,-5.880082,-1.641394,-1.203647,-0.912633,0.099726,-0.036976,0.180505,0.999938,-0.008207,-0.006018,-0.004563,0.430530,0.406821,-0.050855,-0.804086,33.060070,37.621977,-112.122714
28751,9.697875,-4.212054,15.064451,-16.219335,-8.347750,-7.372968,-0.092645,-2.424886,-1.926799,0.094731,-0.042970,0.151822,0.999880,-0.000463,-0.012124,-0.009634,0.422419,0.397261,-0.051760,-0.813060,31.725870,37.032309,-114.219846
28752,10.287513,2.537445,12.873196,-10.766507,-12.154153,-6.028615,0.442084,-3.404398,-2.391777,0.100955,0.023872,0.130515,0.999781,0.002210,-0.017021,-0.011958,0.410893,0.384856,-0.055980,-0.824572,30.361214,36.063328,-116.929592
28753,10.039846,6.584896,11.084659,-7.187680,-13.906939,-5.128623,0.052932,-3.791153,-2.167321,0.098979,0.064742,0.112749,0.999762,0.000265,-0.018954,-0.010836,0.400830,0.369793,-0.059782,-0.836071,28.857495,34.779613,-119.558071
28754,7.562514,8.406942,9.913655,-4.452619,-12.904406,-3.504951,-0.469164,-3.900422,-1.386777,0.074257,0.083786,0.100397,0.999783,-0.002346,-0.019501,-0.006933,0.394696,0.352851,-0.063053,-0.846012,27.404200,33.179149,-121.669627
28755,6.104734,8.959247,8.929608,-2.860590,-11.893782,-2.912084,-0.475378,-3.806865,-0.468487,0.059546,0.089666,0.090226,0.999813,-0.002377,-0.019033,-0.002342,0.392423,0.335832,-0.067696,-0.853603,26.355824,31.345851,-123.103817
28756,3.444158,8.782847,9.078045,-1.734692,-9.698246,-1.190937,-0.396325,-3.578734,0.428408,0.032624,0.088080,0.091201,0.999836,-0.001982,-0.017893,0.002142,0.393688,0.319548,-0.073725,-0.858757,25.728365,29.391802,-123.887484
28757,1.437537,8.631920,9.813406,-1.111949,-7.988930,0.570220,-0.268887,-3.393982,1.071125,0.012246,0.086521,0.098238,0.999841,-0.001344,-0.016969,0.005355,0.397554,0.303938,-0.080933,-0.861987,25.417778,27.363330,-124.196285
28758,-0.806303,7.400573,10.940195,-1.177086,-5.329551,2.241291,-0.504615,-3.249837,1.462379,-0.010379,0.074211,0.109059,0.999838,-0.002523,-0.016248,0.007312,0.403290,0.288255,-0.087416,-0.864074,25.108009,25.317893,-124.233497
28759,-3.333808,6.027913,11.934996,-1.027388,-2.270085,3.739588,-0.520838,-3.240975,1.613304,-0.035751,0.060307,0.118627,0.999833,-0.002604,-0.016204,0.008066,0.409680,0.272386,-0.093996,-0.865525,24.831705,23.234616,-124.157743
28760,-4.221874,5.335930,11.908837,-0.680656,-0.768713,3.863619,-0.428113,-3.303437,1.572705,-0.044596,0.053269,0.118251,0.999830,-0.002140,-0.016516,0.007863,0.415491,0.256395,-0.101024,-0.866846,24.594870,21.134627,-124.124422
28761,-5.111692,4.375538,11.587370,-0.356358,0.906102,3.550494,-0.657899,-3.239835,1.462053,-0.053303,0.043750,0.114878,0.999837,-0.003289,-0.016198,0.007310,0.421120,0.240141,-0.106748,-0.868099,24.213833,19.088343,-124.112322
28762,-4.861110,3.747330,10.425486,-0.011331,1.440165,2.198760,-0.686002,-3.164388,1.266933,-0.050489,0.037513,0.103337,0.999849,-0.003430,-0.015821,0.006334,0.425733,0.224215,-0.111925,-0.869455,23.793495,17.132946,-124.186779
28763,-4.710760,3.741687,11.746500,-0.419587,1.603495,3.279668,-1.036017,-2.862759,1.068016,-0.048982,0.037764,0.116578,0.999870,-0.005180,-0.014313,0.005340,0.430030,0.208873,-0.114686,-0.870801,23.170114,15.375081,-124.266568
28764,-7.319834,2.698326,12.103271,0.445016,4.574450,3.833189,-1.087659,-2.851610,0.994423,-0.075048,0.027267,0.119824,0.999871,-0.005438,-0.014257,0.004972,0.433847,0.193486,-0.117091,-0.872141,22.515486,13.644422,-124.375501
28765,-7.172639,2.441786,11.916852,0.581913,4.876601,3.426863,-0.404665,-2.872108,0.848688,-0.073531,0.024348,0.118072,0.999886,-0.002023,-0.014360,0.004243,0.436354,0.179501,-0.122354,-0.873157,22.240365,11.928179,-124.540699
28766,-8.491870,1.865174,10.209252,1.880141,6.446746,1.793866,-0.269944,-2.752080,0.683064,-0.086376,0.018495,0.100886,0.999899,-0.001350,-0.013760,0.003415,0.437892,0.166425,-0.127764,-0.874202,22.036772,10.316395,-124.772991
28767,-7.057429,2.067655,7.770681,2.400873,5.178870,-0.764168,0.037584,-2.365970,0.348531,-0.071523,0.020538,0.076868,0.999928,0.000188,-0.011830,0.001743,0.437982,0.155868,-0.133380,-0.875264,22.000014,8.975635,-125.085072
28768,-10.249964,2.858268,8.875167,4.507512,7.541952,0.901639,-0.018400,-1.703110,0.119599,-0.103267,0.028529,0.087872,0.999964,-0.000092,-0.008515,0.000598,0.437409,0.148252,-0.137100,-0.876298,21.940826,8.041339,-125.386126
28769,-13.896630,3.443533,7.356073,7.718859,10.096478,0.064633,0.689270,-1.586792,0.161637,-0.139572,0.034071,0.072573,0.999962,0.003446,-0.007934,0.000808,0.436635,0.142629,-0.143696,-0.876560,22.298035,7.155400,-125.630088
28770,-13.729647,6.543670,8.710871,9.403326,8.486508,2.301578,1.158610,-1.129932,0.294569,-0.137883,0.064731,0.086707,0.999966,0.005793,-0.005650,0.001473,0.436314,0.139953,-0.151428,-0.875850,22.947069,6.489135,-125.720222
28771,-25.075098,7.977639,13.335133,15.308222,17.691767,8.156035,0.372249,-1.211174,0.645676,-0.251808,0.078718,0.131976,0.999975,0.001861,-0.006056,0.003228,0.438073,0.134911,-0.156139,-0.874935,23.164171,5.697475,-125.637899
28772,-21.304805,1.913126,5.751078,11.639488,17.128298,-1.954826,0.089921,-2.323170,1.140352,-0.213801,0.017889,0.055038,0.999916,0.000450,-0.011616,0.005702,0.441190,0.124005,-0.162359,-0.873850,23.218538,4.212861,-125.557500
28773,-15.236666,-1.482744,1.230951,7.292147,13.428864,-8.278372,0.339883,-1.391161,0.970171,-0.152373,-0.015586,0.011224,0.999963,0.001699,-0.006956,0.004851,0.444171,0.117832,-0.167498,-0.872223,23.422367,3.253658,-125.351359
28774,-23.314316,-0.989807,2.260296,11.893266,19.998787,-6.942566,0.637318,-0.787284,0.891592,-0.233182,-0.011008,0.021651,0.999977,0.003187,-0.003936,0.004458,0.447052,0.115026,-0.172529,-0.870142,23.798390,2.631916,-125.059880
28775,-19.567181,-1.457556,-0.766279,10.385213,16.658374,-10.291174,0.703864,-0.594882,0.785902,-0.195589,-0.015316,-0.008298,0.999982,0.003519,-0.002974,0.003929,0.449626,0.113282,-0.177357,-0.868071,24.209194,2.131090,-124.778186
28776,-19.377872,-2.588971,-1.556695,9.636827,16.991227,-11.561041,0.377086,0.380381,0.487434,-0.193744,-0.026333,-0.015248,0.999993,0.001885,0.001902,0.002437,0.451901,0.115309,-0.178395,-0.866409,24.434335,2.210799,-124.430051
28777,-22.602277,-1.036299,0.926000,11.608657,19.395663,-8.456729,0.596108,0.830904,0.226850,-0.225970,-0.010649,0.010167,0.999986,0.002981,0.004154,0.001134,0.453339,0.120006,-0.179213,-0.864850,24.785229,2.584150,-124.106664
28778,-20.103819,-0.758261,2.171722,9.846740,17.479115,-7.171856,0.113871,0.958745,0.086653,-0.200928,-0.007682,0.022676,0.999988,0.000569,0.004794,0.000433,0.454537,0.124292,-0.177564,-0.863955,24.860132,3.057979,-123.827056
28779,-17.655845,-1.725464,2.494807,7.551668,16.042950,-7.258559,0.267250,1.024000,0.034996,-0.176425,-0.017320,0.025828,0.999986,0.001336,0.005120,0.000175,0.455470,0.129249,-0.176394,-0.862975,25.024743,3.577202,-123.556541
28780,-14.465128,0.952618,3.853312,7.160843,12.248056,-4.944414,0.523515,1.185126,-0.161015,-0.144412,0.009540,0.039414,0.999979,0.002618,0.005926,-0.000805,0.455511,0.135655,-0.175829,-0.862085,25.334851,4.227037,-123.347073
28781,-6.913225,3.538083,7.986255,3.226601,5.285788,-0.553173,-0.367726,1.283992,-0.385507,-0.068549,0.035661,0.080238,0.999976,-0.001839,0.006420,-0.001928,0.455250,0.140650,-0.171035,-0.862388,25.129419,4.983143,-123.230043
28782,29.501600,8.415938,24.438651,-19.617218,-25.235464,12.918239,-1.659613,1.790746,-1.086325,0.297643,0.084557,0.241029,0.999911,-0.008298,0.008953,-0.005431,0.453262,0.145472,-0.159007,-0.864932,24.161283,6.171349,-123.364936
28783,-21.003859,15.465592,19.437231,14.678326,11.556453,16.813475,2.930967,3.237670,-2.579135,-0.204839,0.154416,0.199981,0.999678,0.014653,0.016187,-0.012894,0.442452,0.168078,-0.162400,-0.865802,25.765489,8.472528,-123.921906
28784,-19.832772,6.529594,2.036094,14.767582,12.915673,-2.381763,-4.102971,0.078116,0.446431,-0.198466,0.065253,0.019099,0.999787,-0.020513,0.000391,0.002232,0.447841,0.158903,-0.144791,-0.867884,23.448348,8.402834,-123.664330
28785,12.174212,-2.005163,6.724222,-10.759112,-8.352544,-6.362067,-2.731119,2.713734,0.927536,0.122730,-0.018578,0.065842,0.999804,-0.013655,0.013568,0.004637,0.455940,0.163827,-0.127557,-0.865453,22.053209,9.628104,-122.557094
28786,-13.356394,-5.871806,18.675357,-4.713037,15.349764,7.615627,-2.932731,2.237781,-0.851970,-0.131698,-0.055393,0.189063,0.999821,-0.014663,0.011188,-0.004260,0.456041,0.167301,-0.109029,-0.867265,20.371002,10.996296,-122.544209
28787,-5.060031,-8.402247,8.308983,-6.910464,9.219257,-4.112603,1.195899,0.634230,-0.785608,-0.050668,-0.084319,0.082747,0.999969,0.005979,0.003171,-0.003928,0.452000,0.173167,-0.112089,-0.867840,20.994379,11.492215,-122.839713
28788,-2.917186,4.160417,11.009957,0.038838,0.482124,2.303097,2.998964,1.159969,-1.061498,-0.028315,0.040097,0.110874,0.999857,0.014994,0.005800,-0.005307,0.445424,0.185512,-0.121529,-0.867418,22.642393,12.331531,-123.160421
28789,-5.774511,12.236357,10.750194,7.203560,-1.822618,5.789114,1.901752,0.693159,-0.752876,-0.056911,0.121548,0.108859,0.999942,0.009509,0.003466,-0.003764,0.440825,0.193166,-0.127507,-0.867238,23.674445,12.863232,-123.403884
28790,-2.482900,10.826490,8.578229,5.251154,-3.867279,2.614375,-0.695204,0.713399,-0.273224,-0.024376,0.108596,0.085493,0.999987,-0.003476,0.003567,-0.001366,0.440802,0.194862,-0.122640,-0.867572,23.277346,13.296695,-123.380344
28791,-4.427290,5.660598,8.943588,2.485260,0.589269,1.372310,-1.708833,0.887036,-0.191179,-0.043822,0.057411,0.089143,0.999953,-0.008544,0.004435,-0.000956,0.442191,0.195018,-0.113062,-0.868131,22.317937,13.804659,-123.279176
28792,-5.778063,3.542290,10.253685,1.172726,2.808133,2.095690,-1.125604,0.596897,-0.070515,-0.057462,0.036020,0.102507,0.999980,-0.005628,0.002984,-0.000353,0.443353,0.195120,-0.106771,-0.868312,21.692408,14.133161,-123.181829
28793,-3.642876,4.447007,9.590144,1.017109,0.459433,1.312580,-0.315162,0.335336,0.116737,-0.036294,0.044600,0.095892,0.999997,-0.001576,0.001677,0.000584,0.444374,0.195783,-0.104755,-0.867887,21.542162,14.284340,-123.042391
28794,-3.100561,5.362717,9.325900,1.529319,-0.558115,1.264049,-0.551691,0.448101,0.299091,-0.030877,0.053838,0.093180,0.999993,-0.002758,0.002240,0.001495,0.446485,0.196308,-0.101643,-0.867054,21.287836,14.457111,-122.776987
28795,-3.319493,3.119843,9.734575,-0.142617,0.864678,0.899259,-0.966515,0.478922,0.474879,-0.033037,0.031590,0.097273,0.999983,-0.004833,0.002395,0.002374,0.449756,0.195951,-0.096831,-0.865995,20.822214,14.612715,-122.410626
28796,-2.842910,0.192069,10.034886,-2.644676,2.084416,0.060414,-0.996756,0.429243,0.555612,-0.028220,0.002342,0.100399,0.999981,-0.004984,0.002146,0.002778,0.453380,0.195260,-0.092078,-0.864779,20.348678,14.727398,-122.009177
28797,-2.579932,-2.003383,10.030970,-4.400573,3.053195,-0.724091,-0.539102,0.336340,0.455409,-0.025585,-0.019822,0.100406,0.999992,-0.002696,0.001682,0.002277,0.456055,0.195250,-0.089411,-0.863653,20.118625,14.815328,-121.684740
28798,-2.805933,-1.231600,10.057053,-3.750058,2.781947,-0.392938,0.690743,0.213764,0.338760,-0.027931,-0.012711,0.100557,0.999992,0.003454,0.001069,0.001694,0.456977,0.197560,-0.092222,-0.862344,20.570810,14.859080,-121.448401
28799,-2.307435,1.483753,9.288293,-1.720299,0.897995,-0.324219,1.268766,0.068287,0.283402,-0.023063,0.014215,0.092982,0.999979,0.006344,0.000341,0.001417,0.456998,0.200587,-0.097795,-0.861019,21.338107,14.834870,-121.274560
28800,-1.635272,3.242892,8.571002,-0.530920,-0.574304,-0.536926,1.210772,0.112148,0.219995,-0.016340,0.031891,0.085913,0.999981,0.006054,0.000561,0.001100,0.456819,0.203689,-0.102956,-0.859783,22.066058,14.844265,-121.124891
28801,-1.929334,3.950308,8.170850,0.230508,-0.675448,-0.561741,0.966878,0.112063,0.086551,-0.019264,0.039099,0.081909,0.999988,0.004834,0.000560,0.000433,0.456290,0.206300,-0.106924,-0.858957,22.635057,14.881999,-121.049674
28802,-1.105698,4.413547,7.503647,0.389580,-1.581179,-1.189792,0.850098,0.108063,-0.091902,-0.010996,0.043821,0.075229,0.999991,0.004250,0.000540,-0.000460,0.455114,0.208715,-0.110218,-0.858581,23.112505,14.955740,-121.071118
28803,-1.186867,5.853798,7.550549,1.392931,-2.308758,-0.570653,0.787563,0.247583,-0.279942,-0.011693,0.058256,0.075750,0.999991,0.003938,0.001238,-0.001400,0.453254,0.211689,-0.112724,-0.858512,23.535649,15.146610,-121.162994
28804,-2.812621,6.392632,8.445954,2.125262,-1.285960,0.861585,0.133894,0.308861,-0.347135,-0.027885,0.063918,0.084546,0.999997,0.000669,0.001544,-0.001736,0.451837,0.213477,-0.112217,-0.858882,23.578811,15.384500,-121.274850
28805,-2.737822,4.416802,8.800873,0.474259,-0.273460,0.393155,-0.332023,0.227169,-0.364141,-0.027198,0.044364,0.087966,0.999996,-0.001660,0.001136,-0.001821,0.450784,0.213873,-0.109872,-0.859639,23.346471,15.584027,-121.417247
28806,-2.792235,3.331623,8.848892,-0.303800,0.347202,0.035472,-0.078486,0.165481,-0.378962,-0.027786,0.033404,0.088499,0.999998,-0.000392,0.000827,-0.001895,0.449372,0.214580,-0.108742,-0.860346,23.253020,15.753192,-121.581573
28807,-2.964069,3.542916,9.114654,-0.191429,0.336361,0.398338,0.016072,0.116405,-0.400166,-0.029517,0.035481,0.091167,0.999998,0.000080,0.000582,-0.002001,0.447726,0.215301,-0.108103,-0.861104,23.206541,15.901990,-121.770788
28808,-3.095792,3.438061,8.958690,-0.130782,0.480734,0.257768,-0.015844,0.065742,-0.393897,-0.030861,0.034449,0.089594,0.999998,-0.000079,0.000329,-0.001969,0.446125,0.215725,-0.107449,-0.861911,23.139317,16.021635,-121.967314
28809,-3.249169,4.035978,8.989832,0.361050,0.239422,0.554356,0.090863,0.027804,-0.371712,-0.032404,0.040379,0.089921,0.999998,0.000454,0.000139,-0.001859,0.444470,0.216215,-0.107360,-0.862654,23.133343,16.117061,-122.162172
28810,-3.222194,4.404005,8.877565,0.664236,-0.011397,0.586716,-0.023343,-0.049550,-0.321773,-0.032173,0.044102,0.088763,0.999999,-0.000117,-0.000248,-0.001609,0.443123,0.216086,-0.107008,-0.863423,23.064648,16.159489,-122.346441
28811,-1.725358,4.301987,8.132227,0.176434,-1.177671,-0.528346,-0.085376,-0.042609,-0.368471,-0.017192,0.043086,0.081300,0.999998,-0.000427,-0.000213,-0.001842,0.441631,0.215878,-0.106317,-0.864324,22.953150,16.216659,-122.556329
28812,-2.445628,4.413364,8.819372,0.321078,-0.695576,0.319099,-0.320097,0.076058,-0.443294,-0.024325,0.044329,0.088132,0.999996,-0.001600,0.000380,-0.002216,0.440142,0.215699,-0.104273,-0.865376,22.703291,16.351595,-122.778708
28813,-3.038271,3.836834,8.594162,0.344376,0.083087,0.070952,-0.333583,0.020227,-0.455491,-0.030286,0.038581,0.085880,0.999996,-0.001668,0.000101,-0.002277,0.438571,0.215257,-0.102276,-0.866522,22.439176,16.459579,-123.022821
28814,-2.451305,4.440957,8.554256,0.508192,-0.786274,0.088306,-0.213302,0.059710,-0.451748,-0.024387,0.044556,0.085502,0.999997,-0.001067,0.000299,-0.002259,0.436915,0.215243,-0.100721,-0.867543,22.246817,16.585880,-123.255044
28815,-3.307159,4.168967,8.832373,0.654384,0.013825,0.478072,-0.423668,0.165997,-0.342207,-0.032927,0.041933,0.088262,0.999996,-0.002118,0.000830,-0.001711,0.436000,0.215177,-0.098134,-0.868316,21.957111,16.744909,-123.404832
28816,-2.848910,2.944416,8.995263,-0.509195,0.330003,0.053020,-0.491024,0.160223,-0.265490,-0.028378,0.029703,0.089903,0.999996,-0.002455,0.000801,-0.001327,0.435495,0.214897,-0.095353,-0.868948,21.640441,16.882931,-123.512797
28817,-3.366081,2.489537,9.867441,-0.935505,0.952094,0.822765,-0.332291,0.184119,-0.224152,-0.033542,0.025097,0.098664,0.999998,-0.001661,0.000921,-0.001121,0.434996,0.215048,-0.093250,-0.869389,21.422169,17.025379,-123.594705
28818,-3.687715,1.767097,9.235500,-0.984424,1.633916,0.105859,-0.031532,0.034867,-0.165539,-0.036846,0.017716,0.092359,1.000000,-0.000158,0.000174,-0.000828,0.434369,0.215174,-0.092844,-0.869715,21.376325,17.074911,-123.675451
28819,-3.243128,3.188681,9.364455,-0.271868,0.413996,0.586025,0.275204,0.050923,-0.130561,-0.032387,0.031779,0.093697,0.999999,0.001376,0.000255,-0.000653,0.433560,0.216022,-0.093772,-0.869809,21.512526,17.126631,-123.734606
28820,-3.603218,3.028288,9.097680,-0.092205,0.810127,0.397927,0.182635,0.010614,-0.063463,-0.036018,0.030211,0.091006,1.000000,0.000913,0.000053,-0.000317,0.433135,0.216459,-0.094460,-0.869837,21.604504,17.141963,-123.763667
28821,-3.161066,3.267673,9.116701,-0.184824,0.323227,0.367959,0.316138,0.019739,-0.046439,-0.031594,0.032540,0.091222,0.999999,0.001581,0.000099,-0.000232,0.432630,0.217220,-0.095723,-0.869761,21.775929,17.159524,-123.782669
28822,-3.272951,3.081478,8.820953,-0.144441,0.547085,0.071476,0.303667,-0.032753,-0.033243,-0.032739,0.030686,0.088251,0.999999,0.001518,-0.000164,-0.000166,0.432183,0.217715,-0.097064,-0.869711,21.939373,17.145493,-123.804512
28823,-2.387277,3.668708,8.670861,-0.155219,-0.493058,-0.113459,0.404172,0.005218,-0.086692,-0.023855,0.036522,0.086783,0.999998,0.002021,0.000026,-0.000433,0.431399,0.218622,-0.098697,-0.869689,22.153684,17.164117,-123.849055
28824,-3.366416,3.899875,8.611015,0.531058,0.156749,0.206530,0.275029,0.004995,-0.124322,-0.033638,0.038901,0.086165,0.999999,0.001375,0.000025,-0.000622,0.430603,0.219263,-0.099732,-0.869804,22.288278,17.189976,-123.912997
28825,-2.353331,3.968133,8.384659,0.125116,-0.679807,-0.267588,0.232442,0.009788,-0.205114,-0.023489,0.039608,0.083894,0.999999,0.001162,0.000049,-0.001026,0.429491,0.219876,-0.100478,-0.870113,22.385053,17.237013,-124.022124
28826,-3.021503,4.093152,8.455163,0.523127,-0.234573,0.038426,0.078294,0.059013,-0.293716,-0.030130,0.040943,0.084577,0.999999,0.000391,0.000295,-0.001469,0.428200,0.220413,-0.100355,-0.870627,22.382571,17.328623,-124.167668
28827,-2.323775,3.477946,9.045061,-0.563091,-0.439591,0.127070,-0.115745,0.118292,-0.390216,-0.023116,0.034877,0.090444,0.999998,-0.000579,0.000591,-0.001951,0.426718,0.220845,-0.099150,-0.871383,22.256151,17.473404,-124.354992
28828,-0.672795,3.770353,8.769103,-1.132849,-1.939688,-0.511101,0.207009,0.204075,-0.432469,-0.006557,0.037627,0.087737,0.999997,0.001035,0.001020,-0.002162,0.424748,0.222354,-0.099124,-0.871964,22.313280,17.671827,-124.545035
28829,2.341426,9.957968,6.635982,2.439230,-8.114757,-1.044739,1.560392,0.499328,-0.617288,0.023887,0.098985,0.067074,0.999962,0.007802,0.002497,-0.003086,0.420586,0.228111,-0.104158,-0.871908,23.134440,18.069397,-124.769088
28830,-1.062839,11.859571,8.864696,4.382907,-6.772906,2.648254,-0.596133,1.300794,-0.898997,-0.009519,0.118904,0.088357,0.999964,-0.002981,0.006504,-0.004495,0.418053,0.232953,-0.097781,-0.872584,22.728414,18.952715,-124.959189
28831,-2.373724,5.888852,9.285409,0.800732,-2.246348,1.179916,-1.757637,1.685839,-1.091996,-0.022631,0.059828,0.092525,0.999911,-0.008788,0.008429,-0.005460,0.416157,0.237116,-0.085294,-0.873679,21.642448,20.080235,-125.184040
28832,-0.705975,6.348160,10.492228,-0.408382,-4.160088,1.737332,-0.507217,2.091382,-1.418815,-0.005511,0.063790,0.104824,0.999917,-0.002536,0.010457,-0.007094,0.411462,0.245748,-0.077024,-0.874285,21.228164,21.489033,-125.520918
28833,-0.490961,9.447849,12.288654,0.568426,-6.821740,4.102476,-0.911072,2.691396,-1.840180,-0.002386,0.095067,0.122498,0.999857,-0.004555,0.013456,-0.009200,0.405552,0.256282,-0.065220,-0.874982,20.524134,23.302400,-125.988843
28834,-0.312732,8.343963,13.189109,-0.845084,-6.836063,4.194006,-1.869157,3.300117,-2.166595,-0.000046,0.084679,0.131121,0.999762,-0.009345,0.016499,-0.010832,0.399494,0.267541,-0.047547,-0.875537,19.212601,25.498986,-126.560834
28835,-0.447468,4.812456,15.418188,-4.347703,-5.309953,4.813689,-2.468102,3.687138,-2.204818,-0.001094,0.050047,0.153613,0.999693,-0.012339,0.018434,-0.011023,0.393940,0.279164,-0.026405,-0.875318,17.528336,27.898684,-127.153437
28836,-0.575069,-1.322767,14.298811,-7.939129,-1.404708,2.083179,-1.336975,3.385318,-1.001881,-0.003392,-0.012250,0.143143,0.999822,-0.006684,0.016926,-0.005009,0.391845,0.291397,-0.012471,-0.872576,16.773340,29.917956,-127.121964
28837,1.183363,11.589893,14.708836,-0.975317,-11.766857,4.766404,6.098479,2.725519,0.282281,0.013709,0.111365,0.150352,0.999441,0.030487,0.013625,0.001411,0.384195,0.315021,-0.034127,-0.867174,20.653421,31.341229,-126.356821
28838,4.829453,31.920451,14.885289,8.915637,-28.382563,9.642844,5.129476,2.608613,0.892491,0.048888,0.315476,0.156342,0.999576,0.025644,0.013041,0.004462,0.380316,0.335867,-0.052735,-0.860100,24.241013,32.523535,-125.123204
28839,8.022620,19.471579,15.153645,-0.675415,-21.990472,3.933310,-4.426260,2.689088,1.197451,0.081034,0.198473,0.146085,0.999647,-0.022129,0.013444,0.005987,0.393531,0.338545,-0.030579,-0.854158,22.512942,33.660748,-123.635941
28840,10.548286,-2.937473,13.830351,-14.842789,-8.707978,-5.947074,-5.723062,2.358873,1.836515,0.107350,-0.024446,0.137791,0.999479,-0.028610,0.011792,0.009181,0.411262,0.336870,-0.004584,-0.846972,20.228817,34.532200,-121.853506
28841,11.078187,-9.220031,12.544139,-18.418442,-5.044343,-9.182101,1.218378,1.120067,0.684025,0.111796,-0.092578,0.124254,0.999960,0.006092,0.005600,0.003420,0.412191,0.344050,-0.008590,-0.843596,21.338892,34.987488,-121.122235
28842,12.625678,2.796609,15.937281,-12.985867,-14.834148,-4.110225,3.217954,0.087096,-0.042432,0.126332,0.025371,0.159740,0.999870,0.016089,0.000435,-0.000212,0.406475,0.350977,-0.021901,-0.843275,23.178660,35.039147,-121.122028
28843,12.862380,3.656765,14.344966,-11.772225,-14.985819,-5.183498,0.000238,-0.616946,-0.570756,0.128284,0.036201,0.143846,0.999991,0.000001,-0.003085,-0.002854,0.404091,0.348388,-0.022147,-0.845485,22.870981,34.834999,-121.647903
28844,10.863278,-0.809990,13.327319,-13.324855,-10.240304,-6.089302,-0.503809,-1.382127,-0.912631,0.107671,-0.008256,0.134040,0.999963,-0.002519,-0.006911,-0.004563,0.400991,0.341585,-0.021210,-0.849751,22.039413,34.299110,-122.597517
28845,9.255503,0.965660,12.931557,-11.274308,-10.027998,-4.700238,1.008252,-2.204707,-0.940779,0.091164,0.008570,0.130371,0.999915,0.005041,-0.011023,-0.004704,0.395117,0.334256,-0.028295,-0.855193,21.964267,33.322171,-123.756620
28846,8.340411,4.576061,11.798427,-7.947161,-11.344696,-3.662079,1.030092,-2.751351,-0.693827,0.081925,0.044862,0.119351,0.999886,0.005150,-0.013756,-0.003469,0.390042,0.324556,-0.036963,-0.860909,21.938621,32.004902,-124.890069
28847,6.822878,5.304649,11.465652,-6.610781,-10.488996,-2.572604,0.309939,-2.808383,-0.209513,0.066665,0.052797,0.115682,0.999900,0.001550,-0.014041,-0.001048,0.388206,0.313019,-0.043419,-0.865696,21.683951,30.547157,-125.706457
28848,3.148385,4.259402,11.913524,-5.631655,-7.039781,-0.394561,0.144514,-2.911461,0.354073,0.029670,0.042561,0.119607,0.999892,0.000723,-0.014557,0.001770,0.388886,0.300555,-0.050234,-0.869431,21.521768,28.917795,-126.192113
28849,1.887312,4.835639,11.673974,-4.338617,-6.240955,0.455706,0.475731,-3.082416,0.825903,0.016871,0.048151,0.117125,0.999870,0.002379,-0.015411,0.004129,0.391072,0.287772,-0.059518,-0.872186,21.680998,27.092516,-126.415650
28850,0.579845,4.612399,11.617442,-3.588987,-4.853038,1.147674,0.019591,-2.967002,1.103022,0.003820,0.046137,0.116245,0.999875,0.000098,-0.014834,0.005515,0.394968,0.274475,-0.066973,-0.874173,21.670035,25.275635,-126.456633
