PacketCounter,Acc_X,Acc_Y,Acc_Z,FreeAcc_E,FreeAcc_N,FreeAcc_U,Gyr_X,Gyr_Y,Gyr_Z,VelInc_X,VelInc_Y,VelInc_Z,OriInc_q0,OriInc_q1,OriInc_q2,OriInc_q3,Quat_q0,Quat_q1,Quat_q2,Quat_q3,Roll,Pitch,Yaw
35568,-1.651115,2.149765,9.600120,-0.063121,-0.089905,0.162175,0.045790,0.165955,0.027789,-0.016434,0.021473,0.096020,1.000000,0.000229,0.000830,0.000139,-0.632869,-0.139409,0.028590,0.761068,12.912432,10.137524,-99.359163
35569,-1.809645,2.323168,9.814239,0.067487,-0.011989,0.433605,0.041233,0.153496,0.044100,-0.018026,0.023207,0.098161,1.000000,0.000206,0.000767,0.000220,-0.633067,-0.140080,0.028281,0.760792,12.940635,10.214542,-99.309716
35570,-1.897849,2.401907,9.964979,0.115008,0.026168,0.611221,-0.011137,0.122168,0.039829,-0.018922,0.024021,0.099660,1.000000,-0.000056,0.000611,0.000199,-0.633282,-0.140466,0.027870,0.760557,12.937838,10.274591,-99.266643
35571,-1.893732,2.261136,10.046931,-0.039282,0.030032,0.658097,-0.052576,0.073769,0.048198,-0.018906,0.022633,0.100470,1.000000,-0.000263,0.000369,0.000241,-0.633549,-0.140536,0.027460,0.760336,12.910952,10.306562,-99.225240
35572,-1.864220,2.080162,9.992356,-0.198636,0.039788,0.560766,-0.059417,0.026299,0.035250,-0.018633,0.020828,0.099920,1.000000,-0.000297,0.000131,0.000176,-0.633767,-0.140406,0.027166,0.760189,12.877839,10.313686,-99.197264
35573,-1.750603,2.084093,9.990852,-0.206710,-0.072044,0.539958,-0.050773,-0.005706,0.014082,-0.017510,0.020865,0.099903,1.000000,-0.000254,-0.000029,0.000070,-0.633893,-0.140184,0.026990,0.760132,12.846684,10.305660,-99.185566
35574,-1.746302,2.113444,9.991882,-0.173427,-0.080710,0.546721,-0.051402,-0.029683,-0.011581,-0.017477,0.021161,0.099911,1.000000,-0.000257,-0.000148,-0.000058,-0.633918,-0.139873,0.026871,0.760172,12.812104,10.287498,-99.191433
35575,-1.857174,2.116078,10.026036,-0.154330,0.025222,0.599988,-0.060571,-0.060216,-0.035449,-0.018598,0.021194,0.100248,1.000000,-0.000303,-0.000301,-0.000177,-0.633855,-0.139420,0.026796,0.760310,12.769061,10.255312,-99.214878
35576,-1.828431,2.141537,9.949855,-0.106778,0.008924,0.527403,-0.061570,-0.096678,-0.047019,-0.018327,0.021450,0.099483,1.000000,-0.000308,-0.000483,-0.000235,-0.633744,-0.138827,0.026826,0.760510,12.723561,10.204181,-99.249450
35577,-1.629205,2.155323,9.885106,-0.100067,-0.170073,0.433097,-0.053041,-0.111071,-0.057697,-0.016341,0.021584,0.098836,1.000000,-0.000265,-0.000555,-0.000288,-0.633584,-0.138206,0.026925,0.760753,12.681499,10.146338,-99.291982
35578,-1.363985,2.148765,9.874223,-0.137717,-0.416015,0.374848,-0.039986,-0.108877,-0.067064,-0.013686,0.021512,0.098730,1.000000,-0.000200,-0.000544,-0.000335,-0.633380,-0.137638,0.027062,0.761022,12.646172,10.090855,-99.339407
35579,-1.214910,2.153145,9.894767,-0.156927,-0.556459,0.369855,-0.007765,-0.081911,-0.050632,-0.012184,0.021538,0.098942,1.000000,-0.000039,-0.000410,-0.000253,-0.633219,-0.137271,0.027246,0.761215,12.631493,10.048382,-99.374135
35580,-1.391117,2.235982,9.963041,-0.064416,-0.403830,0.484389,0.024179,-0.064600,-0.032741,-0.013940,0.022350,0.099629,1.000000,0.000121,-0.000323,-0.000164,-0.633106,-0.137069,0.027510,0.761335,12.637383,10.013317,-99.396392
35581,-1.482585,2.401732,10.125234,0.069406,-0.361876,0.692120,0.019428,-0.073065,-0.013463,-0.014861,0.024008,0.101249,1.000000,0.000097,-0.000365,-0.000067,-0.633069,-0.136817,0.027796,0.761401,12.642188,9.971130,-99.408886
35582,-1.489788,2.403415,10.145333,0.069105,-0.349329,0.713321,-0.008535,-0.088503,0.001469,-0.014943,0.024038,0.101446,1.000000,-0.000043,-0.000443,0.000007,-0.633106,-0.136415,0.028034,0.761434,12.632198,9.918406,-99.414758
35583,-1.590237,2.323614,10.251493,-0.012201,-0.239388,0.815750,-0.029569,-0.112084,0.010283,-0.015961,0.023250,0.102503,1.000000,-0.000148,-0.000560,0.000051,-0.633187,-0.135856,0.028273,0.761458,12.610418,9.851426,-99.418716
35584,-1.524732,2.264700,10.268046,-0.076224,-0.280305,0.808143,-0.041862,-0.146801,0.012831,-0.015324,0.022668,0.102664,1.000000,-0.000209,-0.000734,0.000064,-0.633281,-0.135126,0.028577,0.761498,12.581195,9.764673,-99.425487
35585,-1.495244,2.241915,10.282511,-0.097408,-0.289627,0.812686,-0.053435,-0.182952,0.012156,-0.015048,0.022446,0.102805,1.000000,-0.000267,-0.000915,0.000061,-0.633374,-0.134221,0.028950,0.761567,12.544433,9.657824,-99.437271
35586,-1.500846,2.203272,10.205709,-0.104913,-0.247094,0.732043,-0.053538,-0.210140,0.017564,-0.015118,0.022059,0.102035,0.999999,-0.000268,-0.001051,0.000088,-0.633484,-0.133211,0.029413,0.761635,12.507679,9.535042,-99.449226
35587,-1.501374,2.181290,10.099418,-0.089498,-0.206901,0.625680,-0.059371,-0.235811,0.007343,-0.015134,0.021842,0.100970,0.999999,-0.000297,-0.001179,0.000037,-0.633554,-0.132086,0.029928,0.761753,12.466050,9.399204,-99.470226
35588,-1.480388,2.192497,9.914166,-0.027267,-0.183429,0.446690,-0.044454,-0.243157,0.009724,-0.014925,0.021946,0.099119,0.999999,-0.000222,-0.001216,0.000049,-0.633621,-0.130980,0.030525,0.761864,12.433193,9.258897,-99.490584
35589,-1.475150,2.206145,9.747898,0.033943,-0.147884,0.288876,-0.036284,-0.240151,0.000901,-0.014869,0.022079,0.097457,0.999999,-0.000181,-0.001201,0.000005,-0.633648,-0.129913,0.031137,0.762000,12.404251,9.121400,-99.515597
35590,-1.474356,2.221381,9.641063,0.081915,-0.116747,0.189211,-0.024160,-0.225878,0.000178,-0.014852,0.022225,0.096391,0.999999,-0.000121,-0.001129,0.000001,-0.633667,-0.128938,0.031751,0.762124,12.382630,8.991913,-99.539055
35591,-1.532720,2.242412,9.551124,0.139044,-0.032842,0.116118,-0.002360,-0.206588,0.000679,-0.015426,0.022425,0.095495,0.999999,-0.000012,-0.001033,0.000003,-0.633675,-0.128106,0.032386,0.762231,12.373882,8.873208,-99.559905
35592,-1.647786,2.251353,9.388818,0.208756,0.115003,-0.021014,0.013647,-0.187985,0.003025,-0.016566,0.022507,0.093874,1.000000,0.000068,-0.000940,0.000015,-0.633684,-0.127395,0.033025,0.762315,12.375000,8.764570,-99.576981
35593,-1.693157,2.326443,9.308355,0.309204,0.171055,-0.076173,0.027892,-0.169762,0.007285,-0.017011,0.023251,0.093072,1.000000,0.000139,-0.000849,0.000036,-0.633703,-0.126797,0.033663,0.762371,12.384926,8.665664,-99.589505
35594,-1.750257,2.265002,9.228367,0.279059,0.263276,-0.158197,0.040659,-0.149514,0.004664,-0.017572,0.022631,0.092275,1.000000,0.000203,-0.000748,0.000023,-0.633707,-0.126317,0.034284,0.762420,12.402436,8.578363,-99.600894
35595,-1.693113,2.248132,9.141828,0.272984,0.234139,-0.254215,0.049418,-0.129571,0.001995,-0.016991,0.022459,0.091413,1.000000,0.000247,-0.000648,0.000010,-0.633698,-0.125942,0.034873,0.762463,12.425024,8.502605,-99.611459
35596,-1.707502,2.272200,9.091530,0.307666,0.260861,-0.295773,0.067654,-0.103962,0.005203,-0.017123,0.022691,0.090914,1.000000,0.000338,-0.000520,0.000026,-0.633695,-0.125722,0.035453,0.762475,12.458908,8.440739,-99.616927
35597,-1.668889,2.311045,9.112225,0.329784,0.223658,-0.273297,0.064603,-0.084741,0.010959,-0.016729,0.023080,0.091123,1.000000,0.000323,-0.000424,0.000055,-0.633717,-0.125564,0.035964,0.762458,12.491770,8.388963,-99.616892
35598,-1.663611,2.299588,9.142269,0.307497,0.226404,-0.247596,0.049066,-0.072725,0.016199,-0.016671,0.022972,0.091422,1.000000,0.000245,-0.000364,0.000081,-0.633773,-0.125401,0.036381,0.762419,12.516485,8.343218,-99.612291
35599,-1.649068,2.234297,9.183461,0.230687,0.228368,-0.224044,0.032929,-0.062973,0.024035,-0.016522,0.022326,0.091833,1.000000,0.000165,-0.000315,0.000120,-0.633869,-0.125223,0.036710,0.762353,12.532658,8.301992,-99.602176
35600,-1.546093,2.213110,9.197245,0.189134,0.137607,-0.230262,0.019154,-0.056992,0.033225,-0.015491,0.022120,0.091970,1.000000,0.000096,-0.000285,0.000166,-0.634011,-0.125023,0.036974,0.762255,12.541900,8.262933,-99.586001
35601,-1.560059,2.147569,9.217887,0.123477,0.168152,-0.222497,0.014163,-0.048461,0.037580,-0.015627,0.021466,0.092177,1.000000,0.000071,-0.000242,0.000188,-0.634173,-0.124839,0.037194,0.762140,12.548665,8.228134,-99.566424
35602,-1.670501,2.123655,9.255017,0.109708,0.283188,-0.176111,0.014619,-0.055663,0.044906,-0.016736,0.021226,0.092547,1.000000,0.000073,-0.000278,0.000225,-0.634362,-0.124627,0.037443,0.762005,12.556254,8.188364,-99.543495
35603,-1.726578,2.215563,9.202908,0.219809,0.332586,-0.198928,0.000475,-0.063895,0.041592,-0.017300,0.022152,0.092024,1.000000,0.000002,-0.000319,0.000208,-0.634545,-0.124340,0.037663,0.761889,12.555194,8.144430,-99.523604
35604,-1.879212,2.174924,9.270182,0.193244,0.490640,-0.121458,-0.035927,-0.088559,0.025118,-0.018836,0.021764,0.092690,1.000000,-0.000180,-0.000443,0.000126,-0.634683,-0.123846,0.037812,0.761846,12.531628,8.088734,-99.515989
35605,-2.031236,2.131935,9.398665,0.153550,0.644292,0.014178,-0.060073,-0.119717,0.007518,-0.020369,0.021347,0.093968,1.000000,-0.000300,-0.000599,0.000038,-0.634763,-0.123160,0.037956,0.761884,12.492164,8.017821,-99.522317
35606,-2.381057,2.086505,9.712943,0.103148,0.978498,0.355698,-0.064549,-0.200384,-0.001061,-0.023908,0.020897,0.097099,0.999999,-0.000323,-0.001002,-0.000005,-0.634798,-0.122155,0.038335,0.761998,12.448206,7.902827,-99.543396
35607,-2.538814,2.182759,10.004104,0.165810,1.111604,0.676776,-0.065219,-0.328861,0.001157,-0.025553,0.021860,0.099992,0.999999,-0.000326,-0.001644,0.000006,-0.634815,-0.120657,0.039120,0.762182,12.401812,7.715665,-99.579228
35608,-2.763249,2.042634,10.101376,0.060458,1.390185,0.766027,-0.033127,-0.496398,0.031563,-0.027886,0.020439,0.100941,0.999997,-0.000166,-0.002482,0.000158,-0.634893,-0.118616,0.040577,0.762361,12.373612,7.431000,-99.618422
35609,-2.340599,2.136459,9.952184,0.128294,1.032360,0.579916,0.023550,-0.671179,0.062960,-0.023747,0.021345,0.099445,0.999994,0.000118,-0.003356,0.000315,-0.635016,-0.116081,0.042823,0.762526,12.377514,7.044641,-99.661551
35610,-1.558006,2.137713,9.604241,0.090310,0.367875,0.141943,0.053295,-0.767574,0.091685,-0.015958,0.021344,0.095987,0.999992,0.000266,-0.003838,0.000458,-0.635202,-0.113266,0.045505,0.762639,12.399383,6.600859,-99.700387
35611,-0.922065,2.064917,9.176400,0.019723,-0.133366,-0.362726,0.097941,-0.775086,0.134429,-0.009590,0.020598,0.091737,0.999992,0.000490,-0.003875,0.000672,-0.635514,-0.110552,0.048404,0.762599,12.449561,6.147587,-99.716420
35612,-0.627216,2.042896,9.129189,-0.038892,-0.341970,-0.443053,0.155865,-0.714362,0.189081,-0.006617,0.020352,0.091285,0.999993,0.000779,-0.003572,0.000945,-0.636007,-0.108239,0.051361,0.762326,12.537070,5.721573,-99.694602
35613,-0.298069,2.241453,8.824068,0.162701,-0.617804,-0.725957,0.176153,-0.605500,0.216871,-0.003272,0.022333,0.088251,0.999994,0.000881,-0.003027,0.001084,-0.636616,-0.106396,0.054063,0.761891,12.638693,5.352884,-99.644318
35614,-0.410763,2.461486,8.931714,0.362792,-0.498383,-0.559421,0.132546,-0.470308,0.226909,-0.004346,0.024551,0.089323,0.999996,0.000663,-0.002352,0.001135,-0.637316,-0.104927,0.056174,0.761356,12.717164,5.058459,-99.571849
35615,-0.539401,2.293584,8.888340,0.231756,-0.295685,-0.625043,0.055951,-0.361184,0.226637,-0.005580,0.022905,0.088880,0.999998,0.000280,-0.001806,0.001133,-0.638082,-0.103628,0.057645,0.760782,12.752449,4.824948,-99.486111
35616,-0.653546,2.207821,8.974601,0.150616,-0.138501,-0.549690,0.009529,-0.265676,0.206171,-0.006677,0.022067,0.089738,0.999999,0.000048,-0.001328,0.001031,-0.638820,-0.102550,0.058624,0.760234,12.761000,4.647391,-99.399741
35617,-0.714525,2.042853,8.961556,0.009136,-0.023955,-0.593545,-0.010684,-0.190016,0.181941,-0.007249,0.020427,0.089608,0.999999,-0.000053,-0.000950,0.000910,-0.639496,-0.101701,0.059272,0.759729,12.757292,4.515150,-99.317475
35618,-0.823282,1.882683,9.009325,-0.135381,0.126903,-0.573868,0.007888,-0.123451,0.154670,-0.008303,0.018817,0.090089,1.000000,0.000039,-0.000617,0.000773,-0.640079,-0.101174,0.059764,0.759270,12.763658,4.423580,-99.241960
35619,-0.842143,1.821514,9.111603,-0.215114,0.165044,-0.486654,0.039481,-0.086005,0.134197,-0.008473,0.018191,0.091116,1.000000,0.000197,-0.000430,0.000671,-0.640578,-0.100894,0.060245,0.758848,12.787377,4.355484,-99.173293
35620,-0.561567,2.011452,9.158625,-0.091948,-0.137029,-0.420432,0.065746,-0.025230,0.106406,-0.005638,0.020081,0.091592,1.000000,0.000329,-0.000126,0.000532,-0.640977,-0.100939,0.060617,0.758476,12.825613,4.324861,-99.112404
35621,-0.637410,2.201036,9.296231,0.065158,-0.096601,-0.238912,0.054535,0.024290,0.079159,-0.006372,0.021982,0.092969,1.000000,0.000273,0.000121,0.000396,-0.641292,-0.101143,0.060774,0.758170,12.856611,4.325309,-99.060570
35622,-0.514077,2.145244,9.441541,-0.046012,-0.215877,-0.119374,0.037392,0.075532,0.070345,-0.005113,0.021433,0.094421,1.000000,0.000187,0.000378,0.000352,-0.641598,-0.101490,0.060698,0.757870,12.878047,4.355504,-99.007020
35623,-0.459944,2.162849,9.567817,-0.070641,-0.283721,0.002967,0.023567,0.117358,0.062627,-0.004550,0.021616,0.095683,1.000000,0.000118,0.000587,0.000313,-0.641894,-0.101952,0.060430,0.757579,12.891557,4.410006,-98.952516
35624,-0.495574,2.154210,9.757178,-0.120858,-0.265534,0.187493,0.016409,0.156186,0.066812,-0.004887,0.021532,0.097577,1.000000,0.000082,0.000781,0.000334,-0.642222,-0.102538,0.060014,0.757255,12.901719,4.485664,-98.890574
35625,-0.590079,2.182896,9.847571,-0.103199,-0.194694,0.288763,0.011884,0.171207,0.065637,-0.005824,0.021821,0.098482,1.000000,0.000059,0.000856,0.000328,-0.642551,-0.103165,0.059531,0.756929,12.909355,4.569835,-98.827441
35626,-0.675637,2.175565,9.918102,-0.117246,-0.127022,0.362204,0.015241,0.176276,0.066986,-0.006676,0.021746,0.099189,1.000000,0.000076,0.000881,0.000335,-0.642884,-0.103823,0.059046,0.756594,12.919243,4.656666,-98.762781
35627,-0.732059,2.182461,9.977401,-0.119465,-0.090239,0.425727,0.009516,0.169946,0.054217,-0.007242,0.021818,0.099781,1.000000,0.000048,0.000850,0.000271,-0.643170,-0.104441,0.058552,0.756304,12.925175,4.741577,-98.706170
35628,-0.805920,2.172145,9.967503,-0.119493,-0.030311,0.419791,0.015355,0.169198,0.042758,-0.007980,0.021712,0.099683,1.000000,0.000077,0.000846,0.000214,-0.643409,-0.105080,0.058077,0.756049,12.934114,4.827542,-98.655959
35629,-0.818513,2.208048,9.965105,-0.086058,-0.038814,0.426445,0.009702,0.166580,0.030654,-0.008106,0.022074,0.099659,1.000000,0.000049,0.000833,0.000153,-0.643603,-0.105693,0.057582,0.755836,12.939167,4.913582,-98.612951
35630,-0.721206,2.215082,9.951134,-0.093607,-0.150737,0.405937,0.007738,0.171408,0.011296,-0.007128,0.022147,0.099518,1.000000,0.000039,0.000857,0.000056,-0.643727,-0.106324,0.057055,0.755682,12.942394,5.004806,-98.580062
35631,-0.673004,2.174549,9.909246,-0.133598,-0.206364,0.351676,0.021135,0.191147,0.006164,-0.006636,0.021735,0.099101,1.000000,0.000106,0.000956,0.000031,-0.643828,-0.107073,0.056511,0.755531,12.953208,5.107699,-98.547587
35632,-0.763536,2.307592,9.995528,-0.017891,-0.162231,0.472830,0.033343,0.205370,-0.000894,-0.007533,0.023059,0.099967,0.999999,0.000167,0.001027,-0.000004,-0.643901,-0.107919,0.055964,0.755389,12.971003,5.219437,-98.517104
35633,-0.983682,2.542735,10.250922,0.176174,-0.016929,0.793121,0.000262,0.186288,-0.000574,-0.009741,0.025427,0.102518,1.000000,0.000001,0.000931,-0.000003,-0.643986,-0.108584,0.055354,0.755267,12.969578,5.320471,-98.488984
35634,-1.031586,2.493621,10.381012,0.106407,0.014633,0.912804,-0.058376,0.135598,0.003027,-0.010246,0.024966,0.103810,1.000000,-0.000292,0.000678,0.000015,-0.644102,-0.108869,0.054687,0.755175,12.934291,5.392748,-98.465309
35635,-0.991538,2.274362,10.465098,-0.123014,-0.005132,0.941799,-0.092817,0.075282,0.004393,-0.009876,0.022792,0.104644,1.000000,-0.000464,0.000376,0.000022,-0.644226,-0.108815,0.054085,0.755121,12.878512,5.431183,-98.448778
35636,-1.171958,2.057154,10.422596,-0.287157,0.206230,0.869582,-0.062892,-0.002627,0.005821,-0.011722,0.020604,0.104219,1.000000,-0.000314,-0.000013,0.000029,-0.644317,-0.108562,0.053849,0.755096,12.839129,5.425932,-98.441355
35637,-1.067271,2.075523,10.282718,-0.246798,0.112859,0.728067,-0.010382,-0.087806,0.000597,-0.010718,0.020761,0.102821,1.000000,-0.000052,-0.000439,0.000003,-0.644337,-0.108158,0.054081,0.755121,12.828411,5.373763,-98.447852
35638,-0.883133,2.124986,10.101189,-0.181818,-0.054418,0.545569,0.022995,-0.136910,-0.014590,-0.008899,0.021239,0.101008,1.000000,0.000115,-0.000685,-0.000073,-0.644268,-0.107681,0.054590,0.755211,12.835558,5.296098,-98.469050
35639,-0.746491,2.249342,9.878607,-0.029411,-0.182278,0.344555,0.020939,-0.153641,-0.033140,-0.007537,0.022484,0.098783,1.000000,0.000105,-0.000768,-0.000166,-0.644125,-0.107139,0.055135,0.755370,12.840299,5.211446,-98.502891
35640,-0.753498,2.213890,9.660952,-0.010462,-0.143419,0.126244,0.018842,-0.143760,-0.042499,-0.007600,0.022131,0.096606,1.000000,0.000094,-0.000719,-0.000212,-0.643951,-0.106630,0.055635,0.755554,12.843634,5.133510,-98.540628
35641,-0.797026,2.252412,9.502202,0.070907,-0.085969,-0.015340,0.024010,-0.123176,-0.038110,-0.008024,0.022514,0.095020,1.000000,0.000120,-0.000616,-0.000191,-0.643795,-0.106214,0.056090,0.755712,12.850323,5.066515,-98.573366
35642,-0.881955,2.329579,9.343256,0.194941,0.003339,-0.145051,0.024580,-0.093971,-0.029144,-0.008860,0.023286,0.093431,1.000000,0.000123,-0.000470,-0.000146,-0.643681,-0.105907,0.056459,0.755824,12.858250,5.014694,-98.597251
35643,-0.888930,2.348302,9.273631,0.230451,0.017975,-0.207922,0.013787,-0.063597,-0.024862,-0.008916,0.023478,0.092735,1.000000,0.000069,-0.000318,-0.000124,-0.643598,-0.105680,0.056691,0.755910,12.860451,4.979297,-98.614943
35644,-0.950828,2.267690,9.206778,0.177832,0.100014,-0.285378,0.018015,-0.030311,-0.021425,-0.009520,0.022670,0.092068,1.000000,0.000090,-0.000152,-0.000107,-0.643534,-0.105591,0.056835,0.755965,12.865731,4.962055,-98.626351
35645,-0.963169,2.271383,9.226607,0.177535,0.112571,-0.264234,0.027813,-0.006203,-0.012580,-0.009633,0.022702,0.092269,1.000000,0.000139,-0.000031,-0.000063,-0.643506,-0.105621,0.056941,0.755977,12.877210,4.957152,-98.629811
35646,-0.865418,2.280362,9.174012,0.182014,0.017093,-0.321740,0.022849,0.024775,-0.010276,-0.008642,0.022794,0.091744,1.000000,0.000114,0.000124,-0.000051,-0.643498,-0.105753,0.056932,0.755967,12.886416,4.969260,-98.627910
35647,-0.828434,2.261951,9.202633,0.149885,-0.020969,-0.301206,0.026490,0.059183,-0.005986,-0.008256,0.022608,0.092032,1.000000,0.000132,0.000296,-0.000030,-0.643514,-0.106025,0.056826,0.755923,12.898186,5.000035,-98.619284
35648,-0.902567,2.289408,9.272000,0.168473,0.037874,-0.221224,0.020357,0.088355,-0.004974,-0.008984,0.022885,0.092726,1.000000,0.000102,0.000442,-0.000025,-0.643545,-0.106388,0.056605,0.755862,12.906945,5.046974,-98.606237
35649,-0.938978,2.294249,9.311076,0.167206,0.062575,-0.178918,0.008896,0.105013,-0.002446,-0.009341,0.022938,0.093117,1.000000,0.000044,0.000525,-0.000012,-0.643596,-0.106775,0.056288,0.755787,12.909345,5.102888,-98.589728
35650,-1.045487,2.306851,9.450831,0.161014,0.147980,-0.030817,-0.002584,0.121671,0.000061,-0.010397,0.023070,0.094514,1.000000,-0.000013,0.000608,0.000000,-0.643668,-0.107188,0.055876,0.755698,12.905626,5.167789,-98.569567
35651,-1.111420,2.313435,9.530165,0.157791,0.196973,0.053800,-0.008070,0.113873,0.009223,-0.011061,0.023138,0.095307,1.000000,-0.000040,0.000569,0.000046,-0.643774,-0.107551,0.055472,0.755586,12.899035,5.227160,-98.545379
35652,-1.246506,2.325477,9.590667,0.175490,0.315345,0.127749,-0.021479,0.093439,0.009558,-0.012421,0.023264,0.095910,1.000000,-0.000107,0.000467,0.000048,-0.643884,-0.107794,0.055085,0.755486,12.884688,5.275089,-98.523530
35653,-1.160512,2.262123,9.600292,0.101681,0.233252,0.115296,-0.034884,0.065593,0.008616,-0.011575,0.022637,0.096003,1.000000,-0.000174,0.000328,0.000043,-0.643989,-0.107888,0.054735,0.755409,12.862170,5.307583,-98.505898
35654,-0.992498,2.154477,9.550417,-0.011891,0.082814,0.027551,-0.033691,0.051897,0.002620,-0.009900,0.021561,0.095503,1.000000,-0.000168,0.000259,0.000013,-0.644067,-0.107937,0.054431,0.755357,12.839996,5.333212,-98.493292
35655,-1.028249,2.121498,9.591252,-0.045858,0.116373,0.063269,-0.009905,0.049483,-0.006826,-0.010258,0.021220,0.095914,1.000000,-0.000050,0.000247,-0.000034,-0.644096,-0.108055,0.054219,0.755331,12.830805,5.358684,-98.486404
35656,-1.139023,2.185219,9.660566,0.015428,0.207166,0.155057,0.011878,0.036939,-0.006901,-0.011372,0.021847,0.096609,1.000000,0.000059,0.000185,-0.000035,-0.644109,-0.108197,0.054130,0.755306,12.834071,5.377175,-98.481061
35657,-1.241234,2.319443,9.728180,0.142169,0.280286,0.260008,0.026603,0.007828,-0.004139,-0.012408,0.023182,0.097285,1.000000,0.000133,0.000039,-0.000021,-0.644117,-0.108274,0.054192,0.755284,12.845444,5.379034,-98.477990
35658,-1.226484,2.319649,9.707770,0.143827,0.268583,0.238831,0.014248,-0.028661,-0.001050,-0.012279,0.023190,0.097078,1.000000,0.000071,-0.000143,-0.000005,-0.644133,-0.108174,0.054326,0.755274,12.849592,5.360139,-98.477756
35659,-1.098956,2.289801,9.617381,0.117625,0.157641,0.132473,0.011733,-0.053173,0.001928,-0.011015,0.022892,0.096172,1.000000,0.000059,-0.000266,0.000010,-0.644155,-0.107972,0.054531,0.755270,12.852033,5.327149,-98.479089
35660,-0.931490,2.221324,9.527365,0.048727,0.014755,0.014319,0.010111,-0.054531,-0.003161,-0.009341,0.022209,0.095272,1.000000,0.000051,-0.000273,-0.000016,-0.644159,-0.107762,0.054733,0.755282,12.853395,5.294078,-98.483354
35661,-0.795696,2.122433,9.477944,-0.054814,-0.095020,-0.068087,0.021678,-0.038160,-0.002237,-0.007975,0.021214,0.094780,1.000000,0.000108,-0.000191,-0.000011,-0.644164,-0.107649,0.054925,0.755280,12.861497,5.270004,-98.485104
35662,-0.777806,2.140951,9.486988,-0.043224,-0.113331,-0.056823,0.031130,-0.007533,-0.005306,-0.007781,0.021395,0.094873,1.000000,0.000156,-0.000038,-0.000027,-0.644161,-0.107684,0.055053,0.755268,12.875347,5.263459,-98.484558
35663,-0.822538,2.270378,9.534055,0.074565,-0.093052,0.021700,0.027262,0.021202,-0.004805,-0.008215,0.022691,0.095345,1.000000,0.000136,0.000106,-0.000024,-0.644170,-0.107815,0.055073,0.755241,12.887215,5.272870,-98.480144
35664,-1.071068,2.335341,9.774665,0.116188,0.125900,0.292545,0.001443,0.026076,-0.005949,-0.010697,0.023353,0.097748,1.000000,0.000007,0.000130,-0.000030,-0.644190,-0.107881,0.054980,0.755221,12.884420,5.285176,-98.475647
35665,-1.183997,2.329668,9.906200,0.099188,0.230126,0.429343,-0.040132,-0.014664,-0.008410,-0.011846,0.023317,0.099056,1.000000,-0.000201,-0.000073,-0.000042,-0.644211,-0.107660,0.054860,0.755243,12.857066,5.275015,-98.477854
35666,-1.125119,2.164828,9.960027,-0.074670,0.198709,0.439603,-0.049541,-0.045629,-0.007688,-0.011273,0.021673,0.099592,1.000000,-0.000248,-0.000228,-0.000038,-0.644232,-0.107293,0.054805,0.755281,12.824128,5.247493,-98.483512
35667,-1.021921,2.149257,9.880821,-0.079990,0.109758,0.349783,-0.039806,-0.081847,-0.016171,-0.010258,0.021513,0.098800,1.000000,-0.000199,-0.000409,-0.000081,-0.644205,-0.106821,0.054898,0.755364,12.795787,5.200781,-98.498632
35668,-0.922930,2.065886,9.802987,-0.150792,0.038418,0.246836,-0.030435,-0.099749,-0.029958,-0.009275,0.020675,0.098022,1.000000,-0.000152,-0.000499,-0.000150,-0.644117,-0.106316,0.055077,0.755498,12.772057,5.145841,-98.523650
35669,-0.919780,2.165609,9.702782,-0.027154,0.033179,0.171199,-0.019413,-0.097756,-0.035453,-0.009241,0.021667,0.097021,1.000000,-0.000097,-0.000489,-0.000177,-0.644002,-0.105855,0.055288,0.755645,12.754286,5.092667,-98.551569
35670,-0.880152,2.210753,9.632812,0.031007,-0.001767,0.109621,-0.022648,-0.081933,-0.042409,-0.008836,0.022120,0.096322,1.000000,-0.000113,-0.000410,-0.000212,-0.643867,-0.105447,0.055433,0.755807,12.734646,5.049240,-98.581272
35671,-0.851135,2.153642,9.624655,-0.021850,-0.014604,0.086601,-0.025912,-0.062068,-0.046365,-0.008536,0.021551,0.096241,1.000000,-0.000130,-0.000310,-0.000232,-0.643723,-0.105103,0.055499,0.755972,12.713056,5.017369,-98.610752
35672,-0.919321,2.140007,9.577184,-0.010294,0.061760,0.043443,-0.009283,-0.050368,-0.040851,-0.009213,0.021406,0.095769,1.000000,-0.000046,-0.000252,-0.000204,-0.643596,-0.104856,0.055593,0.756108,12.701536,4.991369,-98.635556
35673,-0.939920,2.177683,9.617144,0.021216,0.077698,0.092297,0.014056,-0.038285,-0.025012,-0.009415,0.021771,0.096171,1.000000,0.000070,-0.000191,-0.000125,-0.643519,-0.104724,0.055745,0.756181,12.704175,4.970091,-98.650034
35674,-0.828423,2.289168,9.563143,0.124043,-0.044228,0.054579,0.016819,-0.035123,-0.018670,-0.008299,0.022884,0.095632,1.000000,0.000084,-0.000176,-0.000093,-0.643465,-0.104613,0.055900,0.756230,12.708872,4.949818,-98.660465
35675,-0.728875,2.280511,9.541474,0.105913,-0.137519,0.023043,0.003640,-0.007710,-0.012205,-0.007291,0.022804,0.095415,1.000000,0.000018,-0.000039,-0.000061,-0.643450,-0.104560,0.055921,0.756248,12.706504,4.944015,-98.663891
35676,-0.695858,2.175054,9.602568,-0.014323,-0.155810,0.056452,0.005900,0.018818,-0.001091,-0.006949,0.021748,0.096027,1.000000,0.000029,0.000094,-0.000005,-0.643484,-0.104613,0.055871,0.756216,12.706389,4.951674,-98.657634
35677,-0.798587,2.167848,9.594183,-0.004715,-0.055126,0.055574,0.015649,0.039232,0.007118,-0.007968,0.021671,0.095945,1.000000,0.000078,0.000196,0.000036,-0.643549,-0.104770,0.055796,0.756144,12.712353,4.969673,-98.644280
35678,-0.798326,2.204625,9.652618,0.015926,-0.067787,0.120382,0.008786,0.047600,0.007457,-0.007961,0.022042,0.096529,1.000000,0.000044,0.000238,0.000037,-0.643622,-0.104939,0.055669,0.756068,12.714628,4.992337,-98.629581
35679,-0.841231,2.104543,9.634741,-0.070711,-0.012407,0.084779,0.007175,0.057365,0.004313,-0.008385,0.021042,0.096351,1.000000,0.000036,0.000287,0.000022,-0.643686,-0.105139,0.055502,0.755998,12.715810,5.020823,-98.615503
35680,-0.889122,2.109781,9.634584,-0.060117,0.028791,0.089963,0.019946,0.063768,-0.000124,-0.008860,0.021088,0.096351,1.000000,0.000100,0.000319,-0.000001,-0.643729,-0.105406,0.055361,0.755935,12.724299,5.053476,-98.603006
35681,-0.962603,2.152584,9.613857,-0.005901,0.089840,0.085714,0.027987,0.064283,-0.000255,-0.009595,0.021512,0.096145,1.000000,0.000140,0.000321,-0.000001,-0.643766,-0.105700,0.055248,0.755870,12.737273,5.086402,-98.590604
35682,-0.880849,2.198459,9.580380,0.030522,-0.002325,0.056044,0.029851,0.075087,-0.004953,-0.008772,0.021971,0.095810,1.000000,0.000149,0.000375,-0.000025,-0.643788,-0.106043,0.055105,0.755814,12.751340,5.125988,-98.579367
35683,-0.890687,2.183287,9.549543,0.021255,0.004625,0.023641,0.025815,0.085949,-0.002983,-0.008866,0.021821,0.095502,1.000000,0.000129,0.000430,-0.000015,-0.643823,-0.106413,0.054913,0.755747,12.763197,5.171360,-98.565726
35684,-0.885521,2.184516,9.527966,0.022910,-0.007123,0.002496,0.036792,0.091995,-0.005491,-0.008811,0.021828,0.095288,1.000000,0.000184,0.000460,-0.000027,-0.643843,-0.106843,0.054742,0.755681,12.781428,5.220456,-98.552619
35685,-0.835090,2.233904,9.474501,0.070217,-0.070659,-0.043146,0.049921,0.113450,0.001123,-0.008297,0.022315,0.094755,1.000000,0.000250,0.000567,0.000006,-0.643887,-0.107393,0.054554,0.755579,12.807655,5.280664,-98.533139
35686,-0.836056,2.202929,9.452988,0.039119,-0.073649,-0.070824,0.057859,0.132837,0.006504,-0.008298,0.022002,0.094542,1.000000,0.000289,0.000664,0.000033,-0.643953,-0.108042,0.054338,0.755446,12.839096,5.351040,-98.508038
35687,-0.774453,2.255054,9.498392,0.061867,-0.157917,-0.021073,0.066985,0.164478,0.010345,-0.007668,0.022518,0.094998,1.000000,0.000335,0.000822,0.000052,-0.644036,-0.108837,0.054055,0.755282,12.876257,5.438554,-98.476777
35688,-0.815529,2.299829,9.534602,0.093395,-0.141903,0.027742,0.075408,0.190157,0.016064,-0.008066,0.022962,0.095362,0.999999,0.000377,0.000951,0.000080,-0.644143,-0.109755,0.053725,0.755081,12.919056,5.539686,-98.438846
35689,-0.914536,2.351649,9.650433,0.121102,-0.077192,0.161119,0.062538,0.212737,0.020707,-0.009045,0.023485,0.096521,0.999999,0.000313,0.001064,0.000104,-0.644279,-0.110716,0.053276,0.754857,12.954966,5.652776,-98.395419
35690,-1.069650,2.423098,9.696008,0.193198,0.042548,0.236638,0.047812,0.209695,0.027530,-0.010598,0.024206,0.096977,0.999999,0.000239,0.001048,0.000138,-0.644448,-0.111616,0.052785,0.754614,12.983005,5.763293,-98.348385
35691,-1.258374,2.426396,9.723265,0.210614,0.208417,0.283102,0.026162,0.193464,0.035534,-0.012494,0.024249,0.097248,1.000000,0.000131,0.000967,0.000178,-0.644654,-0.112382,0.052269,0.754361,12.998839,5.863673,-98.299009
35692,-1.242572,2.320777,9.723402,0.103155,0.194293,0.258367,-0.005488,0.164676,0.032856,-0.012349,0.023208,0.097244,1.000000,-0.000027,0.000823,0.000164,-0.644860,-0.112939,0.051725,0.754139,12.996220,5.948350,-98.254744
35693,-1.193154,2.244134,9.683719,0.030399,0.147065,0.197887,-0.008312,0.143637,0.028020,-0.011865,0.022444,0.096845,1.000000,-0.000042,0.000718,0.000140,-0.645043,-0.113408,0.051236,0.753945,12.991339,6.021878,-98.216020
35694,-1.233500,2.247213,9.722068,0.029156,0.171853,0.240158,-0.009226,0.118900,0.018329,-0.012279,0.022475,0.097227,1.000000,-0.000046,0.000594,0.000092,-0.645184,-0.113784,0.050817,0.753796,12.985207,6.082880,-98.185842
35695,-1.206389,2.191570,9.752379,-0.035503,0.142454,0.254372,-0.011137,0.092019,0.005069,-0.012020,0.021921,0.097528,1.000000,-0.000056,0.000460,0.000025,-0.645268,-0.114055,0.050470,0.753706,12.976706,6.130551,-98.166694
35696,-1.253269,2.230558,9.810278,-0.004936,0.170691,0.324297,-0.006252,0.068229,-0.004191,-0.012499,0.022309,0.098106,1.000000,-0.000031,0.000341,-0.000021,-0.645309,-0.114255,0.050213,0.753658,12.970269,6.166170,-98.155731
35697,-1.290986,2.338353,9.866793,0.091191,0.181494,0.407238,-0.007153,0.033059,-0.010998,-0.012892,0.023388,0.098669,1.000000,-0.000036,0.000165,-0.000055,-0.645316,-0.114321,0.050062,0.753652,12.962281,6.182992,-98.153241
35698,-1.279030,2.338809,9.966477,0.067405,0.161231,0.502645,-0.003769,-0.004982,-0.007601,-0.012792,0.023390,0.099664,1.000000,-0.000019,-0.000025,-0.000038,-0.645324,-0.114254,0.050049,0.753656,12.956047,6.178178,-98.153664
35699,-1.304176,2.341595,10.006739,0.066208,0.186047,0.544907,-0.011147,-0.060853,-0.008296,-0.013071,0.023422,0.100062,1.000000,-0.000056,-0.000304,-0.000041,-0.645320,-0.113952,0.050187,0.753696,12.944632,6.142214,-98.161790
35700,-1.074874,2.284231,9.990298,-0.014086,-0.020994,0.491607,-0.012242,-0.102417,-0.009347,-0.010799,0.022849,0.099896,1.000000,-0.000061,-0.000512,-0.000047,-0.645302,-0.113491,0.050456,0.753763,12.932102,6.083220,-98.175765
35701,-0.923662,2.269220,9.972494,-0.041893,-0.155148,0.455093,-0.011068,-0.119148,-0.011213,-0.009295,0.022698,0.099718,1.000000,-0.000055,-0.000596,-0.000056,-0.645272,-0.112971,0.050781,0.753846,12.919785,6.015072,-98.193025
35702,-0.879261,2.159382,9.916735,-0.136623,-0.165128,0.372189,-0.013323,-0.126474,-0.014395,-0.008854,0.021601,0.099160,1.000000,-0.000067,-0.000632,-0.000072,-0.645229,-0.112417,0.051120,0.753942,12.906053,5.943281,-98.212901
35703,-0.806333,2.203444,9.867075,-0.089250,-0.228619,0.326557,-0.004103,-0.121131,-0.017294,-0.008121,0.022037,0.098665,1.000000,-0.000021,-0.000606,-0.000086,-0.645171,-0.111913,0.051474,0.754043,12.897394,5.874796,-98.233797
35704,-0.844998,2.278956,9.946045,-0.026805,-0.196860,0.424108,-0.001243,-0.108198,-0.018473,-0.008502,0.022791,0.099456,1.000000,-0.000006,-0.000541,-0.000092,-0.645110,-0.111468,0.051798,0.754139,12.890637,5.813722,-98.253585
35705,-0.997861,2.348062,10.035443,0.043359,-0.052609,0.541760,-0.003649,-0.111137,-0.016351,-0.010032,0.023483,0.100348,1.000000,-0.000018,-0.000556,-0.000082,-0.645057,-0.111003,0.052122,0.754230,12.882469,5.750693,-98.272645
35706,-1.066507,2.390321,10.096029,0.083809,0.016512,0.616769,-0.021609,-0.137789,-0.014020,-0.010733,0.023915,0.100950,1.000000,-0.000108,-0.000689,-0.000070,-0.645016,-0.110379,0.052466,0.754333,12.863963,5.672512,-98.293702
35707,-1.037205,2.385141,10.078478,0.085507,0.004784,0.595629,-0.043867,-0.170761,-0.003579,-0.010458,0.023874,0.100771,1.000000,-0.000219,-0.000854,-0.000018,-0.645017,-0.109556,0.052838,0.754426,12.832764,5.574537,-98.313179
35708,-0.974753,2.252235,9.974471,-0.018351,-0.010967,0.459230,-0.051518,-0.193973,-0.003551,-0.009844,0.022548,0.099729,0.999999,-0.000258,-0.000970,-0.000018,-0.645017,-0.108621,0.053257,0.754532,12.797077,5.463615,-98.335445
35709,-1.048730,2.151211,9.920640,-0.083673,0.101420,0.391690,-0.036788,-0.216333,-0.004234,-0.010594,0.021531,0.099191,0.999999,-0.000184,-0.001082,-0.000021,-0.644998,-0.107649,0.053802,0.754649,12.769439,5.340238,-98.360974
35710,-1.093918,2.172659,9.933819,-0.052350,0.164825,0.413157,-0.012988,-0.254576,-0.004659,-0.011065,0.021733,0.099323,0.999999,-0.000065,-0.001273,-0.000023,-0.644955,-0.106610,0.054560,0.754779,12.755171,5.195571,-98.391456
35711,-0.953336,2.193818,9.835041,-0.023887,0.054811,0.308878,0.003857,-0.280749,-0.004244,-0.009671,0.021936,0.098337,0.999999,0.000019,-0.001404,-0.000021,-0.644895,-0.105525,0.055466,0.754916,12.750224,5.036184,-98.425091
35712,-0.923063,2.226968,9.777098,0.022252,0.050806,0.257065,0.000240,-0.294289,-0.014226,-0.009373,0.022270,0.097757,0.999999,0.000001,-0.001471,-0.000071,-0.644794,-0.104381,0.056397,0.755092,12.742807,4.870529,-98.465927
35713,-0.860338,2.167968,9.630840,-0.004376,0.034045,0.096506,-0.001158,-0.292753,-0.017429,-0.008742,0.021681,0.096296,0.999999,-0.000006,-0.001464,-0.000087,-0.644681,-0.103237,0.057316,0.755277,12.734439,4.706091,-98.508423
35714,-0.850811,2.165752,9.474113,0.033297,0.059386,-0.057254,0.005637,-0.280249,-0.023498,-0.008638,0.021656,0.094730,0.999999,0.000028,-0.001401,-0.000117,-0.644544,-0.102166,0.058217,0.755470,12.730075,4.549444,-98.552620
35715,-0.757651,2.174558,9.344514,0.061466,-0.003376,-0.188819,0.019881,-0.249915,-0.016853,-0.007691,0.021737,0.093438,0.999999,0.000099,-0.001250,-0.000084,-0.644433,-0.101252,0.059077,0.755622,12.734442,4.408869,-98.589330
35716,-0.656188,2.149781,9.254346,0.045133,-0.073916,-0.289688,0.030242,-0.212410,-0.008775,-0.006659,0.021484,0.092540,0.999999,0.000151,-0.001062,-0.000044,-0.644357,-0.100511,0.059860,0.755724,12.745668,4.288281,-98.616684
35717,-0.831500,2.190019,9.329444,0.093157,0.107723,-0.194694,0.040787,-0.167814,-0.001678,-0.008393,0.021881,0.093292,1.000000,0.000204,-0.000839,-0.000008,-0.644315,-0.099970,0.060542,0.755777,12.763562,4.191681,-98.634520
35718,-1.733098,2.346163,9.883560,0.249931,0.969455,0.443556,0.064179,-0.195596,0.019892,-0.017430,0.023428,0.098826,0.999999,0.000321,-0.000978,0.000099,-0.644334,-0.099393,0.061414,0.755767,12.795642,4.076874,-98.643754
35719,-2.579048,2.623548,10.489248,0.504421,1.770218,1.149545,0.055165,-0.396207,0.063878,-0.026007,0.026198,0.104848,0.999998,0.000276,-0.001981,0.000319,-0.644460,-0.098015,0.062918,0.755716,12.822382,3.844360,-98.654043
35720,-2.135079,2.645111,10.576345,0.447362,1.383940,1.200867,-0.027736,-0.651148,0.091055,-0.021707,0.026456,0.105689,0.999995,-0.000139,-0.003256,0.000455,-0.644644,-0.095398,0.064944,0.755722,12.800719,3.466039,-98.681505
35721,-1.129378,2.208149,10.031258,0.019925,0.551394,0.505865,-0.099447,-0.812163,0.073427,-0.011709,0.022127,0.100255,0.999992,-0.000497,-0.004061,0.000367,-0.644735,-0.091945,0.067209,0.755874,12.736338,2.999877,-98.739034
35722,-0.298839,1.609337,9.405367,-0.518853,-0.082699,-0.280446,-0.069620,-0.839226,0.028048,-0.003385,0.016126,0.094034,0.999991,-0.000348,-0.004196,0.000140,-0.644620,-0.088500,0.069651,0.756162,12.688297,2.524358,-98.824824
35723,0.238236,1.517507,8.981055,-0.580843,-0.521835,-0.734755,0.033343,-0.755020,-0.002801,0.002044,0.015160,0.089821,0.999993,0.000167,-0.003775,-0.000014,-0.644362,-0.085714,0.072197,0.756465,12.699521,2.099660,-98.917143
35724,0.350390,1.951341,8.914548,-0.162917,-0.639648,-0.704245,0.117728,-0.618191,-0.017388,0.003230,0.019461,0.089167,0.999995,0.000589,-0.003091,-0.000087,-0.644054,-0.083723,0.074614,0.756715,12.760142,1.753426,-99.000521
35725,0.033359,2.401501,9.137244,0.268549,-0.345138,-0.375202,0.101688,-0.513280,-0.004824,0.000100,0.023969,0.091385,0.999997,0.000508,-0.002566,-0.000024,-0.643834,-0.082070,0.076636,0.756881,12.812467,1.464205,-99.063951
35726,-0.084357,2.392967,9.268608,0.250342,-0.181222,-0.244781,0.046436,-0.439755,0.023709,-0.001050,0.023908,0.092689,0.999998,0.000232,-0.002199,0.000119,-0.643769,-0.080508,0.078225,0.756942,12.834154,1.212555,-99.102200
35727,-0.090570,2.421230,9.381357,0.257445,-0.138427,-0.127913,0.016206,-0.382802,0.039812,-0.001090,0.024204,0.093814,0.999998,0.000081,-0.001914,0.000199,-0.643796,-0.079055,0.079522,0.756937,12.838858,0.990599,-99.124318
35728,-0.137180,2.395620,9.449761,0.232315,-0.051941,-0.065943,-0.035190,-0.345581,0.047469,-0.001541,0.023972,0.094491,0.999998,-0.000176,-0.001728,0.000237,-0.643886,-0.077577,0.080507,0.756909,12.814475,0.788537,-99.137316
35729,-0.063027,2.221065,9.631620,0.021607,-0.061877,0.071686,-0.033460,-0.305155,0.058761,-0.000784,0.022227,0.096311,0.999999,-0.000167,-0.001526,0.000294,-0.644031,-0.076250,0.081373,0.756827,12.791128,0.607545,-99.138854
35730,-0.746195,2.094178,10.023280,-0.072560,0.675597,0.431664,0.037375,-0.336700,0.098568,-0.007641,0.020919,0.100224,0.999998,0.000187,-0.001683,0.000493,-0.644286,-0.075018,0.082623,0.756598,12.808676,0.403952,-99.122076
35731,-0.596278,2.322014,10.178849,0.089608,0.539937,0.630324,0.088745,-0.452165,0.141214,-0.006209,0.023171,0.101785,0.999997,0.000444,-0.002261,0.000706,-0.644633,-0.073494,0.084455,0.756250,12.855487,0.130341,-99.096351
35732,-0.009976,2.479874,9.959970,0.197324,-0.017402,0.449446,0.079319,-0.511613,0.154888,-0.000374,0.024759,0.099609,0.999996,0.000397,-0.002558,0.000774,-0.645005,-0.071711,0.086448,0.755879,12.896906,-0.178148,-99.070730
35733,0.336691,2.341371,9.629356,0.084585,-0.296740,0.098137,0.056584,-0.506903,0.151739,0.003105,0.023389,0.096308,0.999996,0.000283,-0.002535,0.000759,-0.645370,-0.069872,0.088338,0.755521,12.925030,-0.483711,-99.046512
35734,0.554310,2.268377,9.418799,0.030469,-0.460653,-0.119738,0.034449,-0.444346,0.127945,0.005319,0.022671,0.094204,0.999997,0.000172,-0.002222,0.000640,-0.645677,-0.068209,0.089933,0.755222,12.940552,-0.751210,-99.027612
35735,0.552484,2.186229,9.372909,-0.033799,-0.407982,-0.181043,0.024096,-0.359691,0.105374,0.005345,0.021854,0.093741,0.999998,0.000120,-0.001798,0.000527,-0.645938,-0.066840,0.091208,0.754969,12.949946,-0.968634,-99.010569
35736,0.357769,2.143541,9.419388,-0.050926,-0.173959,-0.147559,0.024963,-0.290401,0.088894,0.003431,0.021425,0.094202,0.999999,0.000125,-0.001452,0.000444,-0.646165,-0.065745,0.092257,0.754743,12.959929,-1.145176,-98.993798
35737,0.175638,2.206108,9.522486,0.017851,0.030040,-0.036480,0.028625,-0.246427,0.088413,0.001629,0.022048,0.095230,0.999999,0.000143,-0.001232,0.000442,-0.646408,-0.064826,0.093177,0.754501,12.971704,-1.297185,-98.971739
35738,0.152606,2.195074,9.497640,0.018200,0.077684,-0.063821,0.025703,-0.224496,0.074017,0.001411,0.021939,0.094981,0.999999,0.000129,-0.001122,0.000370,-0.646608,-0.063988,0.094011,0.754298,12.982019,-1.435025,-98.954861
35739,0.263335,2.168019,9.435866,-0.009664,-0.009411,-0.127389,0.020414,-0.196901,0.064263,0.002533,0.021671,0.094363,0.999999,0.000102,-0.000985,0.000321,-0.646784,-0.063241,0.094731,0.754120,12.989170,-1.556281,-98.939962
35740,0.491371,2.092744,9.359354,-0.099522,-0.210462,-0.212462,0.023507,-0.147756,0.042952,0.004840,0.020917,0.093600,1.000000,0.000118,-0.000739,0.000215,-0.646902,-0.062700,0.095298,0.753993,12.998366,-1.647281,-98.930583
35741,0.551756,2.159307,9.349939,-0.042800,-0.268115,-0.204635,0.033700,-0.084604,0.019071,0.005476,0.021578,0.093505,1.000000,0.000169,-0.000423,0.000095,-0.646956,-0.062440,0.095692,0.753918,13.013399,-1.700024,-98.926479
35742,0.491612,2.225960,9.446242,0.007877,-0.205234,-0.097448,0.042411,-0.038441,0.013689,0.004896,0.022240,0.094468,1.000000,0.000212,-0.000192,0.000068,-0.647009,-0.062387,0.095967,0.753842,13.033476,-1.726235,-98.919367
35743,0.449781,2.393416,9.516815,0.157977,-0.180316,0.007855,0.031023,-0.005033,0.011324,0.004494,0.023920,0.095172,1.000000,0.000155,-0.000025,0.000057,-0.647073,-0.062422,0.096091,0.753768,13.046791,-1.733564,-98.909329
35744,0.417619,2.347180,9.532039,0.113928,-0.140492,0.011299,0.009326,0.016753,0.011705,0.004183,0.023468,0.095321,1.000000,0.000047,0.000084,0.000059,-0.647156,-0.062470,0.096062,0.753697,13.047731,-1.728718,-98.896190
35745,0.406199,2.294892,9.504705,0.071759,-0.125102,-0.027487,-0.007532,0.033120,0.011554,0.004076,0.022953,0.095046,1.000000,-0.000038,0.000166,0.000058,-0.647250,-0.062524,0.095917,0.753630,13.038805,-1.714781,-98.881089
35746,0.407699,2.273854,9.454663,0.063306,-0.130527,-0.080975,-0.010417,0.060125,0.017897,0.004103,0.022744,0.094544,1.000000,-0.000052,0.000301,0.000089,-0.647383,-0.062669,0.095676,0.753534,13.028173,-1.686525,-98.858884
35747,0.028994,2.374741,9.692052,0.167591,0.238622,0.161835,-0.002115,0.067336,0.014095,0.000321,0.023748,0.096920,1.000000,-0.000011,0.000337,0.000070,-0.647502,-0.062869,0.095441,0.753445,13.022195,-1.653812,-98.837947
35748,-0.402770,2.534713,10.005414,0.322675,0.658129,0.490615,-0.053475,0.012788,0.009631,-0.004023,0.025374,0.100048,1.000000,-0.000267,0.000064,0.000048,-0.647595,-0.062700,0.095189,0.753411,12.987223,-1.650904,-98.826478
35749,-0.129293,2.288784,9.978789,0.058648,0.424047,0.417083,-0.101778,-0.076659,0.001073,-0.001331,0.022939,0.099776,1.000000,-0.000509,-0.000383,0.000005,-0.647627,-0.062040,0.095040,0.753457,12.924895,-1.696895,-98.831361
35750,0.148063,1.980968,9.762832,-0.221608,0.188808,0.145940,-0.100526,-0.120994,-0.024660,0.001424,0.019859,0.097619,1.000000,-0.000503,-0.000605,-0.000123,-0.647541,-0.061231,0.095033,0.753598,12.864048,-1.764285,-98.856176
35751,0.340286,1.911300,9.560683,-0.264694,0.006063,-0.060487,-0.059995,-0.123221,-0.062386,0.003350,0.019141,0.095603,1.000000,-0.000300,-0.000616,-0.000312,-0.647299,-0.060562,0.095173,0.753842,12.826964,-1.828213,-98.902371
35752,0.482330,1.975566,9.430776,-0.191296,-0.143493,-0.168111,-0.019892,-0.092451,-0.099862,0.004790,0.019763,0.094308,1.000000,-0.000099,-0.000462,-0.000499,-0.646918,-0.060157,0.095354,0.754179,12.813598,-1.870126,-98.965510
35753,0.449138,2.169714,9.420584,0.005067,-0.135041,-0.135988,0.001013,-0.045046,-0.120284,0.004483,0.021694,0.094207,1.000000,0.000005,-0.000225,-0.000601,-0.646475,-0.060007,0.095454,0.754558,12.812268,-1.883047,-99.034097
35754,0.518276,2.322171,9.497769,0.125242,-0.220320,-0.024711,-0.009404,-0.004982,-0.119698,0.005194,0.023223,0.094977,1.000000,-0.000047,-0.000025,-0.000598,-0.646057,-0.059976,0.095386,0.754927,12.804940,-1.873588,-99.097200
35755,0.591430,2.437494,9.555172,0.213562,-0.309232,0.059052,-0.018134,0.032522,-0.098279,0.005942,0.024381,0.095549,1.000000,-0.000091,0.000163,-0.000491,-0.645740,-0.060046,0.095169,0.755220,12.791900,-1.845981,-99.143631
35756,0.490845,2.416873,9.730122,0.174174,-0.202464,0.221562,-0.034977,0.075093,-0.069914,0.004953,0.024184,0.097295,1.000000,-0.000175,0.000375,-0.000350,-0.645556,-0.060211,0.094761,0.755415,12.768655,-1.798126,-99.168746
35757,0.109267,2.357349,9.983582,0.125356,0.191045,0.443468,-0.015383,0.074312,-0.031039,0.001133,0.023581,0.099834,1.000000,-0.000077,0.000372,-0.000155,-0.645512,-0.060416,0.094440,0.755477,12.755795,-1.755706,-99.172309
35758,-0.350930,2.464341,10.232802,0.248887,0.642122,0.695980,0.014250,-0.002970,0.019040,-0.003513,0.024636,0.102330,1.000000,0.000071,-0.000015,0.000095,-0.645611,-0.060403,0.094496,0.755386,12.759508,-1.762738,-99.157588
35759,-0.077519,2.455574,10.207255,0.202822,0.378793,0.677273,0.011552,-0.102863,0.049290,-0.000834,0.024550,0.102074,1.000000,0.000058,-0.000514,0.000246,-0.645778,-0.059987,0.094873,0.755229,12.761377,-1.829491,-99.138674
35760,0.150646,2.221349,10.063583,-0.026569,0.193663,0.492387,0.009588,-0.159002,0.050270,0.001421,0.022209,0.100638,1.000000,0.000048,-0.000795,0.000251,-0.645923,-0.059355,0.095424,0.755086,12.762468,-1.927654,-99.126255
35761,0.389990,2.069724,9.805094,-0.154296,-0.018826,0.214851,0.038302,-0.186614,0.048562,0.003803,0.020679,0.098058,1.000000,0.000192,-0.000933,0.000243,-0.646039,-0.058710,0.096172,0.754942,12.779984,-2.041117,-99.118373
35762,0.657417,2.128276,9.596143,-0.097421,-0.286780,0.033934,0.071625,-0.165570,0.035575,0.006491,0.021250,0.095974,1.000000,0.000358,-0.000828,0.000178,-0.646105,-0.058260,0.096975,0.754817,12.816903,-2.141091,-99.115069
35763,0.721322,2.249159,9.553544,0.014907,-0.355048,0.022094,0.058187,-0.116372,0.033127,0.007154,0.022465,0.095546,1.000000,0.000291,-0.000582,0.000166,-0.646190,-0.057952,0.097567,0.754693,12.845778,-2.213358,-99.106990
35764,0.615277,2.318946,9.596556,0.087753,-0.246942,0.075755,0.032776,-0.067860,0.031645,0.006117,0.023175,0.095971,1.000000,0.000164,-0.000339,0.000158,-0.646300,-0.057747,0.097906,0.754570,12.860034,-2.258261,-99.093512
35765,0.523084,2.297522,9.630378,0.074138,-0.144033,0.100443,0.011666,-0.032741,0.042360,0.005210,0.022971,0.096306,1.000000,0.000058,-0.000164,0.000212,-0.646473,-0.057600,0.098054,0.754414,12.861615,-2.284994,-99.069634
35766,0.499470,2.217713,9.706486,-0.015192,-0.099931,0.155932,0.015374,-0.010810,0.046213,0.004984,0.022171,0.097067,1.000000,0.000077,-0.000054,0.000231,-0.646671,-0.057547,0.098147,0.754236,12.865272,-2.299896,-99.040733
35767,0.321897,2.281661,9.910936,0.029582,0.083794,0.362201,0.032574,-0.005908,0.054148,0.003210,0.022801,0.099113,1.000000,0.000163,-0.000030,0.000271,-0.646896,-0.057562,0.098291,0.754023,12.878415,-2.313151,-99.006843
35768,0.079554,2.333254,10.054675,0.085206,0.331153,0.503802,0.023700,-0.052112,0.059412,0.000762,0.023321,0.100550,1.000000,0.000118,-0.000261,0.000297,-0.647120,-0.057374,0.098553,0.753811,12.886737,-2.352817,-98.975849
35769,0.139086,2.239129,9.979260,0.002277,0.289619,0.411538,0.001217,-0.101328,0.043132,0.001335,0.022391,0.099793,1.000000,0.000006,-0.000507,0.000216,-0.647266,-0.056934,0.098884,0.753676,12.882632,-2.417967,-98.960319
35770,0.258430,2.078843,9.746550,-0.118331,0.189498,0.153941,-0.003323,-0.131244,0.016512,0.002519,0.020790,0.097467,1.000000,-0.000017,-0.000656,0.000083,-0.647297,-0.056381,0.099288,0.753638,12.876865,-2.496344,-98.963423
35771,0.311398,2.049787,9.549525,-0.110860,0.139210,-0.042307,0.024646,-0.126793,-0.008566,0.003054,0.020486,0.095500,1.000000,0.000123,-0.000634,-0.000043,-0.647227,-0.055947,0.099775,0.753666,12.887565,-2.569112,-98.980049
35772,0.320472,2.132804,9.375064,0.003844,0.116473,-0.193447,0.048774,-0.110590,-0.032512,0.003156,0.021305,0.093758,1.000000,0.000244,-0.000553,-0.000163,-0.647069,-0.055664,0.100295,0.753753,12.912776,-2.629678,-99.007949
35773,0.045736,2.289207,9.380766,0.193223,0.375291,-0.165763,0.060692,-0.084820,-0.030920,0.000421,0.022864,0.093815,1.000000,0.000303,-0.000424,-0.000155,-0.646926,-0.055516,0.100775,0.753823,12.944495,-2.676128,-99.031745
35774,-0.384967,2.503507,9.549525,0.428313,0.793052,0.025848,0.045866,-0.112576,-0.012869,-0.003902,0.025013,0.095499,1.000000,0.000229,-0.000563,-0.000064,-0.646841,-0.055207,0.101296,0.753849,12.967591,-2.740292,-99.048985
35775,-0.289977,2.458337,9.457977,0.390213,0.712148,-0.069926,-0.000574,-0.168395,0.004260,-0.002980,0.024584,0.094577,1.000000,-0.000003,-0.000842,0.000021,-0.646804,-0.054527,0.101825,0.753859,12.963831,-2.837912,-99.063904
35776,0.210835,2.235443,9.119512,0.173488,0.238093,-0.425444,-0.026500,-0.178715,0.005771,0.002026,0.022367,0.091194,1.000000,-0.000133,-0.000894,0.000029,-0.646775,-0.053726,0.102292,0.753878,12.945430,-2.941380,-99.079234
35777,0.522916,1.967925,8.910226,-0.084565,-0.035162,-0.673218,-0.006963,-0.133985,-0.004104,0.005170,0.019682,0.089105,1.000000,-0.000035,-0.000670,-0.000021,-0.646725,-0.053159,0.102684,0.753908,12.938071,-3.018719,-99.094370
35778,0.534357,2.058022,8.956802,-0.008740,-0.045888,-0.607085,0.035838,-0.068752,-0.011559,0.005314,0.020564,0.089574,1.000000,0.000179,-0.000344,-0.000058,-0.646669,-0.052983,0.103025,0.753921,12.955190,-3.058559,-99.105243
35779,0.435511,2.268849,9.076334,0.182238,0.036427,-0.448787,0.044334,-0.016175,-0.011851,0.004349,0.022668,0.090769,1.000000,0.000222,-0.000081,-0.000059,-0.646637,-0.053030,0.103227,0.753918,12.976667,-3.069117,-99.109579
35780,0.159330,2.377778,9.256532,0.290479,0.309943,-0.263753,0.014477,0.009184,0.003125,0.001597,0.023771,0.092567,1.000000,0.000072,0.000046,0.000016,-0.646683,-0.053071,0.103240,0.753874,12.980580,-3.067326,-99.102221
35781,0.023806,2.288752,9.280186,0.221501,0.458467,-0.267974,-0.009200,0.000607,0.012077,0.000237,0.022892,0.092801,1.000000,-0.000046,0.000003,0.000060,-0.646764,-0.052996,0.103192,0.753817,12.970552,-3.071592,-99.091017
35782,-0.039471,2.203616,9.202175,0.168142,0.527173,-0.366454,-0.016996,-0.012971,0.010975,-0.000402,0.022044,0.092020,1.000000,-0.000085,-0.000065,0.000055,-0.646836,-0.052847,0.103160,0.753770,12.956353,-3.083168,-99.082123
35783,0.069061,2.017312,9.191447,-0.024248,0.447330,-0.412883,-0.006292,-0.016631,-0.001557,0.000683,0.020176,0.091914,1.000000,-0.000031,-0.000083,-0.000008,-0.646856,-0.052724,0.103176,0.753759,12.948518,-3.095303,-99.080758
35784,0.189602,1.982335,9.062743,-0.049426,0.323242,-0.539501,0.020756,-0.001317,-0.022451,0.001898,0.019814,0.090629,1.000000,0.000104,-0.000007,-0.000112,-0.646798,-0.052759,0.103239,0.753798,12.956875,-3.096064,-99.089060
35785,0.357682,2.051323,9.003516,0.001242,0.140942,-0.572596,0.028554,0.038385,-0.047171,0.003599,0.020500,0.090037,1.000000,0.000143,0.000192,-0.000236,-0.646665,-0.052979,0.103196,0.753902,12.969997,-3.071619,-99.106121
35786,0.514600,2.145758,9.075697,0.048117,-0.027325,-0.472757,0.045362,0.101224,-0.055284,0.005198,0.021436,0.090759,1.000000,0.000227,0.000506,-0.000276,-0.646529,-0.053497,0.103011,0.754007,12.992714,-3.010893,-99.119567
35787,0.339539,2.294862,9.226871,0.182122,0.125245,-0.301223,0.034869,0.154106,-0.055095,0.003473,0.022932,0.092270,1.000000,0.000174,0.000771,-0.000275,-0.646424,-0.054178,0.102616,0.754103,13.008874,-2.920812,-99.126105
35788,0.368290,2.420555,9.347034,0.268136,0.073380,-0.154300,0.026336,0.182752,-0.038356,0.003773,0.024193,0.093470,1.000000,0.000132,0.000914,-0.000192,-0.646398,-0.054933,0.102101,0.754140,13.019650,-2.816749,-99.119519
35789,0.484734,2.344108,9.450577,0.149886,-0.040219,-0.064913,0.009594,0.210576,-0.023342,0.004950,0.023436,0.094502,0.999999,0.000048,0.001053,-0.000117,-0.646448,-0.055729,0.101436,0.754129,13.020099,-2.699241,-99.100981
35790,0.650145,2.364989,9.544279,0.120665,-0.220135,0.038509,0.001652,0.244835,-0.010827,0.006620,0.023649,0.095435,0.999999,0.000008,0.001224,-0.000054,-0.646563,-0.056624,0.100634,0.754071,13.015690,-2.564074,-99.070981
35791,0.624176,2.302341,9.689161,0.030343,-0.198817,0.163770,-0.002139,0.277475,-0.004314,0.006377,0.023024,0.096883,0.999999,-0.000011,0.001387,-0.000022,-0.646719,-0.057624,0.099714,0.753983,13.008667,-2.411671,-99.033193
35792,0.540611,2.262377,9.831098,-0.028740,-0.126538,0.289005,0.000582,0.282463,0.007303,0.005544,0.022624,0.098303,0.999999,0.000003,0.001412,0.000037,-0.646920,-0.058648,0.098792,0.753854,13.003194,-2.257835,-98.988238
35793,0.448227,2.247381,10.103716,-0.091495,-0.040155,0.547171,0.012352,0.277401,0.016394,0.004621,0.022468,0.101032,0.999999,0.000062,0.001387,0.000082,-0.647147,-0.059685,0.097932,0.753689,13.004236,-2.108139,-98.938921
35794,0.404004,2.325387,10.225386,-0.039824,-0.024033,0.681452,0.010297,0.239123,0.026867,0.004159,0.023249,0.102250,0.999999,0.000051,0.001196,0.000134,-0.647395,-0.060567,0.097192,0.753502,13.004365,-1.981022,-98.888641
35795,0.336165,2.283423,10.344443,-0.097947,0.036030,0.785595,-0.008331,0.194805,0.028527,0.003459,0.022839,0.103440,1.000000,-0.000042,0.000974,0.000143,-0.647633,-0.061220,0.096525,0.753331,12.993905,-1.878996,-98.843218
35796,0.341639,2.277166,10.302341,-0.095338,0.011925,0.743410,-0.028155,0.148691,0.029003,0.003490,0.022787,0.103018,1.000000,-0.000141,0.000743,0.000145,-0.647855,-0.061636,0.095934,0.753181,12.972517,-1.802625,-98.803445
35797,0.561637,2.192100,10.185167,-0.182866,-0.214176,0.617032,-0.042219,0.120481,0.015372,0.005676,0.021943,0.101844,1.000000,-0.000211,0.000602,0.000077,-0.648017,-0.061904,0.095376,0.753091,12.943292,-1.740377,-98.775001
35798,0.671195,2.140257,10.172437,-0.243611,-0.328032,0.596093,-0.035364,0.119616,-0.000709,0.006773,0.021421,0.101717,1.000000,-0.000177,0.000598,-0.000004,-0.648115,-0.062202,0.094842,0.753049,12.918469,-1.676401,-98.755630
35799,0.403449,2.185504,10.255284,-0.175901,-0.076248,0.678895,-0.004590,0.108013,-0.002710,0.004090,0.021857,0.102550,1.000000,-0.000023,0.000540,-0.000014,-0.648191,-0.062554,0.094460,0.753003,12.911203,-1.618778,-98.738935
35800,0.292449,2.389228,10.292327,0.028375,-0.001617,0.757323,0.015345,0.068238,0.008472,0.002959,0.023885,0.102924,1.000000,0.000077,0.000341,0.000042,-0.648283,-0.062818,0.094286,0.752923,12.915507,-1.584671,-98.721037
35801,0.249076,2.533715,10.312866,0.169460,0.018240,0.808419,-0.003318,0.019894,0.007175,0.002500,0.025339,0.103128,1.000000,-0.000017,0.000099,0.000036,-0.648354,-0.062838,0.094198,0.752872,12.909148,-1.577525,-98.710108
35802,0.477712,2.365727,10.229128,-0.006388,-0.188891,0.695605,-0.031057,-0.015371,0.004364,0.004769,0.023673,0.102288,1.000000,-0.000155,-0.000077,0.000022,-0.648406,-0.062639,0.094120,0.752853,12.887233,-1.589583,-98.705211
35803,0.496710,2.185453,10.172638,-0.167311,-0.183094,0.600956,-0.014739,-0.030934,0.003157,0.004951,0.021862,0.101726,1.000000,-0.000074,-0.000155,0.000016,-0.648441,-0.062432,0.094152,0.752836,12.874571,-1.610307,-98.703026
35804,0.631299,2.190284,10.185720,-0.184783,-0.311679,0.618683,0.021164,-0.044217,0.001435,0.006290,0.021892,0.101861,1.000000,0.000106,-0.000221,0.000007,-0.648452,-0.062295,0.094363,0.752811,12.882722,-1.638106,-98.703445
35805,0.412153,2.326639,10.330065,-0.052324,-0.099336,0.783574,0.030011,-0.061024,0.002207,0.004090,0.023251,0.103305,1.000000,0.000150,-0.000305,0.000011,-0.648455,-0.062121,0.094661,0.752786,12.895825,-1.675515,-98.705641
35806,0.166220,2.349304,10.552269,-0.042875,0.164972,0.997871,0.042937,-0.120509,0.026268,0.001596,0.023471,0.105529,1.000000,0.000215,-0.000603,0.000131,-0.648517,-0.061755,0.095208,0.752694,12.916327,-1.749107,-98.701966
35807,-0.200780,2.436534,10.699220,0.062840,0.545575,1.148547,0.067797,-0.231170,0.068245,-0.002140,0.024328,0.106998,0.999999,0.000339,-0.001156,0.000341,-0.648675,-0.061032,0.096221,0.752487,12.950608,-1.889996,-98.689126
35808,-0.084094,2.501193,10.624876,0.122547,0.451474,1.092909,0.063136,-0.367684,0.102085,-0.001049,0.024978,0.106255,0.999998,0.000316,-0.001838,0.000510,-0.648895,-0.059765,0.097669,0.752213,12.982297,-2.111338,-98.674971
35809,0.378570,2.394786,10.298371,0.023916,0.033048,0.767146,0.026196,-0.461969,0.104972,0.003535,0.023936,0.102995,0.999997,0.000131,-0.002310,0.000525,-0.649088,-0.058020,0.099284,0.751972,12.993013,-2.385824,-98.671483
35810,0.639032,2.236175,9.979345,-0.091977,-0.176337,0.432136,-0.011005,-0.476165,0.070977,0.006145,0.022369,0.099807,0.999997,-0.000055,-0.002381,0.000355,-0.649152,-0.056120,0.100795,0.751859,12.983480,-2.663723,-98.688779
35811,0.633095,2.005573,9.780187,-0.262392,-0.106896,0.187049,0.000181,-0.466760,0.038738,0.006099,0.020057,0.097816,0.999997,0.000001,-0.002334,0.000194,-0.649093,-0.054305,0.102307,0.751839,12.981093,-2.932359,-98.722904
35812,0.512091,2.143434,9.706927,-0.090087,0.033858,0.140781,0.043170,-0.462490,0.023596,0.004894,0.021414,0.097085,0.999997,0.000216,-0.002312,0.000118,-0.648965,-0.052655,0.103963,0.751840,13.004082,-3.196524,-98.764958
35813,0.291909,2.215902,9.783352,-0.000942,0.295869,0.218348,0.070601,-0.488673,0.043194,0.002675,0.022125,0.097848,0.999997,0.000353,-0.002443,0.000216,-0.648885,-0.050983,0.105812,0.751766,13.042396,-3.477942,-98.799635
35814,0.599633,2.359620,9.591989,0.132366,0.004712,0.082557,0.076761,-0.494379,0.043635,0.005754,0.023561,0.095943,0.999997,0.000384,-0.002472,0.000218,-0.648798,-0.049312,0.107702,0.751684,13.084613,-3.762444,-98.834976
35815,0.576403,2.522831,9.482868,0.319384,0.043041,0.011653,0.026965,-0.477527,0.037551,0.005533,0.025217,0.094845,0.999997,0.000135,-0.002388,0.000188,-0.648706,-0.047543,0.109347,0.751640,13.098405,-4.036868,-98.871717
35816,0.609498,2.311271,9.387982,0.136640,0.073373,-0.126436,-0.006628,-0.438020,0.034431,0.005885,0.023117,0.093892,0.999998,-0.000033,-0.002190,0.000172,-0.648628,-0.045817,0.110737,0.751611,13.093038,-4.288702,-98.905054
35817,0.484647,2.270958,9.284400,0.146105,0.231628,-0.246232,0.001470,-0.421617,0.037167,0.004647,0.022710,0.092854,0.999998,0.000007,-0.002108,0.000186,-0.648565,-0.044175,0.112104,0.751562,13.092009,-4.531875,-98.934761
35818,0.633435,2.221396,9.203070,0.097550,0.121744,-0.325439,0.030013,-0.395980,0.054660,0.006146,0.022202,0.092046,0.999998,0.000150,-0.001980,0.000273,-0.648573,-0.042714,0.113499,0.751430,13.106561,-4.762868,-98.951334
35819,0.367458,2.277179,9.243706,0.186582,0.418685,-0.296573,0.053256,-0.380635,0.071200,0.003491,0.022748,0.092450,0.999998,0.000266,-0.001903,0.000356,-0.648643,-0.041375,0.114935,0.751226,13.133381,-4.987584,-98.956769
35820,0.434924,2.510238,9.338723,0.382203,0.370698,-0.147358,0.057446,-0.378757,0.082093,0.004162,0.025077,0.093402,0.999998,0.000287,-0.001894,0.000410,-0.648753,-0.040051,0.116382,0.750980,13.162236,-5.212522,-98.955933
35821,0.080338,2.432610,9.597532,0.310127,0.801564,0.051280,0.034332,-0.405941,0.107707,0.000595,0.024310,0.095981,0.999998,0.000172,-0.002030,0.000539,-0.648945,-0.038534,0.117834,0.750667,13.176682,-5.456117,-98.944428
35822,-0.339476,2.359727,9.772305,0.270836,1.293788,0.158974,0.069119,-0.506915,0.155069,-0.003661,0.023561,0.097722,0.999996,0.000346,-0.002535,0.000775,-0.649244,-0.036725,0.119754,0.750195,13.209891,-5.762071,-98.919711
35823,0.033305,2.417025,9.716658,0.282192,0.972500,0.148779,0.092657,-0.623719,0.191315,0.000007,0.024125,0.097178,0.999995,0.000463,-0.003119,0.000957,-0.649599,-0.034529,0.122146,0.749606,13.255775,-6.138109,-98.890298
35824,0.367336,2.315285,9.519382,0.175684,0.699088,-0.035464,0.109107,-0.695903,0.219037,0.003317,0.023105,0.095218,0.999993,0.000546,-0.003480,0.001095,-0.650003,-0.032102,0.124838,0.748920,13.310430,-6.557875,-98.855186
35825,1.004068,2.236569,9.149248,0.082377,0.102000,-0.341599,0.099468,-0.711507,0.229926,0.009689,0.022331,0.091538,0.999993,0.000497,-0.003558,0.001150,-0.650431,-0.029575,0.127545,0.748196,13.358692,-6.988009,-98.816403
35826,1.527251,2.184821,8.804401,0.028832,-0.390890,-0.621960,0.077151,-0.631241,0.211479,0.014971,0.021830,0.088100,0.999994,0.000386,-0.003156,0.001057,-0.650835,-0.027290,0.129902,0.747525,13.394064,-7.370776,-98.777532
35827,1.551564,2.119463,8.762777,-0.024943,-0.357416,-0.671727,0.057034,-0.518790,0.193304,0.015268,0.021184,0.087674,0.999996,0.000285,-0.002594,0.000967,-0.651241,-0.025369,0.131815,0.746904,13.416880,-7.688682,-98.733989
35828,1.359897,2.234577,8.990416,0.071918,-0.099571,-0.450262,0.037395,-0.416346,0.169784,0.013393,0.022340,0.089936,0.999997,0.000187,-0.002082,0.000849,-0.651625,-0.023784,0.133317,0.746355,13.428348,-7.946182,-98.689976
35829,0.981648,2.403781,9.222421,0.250897,0.330034,-0.240704,-0.032204,-0.374775,0.146569,0.009626,0.024060,0.092238,0.999998,-0.000161,-0.001874,0.000733,-0.651956,-0.022140,0.134420,0.745919,13.400611,-8.177620,-98.653400
35830,1.084744,2.198172,9.242436,0.045644,0.292502,-0.255308,-0.098441,-0.368813,0.117995,0.010664,0.022034,0.092433,0.999998,-0.000492,-0.001844,0.000590,-0.652188,-0.020324,0.135253,0.745617,13.337141,-8.401719,-98.631903
35831,1.333850,1.893879,9.146728,-0.250433,0.099770,-0.381049,-0.099873,-0.338790,0.070750,0.013177,0.018989,0.091480,0.999998,-0.000499,-0.001694,0.000354,-0.652262,-0.018645,0.135978,0.745464,13.275894,-8.603025,-98.632792
35832,1.115306,1.865023,9.392263,-0.285240,0.391092,-0.184477,-0.023256,-0.310964,0.048495,0.011002,0.018664,0.093938,0.999999,-0.000116,-0.001555,0.000242,-0.652263,-0.017337,0.136895,0.745327,13.260048,-8.785682,-98.642390
35833,0.980605,2.229686,9.572371,0.055130,0.547498,0.049385,0.045347,-0.351758,0.050481,0.009632,0.022278,0.095746,0.999998,0.000227,-0.001759,0.000252,-0.652236,-0.016097,0.138200,0.745137,13.284028,-8.991554,-98.656325
35834,1.402596,2.563611,9.518025,0.330248,0.124498,0.137564,-0.001954,-0.370229,0.043585,0.013844,0.025640,0.095206,0.999998,-0.000010,-0.001851,0.000218,-0.652172,-0.014641,0.139389,0.745002,13.282147,-9.206598,-98.676665
35835,1.667799,2.231754,9.217439,0.040080,-0.119453,-0.184214,-0.075501,-0.351735,0.043303,0.016511,0.022356,0.092195,0.999998,-0.000378,-0.001759,0.000217,-0.652123,-0.013012,0.140242,0.744915,13.237637,-9.411517,-98.694625
35836,1.988194,2.160846,9.066250,-0.034128,-0.423981,-0.292284,-0.073216,-0.277211,0.026600,0.019753,0.021644,0.090682,0.999999,-0.000366,-0.001386,0.000133,-0.652062,-0.011682,0.140860,0.744874,13.194577,-9.572474,-98.711984
35837,2.110698,2.036837,9.060557,-0.161274,-0.509076,-0.304152,-0.067169,-0.199799,0.013783,0.021015,0.020400,0.090620,0.999999,-0.000336,-0.000999,0.000069,-0.652006,-0.010667,0.141247,0.744865,13.154320,-9.688802,-98.726230
35838,2.161993,2.133093,9.086434,-0.072793,-0.550114,-0.248188,-0.053173,-0.118987,0.006575,0.021565,0.021356,0.090872,1.000000,-0.000266,-0.000595,0.000033,-0.651979,-0.010005,0.141422,0.744865,13.121159,-9.758906,-98.733804
35839,1.999568,2.223882,9.170352,0.030143,-0.378100,-0.174461,-0.069246,-0.045280,-0.000960,0.019975,0.022270,0.091700,1.000000,-0.000346,-0.000226,-0.000005,-0.651977,-0.009569,0.141296,0.744896,13.077683,-9.787109,-98.735889
35840,2.103207,2.042243,9.097810,-0.138711,-0.473286,-0.266948,-0.089699,0.022999,-0.012001,0.021044,0.020462,0.090967,1.000000,-0.000448,0.000115,-0.000060,-0.651982,-0.009330,0.140871,0.744975,13.022206,-9.775583,-98.735232
35841,2.102090,2.025847,9.234039,-0.173963,-0.450255,-0.140185,-0.072238,0.098407,-0.026048,0.021069,0.020289,0.092323,1.000000,-0.000361,0.000492,-0.000130,-0.651988,-0.009437,0.140265,0.745083,12.976230,-9.720339,-98.732688
35842,1.444218,2.166132,9.717736,-0.029842,0.258310,0.244382,-0.050971,0.130632,-0.022931,0.014508,0.021684,0.097162,1.000000,-0.000255,0.000653,-0.000115,-0.652027,-0.009733,0.139633,0.745164,12.941626,-9.647323,-98.724207
35843,1.032050,2.294233,10.185649,0.067174,0.727428,0.653563,-0.023033,0.059227,-0.001097,0.010351,0.022954,0.101851,1.000000,-0.000115,0.000296,-0.000005,-0.652095,-0.009837,0.139339,0.745158,12.922347,-9.617155,-98.712693
35844,0.816462,2.438845,10.404676,0.197931,0.964934,0.859781,0.016441,-0.056910,0.041636,0.008130,0.024382,0.104051,1.000000,0.000082,-0.000285,0.000208,-0.652240,-0.009609,0.139572,0.744990,12.924338,-9.657126,-98.692067
35845,1.293191,2.437298,10.154106,0.175228,0.465571,0.697838,0.034600,-0.175693,0.075451,0.012834,0.024360,0.101557,1.000000,0.000173,-0.000878,0.000377,-0.652426,-0.008972,0.140262,0.744705,12.935902,-9.767957,-98.667740
35846,1.362706,2.632269,10.224595,0.339310,0.414109,0.819409,0.073288,-0.222755,0.104220,0.013499,0.026292,0.102271,0.999999,0.000366,-0.001114,0.000521,-0.652684,-0.008268,0.141251,0.744301,12.968029,-9.908559,-98.633277
35847,0.380591,2.769902,10.804904,0.502616,1.507991,1.234318,0.074579,-0.374452,0.174940,0.003579,0.027662,0.108066,0.999998,0.000373,-0.001872,0.000875,-0.653096,-0.006952,0.142742,0.743668,12.997086,-10.143188,-98.578602
35848,1.070736,2.640693,10.545150,0.332201,0.853446,1.072203,0.012469,-0.575938,0.225017,0.010374,0.026412,0.105483,0.999995,0.000062,-0.002880,0.001125,-0.653548,-0.004651,0.144661,0.742918,12.990103,-10.496525,-98.521899
35849,1.565778,2.540135,10.202200,0.245185,0.380936,0.807253,-0.071704,-0.677267,0.210295,0.015285,0.025454,0.102065,0.999994,-0.000359,-0.003386,0.001051,-0.653866,-0.001705,0.146596,0.742271,12.938301,-10.904759,-98.486553
35850,2.200304,2.057592,9.761150,-0.206524,-0.209172,0.398494,-0.138486,-0.696096,0.151873,0.021647,0.020660,0.097673,0.999993,-0.000692,-0.003480,0.000759,-0.653946,0.001482,0.148343,0.741854,12.854958,-11.315738,-98.486390
35851,2.353612,1.650705,9.535478,-0.557681,-0.299758,0.126549,-0.113682,-0.654604,0.089816,0.023216,0.016572,0.095422,0.999994,-0.000568,-0.003273,0.000449,-0.653818,0.004392,0.150044,0.741613,12.791507,-11.695903,-98.515668
35852,2.307416,1.792481,9.728401,-0.434401,-0.162557,0.334405,-0.031922,-0.611354,0.033387,0.022774,0.017944,0.097351,0.999995,-0.000160,-0.003057,0.000167,-0.653508,0.006828,0.151907,0.741488,12.780700,-12.044516,-98.571367
35853,1.131403,2.269809,10.480103,0.067185,1.169987,0.906027,0.046966,-0.676336,0.044603,0.010954,0.022676,0.104844,0.999994,0.000235,-0.003382,0.000223,-0.653187,0.009259,0.154273,0.741256,12.815718,-12.431098,-98.629225
35854,1.221451,2.539136,10.597829,0.305048,1.167566,1.086675,-0.040298,-0.878773,0.050987,0.011742,0.025416,0.106025,0.999990,-0.000201,-0.004394,0.000255,-0.652719,0.012728,0.156974,0.741050,12.806378,-12.931315,-98.710006
35855,2.301173,2.011857,9.756877,-0.189449,0.065156,0.409771,-0.117296,-0.984030,0.033159,0.022528,0.020180,0.097669,0.999988,-0.000586,-0.004920,0.000166,-0.652082,0.016826,0.159730,0.740940,12.758920,-13.488388,-98.814612
35856,3.091517,1.611978,8.955929,-0.529635,-0.769515,-0.247580,-0.084300,-0.944254,-0.022671,0.030494,0.016154,0.089697,0.999989,-0.000421,-0.004721,-0.000113,-0.651258,0.020621,0.162480,0.740971,12.737887,-14.015953,-98.946096
35857,3.438740,1.775318,8.808101,-0.386737,-1.076955,-0.260229,-0.008772,-0.804074,-0.086627,0.034041,0.017742,0.088218,0.999992,-0.000044,-0.004020,-0.000433,-0.650306,0.023602,0.165057,0.741149,12.765677,-14.457368,-99.096432
35858,2.484423,1.958017,9.403094,-0.169451,0.053752,0.106605,0.099646,-0.726970,-0.074635,0.024509,0.019524,0.094130,0.999993,0.000498,-0.003635,-0.000373,-0.649465,0.025951,0.167781,0.741196,12.852695,-14.856828,-99.230496
35859,2.496479,2.464811,9.592645,0.282631,0.120462,0.396701,0.143814,-0.787063,-0.023388,0.024590,0.024576,0.096041,0.999992,0.000719,-0.003935,-0.000117,-0.648759,0.028424,0.170855,0.741021,12.960414,-15.296440,-99.343812
35860,3.113898,2.706750,9.377647,0.456810,-0.473846,0.411274,0.092785,-0.787172,0.024221,0.030766,0.027028,0.093911,0.999992,0.000464,-0.003936,0.000121,-0.648212,0.031102,0.173730,0.740723,13.032785,-15.741818,-99.430553
35861,3.202492,2.510083,9.276657,0.274767,-0.491383,0.301433,-0.000940,-0.746898,0.047695,0.031672,0.025109,0.092885,0.999993,-0.000005,-0.003734,0.000238,-0.647763,0.033956,0.176121,0.740426,13.046837,-16.167944,-99.498749
35862,3.407422,2.153139,9.198126,-0.079281,-0.602716,0.211389,-0.039919,-0.696926,0.058933,0.033747,0.021560,0.092095,0.999994,-0.000200,-0.003485,0.000295,-0.647385,0.036758,0.178203,0.740126,13.035509,-16.567383,-99.553859
35863,3.174655,2.010592,9.601144,-0.240359,-0.175561,0.493326,-0.002266,-0.646728,0.072060,0.031429,0.020118,0.096113,0.999995,-0.000011,-0.003234,0.000360,-0.647099,0.039267,0.180256,0.739749,13.041799,-16.940747,-99.594600
35864,1.853329,2.200509,10.582064,-0.010884,1.438929,1.058647,0.112004,-0.747544,0.143929,0.018122,0.021959,0.105901,0.999993,0.000560,-0.003738,0.000720,-0.647002,0.041841,0.183042,0.739009,13.105761,-17.379434,-99.607397
35865,2.036304,2.579302,10.515563,0.343222,1.307271,1.121139,0.136714,-0.993717,0.222268,0.019812,0.025743,0.105273,0.999987,0.000684,-0.004969,0.001111,-0.646960,0.045317,0.186696,0.737925,13.180285,-17.965898,-99.608540
35866,3.657859,2.627241,9.612534,0.300675,-0.405250,0.790489,0.035534,-1.078835,0.234475,0.036029,0.026298,0.096325,0.999985,0.000178,-0.005394,0.001172,-0.646843,0.049443,0.190243,0.736856,13.198607,-18.601166,-99.614785
35867,3.186541,2.001067,9.981296,-0.282294,0.334330,0.845268,0.070151,-1.041483,0.257079,0.031319,0.020016,0.099984,0.999986,0.000351,-0.005207,0.001285,-0.646834,0.053341,0.193786,0.735668,13.230762,-19.218830,-99.602800
35868,1.152328,2.512700,10.797417,0.401223,2.603064,1.017221,0.247831,-1.286461,0.373465,0.010782,0.025014,0.108076,0.999977,0.001239,-0.006432,0.001867,-0.647039,0.057674,0.198736,0.733838,13.353421,-19.988170,-99.557069
35869,3.068064,3.461501,9.882099,1.194396,0.573138,1.017515,0.071208,-1.540452,0.420150,0.029845,0.034643,0.099065,0.999968,0.000356,-0.007702,0.002101,-0.647076,0.063556,0.203835,0.731919,13.377191,-20.905605,-99.520217
35870,5.187523,2.038082,8.077253,-0.175356,-1.798516,-0.167014,-0.268692,-1.442069,0.315217,0.051259,0.020571,0.081116,0.999972,-0.001343,-0.007210,0.001576,-0.646681,0.070064,0.207393,0.730673,13.223171,-21.753990,-99.530990
35871,5.346016,0.455368,7.426800,-1.596099,-1.957207,-1.005565,-0.248404,-1.165435,0.135469,0.053023,0.004682,0.074572,0.999982,-0.001242,-0.005827,0.000677,-0.645894,0.075309,0.210184,0.730049,13.105968,-22.424928,-99.608847
35872,4.709207,0.784217,7.912983,-1.236491,-1.111459,-0.721920,-0.052703,-0.948620,-0.005869,0.046716,0.007862,0.079350,0.999989,-0.000264,-0.004743,-0.000029,-0.644874,0.078978,0.213036,0.729737,13.122904,-22.956306,-99.741400
35873,4.164694,1.877356,8.545941,-0.179675,-0.359210,-0.130723,-0.035960,-0.827643,-0.101308,0.041302,0.018768,0.085627,0.999991,-0.000180,-0.004138,-0.000507,-0.643627,0.082050,0.215593,0.729747,13.166665,-23.407948,-99.915459
35874,3.893520,2.176474,9.161258,0.066096,0.196233,0.374651,-0.104800,-0.779385,-0.139287,0.038593,0.021786,0.091752,0.999992,-0.000524,-0.003897,-0.000696,-0.642255,0.085123,0.217755,0.729962,13.179193,-23.827393,-100.106639
35875,2.914317,2.128114,9.576213,0.126012,1.337597,0.332278,-0.101688,-0.874143,-0.106217,0.028736,0.021315,0.095877,0.999990,-0.000508,-0.004371,-0.000531,-0.640891,0.088569,0.220215,0.730013,13.192316,-24.304219,-100.291886
35876,4.312714,2.146409,8.530538,0.092100,-0.287058,-0.020593,-0.133021,-0.964448,-0.102328,0.042726,0.021499,0.085498,0.999988,-0.000665,-0.004822,-0.000512,-0.639413,0.092445,0.222843,0.730031,13.193864,-24.831646,-100.488599
35877,5.008861,1.931480,7.901409,-0.124598,-1.089674,-0.323313,-0.167986,-0.811962,-0.139918,0.049781,0.019346,0.079200,0.999991,-0.000840,-0.004060,-0.000700,-0.637939,0.095835,0.224869,0.730263,13.177503,-25.269379,-100.687087
35878,4.294652,1.806841,8.143484,-0.150644,-0.269935,-0.435631,-0.139281,-0.689807,-0.154022,0.042679,0.018092,0.081570,0.999994,-0.000696,-0.003449,-0.000770,-0.636554,0.098667,0.226614,0.730555,13.175412,-25.636911,-100.877263
35879,4.451916,1.944642,8.085117,-0.025956,-0.390713,-0.388424,-0.094747,-0.628103,-0.144254,0.044279,0.019453,0.080981,0.999995,-0.000474,-0.003141,-0.000721,-0.635289,0.101144,0.228317,0.730787,13.193462,-25.971515,-101.052984
35880,4.647925,2.140084,7.952774,0.156854,-0.593632,-0.375918,-0.136461,-0.510772,-0.159495,0.046293,0.021418,0.079632,0.999996,-0.000682,-0.002554,-0.000797,-0.634075,0.103305,0.229500,0.731168,13.185461,-26.238427,-101.221634
35881,4.530422,1.692476,7.847539,-0.236237,-0.461644,-0.609207,-0.155307,-0.397045,-0.176093,0.045163,0.016946,0.078552,0.999997,-0.000777,-0.001985,-0.000880,-0.632918,0.105092,0.230262,0.731676,13.164471,-26.439998,-101.384248
35882,4.525115,1.725006,7.805005,-0.191319,-0.453312,-0.640540,-0.146717,-0.287168,-0.206740,0.045157,0.017261,0.078102,0.999998,-0.000734,-0.001436,-0.001034,-0.631776,0.106412,0.230722,0.732327,13.150448,-26.576096,-101.550181
35883,4.974950,1.667988,7.383325,-0.265337,-1.026752,-0.817068,-0.228559,-0.150215,-0.275004,0.049717,0.016696,0.073852,0.999998,-0.001143,-0.000751,-0.001375,-0.630497,0.107412,0.230485,0.733357,13.099789,-26.627195,-101.738780
35884,5.471442,1.418704,7.017072,-0.546961,-1.614128,-0.964857,-0.326284,0.095795,-0.403191,0.054777,0.014191,0.070121,0.999997,-0.001631,0.000479,-0.002016,-0.628975,0.107668,0.229182,0.735033,13.013030,-26.524400,-101.971711
35885,4.730097,1.350992,7.591087,-0.547717,-0.714241,-0.811947,-0.431750,0.328364,-0.563032,0.047464,0.013540,0.075804,0.999992,-0.002159,0.001642,-0.002815,-0.627069,0.107218,0.226844,0.737449,12.894447,-26.271782,-102.270732
35886,4.313598,1.348499,7.838775,-0.497226,-0.277662,-0.782326,-0.531640,0.425649,-0.720950,0.043351,0.013537,0.078260,0.999988,-0.002658,0.002128,-0.003605,-0.624625,0.106540,0.223912,0.740511,12.754543,-25.945176,-102.654148
35887,4.761534,1.274056,7.879112,-0.659390,-0.700900,-0.568802,-0.635400,0.554680,-0.906953,0.047891,0.012774,0.078618,0.999981,-0.003177,0.002773,-0.004535,-0.621561,0.105499,0.220286,0.744316,12.594976,-25.524118,-103.134675
35888,3.544433,1.336673,9.057589,-0.481081,0.828148,-0.041721,-0.649844,0.654174,-1.049736,0.035811,0.013473,0.090415,0.999976,-0.003249,0.003271,-0.005249,-0.618042,0.103969,0.216362,0.748600,12.455409,-25.030657,-103.689264
35889,2.459349,1.245242,9.822821,-0.407578,2.068100,0.169459,-0.595367,0.487528,-1.108657,0.024902,0.012607,0.098130,0.999977,-0.002977,0.002438,-0.005543,-0.614121,0.102827,0.213177,0.752886,12.367334,-24.624328,-104.301812
35890,2.992141,1.844341,9.924369,0.055135,1.490405,0.609549,-0.491381,0.299088,-1.117891,0.030173,0.018519,0.099153,0.999980,-0.002457,0.001495,-0.005589,-0.609992,0.102059,0.210958,0.756961,12.347819,-24.322673,-104.944148
35891,3.034079,2.039442,9.690369,0.263064,1.270880,0.462708,-0.444825,0.131477,-1.077489,0.030515,0.020446,0.096838,0.999983,-0.002224,0.000657,-0.005387,-0.605840,0.101824,0.209399,0.760751,12.350872,-24.120050,-105.582942
35892,3.924065,2.431672,9.073911,0.482162,0.113016,0.355983,-0.399852,0.033868,-1.005039,0.039378,0.024300,0.090684,0.999985,-0.001999,0.000169,-0.005025,-0.601866,0.101895,0.208262,0.764200,12.364918,-23.980627,-106.189600
35893,4.294847,2.630653,8.744326,0.602593,-0.425913,0.251340,-0.433010,0.075765,-0.939160,0.043105,0.026294,0.087370,0.999987,-0.002165,0.000379,-0.004696,-0.598153,0.101973,0.206833,0.767486,12.339569,-23.826111,-106.749585
35894,4.419353,2.477971,8.510442,0.439585,-0.642901,0.061114,-0.520924,0.127325,-0.896279,0.044359,0.024803,0.085012,0.999986,-0.002605,0.000637,-0.004481,-0.594597,0.102156,0.204886,0.770740,12.248917,-23.648253,-107.275971
35895,4.733420,2.128148,8.230440,0.041662,-1.009092,-0.135176,-0.608793,0.244132,-0.911684,0.047532,0.021315,0.082182,0.999984,-0.003044,0.001221,-0.004558,-0.591040,0.102134,0.202254,0.774167,12.103480,-23.404333,-107.795880
35896,4.669907,2.170084,8.256934,0.097276,-1.006953,-0.134336,-0.763573,0.374602,-1.069823,0.046970,0.021765,0.082399,0.999977,-0.003818,0.001873,-0.005349,-0.586900,0.101898,0.198711,0.778254,11.898308,-23.069705,-108.395031
35897,4.955033,1.492671,7.971399,-0.608205,-1.293010,-0.416874,-1.081013,0.553788,-1.346629,0.049872,0.015022,0.079495,0.999959,-0.005405,0.002769,-0.006733,-0.581662,0.101616,0.193534,0.783510,11.563877,-22.605111,-109.139919
35898,5.075414,0.526454,7.843347,-1.553851,-1.294011,-0.676740,-1.348304,0.778588,-1.743678,0.051105,0.005348,0.078199,0.999932,-0.006741,0.003893,-0.008718,-0.574887,0.100834,0.186838,0.790208,11.150962,-21.973744,-110.098762
35899,4.502164,0.172020,8.374464,-1.734661,-0.576285,-0.480558,-1.549558,1.015302,-2.178996,0.045466,0.001874,0.083500,0.999898,-0.007748,0.005076,-0.010895,-0.566413,0.099274,0.178854,0.798331,10.698232,-21.168822,-111.293554
35900,3.147643,0.193705,9.552103,-1.283887,0.940242,0.119765,-1.735228,1.134934,-2.544912,0.032046,0.002359,0.095321,0.999865,-0.008676,0.005674,-0.012724,-0.556361,0.097410,0.169929,0.807526,10.195954,-20.267617,-112.695765
35901,1.965747,0.274802,10.418314,-0.741970,2.120411,0.552228,-1.879063,1.031446,-2.791399,0.020239,0.003446,0.104050,0.999845,-0.009395,0.005157,-0.013956,-0.544994,0.096127,0.160783,0.817245,9.645202,-19.412706,-114.257537
35902,2.280904,0.420690,10.349932,-0.647807,1.622613,0.648951,-1.819199,0.876183,-2.893109,0.023329,0.004813,0.103356,0.999844,-0.009096,0.004381,-0.014465,-0.532947,0.095203,0.152303,0.826866,9.132973,-18.649553,-115.896067
35903,2.569677,0.567839,9.838353,-0.575661,1.005270,0.305390,-1.608159,0.789609,-2.830892,0.026169,0.006100,0.098233,0.999860,-0.008040,0.003948,-0.014154,-0.521034,0.094095,0.144852,0.835875,8.712634,-17.953733,-117.505044
35904,2.778965,1.563658,9.570308,0.242024,0.196997,0.269954,-1.295238,0.746388,-2.625844,0.028354,0.015886,0.095496,0.999886,-0.006476,0.003732,-0.013129,-0.509962,0.092476,0.138687,0.843891,8.417425,-17.309265,-118.994469
35905,2.609175,2.478165,9.632850,1.118028,-0.178662,0.407750,-1.041018,0.733552,-2.265858,0.026727,0.024982,0.096102,0.999916,-0.005205,0.003668,-0.011329,-0.500417,0.090495,0.133434,0.850640,8.189793,-16.708547,-120.269565
35906,2.025276,3.010903,9.985097,1.850928,0.034035,0.648711,-0.797493,0.668543,-1.803712,0.020859,0.030320,0.099661,0.999946,-0.003987,0.003343,-0.009018,-0.492835,0.088476,0.129151,0.855924,8.013411,-16.186134,-121.275285
35907,1.765263,3.398726,10.311948,2.306507,0.042307,0.942824,-0.601127,0.513505,-1.277534,0.018135,0.034182,0.102971,0.999972,-0.003006,0.002568,-0.006388,-0.487451,0.086971,0.125849,0.859645,7.859626,-15.796316,-121.982363
35908,1.670960,2.789227,10.011252,1.813938,0.242898,0.552993,-0.425446,0.346729,-0.760862,0.016990,0.028041,0.100024,0.999989,-0.002127,0.001734,-0.003804,-0.484240,0.086074,0.123477,0.861891,7.724026,-15.542793,-122.398188
35909,2.571629,3.377388,9.118215,1.828377,-1.110193,0.015136,-0.505567,0.258892,-0.549504,0.025927,0.033933,0.091063,0.999992,-0.002528,0.001294,-0.002748,-0.481842,0.085880,0.120881,0.863621,7.509736,-15.356664,-122.696746
35910,3.343242,2.523982,8.847099,0.708283,-1.459950,-0.159454,-1.043612,0.484999,-0.590843,0.033722,0.025601,0.088256,0.999979,-0.005218,0.002425,-0.002954,-0.479158,0.085977,0.115430,0.865847,6.988142,-15.040629,-123.003584
35911,2.567148,-1.392935,8.541230,-2.187830,1.011415,-1.113666,-1.058331,0.626691,-0.695987,0.025891,-0.013567,0.085404,0.999975,-0.005292,0.003133,-0.003480,-0.476072,0.085433,0.109616,0.868355,6.470149,-14.639865,-123.364911
35912,2.064412,-1.090212,9.244988,-1.607690,1.378446,-0.515647,-0.716221,0.683532,-0.872515,0.020913,-0.010662,0.092417,0.999978,-0.003581,0.003418,-0.004363,-0.472374,0.083725,0.105222,0.871080,6.171132,-14.197857,-123.828583
35913,1.538713,-0.030252,9.757574,-0.397407,1.294251,-0.027742,-0.747087,0.686780,-1.088430,0.015721,-0.000023,0.097523,0.999972,-0.003735,0.003434,-0.005442,-0.467702,0.081960,0.100772,0.874290,5.881766,-13.743558,-124.420243
35914,1.209549,-0.158302,9.878032,-0.298101,1.572688,0.010790,-0.852090,0.577905,-1.197558,0.012373,-0.001236,0.098751,0.999969,-0.004260,0.002889,-0.005988,-0.462427,0.080855,0.096155,0.877711,5.544795,-13.347997,-125.083774
35915,2.076743,-0.277618,9.410995,-0.886624,0.761092,-0.242365,-0.732323,0.511990,-1.158167,0.020993,-0.002553,0.094066,0.999973,-0.003662,0.002560,-0.005791,-0.457316,0.079779,0.092196,0.880907,5.268079,-12.995874,-125.729006
35916,2.213233,0.382539,9.294732,-0.427337,0.193091,-0.261949,-0.504299,0.494368,-1.001158,0.022382,0.003948,0.092882,0.999981,-0.002521,0.002472,-0.005006,-0.452958,0.078325,0.089213,0.883592,5.098125,-12.664113,-126.283830
35917,2.116902,1.505726,9.357993,0.534296,-0.419837,-0.124631,-0.405901,0.482872,-0.817049,0.021457,0.015160,0.093498,0.999987,-0.002029,0.002414,-0.004085,-0.449432,0.076782,0.086618,0.885784,4.958416,-12.349896,-126.731796
35918,2.410695,1.724448,9.254044,0.519333,-0.864644,-0.148072,-0.490629,0.516811,-0.687751,0.024406,0.017388,0.092435,0.999988,-0.002453,0.002584,-0.003439,-0.446450,0.075330,0.083517,0.887712,4.751454,-12.023628,-127.103009
35919,2.481476,1.298137,9.250083,0.122732,-0.741823,-0.177280,-0.537343,0.603991,-0.620160,0.025134,0.013152,0.092390,0.999987,-0.002687,0.003020,-0.003101,-0.443776,0.073624,0.079989,0.889519,4.506804,-11.652401,-127.431468
35920,2.295848,0.745854,9.285320,-0.218591,-0.338451,-0.227201,-0.523053,0.673660,-0.585106,0.023293,0.007633,0.092755,0.999987,-0.002615,0.003368,-0.002926,-0.441278,0.071586,0.076353,0.891246,4.263676,-11.244025,-127.737546
35921,1.948829,0.435786,9.397649,-0.265721,0.062928,-0.209116,-0.430903,0.708000,-0.541130,0.019833,0.004507,0.093897,0.999988,-0.002155,0.003540,-0.002706,-0.439012,0.069209,0.073036,0.892829,4.066239,-10.819267,-128.017703
35922,1.864372,0.973887,9.573711,0.203033,-0.240294,-0.015711,-0.414697,0.733213,-0.535453,0.019021,0.009887,0.095647,0.999988,-0.002073,0.003666,-0.002677,-0.436775,0.066683,0.069730,0.894382,3.875377,-10.381010,-128.294618
35923,1.902189,0.693794,9.441930,-0.068733,-0.205870,-0.158570,-0.506862,0.772375,-0.510451,0.019404,0.007128,0.094327,0.999986,-0.002534,0.003862,-0.002552,-0.434622,0.064191,0.065919,0.895901,3.627023,-9.922594,-128.556810
35924,2.129655,0.668710,9.172046,-0.261546,-0.499433,-0.389816,-0.521305,0.824314,-0.454696,0.021690,0.006877,0.091614,0.999986,-0.002607,0.004122,-0.002273,-0.432718,0.061513,0.061908,0.897295,3.362770,-9.437339,-128.786531
35925,2.309545,0.625699,8.997125,-0.435710,-0.733457,-0.542029,-0.599459,0.945409,-0.402867,0.023533,0.006479,0.089842,0.999982,-0.002997,0.004727,-0.002014,-0.431047,0.058477,0.057268,0.898610,3.046655,-8.885867,-128.984416
35926,1.975381,0.255644,8.884114,-0.544724,-0.367272,-0.731809,-0.617294,1.069097,-0.343896,0.020233,0.002796,0.088725,0.999979,-0.003086,0.005345,-0.001719,-0.429654,0.054936,0.052261,0.899805,2.713089,-8.266210,-129.147431
35927,2.064613,0.366882,8.824852,-0.544515,-0.623679,-0.780046,-0.566069,1.187782,-0.272729,0.021175,0.003890,0.088113,0.999977,-0.002830,0.005939,-0.001364,-0.428608,0.050770,0.047209,0.900827,2.401423,-7.581575,-129.269491
35928,1.845816,0.400445,8.901036,-0.414497,-0.584927,-0.741829,-0.523546,1.339006,-0.172566,0.019057,0.004221,0.088873,0.999974,-0.002618,0.006695,-0.000863,-0.428039,0.045850,0.041996,0.901619,2.105312,-6.813074,-129.333786
35929,1.213153,0.620912,9.160049,0.120985,-0.334736,-0.558745,-0.475006,1.429157,-0.055751,0.012787,0.006423,0.091496,0.999972,-0.002375,0.007146,-0.000279,-0.428003,0.040444,0.036780,0.902122,1.828875,-5.995773,-129.332727
35930,0.669938,0.725219,9.804031,0.519438,-0.055400,0.026973,-0.500397,1.494246,0.052233,0.007430,0.007499,0.097968,0.999969,-0.002502,0.007471,0.000261,-0.428436,0.034815,0.031286,0.902359,1.532137,-5.142831,-129.272556
35931,-1.976643,0.328604,11.492948,1.890996,2.231403,1.480923,-0.545398,1.329756,0.085790,-0.019003,0.003591,0.115048,0.999974,-0.002727,0.006649,0.000429,-0.428962,0.030029,0.025934,0.902451,1.209466,-4.384439,-129.200048
35932,-2.391127,-0.315736,12.336787,1.649779,2.875385,2.312588,-0.611444,0.916993,0.022792,-0.023345,-0.002783,0.123485,0.999985,-0.003057,0.004585,0.000114,-0.429122,0.027236,0.021177,0.902587,0.852979,-3.861206,-129.172572
35933,-2.679490,-1.350863,12.491584,1.039945,3.651437,2.460413,-0.560715,0.431788,-0.115131,-0.026533,-0.013143,0.125011,0.999994,-0.002804,0.002159,-0.000576,-0.428607,0.026510,0.017709,0.902928,0.531351,-3.615081,-129.230751
35934,-0.406396,-1.249105,11.050984,-0.333655,1.694037,1.181330,-0.384252,0.035922,-0.234386,-0.004059,-0.012274,0.110534,0.999997,-0.001921,0.000180,-0.001172,-0.427537,0.027180,0.015900,0.903449,0.315120,-3.595189,-129.360248
35935,1.669087,-0.539405,9.455811,-1.129263,-0.461848,-0.273265,-0.287586,0.021449,-0.288321,0.016693,-0.005282,0.094564,0.999998,-0.001438,0.000107,-0.001442,-0.426234,0.027707,0.014568,0.904071,0.156241,-3.584230,-129.520774
35936,2.078083,0.145410,9.079652,-0.864506,-1.253138,-0.622373,-0.278869,0.221017,-0.264617,0.020883,0.001553,0.090771,0.999998,-0.001394,0.001105,-0.001323,-0.425052,0.027312,0.012844,0.904666,0.001233,-3.459040,-129.667597
35937,1.047300,0.545139,9.691722,0.126005,-0.725214,-0.077108,-0.329590,0.341007,-0.184724,0.010643,0.005601,0.096890,0.999997,-0.001648,0.001705,-0.000924,-0.424230,0.026490,0.010627,0.905105,-0.185817,-3.265810,-129.768981
35938,0.497320,0.515692,10.148979,0.477718,-0.314873,0.345434,-0.399310,0.346384,-0.102580,0.005152,0.005357,0.101470,0.999996,-0.001997,0.001732,-0.000513,-0.423767,0.025793,0.008071,0.905368,-0.415803,-3.069309,-129.823967
35939,0.872886,0.207816,9.779276,-0.003194,-0.471734,-0.003682,-0.431931,0.329165,-0.050125,0.008890,0.002287,0.097773,0.999996,-0.002160,0.001646,-0.000251,-0.423534,0.025247,0.005398,0.905512,-0.666109,-2.882934,-129.849541
35940,1.420740,-0.017453,9.256744,-0.540771,-0.817412,-0.498974,-0.402695,0.442557,-0.022054,0.014412,0.000010,0.092536,0.999996,-0.002013,0.002213,-0.000110,-0.423431,0.024125,0.002612,0.905603,-0.900520,-2.631179,-129.860720
35941,1.113292,-0.067216,9.299246,-0.384474,-0.608452,-0.474512,-0.347209,0.604868,-0.032215,0.011414,-0.000513,0.092959,0.999994,-0.001736,0.003024,-0.000161,-0.423287,0.022152,-0.000264,0.905725,-1.102772,-2.286894,-129.880277
35942,0.890831,-0.076581,9.477045,-0.258779,-0.495720,-0.310021,-0.289016,0.722404,-0.043735,0.009250,-0.000631,0.094738,0.999992,-0.001445,0.003612,-0.000219,-0.423091,0.019521,-0.003125,0.905872,-1.271542,-1.875202,-129.908973
35943,0.358573,-0.158860,9.869350,0.006730,-0.103887,0.063874,-0.237771,0.810120,-0.038301,0.003985,-0.001472,0.098680,0.999991,-0.001189,0.004051,-0.000192,-0.422916,0.016386,-0.005938,0.906001,-1.411132,-1.413552,-129.936803
35944,-0.195285,-0.160709,10.225548,0.339698,0.247043,0.407332,-0.208733,0.782387,-0.021191,-0.001553,-0.001500,0.102264,0.999992,-0.001044,0.003912,-0.000106,-0.422815,0.013312,-0.008564,0.906078,-1.534554,-0.967330,-129.955506
35945,0.300168,-0.107046,10.010375,0.023064,-0.239460,0.199844,-0.208197,0.751009,0.003014,0.003378,-0.000966,0.100093,0.999992,-0.001041,0.003755,0.000015,-0.422818,0.010381,-0.011121,0.906087,-1.657928,-0.539004,-129.960773
35946,0.832828,-0.261259,9.585177,-0.481414,-0.615935,-0.219679,-0.215936,0.805269,0.038504,0.008715,-0.002507,0.095820,0.999991,-0.001080,0.004026,0.000193,-0.422971,0.007215,-0.013831,0.906009,-1.785931,-0.078731,-129.947615
35947,0.972435,-0.072738,9.407583,-0.466713,-0.917486,-0.410918,-0.225454,0.925145,0.073136,0.010160,-0.000618,0.094030,0.999989,-0.001127,0.004626,0.000366,-0.423265,0.003526,-0.016837,0.905843,-1.919166,0.450587,-129.917866
35948,0.903763,-0.038559,9.308118,-0.440902,-0.969021,-0.521557,-0.213946,1.057574,0.144485,0.009530,-0.000279,0.093032,0.999985,-0.001070,0.005288,0.000722,-0.423859,-0.000794,-0.020073,0.905505,-2.045074,1.057459,-129.851104
35949,0.681166,0.322063,9.287530,-0.073100,-1.120121,-0.562559,-0.165244,1.187584,0.238262,0.007359,0.003306,0.092830,0.999981,-0.000826,0.005938,0.001191,-0.424851,-0.005815,-0.023362,0.904943,-2.141061,1.740619,-129.734489
35950,0.380271,0.713500,9.156649,0.359727,-1.230135,-0.710265,-0.158903,1.314782,0.349696,0.004392,0.007215,0.091533,0.999977,-0.000795,0.006574,0.001748,-0.426314,-0.011438,-0.026890,0.904103,-2.229761,2.499439,-129.557886
35951,0.205751,0.829776,8.873229,0.495663,-1.256811,-1.001418,-0.173367,1.458309,0.479870,0.002684,0.008381,0.088707,0.999970,-0.000867,0.007291,0.002399,-0.428324,-0.017695,-0.030779,0.902928,-2.320666,3.343455,-129.310994
35952,-0.404081,0.695902,8.871625,0.707854,-0.813890,-0.970279,-0.218955,1.608940,0.587642,-0.003348,0.007046,0.088737,0.999963,-0.001095,0.008045,0.002938,-0.430773,-0.024551,-0.035185,0.901440,-2.430074,4.276880,-129.007108
35953,-1.343541,0.580879,9.075688,1.127386,-0.155097,-0.690538,-0.271000,1.711542,0.653667,-0.012677,0.005890,0.090860,0.999957,-0.001355,0.008558,0.003268,-0.433473,-0.031766,-0.040035,0.899716,-2.561403,5.271129,-128.669452
35954,-1.794352,0.081977,9.111535,0.930946,0.370938,-0.580131,-0.255842,1.728588,0.727514,-0.017158,0.000873,0.091265,0.999955,-0.001279,0.008643,0.003638,-0.436462,-0.039104,-0.044839,0.897754,-2.674060,6.277979,-128.291323
35955,-1.955435,0.276112,9.232472,1.088701,0.232076,-0.437335,-0.234648,1.723923,0.783506,-0.018769,0.002795,0.092485,0.999954,-0.001173,0.008619,0.003917,-0.439659,-0.046474,-0.049523,0.895593,-2.764315,7.284150,-127.881883
35956,-2.151558,0.040845,9.284522,0.929020,0.387354,-0.335462,-0.306449,1.741871,0.788168,-0.020708,0.000468,0.093027,0.999953,-0.001532,0.008709,0.003941,-0.442849,-0.053766,-0.054562,0.893318,-2.888306,8.301706,-127.471199
35957,-2.723121,-0.481338,9.645306,0.748950,0.954610,0.147444,-0.359370,1.710923,0.762886,-0.026387,-0.004742,0.096690,0.999955,-0.001797,0.008554,0.003814,-0.445908,-0.060789,-0.059770,0.891010,-3.037846,9.301549,-127.075666
35958,-3.109480,-0.874718,9.897481,0.556904,1.306571,0.501108,-0.311261,1.596929,0.731954,-0.030271,-0.008705,0.099232,0.999960,-0.001556,0.007985,0.003660,-0.448810,-0.067399,-0.064514,0.888743,-3.155805,10.236385,-126.695739
35959,-3.189350,-0.798128,10.134722,0.561440,1.144832,0.765289,-0.283743,1.445099,0.679034,-0.031133,-0.007944,0.101585,0.999967,-0.001419,0.007225,0.003395,-0.451484,-0.073371,-0.068809,0.886591,-3.257187,11.083124,-126.342466
35960,-2.878065,-0.916082,10.012084,0.214319,0.862887,0.607106,-0.285788,1.307710,0.594305,-0.028098,-0.009102,0.100319,0.999973,-0.001429,0.006538,0.002971,-0.453804,-0.078700,-0.072829,0.884627,-3.363812,11.849405,-126.034561
35961,-2.689082,-0.921915,10.089146,0.029291,0.579514,0.653149,-0.328865,1.232741,0.493299,-0.026246,-0.009118,0.101070,0.999977,-0.001644,0.006164,0.002466,-0.455698,-0.083555,-0.076906,0.882861,-3.503407,12.569684,-125.784015
35962,-3.052820,-1.218505,10.193138,-0.072644,0.898783,0.859243,-0.278370,1.126484,0.428123,-0.029927,-0.012107,0.102118,0.999981,-0.001392,0.005632,0.002141,-0.457304,-0.088031,-0.080543,0.881270,-3.618947,13.227752,-125.568765
35963,-3.155748,-0.683585,10.337813,0.356572,0.539685,0.998278,-0.209950,0.993062,0.388770,-0.031030,-0.006788,0.103540,0.999985,-0.001050,0.004965,0.001944,-0.458746,-0.092053,-0.083586,0.879825,-3.697465,13.808117,-125.372274
35964,-3.049174,-0.313591,10.259942,0.559045,0.173543,0.879310,-0.219264,0.876321,0.359654,-0.030036,-0.003078,0.102735,0.999988,-0.001096,0.004382,0.001798,-0.460100,-0.095529,-0.086415,0.878473,-3.782612,14.321273,-125.188812
35965,-3.010658,-0.148279,10.155404,0.644659,-0.006491,0.760961,-0.253369,0.789427,0.339255,-0.029703,-0.001405,0.101674,0.999990,-0.001267,0.003947,0.001696,-0.461408,-0.098531,-0.089201,0.877176,-3.888130,14.783916,-125.014468
35966,-2.692483,-0.337241,9.760570,0.315654,-0.128866,0.312292,-0.228635,0.719192,0.354882,-0.026568,-0.003308,0.097705,0.999991,-0.001143,0.003596,0.001774,-0.462796,-0.101290,-0.091708,0.875871,-3.975079,15.207675,-124.828430
35967,-2.379556,-0.189068,9.391865,0.267291,-0.430458,-0.135498,-0.149684,0.730629,0.410452,-0.023448,-0.001869,0.094006,0.999991,-0.000748,0.003653,0.002052,-0.464373,-0.104303,-0.093865,0.874453,-4.006912,15.640007,-124.610032
35968,-2.170270,0.269312,8.951605,0.539076,-0.796409,-0.648163,-0.137704,0.814884,0.454787,-0.021344,0.002706,0.089602,0.999989,-0.000689,0.004074,0.002274,-0.466089,-0.107733,-0.096140,0.872876,-4.023777,16.122727,-124.368454
35969,-2.307419,0.066959,8.845847,0.412433,-0.616625,-0.700788,-0.141220,0.961294,0.526632,-0.022650,0.000672,0.088568,0.999985,-0.000706,0.004806,0.002633,-0.468037,-0.111823,-0.098731,0.871028,-4.030113,16.691701,-124.089723
35970,-2.692299,0.287564,8.803993,0.757119,-0.496327,-0.646386,-0.140301,1.078827,0.568309,-0.026456,0.002862,0.088181,0.999981,-0.000702,0.005394,0.002842,-0.470093,-0.116447,-0.101566,0.868986,-4.026888,17.329887,-123.790086
35971,-3.159270,-0.003666,8.991054,0.683829,-0.111230,-0.308004,-0.235455,1.183328,0.605251,-0.031060,-0.000025,0.090095,0.999977,-0.001177,0.005917,0.003026,-0.472291,-0.121312,-0.105034,0.866713,-4.069330,18.029039,-123.471937
35972,-3.698524,-0.463892,9.163256,0.495062,0.412649,0.058632,-0.177501,1.195096,0.648654,-0.036422,-0.004676,0.091855,0.999976,-0.000887,0.005975,0.003243,-0.474615,-0.126385,-0.108248,0.864320,-4.066280,18.737142,-123.127031
35973,-3.816404,0.092792,9.472232,0.924584,0.021430,0.357873,-0.204637,1.141723,0.681656,-0.037626,0.000896,0.094937,0.999977,-0.001023,0.005709,0.003408,-0.477105,-0.131172,-0.111426,0.861829,-4.067250,19.415720,-122.758543
35974,-4.213227,-0.324666,9.653200,0.687496,0.399609,0.694812,-0.283329,1.062589,0.678396,-0.041608,-0.003251,0.096759,0.999979,-0.001417,0.005313,0.003392,-0.479657,-0.135427,-0.114752,0.859314,-4.108235,20.049443,-122.387255
35975,-4.345923,-0.520109,9.698974,0.529951,0.495317,0.803366,-0.364664,0.932043,0.605918,-0.042991,-0.005155,0.097200,0.999983,-0.001823,0.004660,0.003030,-0.482008,-0.138874,-0.118159,0.856983,-4.205517,20.605600,-122.053881
35976,-3.836454,-0.977646,9.380953,-0.114942,0.340423,0.363099,-0.377361,0.844687,0.525208,-0.037942,-0.009699,0.093989,0.999986,-0.001887,0.004223,0.002626,-0.484059,-0.141869,-0.121462,0.854872,-4.323120,21.109388,-121.765696
35977,-3.904848,-1.045618,9.097739,-0.138779,0.444714,0.131778,-0.286444,0.794969,0.493701,-0.038661,-0.010421,0.091147,0.999988,-0.001432,0.003975,0.002468,-0.485928,-0.144845,-0.124275,0.852906,-4.392707,21.583442,-121.494579
35978,-2.845696,0.319345,8.544381,0.563580,-0.949520,-0.869156,-0.241963,0.833668,0.525452,-0.028109,0.003223,0.085558,0.999987,-0.001210,0.004168,0.002627,-0.487865,-0.148113,-0.126967,0.850841,-4.427721,22.081639,-121.205186
35979,-2.746855,0.911897,8.372746,1.019535,-1.328250,-1.113529,-0.325880,1.031382,0.733638,-0.027070,0.009156,0.083853,0.999979,-0.001629,0.005157,0.003668,-0.490606,-0.152142,-0.130339,0.848039,-4.462708,22.701781,-120.795977
35980,-3.505153,1.104414,8.501652,1.492397,-0.954582,-0.721784,-0.521689,1.247913,0.892670,-0.034570,0.011111,0.085204,0.999967,-0.002608,0.006239,0.004463,-0.494004,-0.156707,-0.134945,0.844508,-4.570092,23.453631,-120.297256
35981,-4.894236,-0.653020,8.990540,0.483904,0.681888,0.410278,-0.633824,1.293851,0.940015,-0.048329,-0.006473,0.090240,0.999963,-0.003169,0.006469,0.004700,-0.497622,-0.161206,-0.140090,0.840690,-4.724445,24.234576,-119.770456
35982,-5.726456,-1.935645,9.562542,-0.404495,1.583179,1.381483,-0.500853,1.121594,0.798950,-0.056650,-0.019343,0.095993,0.999973,-0.002504,0.005608,0.003995,-0.500631,-0.165207,-0.144353,0.837399,-4.828811,24.911914,-119.321886
35983,-5.269477,-1.968000,9.625737,-0.699094,1.095952,1.259996,-0.353393,0.906161,0.566159,-0.052202,-0.019658,0.096529,0.999984,-0.001767,0.004531,0.002831,-0.502676,-0.168496,-0.147646,0.834941,-4.901777,25.455186,-119.007756
35984,-4.576107,-1.761551,8.935557,-0.770051,0.650443,0.329860,-0.236280,0.816938,0.421050,-0.045358,-0.017606,0.089562,0.999989,-0.001181,0.004085,0.002105,-0.504069,-0.171600,-0.150343,0.832985,-4.942253,25.941097,-118.779754
35985,-3.681331,-0.990005,8.481691,-0.448770,-0.282383,-0.528846,-0.122296,0.818171,0.454943,-0.036443,-0.009931,0.084973,0.999989,-0.000611,0.004091,0.002275,-0.505493,-0.175013,-0.152537,0.831011,-4.906056,26.428962,-118.529519
35986,-4.151446,0.141230,8.843988,0.667109,-0.638127,-0.085524,-0.105870,0.882505,0.602079,-0.041128,0.001335,0.088621,0.999986,-0.000529,0.004413,0.003010,-0.507452,-0.178847,-0.154692,0.828599,-4.816770,26.960872,-118.186883
35987,-4.873222,0.150860,9.094160,0.897665,-0.257199,0.463606,-0.281936,0.851005,0.652815,-0.048350,0.001479,0.091146,0.999985,-0.001410,0.004255,0.003264,-0.509788,-0.182133,-0.157447,0.825927,-4.809182,27.476560,-117.808038
35988,-5.373260,-1.247528,9.133502,-0.193591,0.639990,0.836321,-0.434650,0.754313,0.528139,-0.053355,-0.012418,0.091564,0.999987,-0.002173,0.003772,0.002641,-0.511810,-0.184531,-0.160695,0.823515,-4.920326,27.931707,-117.502927
35989,-4.487090,-1.967344,8.542167,-1.150042,0.443043,-0.042646,-0.246447,0.667802,0.414728,-0.044545,-0.019661,0.085595,0.999992,-0.001232,0.003339,0.002074,-0.513249,-0.186956,-0.163047,0.821607,-4.953992,28.331805,-117.266039
35990,-3.708292,-0.565873,8.222990,-0.187383,-0.671989,-0.801468,-0.074185,0.767820,0.506438,-0.036752,-0.005722,0.082374,0.999989,-0.000371,0.003839,0.002532,-0.514813,-0.190309,-0.164860,0.819495,-4.860717,28.793805,-116.973742
35991,-4.443879,0.709713,8.551133,1.171345,-0.845043,-0.258269,-0.200701,0.902693,0.667988,-0.044076,0.007035,0.085704,0.999984,-0.001003,0.004513,0.003340,-0.517033,-0.194013,-0.167381,0.816713,-4.789235,29.339805,-116.581365
35992,-5.483740,-0.138070,8.928868,0.709086,0.056217,0.642380,-0.436127,0.891649,0.748630,-0.054433,-0.001390,0.089535,0.999981,-0.002181,0.004458,0.003743,-0.519803,-0.197128,-0.170749,0.813505,-4.821467,29.883654,-116.132881
35993,-5.439189,-1.240763,8.876831,-0.344430,0.403816,0.658224,-0.456190,0.786669,0.706671,-0.053998,-0.012396,0.089010,0.999983,-0.002281,0.003933,0.003533,-0.522492,-0.199716,-0.173962,0.810465,-4.872044,30.365417,-115.704581
35994,-5.240341,-1.681778,8.782674,-0.845004,0.386034,0.510161,-0.358201,0.742911,0.638472,-0.052023,-0.016827,0.088051,0.999986,-0.001791,0.003715,0.003192,-0.524829,-0.202322,-0.176726,0.807705,-4.884004,30.819487,-115.317053
35995,-4.910420,-1.081097,8.466978,-0.407450,-0.018874,0.026206,-0.237749,0.717526,0.640187,-0.048765,-0.010867,0.084858,0.999988,-0.001189,0.003588,0.003201,-0.527060,-0.205134,-0.178931,0.805054,-4.822300,31.258596,-114.925144
35996,-4.658524,-0.042620,8.559494,0.401105,-0.719995,-0.102445,-0.158001,0.776060,0.785066,-0.046251,-0.000540,0.085775,0.999984,-0.000790,0.003880,0.003925,-0.529725,-0.208519,-0.180815,0.802008,-4.661401,31.737738,-114.436336
35997,-5.003884,0.725149,8.766364,1.150463,-0.904709,0.200865,-0.233114,0.815944,1.018224,-0.049717,0.007100,0.087859,0.999978,-0.001166,0.004080,0.005091,-0.533347,-0.212064,-0.182856,0.798206,-4.455855,32.248545,-113.788451
35998,-5.262894,0.364929,8.778342,0.842278,-0.638157,0.374225,-0.284306,0.815272,1.214420,-0.052292,0.003456,0.087992,0.999972,-0.001422,0.004076,0.006072,-0.537781,-0.215642,-0.184882,0.793793,-4.199623,32.765614,-113.001231
35999,-5.488446,0.046867,8.880427,0.537898,-0.465799,0.602695,-0.333512,0.800975,1.332651,-0.054530,0.000253,0.089023,0.999968,-0.001668,0.004005,0.006663,-0.542718,-0.219124,-0.186927,0.788987,-3.917670,33.275808,-112.125562
36000,-5.650055,-0.346007,8.529123,0.194229,-0.079000,0.421763,-0.246926,0.751430,1.417646,-0.056154,-0.003753,0.085507,0.999967,-0.001235,0.003757,0.007088,-0.547907,-0.222715,-0.188390,0.784032,-3.541253,33.756976,-111.180583
36001,-5.238325,0.225418,8.364459,0.546722,-0.547584,0.028829,-0.140405,0.753066,1.577274,-0.052084,0.001901,0.083840,0.999962,-0.000702,0.003765,0.007886,-0.553561,-0.226734,-0.189249,0.778683,-3.030614,34.237855,-110.116078
36002,-5.303336,1.059101,8.194367,1.287649,-0.709672,-0.105363,-0.123445,0.853655,1.660931,-0.052769,0.010203,0.082163,0.999956,-0.000617,0.004268,0.008305,-0.559381,-0.231256,-0.190209,0.772938,-2.464271,34.770628,-108.984601
36003,-6.044434,0.095766,8.409523,0.442401,-0.014720,0.534650,-0.364230,0.883919,1.682698,-0.060078,0.000605,0.084360,0.999953,-0.001821,0.004420,0.008413,-0.565483,-0.235218,-0.192143,0.766800,-2.011841,35.312567,-107.825963
36011,-6.333392,-0.253268,8.451072,-0.234889,0.092507,0.745742,-0.182539,0.556753,1.465675,-0.489312,-0.044307,0.687382,0.998007,-0.007297,0.022255,0.058588,-0.607071,-0.258741,-0.196217,0.725270,2.142962,37.846535,-99.404747
36012,-6.206876,0.825796,8.006107,0.471449,-0.111863,0.339633,-0.021248,0.239720,1.377958,-0.062028,0.007839,0.080135,0.999976,-0.000106,0.001199,0.006890,-0.611893,-0.260880,-0.195234,0.720702,2.751255,37.948927,-98.389812
36020,-6.336189,0.700748,7.877372,-0.036704,0.156457,0.317320,0.180057,0.036899,1.276449,-0.507790,0.025596,0.631197,0.998670,0.007199,0.001475,0.051035,-0.646036,-0.275751,-0.177406,0.689294,8.100194,37.543830,-90.953730
36021,-5.410084,0.079225,6.776976,-0.863867,0.194377,-1.186069,-0.755569,0.315162,0.538174,-0.053996,0.000903,0.067852,0.999988,-0.003778,0.001576,0.002691,-0.648691,-0.274861,-0.180280,0.686404,7.924079,37.678031,-90.528619
36022,-6.099854,-1.001335,7.377494,-2.018676,0.446526,-0.412491,-0.140166,0.342804,0.578935,-0.060843,-0.010138,0.073886,0.999994,-0.000701,0.001714,0.002895,-0.650600,-0.276076,-0.181078,0.683895,8.118740,37.823577,-90.072705
36023,-6.328418,1.824746,8.314028,0.605075,-0.213362,0.774557,0.186469,0.218036,0.574629,-0.063245,0.017988,0.083226,0.999995,0.000932,0.001090,0.002873,-0.652150,-0.277923,-0.180356,0.681858,8.492832,37.897184,-89.630978
36024,-6.384773,2.841281,8.411783,1.548239,-0.313428,1.008627,0.027372,0.048846,0.639609,-0.063918,0.028197,0.084137,0.999995,0.000137,0.000244,0.003198,-0.654288,-0.278726,-0.179533,0.679696,8.793069,37.867073,-89.160801
36027,-5.722700,0.867914,7.254314,-0.274011,0.023753,-0.536276,-0.145548,0.111659,0.434295,-0.171483,0.025395,0.217861,0.999975,-0.002183,0.001675,0.006514,-0.659135,-0.279519,-0.180295,0.674466,9.139029,37.932327,-88.170596
36031,-6.372185,1.148273,7.393256,-0.090727,0.407064,0.006122,-0.049642,0.138364,0.331254,-0.254366,0.044539,0.296390,0.999974,-0.000993,0.002767,0.006625,-0.663534,-0.281813,-0.180934,0.669005,9.649881,38.110505,-87.130358
36032,-6.277418,1.699422,7.533653,0.382892,0.201764,0.130275,0.188927,0.018241,0.403066,-0.062801,0.016796,0.075358,0.999998,0.000945,0.000091,0.002015,-0.664641,-0.282845,-0.179793,0.667777,9.938518,38.079195,-86.832316
36033,-6.480717,2.833919,7.868296,1.399833,0.110268,0.673914,0.253023,-0.101113,0.618007,-0.064934,0.028039,0.078686,0.999994,0.001265,-0.000506,0.003090,-0.666476,-0.283874,-0.177738,0.666059,10.347390,37.956983,-86.397102
36034,-7.053478,4.058979,8.484954,2.405547,0.171462,1.693986,0.394473,-0.367982,1.198107,-0.070932,0.039998,0.084799,0.999978,0.001972,-0.001840,0.005990,-0.670261,-0.284998,-0.173493,0.662893,11.066004,37.619639,-85.587011
36035,-6.942453,4.837683,8.810707,2.981495,-0.033508,2.033576,0.477637,-0.743690,2.001364,-0.070230,0.047467,0.087961,0.999940,0.002388,-0.003718,0.010007,-0.676860,-0.285824,-0.166555,0.657590,12.129235,36.968733,-84.277119
36036,-6.361083,4.638318,9.019348,2.609281,-0.440917,1.862783,0.315431,-0.994131,2.498698,-0.064630,0.045438,0.089946,0.999908,0.001577,-0.004971,0.012493,-0.685433,-0.285654,-0.158565,0.650724,13.251927,36.095652,-82.688632
36037,-6.271164,2.521057,8.763209,0.391860,-0.153655,1.246014,0.117292,-1.119618,2.559360,-0.063516,0.024350,0.087292,0.999902,0.000586,-0.005598,0.012796,-0.694453,-0.284385,-0.150675,0.643550,14.229140,35.121033,-81.118684
36043,-5.295515,1.434906,8.070954,-0.925982,-0.115176,-0.102970,0.314085,-1.033559,1.910899,-0.336596,0.062645,0.474675,0.997832,0.009416,-0.030984,0.057286,-0.732038,-0.278820,-0.106470,0.612408,18.676746,29.827074,-74.814771
36045,-4.552917,1.619507,7.967521,-1.041382,-0.278818,-0.556968,0.250154,-0.463764,1.087027,-0.092138,0.030994,0.159003,0.999927,0.002501,-0.004638,0.010870,-0.738515,-0.278897,-0.098493,0.605897,19.526287,28.910508,-73.653183
36046,-4.498048,2.455901,8.168617,-0.377438,-0.273610,-0.180840,0.204561,-0.290274,0.797701,-0.045196,0.024296,0.081646,0.999990,0.001023,-0.001451,0.003988,-0.740820,-0.279134,-0.095684,0.603419,19.847548,28.596486,-73.221305
36049,-4.231267,3.064188,8.039900,0.204373,-0.310184,-0.231798,0.084769,-0.110683,0.629466,-0.128197,0.090413,0.241100,0.999953,0.001272,-0.001660,0.009442,-0.746399,-0.279865,-0.091037,0.596888,20.499047,28.034049,-72.128736
36050,-4.405710,3.320260,8.054852,0.324027,-0.101939,-0.055659,0.010597,0.055302,0.536558,-0.044124,0.033080,0.080562,0.999996,0.000053,0.000277,0.002683,-0.747996,-0.280287,-0.090453,0.594777,20.663239,27.952121,-71.784969
36055,-4.713985,3.006500,8.214313,-0.161387,0.047079,0.122408,0.008051,0.031764,0.451444,-0.237049,0.147572,0.410933,0.999936,0.000201,0.000794,0.011286,-0.754718,-0.281744,-0.087741,0.585938,21.328349,27.555539,-70.361693
36056,-4.615108,2.864132,8.154010,-0.325574,-0.005999,-0.020636,0.070431,-0.037941,0.367180,-0.046219,0.028528,0.081541,0.999998,0.000352,-0.000190,0.001836,-0.755747,-0.282038,-0.086863,0.584599,21.466336,27.454977,-70.144309
36057,-4.492901,2.999077,8.056055,-0.170538,-0.028143,-0.114714,0.139377,-0.029757,0.339542,-0.044992,0.029858,0.080575,0.999998,0.000697,-0.000149,0.001698,-0.756592,-0.282591,-0.085860,0.583386,21.634627,27.363996,-69.943184
36058,-4.582167,3.557207,8.121698,0.279665,0.106673,0.163398,0.141705,-0.033256,0.322543,-0.045892,0.035441,0.081234,0.999998,0.000709,-0.000166,0.001613,-0.757382,-0.283138,-0.084859,0.582240,21.799323,27.274265,-69.753180
36059,-4.659970,3.693627,8.190031,0.341287,0.166130,0.301198,0.081050,-0.052599,0.332458,-0.046683,0.036826,0.081903,0.999999,0.000405,-0.000263,0.001662,-0.758294,-0.283399,-0.083949,0.581058,21.928757,27.171674,-69.562673
36060,-4.670866,3.592441,8.229648,0.210871,0.150718,0.305735,0.046715,-0.090751,0.345881,-0.046808,0.035824,0.082284,0.999998,0.000234,-0.000454,0.001729,-0.759306,-0.283427,-0.082973,0.579861,22.038084,27.045606,-69.373414
36061,-4.656149,3.574053,8.303425,0.157851,0.114027,0.354044,0.057409,-0.135085,0.368547,-0.046683,0.035631,0.083013,0.999998,0.000287,-0.000675,0.001843,-0.760384,-0.283371,-0.081766,0.578645,22.153512,26.890762,-69.182257
36062,-4.616595,3.844573,8.195348,0.415618,0.206406,0.338271,0.034950,-0.180156,0.393197,-0.046315,0.038340,0.081919,0.999998,0.000175,-0.000901,0.001966,-0.761581,-0.283113,-0.080416,0.577386,22.257617,26.706370,-68.987633
36063,-4.516237,3.889910,8.200162,0.462237,0.156519,0.313130,-0.012454,-0.213350,0.422639,-0.045332,0.038809,0.081951,0.999997,-0.000062,-0.001067,0.002113,-0.762939,-0.282585,-0.079037,0.576041,22.337218,26.497679,-68.784661
36064,-5.086258,4.240682,8.686487,0.472641,0.476024,1.089525,-0.018520,-0.266277,0.491811,-0.051082,0.042289,0.086793,0.999996,-0.000093,-0.001331,0.002459,-0.764520,-0.281911,-0.077372,0.574498,22.425403,26.245612,-68.554039
36065,-5.937118,4.906906,9.309949,0.642604,1.043185,2.208145,-0.139860,-0.497284,0.642885,-0.059760,0.048942,0.092917,0.999991,-0.000699,-0.002486,0.003214,-0.766786,-0.280159,-0.074962,0.572652,22.456189,25.837933,-68.291931
36066,-5.651765,4.622529,9.402031,0.415564,0.804545,2.056899,-0.316183,-0.779980,0.829759,-0.057075,0.046138,0.093725,0.999983,-0.001581,-0.003900,0.004149,-0.769920,-0.276990,-0.071706,0.570402,22.401918,25.239769,-67.989255
36067,-5.041356,4.154674,9.322522,0.168379,0.375670,1.563366,-0.422910,-1.017456,0.969502,-0.051088,0.041497,0.092879,0.999973,-0.002115,-0.005087,0.004847,-0.773650,-0.272766,-0.067646,0.567880,22.292583,24.485668,-67.663103
36068,-4.158352,3.144229,8.719606,-0.364550,-0.130314,0.339059,-0.480836,-1.145537,1.003649,-0.042240,0.031441,0.086880,0.999968,-0.002404,-0.005728,0.005018,-0.777554,-0.267954,-0.063202,0.565346,22.142321,23.656958,-67.347300
36069,-3.478686,2.595879,8.244159,-0.559462,-0.457872,-0.523878,-0.398393,-1.149342,0.892364,-0.035376,0.025966,0.082188,0.999972,-0.001992,-0.005747,0.004462,-0.780986,-0.263395,-0.058658,0.563243,22.008800,22.850855,-67.096810
36070,-3.134754,2.552180,7.903382,-0.434691,-0.479878,-0.959244,-0.316018,-1.074497,0.744397,-0.031866,0.025528,0.078823,0.999977,-0.001580,-0.005372,0.003722,-0.783831,-0.259317,-0.054364,0.561613,21.894348,22.116761,-66.913258
36071,-2.986087,2.792974,7.693146,-0.144961,-0.350618,-1.108826,-0.233597,-0.944545,0.605355,-0.030308,0.027928,0.076756,0.999984,-0.001168,-0.004723,0.003027,-0.786112,-0.255873,-0.050528,0.560361,21.806089,21.481683,-66.779328
36072,-3.106283,3.208290,7.585417,0.186416,-0.010627,-1.012391,-0.214497,-0.814553,0.504370,-0.031452,0.032085,0.075692,0.999988,-0.001072,-0.004073,0.002522,-0.788030,-0.252841,-0.047274,0.559326,21.718214,20.937447,-66.672596
36073,-3.072945,3.098837,7.455536,0.107108,0.068028,-1.174732,-0.197916,-0.682932,0.459406,-0.031055,0.030991,0.074419,0.999991,-0.000990,-0.003415,0.002297,-0.789753,-0.250221,-0.044552,0.558296,21.639940,20.472926,-66.561507
36074,-3.142842,3.328420,7.585959,0.241240,0.190544,-0.957870,-0.093296,-0.557020,0.423199,-0.031710,0.033253,0.075756,0.999994,-0.000466,-0.002785,0.002116,-0.791204,-0.248359,-0.042076,0.557265,21.624251,20.083221,-66.442217
36075,-3.452878,3.848089,7.857562,0.515024,0.525740,-0.435613,-0.095590,-0.472060,0.407215,-0.034792,0.038448,0.078475,0.999995,-0.000478,-0.002360,0.002036,-0.792586,-0.246713,-0.039965,0.556186,21.609207,19.742151,-66.313386
36076,-4.101463,4.422088,8.664079,0.594238,0.938791,0.685329,-0.120711,-0.450239,0.435805,-0.041306,0.044183,0.086521,0.999995,-0.000604,-0.002251,0.002179,-0.794066,-0.245037,-0.037972,0.554954,21.586763,19.406745,-66.163349
36077,-5.205260,5.123683,9.731608,0.553874,1.694471,2.223599,-0.263717,-0.638847,0.538035,-0.052501,0.051224,0.097081,0.999990,-0.001319,-0.003194,0.002690,-0.796029,-0.242280,-0.035503,0.553513,21.485856,18.949442,-65.997919
36078,-4.873189,4.710964,10.076102,0.215263,1.270264,2.262384,-0.494304,-0.934147,0.668668,-0.049359,0.047194,0.100415,0.999980,-0.002472,-0.004671,0.003343,-0.798662,-0.237810,-0.032336,0.551852,21.255077,18.307830,-65.822833
36079,-4.628541,4.273153,10.499105,-0.193533,0.923322,2.394756,-0.559704,-1.232015,0.772110,-0.047096,0.042844,0.104583,0.999970,-0.002798,-0.006160,0.003861,-0.801665,-0.232256,-0.028037,0.550094,20.982622,17.486322,-65.652354
36080,-3.823378,3.722468,10.457487,-0.385174,0.277362,1.917832,-0.666155,-1.508891,0.813827,-0.039173,0.037414,0.104157,0.999958,-0.003331,-0.007544,0.004069,-0.804887,-0.225509,-0.022869,0.548434,20.638109,16.509038,-65.513377
36081,-2.793079,2.846216,10.162249,-0.716728,-0.559236,1.065893,-0.685435,-1.662055,0.758274,-0.028882,0.028701,0.101287,0.999952,-0.003427,-0.008310,0.003791,-0.807923,-0.218231,-0.017200,0.547120,20.263645,15.461383,-65.431951
36082,-2.292506,2.404104,9.994407,-0.893833,-0.866814,0.645313,-0.643827,-1.730487,0.625126,-0.023864,0.024289,0.099662,0.999953,-0.003219,-0.008652,0.003126,-0.810477,-0.210907,-0.011282,0.546369,19.891342,14.403747,-65.431713
36083,-2.384828,2.575703,10.150569,-0.833738,-0.585196,0.879118,-0.544100,-1.751822,0.487584,-0.024799,0.025973,0.101221,0.999955,-0.002720,-0.008759,0.002438,-0.812476,-0.203896,-0.005151,0.546153,19.557688,13.361097,-65.505672
36084,-2.526139,2.874375,10.057312,-0.628879,-0.126057,0.928718,-0.586080,-1.843844,0.389763,-0.026243,0.028987,0.100249,0.999951,-0.002930,-0.009219,0.001949,-0.814176,-0.196447,0.001142,0.546374,19.187510,12.286986,-65.644697
36085,-2.111948,2.688708,9.855035,-0.606820,-0.282468,0.596907,-0.531944,-1.867657,0.334599,-0.022083,0.027112,0.098275,0.999951,-0.002660,-0.009338,0.001673,-0.815593,-0.189129,0.007623,0.546791,18.844584,11.209340,-65.811588
36086,-2.151807,2.864826,9.657640,-0.449986,0.074598,0.477889,-0.494887,-1.902938,0.315553,-0.022481,0.028852,0.096294,0.999950,-0.002474,-0.009515,0.001578,-0.816840,-0.181853,0.014332,0.547263,18.524767,10.115231,-65.988451
36087,-1.481794,2.859369,9.293174,-0.134635,-0.231505,0.018898,-0.447401,-1.864418,0.289651,-0.015725,0.028779,0.092724,0.999953,-0.002237,-0.009322,0.001448,-0.817897,-0.174855,0.020987,0.547750,18.234680,9.045719,-66.166201
36088,-2.057347,3.313122,9.588109,-0.060102,0.554001,0.523058,-0.384333,-1.820340,0.301600,-0.021495,0.033283,0.095624,0.999956,-0.001922,-0.009102,0.001508,-0.818861,-0.168223,0.027645,0.548091,17.987586,7.997396,-66.323702
36089,-1.445365,3.048080,9.187690,0.007338,0.194138,-0.027347,-0.432023,-1.836526,0.324028,-0.015346,0.030655,0.091673,0.999954,-0.002160,-0.009182,0.001620,-0.819850,-0.161329,0.034254,0.548312,17.717313,6.935489,-66.466689
36090,-0.420300,2.717877,8.878378,0.164054,-0.608818,-0.539650,-0.426330,-1.716631,0.306852,-0.005006,0.027361,0.088685,0.999960,-0.002132,-0.008583,0.001534,-0.820736,-0.154781,0.040371,0.548458,17.455362,5.941538,-66.592841
36091,0.059752,2.536192,8.724105,0.205122,-0.924363,-0.776783,-0.408241,-1.528738,0.286346,-0.000106,0.025540,0.087190,0.999968,-0.002041,-0.007644,0.001432,-0.821530,-0.148809,0.045746,0.548499,17.207657,5.053162,-66.693494
36092,0.028813,2.707090,8.998132,0.259476,-0.752784,-0.449988,-0.353489,-1.311702,0.262721,-0.000338,0.027230,0.089932,0.999976,-0.001767,-0.006558,0.001314,-0.822222,-0.143660,0.050362,0.548431,16.995633,4.287332,-66.766634
36093,-1.421521,3.350978,10.200240,-0.049087,0.722874,0.993239,-0.306661,-1.233502,0.307278,-0.014895,0.033644,0.101860,0.999979,-0.001533,-0.006167,0.001536,-0.822984,-0.138895,0.054812,0.548088,16.813518,3.556594,-66.799617
36094,-2.156303,3.285210,10.344830,-0.453124,1.502591,1.141410,-0.416993,-1.424263,0.380342,-0.022361,0.033025,0.103222,0.999971,-0.002085,-0.007121,0.001902,-0.823929,-0.133131,0.059795,0.547579,16.569900,2.709128,-66.821052
36095,-0.878330,2.994502,9.989312,-0.140304,0.448252,0.642059,-0.492316,-1.546690,0.359766,-0.009609,0.030174,0.099747,0.999965,-0.002462,-0.007733,0.001799,-0.824778,-0.126714,0.065057,0.547223,16.281749,1.797518,-66.869785
36096,-1.006825,2.726441,9.904878,-0.423583,0.656276,0.480074,-0.535311,-1.638171,0.332032,-0.010924,0.027512,0.098888,0.999961,-0.002677,-0.008191,0.001660,-0.825487,-0.119875,0.070557,0.547013,15.969822,0.839887,-66.943495
36097,0.230892,2.588487,9.141564,0.114008,-0.269150,-0.313526,-0.551358,-1.626098,0.273968,0.001530,0.026139,0.091358,0.999962,-0.002757,-0.008130,0.001370,-0.825988,-0.113008,0.075922,0.547000,15.649124,-0.102578,-67.042077
36098,-0.748204,3.298749,9.981070,0.137551,0.982204,0.679076,-0.480658,-1.580015,0.302909,-0.008320,0.033215,0.099668,0.999965,-0.002403,-0.007900,0.001515,-0.826485,-0.106545,0.081302,0.546773,15.370902,-1.024362,-67.112667
36099,-1.222033,3.525484,9.530751,0.253022,1.726206,0.272488,-0.607663,-1.737584,0.375575,-0.013114,0.035520,0.095089,0.999956,-0.003038,-0.008688,0.001878,-0.827118,-0.099084,0.087017,0.546339,15.019889,-2.044731,-67.161720
36100,0.857592,2.809809,8.664679,0.640076,-0.221464,-0.688771,-0.791352,-1.716909,0.387190,0.007777,0.028456,0.086604,0.999953,-0.003957,-0.008584,0.001936,-0.827807,-0.090911,0.092143,0.545876,14.564436,-3.055424,-67.194152
36101,1.033234,1.502257,8.334314,-0.367232,-0.709601,-1.318876,-0.672146,-1.595543,0.385875,0.009638,0.015322,0.083371,0.999961,-0.003361,-0.007978,0.001929,-0.828423,-0.083549,0.097083,0.545261,14.175682,-3.999021,-67.202586
36102,1.514548,1.601011,8.286461,-0.090056,-0.972458,-1.294040,-0.414216,-1.405766,0.336857,0.014536,0.016207,0.082935,0.999972,-0.002071,-0.007029,0.001684,-0.828833,-0.077797,0.101914,0.544608,13.935192,-4.830135,-67.206695
36103,0.242712,2.616847,9.262966,0.051321,0.708174,-0.210410,-0.261122,-1.304399,0.344269,0.001778,0.026293,0.092608,0.999976,-0.001306,-0.006522,0.001721,-0.829212,-0.072942,0.106739,0.543778,13.779888,-5.606104,-67.189793
36104,-0.411162,3.278380,9.870588,0.199997,1.707870,0.453108,-0.266605,-1.396546,0.410405,-0.004868,0.032906,0.098630,0.999973,-0.001333,-0.006983,0.002052,-0.829680,-0.067781,0.111950,0.542682,13.619092,-6.442082,-67.146312
36105,0.314826,3.063234,9.671908,0.311167,1.111043,0.271696,-0.364510,-1.525259,0.448722,0.002342,0.030814,0.096683,0.999967,-0.001823,-0.007626,0.002244,-0.830164,-0.061832,0.117434,0.541493,13.400016,-7.354956,-67.095773
36106,0.804073,2.439213,9.355878,0.005256,0.566662,-0.127372,-0.426497,-1.588519,0.455807,0.007242,0.024609,0.093566,0.999964,-0.002132,-0.007943,0.002279,-0.830589,-0.055453,0.123009,0.540292,13.145405,-8.303549,-67.045809
36107,0.617005,2.695676,10.104743,-0.068881,1.040676,0.611461,-0.291260,-1.588896,0.451017,0.005306,0.027117,0.101052,0.999965,-0.001456,-0.007944,0.002255,-0.830905,-0.049627,0.128938,0.538989,12.966580,-9.251814,-66.994770
36108,-0.307480,3.302429,10.278584,0.023501,2.326718,0.733977,-0.360755,-1.810646,0.525103,-0.004092,0.033200,0.102692,0.999954,-0.001804,-0.009053,0.002625,-0.831226,-0.042870,0.135611,0.537435,12.744935,-10.332892,-66.927025
36109,1.111077,3.088818,9.764937,0.486633,1.120431,0.416355,-0.544696,-1.932470,0.542178,0.010083,0.031182,0.097665,0.999946,-0.002723,-0.009662,0.002711,-0.831466,-0.034998,0.142284,0.535905,12.415884,-11.484208,-66.859391
36110,1.831518,1.686257,8.934783,-0.265107,0.004295,-0.541512,-0.694024,-1.953346,0.507590,0.017398,0.017218,0.089461,0.999943,-0.003470,-0.009767,0.002538,-0.831531,-0.026478,0.148623,0.534571,12.003780,-12.642170,-66.806428
36111,2.721817,0.851549,8.259918,-0.486868,-1.042442,-1.150505,-0.642128,-1.844854,0.414863,0.026437,0.008837,0.082817,0.999950,-0.003211,-0.009224,0.002074,-0.831334,-0.018522,0.154621,0.533510,11.626864,-13.728423,-66.785210
36112,3.553332,0.698893,7.687693,-0.159456,-1.768108,-1.502346,-0.568988,-1.624766,0.307308,0.034896,0.007262,0.077142,0.999962,-0.002845,-0.008124,0.001537,-0.830938,-0.011546,0.159876,0.532774,11.299515,-14.678314,-66.793654
36113,3.762863,0.628147,7.562766,-0.119922,-1.871620,-1.552508,-0.491117,-1.337421,0.244398,0.037114,0.006513,0.075861,0.999974,-0.002456,-0.006687,0.001222,-0.830547,-0.005701,0.164130,0.532184,11.015701,-15.460117,-66.800319
36114,3.005101,1.408116,8.844166,-0.091378,-0.537749,-0.382194,-0.255316,-1.080037,0.251713,0.029555,0.014232,0.088584,0.999984,-0.001277,-0.005400,0.001259,-0.830344,-0.001520,0.167937,0.531341,10.857911,-16.097653,-66.770715
36115,1.911945,2.605585,9.264479,0.415503,1.134481,-0.075422,-0.304582,-1.124419,0.314401,0.018557,0.026226,0.092710,0.999982,-0.001523,-0.005622,0.001572,-0.830242,0.003042,0.171790,0.530261,10.661199,-16.767075,-66.706928
36116,2.884110,2.111092,9.111270,0.383174,0.153370,-0.034217,-0.477691,-1.093645,0.300044,0.028311,0.021371,0.091218,0.999981,-0.002388,-0.005468,0.001500,-0.830094,0.008222,0.175052,0.529370,10.365923,-17.417087,-66.645221
36117,2.589829,1.027856,9.013899,-0.657177,0.033823,-0.400995,-0.444557,-1.097613,0.261226,0.025390,0.010512,0.090256,0.999982,-0.002223,-0.005488,0.001306,-0.829811,0.013248,0.178412,0.528590,10.094223,-18.065389,-66.603107
36118,3.232778,1.550539,8.839223,0.089669,-0.221298,-0.277024,-0.378468,-1.068059,0.204598,0.031839,0.015706,0.088534,0.999983,-0.001892,-0.005340,0.001023,-0.829378,0.017864,0.181823,0.527971,9.869382,-18.690900,-66.588692
36119,2.969031,1.799515,9.271316,0.079680,0.323180,0.081701,-0.366909,-1.019827,0.207309,0.029198,0.018196,0.092830,0.999985,-0.001835,-0.005099,0.001037,-0.828972,0.022312,0.185056,0.527316,9.647242,-19.289691,-66.564837
36120,3.146929,1.925316,9.175042,0.277758,0.313093,0.067352,-0.385437,-1.039985,0.235504,0.030969,0.019467,0.091875,0.999984,-0.001927,-0.005200,0.001178,-0.828592,0.026910,0.188317,0.526544,9.409164,-19.902138,-66.523713
36121,3.775380,1.509104,8.740246,0.265783,-0.409715,-0.185468,-0.433255,-0.991622,0.240759,0.037302,0.015326,0.087555,0.999985,-0.002166,-0.004958,0.001204,-0.828239,0.031589,0.191244,0.525783,9.138698,-20.487856,-66.471358
36122,3.314317,1.275644,9.317190,-0.279923,0.132824,0.153513,-0.324821,-0.928126,0.246179,0.032695,0.012948,0.093303,0.999987,-0.001624,-0.004641,0.001231,-0.827954,0.035650,0.194187,0.524892,8.926360,-21.037617,-66.407056
36123,3.029285,2.294122,9.601345,0.424267,1.012001,0.454747,-0.324821,-0.994172,0.243944,0.029787,0.023134,0.096125,0.999986,-0.001624,-0.004971,0.001220,-0.827577,0.039887,0.197398,0.523984,8.714483,-21.624651,-66.347635
36124,3.158713,1.995763,9.459220,0.249002,0.846433,0.319324,-0.560430,-1.063978,0.239124,0.031059,0.020260,0.094702,0.999981,-0.002802,-0.005320,0.001196,-0.827043,0.045269,0.200276,0.523297,8.370122,-22.250220,-66.294545
36125,3.590855,0.755082,8.908241,-0.524794,-0.110165,-0.193312,-0.552546,-1.114187,0.175940,0.035405,0.007829,0.089259,0.999980,-0.002763,-0.005571,0.000880,-0.826264,0.050692,0.203387,0.522831,8.043871,-22.899125,-66.280194
36126,4.367731,0.904320,8.571169,-0.010827,-0.681671,-0.174536,-0.490425,-1.075133,0.096006,0.043211,0.009275,0.085922,0.999982,-0.002452,-0.005376,0.000480,-0.825299,0.055666,0.206513,0.522624,7.770575,-23.519132,-66.308420
36127,4.097334,1.147486,8.917006,0.001265,-0.129384,0.066592,-0.416057,-1.014620,0.095241,0.040515,0.011680,0.089352,0.999985,-0.002080,-0.005073,0.000476,-0.824388,0.060180,0.209576,0.522341,7.536293,-24.105181,-66.328867
36128,4.188812,1.886193,8.890681,0.692305,0.223375,0.168192,-0.451548,-1.000494,0.109992,0.041432,0.019086,0.089072,0.999985,-0.002258,-0.005002,0.000550,-0.823495,0.064809,0.212479,0.522024,7.277344,-24.684034,-66.336633
