PacketCounter,Acc_X,Acc_Y,Acc_Z,FreeAcc_E,FreeAcc_N,FreeAcc_U,Gyr_X,Gyr_Y,Gyr_Z,VelInc_X,VelInc_Y,VelInc_Z,OriInc_q0,OriInc_q1,OriInc_q2,OriInc_q3,Quat_q0,Quat_q1,Quat_q2,Quat_q3,Roll,Pitch,Yaw
63366,0.099892,2.912820,9.854868,0.302628,0.085117,0.459316,0.154070,-0.157305,0.111299,0.000905,0.029053,0.098572,0.999999,0.000770,-0.000787,0.000556,0.514930,0.055187,-0.121508,-0.846780,15.233220,-1.815119,-117.634848
63367,0.236973,3.004620,9.737288,0.343134,-0.071413,0.374354,0.069410,-0.177543,0.100021,0.002268,0.030014,0.097385,0.999999,0.000347,-0.000888,0.000500,0.515238,0.054527,-0.122281,-0.846525,15.269924,-1.930697,-117.605237
63368,0.405445,2.681326,9.513100,0.042805,-0.094166,0.078837,-0.010705,-0.163404,0.068930,0.003967,0.026820,0.095133,1.000000,-0.000054,-0.000817,0.000345,0.515424,0.053747,-0.122679,-0.846403,15.262570,-2.033339,-117.593114
63369,0.561355,2.330017,9.358742,-0.288671,-0.089034,-0.156659,-0.024435,-0.124572,0.037532,0.005551,0.023313,0.093588,1.000000,-0.000122,-0.000623,0.000188,0.515524,0.053108,-0.122901,-0.846351,15.246366,-2.110216,-117.590083
63370,0.530638,2.239437,9.305656,-0.335684,-0.021823,-0.232566,0.018150,-0.068302,0.004813,0.005274,0.022386,0.093060,1.000000,0.000091,-0.000342,0.000024,0.515538,0.052842,-0.123148,-0.846323,15.255048,-2.150909,-117.592619
63371,0.413751,2.491067,9.470102,-0.101520,0.002212,-0.012222,0.050949,-0.024795,-0.022599,0.004129,0.024886,0.094708,1.000000,0.000255,-0.000124,-0.000113,0.515425,0.052857,-0.123416,-0.846352,15.282716,-2.163562,-117.607797
63372,0.371942,2.652690,9.526090,0.041230,-0.020410,0.082735,0.036920,0.000041,-0.037893,0.003724,0.026509,0.095266,1.000000,0.000185,0.000000,-0.000189,0.515275,0.052958,-0.123557,-0.846417,15.303043,-2.159530,-117.626356
63373,0.313937,2.705396,9.596314,0.095506,0.018903,0.162156,0.017666,0.011495,-0.029041,0.003149,0.027045,0.095965,1.000000,0.000088,0.000057,-0.000145,0.515165,0.053044,-0.123588,-0.846473,15.311568,-2.151142,-117.639610
63374,0.299020,2.704962,9.654377,0.087778,0.040142,0.217463,0.010902,0.020989,-0.016584,0.003003,0.027044,0.096545,1.000000,0.000055,0.000105,-0.000083,0.515175,0.053150,-0.123559,-0.846465,15.314903,-2.139323,-117.636696
63375,0.085162,2.705643,9.862860,0.141254,0.261019,0.410604,0.009478,-0.001107,0.002256,0.000851,0.027052,0.098630,1.000000,0.000047,-0.000006,0.000011,0.515192,0.053142,-0.123597,-0.846450,15.318153,-2.142631,-117.634543
63376,-0.129352,2.742467,10.091947,0.224172,0.473639,0.632918,0.000260,-0.061077,0.016720,-0.001327,0.027424,0.100919,1.000000,0.000001,-0.000305,0.000084,0.515258,0.052851,-0.123753,-0.846405,15.316210,-2.181409,-117.630584
63377,-0.160045,2.726811,10.195067,0.209563,0.533404,0.726385,-0.024419,-0.155898,0.014749,-0.001682,0.027280,0.101946,1.000000,-0.000122,-0.000779,0.000074,0.515241,0.052093,-0.124050,-0.846419,15.300676,-2.272149,-117.644951
63378,0.111583,2.536795,10.040104,-0.032944,0.368947,0.536912,-0.040659,-0.244469,0.009811,0.000992,0.025388,0.100397,0.999999,-0.000203,-0.001222,0.000049,0.515206,0.050918,-0.124500,-0.846445,15.275734,-2.412144,-117.668226
63379,0.464732,2.353468,9.746783,-0.276682,0.113150,0.220515,-0.003728,-0.289964,0.007413,0.004505,0.023537,0.097474,0.999999,-0.000019,-0.001450,0.000037,0.515069,0.049651,-0.125227,-0.846497,15.273174,-2.575887,-117.706850
63380,0.780316,2.467292,9.441880,-0.250014,-0.239273,-0.028736,0.055028,-0.272959,0.000034,0.007674,0.024647,0.094436,0.999999,0.000275,-0.001365,0.000000,0.514879,0.048613,-0.126160,-0.846534,15.304923,-2.728866,-117.749071
63381,0.889492,2.711435,9.321705,-0.058692,-0.439626,-0.074078,0.034806,-0.217138,-0.014982,0.008796,0.027097,0.093231,0.999999,0.000174,-0.001086,-0.000075,0.514681,0.047767,-0.126857,-0.846599,15.324713,-2.848947,-117.789175
63382,0.843082,2.663408,9.305416,-0.068149,-0.365273,-0.104072,-0.014110,-0.144268,-0.025680,0.008367,0.026640,0.093058,1.000000,-0.000071,-0.000721,-0.000128,0.514533,0.047126,-0.127138,-0.846682,15.315280,-2.925204,-117.818833
63383,0.698920,2.581675,9.382828,-0.081442,-0.180548,-0.058110,-0.013639,-0.083708,-0.018289,0.006952,0.025823,0.093829,1.000000,-0.000068,-0.000419,-0.000091,0.514417,0.046722,-0.127285,-0.846753,15.306472,-2.971046,-117.840541
63384,0.603352,2.591874,9.454159,-0.038843,-0.084403,0.008429,-0.016443,-0.048365,-0.015862,0.006013,0.025926,0.094541,1.000000,-0.000082,-0.000242,-0.000079,0.514347,0.046476,-0.127312,-0.846805,15.294906,-2.995276,-117.853449
63385,0.235502,2.657650,9.768037,0.127051,0.266770,0.308864,-0.017459,-0.032737,-0.012428,0.002341,0.026585,0.097678,1.000000,-0.000087,-0.000164,-0.000062,0.514289,0.046274,-0.127314,-0.846851,15.283351,-3.013836,-117.864176
63386,-0.307810,2.794290,10.201495,0.413621,0.764176,0.733318,-0.037236,-0.105595,-0.011522,-0.003130,0.027962,0.102008,1.000000,-0.000186,-0.000528,-0.000058,0.514256,0.045711,-0.127413,-0.846887,15.260068,-3.073764,-117.876995
63387,-0.171167,2.645888,10.253316,0.225818,0.729861,0.750302,-0.082406,-0.239662,-0.014093,-0.001833,0.026501,0.102520,0.999999,-0.000412,-0.001198,-0.000070,0.514073,0.044467,-0.127670,-0.847025,15.213080,-3.206475,-117.919827
63388,0.475709,2.445549,9.903552,-0.156975,0.208986,0.396081,-0.072361,-0.316593,-0.031446,0.004604,0.024491,0.099034,0.999999,-0.000362,-0.001583,-0.000157,0.513583,0.042923,-0.128226,-0.847318,15.179346,-3.380730,-118.008193
63389,0.750415,2.320808,9.651861,-0.322467,0.002792,0.137369,-0.037842,-0.320458,-0.044602,0.007355,0.023225,0.096526,0.999999,-0.000189,-0.001602,-0.000223,0.513207,0.041471,-0.128873,-0.847520,15.159905,-3.553601,-118.079950
63390,0.730016,2.348530,9.559856,-0.256844,0.019009,0.055086,0.024068,-0.315781,-0.059062,0.007156,0.023472,0.095613,0.999999,0.000120,-0.001579,-0.000295,0.512683,0.040210,-0.129798,-0.847757,15.180238,-3.721832,-118.169059
63391,0.880466,2.591790,9.476639,-0.091770,-0.209186,0.048704,0.027870,-0.294374,-0.066697,0.008674,0.025902,0.094783,0.999999,0.000139,-0.001472,-0.000333,0.512213,0.039051,-0.130651,-0.847964,15.199432,-3.876938,-118.249238
63392,0.844606,2.679999,9.394600,0.026557,-0.208266,-0.009110,0.007066,-0.257879,-0.066168,0.008334,0.026794,0.093958,0.999999,0.000035,-0.001289,-0.000331,0.511742,0.037995,-0.131337,-0.848190,15.208291,-4.012106,-118.327845
63393,0.931561,2.677526,9.354196,0.001105,-0.272850,-0.042147,-0.022251,-0.206920,-0.059652,0.009227,0.026783,0.093549,0.999999,-0.000111,-0.001035,-0.000298,0.511368,0.037074,-0.131755,-0.848392,15.197939,-4.119898,-118.391013
63394,0.886563,2.544735,9.226221,-0.056686,-0.185647,-0.202946,-0.020976,-0.148411,-0.044669,0.008803,0.025455,0.092266,1.000000,-0.000105,-0.000742,-0.000223,0.511195,0.036387,-0.131999,-0.848488,15.183103,-4.198176,-118.423710
63395,0.856143,2.528813,9.156947,-0.036500,-0.156189,-0.275821,-0.003822,-0.088951,-0.032293,0.008525,0.025288,0.091573,1.000000,-0.000019,-0.000445,-0.000161,0.511011,0.035996,-0.132198,-0.848585,15.181040,-4.244864,-118.453912
63396,0.727297,2.578424,9.154707,0.070527,-0.060953,-0.274490,0.002472,-0.026558,-0.019449,0.007263,0.025782,0.091548,1.000000,0.000012,-0.000133,-0.000097,0.510956,0.035860,-0.132269,-0.848612,15.180447,-4.261295,-118.463094
63397,0.579618,2.677545,9.263532,0.204880,0.045414,-0.154831,-0.002717,0.013786,-0.013597,0.005804,0.026776,0.092635,1.000000,-0.000014,0.000069,-0.000068,0.510919,0.035895,-0.132214,-0.848642,15.177115,-4.253982,-118.467469
63398,0.544223,2.639628,9.378539,0.167535,0.112195,-0.056656,-0.031172,0.033773,-0.011047,0.005460,0.026411,0.093780,1.000000,-0.000156,0.000169,-0.000055,0.510941,0.035931,-0.131989,-0.848662,15.156725,-4.237535,-118.463576
63399,0.346813,2.635371,9.537782,0.229461,0.312038,0.080983,-0.061844,0.031458,-0.008642,0.003484,0.026383,0.095369,1.000000,-0.000309,0.000157,-0.000043,0.510947,0.035886,-0.131639,-0.848715,15.119115,-4.221195,-118.462555
63400,0.420657,2.448402,9.587012,0.030106,0.335503,0.085239,-0.073846,-0.003425,-0.011849,0.004206,0.024519,0.095861,1.000000,-0.000369,-0.000017,-0.000059,0.510910,0.035644,-0.131347,-0.848793,15.076117,-4.226779,-118.469974
63401,0.631819,2.392341,9.492807,-0.093185,0.154928,-0.004365,-0.069635,-0.014441,-0.021728,0.006314,0.023956,0.094920,1.000000,-0.000348,-0.000072,-0.000109,0.510831,0.035393,-0.131078,-0.848892,15.035089,-4.233891,-118.483092
63402,0.559935,2.349875,9.571052,-0.104130,0.248906,0.054819,-0.055366,-0.013683,-0.033336,0.005597,0.023524,0.095704,1.000000,-0.000277,-0.000068,-0.000167,0.510806,0.035195,-0.130834,-0.848953,14.999288,-4.238179,-118.488411
63403,0.373512,2.429321,9.612530,0.049867,0.384623,0.101515,-0.033984,-0.042451,-0.030251,0.003718,0.024309,0.096122,1.000000,-0.000170,-0.000212,-0.000151,0.510667,0.034922,-0.130786,-0.849055,14.979335,-4.259543,-118.510395
63404,0.460603,2.405002,9.525649,0.009208,0.306178,0.017894,-0.033340,-0.068600,-0.026994,0.004577,0.024065,0.095254,1.000000,-0.000167,-0.000343,-0.000135,0.510396,0.034534,-0.130855,-0.849223,14.964884,-4.296712,-118.551538
63405,0.637611,2.413284,9.344209,-0.027164,0.117164,-0.141583,-0.037455,-0.068148,-0.038693,0.006349,0.024149,0.093440,1.000000,-0.000187,-0.000341,-0.000193,0.510205,0.034148,-0.130857,-0.849354,14.943623,-4.331068,-118.582029
63406,0.750171,2.326999,9.228939,-0.127190,0.037924,-0.266307,-0.032734,-0.032755,-0.043278,0.007492,0.023283,0.092287,1.000000,-0.000164,-0.000164,-0.000216,0.510049,0.033889,-0.130791,-0.849468,14.922775,-4.349788,-118.605867
63407,0.696385,2.434693,9.254679,-0.012029,0.041104,-0.217901,-0.012003,0.010489,-0.050005,0.006975,0.024351,0.092545,1.000000,-0.000060,0.000052,-0.000250,0.509856,0.033909,-0.130699,-0.849597,14.915699,-4.338965,-118.630980
63408,0.562424,2.542337,9.378350,0.120071,0.130581,-0.081204,-0.020555,0.033390,-0.043855,0.005645,0.025432,0.093780,1.000000,-0.000103,0.000167,-0.000219,0.509598,0.034009,-0.130552,-0.849770,14.908156,-4.316127,-118.663593
63409,0.647538,2.542356,9.395274,0.076584,0.054010,-0.058444,-0.035338,0.046544,-0.038289,0.006502,0.025439,0.093947,1.000000,-0.000177,0.000233,-0.000191,0.509483,0.034115,-0.130271,-0.849878,14.886821,-4.287076,-118.676897
63410,0.819287,2.454027,9.414469,-0.084538,-0.060456,-0.049752,-0.032860,0.069516,-0.034749,0.008230,0.024554,0.094138,1.000000,-0.000164,0.000348,-0.000174,0.509464,0.034333,-0.129922,-0.849934,14.864656,-4.244832,-118.675653
63411,0.722956,2.494196,9.493021,-0.020418,0.012084,0.029089,-0.017709,0.092810,-0.024847,0.007277,0.024949,0.094925,1.000000,-0.000089,0.000464,-0.000124,0.509433,0.034673,-0.129600,-0.849988,14.852346,-4.192140,-118.674684
63412,0.554328,2.632947,9.583098,0.161301,0.104092,0.139126,-0.028339,0.095651,-0.015903,0.005591,0.026343,0.095825,1.000000,-0.000142,0.000478,-0.000080,0.509701,0.034994,-0.129140,-0.849884,14.823804,-4.138300,-118.633838
63413,0.567499,2.557546,9.656700,0.076500,0.129942,0.191922,-0.061305,0.083225,-0.010940,0.005717,0.025605,0.096557,1.000000,-0.000307,0.000416,-0.000055,0.509730,0.035172,-0.128659,-0.849933,14.786033,-4.092949,-118.626558
63414,0.662587,2.414960,9.549954,-0.068381,0.080948,0.059569,-0.065783,0.079115,-0.010221,0.006665,0.024181,0.095489,1.000000,-0.000329,0.000396,-0.000051,0.509783,0.035317,-0.128162,-0.849970,14.744684,-4.050311,-118.616451
63415,0.593052,2.389773,9.600640,-0.064891,0.152715,0.097281,-0.045669,0.085100,-0.008772,0.005972,0.023919,0.095998,1.000000,-0.000228,0.000425,-0.000044,0.509819,0.035542,-0.127743,-0.850001,14.715780,-4.004228,-118.607747
63416,0.424321,2.436465,9.676238,0.041740,0.284431,0.170466,-0.031243,0.071974,-0.004379,0.004279,0.024380,0.096757,1.000000,-0.000156,0.000360,-0.000022,0.509925,0.035755,-0.127396,-0.849981,14.693024,-3.964787,-118.590202
63417,0.554425,2.550254,9.676927,0.077438,0.112967,0.209056,-0.030455,0.051184,-0.008801,0.005570,0.025517,0.096764,1.000000,-0.000152,0.000256,-0.000044,0.509937,0.035874,-0.127128,-0.850009,14.673184,-3.937488,-118.586480
63418,0.705624,2.487747,9.704012,-0.052258,0.005919,0.229816,-0.031041,0.045281,-0.013022,0.007080,0.024892,0.097035,1.000000,-0.000155,0.000226,-0.000065,0.510024,0.036013,-0.126783,-0.850003,14.646407,-3.905026,-118.572364
63419,0.722711,2.460380,9.697568,-0.082810,-0.002979,0.217853,-0.006852,0.047893,-0.016122,0.007252,0.024607,0.096973,1.000000,-0.000034,0.000239,-0.000081,0.509998,0.036183,-0.126622,-0.850035,14.640379,-3.878472,-118.573168
63420,0.490216,2.527555,9.841310,0.056844,0.192050,0.357864,0.017113,0.042876,-0.014585,0.004925,0.025267,0.098414,1.000000,0.000086,0.000214,-0.000073,0.510171,0.036398,-0.126527,-0.849936,14.642690,-3.854846,-118.547154
63421,0.483539,2.595755,9.924229,0.100075,0.181088,0.454701,0.025439,0.003121,-0.011113,0.004838,0.025945,0.099246,1.000000,0.000127,0.000016,-0.000056,0.510133,0.036457,-0.126618,-0.849943,14.655394,-3.853835,-118.551650
63422,0.701391,2.543757,9.870036,-0.036826,0.003869,0.403911,0.020413,-0.019953,-0.012282,0.007006,0.025427,0.098704,1.000000,0.000102,-0.000100,-0.000061,0.510646,0.036423,-0.126589,-0.849641,14.648257,-3.864123,-118.483954
63423,0.763210,2.521167,9.727301,-0.058854,-0.063190,0.264599,0.017189,-0.017527,-0.013933,0.007625,0.025203,0.097276,1.000000,0.000086,-0.000088,-0.000070,0.510585,0.036376,-0.126697,-0.849664,14.656486,-3.874142,-118.492940
63424,0.641182,2.528706,9.744861,0.002031,0.045110,0.275213,0.020163,-0.009944,-0.012475,0.006409,0.025277,0.097451,1.000000,0.000101,-0.000050,-0.000062,0.510529,0.036360,-0.126769,-0.849687,14.662976,-3.878956,-118.500666
63425,0.532011,2.598097,9.828361,0.097156,0.126932,0.365931,0.014882,-0.021567,-0.005679,0.005310,0.025974,0.098286,1.000000,0.000074,-0.000108,-0.000028,0.510501,0.036284,-0.126878,-0.849691,14.669602,-3.892407,-118.505640
63426,0.607036,2.576061,9.799662,0.047989,0.069305,0.337724,0.005219,-0.036536,-0.003308,0.006053,0.025758,0.097998,1.000000,0.000026,-0.000183,-0.000017,0.510125,0.036098,-0.127041,-0.849900,14.676683,-3.913746,-118.558377
63427,0.716154,2.530061,9.705076,-0.023119,-0.018864,0.242247,-0.003668,-0.048620,-0.004518,0.007139,0.025302,0.097052,1.000000,-0.000018,-0.000243,-0.000023,0.510088,0.035859,-0.127141,-0.849918,14.672929,-3.942359,-118.566668
63428,0.819057,2.444883,9.648282,-0.131646,-0.077103,0.173021,-0.000089,-0.031967,-0.009490,0.008176,0.024448,0.096484,1.000000,-0.000000,-0.000160,-0.000047,0.510223,0.035696,-0.127224,-0.849831,14.671083,-3.965403,-118.551036
63429,0.687610,2.494150,9.645873,-0.025184,0.018173,0.174078,0.011556,-0.021372,-0.010342,0.006867,0.024936,0.096461,1.000000,0.000058,-0.000107,-0.000052,0.510175,0.035615,-0.127318,-0.849849,14.676007,-3.978075,-118.558601
63430,0.617938,2.532542,9.705130,0.031273,0.074758,0.236124,-0.002644,-0.027449,-0.009574,0.006167,0.025326,0.097052,1.000000,-0.000013,-0.000137,-0.000048,0.510335,0.035486,-0.127335,-0.849756,14.669430,-3.994316,-118.539156
63431,0.714025,2.468428,9.638332,-0.054658,0.009087,0.162148,-0.011585,-0.026510,-0.013112,0.007129,0.024689,0.096383,1.000000,-0.000058,-0.000133,-0.000066,0.510276,0.035326,-0.127343,-0.849796,14.661247,-4.009435,-118.548991
63432,0.725711,2.394840,9.596443,-0.113733,0.026795,0.103964,-0.007471,-0.019210,-0.014538,0.007250,0.023951,0.095964,1.000000,-0.000037,-0.000096,-0.000073,0.510329,0.035213,-0.127411,-0.849759,14.661133,-4.025360,-118.543591
63433,0.665087,2.420188,9.566074,-0.056134,0.063989,0.076812,0.000555,-0.007634,-0.015248,0.006649,0.024201,0.095661,1.000000,0.000003,-0.000038,-0.000076,0.510271,0.035165,-0.127423,-0.849794,14.659822,-4.029717,-118.551894
63434,0.559221,2.481928,9.519125,0.057040,0.119628,0.039666,-0.006288,-0.004233,-0.016748,0.005592,0.024822,0.095191,1.000000,-0.000031,-0.000021,-0.000084,0.510070,0.035129,-0.127348,-0.849928,14.651168,-4.025418,-118.578923
63435,0.597718,2.451375,9.494647,0.018385,0.094797,0.011034,-0.014088,-0.002133,-0.015015,0.005978,0.024520,0.094945,1.000000,-0.000070,-0.000011,-0.000075,0.510020,0.035067,-0.127284,-0.849970,14.641388,-4.026748,-118.586276
63436,0.601623,2.399129,9.442786,-0.018368,0.105280,-0.051921,-0.009406,0.005027,-0.017882,0.006021,0.023995,0.094427,1.000000,-0.000047,0.000025,-0.000089,0.509671,0.035040,-0.127293,-0.850179,14.642325,-4.024040,-118.633018
63437,0.560376,2.398663,9.405381,0.008158,0.133303,-0.091013,-0.001657,0.022001,-0.016286,0.005616,0.023987,0.094053,1.000000,-0.000008,0.000110,-0.000081,0.509628,0.035113,-0.127220,-0.850213,14.639496,-4.011811,-118.637606
63438,0.419691,2.453233,9.534727,0.097204,0.251497,0.037836,0.011100,0.023112,-0.015039,0.004210,0.024527,0.095348,1.000000,0.000055,0.000116,-0.000075,0.509801,0.035278,-0.127079,-0.850123,14.634208,-3.990371,-118.612111
63439,0.518085,2.459562,9.492280,0.062300,0.153626,0.005345,0.008891,0.015253,-0.009437,0.005189,0.024591,0.094923,1.000000,0.000044,0.000076,-0.000047,0.509782,0.035345,-0.127069,-0.850134,14.637188,-3.982856,-118.613824
63440,0.600332,2.469484,9.467401,0.036159,0.071039,-0.010439,0.001277,0.015769,-0.007356,0.006012,0.024694,0.094674,1.000000,0.000006,0.000079,-0.000037,0.509848,0.035391,-0.126980,-0.850105,14.630677,-3.974261,-118.604159
63441,0.653805,2.450680,9.456589,-0.003994,0.028896,-0.021900,-0.001458,0.026470,-0.010283,0.006552,0.024507,0.094565,1.000000,-0.000007,0.000132,-0.000051,0.509834,0.035480,-0.126896,-0.850122,14.627631,-3.960402,-118.604694
63442,0.583986,2.466761,9.526555,0.028644,0.092405,0.044891,-0.003238,0.039919,-0.008294,0.005860,0.024669,0.095264,1.000000,-0.000016,0.000200,-0.000041,0.509794,0.035632,-0.126779,-0.850157,14.624962,-3.938020,-118.607783
63443,0.546760,2.474520,9.561725,0.045409,0.124275,0.078282,-0.005237,0.039690,-0.007328,0.005487,0.024747,0.095616,1.000000,-0.000026,0.000198,-0.000037,0.509802,0.035766,-0.126647,-0.850167,14.619511,-3.917258,-118.604765
63444,0.521153,2.499642,9.569272,0.077941,0.133074,0.090190,-0.004876,0.031922,-0.004135,0.005227,0.024999,0.095691,1.000000,-0.000024,0.000160,-0.000021,0.509971,0.035861,-0.126483,-0.850085,14.607934,-3.901231,-118.580620
63445,0.573350,2.465686,9.527479,0.031176,0.092363,0.044883,-0.001260,0.030946,-0.004278,0.005749,0.024657,0.095274,1.000000,-0.000006,0.000155,-0.000021,0.509986,0.035965,-0.126390,-0.850086,14.604715,-3.885756,-118.577153
63446,0.558783,2.448300,9.555247,0.018092,0.114509,0.066367,0.002183,0.036159,-0.007264,0.005606,0.024482,0.095552,1.000000,0.000011,0.000181,-0.000036,0.510257,0.036100,-0.126228,-0.849942,14.595154,-3.867588,-118.538967
63447,0.465921,2.461381,9.569643,0.068862,0.190172,0.077340,0.017791,0.031971,-0.010710,0.004676,0.024605,0.095698,1.000000,0.000089,0.000160,-0.000054,0.510242,0.036262,-0.126212,-0.849946,14.603057,-3.850615,-118.538895
63448,0.563953,2.483285,9.558516,0.042355,0.089527,0.078731,0.015962,0.025551,-0.006900,0.005653,0.024825,0.095586,1.000000,0.000080,0.000128,-0.000034,0.510607,0.036403,-0.126088,-0.849740,14.597330,-3.835797,-118.488332
63449,0.645125,2.494071,9.533736,0.015736,0.007448,0.062959,0.011122,0.029183,-0.009379,0.006466,0.024935,0.095338,1.000000,0.000056,0.000146,-0.000047,0.510597,0.036535,-0.126051,-0.849746,14.601351,-3.820557,-118.487870
63450,0.585356,2.453579,9.592433,-0.002383,0.085499,0.105485,0.012100,0.041148,-0.009452,0.005874,0.024530,0.095925,1.000000,0.000061,0.000206,-0.000047,0.511180,0.036743,-0.125903,-0.849407,14.596172,-3.801469,-118.407286
63451,0.471096,2.522203,9.676129,0.092627,0.167648,0.196020,0.013203,0.027047,-0.004847,0.004725,0.025216,0.096762,1.000000,0.000066,0.000135,-0.000024,0.511188,0.036868,-0.125881,-0.849401,14.601210,-3.788070,-118.404578
63452,0.648544,2.528467,9.709753,0.005642,0.014803,0.241804,-0.000915,0.012522,-0.004256,0.006492,0.025285,0.097097,1.000000,-0.000005,0.000063,-0.000021,0.510991,0.036870,-0.125911,-0.849515,14.605188,-3.786319,-118.430792
63453,0.696453,2.440857,9.674616,-0.085601,0.004586,0.188997,-0.001767,0.012009,-0.006171,0.006971,0.024409,0.096746,1.000000,-0.000009,0.000060,-0.000031,0.510986,0.036894,-0.125863,-0.849524,14.601862,-3.781074,-118.431025
63454,0.655176,2.440987,9.636885,-0.059595,0.033547,0.149870,0.005976,0.022951,-0.010227,0.006564,0.024407,0.096369,1.000000,0.000030,0.000115,-0.000051,0.510827,0.036962,-0.125872,-0.849615,14.607339,-3.772264,-118.451224
63455,0.664560,2.489034,9.671577,-0.030808,0.008306,0.196075,0.009981,0.023419,-0.012156,0.006658,0.024885,0.096716,1.000000,0.000050,0.000117,-0.000061,0.510802,0.037068,-0.125844,-0.849630,14.610868,-3.759834,-118.453149
63456,0.661107,2.474939,9.640437,-0.035322,0.009055,0.162236,0.004765,0.036270,-0.009691,0.006630,0.024747,0.096404,1.000000,0.000024,0.000181,-0.000048,0.511157,0.037218,-0.125671,-0.849435,14.600885,-3.740959,-118.403641
63457,0.662328,2.454157,9.650762,-0.057753,0.015847,0.167051,0.008968,0.045821,-0.008112,0.006646,0.024537,0.096507,1.000000,0.000045,0.000229,-0.000041,0.511163,0.037415,-0.125582,-0.849436,14.603444,-3.716692,-118.400036
63458,0.629187,2.472384,9.585449,-0.017777,0.022057,0.106415,0.009281,0.055698,-0.009754,0.006320,0.024719,0.095854,1.000000,0.000046,0.000278,-0.000049,0.510948,0.037664,-0.125538,-0.849561,14.614537,-3.686141,-118.425301
63459,0.607083,2.507001,9.665259,0.004213,0.035249,0.190791,0.005687,0.061290,-0.012122,0.006102,0.025067,0.096651,1.000000,0.000028,0.000306,-0.000061,0.510947,0.037920,-0.125395,-0.849571,14.615243,-3.652719,-118.421710
63460,0.505139,2.465772,9.686179,0.011311,0.140779,0.194176,0.005504,0.062881,-0.012479,0.005083,0.024655,0.096861,1.000000,0.000028,0.000314,-0.000062,0.511167,0.038189,-0.125173,-0.849460,14.607953,-3.617064,-118.388513
63461,0.538626,2.451597,9.693109,-0.020605,0.114375,0.199470,0.004240,0.045651,-0.013260,0.005410,0.024514,0.096930,1.000000,0.000021,0.000228,-0.000066,0.511152,0.038376,-0.125063,-0.849477,14.607993,-3.592144,-118.387791
63462,0.617628,2.461606,9.669074,-0.046424,0.031680,0.183752,0.003805,0.051198,-0.019471,0.006203,0.024614,0.096690,1.000000,0.000019,0.000256,-0.000097,0.511159,0.038581,-0.124894,-0.849488,14.603020,-3.562231,-118.383696
63463,0.499842,2.409629,9.675902,-0.039023,0.155364,0.169976,0.009762,0.048741,-0.011707,0.005023,0.024091,0.096759,1.000000,0.000049,0.000244,-0.000059,0.511152,0.038794,-0.124800,-0.849496,14.606129,-3.535820,-118.381645
63464,0.339693,2.499491,9.710750,0.104885,0.258421,0.216457,0.015899,0.034028,-0.006737,0.003414,0.024987,0.097109,1.000000,0.000079,0.000170,-0.000034,0.510882,0.038932,-0.124767,-0.849657,14.611963,-3.515850,-118.415540
63465,0.471808,2.467331,9.744944,0.006579,0.161638,0.249523,0.005642,0.003872,-0.003589,0.004720,0.024670,0.097450,1.000000,0.000028,0.000019,-0.000018,0.510882,0.038938,-0.124771,-0.849656,14.612830,-3.515484,-118.415469
63466,0.611239,2.428889,9.647987,-0.072128,0.038534,0.154764,0.005352,-0.001394,-0.004444,0.006112,0.024286,0.096481,1.000000,0.000027,-0.000007,-0.000022,0.511194,0.038926,-0.124669,-0.849484,14.600686,-3.515997,-118.374079
63467,0.588391,2.425254,9.592584,-0.053881,0.050781,0.098935,0.007007,0.006621,-0.008613,0.005888,0.024249,0.095926,1.000000,0.000035,0.000033,-0.000043,0.511174,0.038950,-0.124672,-0.849494,14.602443,-3.513376,-118.376349
63468,0.498229,2.453023,9.637376,0.004906,0.122913,0.143690,0.011470,0.006161,-0.006824,0.004986,0.024525,0.096375,1.000000,0.000057,0.000031,-0.000034,0.511372,0.039005,-0.124549,-0.849391,14.592618,-3.504121,-118.349120
63469,0.565195,2.482639,9.661445,-0.006719,0.055219,0.178477,0.010064,-0.000274,-0.012951,0.005653,0.024821,0.096616,1.000000,0.000050,-0.000001,-0.000065,0.511329,0.039011,-0.124580,-0.849412,14.596292,-3.504683,-118.354738
63470,0.614998,2.471749,9.609325,-0.030865,0.008293,0.128432,0.014550,0.003879,-0.013663,0.006154,0.024710,0.096095,1.000000,0.000073,0.000019,-0.000068,0.511244,0.039046,-0.124660,-0.849450,14.606579,-3.504580,-118.365810
63471,0.569582,2.509086,9.591949,0.025154,0.028399,0.118273,0.008639,0.010025,-0.010284,0.005702,0.025086,0.095920,1.000000,0.000043,0.000050,-0.000051,0.511219,0.039090,-0.124660,-0.849463,14.609267,-3.499819,-118.368472
63472,0.483663,2.470510,9.553628,0.039529,0.114171,0.066309,0.007896,0.016362,-0.011702,0.004846,0.024701,0.095537,1.000000,0.000039,0.000082,-0.000059,0.511387,0.039164,-0.124644,-0.849361,14.611326,-3.494542,-118.345170
63473,0.498949,2.482218,9.567360,0.038736,0.097000,0.083465,0.008454,0.011610,-0.010639,0.004996,0.024818,0.095674,1.000000,0.000042,0.000058,-0.000053,0.511362,0.039215,-0.124639,-0.849374,14.613905,-3.488857,-118.347800
63474,0.581532,2.492294,9.543257,0.013938,0.013214,0.067753,0.000188,0.014626,-0.012657,0.005824,0.024922,0.095432,1.000000,0.000001,0.000073,-0.000063,0.511570,0.039266,-0.124469,-0.849271,14.599105,-3.477305,-118.319063
63475,0.539548,2.431774,9.553430,-0.020726,0.077067,0.059815,0.001344,0.025022,-0.012391,0.005409,0.024317,0.095534,1.000000,0.000007,0.000125,-0.000062,0.511548,0.039357,-0.124398,-0.849291,14.597514,-3.463922,-118.320676
63476,0.358132,2.471515,9.611908,0.086509,0.227321,0.115367,0.020543,0.021330,-0.007748,0.003593,0.024705,0.096121,1.000000,0.000103,0.000107,-0.000039,0.511577,0.039477,-0.124418,-0.849265,14.606303,-3.453919,-118.315250
63477,0.296186,2.557930,9.705027,0.170773,0.259147,0.223346,0.009159,-0.003948,-0.004211,0.002960,0.025575,0.097051,1.000000,0.000046,-0.000020,-0.000021,0.511570,0.039459,-0.124456,-0.849264,14.609166,-3.457782,-118.316509
63478,0.403441,2.527115,9.642859,0.106950,0.168685,0.161976,-0.008964,-0.018987,-0.001719,0.004025,0.025275,0.096428,1.000000,-0.000045,-0.000095,-0.000009,0.511682,0.039342,-0.124425,-0.849207,14.598756,-3.469246,-118.303131
63479,0.365973,2.465424,9.653117,0.072257,0.232525,0.154039,-0.012389,-0.030272,-0.004382,0.003646,0.024660,0.096530,1.000000,-0.000062,-0.000151,-0.000022,0.511662,0.039158,-0.124439,-0.849225,14.589501,-3.487678,-118.308279
63480,0.352793,2.453756,9.639313,0.075335,0.249174,0.136884,-0.004137,-0.048568,-0.003006,0.003505,0.024539,0.096393,1.000000,-0.000021,-0.000243,-0.000015,0.512019,0.038935,-0.124445,-0.849019,14.575595,-3.515833,-118.263827
63481,0.447723,2.427503,9.593989,0.019350,0.174920,0.092205,0.014516,-0.068846,-0.005728,0.004445,0.024268,0.095943,1.000000,0.000073,-0.000344,-0.000029,0.511964,0.038656,-0.124672,-0.849032,14.582124,-3.555459,-118.275255
63482,0.611350,2.506314,9.555483,0.019571,-0.003853,0.084899,0.018587,-0.065203,-0.018309,0.006085,0.025054,0.095559,1.000000,0.000093,-0.000326,-0.000092,0.512162,0.038427,-0.124893,-0.848891,14.589844,-3.594276,-118.252541
63483,0.549878,2.523980,9.623937,0.052359,0.059944,0.151582,0.009864,-0.061255,-0.024035,0.005472,0.025234,0.096242,1.000000,0.000049,-0.000306,-0.000120,0.512035,0.038180,-0.125077,-0.848951,14.594291,-3.627054,-118.273047
63484,0.566445,2.511840,9.706190,0.022832,0.067368,0.228989,0.006168,-0.062514,-0.026910,0.005637,0.025115,0.097064,1.000000,0.000031,-0.000313,-0.000135,0.512301,0.037952,-0.125040,-0.848806,14.576138,-3.651595,-118.240607
63485,0.489233,2.547320,9.823467,0.070407,0.145686,0.346176,-0.002119,-0.079383,-0.027061,0.004857,0.025474,0.098236,1.000000,-0.000011,-0.000397,-0.000135,0.512153,0.037599,-0.125219,-0.848885,14.573955,-3.693977,-118.265323
63486,0.536948,2.531863,9.829975,0.038290,0.119348,0.351531,-0.018214,-0.109439,-0.026152,0.005319,0.025327,0.098300,1.000000,-0.000091,-0.000547,-0.000131,0.511979,0.037086,-0.125428,-0.848982,14.565464,-3.753378,-118.295608
63487,0.686529,2.430917,9.780507,-0.102699,0.032712,0.288172,-0.022661,-0.119622,-0.031095,0.006811,0.024319,0.097806,1.000000,-0.000113,-0.000598,-0.000155,0.511792,0.036513,-0.125622,-0.849091,14.552099,-3.817502,-118.328374
63488,0.524153,2.416929,9.787835,-0.032612,0.191835,0.280881,-0.001324,-0.126843,-0.030147,0.005183,0.024169,0.097881,1.000000,-0.000007,-0.000634,-0.000151,0.511255,0.035941,-0.125915,-0.849395,14.550270,-3.881456,-118.407769
63489,0.499331,2.462618,9.842477,0.013882,0.215841,0.343167,0.024121,-0.166472,-0.026958,0.004915,0.024614,0.098432,1.000000,0.000121,-0.000832,-0.000135,0.511047,0.035286,-0.126427,-0.849471,14.564091,-3.972151,-118.444997
63490,0.794668,2.493362,9.689997,-0.067904,-0.067627,0.224004,0.029498,-0.183052,-0.032114,0.007862,0.024918,0.096911,1.000000,0.000147,-0.000915,-0.000161,0.510033,0.034547,-0.127108,-0.850010,14.593586,-4.067302,-118.590838
63491,0.927602,2.498239,9.627919,-0.110345,-0.181643,0.174969,0.027798,-0.164163,-0.037819,0.009202,0.024967,0.096290,1.000000,0.000139,-0.000821,-0.000189,0.509778,0.033917,-0.127628,-0.850110,14.610081,-4.155115,-118.633891
63492,0.779740,2.520675,9.638116,-0.014748,-0.048310,0.179936,0.032948,-0.153262,-0.039525,0.007729,0.025189,0.096391,1.000000,0.000165,-0.000766,-0.000198,0.510243,0.033377,-0.127929,-0.849807,14.606427,-4.233535,-118.579750
63493,0.755345,2.568221,9.692074,0.031775,-0.024322,0.242211,0.025644,-0.152076,-0.034093,0.007484,0.025669,0.096930,1.000000,0.000128,-0.000760,-0.000170,0.510013,0.032791,-0.128409,-0.849896,14.621461,-4.315167,-118.618919
63494,0.746281,2.580766,9.666656,0.058918,-0.016557,0.220147,0.011466,-0.148974,-0.038293,0.007396,0.025801,0.096674,1.000000,0.000057,-0.000745,-0.000191,0.509946,0.032196,-0.128622,-0.849926,14.608518,-4.384719,-118.635715
63495,0.858279,2.481751,9.577314,-0.056604,-0.074997,0.117661,-0.011953,-0.144197,-0.041185,0.008519,0.024821,0.095778,1.000000,-0.000060,-0.000721,-0.000206,0.509697,0.031552,-0.128921,-0.850055,14.602269,-4.460945,-118.677600
63496,0.912741,2.385218,9.468355,-0.138380,-0.091127,-0.007350,-0.011405,-0.129064,-0.041991,0.009071,0.023856,0.094688,1.000000,-0.000057,-0.000645,-0.000210,0.509221,0.030977,-0.129108,-0.850333,14.590062,-4.519995,-118.748476
63497,0.887493,2.423753,9.392171,-0.074292,-0.091866,-0.073019,0.007268,-0.096684,-0.042441,0.008835,0.024232,0.093927,1.000000,0.000036,-0.000483,-0.000212,0.508993,0.030585,-0.129367,-0.850444,14.594404,-4.569688,-118.784140
63498,0.737920,2.497792,9.397962,0.065148,0.011774,-0.060724,0.015116,-0.070633,-0.037397,0.007351,0.024969,0.093984,1.000000,0.000076,-0.000353,-0.000187,0.509338,0.030333,-0.129421,-0.850238,14.583437,-4.603341,-118.741675
63499,0.753749,2.517052,9.369262,0.080709,-0.010542,-0.082316,0.018057,-0.057007,-0.030309,0.007515,0.025161,0.093697,1.000000,0.000090,-0.000285,-0.000152,0.509187,0.030130,-0.129626,-0.850305,14.592945,-4.632781,-118.764772
63500,0.807264,2.521830,9.346728,0.064019,-0.060368,-0.098528,0.014493,-0.032558,-0.020815,0.008060,0.025211,0.093470,1.000000,0.000072,-0.000163,-0.000104,0.508762,0.029979,-0.129733,-0.850548,14.597115,-4.646628,-118.823214
63501,0.813737,2.486895,9.325307,0.034796,-0.052318,-0.127429,0.013448,-0.009450,-0.021907,0.008136,0.024862,0.093255,1.000000,0.000067,-0.000047,-0.000110,0.508679,0.029960,-0.129799,-0.850588,14.603050,-4.650902,-118.834742
63502,0.778364,2.466201,9.298117,0.038972,-0.017747,-0.161721,0.012009,0.022845,-0.018042,0.007796,0.024656,0.092982,1.000000,0.000060,0.000114,-0.000090,0.508955,0.030080,-0.129727,-0.850430,14.601383,-4.639689,-118.796406
63503,0.697792,2.526169,9.348153,0.117847,0.032982,-0.104885,0.011754,0.039647,-0.017734,0.006999,0.025256,0.093482,1.000000,0.000059,0.000198,-0.000089,0.508921,0.030263,-0.129661,-0.850454,14.605564,-4.617347,-118.798474
63504,0.694336,2.482069,9.427537,0.066543,0.065103,-0.039635,0.010736,0.058166,-0.016333,0.006973,0.024815,0.094275,1.000000,0.000054,0.000291,-0.000082,0.509384,0.030545,-0.129379,-0.850209,14.591222,-4.580993,-118.732808
63505,0.432287,2.474691,9.494841,0.169849,0.306028,0.002630,0.022367,0.053596,-0.017933,0.004351,0.024736,0.094950,1.000000,0.000112,0.000268,-0.000090,0.509357,0.030814,-0.129322,-0.850224,14.601279,-4.550879,-118.732900
63506,0.459140,2.490251,9.621594,0.145418,0.296313,0.131068,0.024344,0.015779,-0.015577,0.004601,0.024890,0.096219,1.000000,0.000122,0.000079,-0.000078,0.509522,0.030910,-0.129266,-0.850131,14.600360,-4.540998,-118.709740
63507,0.645444,2.442670,9.468745,0.041369,0.126334,-0.013570,0.026205,-0.003664,-0.023221,0.006456,0.024414,0.094691,1.000000,0.000131,-0.000018,-0.000116,0.509435,0.030949,-0.129370,-0.850166,14.613470,-4.541863,-118.721020
63508,0.760896,2.447659,9.407096,-0.000417,0.012044,-0.062646,0.028113,0.010365,-0.031711,0.007618,0.024462,0.094074,1.000000,0.000141,0.000052,-0.000159,0.509264,0.031043,-0.129438,-0.850254,14.626576,-4.533832,-118.742685
63509,0.650023,2.472486,9.570838,0.040395,0.128589,0.092791,0.038084,0.017628,-0.030968,0.006512,0.024706,0.095713,1.000000,0.000190,0.000088,-0.000155,0.509157,0.031208,-0.129537,-0.850297,14.646581,-4.521766,-118.755176
63510,0.692847,2.591290,9.551769,0.121185,0.035357,0.107755,0.041601,0.004477,-0.023976,0.006934,0.025892,0.095523,1.000000,0.000208,0.000022,-0.000120,0.509218,0.031344,-0.129706,-0.850230,14.671129,-4.519462,-118.745811
63511,0.769323,2.626548,9.514810,0.118342,-0.053464,0.087078,0.031102,0.008773,-0.025282,0.007701,0.026250,0.095152,1.000000,0.000156,0.000044,-0.000126,0.509130,0.031450,-0.129799,-0.850265,14.686991,-4.513123,-118.756431
63512,0.782638,2.520090,9.451818,0.031741,-0.031307,0.000480,0.025981,0.024573,-0.024944,0.007841,0.025188,0.094520,1.000000,0.000130,0.000123,-0.000125,0.509886,0.031674,-0.129668,-0.849823,14.682946,-4.496429,-118.652929
63513,0.751543,2.585127,9.479336,0.093335,-0.029515,0.041039,0.038009,0.038917,-0.024692,0.007537,0.025832,0.094797,1.000000,0.000190,0.000195,-0.000123,0.509819,0.031925,-0.129713,-0.849847,14.702344,-4.473462,-118.658760
63514,0.658028,2.614836,9.525251,0.150878,0.043960,0.085599,0.032257,0.048032,-0.023410,0.006606,0.026132,0.095255,1.000000,0.000161,0.000240,-0.000117,0.509475,0.032159,-0.129654,-0.850053,14.711712,-4.441289,-118.701304
63515,0.609868,2.623098,9.618899,0.159471,0.096831,0.174353,0.018564,0.045524,-0.021346,0.006123,0.026221,0.096190,1.000000,0.000093,0.000228,-0.000107,0.509430,0.032386,-0.129600,-0.850080,14.719724,-4.415138,-118.704275
63516,0.439550,2.619221,9.701085,0.219799,0.260139,0.239606,0.012223,0.021289,-0.017725,0.004408,0.026186,0.097012,1.000000,0.000061,0.000106,-0.000089,0.509297,0.032487,-0.129573,-0.850160,14.723556,-4.401380,-118.720629
63517,0.606263,2.580635,9.698016,0.106594,0.130452,0.239694,0.004733,-0.004128,-0.019367,0.006063,0.025803,0.096981,1.000000,0.000024,-0.000021,-0.000097,0.509231,0.032467,-0.129586,-0.850198,14.724111,-4.403029,-118.729744
63518,0.822319,2.485784,9.548853,-0.051167,-0.042632,0.088398,0.030642,-0.013798,-0.038259,0.008221,0.024842,0.095493,1.000000,0.000153,-0.000069,-0.000191,0.509255,0.032499,-0.129726,-0.850161,14.739805,-4.408601,-118.726402
63519,0.855300,2.483086,9.512382,-0.066588,-0.074419,0.055073,0.072214,-0.008595,-0.048911,0.008555,0.024794,0.095133,1.000000,0.000361,-0.000043,-0.000245,0.509049,0.032651,-0.130034,-0.850232,14.780335,-4.408408,-118.752586
63520,0.861395,2.501010,9.582478,-0.075026,-0.070758,0.127649,0.105883,-0.003576,-0.060808,0.008620,0.024957,0.095838,1.000000,0.000529,-0.000018,-0.000304,0.508902,0.032928,-0.130463,-0.850243,14.839998,-4.404193,-118.769703
63521,0.759600,2.671759,9.618580,0.102805,-0.046784,0.198287,0.124838,-0.004604,-0.070398,0.007603,0.026655,0.096203,1.000000,0.000624,-0.000023,-0.000352,0.508598,0.033245,-0.130980,-0.850333,14.911545,-4.398578,-118.807228
63522,0.697761,2.663479,9.664831,0.105899,0.024334,0.236100,0.117451,-0.013213,-0.081731,0.006982,0.026575,0.096664,1.000000,0.000587,-0.000066,-0.000409,0.508263,0.033519,-0.131456,-0.850450,14.976639,-4.394060,-118.849424
63523,0.626249,2.637340,9.739178,0.093730,0.118318,0.295553,0.110499,-0.031037,-0.097980,0.006260,0.026317,0.097407,1.000000,0.000552,-0.000155,-0.000490,0.507826,0.033705,-0.131974,-0.850623,15.041433,-4.398890,-118.906166
63524,0.688455,2.579012,9.673232,0.017405,0.084338,0.221717,0.113420,-0.055211,-0.114454,0.006873,0.025731,0.096749,1.000000,0.000567,-0.000276,-0.000572,0.507322,0.033818,-0.132541,-0.850831,15.107158,-4.412429,-118.972926
63525,0.767076,2.576385,9.540856,-0.005976,-0.000245,0.099631,0.107178,-0.065576,-0.136834,0.007657,0.025707,0.095425,1.000000,0.000536,-0.000328,-0.000684,0.506698,0.033874,-0.133126,-0.851109,15.172131,-4.430416,-119.056409
63526,0.812000,2.476636,9.399577,-0.095563,-0.013284,-0.058929,0.126222,-0.054335,-0.153703,0.008113,0.024701,0.094014,0.999999,0.000631,-0.000272,-0.000769,0.505923,0.034038,-0.133788,-0.851460,15.251788,-4.439658,-119.158587
63527,0.858063,2.703541,9.288839,0.084863,-0.170695,-0.102302,0.140642,-0.025970,-0.163617,0.008591,0.026963,0.092908,0.999999,0.000703,-0.000130,-0.000818,0.505204,0.034365,-0.134411,-0.851775,15.336650,-4.431483,-119.250973
63528,0.857130,2.936568,9.271840,0.272930,-0.275433,-0.056932,0.123119,0.007522,-0.181309,0.008601,0.029301,0.092736,0.999999,0.000616,0.000038,-0.000907,0.504396,0.034815,-0.134877,-0.852162,15.413187,-4.400474,-119.353081
63529,0.936797,2.628675,9.254403,-0.038454,-0.208790,-0.149023,0.099091,0.044989,-0.215649,0.009417,0.026231,0.092555,0.999999,0.000495,0.000225,-0.001078,0.503509,0.035374,-0.135134,-0.852623,15.475511,-4.344929,-119.463402
63530,0.850211,2.551406,9.337219,-0.094915,-0.085232,-0.096728,0.167289,0.066078,-0.248091,0.008565,0.025425,0.093391,0.999999,0.000836,0.000330,-0.001240,0.502625,0.036226,-0.135578,-0.853038,15.573135,-4.271623,-119.569660
63531,0.713575,2.710816,9.457071,0.059872,-0.017937,0.050879,0.213347,0.067894,-0.295452,0.007208,0.026997,0.094597,0.999998,0.001067,0.000339,-0.001477,0.501392,0.037225,-0.136249,-0.853614,15.703618,-4.190740,-119.720356
63532,0.717989,2.874368,9.437983,0.172662,-0.102182,0.077343,0.227691,0.057290,-0.354152,0.007258,0.028623,0.094410,0.999998,0.001138,0.000286,-0.001771,0.499978,0.038263,-0.136972,-0.854282,15.842063,-4.105420,-119.893909
63533,0.707688,2.627991,9.396052,-0.051444,0.011683,-0.030556,0.250750,0.056813,-0.414915,0.007158,0.026147,0.093991,0.999997,0.001254,0.000284,-0.002075,0.498215,0.039389,-0.137807,-0.855126,15.998279,-4.011128,-120.111893
63534,0.577825,2.265779,9.300349,-0.305753,0.275527,-0.231737,0.344224,0.049253,-0.464987,0.005854,0.022484,0.093041,0.999996,0.001721,0.000246,-0.002325,0.496266,0.040754,-0.139036,-0.855996,16.208189,-3.912118,-120.351010
63535,0.576670,2.505972,9.226336,-0.132210,0.156518,-0.236909,0.477344,0.046351,-0.514725,0.005852,0.024824,0.092321,0.999994,0.002387,0.000232,-0.002574,0.494015,0.042468,-0.140844,-0.856918,16.497236,-3.805838,-120.624905
63536,0.457986,2.977388,9.263609,0.262546,0.050862,-0.075270,0.477126,0.066455,-0.547971,0.004692,0.029540,0.092705,0.999993,0.002386,0.000332,-0.002740,0.491675,0.044294,-0.142581,-0.857884,16.785482,-3.681423,-120.907126
63537,0.362995,3.126789,9.330565,0.370241,0.076807,0.027274,0.403121,0.095326,-0.566685,0.003763,0.031069,0.093367,0.999994,0.002016,0.000477,-0.002833,0.489240,0.046071,-0.143936,-0.858955,17.032019,-3.536989,-121.200254
63538,-0.064050,3.254817,9.461699,0.621010,0.404209,0.165913,0.380198,0.090987,-0.564928,-0.000506,0.032370,0.094679,0.999994,0.001901,0.000455,-0.002825,0.486835,0.047776,-0.145197,-0.860016,17.264455,-3.393800,-121.488985
63539,-0.206837,3.228113,9.519962,0.618987,0.548831,0.207726,0.331423,0.031044,-0.535093,-0.001967,0.032129,0.095253,0.999995,0.001657,0.000155,-0.002675,0.484495,0.049077,-0.146404,-0.861058,17.468099,-3.287590,-121.774570
63540,0.012514,3.008975,9.276443,0.342224,0.423704,-0.075659,0.364685,-0.021533,-0.483904,0.000188,0.029920,0.092819,0.999995,0.001823,-0.000108,-0.002420,0.482328,0.050201,-0.147891,-0.861956,17.689345,-3.217252,-122.040322
63541,0.198966,3.274546,8.925041,0.503554,0.071997,-0.317441,0.393425,-0.027712,-0.460330,0.002052,0.032565,0.089315,0.999995,0.001967,-0.000139,-0.002302,0.480243,0.051343,-0.149523,-0.862771,17.925997,-3.154000,-122.294497
63542,0.353288,3.367671,8.547865,0.546960,-0.177059,-0.636556,0.336735,0.030496,-0.466369,0.003624,0.033524,0.085535,0.999996,0.001684,0.000152,-0.002332,0.478179,0.052611,-0.150769,-0.863623,18.129950,-3.056341,-122.542039
63543,0.473769,3.135948,8.251470,0.328607,-0.229527,-0.981798,0.250502,0.136042,-0.521985,0.004875,0.031243,0.082551,0.999996,0.001253,0.000680,-0.002610,0.475980,0.054163,-0.151374,-0.864636,18.283969,-2.891157,-122.799964
63544,0.637091,2.617375,8.000806,-0.155031,-0.174417,-1.373800,0.221994,0.276912,-0.588389,0.006558,0.026066,0.080028,0.999994,0.001110,0.001385,-0.002942,0.473593,0.056313,-0.151504,-0.865786,18.421992,-2.636076,-123.069368
63545,0.628343,2.504474,8.095121,-0.307648,-0.113831,-1.322086,0.286698,0.423911,-0.639416,0.006535,0.024908,0.080973,0.999992,0.001433,0.002120,-0.003197,0.471082,0.059284,-0.151546,-0.866949,18.594909,-2.291774,-123.337766
63546,0.578275,2.855568,8.483496,-0.150895,-0.203285,-0.846427,0.316872,0.548462,-0.665406,0.006110,0.028401,0.084864,0.999989,0.001584,0.002742,-0.003327,0.468526,0.062891,-0.151418,-0.868102,18.783703,-1.873653,-123.597305
63547,-0.129127,3.416366,9.231853,0.435584,0.204143,0.020082,0.247061,0.614707,-0.667594,-0.000894,0.034053,0.092364,0.999989,0.001235,0.003074,-0.003338,0.466031,0.066615,-0.150825,-0.869269,18.929443,-1.419058,-123.843406
63548,-0.766576,4.033575,10.296253,0.951284,0.564164,1.216655,0.017544,0.542240,-0.674370,-0.007251,0.040352,0.102986,0.999991,0.000088,0.002711,-0.003372,0.463510,0.069500,-0.149401,-0.870636,18.942913,-1.001510,-124.107090
63549,-0.614465,3.389779,10.654106,0.239137,0.779047,1.354840,-0.215818,0.365060,-0.658870,-0.005838,0.034032,0.106515,0.999992,-0.001079,0.001825,-0.003294,0.461007,0.071054,-0.147371,-0.872184,18.820597,-0.683764,-124.394481
63550,-0.241924,2.571044,10.468052,-0.569130,0.814788,0.923277,-0.244442,0.211206,-0.623300,-0.002228,0.025845,0.104651,0.999994,-0.001222,0.001056,-0.003116,0.458538,0.071852,-0.145585,-0.873719,18.681388,-0.455867,-124.693019
63551,0.418848,2.417654,10.189805,-0.994248,0.264442,0.617753,-0.129113,0.103044,-0.607768,0.004315,0.024229,0.101880,0.999995,-0.000646,0.000515,-0.003039,0.456023,0.072421,-0.144552,-0.875159,18.606540,-0.290922,-125.001952
63552,1.015095,2.611760,9.956183,-1.133487,-0.397761,0.460297,-0.079479,0.097223,-0.618173,0.010280,0.026126,0.099546,0.999995,-0.000397,0.000486,-0.003091,0.453425,0.073092,-0.143745,-0.876585,18.559781,-0.126742,-125.319037
63553,0.980249,2.825195,9.917368,-0.952831,-0.518112,0.488787,-0.061935,0.145745,-0.631428,0.009964,0.028251,0.099158,0.999995,-0.000310,0.000729,-0.003157,0.450803,0.074018,-0.142897,-0.877997,18.521579,0.065153,-125.633334
63554,0.598636,3.037150,10.163706,-0.648531,-0.310344,0.787621,-0.078543,0.194789,-0.617097,0.006179,0.030393,0.101619,0.999995,-0.000393,0.000974,-0.003085,0.448274,0.075115,-0.141871,-0.879364,18.473153,0.281443,-125.931973
63555,-0.438619,3.249795,10.932314,-0.089610,0.515518,1.588854,-0.097919,0.159686,-0.556363,-0.004208,0.032563,0.109311,0.999996,-0.000490,0.000798,-0.002782,0.445997,0.075965,-0.140859,-0.880611,18.412394,0.466772,-126.203276
63556,-0.990236,3.393906,11.424632,0.219103,0.940157,2.107440,-0.129427,-0.046638,-0.450478,-0.009852,0.034035,0.114222,0.999997,-0.000647,-0.000233,-0.002252,0.444043,0.075766,-0.140207,-0.881718,18.333447,0.521012,-126.455299
63557,-0.578950,3.315968,11.190676,-0.005151,0.604193,1.857656,-0.137800,-0.274915,-0.320574,-0.005890,0.033246,0.111876,0.999998,-0.000689,-0.001375,-0.001603,0.442509,0.074447,-0.140074,-0.882623,18.249776,0.426798,-126.676973
63558,0.204931,3.385293,10.735297,-0.273411,-0.134009,1.441466,-0.141333,-0.401178,-0.201233,0.001868,0.033927,0.107333,0.999997,-0.000707,-0.002006,-0.001006,0.441405,0.072483,-0.140247,-0.883311,18.165010,0.242879,-126.857094
63559,0.712671,3.022792,10.565320,-0.777840,-0.340196,1.166850,-0.071728,-0.402210,-0.052578,0.006922,0.030264,0.105656,0.999998,-0.000359,-0.002011,-0.000263,0.440937,0.070559,-0.140784,-0.883615,18.120795,0.030968,-126.955311
63560,-0.138012,2.916641,10.947809,-0.416832,0.514814,1.498426,0.168960,-0.484875,0.168888,-0.001670,0.029073,0.109499,0.999996,0.000845,-0.002424,0.000844,0.441295,0.068648,-0.142642,-0.883289,18.214775,-0.264886,-126.948573
63561,0.001767,3.715734,11.013191,0.114524,0.034567,1.809791,0.280053,-0.679620,0.381259,-0.000427,0.037003,0.110183,0.999991,0.001400,-0.003398,0.001906,0.442416,0.065966,-0.145494,-0.882467,18.371611,-0.705471,-126.861223
63562,0.677113,4.205091,10.475671,0.250760,-0.795105,1.464941,0.218417,-0.788473,0.541752,0.006244,0.041954,0.104828,0.999988,0.001092,-0.003942,0.002709,0.444170,0.062552,-0.148362,-0.881356,18.491264,-1.233904,-126.708136
63563,1.158923,4.454345,10.079227,0.305599,-1.315115,1.185100,-0.033192,-0.758260,0.557689,0.011083,0.044592,0.100828,0.999989,-0.000166,-0.003791,0.002788,0.446092,0.058696,-0.150057,-0.880363,18.465000,-1.749541,-126.540560
63564,1.083645,3.666743,9.781362,-0.111158,-0.815395,0.657098,-0.283093,-0.684598,0.524269,0.010405,0.036834,0.097798,0.999990,-0.001415,-0.003423,0.002621,0.447979,0.054634,-0.150476,-0.879595,18.294489,-2.218357,-126.377585
63565,0.790929,2.389581,9.743822,-0.842458,0.165147,0.214287,-0.251028,-0.627620,0.483799,0.007545,0.024037,0.097432,0.999991,-0.001255,-0.003138,0.002419,0.449720,0.050921,-0.150894,-0.878857,18.141272,-2.648892,-126.224400
63566,-0.652933,2.311097,10.539492,-0.170857,1.602622,0.876099,-0.022080,-0.731022,0.451838,-0.006967,0.023107,0.105367,0.999991,-0.000110,-0.003655,0.002259,0.451172,0.047294,-0.152540,-0.878031,18.119982,-3.129490,-126.106869
63567,-0.585967,2.779507,10.642358,0.187938,1.401091,1.111106,0.097659,-0.992568,0.412799,-0.006445,0.027730,0.106406,0.999985,0.000488,-0.004963,0.002064,0.452218,0.042814,-0.155288,-0.877241,18.170062,-3.745863,-126.056961
63568,0.655159,2.988366,9.905863,-0.157373,0.216365,0.551331,0.093588,-1.113546,0.342335,0.005949,0.029848,0.099107,0.999983,0.000468,-0.005568,0.001712,0.452842,0.037852,-0.158269,-0.876614,18.221505,-4.414936,-126.068382
63569,1.105408,2.886670,9.384800,-0.330629,-0.119359,0.061758,0.079189,-1.089471,0.267739,0.010504,0.028844,0.093918,0.999984,0.000396,-0.005447,0.001339,0.453151,0.033017,-0.161116,-0.876131,18.267936,-5.058103,-126.116116
63570,0.782207,2.863040,9.389065,-0.105886,0.248464,0.030559,0.147698,-1.041691,0.230966,0.007300,0.028570,0.093951,0.999985,0.000738,-0.005208,0.001155,0.453307,0.028578,-0.164141,-0.875645,18.355162,-5.668051,-126.176691
63571,0.267533,3.273336,9.619710,0.521549,0.600919,0.320966,0.217670,-1.081210,0.226894,0.002118,0.032631,0.096245,0.999984,0.001088,-0.005406,0.001134,0.453395,0.024124,-0.167559,-0.875086,18.484359,-6.299185,-126.247319
63572,0.128224,3.557646,9.705191,0.862945,0.689056,0.465606,0.165907,-1.154262,0.230187,0.000681,0.035497,0.097086,0.999982,0.000830,-0.005771,0.001151,0.453421,0.019233,-0.170907,-0.874546,18.586041,-6.969802,-126.331600
63573,0.472595,3.524344,9.376986,0.758921,0.444850,0.177161,0.071020,-1.252262,0.208090,0.004102,0.035215,0.093809,0.999980,0.000355,-0.006261,0.001040,0.453264,0.013713,-0.174058,-0.874110,18.638496,-7.690136,-126.446392
63574,1.490955,3.190548,8.535104,0.116738,-0.340026,-0.586621,-0.050428,-1.214819,0.143903,0.014368,0.031937,0.085431,0.999981,-0.000252,-0.006074,0.000720,0.452842,0.008141,-0.176577,-0.873893,18.626698,-8.377479,-126.590882
63575,1.960499,2.874863,7.953425,-0.246989,-0.643051,-1.158775,-0.088245,-1.061837,0.066301,0.019173,0.028790,0.079624,0.999986,-0.000441,-0.005309,0.000332,0.452210,0.003216,-0.178580,-0.873845,18.597053,-8.968486,-126.748704
63576,1.831861,2.844319,7.906264,-0.137985,-0.476907,-1.227352,-0.065551,-0.869446,0.014169,0.017973,0.028470,0.079132,0.999990,-0.000328,-0.004347,0.000071,0.451504,-0.000766,-0.180239,-0.873875,18.580748,-9.444789,-126.900500
63577,1.351802,3.034711,8.128556,0.300189,-0.074327,-1.036908,0.004345,-0.757388,0.006176,0.013209,0.030346,0.081337,0.999993,0.000022,-0.003787,0.000031,0.450864,-0.004099,-0.181951,-0.873842,18.602949,-9.859534,-127.035255
63578,1.471840,3.500169,8.148810,0.625861,-0.357045,-0.851597,0.037360,-0.681153,0.019649,0.014437,0.034988,0.081544,0.999994,0.000187,-0.003406,0.000098,0.450339,-0.007031,-0.183630,-0.873742,18.641334,-10.234562,-127.149674
63579,1.647730,3.704453,7.951903,0.741165,-0.622243,-0.939467,0.011567,-0.579729,0.026116,0.016242,0.037042,0.079568,0.999996,0.000058,-0.002899,0.000131,0.449938,-0.009589,-0.184968,-0.873642,18.661571,-10.556375,-127.241075
63580,1.894351,3.305731,7.668918,0.344716,-0.662516,-1.282104,0.043964,-0.448853,0.060696,0.018761,0.033046,0.076739,0.999997,0.000220,-0.002244,0.000303,0.449799,-0.011529,-0.186149,-0.873439,18.693088,-10.812735,-127.290226
63581,1.906438,3.281664,7.558135,0.347251,-0.664662,-1.388508,0.180929,-0.298534,0.123519,0.018931,0.032760,0.075639,0.999998,0.000905,-0.001493,0.000618,0.450089,-0.012568,-0.187587,-0.872968,18.791133,-10.999767,-127.275759
63582,3.423477,4.314429,6.655746,0.395173,-2.667181,-1.605170,0.395020,-0.073793,0.310183,0.034143,0.043066,0.066655,0.999997,0.001975,-0.000369,0.001551,0.451406,-0.012315,-0.189442,-0.871890,18.984485,-11.098978,-127.117284
63583,4.449048,4.402568,5.735468,-0.001312,-3.803102,-2.222657,0.777093,0.362631,0.985239,0.044378,0.044021,0.057445,0.999979,0.003885,0.001813,0.004926,0.456101,-0.009940,-0.191930,-0.868928,19.308496,-11.090176,-126.502241
63584,3.584082,7.981123,6.087905,3.320419,-4.758565,-0.871987,1.287023,0.758941,1.810663,0.035351,0.079739,0.061258,0.999931,0.006435,0.003795,0.009053,0.464740,-0.005469,-0.195680,-0.863537,19.824200,-11.030171,-125.356579
63585,4.115380,10.870235,6.408593,5.387365,-6.355661,0.519098,0.860121,1.221007,2.755562,0.040046,0.108983,0.064307,0.999877,0.004300,0.006105,0.013777,0.477816,-0.000922,-0.196441,-0.856213,19.979783,-10.912166,-123.599699
63586,3.192643,8.482421,6.104672,4.166592,-4.431448,-0.734782,0.654039,1.661364,3.871500,0.030786,0.085228,0.061066,0.999773,0.003270,0.008306,0.019356,0.495920,0.003928,-0.195219,-0.846131,19.892634,-10.776567,-121.145791
63587,3.359390,7.745021,6.124484,3.666793,-4.101502,-0.952292,0.550456,2.102859,4.667377,0.032420,0.078048,0.061114,0.999669,0.002752,0.010513,0.023334,0.517559,0.009603,-0.192346,-0.833693,19.654122,-10.549747,-118.168131
63588,3.137305,4.392865,5.634104,1.188196,-2.681699,-2.582372,0.539353,2.670341,5.216719,0.030965,0.044589,0.056045,0.999567,0.002696,0.013350,0.026080,0.541616,0.017085,-0.187878,-0.819184,19.357795,-10.109198,-114.785891
63589,2.190552,3.152661,6.027894,0.505549,-1.318045,-2.806974,0.961978,3.138709,5.412819,0.021991,0.031832,0.060087,0.999499,0.004809,0.015691,0.027060,0.566395,0.027422,-0.183674,-0.802937,19.298985,-9.440811,-111.210142
63590,1.757366,2.123876,5.416238,-0.075792,-0.852432,-3.795908,1.087848,3.607960,5.311990,0.017981,0.021419,0.053957,0.999470,0.005438,0.018037,0.026555,0.590579,0.040066,-0.178489,-0.785972,19.362449,-8.501935,-107.610606
63591,1.306201,1.020140,5.294072,-0.932661,-0.323401,-4.354020,1.485076,4.160840,4.940207,0.013910,0.010146,0.052733,0.999451,0.007424,0.020800,0.024697,0.613099,0.056339,-0.172921,-0.768788,19.732385,-7.204361,-104.110733
63592,-0.815478,1.683530,6.380769,-0.254170,1.637050,-3.373507,1.652756,4.558235,4.420084,-0.007058,0.016142,0.064112,0.999462,0.008262,0.022787,0.022096,0.633234,0.075042,-0.166489,-0.752107,20.312726,-5.622551,-100.816774
63593,-2.690583,1.526698,6.966091,-0.492016,3.389837,-3.004526,1.806366,4.685412,3.923353,-0.025547,0.014123,0.070401,0.999492,0.009030,0.023423,0.019613,0.650904,0.095044,-0.159828,-0.736034,21.090512,-3.907983,-97.752518
63594,-3.317027,1.943137,7.292899,-0.454688,3.781850,-2.502328,1.911298,4.605746,3.344169,-0.031788,0.018189,0.073850,0.999549,0.009555,0.023025,0.016718,0.665692,0.115466,-0.153423,-0.721098,22.040594,-2.162944,-94.997048
63595,-3.204842,2.773129,7.295804,-0.006704,3.380583,-2.082933,1.743355,4.567138,2.681592,-0.030730,0.026672,0.073905,0.999611,0.008716,0.022833,0.013406,0.677616,0.135601,-0.145991,-0.707909,22.983977,-0.336052,-92.573359
63598,-5.193492,1.488811,8.681703,-2.158172,4.806165,-1.057661,1.141773,4.234058,1.241741,-0.139577,0.037386,0.270346,0.997664,0.017113,0.063461,0.018612,0.696197,0.189002,-0.117305,-0.682516,25.163330,5.431679,-87.649812
63600,-5.713005,1.231386,8.914871,-2.980568,4.465883,-0.605905,0.996507,2.976376,-0.757335,-0.108701,0.023665,0.181827,0.999479,0.009963,0.029759,-0.007572,0.692293,0.216993,-0.101915,-0.680630,26.391416,8.874663,-86.941764
63602,-2.838602,3.507615,6.778690,0.013794,1.387199,-1.789827,0.670923,2.534215,-1.696447,-0.052115,0.070145,0.137405,0.999513,0.006708,0.025338,-0.016962,0.681568,0.240459,-0.085209,-0.685846,27.076001,12.338394,-87.376805
63610,-4.615112,3.025701,8.689742,-1.190598,1.219546,0.310729,-0.131099,2.664480,-1.937250,-0.272541,0.269478,0.726353,0.991317,-0.005229,0.106271,-0.077266,0.633143,0.314073,0.010141,-0.707380,25.533715,27.205228,-90.062980
63613,-9.508272,1.520887,13.694027,-4.091903,1.944087,6.297610,-0.529502,1.538945,-3.375531,-0.272774,0.062949,0.416761,0.998421,-0.007938,0.023072,-0.050606,0.598635,0.324326,0.046316,-0.730961,22.206661,31.977914,-94.930013
63615,-9.378804,1.463250,15.662021,-4.010583,0.356258,8.050359,-0.987153,-1.052899,-4.008349,-0.189401,0.039911,0.310893,0.999093,-0.009869,-0.010526,-0.040071,0.572537,0.308530,0.060241,-0.757220,18.087497,32.427406,-100.513904
63617,-6.518415,0.364715,12.933305,-3.468133,-0.274328,4.249128,0.176309,-2.221137,-4.455673,-0.135583,0.012807,0.255712,0.998759,0.001762,-0.022202,-0.044538,0.538954,0.289609,0.059914,-0.788711,14.778403,31.427380,-107.128475
63622,-6.654341,3.609928,11.390855,1.076431,-0.440440,3.808470,1.190706,-2.968047,-4.744284,-0.350704,0.204876,0.549777,0.989788,0.029666,-0.073948,-0.118203,0.436219,0.237107,0.030360,-0.867509,9.875125,25.968124,-124.327420
63623,-1.195943,7.006027,6.883617,3.321670,-5.241801,-2.106308,1.203398,-2.812366,-3.609250,-0.011668,0.069857,0.069091,0.999720,0.006016,-0.014061,-0.018045,0.419504,0.226860,0.023389,-0.878638,9.456510,24.725947,-126.878685
63624,0.871964,8.787670,6.017829,3.736264,-7.737206,-3.458845,0.928192,-1.962649,-2.618953,0.009273,0.087477,0.060674,0.999855,0.004641,-0.009813,-0.013094,0.407142,0.219824,0.018173,-0.886331,9.235839,23.858051,-128.700750
63625,0.676158,9.266079,6.356388,3.942123,-8.034734,-2.984599,0.505504,-1.031482,-1.633652,0.007189,0.092442,0.063834,0.999950,0.002527,-0.005157,-0.008168,0.399460,0.216089,0.015661,-0.890782,9.075369,23.421226,-129.808552
63627,-2.616439,5.959788,8.022067,2.827603,-3.839239,-0.648455,0.048813,-0.167052,-0.541062,-0.051951,0.119399,0.160413,0.999984,0.000488,-0.001671,-0.005411,0.394609,0.214665,0.015751,-0.893283,8.850123,23.324922,-130.502754
63629,-6.806986,1.997231,11.096877,1.395544,1.210709,3.227664,0.044890,-0.331076,-0.152290,-0.136813,0.040053,0.221503,0.999993,0.000449,-0.003311,-0.001523,0.393270,0.211806,0.014391,-0.894578,8.799576,22.971525,-130.746585
63630,-9.292893,-0.173409,12.645197,0.883125,4.254785,5.267150,0.425185,-1.437001,-0.301364,-0.093837,-0.001861,0.125776,0.999971,0.002126,-0.007185,-0.001507,0.391595,0.206163,0.009991,-0.896689,8.917932,22.182152,-131.065409
63631,-8.253508,0.448094,12.930989,0.770422,3.264312,5.163023,0.547531,-2.319527,-0.444147,-0.084018,0.004314,0.128353,0.999927,0.002738,-0.011597,-0.002221,0.389154,0.196777,0.003465,-0.899903,9.048585,20.907285,-131.556038
63632,-6.984741,-0.226955,12.049417,0.069379,3.286304,3.722679,0.730910,-3.091952,-0.479183,-0.071705,-0.002537,0.119386,0.999871,0.003654,-0.015459,-0.002396,0.386308,0.184233,-0.005353,-0.903768,9.263202,19.200287,-132.142140
63633,-5.789576,0.327568,11.903248,0.030594,2.429713,3.202321,0.795001,-3.586676,-0.501758,-0.060010,0.002954,0.117981,0.999828,0.003975,-0.017932,-0.002509,0.383172,0.169522,-0.015396,-0.907857,9.513088,17.217753,-132.790953
63634,-6.618765,0.138876,11.453855,0.899001,3.584859,2.888992,1.039723,-4.181414,-0.454522,-0.068560,0.000952,0.113127,0.999765,0.005198,-0.020905,-0.002272,0.379839,0.152510,-0.027714,-0.911973,9.915496,14.899007,-133.476560
63635,-3.749126,1.403098,10.202200,0.537548,1.183834,1.068344,1.377927,-4.688376,-0.253494,-0.039853,0.013381,0.101200,0.999701,0.006889,-0.023440,-0.001267,0.376895,0.133718,-0.042683,-0.915559,10.552897,12.279344,-134.112019
63636,-0.400965,2.193471,8.259232,-0.441797,-1.275783,-1.365851,1.756327,-4.780482,0.245510,-0.006011,0.021202,0.082653,0.999675,0.008781,-0.023900,0.001227,0.375721,0.115032,-0.059852,-0.917616,11.481322,9.563127,-134.502741
63637,1.952115,3.689364,6.916171,-0.571937,-3.658351,-2.634191,2.215071,-4.513422,1.049553,0.017757,0.036218,0.069979,0.999670,0.011074,-0.022565,0.005247,0.377812,0.098112,-0.079060,-0.917268,12.754674,6.906527,-134.454763
63638,2.172162,4.906839,6.670802,0.273279,-4.329976,-2.433272,2.494784,-4.015357,1.892297,0.019908,0.048422,0.067727,0.999676,0.012473,-0.020075,0.009460,0.383578,0.083610,-0.098963,-0.914376,14.232109,4.415054,-133.932773
63639,1.465996,6.407185,6.859990,1.871481,-4.443089,-1.627423,2.513117,-3.485876,2.506802,0.012655,0.063368,0.069631,0.999691,0.012564,-0.017428,0.012533,0.392166,0.071204,-0.118138,-0.909494,15.719177,2.112341,-133.057732
63640,1.818468,7.086794,7.494580,2.111991,-4.634413,-0.661719,2.210806,-2.851779,2.980035,0.016056,0.070282,0.075964,0.999726,0.011053,-0.014258,0.014899,0.403157,0.060769,-0.134796,-0.903106,17.005852,0.061476,-131.877719
63641,0.373974,5.595428,7.586211,2.138840,-2.177534,-0.886990,2.000558,-2.436870,3.499600,0.001840,0.055235,0.076447,0.999723,0.010002,-0.012183,0.017496,0.416618,0.051398,-0.149750,-0.895188,18.125717,-1.877124,-130.385179
63642,0.530113,4.741671,7.581229,1.530797,-1.391088,-1.097861,1.992645,-2.189864,3.983466,0.003532,0.046740,0.076325,0.999692,0.009962,-0.010948,0.019915,0.432180,0.042726,-0.164203,-0.885682,19.178734,-3.798422,-128.620667
63643,1.296731,4.473086,6.945652,1.098780,-1.642127,-1.687559,1.990960,-1.905049,4.324559,0.011341,0.044293,0.070012,0.999671,0.009954,-0.009524,0.021620,0.449218,0.035002,-0.177989,-0.874813,20.153906,-5.662635,-126.646025
63644,4.089030,6.062632,5.938461,1.062893,-4.690318,-1.713351,1.741316,-1.329606,4.485449,0.039127,0.060995,0.060179,0.999689,0.008706,-0.006647,0.022425,0.467216,0.029072,-0.189322,-0.863146,20.907929,-7.280245,-124.492135
63645,4.476740,4.319444,5.613903,-0.244135,-4.028985,-2.469936,1.271035,-0.474958,4.664380,0.043616,0.043862,0.056521,0.999705,0.006355,-0.002375,0.023320,0.486591,0.025540,-0.196523,-0.850856,21.301154,-8.498973,-122.071979
63646,2.294247,4.154780,6.229480,0.786650,-1.780824,-2.227250,1.236789,0.161035,4.741765,0.022005,0.041691,0.062534,0.999700,0.006183,0.000805,0.023706,0.506624,0.024538,-0.201951,-0.837822,21.605659,-9.410646,-119.477530
63647,1.577644,3.003670,6.469923,0.190738,-0.498685,-2.526747,0.954903,0.601416,4.662760,0.015270,0.030087,0.064796,0.999712,0.004774,0.003007,0.023312,0.526518,0.024732,-0.204927,-0.824726,21.701301,-10.078691,-116.827087
63648,1.907677,2.128887,6.155634,-0.581411,-0.514107,-3.070231,0.966396,0.994908,4.503258,0.018902,0.021418,0.061565,0.999722,0.004832,0.004974,0.022514,0.545846,0.026726,-0.206809,-0.811522,21.781077,-10.509186,-114.176323
63649,1.906025,1.296539,5.718669,-1.167841,-0.385912,-3.770812,1.139983,1.423164,4.341315,0.019184,0.013055,0.057125,0.999723,0.005699,0.007115,0.021705,0.564645,0.031086,-0.208060,-0.798073,21.942391,-10.681086,-111.516826
63650,1.137801,2.244924,5.783251,-0.081142,0.059573,-3.506341,1.416672,1.797224,4.115638,0.011438,0.022274,0.057888,0.999723,0.007083,0.008985,0.020576,0.582568,0.037932,-0.209238,-0.784471,22.269743,-10.619039,-108.898872
63651,0.349122,2.348722,5.891953,0.170889,0.796471,-3.512737,1.414078,2.091557,3.863066,0.003659,0.023140,0.059046,0.999734,0.007070,0.010457,0.019314,0.599501,0.046172,-0.209358,-0.771127,22.613319,-10.358751,-106.351102
63652,-0.274585,2.535574,5.896386,0.415829,1.338449,-3.543198,1.424493,2.266390,3.462521,-0.002510,0.024890,0.059172,0.999761,0.007122,0.011331,0.017311,0.614759,0.055508,-0.208823,-0.758541,23.011233,-9.935607,-103.981283
63653,-0.223868,2.631834,5.870643,0.396427,1.237288,-3.507761,1.184996,2.465653,2.897484,-0.001891,0.025941,0.058886,0.999802,0.005925,0.012327,0.014486,0.627888,0.065434,-0.206491,-0.747554,23.334332,-9.292535,-101.867546
63654,-0.985645,2.014650,5.963256,-0.150254,2.006262,-3.767746,1.027714,2.608952,2.326949,-0.009308,0.019729,0.059858,0.999834,0.005138,0.013044,0.011634,0.638846,0.075963,-0.202886,-0.738202,23.638181,-8.457365,-100.026534
63655,-1.466902,1.649832,6.047644,-0.549580,2.433959,-3.878102,1.036490,2.587238,1.829759,-0.014033,0.016054,0.060745,0.999861,0.005182,0.012936,0.009148,0.647758,0.086926,-0.199106,-0.730212,24.010214,-7.527208,-98.451510
63656,-0.722068,1.611367,5.640245,-0.648633,1.526636,-4.140212,1.192245,2.626601,1.443677,-0.006593,0.015728,0.056586,0.999870,0.005961,0.013132,0.007218,0.655051,0.098894,-0.195567,-0.723106,24.523112,-6.499266,-97.068030
63657,-0.050428,3.292270,5.492671,0.752992,0.624820,-3.484039,1.412999,2.815684,1.158637,0.000082,0.032533,0.055159,0.999859,0.007065,0.014078,0.005793,0.661219,0.112524,-0.191992,-0.716426,25.197175,-5.317058,-95.778774
63658,-0.197611,5.056666,5.610613,2.206565,0.589297,-2.610635,1.350532,3.082952,1.062718,-0.001375,0.050178,0.056470,0.999844,0.006752,0.015414,0.005313,0.667132,0.126962,-0.187218,-0.709764,25.862894,-3.989441,-94.463207
63659,-0.668108,6.759346,6.185800,3.413268,0.931460,-1.334563,1.077922,3.315919,1.083351,-0.006015,0.067225,0.062324,0.999833,0.005389,0.016579,0.005416,0.673303,0.141259,-0.180634,-0.702909,26.397827,-2.559612,-93.065136
63660,-1.490720,6.839594,6.961004,3.081305,1.660699,-0.582171,0.533306,3.454356,1.142172,-0.014090,0.068128,0.070040,0.999831,0.002666,0.017271,0.005711,0.679951,0.154110,-0.171674,-0.696021,26.655966,-1.084833,-91.595310
63661,-2.577718,4.900079,7.834339,0.900571,2.622856,-0.629149,0.104920,3.412082,1.187767,-0.024726,0.048811,0.078797,0.999837,0.000525,0.017059,0.005939,0.686839,0.165265,-0.161322,-0.689140,26.703735,0.353930,-90.107647
63662,-3.625309,1.739078,7.792048,-1.998598,3.468156,-2.011728,0.348689,3.139573,1.157658,-0.035123,0.017049,0.078508,0.999859,0.001743,0.015697,0.005788,0.692975,0.176300,-0.152697,-0.682193,26.927946,1.656701,-88.704910
63663,-3.303079,1.571775,8.141293,-2.425089,2.908932,-1.731060,0.970994,2.813196,0.956836,-0.031954,0.015166,0.081942,0.999878,0.004855,0.014065,0.004784,0.697465,0.188477,-0.147083,-0.675563,27.529596,2.836533,-87.477261
63664,-2.638411,2.401718,8.214824,-1.837847,2.044132,-1.289107,1.334031,2.525313,0.669856,-0.025422,0.023381,0.082631,0.999892,0.006670,0.012626,0.003349,0.700257,0.201125,-0.143410,-0.669793,28.353233,3.932268,-86.458752
63665,-1.769227,4.438711,8.193053,-0.127105,1.028549,-0.385096,1.428934,2.371999,0.312487,-0.016785,0.043773,0.082447,0.999903,0.007144,0.011860,0.001562,0.701519,0.213798,-0.140188,-0.665214,29.232898,5.034426,-85.643090
63666,-1.518497,5.544243,8.317494,0.673980,0.592732,0.257824,1.002680,2.369595,0.070795,-0.014215,0.055019,0.083624,0.999917,0.005013,0.011848,0.000354,0.702291,0.225109,-0.135283,-0.661673,29.875564,6.193131,-84.934764
63667,-1.466329,4.711168,8.060890,0.002625,0.351275,-0.368327,0.594739,2.455461,-0.026271,-0.013665,0.046873,0.080920,0.999920,0.002974,0.012277,-0.000131,0.703160,0.235291,-0.128587,-0.658536,30.296282,7.415343,-84.235983
63668,-1.951939,3.870619,8.160390,-0.873297,0.582505,-0.632408,0.535165,2.535892,-0.084764,-0.018465,0.038495,0.081946,0.999916,0.002676,0.012679,-0.000424,0.703829,0.245538,-0.121332,-0.655450,30.700342,8.689654,-83.533592
63669,-1.993198,1.777988,7.573338,-2.437800,0.474794,-2.176106,0.543617,2.621765,-0.243528,-0.018915,0.017597,0.076034,0.999910,0.002718,0.013108,-0.001218,0.703911,0.256140,-0.113576,-0.652689,31.116799,10.047473,-82.871281
63670,-1.276900,3.532841,8.338757,-1.254488,-0.603989,-0.773822,0.686480,2.868548,-0.956765,-0.011402,0.035098,0.083678,0.999880,0.003432,0.014342,-0.004784,0.701464,0.268410,-0.104487,-0.651910,31.583231,11.734177,-82.476845
63671,-4.688694,4.342369,10.121188,-1.886287,1.957265,1.843957,0.089039,2.872591,-1.393127,-0.045123,0.043697,0.101888,0.999872,0.000445,0.014362,-0.006965,0.698236,0.278750,-0.092819,-0.652801,31.672902,13.551449,-82.287240
63672,-5.701461,3.805877,10.547055,-2.646165,2.455446,2.236733,-0.138000,2.595470,-1.547147,-0.055343,0.038564,0.106170,0.999886,-0.000690,0.012977,-0.007735,0.694517,0.287406,-0.081140,-0.654569,31.598615,15.280663,-82.260249
63673,-6.306541,3.545982,11.318386,-3.251296,2.471809,2.984249,-0.308357,2.158577,-1.463451,-0.061577,0.036089,0.113798,0.999914,-0.001542,0.010793,-0.007317,0.691008,0.293941,-0.070525,-0.656606,31.399781,16.770580,-82.330140
63674,-3.286828,1.344228,9.494692,-3.809740,-0.015995,-0.419048,-0.270615,1.924890,-1.878395,-0.031824,0.013873,0.095238,0.999909,-0.001353,0.009624,-0.009392,0.685873,0.299942,-0.060208,-0.660294,31.132519,18.270849,-82.692950
63675,-3.201540,2.529128,10.046440,-2.933986,-0.589291,0.609118,-0.479237,1.982901,-2.729361,-0.030666,0.025957,0.100711,0.999855,-0.002396,0.009914,-0.013646,0.678102,0.305596,-0.047724,-0.666717,30.591692,20.045620,-83.495342
63676,-5.866535,2.287700,9.504925,-3.036359,1.824113,1.024155,-0.342847,1.946338,-2.816499,-0.057406,0.023855,0.095572,0.999852,-0.001714,0.009731,-0.014082,0.669627,0.311524,-0.035652,-0.673262,30.074435,21.822217,-84.381187
63677,-5.269516,6.263703,9.946139,0.443424,0.391527,3.054564,-0.261927,1.840564,-2.319382,-0.051045,0.063366,0.099854,0.999890,-0.001310,0.009202,-0.011596,0.662505,0.317195,-0.024991,-0.678122,29.660956,23.395856,-85.058825
63678,-3.360764,6.504005,9.884800,0.981008,-1.696963,2.330311,-0.922928,1.914716,-2.230646,-0.031930,0.065859,0.098856,0.999881,-0.004614,0.009573,-0.011153,0.656594,0.320846,-0.011953,-0.682495,28.868448,24.977090,-85.690528
63679,-6.167313,2.484362,10.131751,-2.693508,0.982049,1.961376,-1.358815,1.857814,-2.337488,-0.060428,0.026245,0.101708,0.999865,-0.006794,0.009289,-0.011687,0.650844,0.322796,0.002535,-0.687166,27.762456,26.546821,-86.437129
63680,-6.565234,0.499269,10.030653,-4.243663,1.421951,1.319568,-0.762441,1.528040,-2.477684,-0.064812,0.006183,0.100782,0.999887,-0.003812,0.007640,-0.012388,0.643499,0.325471,0.014153,-0.692659,26.878751,27.975599,-87.401112
63681,-6.022610,1.817744,10.659877,-3.117810,0.206551,2.163841,-0.576969,1.287480,-3.016357,-0.059252,0.019384,0.106928,0.999861,-0.002885,0.006437,-0.015081,0.633837,0.327790,0.025201,-0.700121,25.878289,29.401833,-88.790369
63682,-8.009212,2.034762,11.752631,-3.165405,1.151098,4.153427,-0.751294,0.887642,-3.631954,-0.079177,0.022233,0.117798,0.999818,-0.003756,0.004438,-0.018159,0.622164,0.327967,0.036630,-0.709935,24.477229,30.747134,-90.713197
63683,-8.632768,2.323940,12.027506,-2.661608,1.262771,4.880552,-0.767968,0.279166,-3.841827,-0.085686,0.025351,0.120300,0.999807,-0.003840,0.001396,-0.019208,0.609642,0.325779,0.046518,-0.721138,22.850338,31.774806,-92.994387
63685,-8.153627,2.062909,12.159821,-2.314992,0.622561,4.773949,-1.050186,-0.494704,-4.447691,-0.162146,0.051031,0.241891,0.998944,-0.010498,-0.004945,-0.044461,0.580655,0.313339,0.065560,-0.748572,18.481492,33.041682,-98.874223
63686,-8.916530,0.087481,11.628363,-3.065903,1.987438,4.377302,-0.637677,-1.330764,-4.989988,-0.089871,0.003481,0.115679,0.999662,-0.003188,-0.006653,-0.024947,0.563266,0.304724,0.071933,-0.764657,16.180825,33.165121,-102.399637
63687,-4.203472,4.192281,9.547161,0.940967,-2.401097,1.129907,0.365272,-1.506138,-3.918821,-0.041923,0.042571,0.095233,0.999778,0.001826,-0.007530,-0.019593,0.548172,0.298496,0.072254,-0.777938,14.830718,32.931599,-105.253444
63688,0.546445,11.885715,6.747843,7.852945,-8.120328,-2.099794,0.912064,-0.886349,-2.225785,0.006484,0.118479,0.068047,0.999918,0.004560,-0.004432,-0.011129,0.538479,0.296675,0.069650,-0.785604,14.466193,32.761828,-106.870746
63689,-1.185991,11.725152,7.998054,7.592611,-7.353051,-0.266160,-0.704447,0.194047,-1.301670,-0.011018,0.117606,0.079578,0.999972,-0.003522,0.000970,-0.006508,0.534356,0.295057,0.074874,-0.788542,13.610475,33.048488,-107.697624
63690,-7.577611,-0.614408,9.235840,-2.105457,2.252210,1.745446,-0.873700,0.340729,-1.197237,-0.075652,-0.005287,0.092512,0.999971,-0.004368,0.001704,-0.005986,0.530823,0.293573,0.081018,-0.790872,12.697631,33.392329,-108.439205
63691,-10.410755,-1.999795,11.542788,-3.307711,4.030473,4.966716,0.403446,-0.425674,-1.812069,-0.104530,-0.019285,0.115166,0.999955,0.002017,-0.002128,-0.009060,0.523241,0.292191,0.080955,-0.796423,12.224715,33.376159,-109.713480
63692,-11.963908,-0.811616,12.814444,-2.046001,4.252561,7.090617,0.598747,-1.440991,-2.785971,-0.120659,-0.006822,0.127256,0.999873,0.002994,-0.007205,-0.013929,0.511835,0.286816,0.078897,-0.805939,11.432192,32.893304,-111.777398
63693,-12.133780,-1.004727,12.792036,-1.692076,4.659670,7.136281,0.663927,-2.526733,-3.834325,-0.123109,-0.008119,0.126343,0.999731,0.003319,-0.012633,-0.019170,0.496320,0.276723,0.075240,-0.819408,10.269492,31.882828,-114.652377
63694,-11.378033,-1.685011,12.311747,-1.732313,4.884630,6.217567,0.842467,-3.459459,-4.469340,-0.116232,-0.014784,0.121056,0.999592,0.004212,-0.017295,-0.022344,0.477992,0.262807,0.069407,-0.835247,9.020717,30.355926,-117.985191
63695,-9.395117,-0.018492,11.181056,-0.096785,3.233822,4.427438,1.463159,-4.128471,-4.612910,-0.096215,0.001209,0.109845,0.999494,0.007315,-0.020639,-0.023061,0.458027,0.247310,0.059466,-0.851770,8.186537,28.409985,-121.387377
63696,-7.382844,2.046610,10.835297,1.276611,0.969721,3.359465,1.563921,-4.527395,-4.354967,-0.075801,0.021263,0.106816,0.999476,0.007818,-0.022633,-0.021771,0.438706,0.230149,0.047854,-0.867340,7.615344,26.181883,-124.565505
63697,-4.424323,3.427328,9.585827,1.618603,-1.417270,1.076330,1.805177,-4.661432,-3.814864,-0.045812,0.034276,0.095112,0.999506,0.009024,-0.023303,-0.019071,0.421014,0.212849,0.034179,-0.881064,7.473929,23.818882,-127.340249
63698,-3.554363,5.630263,9.309240,3.070449,-3.150974,0.752977,1.749530,-4.559172,-3.107463,-0.036789,0.056055,0.092754,0.999581,0.008746,-0.022793,-0.015535,0.406117,0.195791,0.020227,-0.892371,7.590166,21.460877,-129.619214
63699,-4.155302,6.649948,9.111546,4.382471,-3.139489,0.931617,1.484428,-4.522010,-2.393767,-0.042812,0.066333,0.090650,0.999645,0.007421,-0.022607,-0.011967,0.394324,0.178298,0.006772,-0.901483,7.808681,19.075038,-131.435239
63700,-4.388251,5.721580,8.941508,4.106949,-2.069285,0.712773,1.186733,-4.534442,-1.672078,-0.045422,0.057063,0.088736,0.999690,0.005933,-0.022670,-0.008360,0.385804,0.160057,-0.005983,-0.908571,8.061818,16.632404,-132.804853
63701,-5.151956,4.473739,8.661109,4.047304,-0.342934,0.437192,1.267802,-4.652822,-1.083955,-0.053278,0.044478,0.085668,0.999695,0.006338,-0.023262,-0.005419,0.379635,0.141330,-0.019833,-0.914062,8.511777,14.081961,-133.837898
63702,-4.311942,5.065218,8.341220,4.216632,-1.023104,-0.066613,1.283382,-4.722171,-0.769822,-0.044884,0.050290,0.082690,0.999693,0.006416,-0.023608,-0.003849,0.374658,0.122195,-0.034074,-0.918444,9.050003,11.474135,-134.705167
63703,-2.739527,3.522009,7.645817,2.468509,-0.689189,-1.339852,1.314833,-4.613824,-0.460944,-0.029072,0.034785,0.076030,0.999710,0.006574,-0.023067,-0.002304,0.370868,0.103493,-0.048447,-0.921628,9.676843,8.906874,-135.404284
63704,-1.605590,3.380357,7.223353,1.838290,-1.069537,-1.961059,1.874493,-4.450957,0.055005,-0.017672,0.033122,0.072165,0.999708,0.009372,-0.022253,0.000275,0.368989,0.086398,-0.065320,-0.923101,10.690673,6.390435,-135.825574
63705,-1.110168,4.399387,7.443555,2.249819,-1.779051,-1.581459,2.419999,-4.289134,0.809449,-0.012877,0.043041,0.074697,0.999689,0.012099,-0.021443,0.004047,0.370188,0.070754,-0.084714,-0.922377,12.072027,3.887810,-135.853525
63706,-0.619833,5.719181,7.352554,2.920458,-2.649981,-1.352028,2.769503,-4.199730,1.703994,-0.008232,0.056103,0.074149,0.999647,0.013846,-0.020996,0.008519,0.375173,0.055750,-0.105805,-0.919208,13.674618,1.323756,-135.435780
63707,1.778419,6.857655,7.953666,2.024601,-4.554849,-0.401109,2.763725,-3.843807,2.592394,0.015358,0.067675,0.080787,0.999636,0.013817,-0.019217,0.012960,0.384169,0.041854,-0.126382,-0.913614,15.256583,-1.181894,-134.545431
63708,0.808453,5.711981,8.839229,1.935834,-2.391744,0.282683,2.680416,-3.501515,3.480209,0.005545,0.056039,0.089260,0.999606,0.013400,-0.017505,0.017399,0.397148,0.028779,-0.146013,-0.905608,16.732723,-3.661017,-133.179611
63709,0.396161,3.625062,8.647115,0.913955,-0.276289,-0.477971,2.791723,-3.389406,4.284655,0.001730,0.035091,0.087008,0.999530,0.013956,-0.016944,0.021420,0.413504,0.015810,-0.165912,-0.895119,18.176932,-6.252313,-131.411597
63710,1.854035,2.897954,7.343104,-0.247297,-0.831778,-1.751215,3.283774,-3.303378,5.017726,0.016605,0.028198,0.074183,0.999414,0.016416,-0.016514,0.025084,0.432717,0.003629,-0.187724,-0.881761,19.775923,-8.978461,-129.289922
63711,4.207145,4.568762,5.902304,-0.029008,-3.611207,-2.044344,3.435662,-2.974521,5.543067,0.039912,0.045784,0.060413,0.999358,0.017175,-0.014869,0.027709,0.454038,-0.007281,-0.209266,-0.866028,21.308354,-11.691430,-126.872963
63712,6.086566,7.047228,5.425511,1.225884,-6.068469,-0.993315,2.773742,-2.181295,5.786781,0.058205,0.071415,0.055886,0.999426,0.013866,-0.010904,0.028928,0.476648,-0.016500,-0.225890,-0.849416,22.298303,-14.085602,-124.191758
63713,5.658280,5.516440,4.592148,0.744854,-5.017043,-2.210667,1.829234,-1.266557,5.705646,0.054692,0.056318,0.046783,0.999531,0.009145,-0.006332,0.028524,0.499391,-0.023983,-0.236084,-0.833245,22.605326,-16.007577,-121.348235
63715,4.244068,0.569933,3.921635,-2.254297,-2.100398,-4.892012,1.271597,-0.019593,5.103592,0.084171,0.014709,0.078622,0.998617,0.012710,-0.000196,0.051012,0.541475,-0.029867,-0.245217,-0.803605,22.394672,-18.273925,-115.702395
63718,2.505185,1.687290,4.509704,-0.495484,-0.715967,-4.455261,1.869036,1.375394,3.974611,0.074900,0.051299,0.135176,0.997618,0.028013,0.020615,0.059572,0.593980,-0.012766,-0.254187,-0.763160,23.184963,-18.750562,-108.091163
63719,3.803077,3.128268,3.139972,0.896459,-2.674299,-4.698721,1.710857,2.492876,3.452031,0.037876,0.031670,0.031197,0.999737,0.008554,0.012463,0.017259,0.610267,-0.002602,-0.253054,-0.750687,23.369154,-18.226074,-105.581594
63723,-0.584020,3.090426,7.156345,0.492173,2.667709,-2.485011,1.345872,3.347941,2.963581,-0.010978,0.114933,0.290441,0.995643,0.026878,0.066862,0.059186,0.669087,0.048903,-0.231127,-0.704635,23.764311,-13.908422,-95.904906
63726,-0.607984,2.133007,8.087553,-1.226051,2.480308,-1.897872,1.201584,2.441986,1.932819,-0.011074,0.059206,0.244216,0.998747,0.018016,0.036614,0.028980,0.696265,0.079892,-0.220485,-0.678394,24.755571,-11.457200,-91.032783
63728,1.754495,0.118801,5.816570,-2.375184,-0.774725,-4.274263,1.129045,2.545402,0.421910,0.038029,0.001226,0.115406,0.999603,0.011289,0.025451,0.004219,0.703580,0.103991,-0.210679,-0.670652,25.740860,-9.031354,-89.322405
63732,1.102387,4.449080,5.655739,1.440693,-0.429862,-2.695024,1.133720,3.888553,-0.191519,0.062349,0.172621,0.225808,0.996713,0.022650,0.077686,-0.003826,0.712781,0.172362,-0.170109,-0.658253,28.016104,-0.892975,-85.667671
63733,-3.446739,3.053174,7.574355,-1.171477,3.320406,-1.678644,0.693394,4.372891,-0.531861,-0.032718,0.030356,0.076577,0.999751,0.003467,0.021863,-0.002659,0.713979,0.189599,-0.156338,-0.655625,28.417373,1.453631,-84.752503
63742,-4.009376,3.282755,9.526547,-1.913796,1.839390,0.650363,0.227044,3.266428,-1.890659,-0.204434,0.308273,0.898330,0.985560,0.010168,0.146281,-0.084670,0.669293,0.303001,-0.040232,-0.677214,29.501634,20.887766,-85.117065
63743,-7.850380,3.060273,10.230704,-2.574887,3.182849,2.792027,-0.075609,2.510062,-3.641469,-0.076637,0.032048,0.103265,0.999755,-0.000378,0.012549,-0.018206,0.657483,0.311873,-0.025916,-0.685405,28.994188,23.168661,-86.314360
63744,-7.669706,6.203970,11.231200,-0.020720,1.749846,5.032010,-0.517028,2.027576,-3.433777,-0.074471,0.063622,0.112911,0.999798,-0.002585,0.010137,-0.017168,0.646677,0.317477,-0.012119,-0.693448,28.170346,25.127500,-87.596630
63746,-6.037844,3.558858,10.350005,-1.553202,0.478672,2.578777,-0.767604,1.509553,-3.383067,-0.115086,0.076730,0.208191,0.999284,-0.007674,0.015092,-0.033823,0.625438,0.323110,0.013746,-0.710097,25.937861,28.429284,-90.576831
63751,-7.870224,2.251718,12.267409,-2.385164,0.813007,4.705601,-0.788203,-0.100581,-4.021546,-0.380309,0.163359,0.609513,0.994753,-0.019671,-0.002510,-0.100363,0.557426,0.305822,0.058549,-0.769624,17.284102,32.412381,-103.110953
63752,-9.901386,-2.058482,13.636156,-5.142071,3.075820,6.070573,-0.597080,-1.616979,-5.167477,-0.100593,-0.017594,0.135608,0.999629,-0.002985,-0.008084,-0.025834,0.538809,0.296238,0.064365,-0.785993,14.957495,32.346840,-106.776917
63754,-9.712096,1.704208,13.638627,-1.007009,1.626132,6.904912,0.773693,-2.958721,-4.894419,-0.200288,0.041710,0.267207,0.998335,0.007733,-0.029571,-0.048917,0.499132,0.273477,0.056750,-0.820278,12.032953,30.351630,-114.084706
63755,-7.069616,4.666502,12.420427,1.785120,-1.222484,5.064381,0.588646,-3.634712,-4.653149,-0.071834,0.047964,0.123045,0.999560,0.002943,-0.018171,-0.023262,0.480136,0.258537,0.051712,-0.836633,10.639343,28.832957,-117.555394
63756,-6.160054,2.958991,11.474425,0.757134,-0.555531,3.508992,0.435618,-3.691718,-4.650429,-0.062999,0.030796,0.113656,0.999557,0.002178,-0.018456,-0.023249,0.460892,0.242803,0.047025,-0.852299,9.295484,27.208423,-120.940017
63757,-5.715024,1.493030,10.834516,-0.006322,0.320983,2.522578,0.743725,-3.743742,-4.439996,-0.058821,0.015824,0.107312,0.999572,0.003718,-0.018716,-0.022197,0.441815,0.227368,0.040669,-0.866861,8.305214,25.475824,-124.106074
63758,-5.656830,2.831182,10.696732,1.388473,-0.278401,2.533144,1.466814,-3.857581,-3.987654,-0.058051,0.028679,0.106067,0.999588,0.007333,-0.019285,-0.019936,0.423497,0.212965,0.030319,-0.879987,7.968170,23.608974,-126.933417
63759,-5.246209,6.550620,10.154569,4.383526,-2.643433,2.325758,1.715598,-4.046887,-3.432284,-0.053385,0.065549,0.101034,0.999611,0.008577,-0.020232,-0.017159,0.407082,0.198143,0.017913,-0.891461,7.998062,21.583532,-129.385854
63760,-3.300020,8.500432,9.211182,5.093787,-5.037282,0.988759,1.152738,-3.923037,-2.866916,-0.033587,0.084953,0.091947,0.999688,0.005763,-0.019613,-0.014333,0.393415,0.182665,0.007638,-0.901000,7.928673,19.582984,-131.453325
63761,-1.503590,6.200663,7.816872,2.858642,-4.387884,-1.187994,0.864137,-3.564682,-2.193139,-0.015750,0.061839,0.078160,0.999772,0.004320,-0.017822,-0.010965,0.382845,0.168142,-0.001215,-0.908381,7.902156,17.730706,-133.058756
63762,-2.348938,5.366792,8.431737,2.721405,-3.138619,-0.423660,1.043443,-3.168395,-1.405074,-0.024448,0.053398,0.084214,0.999836,0.005217,-0.015841,-0.007025,0.375531,0.155709,-0.010823,-0.913572,8.178786,16.043913,-134.154415
63763,-4.207690,6.156417,9.197587,4.396619,-2.299851,0.937964,1.100861,-3.136541,-0.751903,-0.043285,0.061220,0.091641,0.999855,0.005504,-0.015682,-0.003759,0.371061,0.143432,-0.021117,-0.917221,8.617723,14.326476,-134.863474
63764,-4.312266,6.182601,10.001970,4.427711,-2.076577,1.717066,0.600978,-3.142609,-0.509613,-0.044532,0.061639,0.099513,0.999869,0.003005,-0.015712,-0.002548,0.367938,0.130148,-0.029319,-0.920230,8.825334,12.589106,-135.438293
63765,-4.896996,3.107333,10.884535,2.782905,0.758752,2.178021,0.206425,-3.278748,-0.413613,-0.050682,0.031065,0.108056,0.999863,0.001032,-0.016393,-0.002068,0.365403,0.115459,-0.036003,-0.922959,8.832106,10.767087,-135.968456
63766,-4.169498,0.933904,10.469586,1.197521,2.119447,1.229479,0.492798,-3.606607,-0.332090,-0.043559,0.009154,0.103944,0.999833,0.002464,-0.018032,-0.001660,0.362901,0.099735,-0.044652,-0.925398,9.024462,8.753331,-136.481963
63768,-3.994039,0.909346,10.908937,1.367393,2.544168,1.472923,1.115283,-4.032156,-0.067480,-0.088581,0.015835,0.214909,0.999125,0.011150,-0.040310,-0.000675,0.359100,0.066378,-0.069449,-0.928342,10.200540,4.207235,-137.329540
63769,-1.839422,2.541840,9.074427,1.551983,0.331825,-0.344209,1.947990,-4.693718,0.412654,-0.020572,0.024495,0.090520,0.999675,0.009739,-0.023466,0.002063,0.358646,0.047908,-0.087000,-0.928175,11.299325,1.520216,-137.596608
63770,2.468315,4.280574,6.647631,0.062127,-3.749145,-2.428197,2.338759,-4.735855,1.117089,0.022856,0.042151,0.067527,0.999636,0.011692,-0.023676,0.005585,0.361102,0.029599,-0.106561,-0.925945,12.636781,-1.268920,-137.530688
63772,5.065078,4.881886,6.291429,-1.131842,-5.457068,-2.201787,3.060610,-3.614450,2.952420,0.093735,0.096497,0.132275,0.998443,0.030590,-0.036126,0.029509,0.383151,0.003963,-0.148593,-0.911647,15.994015,-6.121786,-135.268375
63773,-0.662447,5.660987,7.750637,3.529619,-0.895673,-0.909663,3.777923,-3.191035,4.679806,-0.009170,0.054939,0.078422,0.999421,0.018886,-0.015952,0.023395,0.401829,-0.006848,-0.171914,-0.899406,17.892768,-8.654631,-133.217506
63774,1.518532,6.478941,6.303041,2.982660,-2.820196,-1.619567,3.758181,-3.192234,5.319704,0.012455,0.063943,0.064451,0.999342,0.018787,-0.015958,0.026593,0.422888,-0.018244,-0.194910,-0.884784,19.637655,-11.369439,-130.882502
63775,4.879863,7.216496,5.783131,1.739914,-5.372772,-1.014685,3.134127,-2.563570,5.633909,0.046002,0.072563,0.059568,0.999398,0.015667,-0.012815,0.028164,0.445346,-0.028460,-0.213554,-0.869052,20.867838,-13.867476,-128.299988
63776,4.332443,4.524290,4.791432,0.413869,-3.581284,-2.799396,2.389654,-1.798506,5.621397,0.041605,0.045849,0.048839,0.999493,0.011946,-0.008991,0.028102,0.467980,-0.036968,-0.227015,-0.853283,21.532294,-15.995683,-125.575882
63777,4.743882,2.822449,4.766950,-0.952486,-2.927498,-3.201278,2.020726,-0.961826,5.380229,0.046435,0.028998,0.048185,0.999576,0.010102,-0.004808,0.026897,0.490012,-0.042463,-0.236800,-0.837861,21.885082,-17.651496,-122.797542
63778,2.594387,1.035298,6.029186,-1.418798,0.173677,-3.323451,1.998367,-0.229797,5.104929,0.025609,0.010406,0.060425,0.999624,0.009991,-0.001149,0.025521,0.511380,-0.044587,-0.244545,-0.822618,22.147978,-18.872678,-119.991968
63779,1.380154,1.124987,6.220133,-0.802751,1.293380,-3.524404,2.251017,0.028528,4.912958,0.013540,0.010884,0.062323,0.999635,0.011254,0.000143,0.024562,0.531935,-0.044740,-0.252553,-0.807007,22.517551,-19.931388,-117.225326
63780,4.450785,2.221889,5.026158,-0.887206,-2.085123,-3.114013,2.418942,0.495840,4.889458,0.044082,0.022691,0.050424,0.999625,0.012093,0.002479,0.024444,0.552644,-0.042494,-0.259790,-0.790751,22.901088,-20.753436,-114.350060
63781,3.951094,4.327688,5.226496,1.256180,-2.005232,-2.325705,2.354914,1.178959,4.823094,0.038771,0.043600,0.052547,0.999623,0.011773,0.005894,0.024112,0.573535,-0.037614,-0.264729,-0.774313,23.172123,-21.217738,-111.343376
63782,3.288051,3.829137,5.015608,1.174928,-1.318217,-2.919892,1.766142,1.724616,4.715679,0.032405,0.038616,0.050215,0.999646,0.008830,0.008622,0.023576,0.594217,-0.032133,-0.265627,-0.758496,23.060476,-21.372191,-108.257776
63783,3.159979,2.198539,5.023811,-0.213280,-0.931515,-3.556163,1.632756,2.241111,4.495388,0.031663,0.022287,0.050065,0.999651,0.008163,0.011204,0.022474,0.614292,-0.024785,-0.264362,-0.743064,22.875681,-21.199951,-105.175663
63784,1.696680,2.030251,6.070700,-0.301090,0.794578,-3.245229,1.592901,2.592038,4.139230,0.017335,0.020176,0.060645,0.999670,0.007964,0.012959,0.020694,0.633103,-0.015758,-0.261707,-0.728314,22.725744,-20.752277,-102.215651
63785,0.458652,1.464667,6.660339,-0.830703,2.109822,-3.365011,1.404834,2.663420,3.656152,0.005211,0.014270,0.066638,0.999720,0.007024,0.013316,0.018279,0.649833,-0.006437,-0.258047,-0.714904,22.588892,-20.156099,-99.525495
63786,1.267991,0.467551,5.750835,-1.655787,0.915376,-4.216511,1.171759,2.680997,2.996127,0.013381,0.004536,0.057359,0.999781,0.005858,0.013404,0.014980,0.663910,0.003056,-0.253362,-0.703578,22.474782,-19.397404,-97.212810
63787,2.083324,-0.305009,4.868629,-2.189366,-0.318027,-4.991887,1.026117,2.953422,2.167369,0.021582,-0.003068,0.048356,0.999819,0.005130,0.014766,0.010836,0.675143,0.014061,-0.247168,-0.694904,22.447799,-18.312883,-95.316660
63788,2.200204,-0.904536,4.346178,-2.568901,-0.786262,-5.649957,0.913833,3.300841,1.251187,0.022772,-0.009102,0.043049,0.999834,0.004569,0.016503,0.006256,0.683408,0.027033,-0.239239,-0.689194,22.528817,-16.842015,-93.860931
63789,1.974749,-0.858797,4.324661,-2.504970,-0.751347,-5.750963,0.935612,3.686765,0.456893,0.020559,-0.008743,0.042832,0.999817,0.004678,0.018433,0.002284,0.689151,0.042334,-0.229895,-0.685877,22.761024,-14.998379,-92.762702
63790,1.128980,0.794339,4.635428,-1.079405,0.049719,-5.098679,1.259861,4.028897,-0.032090,0.012222,0.007650,0.046163,0.999777,0.006299,0.020143,-0.000160,0.693267,0.060486,-0.220268,-0.683524,23.259825,-12.868896,-91.848412
63791,0.582444,3.153164,4.444052,1.123026,0.486095,-4.471325,1.517413,4.347402,-0.111471,0.006809,0.031190,0.044537,0.999735,0.007586,0.021735,-0.000557,0.697048,0.080659,-0.210301,-0.680729,23.931215,-10.565915,-90.888070
63792,0.408502,5.602332,4.137402,3.406378,0.564099,-3.750874,1.641991,4.705256,0.043916,0.005052,0.055683,0.041721,0.999690,0.008209,0.023524,0.000220,0.701283,0.102291,-0.199438,-0.676730,24.682517,-8.121788,-89.738317
63793,-0.588838,7.139204,4.545105,4.525004,1.506827,-2.796916,1.430459,5.088700,0.216556,-0.004798,0.071058,0.046091,0.999650,0.007151,0.025441,0.001083,0.706127,0.124225,-0.186491,-0.671695,25.338442,-5.537109,-88.382634
63794,-3.406919,6.817420,6.069565,3.369951,4.156698,-1.671634,0.888015,5.200835,0.246885,-0.032554,0.067860,0.061857,0.999651,0.004440,0.026001,0.001234,0.711024,0.144520,-0.171196,-0.666521,25.739927,-2.911815,-86.964668
63795,-5.541757,3.390775,7.386509,-0.541903,5.750809,-1.851193,0.567181,4.914311,0.079891,-0.053593,0.033674,0.075293,0.999694,0.002836,0.024569,0.000399,0.714878,0.162763,-0.155642,-0.661992,26.026682,-0.403019,-85.693870
63796,-6.700605,1.619585,8.830098,-3.000643,6.359953,-1.093829,0.916812,4.320941,-0.232748,-0.065058,0.015863,0.089794,0.999755,0.004584,0.021603,-0.001164,0.716567,0.180452,-0.143002,-0.658422,26.561684,1.873090,-84.714850
63797,-5.690032,1.658487,8.746748,-2.981878,4.983335,-0.986963,1.248107,3.671408,-0.690841,-0.055224,0.016227,0.088594,0.999806,0.006240,0.018356,-0.003454,0.715667,0.197440,-0.133310,-0.656556,27.305177,3.925014,-84.113077
63798,-3.298696,3.988658,8.811462,-0.814282,2.387125,0.089805,1.234207,3.282132,-1.166595,-0.031301,0.039526,0.088882,0.999829,0.006171,0.016410,-0.005833,0.712705,0.213344,-0.124440,-0.656545,28.033792,5.898249,-83.828953
63799,-2.527124,3.935202,8.016812,-0.498833,1.395157,-0.650974,1.073464,3.133492,-1.337454,-0.023747,0.039082,0.080758,0.999841,0.005367,0.015667,-0.006687,0.709024,0.228230,-0.115343,-0.657184,28.667761,7.840518,-83.647576
63800,-1.834505,5.946432,8.415954,1.090232,0.365129,0.590201,1.044525,3.173201,-1.392030,-0.016591,0.059142,0.084742,0.999836,0.005222,0.015865,-0.006960,0.704993,0.243095,-0.105917,-0.657777,29.292074,9.814747,-83.460451
63801,-3.207292,6.299211,9.390593,0.733615,1.131156,1.862862,0.607184,3.220739,-1.265288,-0.030155,0.062900,0.094593,0.999846,0.003036,0.016103,-0.006326,0.701710,0.256439,-0.094999,-0.657888,29.690504,11.776445,-83.176136
63802,-3.885129,4.713799,10.570433,-1.301436,1.103589,2.275431,0.217011,3.084850,-1.280763,-0.036912,0.047263,0.106335,0.999860,0.001085,0.015424,-0.006404,0.698608,0.267891,-0.083233,-0.658220,29.866706,13.672316,-82.927426
63803,-3.880025,2.061099,11.026684,-3.804361,0.615152,1.413487,-0.041896,2.882152,-1.770542,-0.037021,0.020967,0.110805,0.999857,-0.000209,0.014410,-0.008852,0.693957,0.277909,-0.070633,-0.660455,29.825155,15.608387,-82.985347
63804,-5.529578,1.141354,12.194202,-5.267736,1.505336,2.457172,-0.096252,2.528856,-2.505322,-0.053599,0.012151,0.122621,0.999841,-0.000481,0.012644,-0.012526,0.686624,0.286739,-0.058048,-0.665552,29.610120,17.575676,-83.534867
63805,-7.497488,2.318079,12.661500,-4.544713,2.800004,4.093865,0.169045,1.975519,-2.685286,-0.073400,0.024066,0.127365,0.999861,0.000845,0.009877,-0.013426,0.677953,0.294608,-0.047944,-0.671779,29.442697,19.318277,-84.354875
63806,-6.410366,5.682898,13.032223,-1.542650,1.051771,5.670554,0.261698,1.368962,-2.373324,-0.062530,0.057406,0.130829,0.999905,0.001308,0.006845,-0.011866,0.669884,0.300607,-0.040681,-0.677670,29.299148,20.666113,-85.204662
63807,-3.527880,5.592264,11.468160,-0.578437,-1.379066,3.340080,-0.266663,1.055760,-2.321244,-0.034020,0.056475,0.114788,0.999918,-0.001333,0.005279,-0.011606,0.662615,0.303712,-0.032710,-0.683835,28.803553,21.840865,-86.133101
63808,-1.597424,1.992824,10.497556,-3.079690,-2.617945,0.206220,-0.886209,1.301719,-3.280773,-0.014956,0.020644,0.104985,0.999834,-0.004431,0.006508,-0.016403,0.652871,0.305686,-0.020379,-0.692748,27.751122,23.385649,-87.541656
63809,-5.097616,-2.807778,10.670360,-7.367425,1.064313,-0.205310,-1.200989,1.516333,-4.729068,-0.050799,-0.026232,0.107250,0.999674,-0.006004,0.007581,-0.023643,0.638309,0.307366,-0.003996,-0.705741,26.140748,25.387698,-89.757344
63810,-10.570876,-2.398756,13.750061,-7.925748,4.566444,5.115254,-0.791925,1.158288,-6.047122,-0.105560,-0.020248,0.138197,0.999518,-0.003959,0.005791,-0.030231,0.617933,0.308873,0.011790,-0.722923,24.266979,27.461645,-92.940149
63811,-14.172045,0.189119,15.984121,-5.636507,6.007413,9.895981,-0.529947,-0.019696,-6.482845,-0.141567,0.006906,0.159813,0.999471,-0.002649,-0.000098,-0.032409,0.595052,0.306573,0.023716,-0.742539,22.121913,28.914825,-96.813757
63812,-12.787461,4.579197,17.319912,-1.522942,2.751186,11.970623,-0.383815,-1.514718,-6.270056,-0.127655,0.050128,0.172138,0.999478,-0.001919,-0.007572,-0.031345,0.572261,0.298881,0.030236,-0.763068,19.855079,29.389146,-101.008094
63813,-10.936295,5.135191,16.581896,-0.198912,1.160751,10.668865,-0.488885,-2.737753,-5.595134,-0.110117,0.054829,0.164184,0.999512,-0.002444,-0.013687,-0.027971,0.551847,0.285995,0.032699,-0.782689,17.588596,28.932615,-105.056042
63814,-7.151394,3.857958,12.884423,-0.014875,-0.117268,5.418764,-0.182212,-3.442552,-5.285245,-0.072662,0.040606,0.127564,0.999502,-0.000911,-0.017210,-0.026422,0.531743,0.270993,0.031461,-0.801762,15.606506,27.904700,-108.993852
63815,-6.061207,4.205577,14.269610,-0.059177,-1.533359,6.176948,-0.434833,-3.486895,-5.678765,-0.061854,0.044109,0.141530,0.999443,-0.002174,-0.017431,-0.028389,0.509892,0.254763,0.031696,-0.821037,13.457738,26.786188,-113.098244
63816,-8.358751,-2.332837,12.962632,-3.690823,4.127697,4.768824,0.036402,-3.860102,-5.641177,-0.086681,-0.020936,0.127969,0.999416,0.000182,-0.019297,-0.028200,0.487034,0.237947,0.028882,-0.839848,11.698051,25.328738,-117.143204
63817,-9.162904,2.733374,12.314920,1.761715,2.615010,5.455322,1.539981,-4.525089,-5.421570,-0.093618,0.028915,0.121264,0.999347,0.007698,-0.022621,-0.027102,0.462853,0.221700,0.017921,-0.858076,10.958727,23.394528,-121.038928
63818,-7.544922,9.825769,12.587497,7.064560,-2.674987,6.150959,0.823810,-4.853681,-5.437702,-0.075782,0.099801,0.124447,0.999328,0.004118,-0.024263,-0.027182,0.438767,0.202128,0.009182,-0.875525,9.964051,21.222682,-124.893496
63819,-5.400671,5.565501,10.043005,3.920762,-1.235854,2.190940,-0.226932,-4.833095,-5.299145,-0.054909,0.057215,0.099046,0.999356,-0.001134,-0.024160,-0.026490,0.415813,0.180052,0.005003,-0.891434,8.563642,18.975862,-128.552393
63820,-1.630395,2.972208,6.633267,1.141227,-1.733275,-2.658465,0.617880,-4.629540,-4.449773,-0.017171,0.029893,0.066034,0.999480,0.003089,-0.023144,-0.022245,0.395354,0.160478,-0.003357,-0.904395,7.980181,16.715326,-131.600921
63821,1.117511,7.795967,5.258570,3.238423,-6.771883,-4.039576,1.667062,-4.088417,-3.143345,0.011307,0.077339,0.053462,0.999633,0.008334,-0.020440,-0.015715,0.379657,0.145234,-0.016382,-0.913509,8.332588,14.649588,-133.791212
63822,1.220934,12.380293,6.091968,5.944814,-10.132200,-2.473202,1.249034,-3.174458,-1.889272,0.012399,0.123302,0.061887,0.999810,0.006245,-0.015871,-0.009446,0.369816,0.133212,-0.026721,-0.919117,8.716030,13.009374,-135.168589
63823,-1.785548,9.162950,7.847456,5.364648,-5.758786,-0.496786,0.281119,-2.504162,-0.788939,-0.018476,0.091591,0.078375,0.999913,0.001406,-0.012520,-0.003945,0.365688,0.122276,-0.032074,-0.922113,8.726071,11.656644,-135.843366
63824,-4.750277,4.181114,8.733371,4.027305,0.011286,0.192031,0.391965,-2.470305,0.054747,-0.048589,0.041627,0.086820,0.999922,0.001960,-0.012351,0.000274,0.365302,0.111563,-0.038412,-0.923381,8.912166,10.251315,-136.030157
63825,-5.424769,4.551792,10.225724,4.570951,0.406843,1.747769,0.641722,-2.745638,0.343087,-0.055724,0.045096,0.101644,0.999899,0.003209,-0.013728,0.001715,0.366002,0.099950,-0.046550,-0.924059,9.266801,8.664298,-136.081394
63826,-5.406331,3.406977,11.240076,3.788029,1.519221,2.455345,0.387134,-3.116735,0.394712,-0.055874,0.033744,0.111605,0.999875,0.001936,-0.015583,0.001973,0.366886,0.086132,-0.054217,-0.924682,9.476757,6.863653,-136.147057
63827,-3.611633,0.475763,10.508018,0.926327,2.690125,0.938127,0.734274,-3.547198,0.550210,-0.037985,0.004271,0.104434,0.999832,0.003671,-0.017735,0.002751,0.368117,0.070895,-0.064322,-0.924839,9.890950,4.805664,-136.175500
63828,-2.639691,0.354567,10.105093,0.413718,2.452168,0.336414,1.816715,-3.941610,1.098583,-0.028397,0.002479,0.100530,0.999749,0.009083,-0.019706,0.005492,0.371217,0.055619,-0.080332,-0.923391,10.942555,2.468787,-135.961790
63829,-1.980154,2.377906,9.734161,1.509360,1.005718,0.237782,2.959910,-4.353086,2.094328,-0.022156,0.022116,0.097212,0.999599,0.014798,-0.021763,0.010470,0.378191,0.040135,-0.102594,-0.919149,12.647800,-0.218918,-135.294118
63830,0.872680,4.753232,7.801564,1.545317,-2.388751,-1.089474,3.504761,-4.607975,3.253884,0.006154,0.046268,0.078995,0.999449,0.017521,-0.023036,0.016266,0.389890,0.023873,-0.127988,-0.911611,14.617556,-3.226166,-134.101796
63831,5.860786,7.628651,6.163759,0.595565,-7.679466,-1.377156,3.512867,-4.145698,4.266125,0.055666,0.076383,0.064153,0.999403,0.017561,-0.020724,0.021326,0.406046,0.009066,-0.152483,-0.900996,16.485949,-6.170879,-132.376071
63832,6.879747,6.618506,6.130566,-0.430044,-7.337118,-1.172094,2.929720,-3.203364,5.201441,0.066058,0.067009,0.063356,0.999426,0.014646,-0.016014,0.026002,0.426687,-0.003412,-0.172311,-0.887826,17.858623,-8.806846,-130.048727
63833,2.961574,4.815748,7.460020,0.832476,-2.482806,-0.827474,2.994527,-2.512761,5.938523,0.027245,0.047862,0.075671,0.999368,0.014969,-0.012561,0.029686,0.450672,-0.013316,-0.190744,-0.871972,19.082572,-11.253368,-127.233802
63834,0.183664,4.167964,7.871702,2.050494,0.654196,-1.168938,2.940155,-2.381799,6.368426,-0.000409,0.040527,0.079323,0.999314,0.014697,-0.011906,0.031835,0.476065,-0.023165,-0.208353,-0.854058,20.102924,-13.765441,-124.179453
63835,1.860202,4.500373,6.892979,1.666513,-0.736161,-1.573192,2.699359,-2.201015,6.302425,0.016427,0.044607,0.069722,0.999352,0.013494,-0.011003,0.031505,0.500688,-0.032715,-0.224249,-0.835436,20.860556,-16.213645,-121.134393
63836,4.650484,3.056603,4.746766,-0.388654,-3.005712,-3.156350,2.009665,-1.573724,5.832541,0.045220,0.031416,0.048140,0.999493,0.010047,-0.007867,0.029158,0.523375,-0.040808,-0.235497,-0.817896,21.140855,-18.255872,-118.204151
63837,5.521389,0.968358,3.673965,-2.183961,-3.373406,-4.449170,1.734613,-0.600499,5.108560,0.054837,0.010767,0.036995,0.999632,0.008672,-0.003002,0.025540,0.543717,-0.044757,-0.243037,-0.802061,21.239219,-19.638308,-115.450680
63838,3.799166,0.292000,4.287258,-2.059069,-1.448387,-4.658932,1.797067,0.247204,4.483968,0.037972,0.003386,0.042855,0.999708,0.008984,0.001236,0.022418,0.562256,-0.044346,-0.248481,-0.787501,21.373255,-20.442377,-112.845855
63839,2.071625,1.460680,5.409707,-0.570749,0.254256,-3.871335,1.961224,0.771435,4.005439,0.020634,0.014490,0.054160,0.999744,0.009805,0.003857,0.020025,0.579278,-0.040801,-0.253090,-0.773769,21.628967,-20.876781,-110.390627
63840,2.399761,2.722396,5.758314,0.388792,-0.098758,-3.018028,1.749093,1.114870,3.725251,0.023813,0.027164,0.057688,0.999773,0.008745,0.005574,0.018625,0.595340,-0.036158,-0.255796,-0.760810,21.776487,-21.075009,-108.011526
63841,3.408906,2.628265,5.385595,0.121207,-1.116847,-3.010417,1.648223,1.543649,3.645092,0.034023,0.026460,0.053811,0.999770,0.008240,0.007718,0.018224,0.611343,-0.030076,-0.256761,-0.747950,21.845854,-21.034415,-105.581487
63842,3.038783,3.602259,6.031512,0.973725,-0.623473,-2.246135,1.616400,1.960244,3.639107,0.030323,0.036087,0.060309,0.999754,0.008081,0.009800,0.018194,0.627575,-0.022501,-0.256191,-0.734853,21.869425,-20.770659,-103.060133
63843,1.996114,3.151078,6.281854,0.696868,0.458321,-2.554610,1.452673,2.235272,3.613337,0.020095,0.031417,0.062823,0.999748,0.007263,0.011175,0.018065,0.643720,-0.014398,-0.254056,-0.721716,21.800090,-20.356671,-100.498863
63844,1.133219,2.512012,7.239675,-0.090951,1.598281,-2.233531,1.245139,2.403529,3.331987,0.011787,0.024863,0.072412,0.999770,0.006225,0.012017,0.016659,0.658751,-0.005979,-0.250504,-0.709408,21.675404,-19.786851,-98.065602
63845,-0.585978,1.010455,8.127416,-1.644697,3.421608,-2.532303,0.916714,2.315003,2.820290,-0.005056,0.009657,0.081381,0.999823,0.004583,0.011574,0.014101,0.671566,0.001677,-0.246013,-0.698909,21.494740,-19.152566,-95.954238
63846,-0.929177,-0.489790,8.533885,-3.257615,3.691700,-2.763833,0.744375,2.042920,2.033608,-0.008367,-0.005304,0.085408,0.999889,0.003722,0.010214,0.010168,0.681119,0.008781,-0.241735,-0.691060,21.401971,-18.491537,-94.354057
63847,-0.592261,-0.823339,8.436502,-3.642396,3.166215,-2.819196,0.594715,1.748423,1.178383,-0.005135,-0.008516,0.084387,0.999940,0.002974,0.008742,0.005892,0.687248,0.015383,-0.237873,-0.686200,21.413418,-17.808981,-93.306124
63848,-0.062747,-1.528432,7.692621,-4.127620,2.257903,-3.537371,0.588246,1.530331,0.477620,-0.000002,-0.015511,0.076882,0.999964,0.002941,0.007652,0.002388,0.690651,0.022053,-0.234652,-0.683706,21.565771,-17.095766,-92.700276
63849,1.907541,-0.748813,5.919150,-2.902754,-0.199931,-4.265724,0.909405,1.509708,0.020111,0.019522,-0.007755,0.059010,0.999961,0.004547,0.007548,0.000101,0.692387,0.030290,-0.232527,-0.682359,21.982518,-16.299599,-92.350576
63850,4.954201,0.963792,3.658813,-0.634813,-3.727408,-4.856671,1.099924,1.963397,-0.146332,0.049905,0.009402,0.036152,0.999936,0.005500,0.009817,-0.000732,0.693975,0.040932,-0.229437,-0.681235,22.510842,-15.229086,-91.986498
63851,6.545647,2.403073,2.333966,1.145400,-5.605772,-5.194422,1.217499,2.875878,-0.177803,0.065806,0.023833,0.022541,0.999878,0.006087,0.014379,-0.000889,0.696361,0.055105,-0.223528,-0.679765,23.062948,-13.673916,-91.420619
63852,5.040690,3.847338,2.547950,2.452761,-4.118391,-4.942116,1.150383,3.882838,-0.185724,0.050927,0.038283,0.024715,0.999795,0.005752,0.019413,-0.000929,0.699625,0.072470,-0.213815,-0.677906,23.543339,-11.591046,-90.616807
63853,2.563892,4.687626,3.159494,3.014364,-1.669470,-4.649963,1.078509,4.663273,-0.174327,0.026411,0.046684,0.031237,0.999713,0.005392,0.023314,-0.000872,0.703449,0.092161,-0.201037,-0.675463,23.977189,-9.110320,-89.613083
63854,0.912699,4.973896,3.886652,2.948005,-0.105585,-4.158227,0.995244,5.248458,-0.182609,0.010192,0.049537,0.038855,0.999643,0.004976,0.026239,-0.000913,0.707414,0.113503,-0.185778,-0.672435,24.390225,-6.326652,-88.464308
63855,-0.903949,3.702692,4.797243,1.322404,1.443624,-4.007496,0.761488,5.709635,-0.388230,-0.007591,0.036859,0.048344,0.999583,0.003807,0.028544,-0.001941,0.710701,0.135654,-0.167860,-0.669570,24.726437,-3.263971,-87.301880
63856,-3.752981,2.008384,6.526270,-1.146188,3.888254,-3.159811,0.794397,5.794755,-0.896281,-0.035527,0.019984,0.066391,0.999562,0.003971,0.028970,-0.004481,0.711733,0.158536,-0.149244,-0.667854,25.151730,-0.039339,-86.365333
63857,-6.557789,0.996883,7.441288,-2.737594,6.190531,-2.496380,1.237940,5.414172,-1.357241,-0.063463,0.009936,0.076212,0.999591,0.006189,0.027067,-0.006785,0.709988,0.181922,-0.132985,-0.667185,25.875112,3.090712,-85.729461
63858,-7.313306,2.317105,7.937226,-1.969302,6.508255,-1.118517,1.823687,4.923669,-1.621619,-0.070959,0.023017,0.081348,0.999623,0.009117,0.024615,-0.008107,0.705946,0.205798,-0.120062,-0.666987,26.951129,6.027976,-85.303467
63859,-5.446240,7.112442,9.781725,1.476372,3.984265,2.750580,1.707468,4.556708,-2.046624,-0.051480,0.070816,0.099618,0.999652,0.008536,0.022781,-0.010232,0.699881,0.228141,-0.107515,-0.668251,27.947230,8.882906,-85.136600
63860,-5.204970,6.446751,10.463852,0.513401,2.996561,3.182244,0.443100,4.128343,-2.280380,-0.049136,0.064805,0.105816,0.999720,0.002215,0.020640,-0.011401,0.693801,0.244617,-0.091916,-0.671084,28.191296,11.582205,-85.175265
63861,-4.057125,3.248969,9.652001,-1.826365,1.564209,0.881893,0.008475,3.916151,-2.576138,-0.038248,0.032988,0.097286,0.999725,0.000042,0.019579,-0.012880,0.686783,0.258876,-0.075169,-0.675028,28.137313,14.255581,-85.421019
63862,-4.429440,3.016549,10.425608,-2.339704,1.234352,1.606221,-0.120504,3.807309,-2.907192,-0.041854,0.030849,0.105050,0.999713,-0.000602,0.019035,-0.014535,0.678384,0.272301,-0.057903,-0.679922,27.941510,16.961350,-85.880842
63863,-5.698868,1.005389,9.952246,-3.922566,2.246991,0.774150,-0.043235,3.631137,-2.816405,-0.055020,0.010860,0.100531,0.999736,-0.000216,0.018154,-0.014081,0.669772,0.285214,-0.041565,-0.684347,27.762795,19.553827,-86.356440
63864,-4.939739,4.027035,10.708965,-1.458569,0.496358,2.552678,0.353736,3.514362,-2.845443,-0.046927,0.040759,0.108001,0.999743,0.001769,0.017570,-0.014226,0.660115,0.298914,-0.026937,-0.688602,27.771309,22.092463,-86.894176
63865,-5.866736,2.932388,10.768293,-2.433933,0.944067,2.521582,-0.182755,3.416447,-3.108517,-0.056351,0.030311,0.108631,0.999733,-0.000914,0.017081,-0.015541,0.650006,0.310382,-0.010344,-0.693576,27.370982,24.651616,-87.623319
63866,-8.003621,1.501682,12.047424,-4.207044,2.081393,3.949340,-0.309287,3.065607,-3.601974,-0.077888,0.016620,0.121654,0.999719,-0.001546,0.015327,-0.018008,0.637998,0.320080,0.006285,-0.700334,26.686452,27.151582,-88.777460
63867,-10.489965,2.633643,13.433277,-3.619878,2.965305,6.785494,-0.085055,2.320178,-3.709087,-0.102819,0.028314,0.135522,0.999761,-0.000425,0.011600,-0.018544,0.624963,0.327705,0.019967,-0.708260,25.925336,29.285252,-90.266736
63868,-9.329680,4.130005,13.307388,-1.960434,1.200164,6.796995,-0.214082,1.338899,-3.612127,-0.091636,0.043108,0.133646,0.999814,-0.001070,0.006694,-0.018060,0.612300,0.331331,0.030826,-0.717188,24.908875,30.864005,-92.044028
63869,-8.215242,3.986477,14.192486,-2.174909,-0.507148,6.914464,-0.844137,0.675547,-4.202144,-0.080803,0.042171,0.142025,0.999765,-0.004220,0.003377,-0.021009,0.598430,0.330405,0.042936,-0.728609,23.165088,32.198925,-94.434491
63870,-11.016354,-1.093522,13.939870,-5.952509,3.154568,6.663185,-0.964763,-0.198730,-4.846776,-0.110513,-0.007587,0.139331,0.999694,-0.004823,-0.000994,-0.024231,0.582256,0.325629,0.053852,-0.742996,20.932497,33.133692,-97.540331
63871,-11.092937,1.657437,14.858845,-3.218631,1.834461,8.430770,-0.374499,-1.325517,-5.265467,-0.111418,0.019781,0.147816,0.999630,-0.001872,-0.006627,-0.026324,0.563504,0.318029,0.060013,-0.760078,18.675221,33.441746,-101.239374
63872,-8.951308,2.674268,14.014986,-1.677682,0.062121,6.945844,-0.444006,-2.026666,-5.540077,-0.090134,0.029544,0.139175,0.999563,-0.002220,-0.010132,-0.027696,0.543549,0.307253,0.064778,-0.778430,16.195400,33.282666,-105.279333
63873,-9.047985,0.948363,13.503243,-2.341201,1.088837,6.262077,-0.461638,-2.504055,-5.596671,-0.091842,0.012351,0.133862,0.999527,-0.002308,-0.012518,-0.027979,0.523096,0.294240,0.068419,-0.796939,13.666850,32.721993,-109.410019
63874,-8.791308,-0.151663,13.647563,-2.793720,1.469353,6.111073,0.358300,-2.968108,-5.557517,-0.089926,0.000721,0.135151,0.999502,0.001791,-0.014838,-0.027783,0.501211,0.281283,0.067378,-0.815554,11.675192,31.758756,-113.521283
63875,-8.190426,0.692982,12.891305,-1.423448,1.132512,5.366691,1.129437,-3.437726,-5.235008,-0.083898,0.008386,0.127527,0.999494,0.005646,-0.017186,-0.026171,0.479255,0.268128,0.061578,-0.833445,10.308956,30.395270,-117.392195
63876,-6.553293,5.095405,12.494266,2.115895,-2.107709,4.887268,1.586841,-3.709500,-4.709954,-0.066631,0.051528,0.124121,0.999519,0.007933,-0.018545,-0.023546,0.458445,0.254874,0.052372,-0.849779,9.499907,28.763265,-120.866307
63877,-4.564444,6.749429,11.070935,3.295876,-3.958772,2.931622,1.286144,-3.746366,-4.010515,-0.046357,0.067709,0.110280,0.999603,0.006430,-0.018729,-0.020050,0.440642,0.240689,0.043498,-0.863720,8.843782,27.007726,-123.813783
63878,-4.638216,6.792677,10.906458,3.579873,-3.766562,2.820531,0.945238,-3.670876,-3.350739,-0.047236,0.068200,0.108525,0.999680,0.004726,-0.018352,-0.016752,0.425722,0.226093,0.035359,-0.875439,8.299449,25.211945,-126.273996
63879,-4.446074,5.985676,10.157435,3.323875,-3.080912,1.944207,0.606129,-3.595449,-2.938724,-0.045396,0.060213,0.100946,0.999726,0.003030,-0.017976,-0.014692,0.412762,0.211006,0.028434,-0.885605,7.754487,23.403761,-128.413038
63880,-3.501787,3.305466,8.988907,1.404691,-1.600043,0.159804,0.490506,-3.436182,-2.652849,-0.036116,0.033309,0.089356,0.999761,0.002452,-0.017180,-0.013263,0.400917,0.196355,0.021976,-0.894554,7.301565,21.649091,-130.320637
63881,-3.517883,2.138462,9.003306,0.751479,-0.633128,0.038048,0.955279,-3.209365,-2.315192,-0.036371,0.021373,0.089558,0.999793,0.004776,-0.016046,-0.011575,0.389958,0.183565,0.013595,-0.902248,7.252312,19.989380,-131.971628
63882,-5.438109,3.407595,9.224434,2.958970,-0.014518,1.027661,1.459810,-3.255174,-1.902649,-0.055552,0.033931,0.091595,0.999796,0.007299,-0.016275,-0.009513,0.380205,0.171540,0.002421,-0.908852,7.627825,18.279284,-133.368515
63883,-6.086977,4.904612,10.438396,4.225589,-0.567688,2.511279,1.353387,-3.415410,-1.477184,-0.062283,0.048800,0.103659,0.999804,0.006766,-0.017076,-0.007385,0.372359,0.158491,-0.008903,-0.914413,8.050624,16.452570,-134.520878
63884,-7.626162,4.037474,10.365662,4.931747,1.394882,2.662203,1.285302,-3.858522,-1.053714,-0.078034,0.040122,0.102421,0.999779,0.006426,-0.019291,-0.005268,0.366296,0.143234,-0.021110,-0.919166,8.532403,14.350090,-135.468411
63885,-5.299226,5.261841,9.986076,4.525355,-0.751733,1.781785,0.997910,-4.250424,-0.848044,-0.054880,0.052353,0.098969,0.999753,0.004989,-0.021250,-0.004240,0.361195,0.125545,-0.032823,-0.923417,8.899352,12.013972,-136.335726
63886,-2.990014,2.711889,9.104312,1.710674,-0.112701,-0.002942,0.621341,-4.311577,-0.686159,-0.031762,0.026944,0.090456,0.999757,0.003106,-0.021556,-0.003431,0.356868,0.106822,-0.043022,-0.927029,9.104699,9.633649,-137.121833
63887,-2.685087,0.824111,9.247050,0.490443,1.387107,-0.261907,1.052363,-4.334326,-0.376727,-0.028832,0.007810,0.091902,0.999750,0.005261,-0.021670,-0.001883,0.353580,0.088635,-0.055382,-0.929547,9.611207,7.216443,-137.741008
63888,-2.554299,2.296385,8.658789,1.698231,0.532846,-0.669984,1.798772,-4.534557,0.079287,-0.027509,0.022177,0.086181,0.999702,0.008993,-0.022671,0.000396,0.351816,0.070671,-0.071757,-0.930635,10.596497,4.648750,-138.151619
63889,-0.835844,3.931881,9.216256,1.573829,-1.360429,0.023433,2.202086,-4.578806,0.719886,-0.010611,0.038267,0.092362,0.999671,0.011009,-0.022892,0.003599,0.352668,0.052933,-0.090247,-0.929881,11.846913,1.993611,-138.253546
63890,-2.383921,3.730864,9.288328,2.782269,0.328643,0.086711,2.631275,-4.824856,1.642869,-0.026377,0.035878,0.092746,0.999589,0.013155,-0.024121,0.008213,0.357311,0.034356,-0.111364,-0.926686,13.354794,-0.911558,-137.935503
63891,-0.723612,5.007576,7.868159,2.795506,-1.414007,-0.999975,2.867301,-5.096960,2.549656,-0.009877,0.048828,0.079158,0.999491,0.014334,-0.025480,0.012746,0.365642,0.014407,-0.134097,-0.920932,14.962421,-4.101737,-137.229225
63892,2.721480,4.937631,6.648540,0.607185,-3.478655,-1.844374,2.861455,-4.807373,3.181946,0.024816,0.048820,0.067802,0.999482,0.014305,-0.024033,0.015907,0.376696,-0.004660,-0.156198,-0.913061,16.498858,-7.249424,-136.213914
63893,3.861022,4.041160,5.800544,-0.495750,-3.482901,-2.567800,2.984784,-4.233404,3.786484,0.036600,0.040238,0.059396,0.999485,0.014921,-0.021163,0.018929,0.390572,-0.021338,-0.177599,-0.903027,17.997644,-10.210668,-134.842851
63894,4.606283,3.122383,4.658138,-1.327851,-3.474678,-3.582552,3.365225,-3.604028,4.470824,0.044506,0.031432,0.047921,0.999446,0.016823,-0.018017,0.022350,0.407717,-0.035021,-0.199232,-0.890419,19.561265,-12.992742,-133.043579
63895,4.106877,5.635181,6.704473,0.895326,-3.418515,-0.809628,3.726083,-2.886991,5.175989,0.038631,0.056103,0.068661,0.999387,0.018627,-0.014432,0.025875,0.428303,-0.045439,-0.220655,-0.875102,21.131489,-15.577487,-130.765743
63896,-0.319540,6.519099,8.874247,4.297686,0.874007,0.290479,3.480318,-2.696389,5.855775,-0.006277,0.063481,0.089786,0.999329,0.017398,-0.013479,0.029272,0.451467,-0.056239,-0.240155,-0.857520,22.348434,-18.258020,-128.104485
63897,1.180699,5.160588,5.673145,2.847053,-0.469927,-2.611268,3.013551,-2.859243,6.239462,0.009388,0.051060,0.057649,0.999298,0.015064,-0.014293,0.031190,0.475318,-0.069172,-0.257592,-0.838412,23.118511,-21.153396,-125.274027
63898,7.679408,5.268077,3.960197,-0.020225,-5.913808,-1.602657,2.481212,-1.968003,6.057952,0.074763,0.054463,0.041013,0.999416,0.012404,-0.009838,0.030284,0.498771,-0.079315,-0.270404,-0.819645,23.407902,-23.563168,-122.305563
63899,6.547544,2.401767,3.622734,-1.477656,-3.996572,-3.209995,1.754054,-0.857203,5.765280,0.064597,0.025568,0.036725,0.999537,0.008769,-0.004285,0.028822,0.521699,-0.086243,-0.277317,-0.802177,23.119975,-25.322632,-119.185678
63900,4.372797,0.049253,5.116437,-2.594296,-0.746086,-3.647210,1.962379,-0.032601,5.444426,0.043694,0.001180,0.051181,0.999581,0.009811,-0.000163,0.027218,0.544129,-0.088798,-0.282791,-0.784900,22.846661,-26.560642,-115.997873
63901,3.107548,1.301224,4.975415,-0.848335,-0.110054,-3.865206,2.227534,0.289558,5.176340,0.030807,0.013257,0.049856,0.999602,0.011136,0.001448,0.025878,0.565623,-0.088926,-0.288336,-0.767480,22.690908,-27.560003,-112.854862
63902,5.192582,3.501087,5.124991,0.546673,-2.093440,-2.015155,1.855896,0.818449,4.725387,0.051297,0.035752,0.051369,0.999669,0.009278,0.004092,0.023624,0.585586,-0.087352,-0.290931,-0.751544,22.332852,-28.166008,-109.820202
63903,4.541323,1.601240,5.041938,-0.853884,-1.297805,-3.016102,1.052985,1.321383,4.195411,0.045400,0.016700,0.050206,0.999744,0.005264,0.006606,0.020975,0.603580,-0.085430,-0.289118,-0.738108,21.582712,-28.367455,-106.967419
63904,3.770826,-1.940394,4.500844,-3.764206,-0.676100,-4.953428,1.204754,1.707209,3.700537,0.038444,-0.018966,0.044567,0.999774,0.006023,0.008535,0.018501,0.620095,-0.080857,-0.286752,-0.725753,21.013788,-28.228601,-104.317818
63905,3.136587,-1.686235,4.121394,-3.250093,-0.517563,-5.472842,1.653223,1.965264,3.119884,0.032029,-0.016704,0.040763,0.999796,0.008266,0.009826,0.015598,0.634780,-0.073108,-0.285342,-0.714346,20.854794,-27.820829,-101.969586
63906,5.737253,-1.141718,2.323018,-2.674646,-3.840389,-5.604323,1.680429,2.363227,2.382290,0.057773,-0.010921,0.022456,0.999824,0.008402,0.011815,0.011911,0.647175,-0.062754,-0.282910,-0.705116,20.900947,-27.044451,-99.986527
63907,5.887629,0.521222,3.703451,-1.406954,-3.477983,-3.932922,1.605690,3.216830,1.686195,0.059417,0.005419,0.036125,0.999803,0.008028,0.016083,0.008430,0.658056,-0.048651,-0.277582,-0.698243,21.042513,-25.675233,-98.241349
63908,1.903024,0.659334,4.935533,-1.109361,0.456230,-4.619027,1.218549,3.551380,1.133638,0.019866,0.006405,0.049047,0.999808,0.006092,0.017756,0.005668,0.667125,-0.033842,-0.269811,-0.693542,21.117185,-24.012532,-96.764626
63909,3.256517,0.116076,4.364066,-1.605532,-1.220134,-4.753695,0.912268,3.808907,0.591807,0.033385,0.001062,0.043015,0.999804,0.004561,0.019043,0.002959,0.674353,-0.018449,-0.260123,-0.690828,21.165243,-22.105895,-95.563015
63910,3.587890,0.179246,3.864303,-1.406096,-1.921807,-5.104914,0.896208,4.317823,0.160429,0.036701,0.001651,0.037864,0.999757,0.004481,0.021587,0.000802,0.680455,-0.000752,-0.248572,-0.689342,21.298637,-19.835523,-94.509510
63911,2.912442,1.561828,3.930007,-0.080372,-1.415936,-4.878054,1.050082,4.910034,-0.083613,0.030085,0.015402,0.038651,0.999685,0.005250,0.024548,-0.000418,0.686077,0.019775,-0.235416,-0.688103,21.565576,-17.206316,-93.469797
63912,1.239760,3.121392,4.333648,1.301988,0.148878,-4.489314,1.234183,5.379152,-0.094349,0.013575,0.030941,0.043173,0.999619,0.006170,0.026892,-0.000472,0.691716,0.042583,-0.221104,-0.686170,21.960687,-14.326267,-92.332442
63913,-0.688007,4.438000,4.993848,2.282295,2.002665,-3.822669,1.371507,5.679143,0.034383,-0.005461,0.044034,0.050410,0.999573,0.006857,0.028392,0.000172,0.697544,0.066680,-0.206093,-0.683017,22.457455,-11.328331,-91.050291
63914,-2.229416,5.666877,5.983982,2.937086,3.490893,-2.597066,1.389021,5.806830,0.142285,-0.020577,0.056233,0.060846,0.999554,0.006944,0.029030,0.000711,0.703255,0.091143,-0.190535,-0.678838,23.014682,-8.293642,-89.667049
63915,-3.690080,5.555832,7.033256,2.242106,4.728560,-1.655234,1.194071,5.760100,0.144499,-0.034889,0.055107,0.071687,0.999567,0.005969,0.028796,0.000722,0.708402,0.114651,-0.174331,-0.674262,23.530418,-5.300760,-88.275930
63916,-5.318626,4.288657,8.544700,0.241807,5.962207,-0.644389,0.915308,5.497657,-0.046632,-0.050798,0.042503,0.087060,0.999612,0.004576,0.027485,-0.000233,0.712255,0.136389,-0.157846,-0.670205,23.967938,-2.409221,-87.027036
63917,-6.142028,2.451372,9.332874,-1.968021,6.212517,-0.413726,0.910421,4.910475,-0.417374,-0.059052,0.024209,0.094909,0.999686,0.004552,0.024550,-0.002087,0.713908,0.156324,-0.143081,-0.667403,24.468384,0.250284,-86.089174
63918,-5.621484,1.569852,9.599796,-2.989087,5.175541,-0.300587,1.140018,4.260530,-0.817992,-0.054089,0.015371,0.097254,0.999748,0.005700,0.021301,-0.004090,0.713175,0.175124,-0.130998,-0.665997,25.133879,2.660302,-85.488474
63919,-3.573292,3.022751,9.742616,-1.695051,2.764641,0.497026,1.274711,3.830597,-1.384397,-0.033649,0.029841,0.098275,0.999772,0.006373,0.019152,-0.006921,0.709825,0.193252,-0.120327,-0.666576,25.875163,4.980223,-85.255783
63920,-3.049585,4.456297,10.429143,-0.744712,1.773630,1.772083,0.940457,3.514048,-1.691689,-0.028279,0.044316,0.105010,0.999799,0.004702,0.017569,-0.008458,0.705271,0.209249,-0.109328,-0.668473,26.413057,7.212118,-85.236637
63921,-2.061594,2.221999,8.408346,-1.846421,0.657417,-1.092796,0.838843,3.442120,-1.755781,-0.018970,0.022037,0.084512,0.999805,0.004194,0.017209,-0.008778,0.700301,0.224594,-0.098112,-0.670455,26.886822,9.424300,-85.247801
63922,-1.283991,3.803290,10.043236,-1.130568,-0.805944,0.912725,0.851658,3.689020,-2.219520,-0.010563,0.037730,0.100802,0.999759,0.004258,0.018444,-0.011097,0.693568,0.240946,-0.085531,-0.673493,27.340448,11.882622,-85.417407
63923,-3.390310,2.042551,9.753202,-2.741681,0.907285,0.308343,0.166664,3.644677,-2.731977,-0.031836,0.020788,0.098142,0.999740,0.000833,0.018222,-0.013659,0.685583,0.254863,-0.070114,-0.678310,27.329744,14.454767,-85.857038
63924,-5.029794,1.915756,10.100360,-3.070784,1.956324,1.036708,0.289979,3.661967,-3.193702,-0.048125,0.019790,0.101926,0.999704,0.001450,0.018308,-0.015967,0.675487,0.269291,-0.054452,-0.684277,27.305730,17.156088,-86.543912
63925,-7.025588,2.334736,10.876066,-3.071780,3.104989,2.596850,0.245130,3.399238,-3.338191,-0.067993,0.024361,0.109959,0.999716,0.001226,0.016995,-0.016689,0.664512,0.282539,-0.039262,-0.690691,27.169822,19.761997,-87.392851
63926,-7.244057,3.754193,11.670494,-2.060632,2.354625,4.078042,0.366880,3.049843,-3.474362,-0.069985,0.038556,0.117855,0.999731,0.001834,0.015248,-0.017370,0.652441,0.294868,-0.025475,-0.697656,27.002938,22.221631,-88.436791
63927,-8.155587,4.698233,12.324651,-1.387648,2.275594,5.463155,-0.100868,2.496706,-3.433562,-0.079186,0.048418,0.124221,0.999775,-0.000504,0.012483,-0.017167,0.640832,0.303575,-0.011858,-0.705008,26.458103,24.383896,-89.644825
63928,-6.624539,2.887135,12.211220,-2.760891,0.751807,4.084304,-0.282190,2.105719,-3.878357,-0.064377,0.030305,0.122755,0.999756,-0.001411,0.010528,-0.019390,0.627584,0.310223,0.001776,-0.714071,25.597020,26.440664,-91.267093
63929,-9.028710,1.501828,14.090781,-4.471544,2.031493,6.254967,-0.942197,1.493312,-4.516373,-0.088852,0.017701,0.141496,0.999706,-0.004711,0.007466,-0.022580,0.612775,0.312420,0.016893,-0.725683,24.018338,28.303255,-93.503341
63930,-10.167839,-1.084344,15.092308,-6.673309,2.930472,6.895956,-0.741215,0.704634,-5.570854,-0.101385,-0.007456,0.151312,0.999599,-0.003706,0.003523,-0.027851,0.593444,0.312085,0.030438,-0.741283,22.043369,29.921520,-96.682317
63931,-13.362575,0.852515,17.827222,-5.008186,3.724807,11.589445,-0.919724,-0.602596,-6.409263,-0.133780,0.013630,0.177814,0.999471,-0.004598,-0.003012,-0.032041,0.570968,0.305924,0.042127,-0.760679,19.416745,30.898984,-100.801765
63932,-13.065142,-0.570503,17.470319,-5.171362,4.035372,10.998584,-0.590642,-2.112271,-6.674991,-0.132568,-0.000788,0.173317,0.999383,-0.002953,-0.010559,-0.033368,0.546610,0.294588,0.048531,-0.782356,16.673266,30.930689,-105.474876
63933,-13.713647,2.043004,18.287958,-1.982726,3.382225,12.797415,0.234335,-3.584813,-6.356355,-0.139647,0.024630,0.180418,0.999334,0.001171,-0.017920,-0.031775,0.521986,0.279399,0.047255,-0.804509,14.408234,29.926631,-110.177178
63934,-11.153759,1.948650,14.378083,-0.297706,3.111899,8.217381,0.783793,-4.884250,-5.907665,-0.114375,0.022281,0.141094,0.999258,0.003918,-0.024415,-0.029531,0.497929,0.260177,0.039582,-0.826322,12.670899,27.995178,-114.684247
63935,-7.666802,5.921996,13.939547,2.662317,-1.238892,6.905801,0.943667,-5.187983,-6.284688,-0.078356,0.061013,0.137662,0.999159,0.004717,-0.025933,-0.031415,0.471435,0.239560,0.031027,-0.848173,11.096600,25.825496,-119.315700
63936,-7.852129,1.510921,12.638621,0.321900,1.955917,5.009059,0.220538,-5.337329,-6.219614,-0.081338,0.017472,0.124259,0.999160,0.001102,-0.026679,-0.031089,0.445262,0.216263,0.024947,-0.868533,9.362742,23.445667,-123.768244
63937,-6.465920,1.126180,9.895937,0.945678,2.082561,1.838148,1.735046,-5.585867,-5.526555,-0.067062,0.012245,0.097212,0.999191,0.008673,-0.027922,-0.027625,0.419817,0.194937,0.011046,-0.886359,8.866016,20.783773,-127.682512
63938,-3.716545,10.402581,8.031409,7.191724,-5.469176,0.429235,2.257512,-5.618046,-4.705856,-0.036977,0.103990,0.080448,0.999265,0.011285,-0.028083,-0.023524,0.396797,0.174357,-0.006156,-0.901174,9.042891,18.021113,-131.034257
63939,0.069689,12.944011,6.485573,7.024367,-9.780291,-1.774327,1.022749,-4.918993,-3.643058,0.001444,0.129084,0.065546,0.999519,0.005113,-0.024591,-0.018212,0.379233,0.154190,-0.017248,-0.912201,8.862321,15.558452,-133.638282
63940,1.872337,7.724052,4.056046,2.811977,-7.138143,-5.256811,0.655430,-3.999578,-2.463462,0.018852,0.076875,0.041189,0.999719,0.003277,-0.019996,-0.012316,0.367069,0.137339,-0.025901,-0.919635,8.782741,13.508411,-135.439343
63941,1.775677,7.081505,4.032843,2.370698,-6.562558,-5.243724,1.050717,-2.983917,-1.511912,0.017682,0.070467,0.040963,0.999846,0.005253,-0.014919,-0.007559,0.359019,0.125665,-0.035107,-0.924165,9.123226,11.950204,-136.582938
63942,-0.276639,7.014357,6.690383,3.067671,-5.120361,-2.170113,1.001891,-2.067054,-0.758612,-0.003195,0.069819,0.067223,0.999927,0.005009,-0.010335,-0.003793,0.354522,0.118014,-0.042951,-0.926576,9.569454,10.850273,-137.213898
63943,-6.261797,5.054481,9.652461,5.425107,0.462184,1.513340,0.972120,-1.933747,-0.194818,-0.063500,0.050138,0.096158,0.999941,0.004861,-0.009669,-0.000974,0.352663,0.110759,-0.050728,-0.927786,10.066329,9.772778,-137.512360
63944,-7.393887,6.424327,12.113509,6.676886,0.455050,4.254335,0.772369,-2.470762,-0.002790,-0.075429,0.063778,0.120456,0.999916,0.003862,-0.012353,-0.000014,0.351593,0.100628,-0.058644,-0.928880,10.465643,8.378141,-137.766734
