PacketCounter,Acc_X,Acc_Y,Acc_Z,FreeAcc_E,FreeAcc_N,FreeAcc_U,Gyr_X,Gyr_Y,Gyr_Z,VelInc_X,VelInc_Y,VelInc_Z,OriInc_q0,OriInc_q1,OriInc_q2,OriInc_q3,Quat_q0,Quat_q1,Quat_q2,Quat_q3,Roll,Pitch,Yaw
11748,-6.715847,3.218639,11.299471,-1.345337,0.120447,3.652616,0.043636,1.034127,0.294429,-0.066620,0.032063,0.113347,0.999986,0.000218,0.005171,0.001472,-0.801296,-0.272167,-0.104945,0.522337,21.479905,26.904832,-61.002402
11749,-6.076765,3.343023,11.174595,-0.929715,-0.377322,3.300936,0.006683,0.699361,0.251414,-0.060418,0.033350,0.111959,0.999993,0.000033,0.003497,0.001257,-0.801608,-0.274114,-0.107390,0.520340,21.624452,27.221674,-60.681691
11750,-4.709860,3.631764,11.378348,-0.078479,-1.524149,2.935247,-0.156595,0.498667,0.126589,-0.046838,0.036377,0.113872,0.999996,-0.000783,0.002493,0.000633,-0.801919,-0.274816,-0.109616,0.519024,21.621885,27.456757,-60.482205
11751,-4.097039,2.716691,11.314156,-0.582695,-2.284386,2.295908,-0.239730,0.407485,-0.000955,-0.040740,0.027303,0.113192,0.999997,-0.001199,0.002037,-0.000005,-0.802058,-0.274874,-0.111876,0.518297,21.526099,27.671086,-60.381018
11752,-3.859114,2.162680,11.318924,-0.934466,-2.674348,2.005199,-0.142801,0.351782,-0.092366,-0.038382,0.021725,0.113241,0.999998,-0.000714,0.001759,-0.000462,-0.801854,-0.275126,-0.113778,0.518064,21.455145,27.874230,-60.348131
11753,-3.934518,2.160076,11.261136,-0.939179,-2.616993,1.986835,0.059321,0.279248,-0.157823,-0.039171,0.021598,0.112673,0.999999,0.000297,0.001396,-0.000789,-0.801241,-0.275959,-0.114963,0.518308,21.472413,28.053071,-60.372320
11754,-4.342995,2.694003,11.294988,-0.637983,-2.188090,2.373419,0.204355,0.165073,-0.214424,-0.043308,0.026871,0.113013,0.999999,0.001022,0.000825,-0.001072,-0.800345,-0.277048,-0.115384,0.519017,21.544899,28.182320,-60.457496
11755,-4.729749,3.385348,11.201183,-0.183162,-1.649107,2.699086,0.233311,0.022470,-0.258580,-0.047241,0.033784,0.112057,0.999998,0.001167,0.000112,-0.001293,-0.799375,-0.277849,-0.115228,0.520118,21.603905,28.245449,-60.603805
11756,-4.981680,3.823233,10.982104,0.117591,-1.204439,2.780023,0.137409,-0.147371,-0.289569,-0.049842,0.038229,0.109811,0.999998,0.000687,-0.000737,-0.001448,-0.798552,-0.277814,-0.114678,0.521519,21.581064,28.224197,-60.809075
11757,-4.372531,4.161801,10.768500,0.706382,-1.433268,2.428510,0.013308,-0.319038,-0.312948,-0.043832,0.041679,0.107618,0.999998,0.000067,-0.001595,-0.001565,-0.797937,-0.276814,-0.113804,0.523182,21.460086,28.116479,-61.069752
11758,-3.598759,4.341157,10.740169,1.209853,-1.924721,2.102827,-0.153948,-0.402735,-0.318960,-0.036134,0.043552,0.107296,0.999996,-0.000770,-0.002014,-0.001595,-0.797580,-0.274930,-0.113035,0.524884,21.234426,27.964308,-61.352660
11759,-3.179006,3.970160,10.686046,1.079238,-2.283598,1.749320,-0.268078,-0.399035,-0.284327,-0.031946,0.039890,0.106743,0.999996,-0.001340,-0.001995,-0.001422,-0.797463,-0.272609,-0.112538,0.526376,20.953501,27.806029,-61.613126
11760,-3.267587,3.998166,10.598636,1.098963,-2.106579,1.734947,-0.286466,-0.411000,-0.201470,-0.032853,0.040166,0.105862,0.999996,-0.001432,-0.002055,-0.001007,-0.797590,-0.270237,-0.111921,0.527538,20.686643,27.623215,-61.824416
11761,-3.429915,4.253460,10.492569,1.294504,-1.789205,1.809400,-0.334397,-0.424699,-0.118443,-0.034496,0.042730,0.104781,0.999996,-0.001672,-0.002123,-0.000592,-0.798002,-0.267673,-0.111268,0.528359,20.414064,27.415398,-61.987831
11762,-3.886695,3.974632,10.345060,0.889154,-1.370318,1.817256,-0.380515,-0.467044,-0.028511,-0.039103,0.039948,0.103284,0.999995,-0.001903,-0.002335,-0.000143,-0.798730,-0.264869,-0.110441,0.528845,20.138197,27.166354,-62.104268
11763,-4.237420,4.013481,10.180323,0.812952,-0.920735,1.857513,-0.391692,-0.539519,0.052926,-0.042659,0.040323,0.101610,0.999994,-0.001958,-0.002698,0.000265,-0.799721,-0.261863,-0.109249,0.529093,19.871017,26.861585,-62.186440
11764,-4.403483,4.037038,9.937723,0.802804,-0.569533,1.740544,-0.431396,-0.623369,0.109302,-0.044366,0.040560,0.099152,0.999993,-0.002157,-0.003117,0.000547,-0.800947,-0.258512,-0.107748,0.529194,19.590733,26.500601,-62.250250
11765,-4.334278,4.186250,9.777312,0.996428,-0.399899,1.622036,-0.515711,-0.684831,0.122685,-0.043703,0.042087,0.097516,0.999991,-0.002579,-0.003424,0.000613,-0.802338,-0.254654,-0.106207,0.529269,19.260150,26.103208,-62.317307
11766,-4.699833,3.862908,9.703456,0.577596,-0.068159,1.625333,-0.589231,-0.731205,0.113442,-0.047374,0.038888,0.096747,0.999989,-0.002946,-0.003656,0.000567,-0.803805,-0.250378,-0.104683,0.529387,18.883712,25.682423,-62.396016
11767,-4.787767,3.647307,9.641623,0.372695,0.077588,1.546908,-0.603343,-0.830406,0.087404,-0.048293,0.036742,0.096106,0.999987,-0.003017,-0.004152,0.000437,-0.805253,-0.245754,-0.102828,0.529716,18.484715,25.211703,-62.507664
11768,-4.775143,3.405970,9.506983,0.190358,0.177315,1.354964,-0.576462,-0.919918,0.061254,-0.048198,0.034318,0.094750,0.999985,-0.002882,-0.004600,0.000306,-0.806622,-0.240989,-0.100569,0.530256,18.090698,24.696708,-62.648139
11769,-4.479325,3.261510,9.241359,0.219911,0.145470,0.959210,-0.506318,-1.008374,0.022488,-0.045262,0.032843,0.092103,0.999984,-0.002532,-0.005042,0.000112,-0.807823,-0.236237,-0.097813,0.531081,17.722135,24.139073,-62.825103
11770,-3.637385,3.927527,9.261852,1.178652,-0.211168,0.817596,-0.474576,-1.040110,-0.042013,-0.036846,0.039502,0.092334,0.999984,-0.002373,-0.005201,-0.000210,-0.808804,-0.231499,-0.094916,0.532199,17.358284,23.574628,-63.041384
11771,-3.036470,4.009865,9.496347,1.492787,-0.668516,0.808203,-0.530457,-0.990944,-0.107334,-0.030813,0.040367,0.094705,0.999984,-0.002652,-0.004955,-0.000537,-0.809626,-0.226618,-0.092439,0.533483,16.953480,23.046385,-63.283025
11772,-2.844867,3.333654,9.691287,0.954841,-1.028130,0.730456,-0.443484,-0.910153,-0.095918,-0.028873,0.033565,0.096708,0.999987,-0.002217,-0.004551,-0.000480,-0.810320,-0.222312,-0.090042,0.534651,16.611512,22.559579,-63.498235
11773,-3.219189,3.302736,9.918333,0.752122,-0.732355,1.075002,-0.236876,-0.865416,-0.020704,-0.032617,0.033148,0.099004,0.999990,-0.001184,-0.004327,-0.000104,-0.810946,-0.218983,-0.087187,0.535548,16.409883,22.083605,-63.658140
11774,-3.823725,3.587500,10.192663,0.715103,-0.163389,1.625953,-0.057252,-0.895593,0.080064,-0.038707,0.035889,0.101744,0.999990,-0.000286,-0.004478,0.000400,-0.811641,-0.216349,-0.083617,0.536135,16.334243,21.574974,-63.761346
11775,-4.466392,4.179477,10.335579,0.931876,0.609065,2.145586,0.026042,-1.004860,0.183066,-0.045221,0.041740,0.103135,0.999987,0.000130,-0.005024,0.000915,-0.812549,-0.213790,-0.079266,0.536446,16.321906,20.988972,-63.822317
11776,-4.778113,4.422382,10.295354,0.974679,1.090579,2.280329,-0.051772,-1.172479,0.250961,-0.048439,0.044190,0.102659,0.999982,-0.000259,-0.005862,0.001255,-0.813763,-0.210494,-0.074368,0.536610,16.270577,20.300469,-63.871117
11777,-4.496552,4.124595,9.926767,0.808293,1.052956,1.763486,-0.163833,-1.343497,0.284359,-0.045689,0.041262,0.098929,0.999976,-0.000819,-0.006717,0.001422,-0.815215,-0.206279,-0.069036,0.536757,16.152122,19.511875,-63.928546
11778,-3.678679,4.114309,9.611797,1.126069,0.643123,1.194716,-0.261236,-1.462186,0.278547,-0.037545,0.041216,0.095792,0.999971,-0.001306,-0.007311,0.001393,-0.816748,-0.201343,-0.063486,0.536985,15.972519,18.659307,-64.006418
11779,-2.577757,4.354732,9.759457,1.748961,-0.106847,1.040096,-0.411006,-1.478477,0.236628,-0.026549,0.043716,0.097310,0.999970,-0.002055,-0.007392,0.001183,-0.818277,-0.195721,-0.058307,0.537323,15.700408,17.803474,-64.107698
11780,-3.281122,4.331689,10.748950,1.299613,0.284231,2.157968,-0.502635,-1.442437,0.216305,-0.033632,0.043550,0.107140,0.999970,-0.002513,-0.007212,0.001082,-0.819781,-0.189808,-0.053540,0.537648,15.377539,16.970725,-64.209476
11781,-5.062405,4.505522,12.501866,0.495707,1.452384,4.324630,-0.648012,-1.665383,0.203405,-0.051708,0.045407,0.124444,0.999960,-0.003240,-0.008327,0.001017,-0.821390,-0.182678,-0.048256,0.538162,14.962179,16.015408,-64.347766
11782,-5.722288,3.547772,13.356355,-0.762089,1.683324,5.029791,-0.767554,-2.166927,0.232566,-0.058706,0.035921,0.132796,0.999933,-0.003838,-0.010834,0.001163,-0.823219,-0.173701,-0.041205,0.538926,14.467922,14.777497,-64.536095
11783,-5.082614,2.397248,13.056850,-1.539422,1.179851,4.268717,-0.710062,-2.705513,0.248784,-0.052615,0.024369,0.129779,0.999901,-0.003550,-0.013527,0.001244,-0.825015,-0.163479,-0.031760,0.540015,13.996862,13.236226,-64.781599
11784,-3.543641,1.398109,12.049858,-1.751357,0.157314,2.701550,-0.514915,-3.080664,0.228825,-0.037303,0.014248,0.119897,0.999877,-0.002574,-0.015403,0.001144,-0.826475,-0.153014,-0.020251,0.541402,13.633962,11.487737,-65.077665
11785,-2.775305,0.498503,10.971908,-2.208172,-0.192188,1.296286,-0.187124,-3.246617,0.208562,-0.029534,0.005057,0.109245,0.999867,-0.000936,-0.016232,0.001043,-0.827434,-0.143408,-0.007179,0.542895,13.463111,9.647843,-65.397882
11786,-1.856358,0.531664,9.508945,-1.720590,-0.326058,-0.269447,0.201930,-3.299580,0.148853,-0.020133,0.005206,0.094771,0.999863,0.001010,-0.016497,0.000744,-0.827730,-0.135232,0.007126,0.544540,13.520207,7.786467,-65.755142
11787,-0.798510,1.663009,8.338371,-0.223349,-0.349596,-1.283116,0.420674,-3.160165,0.053888,-0.009306,0.016452,0.083278,0.999873,0.002103,-0.015800,0.000269,-0.827407,-0.128303,0.021384,0.546332,13.708818,6.015984,-66.149339
11788,-0.659057,2.851279,7.833109,0.865553,0.273374,-1.500436,0.346268,-2.907512,-0.078495,-0.007718,0.028380,0.078274,0.999893,0.001731,-0.014537,-0.000392,-0.826602,-0.121746,0.034303,0.548389,13.863033,4.405652,-66.586814
11789,-0.279365,3.454180,7.737407,1.478883,0.352665,-1.472292,0.094500,-2.628590,-0.210385,-0.003774,0.034509,0.077345,0.999913,0.000472,-0.013143,-0.001052,-0.825476,-0.114906,0.045293,0.550759,13.881642,2.968915,-67.061048
11790,-0.731076,3.409592,8.236737,1.093970,0.860170,-0.977299,-0.124719,-2.351281,-0.288123,-0.008229,0.034159,0.082253,0.999930,-0.000624,-0.011756,-0.001441,-0.824194,-0.107930,0.054483,0.553252,13.786267,1.697119,-67.538887
11791,-1.827524,2.808772,8.893400,-0.050725,1.761666,-0.473936,-0.210583,-2.248887,-0.293887,-0.019232,0.028209,0.088692,0.999935,-0.001053,-0.011244,-0.001469,-0.822859,-0.100866,0.063003,0.555662,13.651872,0.481816,-68.003241
11792,-1.826141,2.171308,9.103775,-0.718475,1.703579,-0.458217,-0.077540,-2.275518,-0.209559,-0.019273,0.021768,0.090814,0.999935,-0.000388,-0.011377,-0.001048,-0.821575,-0.094240,0.072037,0.557624,13.604001,-0.760105,-68.422136
11793,-2.806922,2.813966,9.827637,-0.727700,2.997866,0.329219,0.139506,-2.346643,-0.101911,-0.029206,0.028086,0.097958,0.999931,0.000698,-0.011733,-0.000510,-0.820353,-0.088252,0.082008,0.559024,13.688132,-2.056223,-68.791230
11794,-4.141871,3.748793,10.678957,-0.642835,4.772878,1.234820,0.044073,-2.668182,-0.057978,-0.042828,0.037477,0.106233,0.999911,0.000220,-0.013341,-0.000290,-0.819033,-0.080946,0.093038,0.560336,13.727955,-3.536710,-69.181260
11795,-2.120084,2.712044,9.653511,-0.684350,2.815875,0.017645,-0.176193,-2.995012,-0.066515,-0.022634,0.027213,0.096179,0.999887,-0.000881,-0.014974,-0.000333,-0.817462,-0.071809,0.104764,0.561804,13.655663,-5.197927,-69.620657
11796,0.274725,0.955590,7.698789,-1.016006,0.198383,-2.119580,-0.167412,-3.005018,-0.081200,0.001594,0.009620,0.077010,0.999887,-0.000837,-0.015025,-0.000406,-0.815656,-0.062672,0.116530,0.563204,13.602391,-6.863376,-70.069064
11797,1.579582,0.323196,6.381990,-0.874545,-1.091993,-3.380787,0.062652,-2.748918,-0.102954,0.014918,0.003204,0.064030,0.999905,0.000313,-0.013744,-0.000515,-0.813696,-0.055193,0.127864,0.564361,13.690200,-8.382847,-70.496600
11798,1.536103,1.003309,6.614186,-0.413560,-0.643733,-2.991684,0.272915,-2.371765,-0.123171,0.014581,0.009934,0.066331,0.999929,0.001365,-0.011859,-0.000616,-0.811726,-0.049639,0.138234,0.565268,13.903765,-9.688884,-70.889109
11799,-0.549281,2.006816,8.063681,-0.665163,1.911799,-1.734817,0.358819,-2.172779,-0.098565,-0.006359,0.019927,0.080607,0.999939,0.001794,-0.010864,-0.000493,-0.809836,-0.044970,0.148023,0.565891,14.168293,-10.885857,-71.246424
11800,-1.680177,3.651237,9.748429,-0.104826,3.879512,-0.008569,0.225419,-2.267678,-0.087187,-0.017890,0.036410,0.097327,0.999935,0.001127,-0.011338,-0.000436,-0.807834,-0.039480,0.157807,0.566517,14.367061,-12.135948,-71.617565
11801,-2.914434,3.600565,11.204019,-1.017888,5.401018,0.993505,-0.295390,-2.537315,-0.178216,-0.030530,0.036197,0.111605,0.999918,-0.001477,-0.012686,-0.000891,-0.805348,-0.031189,0.167158,0.567891,14.296293,-13.521914,-72.082757
11802,-2.209730,-0.230563,10.437679,-4.060859,3.570879,-0.613202,-0.474241,-3.017990,-0.274001,-0.023672,-0.002027,0.104033,0.999882,-0.002371,-0.015089,-0.001370,-0.802053,-0.020887,0.177894,0.569762,14.166437,-15.162636,-72.673476
11803,1.577059,-1.503450,8.102257,-3.463117,-0.479969,-2.186144,-0.011296,-3.269873,-0.386069,0.014414,-0.015059,0.081266,0.999864,-0.000056,-0.016349,-0.001930,-0.797965,-0.011820,0.190893,0.571552,14.347916,-16.926238,-73.371013
11804,2.943173,-0.510778,6.575303,-1.811120,-1.468477,-2.977712,0.417471,-3.076570,-0.524631,0.028402,-0.005321,0.066184,0.999876,0.002087,-0.015382,-0.002623,-0.793431,-0.005143,0.204297,0.573326,14.816194,-18.559766,-74.137219
11805,2.775026,1.291172,6.505047,-0.318065,-0.539359,-2.651114,0.595286,-2.771240,-0.674405,0.026888,0.012626,0.065465,0.999894,0.002976,-0.013856,-0.003372,-0.788596,-0.000199,0.216939,0.575373,15.425639,-19.994199,-74.965381
11806,0.951252,3.291654,8.162918,0.375010,2.365373,-1.290108,0.451820,-2.568134,-0.763502,0.008588,0.032698,0.081817,0.999908,0.002259,-0.012840,-0.003817,-0.783565,0.004630,0.228334,0.577813,15.986998,-21.295609,-75.835849
11807,0.021312,3.064167,9.033154,-0.424449,3.545232,-0.967650,0.047528,-2.681772,-0.815680,-0.000873,0.030622,0.090332,0.999902,0.000238,-0.013408,-0.004078,-0.778100,0.011310,0.238954,0.580805,16.360740,-22.643604,-76.775474
11808,2.580260,1.103332,7.331379,-1.124409,0.300919,-2.049593,-0.010246,-2.818229,-0.801783,0.024810,0.010936,0.073668,0.999893,-0.000051,-0.014091,-0.004009,-0.772344,0.018626,0.249898,0.583686,16.737088,-24.064016,-77.750836
11809,5.700831,1.096878,5.294764,0.110703,-2.969369,-2.539152,0.196977,-2.557589,-0.788849,0.056367,0.010693,0.053682,0.999910,0.000985,-0.012788,-0.003944,-0.766823,0.024392,0.260377,0.586166,17.238131,-25.335785,-78.691797
11810,6.232240,2.346916,4.857961,1.383077,-3.079029,-2.292515,0.271875,-2.018129,-0.794392,0.061920,0.023156,0.049237,0.999940,0.001359,-0.010090,-0.003972,-0.761879,0.028281,0.268982,0.588549,17.765459,-26.305164,-79.555044
11811,4.980574,2.752349,6.000544,1.015032,-1.351070,-1.717558,0.261135,-1.556281,-0.707875,0.049433,0.027269,0.060427,0.999963,0.001306,-0.007781,-0.003539,-0.757738,0.030965,0.275747,0.590624,18.239453,-27.030585,-80.289037
11812,3.567324,3.172384,7.252899,0.627416,0.566178,-1.170980,0.334626,-1.386171,-0.481978,0.035245,0.031517,0.072827,0.999972,0.001673,-0.006931,-0.002410,-0.754457,0.033178,0.282042,0.591731,18.690067,-27.700002,-80.861931
11813,4.234494,4.062865,7.560869,1.344518,0.457577,-0.347684,0.268524,-1.349078,-0.264706,0.041887,0.040471,0.075947,0.999975,0.001343,-0.006745,-0.001324,-0.751824,0.035835,0.287941,0.592086,19.045680,-28.385257,-81.301741
11814,5.365199,2.978414,6.999340,0.666970,-0.972495,-0.579298,0.161354,-1.213448,-0.095120,0.053240,0.029702,0.070341,0.999981,0.000807,-0.006067,-0.000476,-0.749833,0.038736,0.292980,0.591956,19.284311,-29.027690,-81.615359
11815,5.299702,2.472791,6.714826,0.261558,-1.092281,-0.979331,0.253578,-1.034074,0.041847,0.052644,0.024654,0.067452,0.999986,0.001268,-0.005170,0.000209,-0.748507,0.040960,0.297574,0.591193,19.519539,-29.597450,-81.809150
11816,4.977994,2.827753,6.737345,0.494766,-0.624434,-1.007393,0.258857,-0.842526,0.132521,0.049477,0.028223,0.067619,0.999990,0.001294,-0.004213,0.000663,-0.747713,0.042732,0.301450,0.590108,19.712677,-30.081294,-81.908197
11817,4.350321,2.406341,6.674392,0.030852,-0.176893,-1.492186,0.200267,-0.673727,0.174571,0.043257,0.024034,0.066914,0.999993,0.001001,-0.003369,0.000873,-0.747276,0.044287,0.304500,0.588980,19.840788,-30.481463,-81.944462
11818,4.419527,2.305376,6.352162,0.056962,-0.353449,-1.746177,0.173352,-0.532162,0.200664,0.044003,0.023043,0.063659,0.999996,0.000867,-0.002661,0.001003,-0.747114,0.045565,0.306940,0.587820,19.930313,-30.810955,-81.933989
11819,4.890565,2.061345,5.790104,0.107819,-1.032673,-2.027190,0.161636,-0.322333,0.228257,0.048789,0.020622,0.057996,0.999998,0.000808,-0.001612,0.001141,-0.747350,0.046313,0.308547,0.586619,19.979040,-31.032302,-81.858153
11820,4.888411,2.319578,5.736129,0.358619,-0.953985,-1.993386,0.191014,-0.053897,0.268968,0.048837,0.023207,0.057397,0.999999,0.000955,-0.000269,0.001345,-0.748121,0.046226,0.309233,0.585281,20.000337,-31.117672,-81.696020
11821,4.259967,2.586962,6.048035,0.397295,-0.198714,-1.988297,0.176917,0.174630,0.325503,0.042610,0.025885,0.060466,0.999998,0.000885,0.000873,0.001628,-0.749408,0.045611,0.309002,0.583803,19.967318,-31.090588,-81.445400
11822,4.096050,2.542525,6.481247,0.166896,0.105623,-1.737441,0.161871,0.332985,0.394787,0.041018,0.025454,0.064765,0.999996,0.000809,0.001665,0.001974,-0.751130,0.044696,0.308123,0.582122,19.885715,-30.991977,-81.115940
11823,3.740855,2.101943,6.552781,-0.296490,0.281942,-1.990689,0.242465,0.420914,0.480350,0.037496,0.021030,0.065474,0.999994,0.001212,0.002105,0.002402,-0.753251,0.043354,0.307120,0.580009,19.812530,-30.861791,-80.712752
11824,3.932023,2.451088,6.505268,0.072654,0.193602,-1.828682,0.340951,0.505000,0.558027,0.039416,0.024510,0.064995,0.999991,0.001705,0.002525,0.002790,-0.755734,0.041516,0.306071,0.577463,19.763113,-30.701423,-80.243190
11825,3.316233,3.000647,7.277214,0.162424,1.194508,-1.356575,0.351921,0.598490,0.616024,0.033288,0.029981,0.072725,0.999989,0.001760,0.002992,0.003080,-0.758518,0.039455,0.304676,0.574688,19.691884,-30.500940,-79.716772
11826,2.240737,3.514914,8.795699,-0.170489,2.878535,-0.516195,0.158664,0.488270,0.588292,0.022519,0.035146,0.087930,0.999992,0.000793,0.002441,0.002941,-0.760999,0.038400,0.303150,0.572282,19.533973,-30.354190,-79.234281
11827,3.387614,2.186905,8.786720,-1.152587,1.432762,-0.321450,-0.055233,0.311443,0.495976,0.033958,0.021977,0.087808,0.999996,-0.000276,0.001557,0.002480,-0.762901,0.038523,0.301691,0.570509,19.303064,-30.283328,-78.849116
11828,4.044219,1.473750,8.197268,-1.408715,0.383836,-0.669876,-0.065181,0.207141,0.359845,0.040500,0.014837,0.081926,0.999998,-0.000326,0.001036,0.001799,-0.764247,0.038777,0.300634,0.569247,19.122156,-30.242707,-78.573106
11829,4.551835,1.782106,7.758938,-0.842170,-0.123050,-0.681871,-0.060825,0.221485,0.181388,0.045588,0.017886,0.077533,0.999999,-0.000304,0.001107,0.000907,-0.765108,0.038705,0.299559,0.568661,18.998074,-30.159521,-78.405425
11830,4.385917,2.322049,7.749451,-0.365107,0.188468,-0.619577,-0.106728,0.267514,0.055888,0.043956,0.023274,0.077423,0.999999,-0.000534,0.001338,0.000279,-0.765668,0.038490,0.298209,0.568632,18.883374,-30.028523,-78.307525
11831,4.338022,2.736310,7.803236,-0.002362,0.376446,-0.482387,-0.192685,0.298066,0.011076,0.043495,0.027441,0.077941,0.999998,-0.000963,0.001490,0.000055,-0.766131,0.038449,0.296497,0.568907,18.729820,-29.871694,-78.230943
11832,4.516550,2.518961,7.826699,-0.147146,0.136192,-0.433919,-0.209916,0.336671,0.013564,0.045295,0.025275,0.078164,0.999998,-0.001050,0.001683,0.000068,-0.766648,0.038369,0.294596,0.569203,18.562895,-29.694966,-78.146002
11833,4.311782,2.351003,7.978871,-0.369084,0.287056,-0.455213,-0.129497,0.360579,0.055070,0.043255,0.023574,0.079696,0.999998,-0.000647,0.001803,0.000275,-0.767335,0.037973,0.292814,0.569224,18.426527,-29.511788,-78.030102
11834,4.807334,2.833313,8.163687,0.100881,0.079109,0.075051,-0.074779,0.371298,0.062896,0.048216,0.028379,0.081537,0.999998,-0.000374,0.001856,0.000314,-0.768063,0.037349,0.291153,0.569135,18.319474,-29.324789,-77.908462
11835,4.655515,2.740779,8.628489,-0.175630,0.327352,0.360728,-0.044855,0.393614,0.089910,0.046712,0.027448,0.086187,0.999998,-0.000224,0.001968,0.000450,-0.768907,0.036584,0.289476,0.568900,18.218948,-29.129486,-77.765292
11836,4.889198,3.307493,9.108441,0.200439,0.483639,1.028591,0.033625,0.328043,0.152839,0.049016,0.033097,0.091010,0.999998,0.000168,0.001640,0.000764,-0.769843,0.035796,0.288270,0.568296,18.152323,-28.981771,-77.597622
11837,5.304326,3.778924,9.345282,0.624355,0.365076,1.555130,-0.024401,0.275540,0.204890,0.053133,0.037855,0.093375,0.999999,-0.000122,0.001378,0.001024,-0.770843,0.035454,0.287083,0.567563,18.041723,-28.870828,-77.408007
11838,5.404746,3.399642,9.529442,0.255475,0.203768,1.653448,-0.099818,0.210037,0.226361,0.054109,0.034105,0.095221,0.999999,-0.000499,0.001050,0.001132,-0.771789,0.035621,0.285938,0.566844,17.889111,-28.799860,-77.219407
11839,5.589601,2.830686,9.400262,-0.139254,-0.209293,1.481475,-0.089507,0.133212,0.223120,0.055927,0.028411,0.093953,0.999999,-0.000448,0.000666,0.001116,-0.772621,0.035960,0.285110,0.566106,17.750344,-28.768934,-77.047821
11840,5.288264,2.927852,9.477732,-0.119695,0.113228,1.427343,-0.104466,0.071628,0.157943,0.052893,0.029370,0.094743,0.999999,-0.000522,0.000358,0.000790,-0.773172,0.036439,0.284498,0.565630,17.629252,-28.760812,-76.929833
11841,5.155214,2.186764,9.201050,-0.680086,-0.138488,0.936069,-0.151389,0.010972,0.057068,0.051551,0.021952,0.091991,1.000000,-0.000757,0.000055,0.000285,-0.773347,0.037126,0.283997,0.565599,17.516562,-28.767290,-76.886018
11842,4.988592,1.960206,8.763072,-0.730931,-0.238370,0.430789,-0.070637,-0.024043,-0.030283,0.049878,0.019625,0.087630,1.000000,-0.000353,-0.000120,-0.000151,-0.773235,0.037477,0.283885,0.565785,17.480381,-28.778675,-76.904199
11843,4.848740,2.390591,8.381716,-0.219164,-0.109091,0.158192,-0.039545,-0.006996,-0.107089,0.048497,0.023897,0.083814,1.000000,-0.000198,-0.000035,-0.000535,-0.772940,0.037550,0.283800,0.566225,17.482649,-28.766665,-76.966204
11844,4.909664,2.714641,8.160883,0.171279,-0.135023,0.088146,-0.058532,0.046385,-0.171646,0.049139,0.027128,0.081589,1.000000,-0.000293,0.000232,-0.000858,-0.772530,0.037454,0.283476,0.566953,17.489108,-28.715230,-77.058655
11845,4.928032,2.692510,8.346500,0.083756,-0.100684,0.246239,-0.064470,0.112559,-0.188015,0.049353,0.026906,0.083429,0.999999,-0.000322,0.000563,-0.000940,-0.772170,0.037170,0.282873,0.567764,17.489887,-28.623960,-77.147541
11846,4.943234,3.139749,8.785669,0.316095,0.194480,0.739270,-0.002272,0.105787,-0.153928,0.049503,0.031360,0.087830,1.000000,-0.000011,0.000529,-0.000770,-0.771903,0.036714,0.282475,0.568353,17.517430,-28.543094,-77.217152
11847,5.372649,3.353035,9.102407,0.466610,0.007011,1.266312,-0.010559,0.088313,-0.098074,0.053783,0.033509,0.090999,1.000000,-0.000053,0.000442,-0.000490,-0.771773,0.036417,0.282102,0.568735,17.524391,-28.480548,-77.254699
11848,5.210493,3.125826,9.153434,0.210463,0.077075,1.171626,0.043365,0.041816,-0.019974,0.052127,0.031233,0.091530,1.000000,0.000217,0.000209,-0.000100,-0.771804,0.036156,0.282056,0.568731,17.544204,-28.457722,-77.253497
11849,5.181569,3.355914,9.046972,0.450160,0.140577,1.129712,0.081659,0.001183,0.048750,0.051808,0.033535,0.090483,1.000000,0.000408,0.000006,0.000244,-0.771985,0.035958,0.282255,0.568400,17.568665,-28.468134,-77.216903
11850,5.068909,3.057666,8.622946,0.324144,-0.024696,0.641627,0.082597,-0.000825,0.091405,0.050675,0.030564,0.086242,1.000000,0.000413,-0.000004,0.000457,-0.772280,0.035823,0.282465,0.567903,17.581948,-28.487869,-77.154863
11851,4.699492,2.963969,8.313201,0.287332,0.144928,0.181115,0.118626,0.025576,0.132120,0.046986,0.029621,0.083144,1.000000,0.000593,0.000128,0.000661,-0.772737,0.035531,0.282660,0.567202,17.600608,-28.499420,-77.061679
11852,4.428264,2.747301,8.156446,0.099586,0.241621,-0.137126,0.110807,0.075336,0.145569,0.044293,0.027460,0.081563,1.000000,0.000554,0.000377,0.000728,-0.773297,0.035148,0.282646,0.566469,17.606820,-28.486974,-76.950969
11853,3.877837,2.637772,8.093795,-0.083858,0.646818,-0.481044,0.112605,0.102603,0.134168,0.038802,0.026358,0.080933,0.999999,0.000563,0.000513,0.000671,-0.773867,0.034663,0.282525,0.565781,17.614256,-28.456830,-76.841362
11854,3.890884,2.630615,7.860644,0.006728,0.539722,-0.671709,0.047443,0.138777,0.106309,0.038949,0.026308,0.078586,1.000000,0.000237,0.000694,0.000532,-0.774393,0.034290,0.282092,0.565300,17.589959,-28.402932,-76.742601
11855,4.124131,2.503980,7.629206,0.039699,0.198096,-0.788148,-0.006303,0.198681,0.058611,0.041310,0.025054,0.076250,0.999999,-0.000032,0.000993,0.000293,-0.774863,0.033887,0.281275,0.565087,17.542855,-28.307117,-76.661156
11856,4.544995,2.402242,7.696731,0.018599,-0.191078,-0.559012,-0.024894,0.281385,0.023196,0.045555,0.024037,0.076900,0.999999,-0.000124,0.001407,0.000116,-0.775340,0.033274,0.280100,0.565052,17.488719,-28.160836,-76.586300
11857,4.603337,2.429186,8.101897,-0.093532,-0.107337,-0.183978,0.024438,0.345677,0.023982,0.046170,0.024287,0.080942,0.999998,0.000122,0.001728,0.000120,-0.775921,0.032287,0.278805,0.564954,17.456385,-27.978613,-76.498047
11858,3.898372,2.740542,9.004409,-0.309649,0.910642,0.329405,0.100974,0.327446,0.062608,0.039123,0.027372,0.089994,0.999998,0.000505,0.001637,0.000313,-0.776591,0.031111,0.277798,0.564595,17.459348,-27.813864,-76.390262
11859,3.235515,3.110016,9.602875,-0.352726,1.809555,0.625562,0.102799,0.157747,0.110715,0.032414,0.031069,0.096019,0.999999,0.000514,0.000789,0.000554,-0.777163,0.030471,0.277439,0.564018,17.464473,-27.749214,-76.285211
11860,3.855212,2.854228,9.210958,-0.295780,1.039675,0.516040,0.029899,-0.005905,0.125622,0.038531,0.028553,0.092115,1.000000,0.000149,-0.000030,0.000628,-0.777535,0.030598,0.277516,0.563460,17.439028,-27.777488,-76.203386
11861,4.390177,2.188957,8.342980,-0.431309,0.032901,-0.144007,0.022800,-0.059107,0.106424,0.043865,0.021903,0.083445,1.000000,0.000114,-0.000296,0.000532,-0.777782,0.030874,0.277773,0.562978,17.419160,-27.830462,-76.143047
11862,4.364712,2.176992,7.818982,-0.240153,-0.132754,-0.601217,0.060186,-0.014678,0.053447,0.043636,0.021758,0.078200,1.000000,0.000301,-0.000073,0.000267,-0.777943,0.030808,0.277981,0.562656,17.432570,-27.851115,-76.107473
11863,4.051713,2.447942,7.784422,-0.053260,0.221664,-0.704776,0.060269,0.043526,0.010141,0.040533,0.024458,0.077843,1.000000,0.000301,0.000218,0.000051,-0.778067,0.030516,0.277959,0.562512,17.452590,-27.831467,-76.086696
11864,4.178476,2.596498,7.823124,0.090688,0.175587,-0.573441,0.026907,0.094313,0.004022,0.041821,0.025955,0.078215,1.000000,0.000135,0.000472,0.000020,-0.778235,0.030204,0.277656,0.562445,17.451331,-27.784068,-76.060512
11865,4.615704,2.521322,7.938147,0.074516,-0.195768,-0.292600,0.020136,0.149695,0.009562,0.046215,0.025207,0.079349,1.000000,0.000101,0.000748,0.000048,-0.778498,0.029768,0.277109,0.562375,17.438979,-27.706275,-76.019508
11866,4.881764,2.555518,8.121725,0.094979,-0.360243,-0.005247,0.026997,0.204531,0.031169,0.048897,0.025552,0.081171,0.999999,0.000135,0.001023,0.000156,-0.778895,0.029184,0.276373,0.562218,17.420172,-27.603276,-75.955271
11867,4.830074,2.596919,8.316741,0.051453,-0.249657,0.146065,0.042708,0.253464,0.055480,0.048399,0.025965,0.083112,0.999999,0.000214,0.001267,0.000277,-0.779432,0.028432,0.275477,0.561952,17.398582,-27.476631,-75.866039
11868,4.590370,2.646554,8.482677,-0.013899,0.012504,0.188870,0.075389,0.275316,0.092510,0.046008,0.026455,0.084773,0.999999,0.000377,0.001377,0.000463,-0.780103,0.027545,0.274592,0.561498,17.384166,-27.345396,-75.750586
11869,4.675562,2.821929,8.422938,0.192037,-0.038646,0.223827,0.119566,0.284613,0.151412,0.046854,0.028204,0.084180,0.999999,0.000598,0.001423,0.000757,-0.780959,0.026538,0.273776,0.560754,17.377300,-27.218111,-75.596623
11870,4.662326,2.863389,8.325493,0.271653,-0.066646,0.145819,0.157980,0.318280,0.228017,0.046723,0.028621,0.083203,0.999998,0.000790,0.001591,0.001140,-0.782075,0.025394,0.272935,0.559660,17.369039,-27.086532,-75.389950
11871,4.836326,3.194045,8.554999,0.521443,-0.034646,0.507527,0.186233,0.342211,0.313269,0.048460,0.031937,0.085497,0.999997,0.000931,0.001711,0.001566,-0.783466,0.024185,0.272058,0.558194,17.351048,-26.955381,-75.126009
11872,4.143473,3.469589,9.307678,0.316271,0.904656,0.907425,0.159151,0.338215,0.392409,0.041524,0.034703,0.093034,0.999996,0.000796,0.001691,0.001962,-0.785059,0.023204,0.271119,0.556452,17.297204,-26.840789,-74.815291
11873,4.399943,3.439904,9.761163,0.184227,0.815860,1.402175,0.011070,0.224538,0.401711,0.044040,0.034482,0.097564,0.999997,0.000055,0.001123,0.002009,-0.786506,0.023130,0.270202,0.554856,17.165763,-26.788488,-74.520338
11874,4.964973,2.850705,9.654972,-0.133457,0.068500,1.411099,-0.102253,0.172254,0.382621,0.049678,0.028651,0.096492,0.999998,-0.000511,0.000861,0.001913,-0.787808,0.023624,0.269186,0.553480,16.979939,-26.761934,-74.247796
11875,5.096646,3.130844,9.584150,0.209722,0.044000,1.482794,-0.181397,0.156528,0.326436,0.050990,0.031479,0.095773,0.999998,-0.000907,0.000783,0.001632,-0.788924,0.024394,0.268009,0.552427,16.765303,-26.732723,-74.012272
11876,5.074000,3.492212,9.514404,0.594764,0.186810,1.504382,-0.304674,0.166283,0.298793,0.050767,0.035143,0.095048,0.999997,-0.001523,0.000831,0.001494,-0.789954,0.025590,0.266465,0.551647,16.487591,-26.693809,-73.792736
11877,4.994157,3.777058,9.149338,1.023577,0.252999,1.223896,-0.388871,0.175919,0.332115,0.049959,0.038031,0.091376,0.999996,-0.001944,0.000880,0.001661,-0.791077,0.027132,0.264635,0.550845,16.151480,-26.652826,-73.550721
11878,5.808265,4.563204,8.269280,2.331359,-0.421014,1.019065,-0.414306,0.287907,0.450241,0.058098,0.045934,0.082514,0.999994,-0.002072,0.001440,0.002251,-0.792658,0.028626,0.262282,0.549619,15.760231,-26.568473,-73.217166
11879,7.104991,5.860134,7.414826,4.224393,-1.289613,1.155098,-0.219477,0.600264,0.901197,0.071007,0.059003,0.073870,0.999985,-0.001097,0.003001,0.004506,-0.795903,0.029075,0.259149,0.546384,15.333687,-26.377792,-72.552581
11880,6.343566,7.154305,8.208271,4.956144,0.190034,1.771777,0.118506,0.886846,1.785695,0.063157,0.072059,0.081845,0.999950,0.000593,0.004434,0.008928,-0.801929,0.028546,0.255662,0.539196,14.841887,-26.156753,-71.298011
11881,5.627465,6.195466,8.385833,3.925179,0.556243,1.352261,0.560656,0.925366,2.816300,0.055785,0.062508,0.083774,0.999886,0.002803,0.004627,0.014081,-0.810715,0.027446,0.253018,0.527229,14.325812,-26.052305,-69.404681
11882,7.148462,5.657906,7.961310,4.197951,-0.939636,1.500368,1.051218,1.042738,3.655412,0.070855,0.057460,0.079543,0.999806,0.005256,0.005213,0.018276,-0.821676,0.025108,0.251003,0.511093,13.858559,-25.985954,-66.976804
11883,6.978631,5.306082,8.081354,3.913020,-0.750299,1.424990,1.323703,1.338755,4.195218,0.069201,0.053982,0.080704,0.999736,0.006618,0.006693,0.020974,-0.834044,0.021552,0.248283,0.492200,13.388757,-25.809104,-64.173681
11884,6.174885,5.116394,8.507245,3.386142,0.089525,1.376730,1.408491,1.615288,4.506803,0.061270,0.051950,0.084940,0.999689,0.007042,0.008076,0.022532,-0.847050,0.017344,0.244444,0.471649,12.880080,-25.497610,-61.145160
11885,5.201143,4.923289,8.842364,2.767730,0.975586,1.181133,1.268266,1.845074,4.663234,0.051668,0.049880,0.088261,0.999666,0.006341,0.009224,0.023314,-0.860144,0.013360,0.239131,0.450322,12.260925,-25.049840,-58.001617
11886,4.310122,4.228397,8.770544,1.918675,1.329157,0.576230,0.964735,2.020482,4.684468,0.042986,0.042869,0.087477,0.999663,0.004823,0.010101,0.023420,-0.872898,0.010311,0.232217,0.428974,11.485350,-24.472001,-54.841186
11887,3.703821,2.846131,8.231765,0.887139,0.841066,-0.427336,0.738720,2.172334,4.584874,0.037269,0.029011,0.082020,0.999671,0.003693,0.010860,0.022922,-0.885019,0.007790,0.224008,0.408046,10.642026,-23.757076,-51.749685
11888,3.260816,1.945660,7.914185,0.247450,0.500450,-1.052594,0.594020,2.328143,4.358101,0.033096,0.019940,0.078817,0.999690,0.002970,0.011640,0.021788,-0.896281,0.005342,0.214678,0.388028,9.813882,-22.890358,-48.810113
11889,2.760483,0.638178,7.719249,-0.730603,-0.142747,-1.623843,0.477971,2.436429,4.026193,0.028409,0.006764,0.076866,0.999720,0.002390,0.012181,0.020129,-0.906482,0.002835,0.204523,0.369395,9.050550,-21.893749,-46.096269
11890,3.114507,-0.309344,7.461826,-0.848893,-1.183964,-1.853545,0.395945,2.521838,3.487596,0.032132,-0.002686,0.074212,0.999767,0.001980,0.012608,0.017437,-0.915310,-0.000000,0.193728,0.353098,8.413785,-20.771486,-43.734819
11891,3.189029,-1.347987,7.522698,-1.265611,-2.100058,-1.903190,0.249435,2.673372,2.762072,0.033075,-0.013122,0.074774,0.999815,0.001247,0.013366,0.013810,-0.922618,-0.003145,0.181903,0.340114,7.897789,-19.482251,-41.829734
11892,2.598512,-2.617127,7.493002,-2.229444,-2.835229,-2.280657,0.265588,2.784425,2.001909,0.027285,-0.026002,0.074522,0.999852,0.001328,0.013921,0.010009,-0.928427,-0.007234,0.169517,0.330506,7.584386,-18.058461,-40.396840
11893,2.485523,-3.127133,7.106525,-2.282046,-3.356987,-2.743266,0.594014,2.854675,1.342786,0.026075,-0.031309,0.070606,0.999871,0.002970,0.014273,0.006714,-0.932938,-0.013527,0.157280,0.323585,7.614693,-16.541578,-39.366268
11894,2.694444,-2.592097,6.165404,-1.340725,-3.297639,-3.542551,1.053482,2.988346,0.811662,0.027966,-0.026132,0.061104,0.999866,0.005267,0.014941,0.004058,-0.936419,-0.022586,0.145083,0.318687,8.017085,-14.911129,-38.640280
11895,2.888569,-1.928966,5.180846,-0.376186,-3.102047,-4.414785,1.563749,3.285692,0.395995,0.029769,-0.019633,0.051172,0.999833,0.007818,0.016428,0.001980,-0.939113,-0.034807,0.132219,0.315235,8.783416,-13.084725,-38.120271
11896,2.205469,-0.918927,4.437043,0.005650,-2.064997,-5.216175,2.019135,3.670561,0.066585,0.022866,-0.009626,0.043860,0.999781,0.010095,0.018351,0.000333,-0.941102,-0.049973,0.118154,0.312840,9.854103,-11.018360,-37.728268
11897,1.180060,0.330483,4.175396,0.089044,-0.620942,-5.507025,2.449086,4.070532,-0.183027,0.012650,0.002784,0.041538,0.999718,0.012244,0.020351,-0.000915,-0.942358,-0.067911,0.102763,0.311109,11.196367,-8.709398,-37.395417
11898,-0.455958,2.465638,4.497856,0.031414,1.840338,-5.003851,2.576163,4.399406,-0.370204,-0.003519,0.024081,0.045376,0.999673,0.012879,0.021995,-0.001851,-0.942877,-0.087012,0.085890,0.309894,12.626584,-6.202267,-37.074950
11899,-1.284230,2.653639,4.747416,-0.482924,2.225724,-4.710233,2.442031,4.657492,-0.537200,-0.011657,0.025984,0.048074,0.999651,0.012209,0.023285,-0.002686,-0.942671,-0.105896,0.067466,0.309202,13.994701,-3.537969,-36.754041
11900,-3.695928,2.521831,5.413752,-2.504263,3.192346,-4.080857,2.361728,4.793220,-0.708654,-0.035555,0.024698,0.055295,0.999637,0.011807,0.023963,-0.003543,-0.941618,-0.124591,0.048136,0.309054,15.332082,-0.781604,-36.446543
11901,-5.810328,3.515856,6.715776,-3.709241,4.635729,-2.332459,2.137357,4.650677,-0.939902,-0.056351,0.034696,0.068854,0.999662,0.010686,0.023251,-0.004699,-0.939655,-0.141983,0.028954,0.309921,16.555168,1.925088,-36.227503
11902,-7.304698,4.572248,8.056272,-4.290956,5.632623,-0.378551,1.637089,4.285332,-1.141506,-0.071033,0.045462,0.082472,0.999721,0.008185,0.021425,-0.005707,-0.937103,-0.156397,0.010551,0.311876,17.494327,4.460846,-36.129073
11903,-7.764034,4.539444,9.180807,-4.542859,5.206124,1.022905,0.907415,3.743287,-1.272509,-0.075612,0.045458,0.093442,0.999794,0.004537,0.018715,-0.006362,-0.934435,-0.166485,-0.006562,0.314755,18.007031,6.722876,-36.164700
11904,-6.666642,1.672349,9.125066,-5.066880,2.170758,0.192780,0.374392,3.239240,-1.382547,-0.065060,0.017005,0.092345,0.999843,0.001872,0.016195,-0.006912,-0.931718,-0.173219,-0.022245,0.318438,18.193818,8.729571,-36.337874
11905,-5.782583,-0.725844,8.098734,-5.499041,0.050113,-1.487656,0.431691,2.862395,-1.551048,-0.056714,-0.006992,0.081789,0.999865,0.002158,0.014311,-0.007755,-0.928453,-0.179560,-0.036229,0.323143,18.382267,10.563286,-36.666460
11906,-5.712728,-0.339419,8.198419,-5.022876,0.113835,-1.168780,0.694855,2.511363,-1.813109,-0.056121,-0.003169,0.082682,0.999874,0.003474,0.012556,-0.009065,-0.924352,-0.186452,-0.048376,0.329347,18.670392,12.254164,-37.200095
11907,-5.290419,2.716442,8.454068,-2.579841,1.806544,0.031733,0.481639,2.261762,-2.128006,-0.051652,0.027514,0.085196,0.999877,0.002408,0.011308,-0.010640,-0.919761,-0.191833,-0.060016,0.337103,18.771942,13.870883,-37.953148
11908,-5.351059,3.376433,8.854438,-1.949630,2.027404,0.699965,-0.260432,2.000176,-2.273770,-0.052233,0.034479,0.089026,0.999885,-0.001302,0.010000,-0.011368,-0.915497,-0.193264,-0.071815,0.345480,18.392608,15.368782,-38.847039
11909,-5.437659,0.910022,8.620758,-3.385236,0.417274,-0.165163,-0.443742,1.749497,-2.123472,-0.053518,0.009863,0.086657,0.999903,-0.002219,0.008747,-0.010617,-0.911565,-0.193443,-0.082639,0.353269,17.893000,16.698579,-39.719674
11910,-4.351320,0.947990,7.856317,-2.372229,0.046806,-1.099364,-0.085330,1.574590,-1.894456,-0.042800,0.009921,0.078898,0.999924,-0.000427,0.007873,-0.009472,-0.907609,-0.195001,-0.091782,0.360274,17.604903,17.885240,-40.509368
11911,-3.733602,2.862011,8.388864,-0.408617,0.637357,-0.224848,-0.079851,1.683937,-1.958378,-0.036345,0.029013,0.084186,0.999917,-0.000399,0.008419,-0.009792,-0.903335,-0.196726,-0.101477,0.367405,17.294824,19.140813,-41.327439
11912,-5.227029,1.528360,9.520221,-2.150679,0.132595,0.941128,-0.256621,1.601141,-2.041377,-0.051346,0.015933,0.095596,0.999915,-0.001283,0.008005,-0.010207,-0.898977,-0.197420,-0.111169,0.374844,16.840263,20.357677,-42.224255
11913,-5.873831,2.176008,10.610443,-1.858681,0.415661,2.360511,-0.154735,1.233630,-1.866320,-0.057875,0.022385,0.106446,0.999937,-0.000774,0.006168,-0.009331,-0.894915,-0.197956,-0.118848,0.381857,16.435825,21.339927,-43.098269
11914,-4.925430,2.512496,11.083801,-0.737263,-0.236680,2.549367,-0.309257,0.988267,-1.664870,-0.048494,0.025702,0.111039,0.999952,-0.001546,0.004941,-0.008324,-0.891441,-0.197425,-0.125493,0.388082,15.953729,22.146399,-43.909254
11915,-5.105218,0.815504,11.460438,-1.906483,-1.369395,2.538727,-0.413140,0.854364,-1.635022,-0.050492,0.008806,0.114803,0.999955,-0.002066,0.004272,-0.008175,-0.888127,-0.196177,-0.131722,0.394201,15.395430,22.869820,-44.736590
11916,-6.019636,-0.220737,11.844128,-3.084549,-1.574074,3.015933,-0.346459,0.631812,-1.843774,-0.059837,-0.001449,0.118634,0.999951,-0.001732,0.003159,-0.009219,-0.884402,-0.194625,-0.137004,0.401476,14.798173,23.491225,-45.738216
11917,-6.987909,-1.020546,12.112382,-4.133247,-1.476377,3.503306,-0.315221,0.231342,-2.185043,-0.069843,-0.009251,0.121220,0.999938,-0.001576,0.001157,-0.010925,-0.880137,-0.192155,-0.140791,0.410624,14.096734,23.931104,-47.020427
11918,-6.526534,-1.099074,11.491062,-3.837125,-1.430971,2.799783,-0.070207,-0.193206,-2.414338,-0.065502,-0.010161,0.114851,0.999927,-0.000351,-0.000966,-0.012071,-0.875350,-0.189702,-0.142386,0.421310,13.443150,24.149715,-48.515012
11919,-5.503758,0.647948,10.592370,-1.825900,-0.605994,1.985912,0.107144,-0.409318,-2.456258,-0.055170,0.007100,0.105815,0.999922,0.000536,-0.002047,-0.012281,-0.870326,-0.187511,-0.142705,0.432445,12.861441,24.240951,-50.070237
11920,-4.868288,1.623168,9.691029,-0.661798,-0.021418,1.133159,0.134901,-0.380614,-2.446471,-0.048664,0.016762,0.096829,0.999923,0.000674,-0.001903,-0.012232,-0.865145,-0.185481,-0.143033,0.443466,12.297784,24.330363,-51.617725
11921,-5.463009,1.393685,9.726443,-1.090569,0.332394,1.371652,0.116720,-0.353607,-2.431566,-0.054628,0.014544,0.097176,0.999924,0.000584,-0.001768,-0.012158,-0.859862,-0.183413,-0.143507,0.454315,11.724516,24.421587,-53.154419
11922,-5.162621,1.310179,9.417603,-0.943346,0.272098,0.962098,0.409157,-0.433068,-2.224236,-0.051681,0.013484,0.094091,0.999934,0.002046,-0.002165,-0.011121,-0.854721,-0.182546,-0.142741,0.464494,11.367145,24.430598,-54.574730
11923,-4.372514,2.647541,9.510305,0.656460,0.346977,0.958702,0.575795,-0.408200,-1.924208,-0.043664,0.026622,0.095090,0.999947,0.002879,-0.002041,-0.009621,-0.850003,-0.182640,-0.141429,0.473430,11.181555,24.416308,-55.806801
11924,-4.917748,1.620350,10.073449,-0.442768,0.025232,1.504884,0.620427,-0.399097,-1.719144,-0.049239,0.016314,0.100687,0.999956,0.003102,-0.001995,-0.008596,-0.845645,-0.183074,-0.139823,0.481475,11.076502,24.379150,-56.910900
11925,-5.095094,0.767267,10.759376,-1.235459,-0.510979,2.041645,0.819758,-0.542513,-1.632412,-0.051180,0.007649,0.107487,0.999955,0.004099,-0.002713,-0.008162,-0.841337,-0.184048,-0.137065,0.489379,11.100625,24.253489,-57.978094
11926,-5.323811,0.422906,11.640016,-1.643700,-0.824201,2.861304,0.911382,-0.745694,-1.675358,-0.053637,0.004147,0.116220,0.999948,0.004557,-0.003728,-0.008377,-0.836899,-0.184865,-0.133229,0.497669,11.161679,24.016669,-59.094950
11927,-5.868284,-0.275859,12.549031,-2.549699,-1.002045,3.769797,1.024558,-1.094830,-1.843724,-0.059395,-0.002855,0.125152,0.999929,0.005123,-0.005474,-0.009218,-0.832067,-0.185149,-0.127816,0.506999,11.233531,23.605873,-60.355291
11928,-5.897099,-0.523287,12.929344,-2.878962,-1.082084,4.070886,1.184378,-1.552332,-2.047507,-0.060027,-0.005386,0.128799,0.999900,0.005922,-0.007761,-0.010237,-0.826724,-0.184779,-0.120235,0.517618,11.339904,22.960297,-61.791680
11929,-5.548183,0.140216,12.281264,-2.268843,-0.612117,3.457699,1.386963,-1.978608,-2.198225,-0.056680,0.001172,0.122265,0.999867,0.006935,-0.009893,-0.010991,-0.820866,-0.184004,-0.110507,0.529254,11.524616,22.098064,-63.366113
11930,-5.334652,0.927345,11.353558,-1.590089,0.121692,2.664194,1.429936,-2.311899,-2.296904,-0.054550,0.009086,0.112975,0.999842,0.007149,-0.011559,-0.011484,-0.814655,-0.182422,-0.099329,0.541473,11.726047,21.062783,-65.033867
11931,-5.400143,0.831370,10.376407,-1.782433,0.783853,1.751255,1.351221,-2.543216,-2.408728,-0.055216,0.008276,0.103123,0.999824,0.006756,-0.012715,-0.012043,-0.808056,-0.179768,-0.087519,0.554138,11.878857,19.917860,-66.788968
11932,-6.082818,0.447305,9.556883,-2.417874,1.840787,1.109431,1.316740,-2.745154,-2.559935,-0.062074,0.004637,0.094753,0.999802,0.006583,-0.013725,-0.012799,-0.800858,-0.176290,-0.075064,0.567374,12.014134,18.679587,-68.648923
11933,-5.694687,0.831518,8.536739,-1.877510,2.267856,0.052502,1.276516,-2.952251,-2.714459,-0.058084,0.008557,0.084570,0.999779,0.006382,-0.014760,-0.013571,-0.793000,-0.171923,-0.062028,0.581159,12.130200,17.349858,-70.614963
11934,-4.515246,1.719426,7.563468,-0.584812,2.017622,-1.087245,1.256008,-2.977682,-2.705542,-0.046039,0.017340,0.075062,0.999778,0.006280,-0.014887,-0.013527,-0.784843,-0.167336,-0.048886,0.594668,12.284897,16.007000,-72.567889
11935,-3.631981,4.134061,7.361913,1.973020,2.007211,-1.063027,1.144513,-2.883137,-2.519771,-0.036857,0.041383,0.073327,0.999800,0.005722,-0.014415,-0.012598,-0.776980,-0.162559,-0.036302,0.607090,12.450173,14.701781,-74.391913
11936,-2.520484,6.008790,7.989395,3.949014,1.282592,-0.376139,0.691783,-2.701989,-2.206030,-0.025620,0.060093,0.079758,0.999842,0.003459,-0.013509,-0.011030,-0.770126,-0.156580,-0.025496,0.617849,12.450049,13.459445,-76.003255
11937,-2.490577,4.474695,8.723969,2.359167,0.884624,-0.015575,0.317079,-2.523369,-1.780142,-0.025606,0.044835,0.086991,0.999880,0.001585,-0.012616,-0.008900,-0.764647,-0.149714,-0.016226,0.626608,12.327315,12.265260,-77.337862
11938,-3.099919,4.063014,9.570996,1.691822,1.353288,0.818631,0.225633,-2.487171,-1.586738,-0.031863,0.040773,0.095363,0.999891,0.001128,-0.012435,-0.007933,-0.759662,-0.142600,-0.007201,0.634451,12.207268,11.062859,-78.548960
11939,-2.830362,2.257120,9.871872,-0.036995,0.951448,0.658639,-0.050425,-2.447800,-1.655008,-0.029321,0.022836,0.098358,0.999891,-0.000252,-0.012239,-0.008275,-0.754492,-0.134524,0.000723,0.642374,11.946493,9.888904,-79.784848
11940,-3.290562,1.055764,9.979518,-1.277208,1.443252,0.570655,0.122207,-2.503285,-1.772385,-0.034056,0.010795,0.099380,0.999882,0.000611,-0.012516,-0.008862,-0.748656,-0.126895,0.009360,0.650633,11.802034,8.691240,-81.085714
11941,-1.704339,2.586421,9.383469,0.563567,0.404522,0.044265,0.282728,-2.509998,-1.806846,-0.017986,0.025891,0.093649,0.999879,0.001414,-0.012549,-0.009034,-0.742432,-0.119812,0.018490,0.658862,11.771671,7.494030,-82.400439
11942,-2.319168,3.276888,9.509598,1.121528,1.246308,0.372359,0.329392,-2.401280,-1.649147,-0.024061,0.032809,0.094865,0.999893,0.001647,-0.012006,-0.008245,-0.736537,-0.113223,0.027492,0.666287,11.810268,6.337293,-83.610241
11943,-3.692128,4.819203,10.312685,2.329674,2.821745,1.580938,0.266815,-2.548277,-1.481086,-0.037874,0.048333,0.102713,0.999891,0.001334,-0.012741,-0.007405,-0.731061,-0.105862,0.036885,0.673039,11.843516,5.081236,-84.740008
11944,-2.955444,4.079727,10.490522,1.672531,2.240401,1.483683,-0.036170,-2.731789,-1.386196,-0.030700,0.041026,0.104484,0.999883,-0.000181,-0.013658,-0.006931,-0.725863,-0.096739,0.046001,0.679447,11.734384,3.708303,-85.835389
11945,-1.720746,2.616526,9.822871,0.496192,1.224337,0.412056,-0.032965,-2.892054,-1.390094,-0.018443,0.026307,0.097964,0.999871,-0.000165,-0.014460,-0.006950,-0.720439,-0.087058,0.055667,0.685777,11.650702,2.246290,-86.946792
11946,1.150132,2.402397,8.925816,0.605796,-1.374340,-0.620042,0.177864,-2.767041,-1.403705,0.010433,0.023869,0.089429,0.999879,0.000889,-0.013835,-0.007018,-0.714727,-0.078549,0.065615,0.691874,11.718294,0.853621,-88.050765
11947,-1.147970,2.973707,9.601317,0.911975,1.133981,0.198544,0.468715,-2.582941,-1.363352,-0.012517,0.029595,0.095925,0.999891,0.002343,-0.012914,-0.006817,-0.708943,-0.071683,0.075884,0.697498,11.975948,-0.435305,-89.113163
11948,-2.170574,4.417451,10.218665,2.161442,2.395102,1.060858,0.439628,-2.709397,-1.366081,-0.022787,0.044103,0.101980,0.999882,0.002198,-0.013546,-0.006830,-0.702946,-0.064259,0.086510,0.703032,12.244505,-1.791963,-90.199250
11949,-3.461188,2.333366,10.836734,0.011090,3.944247,1.109525,0.352248,-2.885221,-1.357018,-0.036012,0.023385,0.107896,0.999871,0.001761,-0.014425,-0.006785,-0.696766,-0.055891,0.097399,0.708454,12.488110,-3.241085,-91.307772
11950,-3.771799,2.535550,10.677857,0.287702,4.537416,0.863992,0.454210,-3.365017,-1.488345,-0.039319,0.025403,0.106184,0.999828,0.002271,-0.016824,-0.007441,-0.689644,-0.046225,0.110285,0.714207,12.833277,-4.938429,-92.560487
11951,1.560819,3.267563,8.813908,1.164434,-0.677945,-0.379943,0.382460,-3.450615,-1.611607,0.014346,0.032388,0.088456,0.999817,0.001912,-0.017252,-0.008058,-0.681815,-0.036060,0.123110,0.720189,13.181423,-6.657578,-93.905766
11952,1.611658,3.955447,8.722846,1.790488,-0.521189,-0.281231,0.505039,-3.200202,-1.457119,0.015004,0.039222,0.087574,0.999842,0.002525,-0.016000,-0.007285,-0.674434,-0.027106,0.135540,0.725281,13.627595,-8.250840,-95.148432
11953,1.180863,6.564438,9.122783,4.215643,0.054431,0.672183,0.507280,-3.129902,-1.178010,0.010763,0.065347,0.091568,0.999857,0.002536,-0.015649,-0.005890,-0.667919,-0.018218,0.147709,0.729201,14.083084,-9.831192,-96.240447
11954,1.600132,6.068037,9.616145,3.541620,0.003670,1.109930,0.250254,-2.999147,-0.873556,0.014821,0.060493,0.096465,0.999877,0.001251,-0.014995,-0.004368,-0.662448,-0.008717,0.158523,0.732091,14.391054,-11.376926,-97.158912
11955,0.419105,5.110466,9.911598,2.684924,1.545408,0.907803,0.245809,-3.080819,-0.658770,0.002831,0.050972,0.099229,0.999875,0.001229,-0.015403,-0.003294,-0.657543,0.001266,0.169533,0.734094,14.698750,-12.991678,-97.979801
11956,4.191517,4.972823,7.674184,2.517743,-2.388091,-0.371107,0.279419,-3.040875,-0.495437,0.040864,0.049518,0.077438,0.999880,0.001397,-0.015204,-0.002477,-0.653103,0.011134,0.180521,0.735353,15.030364,-14.606107,-98.717484
11957,4.732792,5.190920,7.054309,2.743319,-2.873262,-0.684565,0.389958,-2.579732,-0.245372,0.046475,0.051713,0.071247,0.999914,0.001950,-0.012898,-0.001227,-0.649879,0.019164,0.190333,0.735570,15.389178,-15.996565,-99.253734
11958,1.697837,5.716508,8.489193,3.373509,0.615288,-0.021661,0.491029,-2.383820,0.119980,0.015930,0.056966,0.085226,0.999926,0.002455,-0.011919,0.000600,-0.648082,0.026495,0.199840,0.734405,15.754552,-17.334016,-99.562251
11959,0.555563,5.118730,9.976229,2.634593,2.474179,0.815860,0.557130,-2.455319,0.524623,0.004195,0.050921,0.099961,0.999917,0.002786,-0.012276,0.002623,-0.647615,0.034268,0.209714,0.731738,16.097599,-18.770472,-99.657869
11960,-0.534575,3.774956,10.733973,1.337533,4.148451,0.710923,0.498550,-2.795149,0.731857,-0.006983,0.037458,0.107343,0.999893,0.002493,-0.013975,0.003659,-0.647408,0.043691,0.220421,0.728264,16.393269,-20.428693,-99.700981
11961,3.692594,1.200260,8.123750,-1.242649,-0.275928,-0.899563,0.908357,-3.075376,0.890736,0.035618,0.011792,0.081846,0.999862,0.004542,-0.015376,0.004453,-0.647409,0.052961,0.233415,0.723584,16.912051,-22.263973,-99.711632
11962,3.897843,1.008744,8.278968,-1.546589,-0.095426,-0.738380,1.687262,-3.019056,1.165451,0.037665,0.009607,0.083447,0.999834,0.008436,-0.015094,0.005827,-0.648470,0.059822,0.248924,0.716899,17.820519,-24.117655,-99.574815
11963,4.795900,3.780866,6.998181,1.188369,-1.233383,-0.684424,2.234025,-3.159300,1.327878,0.046592,0.037331,0.071144,0.999791,0.011169,-0.015795,0.006639,-0.649868,0.065582,0.266681,0.708697,19.021992,-26.076493,-99.402636
11964,8.826244,4.220854,5.293671,1.376885,-5.251974,-0.104501,2.226379,-2.762968,1.523602,0.087194,0.042274,0.054617,0.999814,0.011131,-0.013814,0.007618,-0.652219,0.070207,0.282978,0.699718,20.142359,-27.864177,-99.069956
11965,6.402796,4.104649,6.657174,1.168336,-2.135112,-0.003104,2.584620,-2.361388,1.837435,0.062857,0.040756,0.067846,0.999805,0.012922,-0.011806,0.009187,-0.656121,0.072667,0.298980,0.689083,21.338240,-29.503820,-98.487222
11966,4.944144,4.851213,7.757821,1.625913,0.057450,0.458766,2.716878,-2.372875,2.115423,0.048002,0.047960,0.078807,0.999781,0.013583,-0.011864,0.010576,-0.660731,0.075128,0.315270,0.677049,22.526762,-31.221488,-97.767576
11967,7.111515,5.113757,6.123569,2.030586,-2.247165,0.436021,2.704936,-2.320292,2.260530,0.069815,0.051090,0.062742,0.999777,0.013524,-0.011601,0.011302,-0.665627,0.077635,0.331135,0.664276,23.647869,-32.954107,-96.970073
11968,7.521144,4.879702,6.033956,1.740313,-2.307715,0.599987,2.418945,-1.857946,2.260967,0.074091,0.048899,0.061622,0.999820,0.012094,-0.009289,0.011304,-0.670903,0.079538,0.344396,0.651885,24.527466,-34.458632,-96.065566
11969,6.418444,4.380594,5.556334,1.498481,-1.437105,-0.488439,2.351739,-1.606717,2.277945,0.063233,0.043868,0.056590,0.999834,0.011758,-0.008033,0.011389,-0.676414,0.080839,0.356453,0.639429,25.305983,-35.845528,-95.085837
11970,7.151549,5.002102,5.205509,2.120529,-1.851375,-0.048852,2.225062,-1.239681,2.339848,0.070602,0.050264,0.053053,0.999850,0.011125,-0.006198,0.011699,-0.682505,0.081489,0.366743,0.626934,25.906917,-37.069576,-93.959173
11971,6.746351,4.814950,4.629664,2.194687,-1.640088,-0.723174,2.157287,-0.928384,2.528026,0.066635,0.048490,0.047129,0.999851,0.010786,-0.004642,0.012640,-0.689531,0.081706,0.375558,0.613862,26.312309,-38.187058,-92.606283
11972,8.506540,5.169830,3.208374,3.099828,-3.502977,-0.458793,2.240715,-0.451118,2.931428,0.084226,0.052572,0.032860,0.999827,0.011203,-0.002255,0.014656,-0.698498,0.080911,0.382711,0.599238,26.475957,-39.169464,-90.820972
11973,8.112332,5.889254,3.767091,3.611651,-2.404309,-0.022333,2.463057,0.031145,3.547874,0.080073,0.059849,0.038392,0.999767,0.012314,0.000156,0.017738,-0.710043,0.079032,0.388432,0.581990,26.365560,-40.060735,-88.441526
11974,7.165839,6.547376,4.704929,3.839100,-0.631456,0.247465,2.634659,0.397468,4.165489,0.070377,0.066322,0.047779,0.999694,0.013172,0.001987,0.020825,-0.723778,0.076644,0.392908,0.562045,25.952524,-40.912860,-85.487383
11975,7.885316,6.667416,5.302339,3.802000,-0.464041,1.144765,2.364111,0.708886,4.526284,0.077516,0.067808,0.053544,0.999668,0.011819,0.003544,0.022629,-0.738574,0.075009,0.395101,0.541089,25.090087,-41.666659,-82.134040
11976,7.105388,4.966510,6.012336,2.040605,0.093612,0.537296,2.051504,1.042159,4.639684,0.070200,0.050683,0.060272,0.999665,0.010256,0.005210,0.023196,-0.753721,0.073811,0.394917,0.520092,23.859982,-42.228774,-78.542418
11977,7.062840,3.798175,6.014788,1.206437,-0.201547,0.136513,1.805239,1.223779,4.613075,0.070103,0.039060,0.060067,0.999675,0.009025,0.006118,0.023063,-0.768569,0.072955,0.393155,0.499408,22.413146,-42.625395,-74.870673
11978,6.858064,3.371029,5.509365,1.263854,-0.365705,-0.484542,1.727132,1.471884,4.587551,0.068195,0.034803,0.054888,0.999673,0.008635,0.007359,0.022935,-0.783309,0.071695,0.389999,0.478736,20.850324,-42.814298,-71.115399
11979,7.033457,3.083842,4.897362,1.609728,-0.802831,-0.883937,1.439041,1.772498,4.371456,0.070075,0.032022,0.048579,0.999696,0.007194,0.008862,0.021855,-0.797519,0.070363,0.384805,0.459279,19.168788,-42.719677,-67.430414
11980,7.494785,1.993664,4.243583,1.489609,-1.940472,-1.317790,1.177638,2.200166,3.990024,0.074995,0.021185,0.041733,0.999723,0.005888,0.011000,0.019948,-0.811120,0.068330,0.377218,0.441726,17.483963,-42.245187,-63.943700
11981,5.968580,2.064453,5.631663,0.527365,-0.232688,-1.370801,1.115479,2.572960,3.666124,0.060017,0.021431,0.055664,0.999734,0.005577,0.012864,0.018329,-0.824245,0.065065,0.367889,0.425494,15.934570,-41.439625,-60.668560
11982,3.785521,2.809817,7.607500,-0.641636,2.461685,-1.232109,1.115175,2.600455,3.517707,0.038344,0.028347,0.075736,0.999745,0.005575,0.013001,0.017587,-0.836676,0.061448,0.358301,0.409657,14.534597,-40.534657,-57.567099
11983,4.693964,2.756686,7.513546,-0.127665,1.759111,-0.703723,1.011074,2.492140,3.430792,0.047394,0.027999,0.074688,0.999762,0.005055,0.012460,0.017153,-0.848289,0.058290,0.348803,0.394138,13.212897,-39.622033,-54.619954
11984,4.738460,1.397236,8.118654,-1.231296,0.973373,-0.439822,0.814925,2.505031,3.206477,0.048168,0.014411,0.080645,0.999785,0.004074,0.012524,0.016031,-0.859042,0.055533,0.338771,0.379734,11.958294,-38.624381,-51.899048
11985,3.105132,0.046837,9.025134,-3.265275,1.242417,-0.930820,0.659013,2.262076,2.780068,0.032062,0.000613,0.089894,0.999834,0.003295,0.011310,0.013900,-0.868201,0.053150,0.329476,0.367216,10.901047,-37.671766,-49.581544
11986,5.188218,-0.242150,8.465920,-1.912072,-0.515497,-0.080157,0.439183,2.056699,2.201955,0.052773,-0.002029,0.084115,0.999884,0.002196,0.010283,0.011009,-0.875658,0.051144,0.320728,0.357407,10.039670,-36.745019,-47.748498
11987,5.954880,-0.470390,7.000667,-0.677149,-1.680492,-0.790222,0.297567,2.034161,1.761624,0.060296,-0.004279,0.069389,0.999908,0.001488,0.010170,0.008808,-0.882075,0.049069,0.311871,0.349676,9.329956,-35.767853,-46.265749
11988,8.798672,-0.424474,4.611912,2.403817,-4.090501,-1.074820,0.203914,2.304162,1.459175,0.088538,-0.003646,0.045097,0.999907,0.001020,0.011520,0.007296,-0.888196,0.046467,0.301676,0.343424,8.710593,-34.597739,-44.995874
11989,10.816030,-0.707088,2.244917,4.857006,-6.201222,-2.036448,0.107591,2.986236,1.204704,0.108519,-0.006429,0.020827,0.999870,0.000538,0.014931,0.006023,-0.894688,0.042717,0.288280,0.338530,8.140620,-33.008509,-43.866779
11990,12.233060,-0.981621,1.644814,6.154528,-7.457382,-2.079380,0.213600,4.020926,0.984686,0.122675,-0.009229,0.013974,0.999785,0.001068,0.020103,0.004923,-0.902014,0.036420,0.270383,0.334571,7.709501,-30.807035,-42.828197
11991,1.762085,1.839662,13.933247,-4.022197,3.584292,3.285537,1.129514,4.778937,1.392305,0.020819,0.017749,0.138962,0.999674,0.005647,0.023892,0.006961,-0.910723,0.025251,0.250387,0.327494,7.695360,-28.203561,-41.492872
11992,-16.359716,6.469448,19.392090,-15.550689,18.393742,0.450070,1.404244,2.765026,2.083668,-0.161544,0.061630,0.196604,0.999826,0.007021,0.013824,0.010418,-0.917625,0.016986,0.239790,0.316505,7.765960,-26.796828,-39.913019
11993,1.096901,3.140313,12.581920,-2.750544,4.164016,2.206625,-0.152375,1.176576,1.297998,0.011504,0.031572,0.125729,0.999961,-0.000762,0.005883,0.006490,-0.921053,0.017418,0.234029,0.310785,7.261167,-26.227288,-38.984920
11994,4.174478,-3.233338,8.725525,-2.561854,-3.419056,-0.551983,-0.629924,1.200967,0.560547,0.042358,-0.031941,0.087103,0.999973,-0.003150,0.006005,0.002803,-0.923261,0.019160,0.227467,0.309001,6.697748,-25.585843,-38.531665
11995,5.435684,-4.457375,6.904842,-1.513985,-5.466396,-1.755581,-0.115338,1.230467,0.204632,0.054826,-0.044478,0.068738,0.999980,-0.000577,0.006152,0.001023,-0.924960,0.018063,0.221579,0.308263,6.532721,-24.900287,-38.307360
11996,9.137478,-0.947460,3.969572,4.431122,-5.264334,-2.546472,0.466730,1.778043,0.183326,0.091731,-0.009482,0.038859,0.999957,0.002334,0.008890,0.000917,-0.927225,0.013418,0.214052,0.307009,6.692713,-23.902918,-38.058122
11997,11.367770,0.187328,2.105279,7.562194,-5.959553,-3.411030,0.264752,2.875853,0.216591,0.113963,0.001970,0.019418,0.999895,0.001324,0.014379,0.001083,-0.930568,0.008050,0.201088,0.305845,6.703991,-22.282661,-37.709504
11998,10.016946,-1.718324,2.676987,5.482428,-6.751968,-3.913878,0.485712,4.144070,0.243108,0.100716,-0.017123,0.024645,0.999782,0.002428,0.020719,0.001215,-0.934934,-0.000253,0.182500,0.304288,6.814468,-19.943686,-37.255994
11999,5.023690,-0.494169,4.885228,1.933395,-2.819368,-3.676752,1.065902,4.984575,0.267196,0.051440,-0.005129,0.047553,0.999674,0.005329,0.024920,0.001336,-0.939594,-0.012529,0.160771,0.301924,7.251497,-17.130789,-36.721595
12000,0.961494,1.841425,6.814247,-0.216525,1.319319,-2.816233,1.243487,5.340559,0.224527,0.011411,0.018003,0.067967,0.999624,0.006217,0.026699,0.001122,-0.943807,-0.026196,0.137519,0.299382,7.810343,-14.116710,-36.167329
12001,-1.411514,2.098520,7.394173,-1.853870,2.620379,-2.688629,1.239137,5.366568,0.124667,-0.012135,0.020517,0.074413,0.999621,0.006195,0.026829,0.000623,-0.947176,-0.039935,0.114027,0.297086,8.402712,-11.085757,-35.645421
12002,-1.395296,2.072003,7.194155,-1.577291,2.290240,-2.724023,1.372932,5.299576,0.080379,-0.012046,0.020219,0.072418,0.999625,0.006864,0.026495,0.000402,-0.949703,-0.054200,0.090950,0.294713,9.098424,-8.094375,-35.125533
12003,-1.493794,2.110242,7.057024,-1.381965,2.079484,-2.724786,1.527506,5.319074,0.039004,-0.013056,0.020558,0.071093,0.999617,0.007637,0.026592,0.000195,-0.951416,-0.069210,0.067931,0.292237,9.908753,-5.095181,-34.591680
12004,-1.903659,2.509110,7.156667,-1.286331,2.311838,-2.455858,1.580157,5.400191,-0.041033,-0.017087,0.024526,0.072241,0.999604,0.007900,0.026997,-0.000205,-0.952284,-0.084557,0.044521,0.289869,10.776307,-2.050003,-34.053194
12005,-2.916205,1.935599,7.427560,-2.227893,2.035840,-2.177677,1.588491,5.447317,-0.147937,-0.027108,0.018782,0.075183,0.999597,0.007941,0.027233,-0.000740,-0.952244,-0.099976,0.020818,0.287756,11.678311,1.025054,-33.523482
12006,-4.400941,2.038802,8.239992,-3.218691,2.420599,-1.142100,1.667808,5.365152,-0.293721,-0.041746,0.019756,0.083707,0.999604,0.008338,0.026822,-0.001468,-0.951187,-0.115582,-0.002470,0.286142,12.651362,4.062475,-33.034750
12007,-5.759612,1.809370,9.049587,-4.233294,2.376822,-0.079066,1.695218,5.103618,-0.434394,-0.055221,0.017439,0.092075,0.999636,0.008475,0.025515,-0.002172,-0.949196,-0.130864,-0.024557,0.285129,13.660631,6.963941,-32.604320
12008,-6.874577,2.799996,10.092835,-4.330274,3.046142,1.540824,1.668538,4.678946,-0.642699,-0.066268,0.027363,0.102728,0.999686,0.008342,0.023392,-0.003213,-0.946336,-0.145292,-0.044784,0.285188,14.656692,9.650212,-32.297483
12009,-7.711261,3.318196,10.987534,-4.391329,3.184818,2.905117,1.320279,4.104266,-0.862665,-0.074692,0.032774,0.111642,0.999758,0.006601,0.020520,-0.004313,-0.943019,-0.157133,-0.062932,0.286467,15.436174,12.047298,-32.156431
12010,-7.935153,2.324576,11.256306,-4.778260,2.047941,3.149850,1.018765,3.435187,-1.077138,-0.077277,0.023087,0.114020,0.999825,0.005094,0.017175,-0.005385,-0.939452,-0.166452,-0.078493,0.289072,16.002482,14.105786,-32.213893
12011,-8.089503,1.849801,11.202735,-4.874146,1.479538,3.164352,0.949135,2.671732,-1.230590,-0.079275,0.018454,0.113181,0.999881,0.004745,0.013358,-0.006153,-0.935743,-0.174242,-0.090686,0.292917,16.477663,15.771024,-32.465740
12012,-7.263828,1.219090,10.588043,-4.387299,0.578085,2.302074,1.074428,1.929276,-1.252126,-0.071536,0.012070,0.106639,0.999919,0.005372,0.009646,-0.006260,-0.932047,-0.181475,-0.099210,0.297512,16.981667,17.032744,-32.845230
12013,-6.097396,1.533574,9.337173,-3.232860,0.529753,0.956617,1.498174,1.321009,-1.184923,-0.060265,0.014992,0.093885,0.999933,0.007491,0.006605,-0.005924,-0.928227,-0.189796,-0.104211,0.302509,17.704652,17.956375,-33.282391
12014,-4.573518,4.273180,8.212698,-0.392556,2.072033,0.295485,1.609595,0.968068,-1.104589,-0.045101,0.042318,0.082688,0.999941,0.008048,0.004840,-0.005523,-0.924494,-0.198107,-0.107299,0.307491,18.481873,18.676647,-33.729657
12015,-3.541257,5.085474,7.048563,0.884389,2.464986,-0.800237,1.413695,0.861602,-0.967887,-0.034862,0.050524,0.070995,0.999954,0.007068,0.004308,-0.004839,-0.921123,-0.205413,-0.110069,0.311807,19.163788,19.321759,-34.110594
12016,-3.280614,4.889825,6.713535,0.994672,2.196342,-1.214468,1.160616,0.915002,-0.808337,-0.032301,0.048638,0.067567,0.999965,0.005803,0.004575,-0.004042,-0.918159,-0.211697,-0.113287,0.315172,19.732392,19.966685,-34.384038
12017,-3.088615,4.112303,7.168794,0.748176,1.208313,-1.105168,0.894857,1.049843,-0.785708,-0.030348,0.040921,0.072032,0.999968,0.004474,0.005249,-0.003928,-0.915372,-0.216985,-0.117532,0.318115,20.162566,20.684602,-34.610597
12018,-3.934875,2.581873,8.108265,-0.726702,0.029177,-0.465877,0.623658,1.146072,-0.910723,-0.038766,0.025743,0.081386,0.999968,0.003118,0.005730,-0.004554,-0.912571,-0.221085,-0.122757,0.321351,20.416311,21.477764,-34.886187
12019,-5.080664,2.068472,9.070145,-1.761682,-0.280142,0.636032,0.576236,1.061851,-1.026247,-0.050218,0.020681,0.091029,0.999969,0.002881,0.005309,-0.005131,-0.909627,-0.224761,-0.127814,0.325154,20.609391,22.252539,-35.243936
12020,-5.020950,2.046077,9.228006,-1.619763,-0.486800,0.755689,0.374824,0.925751,-1.136232,-0.049665,0.020571,0.092549,0.999971,0.001874,0.004629,-0.005681,-0.906768,-0.227204,-0.132675,0.329466,20.645636,22.974584,-35.696592
12021,-4.622817,1.629423,9.106712,-1.497369,-0.977273,0.373538,0.077866,0.887636,-1.380258,-0.045710,0.016575,0.091277,0.999966,0.000389,0.004438,-0.006901,-0.903809,-0.228073,-0.138144,0.334706,20.445894,23.727420,-36.302835
12022,-4.749441,0.655712,8.896943,-2.143653,-1.485764,-0.048531,0.046670,0.868251,-1.633889,-0.047052,0.006922,0.089176,0.999957,0.000233,0.004341,-0.008169,-0.900411,-0.228565,-0.143834,0.341072,20.154355,24.515101,-37.070713
12023,-5.557283,1.835150,9.778446,-1.701909,-0.726915,1.431969,-0.029751,0.764378,-1.789529,-0.055031,0.018860,0.097993,0.999953,-0.000149,0.003822,-0.008948,-0.896824,-0.228413,-0.149375,0.348168,19.757507,25.275918,-37.962514
12024,-5.944580,0.585838,9.832980,-2.693565,-1.347665,1.291164,-0.126885,0.546075,-1.887009,-0.059118,0.006480,0.098488,0.999952,-0.000634,0.002730,-0.009435,-0.893262,-0.227341,-0.154180,0.355849,19.244252,25.928160,-38.971675
12025,-6.005742,-0.415056,10.053154,-3.285911,-2.025527,1.251005,-0.081214,0.398059,-2.265094,-0.059899,-0.003431,0.100652,0.999934,-0.000406,0.001990,-0.011325,-0.888982,-0.225899,-0.158680,0.365378,18.626780,26.564476,-40.251984
12026,-7.862263,-1.680043,10.763036,-5.250643,-2.006316,2.389024,-0.045081,0.061092,-2.798386,-0.078814,-0.015674,0.107658,0.999902,-0.000225,0.000305,-0.013991,-0.883815,-0.223535,-0.162168,0.377630,17.834085,27.095836,-41.941038
12027,-8.914796,-1.128047,11.546894,-5.298963,-1.233335,3.769219,0.012165,-0.516227,-3.396592,-0.089620,-0.009768,0.115237,0.999852,0.000061,-0.002581,-0.016982,-0.877702,-0.219797,-0.163654,0.393123,16.836237,27.393147,-44.124061
12028,-8.966464,-0.955519,11.932348,-4.987092,-0.974415,4.253421,-0.190924,-1.088050,-4.035007,-0.090479,-0.007622,0.118841,0.999781,-0.000955,-0.005440,-0.020174,-0.870711,-0.213439,-0.163644,0.411738,15.482982,27.434461,-46.815568
12029,-7.797691,-0.353760,11.285511,-3.707202,-0.683191,3.380791,0.000786,-1.528766,-4.400654,-0.078889,-0.001809,0.112254,0.999729,0.000004,-0.007643,-0.022001,-0.862692,-0.206602,-0.161663,0.432369,14.103886,27.231526,-49.806180
12030,-6.619880,3.241261,11.704359,0.101855,0.566814,4.006892,0.050125,-1.770981,-4.375398,-0.066502,0.033836,0.116464,0.999721,0.000251,-0.008854,-0.021875,-0.854406,-0.199364,-0.158383,0.452945,12.766273,26.823844,-52.802567
12031,-5.329175,3.365926,11.418256,1.037526,0.083165,3.187988,-0.020806,-1.865496,-3.999481,-0.053666,0.034742,0.113680,0.999757,-0.000104,-0.009327,-0.019996,-0.846667,-0.191797,-0.154438,0.471717,11.518566,26.261172,-55.552809
12032,-4.642905,3.146694,11.318832,1.279583,-0.284292,2.751270,0.274711,-1.969694,-3.407620,-0.046998,0.032109,0.112771,0.999805,0.001373,-0.009848,-0.017037,-0.839757,-0.185613,-0.148685,0.488107,10.638479,25.525794,-57.918060
12033,-4.641570,3.761369,11.873968,1.879631,-0.079921,3.345629,0.491959,-2.057821,-2.885398,-0.047088,0.037998,0.118351,0.999840,0.002460,-0.010289,-0.014426,-0.833684,-0.180444,-0.141528,0.502374,10.054992,24.663020,-59.942413
12034,-5.959160,2.251105,12.034259,-0.066108,0.454489,3.795609,0.571855,-2.281555,-2.623311,-0.060661,0.022959,0.119720,0.999845,0.002859,-0.011407,-0.013116,-0.828099,-0.175179,-0.132924,0.515651,9.616457,23.628862,-61.804401
12035,-6.644946,0.802236,11.531835,-1.713337,0.932205,3.377010,0.712055,-2.581291,-2.759333,-0.067815,0.008543,0.114479,0.999815,0.003560,-0.012906,-0.013796,-0.821955,-0.169567,-0.122824,0.529670,9.253641,22.429109,-63.757145
12036,-7.934942,-1.309625,10.647615,-4.203500,1.952892,2.699280,0.867507,-2.963920,-3.100784,-0.081110,-0.012306,0.105228,0.999761,0.004337,-0.014818,-0.015503,-0.814667,-0.163304,-0.110945,0.545290,8.942069,21.030288,-65.929019
12037,-7.680539,-2.251114,8.998460,-4.985905,2.512234,0.856858,1.286701,-3.400169,-3.320983,-0.078684,-0.021788,0.088516,0.999697,0.006433,-0.016999,-0.016603,-0.806235,-0.157341,-0.096302,0.562098,8.870501,19.400322,-68.248337
12038,-5.757953,0.061324,7.120866,-2.110184,2.649599,-1.304953,1.603587,-3.641925,-3.429209,-0.058848,0.001050,0.070152,0.999655,0.008017,-0.018208,-0.017144,-0.796848,-0.151830,-0.079781,0.579324,9.027670,17.641726,-70.631950
12039,-3.472787,1.432031,6.420037,-0.070213,1.477365,-2.523181,1.535415,-3.465185,-3.266318,-0.035600,0.014407,0.063699,0.999687,0.007676,-0.017324,-0.016330,-0.787391,-0.146515,-0.064027,0.595357,9.247596,15.979032,-72.886176
12040,-3.370754,3.648758,6.703461,2.025343,2.004525,-1.971110,1.555351,-3.265165,-2.876499,-0.034274,0.036458,0.066762,0.999733,0.007776,-0.016324,-0.014381,-0.778561,-0.141922,-0.048637,0.609374,9.611119,14.400611,-74.883014
12041,-2.396664,5.926403,7.267228,4.369555,1.525782,-1.312263,1.194226,-3.057440,-2.374895,-0.024375,0.059118,0.072655,0.999795,0.005971,-0.015286,-0.011874,-0.771098,-0.136604,-0.034817,0.620914,9.890910,12.904901,-76.562981
12042,-2.511462,5.751995,7.521168,4.103251,1.623438,-1.066964,0.858945,-2.803263,-1.874766,-0.025629,0.057436,0.075102,0.999849,0.004295,-0.014016,-0.009373,-0.765099,-0.130828,-0.022623,0.630076,10.090618,11.506588,-77.925096
12043,-2.752063,5.566344,8.773021,3.687093,1.658777,0.146025,0.420549,-2.613949,-1.643071,-0.028208,0.055709,0.087482,0.999879,0.002103,-0.013069,-0.008215,-0.759889,-0.123958,-0.012415,0.638004,10.097096,10.197326,-79.130541
12044,-3.226573,2.943866,9.230764,0.986146,1.789687,0.192574,0.156973,-2.510165,-1.622659,-0.033181,0.029633,0.091918,0.999888,0.000785,-0.012550,-0.008113,-0.754722,-0.116393,-0.003388,0.645628,9.986831,8.940394,-80.307992
12045,-3.414924,1.172537,9.297424,-0.777754,1.927293,-0.057954,0.440838,-2.527999,-1.625636,-0.035225,0.011804,0.092559,0.999885,0.002204,-0.012640,-0.008128,-0.749213,-0.109815,0.006585,0.653129,10.062161,7.676501,-81.484055
12046,-4.184083,3.348828,9.815939,1.147363,3.089653,0.874090,0.670343,-2.670936,-1.636437,-0.042874,0.033508,0.097704,0.999872,0.003352,-0.013354,-0.008182,-0.743353,-0.103604,0.017872,0.660586,10.295811,6.333078,-82.681104
12047,-3.944355,4.394794,10.077630,2.153237,3.152612,1.225913,0.515187,-2.862628,-1.577611,-0.040535,0.044006,0.100315,0.999863,0.002576,-0.014312,-0.007888,-0.737557,-0.096151,0.029346,0.667760,10.467887,4.883111,-83.865669
12048,-1.907000,4.298614,9.276885,2.404867,1.433916,0.203879,0.333014,-3.032180,-1.409920,-0.020171,0.042972,0.092540,0.999859,0.001665,-0.015160,-0.007049,-0.732177,-0.087408,0.040948,0.674240,10.574910,3.319614,-84.974817
12049,1.465994,3.635893,7.870057,2.263093,-1.670276,-1.482487,0.239162,-2.838752,-1.216888,0.013761,0.036179,0.078943,0.999880,0.001196,-0.014193,-0.006084,-0.727341,-0.078915,0.051560,0.679771,10.660616,1.850053,-85.954844
12050,1.304468,3.079077,8.133771,1.604426,-1.390466,-1.278600,0.224720,-2.378641,-1.062522,0.012239,0.030633,0.081521,0.999915,0.001124,-0.011893,-0.005312,-0.723001,-0.071873,0.060540,0.684425,10.766659,0.621224,-86.801421
12051,-3.023577,2.367413,10.548353,0.193188,3.029466,0.994495,0.278615,-2.269876,-0.970486,-0.031316,0.023678,0.105165,0.999923,0.001393,-0.011349,-0.004852,-0.718877,-0.065362,0.069298,0.688579,10.918865,-0.551189,-87.586220
12052,-6.680813,1.902099,12.340601,-0.733021,6.935562,2.511717,0.340587,-2.769143,-0.988791,-0.068414,0.019147,0.122499,0.999890,0.001703,-0.013845,-0.004944,-0.714359,-0.057346,0.080081,0.692813,11.128608,-2.003114,-88.440761
12053,-5.277095,2.546464,11.540842,0.148275,5.871661,1.720349,0.244945,-3.454772,-1.242499,-0.054595,0.025659,0.114507,0.999831,0.001225,-0.017273,-0.006212,-0.708522,-0.046706,0.092847,0.697994,11.316601,-3.805343,-89.519438
12054,0.810250,1.898932,8.756786,0.127685,-0.066838,-0.817367,0.198050,-3.634990,-1.464691,0.006647,0.018850,0.087716,0.999808,0.000990,-0.018174,-0.007323,-0.701575,-0.035350,0.106041,0.703775,11.527723,-5.683608,-90.753554
12055,1.562791,3.290929,8.567741,1.463443,-0.554221,-0.635320,0.601286,-3.365995,-1.369034,0.014406,0.032550,0.086025,0.999830,0.003006,-0.016829,-0.006845,-0.694790,-0.026301,0.119648,0.708703,11.997723,-7.410753,-91.915767
12056,-1.084722,6.596242,10.268788,4.371402,2.543189,1.347556,0.770736,-3.435010,-1.069871,-0.012260,0.065630,0.102739,0.999831,0.003853,-0.017174,-0.005349,-0.688759,-0.017398,0.134135,0.712261,12.582835,-9.206337,-92.939303
12057,2.313659,7.385288,9.048950,5.153398,-0.729829,0.896191,0.720835,-3.617147,-0.601305,0.021713,0.073458,0.091156,0.999825,0.003604,-0.018085,-0.003006,-0.684051,-0.007367,0.149027,0.714011,13.131071,-11.149183,-93.742497
12058,4.929141,6.402206,7.808755,4.192600,-3.204789,0.107022,1.186157,-3.426226,0.212280,0.047872,0.063605,0.079294,0.999835,0.005930,-0.017130,0.001061,-0.682132,0.001013,0.164946,0.712382,13.878276,-13.089507,-94.085301
12059,2.745737,7.889798,9.593101,5.257845,-0.294634,1.765934,1.722548,-3.299211,1.102826,0.025430,0.078209,0.097037,0.999812,0.008612,-0.016495,0.005514,-0.683259,0.007829,0.182245,0.707023,14.821586,-15.076766,-93.930731
12060,0.845257,7.278020,11.696892,4.132108,2.597207,3.096789,1.540572,-3.466783,1.639776,0.005825,0.071931,0.117641,0.999786,0.007702,-0.017333,0.008198,-0.685842,0.016361,0.199414,0.699705,15.586721,-17.243214,-93.524098
12061,1.183447,2.219490,11.519356,-0.880588,2.628675,1.646590,1.489169,-3.840129,1.833244,0.009419,0.021429,0.115551,0.999746,0.007445,-0.019199,0.009165,-0.688412,0.026539,0.217542,0.691418,16.297346,-19.646588,-93.090123
12062,3.590156,0.339297,9.668210,-2.461641,0.115219,0.206728,1.793707,-4.163481,1.675412,0.033853,0.002811,0.097428,0.999708,0.008968,-0.020815,0.008376,-0.689741,0.036621,0.237770,0.682921,17.230547,-22.210950,-92.837592
12063,6.361464,-0.130649,7.092502,-2.441884,-3.048119,-1.122333,1.925676,-4.110909,1.376178,0.062149,-0.001567,0.072198,0.999719,0.009627,-0.020553,0.006880,-0.689749,0.045671,0.258152,0.674920,18.312064,-24.693804,-92.796044
12064,8.523512,1.820845,4.282018,0.056843,-5.660276,-1.923072,2.131934,-3.732424,1.242053,0.084301,0.018265,0.044594,0.999750,0.010659,-0.018661,0.006210,-0.689464,0.052556,0.277851,0.666840,19.536880,-26.951068,-92.813512
12065,10.551911,5.652419,3.839493,3.672102,-6.921840,0.016915,1.867820,-2.855627,1.352473,0.104568,0.056862,0.040423,0.999832,0.009339,-0.014277,0.006762,-0.690417,0.057543,0.293473,0.658701,20.509762,-28.753649,-92.616835
12066,5.127039,5.152309,6.200973,2.574989,-0.803419,-0.647497,1.829051,-2.178188,1.917591,0.050094,0.051434,0.063030,0.999853,0.009145,-0.010890,0.009587,-0.693986,0.061260,0.306404,0.648651,21.220934,-30.314873,-91.942566
12067,6.279933,6.841529,6.476790,3.963112,-1.062559,0.739275,1.930319,-2.130360,2.438283,0.061265,0.068535,0.066087,0.999822,0.009651,-0.010651,0.012191,-0.699130,0.065232,0.319214,0.636447,21.803724,-31.963385,-90.940471
12068,5.529374,3.661377,8.375669,0.264495,0.284015,0.863164,1.677608,-1.767173,2.619034,0.054069,0.036620,0.084545,0.999840,0.008388,-0.008835,0.013094,-0.705101,0.069214,0.329807,0.623914,22.106769,-33.467381,-89.730962
12069,4.732967,3.123903,7.478410,0.035886,0.657043,-0.450712,1.887772,-2.106279,2.521745,0.046144,0.031115,0.075568,0.999821,0.009438,-0.010531,0.012608,-0.710051,0.073311,0.342153,0.611052,22.581481,-35.133603,-88.662220
12070,10.729366,4.425323,4.518809,2.503744,-5.180268,1.233047,1.389536,-1.746747,2.203427,0.106398,0.045109,0.046431,0.999877,0.006947,-0.008733,0.011017,-0.714237,0.077529,0.351733,0.600115,22.807610,-36.547915,-87.696339
12071,7.764340,3.127469,5.209786,0.990243,-2.522531,-0.333199,1.060474,-1.143536,2.073587,0.077015,0.031797,0.052707,0.999916,0.005302,-0.005718,0.010368,-0.718826,0.080851,0.358132,0.590334,22.770916,-37.613225,-86.635114
12072,7.299303,3.130081,5.425368,0.922635,-1.848006,-0.418944,1.130633,-0.960148,2.247387,0.072375,0.031808,0.054781,0.999909,0.005653,-0.004801,0.011237,-0.724151,0.083694,0.363964,0.579768,22.645436,-38.621709,-85.389628
12073,6.845796,2.859799,5.719080,0.567426,-1.244662,-0.545670,1.359743,-0.685929,2.572161,0.067889,0.029083,0.057621,0.999888,0.006798,-0.003430,0.012860,-0.730871,0.085470,0.369242,0.567611,22.432934,-39.550982,-83.823744
12074,5.938095,3.720820,5.977476,1.178040,0.060104,-0.678055,1.442651,-0.577439,2.801657,0.058683,0.037600,0.060215,0.999872,0.007213,-0.002887,0.014008,-0.738297,0.087054,0.374188,0.554367,22.109620,-40.469445,-82.042201
12075,7.420549,2.443946,4.993774,0.711891,-1.898343,-0.764922,1.306098,-0.297158,2.865630,0.073774,0.025171,0.050210,0.999875,0.006530,-0.001486,0.014328,-0.746182,0.088446,0.377584,0.541129,21.586520,-41.239938,-80.104839
12076,5.740600,2.080039,5.267766,0.124934,-0.523992,-1.766627,1.501988,-0.020409,3.002207,0.057084,0.021262,0.052842,0.999859,0.007510,-0.000102,0.015010,-0.754841,0.088609,0.380329,0.526984,21.021495,-41.879639,-77.962713
12077,6.976210,3.800861,4.552998,2.218463,-0.925983,-0.977447,1.711709,0.200033,3.329555,0.069167,0.038772,0.045790,0.999824,0.008558,0.001000,0.016647,-0.764640,0.087979,0.382518,0.511141,20.341038,-42.447712,-75.493927
12078,7.045481,4.539340,4.470058,3.001572,-0.484784,-0.813981,1.653719,0.651100,3.720045,0.069745,0.046325,0.044853,0.999788,0.008268,0.003255,0.018599,-0.775972,0.087145,0.382526,0.493910,19.317096,-42.823536,-72.590089
12079,7.646018,3.972669,3.988946,3.059431,-1.233697,-0.909490,1.436648,1.087950,4.003556,0.075865,0.040963,0.039767,0.999759,0.007183,0.005439,0.020016,-0.788394,0.086561,0.379998,0.475966,17.927657,-42.966917,-69.345017
12080,8.487378,3.205152,4.257424,2.748325,-1.910082,-0.366854,1.182324,1.712920,4.129459,0.084553,0.033550,0.042045,0.999733,0.005911,0.008564,0.020645,-0.801789,0.085704,0.374161,0.458032,16.230626,-42.726981,-65.860372
12081,5.625571,2.103862,5.739262,0.475631,0.192292,-1.521375,1.065943,2.072429,4.181168,0.056395,0.021912,0.056924,0.999714,0.005329,0.010361,0.020904,-0.815481,0.084522,0.366383,0.440013,14.431382,-42.216783,-62.296559
12082,5.736903,1.979541,6.297686,0.330440,0.330350,-1.079455,0.880986,2.212317,4.005709,0.057653,0.020672,0.062430,0.999729,0.004405,0.011061,0.020027,-0.828508,0.083434,0.357501,0.422856,12.660710,-41.524931,-58.894595
12083,5.464938,0.822302,6.272134,-0.419186,-0.237659,-1.467347,0.812540,2.383907,3.800235,0.055226,0.009016,0.062101,0.999740,0.004062,0.011919,0.019000,-0.840938,0.081838,0.347657,0.406523,11.017035,-40.636173,-55.689908
12084,5.792233,1.276657,6.013333,0.423768,-0.273331,-1.381724,0.882646,2.528440,3.667902,0.058433,0.013572,0.059455,0.999742,0.004413,0.012641,0.018338,-0.852942,0.079399,0.337223,0.390469,9.553714,-39.588538,-52.641104
12085,5.349810,0.985644,6.870001,-0.196252,0.106821,-1.052895,0.785105,2.726650,3.462970,0.054250,0.010524,0.068004,0.999749,0.003925,0.013632,0.017313,-0.864408,0.076585,0.325663,0.375336,8.215789,-38.352746,-49.803635
12086,4.233491,-0.115015,7.231108,-1.484645,0.056183,-1.565730,0.731263,2.705505,3.152600,0.043322,-0.000735,0.071726,0.999778,0.003656,0.013527,0.015762,-0.874827,0.073519,0.314059,0.361442,7.082571,-37.059181,-47.273354
12087,6.342588,-0.548895,5.871968,0.285752,-2.062372,-1.406268,0.564287,2.765711,2.667851,0.064297,-0.004799,0.057820,0.999811,0.002821,0.013828,0.013338,-0.884043,0.070266,0.301936,0.349807,6.147242,-35.662419,-45.155531
12088,7.139334,-1.279739,6.222531,0.389514,-3.033876,-0.759414,0.421698,3.142334,2.117152,0.072490,-0.012163,0.061066,0.999818,0.002108,0.015711,0.010585,-0.892486,0.066145,0.287983,0.340821,5.414691,-33.995617,-43.457871
12089,0.529048,-0.009066,11.221662,-4.859923,3.090825,-0.167849,0.682668,3.137037,1.919524,0.007053,-0.000411,0.112114,0.999825,0.003413,0.015684,0.009597,-0.900353,0.060545,0.274461,0.332220,4.977896,-32.306797,-41.949588
12090,-0.653616,1.941043,11.307126,-4.274981,5.071535,-0.429455,0.572655,2.348481,1.776493,-0.005378,0.019035,0.113194,0.999888,0.002863,0.011742,0.008882,-0.906608,0.056551,0.264271,0.324076,4.602879,-31.053186,-40.619320
12091,4.997561,0.641926,8.496291,-0.015590,0.005938,0.065103,0.095345,2.100236,1.444350,0.050816,0.006744,0.084435,0.999919,0.000477,0.010501,0.007222,-0.911688,0.054655,0.254468,0.317937,4.112078,-29.916946,-39.549973
12092,6.328854,-1.900566,6.691351,0.313828,-3.287155,-1.007454,0.003968,2.292845,1.117004,0.064155,-0.018650,0.066181,0.999919,0.000020,0.011464,0.005585,-0.916317,0.052462,0.243696,0.313406,3.698554,-28.652102,-38.709108
12093,7.412043,-2.277415,6.272353,1.230416,-4.383584,-0.939618,0.353975,2.620459,0.822955,0.075027,-0.022576,0.061704,0.999904,0.001770,0.013102,0.004115,-0.920815,0.047769,0.232001,0.309827,3.595709,-27.184643,-38.062763
12094,4.215349,-0.182910,8.530823,-0.443717,-0.574573,-0.323534,0.666743,2.909587,0.741523,0.043396,-0.001953,0.084677,0.999882,0.003334,0.014547,0.003707,-0.925399,0.041098,0.219434,0.306262,3.707768,-25.550226,-37.464970
12095,3.159996,0.473031,8.547379,-0.625295,0.361064,-0.716514,0.620942,2.785969,0.662013,0.032771,0.004573,0.085037,0.999893,0.003105,0.013929,0.003310,-0.929509,0.034720,0.207332,0.303020,3.834870,-23.983622,-36.926839
12096,5.439439,-0.414736,7.570225,1.083651,-1.961843,-0.755182,0.398750,2.917964,0.449977,0.055500,-0.004173,0.074890,0.999889,0.001994,0.014589,0.002250,-0.933192,0.028960,0.194276,0.300951,3.898296,-22.335179,-36.518544
12097,5.776421,-1.599904,6.774022,1.151276,-3.412575,-1.515961,0.385150,3.253276,0.193348,0.058871,-0.016072,0.066758,0.999865,0.001926,0.016266,0.000967,-0.936584,0.022490,0.179621,0.300067,4.019845,-20.484661,-36.255984
12098,4.803055,-0.519156,7.363098,1.073684,-2.088020,-1.325496,0.644493,3.688060,0.094267,0.049380,-0.005404,0.072711,0.999825,0.003222,0.018439,0.000471,-0.939957,0.014070,0.163278,0.299371,4.309620,-18.383332,-36.030389
12099,0.882868,1.265662,8.899343,-1.146981,1.524559,-0.984907,0.843063,3.860098,0.278453,0.010527,0.012296,0.088854,0.999804,0.004215,0.019299,0.001392,-0.943412,0.004595,0.146349,0.297547,4.684069,-16.192788,-35.676684
12100,0.335353,2.552015,9.350376,-0.745765,2.684893,-0.523985,0.745573,3.741012,0.429863,0.005048,0.025181,0.093514,0.999816,0.003728,0.018704,0.002149,-0.946645,-0.004125,0.129780,0.294965,4.990090,-14.080076,-35.229648
12101,0.873529,1.122571,9.037334,-0.800898,0.949819,-0.749371,0.482781,3.715477,0.442582,0.010388,0.011030,0.090217,0.999822,0.002414,0.018576,0.002213,-0.949543,-0.011565,0.112894,0.292386,5.160114,-11.983618,-34.771615
12102,1.873398,-2.257534,7.142949,-1.215302,-2.698647,-2.680992,0.729563,3.743814,0.281752,0.020098,-0.022807,0.070979,0.999817,0.003648,0.018718,0.001409,-0.951865,-0.020293,0.096187,0.290326,5.503171,-9.865229,-34.399465
12103,2.718177,-2.386850,6.008653,-0.182095,-3.495877,-3.735857,1.446769,4.032314,0.043961,0.028389,-0.024293,0.059348,0.999771,0.007233,0.020160,0.000220,-0.953517,-0.032968,0.079081,0.288902,6.287647,-7.571331,-34.128576
12104,1.914950,-0.790673,5.305713,0.313644,-1.923306,-4.461167,2.039884,4.470579,-0.148957,0.020321,-0.008459,0.052527,0.999698,0.010198,0.022351,-0.000745,-0.954460,-0.049153,0.060673,0.287939,7.427164,-5.020575,-33.900816
12105,0.543938,1.755283,5.522633,0.686641,0.696988,-4.075852,2.323481,4.923159,-0.292415,0.006825,0.016902,0.055269,0.999629,0.011616,0.024613,-0.001462,-0.954623,-0.067359,0.040435,0.287269,8.739925,-2.206413,-33.664244
12106,-2.032862,3.566241,6.455061,-0.402241,3.227147,-2.889721,2.216629,5.220553,-0.410925,-0.018556,0.034980,0.065441,0.999596,0.011082,0.026099,-0.002054,-0.953972,-0.085448,0.018556,0.286864,10.002552,0.780352,-33.404313
12107,-4.273556,4.542606,7.810354,-1.619796,4.695026,-1.140414,1.871480,5.251347,-0.486905,-0.040549,0.044786,0.079609,0.999609,0.009356,0.026253,-0.002434,-0.952606,-0.101882,-0.004015,0.286612,11.082712,3.787210,-33.122518
12108,-5.855295,3.912523,8.815563,-3.041310,4.446246,0.099865,1.470745,5.033267,-0.515219,-0.056205,0.038615,0.089875,0.999653,0.007353,0.025163,-0.002576,-0.950705,-0.116012,-0.026130,0.286387,11.947786,6.668978,-32.829804
12109,-6.618014,1.824546,9.294708,-4.515889,2.653273,0.485819,1.371517,4.660524,-0.553406,-0.063939,0.017780,0.094578,0.999701,0.006857,0.023300,-0.002767,-0.948243,-0.129070,-0.046630,0.286360,12.768109,9.343587,-32.559896
12110,-7.454478,1.363122,9.842950,-5.150500,2.183939,1.277370,1.516159,4.146570,-0.673863,-0.072437,0.013123,0.100047,0.999751,0.007580,0.020731,-0.003369,-0.945117,-0.141966,-0.064530,0.287115,13.664542,11.741627,-32.384645
12111,-7.709078,0.924360,9.793975,-5.330763,1.610574,1.375567,1.619775,3.558260,-0.871408,-0.075292,0.008773,0.099362,0.999799,0.008098,0.017790,-0.004357,-0.941398,-0.154394,-0.079629,0.289123,14.593663,13.839557,-32.365033
12112,-7.716106,1.868078,9.772309,-4.562254,2.029567,1.744937,1.681366,2.946040,-1.054724,-0.075612,0.018254,0.098999,0.999842,0.008406,0.014729,-0.005273,-0.937276,-0.166085,-0.091855,0.292391,15.515755,15.623271,-32.510036
12113,-7.025180,3.159007,9.754834,-3.050087,2.383038,1.998208,1.547136,2.353330,-1.128679,-0.068919,0.031221,0.098607,0.999885,0.007735,0.011766,-0.005643,-0.933171,-0.176216,-0.101560,0.296353,16.326282,17.096958,-32.766803
12114,-5.630964,2.821319,8.311961,-2.091100,1.727626,0.256755,1.447267,1.940285,-1.082775,-0.055347,0.027909,0.083862,0.999912,0.007236,0.009701,-0.005414,-0.929248,-0.185242,-0.109401,0.300358,17.064803,18.336623,-33.050296
12115,-4.217711,3.651420,7.125844,-0.461279,1.909811,-0.978921,1.476099,1.808817,-0.971208,-0.041352,0.036187,0.071903,0.999920,0.007380,0.009044,-0.004856,-0.925377,-0.194251,-0.116494,0.303929,17.833420,19.492218,-33.276972
12116,-4.252238,6.148033,7.462701,1.179353,3.437456,0.104964,1.159213,1.794109,-0.881320,-0.041578,0.061230,0.075358,0.999933,0.005796,0.008970,-0.004407,-0.921830,-0.201779,-0.123869,0.306873,18.436492,20.622759,-33.442196
12117,-4.766807,5.167651,8.327825,0.406603,2.427715,0.804131,0.485730,1.721919,-0.782563,-0.046746,0.051658,0.083809,0.999952,0.002429,0.008609,-0.003913,-0.919047,-0.206149,-0.131859,0.308978,18.670624,21.700896,-33.555167
12118,-5.581938,2.195830,8.909441,-1.867227,0.295431,0.759987,0.366715,1.526323,-0.622974,-0.055069,0.021967,0.089557,0.999964,0.001834,0.007632,-0.003115,-0.916694,-0.209740,-0.138931,0.310452,18.855088,22.640187,-33.611322
12119,-5.342201,1.358068,9.442982,-2.038989,-0.805744,0.899209,0.697570,1.259102,-0.425347,-0.052797,0.013363,0.094810,0.999972,0.003488,0.006295,-0.002127,-0.914420,-0.214576,-0.144078,0.311505,19.256124,23.401967,-33.599315
12120,-4.743754,3.533916,9.860308,-0.075016,0.114821,1.685000,0.610350,1.080349,-0.457825,-0.046823,0.035145,0.098965,0.999978,0.003052,0.005402,-0.002289,-0.912279,-0.218681,-0.148542,0.312826,19.585129,24.069344,-33.639667
12121,-4.907524,1.751705,9.698161,-1.269395,-1.084629,1.069301,0.208425,0.977524,-0.554694,-0.048552,0.017551,0.097238,0.999984,0.001042,0.004888,-0.002773,-0.910461,-0.220731,-0.153297,0.314385,19.653211,24.704019,-33.755515
12122,-4.794019,0.866793,9.266432,-1.725061,-1.618213,0.385615,0.257265,0.921265,-0.682414,-0.047483,0.008711,0.092895,0.999983,0.001286,0.004606,-0.003412,-0.908410,-0.222790,-0.157824,0.316620,19.709465,25.329074,-33.960508
12123,-5.245235,1.679587,9.734959,-1.377415,-1.115004,1.230922,0.121049,0.878179,-0.876117,-0.051950,0.016965,0.097589,0.999981,0.000605,0.004391,-0.004381,-0.906196,-0.224018,-0.162613,0.319660,19.632047,25.972324,-34.290721
12124,-6.259905,0.082587,9.668712,-3.082258,-1.708969,1.153418,0.020123,0.684596,-1.032683,-0.062262,0.001138,0.096901,0.999981,0.000101,0.003423,-0.005163,-0.903976,-0.224327,-0.166823,0.323536,19.431029,26.536191,-34.761118
12125,-6.246025,0.488910,9.360617,-2.771560,-1.288232,1.028511,0.275630,0.410904,-1.061597,-0.062241,0.005091,0.093741,0.999983,0.001378,0.002055,-0.005308,-0.901610,-0.225329,-0.169444,0.328048,19.337648,26.960837,-35.310045
12126,-5.456819,1.995928,8.946897,-1.199078,-0.463981,0.777603,0.368364,0.264024,-1.042681,-0.054346,0.020078,0.089578,0.999984,0.001842,0.001320,-0.005213,-0.899274,-0.226503,-0.171189,0.332711,19.283378,27.297553,-35.882120
12127,-5.031513,1.666718,8.398804,-1.150742,-0.637442,0.031256,0.315197,0.259700,-1.057158,-0.050117,0.016800,0.084080,0.999984,0.001576,0.001298,-0.005286,-0.896941,-0.227422,-0.173051,0.337386,19.190297,27.638483,-36.465480
12128,-4.865077,1.524501,8.897901,-0.989685,-1.094297,0.335627,0.268468,0.397715,-1.393590,-0.048366,0.015463,0.089096,0.999973,0.001342,0.001989,-0.006968,-0.893945,-0.228053,-0.175949,0.343360,18.982423,28.111341,-37.229538
12129,-7.240883,-0.304715,10.187446,-3.636374,-1.692669,2.028667,0.098035,0.244832,-1.803199,-0.072308,-0.002445,0.101962,0.999958,0.000490,0.001224,-0.009016,-0.890505,-0.227292,-0.178950,0.351165,18.533044,28.577377,-38.284022
12130,-7.696173,-0.834288,10.760324,-4.155141,-2.008750,2.613497,0.381219,-0.201132,-2.095192,-0.077153,-0.007740,0.107511,0.999943,0.001906,-0.001006,-0.010476,-0.886551,-0.226717,-0.179744,0.360997,18.105554,28.841782,-39.619315
12131,-7.688462,-0.039873,11.677733,-3.369454,-1.857661,3.628907,0.311891,-0.560551,-2.667418,-0.077209,0.000448,0.116561,0.999906,0.001559,-0.002803,-0.013337,-0.881824,-0.224641,-0.179733,0.373657,17.422829,29.003545,-41.388726
12132,-8.881707,-1.669570,11.806602,-5.260825,-1.994984,3.949627,0.138581,-1.061048,-3.431600,-0.089712,-0.015243,0.117581,0.999838,0.000693,-0.005305,-0.017157,-0.876099,-0.220118,-0.178611,0.389996,16.359694,28.989706,-43.736209
12133,-9.028004,-0.017834,11.733662,-3.998606,-0.512707,4.432226,0.212917,-1.640658,-4.075008,-0.091219,0.001550,0.116592,0.999758,0.001064,-0.008203,-0.020373,-0.869194,-0.214125,-0.175488,0.409703,15.098500,28.719418,-46.588269
12134,-7.641534,1.256100,10.595102,-2.182838,0.299054,3.124116,0.230104,-2.083909,-4.256333,-0.077225,0.014078,0.105165,0.999719,0.001150,-0.010419,-0.021280,-0.861845,-0.207030,-0.170459,0.430472,13.787694,28.168075,-49.607265
12135,-5.754241,2.845848,9.627853,0.188101,0.674245,1.737666,0.432074,-2.188389,-4.160177,-0.057986,0.029454,0.095709,0.999721,0.002160,-0.010941,-0.020799,-0.854093,-0.200539,-0.164401,0.450868,12.653296,27.494349,-52.550939
12136,-5.844330,3.053203,9.868902,0.432834,0.952170,2.009937,0.396934,-2.262530,-3.876036,-0.058951,0.031476,0.098086,0.999746,0.001985,-0.011312,-0.019379,-0.846633,-0.193864,-0.157684,0.469855,11.628506,26.690912,-55.290268
12137,-5.384022,2.334613,9.446711,0.077217,0.692423,1.286360,0.628683,-2.393407,-3.455546,-0.054555,0.023989,0.093892,0.999774,0.003143,-0.011966,-0.017276,-0.839628,-0.188094,-0.149435,0.487150,10.894997,25.734365,-57.748535
12138,-5.250933,2.486056,9.135827,0.266484,1.017852,0.962539,0.821899,-2.500302,-3.080997,-0.053259,0.025303,0.090799,0.999795,0.004109,-0.012501,-0.015404,-0.833081,-0.183081,-0.139800,0.502906,10.423094,24.650018,-59.952850
12139,-5.115675,1.990323,8.252981,-0.158224,1.297118,0.012394,0.899145,-2.544072,-2.897467,-0.051910,0.020282,0.081963,0.999804,0.004495,-0.012720,-0.014486,-0.826615,-0.178325,-0.129616,0.517792,10.085950,23.512857,-62.021812
12140,-5.782308,1.803972,7.882532,-0.614694,2.128946,-0.121997,0.884912,-2.521586,-2.889841,-0.058546,0.018535,0.078171,0.999806,0.004424,-0.012607,-0.014448,-0.819853,-0.173513,-0.119453,0.532414,9.794729,22.372675,-64.057996
12141,-6.610850,1.475286,7.456061,-1.213990,3.095223,-0.304102,0.894272,-2.594311,-2.909656,-0.066848,0.015391,0.073765,0.999800,0.004471,-0.012971,-0.014547,-0.812747,-0.168457,-0.108990,0.546979,9.544004,21.189105,-66.091964
12142,-6.277155,2.570961,7.224073,-0.010937,3.496859,-0.540820,0.922681,-2.695583,-2.893141,-0.063361,0.026292,0.071510,0.999794,0.004613,-0.013477,-0.014465,-0.805395,-0.163188,-0.097927,0.561355,9.361598,19.934974,-68.103697
12143,-5.001233,3.462008,7.240813,1.332316,2.832270,-0.889233,0.694680,-2.619700,-2.807956,-0.050466,0.035076,0.071870,0.999810,0.003473,-0.013098,-0.014039,-0.798107,-0.157185,-0.087758,0.574993,9.111223,18.713744,-70.036993
12144,-4.012944,3.418109,7.008335,1.667884,2.155679,-1.477598,0.584684,-2.465911,-2.621928,-0.040539,0.034507,0.069686,0.999834,0.002923,-0.012329,-0.013109,-0.791095,-0.151216,-0.078285,0.587515,8.885190,17.550411,-71.825304
12145,-2.825178,4.064112,7.383919,2.643301,1.227969,-1.414752,0.493613,-2.247779,-2.387428,-0.028594,0.040799,0.073620,0.999863,0.002468,-0.011238,-0.011937,-0.784513,-0.145570,-0.069797,0.598730,8.686862,16.488786,-73.439803
12146,-2.288209,4.312301,7.904903,2.999055,0.712490,-1.048164,0.429094,-1.999682,-2.053991,-0.023228,0.043191,0.078911,0.999895,0.002145,-0.009998,-0.010270,-0.778703,-0.140498,-0.062160,0.608291,8.546643,15.529575,-74.823446
12147,-2.845066,5.323023,9.353249,3.728662,1.111573,0.616741,0.269604,-1.871647,-1.731003,-0.028863,0.053353,0.093336,0.999918,0.001348,-0.009358,-0.008655,-0.773801,-0.135267,-0.055322,0.616340,8.387419,14.617027,-75.997743
12148,-2.973298,4.191810,10.805727,2.498080,0.726147,1.866595,-0.039117,-1.899549,-1.497086,-0.030442,0.042165,0.107762,0.999927,-0.000196,-0.009498,-0.007485,-0.769719,-0.128800,-0.049107,0.623323,8.108686,13.660302,-77.028747
12149,-3.076246,1.853392,11.518761,0.159369,0.386878,2.245543,-0.079870,-2.041043,-1.421624,-0.031803,0.018803,0.114859,0.999923,-0.000399,-0.010205,-0.007108,-0.765816,-0.121737,-0.042469,0.630002,7.830059,12.617146,-78.018227
12150,-2.544249,0.930014,11.610195,-0.640847,-0.069606,2.091687,0.081735,-2.185352,-1.529485,-0.026637,0.009453,0.115819,0.999911,0.000409,-0.010926,-0.007647,-0.761380,-0.114793,-0.034777,0.637113,7.652091,11.491845,-79.073203
12151,-3.581163,0.347794,11.802720,-1.441194,1.053187,2.396208,0.415054,-2.310930,-1.617930,-0.037144,0.003530,0.117610,0.999898,0.002075,-0.011554,-0.008089,-0.756348,-0.108681,-0.025641,0.644568,7.671911,10.305172,-80.183151
12152,-5.558628,2.362087,12.439670,0.113284,3.436188,3.581112,0.633943,-2.734291,-1.671057,-0.057083,0.023701,0.123698,0.999867,0.003170,-0.013671,-0.008355,-0.750905,-0.101999,-0.014170,0.652333,7.835529,8.879384,-81.354279
12153,-3.764978,3.275205,11.656964,1.349790,2.253965,2.591984,0.400574,-3.098855,-1.714891,-0.039169,0.032851,0.116036,0.999841,0.002003,-0.015493,-0.008574,-0.745245,-0.093221,-0.002164,0.660239,7.885063,7.257109,-82.576976
12154,-2.752848,2.750105,10.387634,1.102585,1.689780,1.094441,0.346184,-3.279011,-1.742519,-0.028987,0.027570,0.103457,0.999826,0.001731,-0.016394,-0.008712,-0.739273,-0.083612,0.010375,0.668114,7.939747,5.531011,-83.826952
12155,1.010991,3.365463,8.961184,2.249922,-1.561219,-0.585178,0.366253,-3.202853,-1.689900,0.008956,0.033411,0.089823,0.999834,0.001831,-0.016013,-0.008449,-0.733225,-0.074305,0.022664,0.675534,8.042166,3.850655,-85.039147
12156,2.866352,3.891479,8.087699,2.954860,-3.109938,-1.424368,0.486378,-2.758742,-1.478354,0.027829,0.038510,0.081359,0.999875,0.002432,-0.013793,-0.007391,-0.727682,-0.066888,0.033858,0.681805,8.258634,2.403383,-86.098013
12157,0.052275,4.449106,10.175257,2.930928,-0.208732,0.896928,0.600790,-2.368825,-1.164257,-0.000426,0.044186,0.101884,0.999908,0.003004,-0.011844,-0.005821,-0.723083,-0.061153,0.044071,0.686636,8.568347,1.160092,-86.951015
12158,-7.198480,3.581211,14.170345,1.051795,7.145445,4.790920,0.665850,-2.718208,-0.933781,-0.073736,0.035684,0.140828,0.999891,0.003329,-0.013591,-0.004669,-0.719032,-0.054386,0.055881,0.690589,8.939709,-0.300472,-87.711604
12159,-7.653226,2.482031,14.427760,-0.075489,7.989609,4.644973,0.497006,-3.811492,-1.189578,-0.079116,0.024930,0.142848,0.999798,0.002485,-0.019056,-0.005947,-0.713619,-0.043302,0.070901,0.695590,9.240175,-2.347049,-88.723756
12160,0.089024,-0.136610,11.287686,-1.980589,0.564947,1.285814,0.378550,-4.281734,-1.704560,-0.001539,-0.001574,0.112858,0.999733,0.001893,-0.021407,-0.008522,-0.705935,-0.030312,0.087093,0.702248,9.535251,-4.611000,-90.084704
12161,2.794668,-0.312799,8.904201,-1.857324,-1.888466,-0.859342,0.808851,-4.184534,-2.049606,0.026040,-0.003763,0.089586,0.999720,0.004044,-0.020921,-0.010247,-0.696639,-0.019329,0.104295,0.709537,10.146235,-6.769978,-91.652712
12162,4.324704,3.867922,7.787464,2.237970,-3.254650,-0.941562,1.139283,-3.844859,-2.027281,0.042123,0.037801,0.078909,0.999748,0.005696,-0.019223,-0.010136,-0.687191,-0.010666,0.121491,0.716167,11.004322,-8.725298,-93.207808
12163,1.718757,6.104048,8.728059,4.243427,-0.349597,0.099806,1.051632,-3.533534,-1.630625,0.016133,0.060445,0.087891,0.999797,0.005258,-0.017666,-0.008153,-0.679053,-0.002580,0.137215,0.721146,11.820900,-10.523116,-94.536283
12164,2.881696,7.110965,8.433206,5.074584,-1.348699,0.307186,0.844255,-3.476089,-1.166429,0.027755,0.070587,0.085119,0.999823,0.004221,-0.017379,-0.005832,-0.672365,0.006332,0.152004,0.724417,12.516134,-12.332199,-95.625898
12165,4.111197,4.904321,8.486059,2.689951,-2.167658,0.238470,0.658735,-3.140574,-0.768908,0.039958,0.048607,0.085655,0.999864,0.003294,-0.015702,-0.003844,-0.667165,0.014940,0.164887,0.726279,13.078297,-13.987785,-96.469689
12166,0.827734,3.450884,9.772877,1.302382,1.691338,0.362704,0.811259,-3.087361,-0.572924,0.006864,0.034091,0.097981,0.999869,0.004056,-0.015436,-0.002864,-0.662544,0.023017,0.178134,0.727168,13.730260,-15.635557,-97.218966
12167,2.634173,3.667100,8.569545,1.469802,-0.110904,-0.239605,0.880800,-3.165542,-0.526114,0.025075,0.036225,0.086259,0.999862,0.004404,-0.015827,-0.002630,-0.657863,0.031168,0.191795,0.727639,14.443005,-17.320015,-97.977377
12168,3.534314,3.388400,7.485242,1.222320,-1.025685,-1.012159,1.074841,-2.963597,-0.300076,0.034277,0.033427,0.075546,0.999875,0.005374,-0.014817,-0.001500,-0.654046,0.038169,0.205457,0.727018,15.249595,-18.920536,-98.604834
12169,1.004343,4.432932,7.999190,2.380828,1.720716,-1.094317,1.669749,-2.945812,0.276079,0.008800,0.043671,0.080494,0.999856,0.008348,-0.014728,0.001380,-0.652288,0.043727,0.221016,0.723712,16.307327,-20.586664,-98.923828
12170,2.308595,5.873254,8.277278,3.392773,0.865290,-0.011369,2.010874,-3.001883,1.029023,0.021535,0.058008,0.083689,0.999824,0.010054,-0.015009,0.005145,-0.653049,0.049208,0.237798,0.717327,17.427556,-22.407071,-98.848649
12171,-0.157989,3.260611,9.930005,0.688072,4.236849,-0.282596,2.073738,-3.092208,1.536533,-0.003363,0.031553,0.099588,0.999797,0.010368,-0.015460,0.007682,-0.655301,0.055372,0.254846,0.708921,18.480819,-24.362617,-98.524349
12172,3.733078,1.431250,7.141966,-1.008723,-0.124522,-1.691722,2.155962,-3.456537,1.483978,0.035984,0.013807,0.072200,0.999765,0.010779,-0.017281,0.007419,-0.656627,0.062487,0.273321,0.700165,19.634879,-26.515692,-98.345359
12173,9.389142,1.024940,4.199631,-1.406555,-6.217216,-1.676226,2.155862,-2.985394,1.144743,0.093191,0.010321,0.043502,0.999814,0.010779,-0.014926,0.005723,-0.657145,0.067440,0.290200,0.692384,20.848462,-28.346018,-98.311613
12174,6.365338,2.929648,6.216114,0.125781,-2.275176,-0.727446,1.994884,-2.380531,0.795451,0.062790,0.028920,0.063202,0.999872,0.009974,-0.011902,0.003977,-0.657059,0.070323,0.304602,0.685963,22.025820,-29.785927,-98.391421
12175,4.636011,3.445162,6.477216,0.641193,-0.391036,-1.167086,1.853727,-2.316647,0.675319,0.045488,0.034001,0.065619,0.999884,0.009268,-0.011583,0.003376,-0.656461,0.073232,0.318242,0.680014,23.168075,-31.159598,-98.561494
12176,6.452731,4.471388,5.260226,1.658214,-2.275585,-0.792291,1.708124,-2.086851,0.691519,0.063817,0.044480,0.053651,0.999903,0.008540,-0.010434,0.003457,-0.656078,0.075866,0.330595,0.674176,24.212519,-32.417647,-98.694714
12177,6.113165,4.437512,4.725640,1.767260,-2.079601,-1.330797,1.542727,-1.683609,0.742127,0.060565,0.044232,0.048109,0.999928,0.007713,-0.008418,0.003711,-0.656370,0.077737,0.340960,0.668492,25.097021,-33.471670,-98.706602
12178,6.442650,4.888295,5.042878,1.974233,-1.953809,-0.695892,1.413785,-1.279460,0.827999,0.063899,0.048788,0.051184,0.999946,0.007069,-0.006397,0.004140,-0.657494,0.078834,0.349525,0.662811,25.823689,-34.341570,-98.565121
12179,5.977585,4.529892,5.437410,1.507257,-1.227071,-0.755256,1.541305,-0.976492,1.113416,0.059256,0.045207,0.055013,0.999943,0.007706,-0.004882,0.005567,-0.660081,0.078979,0.357337,0.656023,26.471298,-35.125319,-98.161495
12180,6.589684,6.131688,5.466770,2.857957,-1.322813,0.236473,1.779866,-0.792395,1.524259,0.065211,0.061324,0.055473,0.999924,0.008899,-0.003962,0.007621,-0.664340,0.078475,0.365142,0.647430,27.072991,-35.928228,-97.449644
12181,7.233152,5.822978,5.479580,2.483582,-1.679312,0.543946,1.681702,-0.490220,1.899930,0.071642,0.058448,0.055463,0.999917,0.008408,-0.002451,0.009499,-0.670230,0.077973,0.371395,0.637792,27.411080,-36.676888,-96.401802
12182,6.997290,4.881726,5.860575,1.506468,-1.248675,0.351383,1.789151,-0.284705,2.341667,0.069315,0.049104,0.059143,0.999890,0.008945,-0.001423,0.011708,-0.677814,0.077280,0.377083,0.626422,27.586749,-37.445342,-94.999734
12183,6.769051,5.623049,6.074718,2.134311,-0.600974,0.647750,1.773526,-0.150790,2.735568,0.066872,0.056607,0.061299,0.999867,0.008867,-0.000754,0.013677,-0.686719,0.076924,0.382005,0.613654,27.546033,-38.248183,-93.284755
12184,8.383428,4.603872,4.760241,1.794014,-2.661290,0.377102,1.628703,0.089096,3.067709,0.083140,0.046928,0.047945,0.999849,0.008143,0.000445,0.015338,-0.696845,0.076961,0.385442,0.599933,27.205273,-39.015376,-91.251415
12185,8.817896,4.488929,3.998326,2.188095,-3.269532,0.107414,1.844274,0.481823,3.514160,0.087473,0.046060,0.040193,0.999800,0.009221,0.002409,0.017570,-0.708908,0.075882,0.387835,0.584188,26.679839,-39.682783,-88.762790
12186,9.091022,5.564340,3.805916,3.450495,-3.035138,0.529742,1.906671,0.912150,3.950734,0.089966,0.057063,0.038187,0.999749,0.009533,0.004560,0.019752,-0.722780,0.074158,0.388559,0.566667,25.870134,-40.220487,-85.807725
12187,8.755014,4.724977,4.203997,2.757899,-2.624927,0.293919,1.942046,1.413550,4.388746,0.086788,0.048753,0.041893,0.999687,0.009709,0.007067,0.021941,-0.738472,0.071674,0.387183,0.547368,24.746828,-40.565062,-82.363096
12188,7.202702,5.135945,4.798845,2.896810,-0.768029,-0.205552,2.127991,1.746975,4.838721,0.071183,0.052578,0.047919,0.999613,0.010639,0.008734,0.024190,-0.755588,0.068432,0.384659,0.525776,23.431237,-40.786931,-78.481291
12189,7.919679,5.585591,4.762995,3.634578,-0.888266,0.316274,1.982642,2.163824,5.133539,0.078250,0.057402,0.047344,0.999563,0.009912,0.010818,0.025664,-0.773605,0.065133,0.379760,0.503066,21.807071,-40.775798,-74.260903
12190,6.419045,4.684041,6.041319,2.146328,0.584383,-0.081907,1.920749,2.623868,5.371528,0.063701,0.047978,0.060032,0.999507,0.009602,0.013117,0.026853,-0.792355,0.061329,0.372496,0.479228,19.971986,-40.472189,-69.759880
12191,4.115169,4.052361,7.825440,0.225255,2.791800,-0.498812,1.898365,2.758785,5.449418,0.041118,0.040903,0.078074,0.999489,0.009490,0.013792,0.027242,-0.810735,0.057350,0.364250,0.454688,18.119858,-39.998932,-65.213352
12192,4.052619,2.865599,8.299061,-0.872841,2.345783,-0.472248,1.552732,2.741071,5.120410,0.040920,0.029058,0.082656,0.999548,0.007762,0.013703,0.025598,-0.827458,0.054181,0.355029,0.431661,16.289513,-39.369550,-60.961566
12193,4.692767,0.338276,7.736588,-2.051873,0.050862,-0.993797,1.147352,2.733007,4.435007,0.047895,0.003996,0.076738,0.999644,0.005736,0.013663,0.022172,-0.841907,0.051420,0.344869,0.411843,14.624053,-38.539060,-57.270900
12194,5.885479,-1.016787,6.645454,-1.678619,-2.129565,-1.299562,0.874310,2.811788,3.600556,0.059955,-0.009383,0.065575,0.999730,0.004371,0.014058,0.018001,-0.854177,0.048201,0.333810,0.395764,13.248400,-37.475156,-54.230965
12195,7.208889,-1.138201,5.492045,-0.217280,-3.559631,-1.404482,0.663282,3.052380,2.856356,0.073070,-0.010523,0.053774,0.999776,0.003316,0.015261,0.014281,-0.864902,0.044117,0.321321,0.383081,12.141038,-36.130317,-51.752285
12196,6.611920,-0.525284,5.535447,0.205937,-2.834107,-1.654805,0.602503,3.411806,2.352535,0.067107,-0.004632,0.054201,0.999781,0.003012,0.017058,0.011762,-0.874843,0.038803,0.307130,0.372578,11.262286,-34.492245,-49.642780
12197,5.539912,0.398752,7.524181,-0.453648,-1.049523,-0.531209,0.670115,3.689775,2.098685,0.056730,0.004328,0.074217,0.999769,0.003350,0.018447,0.010493,-0.884356,0.032249,0.291763,0.362972,10.591343,-32.646632,-47.739955
12198,-2.896327,1.520811,13.660000,-7.337099,6.401485,0.309844,1.015696,3.355969,2.300508,-0.026832,0.014196,0.137136,0.999780,0.005078,0.016779,0.011502,-0.893407,0.025071,0.278332,0.351748,10.146257,-30.995107,-45.800744
12199,-2.826872,2.067185,12.760460,-6.484033,6.238488,-0.110861,0.801475,2.117867,2.136213,-0.027130,0.019866,0.127977,0.999879,0.004007,0.010589,0.010681,-0.900115,0.020770,0.269976,0.341283,9.766383,-30.013002,-44.152938
12200,3.755309,0.282248,9.780169,-2.027101,0.079835,0.469121,0.161421,1.686994,1.516937,0.038354,0.003033,0.097483,0.999935,0.000807,0.008435,0.007585,-0.904950,0.019265,0.262485,0.334358,9.273457,-29.206217,-42.977182
12201,4.351460,-1.872692,8.108502,-2.042519,-2.373212,-0.959245,-0.008946,1.669448,0.929808,0.044276,-0.018519,0.080718,0.999954,-0.000045,0.008347,0.004649,-0.908667,0.017764,0.254804,0.330277,8.891322,-28.346227,-42.199463
12202,4.794675,-1.572814,7.093090,-0.968672,-2.688022,-1.590241,0.385171,1.756770,0.612487,0.048615,-0.015716,0.070476,0.999955,0.001926,0.008784,0.003062,-0.911921,0.013946,0.247394,0.327111,8.839319,-27.408476,-41.625820
12203,4.745256,1.620925,6.677640,1.232769,-0.321357,-1.559756,0.482496,1.967524,0.529102,0.048064,0.016175,0.066345,0.999945,0.002412,0.009837,0.002645,-0.915218,0.009217,0.239151,0.324188,8.870445,-26.341857,-41.089996
12204,6.100676,1.037493,5.775012,2.325175,-1.824481,-1.881280,0.256432,2.316847,0.495971,0.061645,0.010454,0.057052,0.999929,0.001282,0.011584,0.002480,-0.918751,0.004933,0.228927,0.321660,8.777153,-25.076394,-40.546556
12205,6.584974,-0.749639,5.153967,2.028603,-3.719066,-2.564528,0.308049,2.799394,0.414048,0.066578,-0.007437,0.050600,0.999899,0.001540,0.013996,0.002070,-0.922549,-0.000476,0.216523,0.319408,8.732317,-23.528278,-40.016089
12206,6.243607,-1.498600,5.055351,1.579338,-4.248761,-3.013248,0.573426,3.318470,0.252636,0.063282,-0.015049,0.049465,0.999857,0.002867,0.016592,0.001263,-0.926424,-0.008095,0.202104,0.317532,8.873569,-21.674174,-39.540331
12207,4.629302,-0.854441,5.339740,0.886018,-2.902200,-3.373811,0.844884,3.801574,0.071111,0.047299,-0.008751,0.052468,0.999810,0.004224,0.019007,0.000356,-0.930181,-0.017931,0.185802,0.316099,9.208637,-19.531389,-39.126374
12208,2.701124,-0.307688,5.801206,-0.183183,-1.465388,-3.579111,1.015944,4.186145,-0.071509,0.028216,-0.003379,0.057413,0.999768,0.005079,0.020929,-0.000358,-0.933664,-0.029283,0.167894,0.315002,9.667590,-17.161412,-38.749145
12209,1.383558,-0.840310,5.526730,-1.206731,-1.320208,-4.339105,1.227674,4.458575,-0.200297,0.015053,-0.008755,0.054888,0.999732,0.006138,0.022291,-0.001001,-0.936675,-0.042154,0.148944,0.314131,10.272230,-14.627887,-38.401581
12210,1.725957,-2.500994,4.100986,-1.317587,-3.063801,-5.949487,1.772607,4.781998,-0.396248,0.018180,-0.025405,0.040358,0.999673,0.008862,0.023907,-0.001981,-0.938949,-0.058197,0.129207,0.313518,11.214564,-11.896611,-38.100773
12211,1.382953,-0.749642,3.954550,-0.408471,-1.645876,-5.909850,2.459788,5.274003,-0.671487,0.014838,-0.008028,0.039066,0.999571,0.012297,0.026366,-0.003357,-0.940201,-0.078374,0.108059,0.313372,12.574005,-8.863076,-37.845216
12212,-0.253994,2.029499,4.465887,-0.100080,1.269319,-5.069436,2.798360,5.723202,-0.887228,-0.001167,0.019674,0.044984,0.999483,0.013989,0.028611,-0.004435,-0.940338,-0.100885,0.085146,0.313587,14.139426,-5.558393,-37.575203
12213,-2.356559,5.277077,5.411154,0.037137,4.640402,-3.399649,2.684282,6.020847,-0.950389,-0.021660,0.052138,0.055485,0.999446,0.013419,0.030099,-0.004751,-0.939555,-0.123248,0.060530,0.313661,15.649209,-2.087570,-37.209051
12214,-4.309968,6.473733,6.581769,-0.854994,6.109400,-1.706116,2.256773,6.109147,-0.857162,-0.040773,0.064158,0.067813,0.999461,0.011282,0.030540,-0.004285,-0.938182,-0.143575,0.034823,0.313030,16.935128,1.406524,-36.693750
12215,-6.512111,7.256262,8.354186,-2.170440,7.091767,0.665971,1.673248,5.921988,-0.727579,-0.062335,0.072080,0.086020,0.999520,0.008365,0.029605,-0.003637,-0.936443,-0.160717,0.009131,0.311708,17.924350,4.766329,-36.069324
12216,-7.915162,6.971713,10.166708,-3.314538,6.632188,2.820361,0.909944,5.449746,-0.656089,-0.076109,0.069500,0.104085,0.999613,0.004549,0.027245,-0.003280,-0.934598,-0.173395,-0.015484,0.310196,18.510333,7.846319,-35.441809
12217,-8.997543,4.930905,11.717002,-5.065705,4.711459,4.139145,0.230199,4.749742,-0.638418,-0.087001,0.049453,0.119317,0.999712,0.001151,0.023746,-0.003192,-0.932790,-0.181719,-0.037874,0.308944,18.725058,10.540982,-34.907457
12218,-9.369613,1.922468,12.689415,-6.731167,1.918948,4.452080,-0.068755,3.863396,-0.628129,-0.091161,0.019558,0.128665,0.999808,-0.000344,0.019316,-0.003140,-0.930995,-0.187173,-0.056549,0.308248,18.758510,12.749256,-34.524504
12219,-8.852477,-1.291520,12.566627,-7.859675,-1.017642,3.420932,0.257763,2.878713,-0.651626,-0.086746,-0.012794,0.126907,0.999890,0.001289,0.014393,-0.003258,-0.928851,-0.192590,-0.070171,0.308579,18.948222,14.431058,-34.333943
12220,-7.351183,-1.361284,11.671937,-6.489824,-1.775692,2.305496,0.976802,1.986495,-0.763981,-0.072401,-0.013907,0.117375,0.999931,0.004884,0.009932,-0.003820,-0.925995,-0.199872,-0.078608,0.310491,19.494320,15.646292,-34.369120
12221,-5.458553,-0.075960,10.069260,-4.137576,-1.396410,0.775945,1.455242,1.444726,-1.006239,-0.053862,-0.001222,0.101076,0.999935,0.007276,0.007223,-0.005031,-0.922368,-0.208424,-0.084065,0.314214,20.250315,16.622010,-34.635187
12222,-2.984554,3.669267,8.856171,0.157515,0.282449,0.221983,1.396922,1.344921,-1.355509,-0.029001,0.036270,0.089013,0.999930,0.006984,0.006724,-0.006777,-0.918178,-0.216358,-0.089466,0.319584,20.907149,17.612700,-35.107788
12223,-2.404782,5.796759,8.367286,2.058431,1.499537,0.331575,0.621981,1.600464,-1.736969,-0.022873,0.057909,0.084039,0.999925,0.003110,0.008002,-0.008685,-0.913963,-0.220955,-0.097722,0.326039,21.063113,18.826765,-35.734993
12224,-3.973944,4.448919,9.054989,0.235468,0.983873,0.983048,-0.321801,1.836571,-1.952825,-0.038468,0.045015,0.090835,0.999909,-0.001609,0.009183,-0.009764,-0.910181,-0.221468,-0.108774,0.332702,20.638011,20.204667,-36.442134
12225,-6.416761,1.303489,9.953435,-3.362609,-0.295806,1.612911,-0.372772,1.678334,-1.803151,-0.063207,0.013794,0.100042,0.999922,-0.001864,0.008391,-0.009016,-0.906628,-0.221547,-0.119049,0.338776,20.181383,21.467683,-37.113794
12226,-6.516616,1.959239,10.223777,-2.764458,0.012726,2.153297,0.016631,1.246457,-1.483758,-0.064380,0.020063,0.102642,0.999953,0.000083,0.006232,-0.007419,-0.903340,-0.222805,-0.126297,0.344071,19.965312,22.426593,-37.705443
12227,-5.348468,3.030664,9.713390,-1.066426,0.249127,1.630214,0.156173,0.893928,-1.165373,-0.052872,0.030540,0.097395,0.999973,0.000781,0.004470,-0.005827,-0.900589,-0.224285,-0.131395,0.348384,19.861870,23.137596,-38.191702
12228,-3.735388,2.306796,8.534264,-0.381517,-0.617758,-0.242950,0.135656,0.871125,-1.150211,-0.036848,0.023223,0.085520,0.999974,0.000678,0.004356,-0.005751,-0.897865,-0.225617,-0.136356,0.352621,19.741212,23.826813,-38.678366
12229,-4.198371,1.660720,8.774232,-1.034046,-0.945844,-0.045074,0.073468,0.973137,-1.328182,-0.041445,0.016851,0.087951,0.999966,0.000367,0.004866,-0.006641,-0.894764,-0.226728,-0.142125,0.357480,19.542591,24.609869,-39.253340
12230,-5.480132,0.395994,8.941409,-2.699568,-1.148318,0.263521,0.156171,0.919800,-1.382686,-0.054361,0.004267,0.089668,0.999965,0.000781,0.004599,-0.006913,-0.891460,-0.228046,-0.147511,0.362677,19.363416,25.367019,-39.878732
12231,-5.772538,1.445905,9.961412,-1.930325,-0.873836,1.595695,0.131622,0.795030,-1.639225,-0.057208,0.014864,0.099852,0.999958,0.000658,0.003975,-0.008196,-0.887731,-0.228831,-0.152718,0.369116,19.080476,26.108674,-40.691595
12232,-6.223004,-0.478596,9.371322,-3.562808,-1.504308,0.761733,-0.083342,0.607013,-1.866861,-0.061986,-0.004167,0.093903,0.999952,-0.000417,0.003035,-0.009334,-0.883905,-0.228112,-0.157683,0.376581,18.582885,26.779567,-41.691673
12233,-6.055237,1.771715,9.065146,-1.694638,-0.047074,1.100896,0.088477,0.395707,-1.916465,-0.060200,0.018255,0.090779,0.999952,0.000442,0.001979,-0.009582,-0.879859,-0.227696,-0.161487,0.384611,18.133763,27.343218,-42.776960
12234,-5.090103,3.613621,8.319727,0.369864,0.871069,0.545308,-0.119078,0.366715,-1.802466,-0.050420,0.036642,0.083268,0.999958,-0.000595,0.001834,-0.009012,-0.876225,-0.226380,-0.165364,0.391965,17.583334,27.856442,-43.808110
12235,-5.216845,2.740299,8.140875,-0.259552,0.528451,0.219783,-0.255967,0.402137,-1.638919,-0.051777,0.027933,0.081478,0.999964,-0.001280,0.002011,-0.008194,-0.872956,-0.224654,-0.169521,0.398423,16.990315,28.358282,-44.742208
12236,-5.775157,1.955809,8.445049,-1.055548,0.269718,0.546291,-0.157480,0.306361,-1.511069,-0.057472,0.020060,0.084523,0.999970,-0.000787,0.001532,-0.007555,-0.869868,-0.223257,-0.172855,0.404483,16.474339,28.772257,-45.623242
12237,-5.997210,1.261596,8.585463,-1.613861,-0.040510,0.611389,-0.029798,0.124303,-1.479502,-0.059823,0.013072,0.085890,0.999972,-0.000149,0.000622,-0.007397,-0.866796,-0.222064,-0.175150,0.410701,16.014325,29.080739,-46.525612
12238,-6.621706,0.173867,9.153547,-2.692510,-0.508437,1.148859,0.013678,-0.096062,-1.700831,-0.066243,0.002296,0.091504,0.999964,0.000068,-0.000480,-0.008504,-0.863372,-0.220396,-0.176578,0.418131,15.488197,29.289003,-47.611459
12239,-8.148539,-2.362068,10.212230,-5.409781,-1.359275,2.235162,0.045311,-0.511963,-2.215138,-0.082002,-0.022737,0.101908,0.999935,0.000227,-0.002560,-0.011075,-0.859106,-0.217518,-0.176755,0.428230,14.778322,29.340421,-49.099970
12240,-9.563675,-3.719763,10.899245,-7.176238,-1.243666,3.265439,0.331822,-1.229270,-2.985051,-0.096847,-0.035938,0.108339,0.999868,0.001659,-0.006146,-0.014925,-0.853360,-0.213613,-0.173979,0.442581,13.942624,29.079077,-51.192730
12241,-8.414614,-1.872425,10.579087,-5.007577,-0.530942,2.870313,0.759038,-1.889710,-3.590701,-0.085463,-0.017597,0.104919,0.999787,0.003795,-0.009448,-0.017952,-0.846084,-0.209458,-0.168097,0.460448,13.131836,28.511681,-53.760838
12242,-6.617382,1.504398,10.070068,-1.225389,0.426366,2.260845,1.005826,-2.258817,-3.699959,-0.067019,0.015774,0.100025,0.999752,0.005029,-0.011293,-0.018498,-0.838236,-0.205320,-0.160054,0.479152,12.448673,27.715691,-56.423870
12243,-5.271052,3.387255,9.369448,1.040779,0.850521,1.378172,1.070836,-2.365521,-3.387733,-0.053237,0.034271,0.093250,0.999772,0.005354,-0.011827,-0.016937,-0.830743,-0.201333,-0.151085,0.496492,11.928836,26.804384,-58.877051
12244,-4.783814,4.857629,9.328720,2.574776,1.257896,1.380779,1.021959,-2.351650,-2.968028,-0.048209,0.048814,0.092971,0.999808,0.005109,-0.011757,-0.014839,-0.823999,-0.197427,-0.141735,0.511820,11.553298,25.828139,-61.034744
12245,-4.859929,4.288791,9.051988,2.028588,1.341489,1.051699,0.839087,-2.308075,-2.666161,-0.049067,0.043161,0.090136,0.999836,0.004195,-0.011540,-0.013330,-0.817871,-0.193006,-0.132756,0.525559,11.193259,24.836262,-62.976932
12246,-4.606978,3.038284,8.338328,0.984045,1.132946,0.073137,0.850686,-2.247459,-2.483675,-0.046625,0.030606,0.082991,0.999851,0.004253,-0.011237,-0.012418,-0.811929,-0.188868,-0.123705,0.538328,10.934963,23.842601,-64.775362
12247,-4.483005,3.436451,7.973073,1.399953,1.458229,-0.252927,0.882459,-2.135179,-2.418801,-0.045262,0.034559,0.079401,0.999860,0.004412,-0.010675,-0.012093,-0.805817,-0.185132,-0.114998,0.550600,10.744439,22.904837,-66.505333
12248,-5.459901,3.028887,8.169149,0.675142,2.197311,0.208979,0.741790,-2.082708,-2.351263,-0.055088,0.030633,0.081233,0.999870,0.003709,-0.010413,-0.011756,-0.799787,-0.180976,-0.106725,0.562315,10.529279,21.977772,-68.170587
12249,-6.478463,2.936742,8.609356,0.266284,3.030992,0.932301,0.625289,-2.227861,-2.307595,-0.065396,0.029852,0.085460,0.999867,0.003126,-0.011139,-0.011537,-0.793842,-0.175911,-0.098203,0.573783,10.276908,20.964168,-69.811944
12250,-7.736599,2.093887,10.379247,-0.951610,3.449698,2.802915,0.364003,-2.564806,-2.344859,-0.078438,0.021667,0.102830,0.999847,0.001820,-0.012823,-0.011724,-0.787970,-0.168784,-0.089027,0.585397,9.896591,19.749749,-71.491790
12251,-7.630066,0.530970,11.238798,-2.386732,2.995941,3.230415,0.355593,-3.095307,-2.469710,-0.077956,0.006067,0.111200,0.999802,0.001778,-0.015476,-0.012348,-0.781691,-0.159948,-0.077935,0.597747,9.508403,18.243650,-73.279044
12252,-6.621469,0.660152,11.908520,-2.003010,2.327400,3.478074,0.610584,-3.588341,-2.501340,-0.068251,0.007086,0.117894,0.999756,0.003053,-0.017940,-0.012506,-0.774972,-0.150560,-0.064070,0.610446,9.308796,16.446714,-75.106884
12253,-4.906410,4.209410,12.123117,1.803703,1.854407,3.680106,0.798124,-3.974097,-2.387992,-0.050959,0.042213,0.120399,0.999723,0.003990,-0.019869,-0.011939,-0.768172,-0.140670,-0.048102,0.622744,9.281923,14.424495,-76.885007
12254,-1.369403,6.344077,11.131351,4.691275,-0.459551,2.179074,0.363766,-4.021550,-2.213387,-0.015228,0.063401,0.111133,0.999735,0.001819,-0.020106,-0.011066,-0.761825,-0.128939,-0.033073,0.633958,9.101547,12.349599,-78.544778
12255,0.126978,5.697987,10.498809,4.367329,-1.564593,1.195507,-0.060066,-3.713662,-2.016889,-0.000105,0.057008,0.104978,0.999777,-0.000300,-0.018567,-0.010084,-0.755948,-0.116533,-0.020494,0.643849,8.760928,10.430604,-80.041571
12256,0.710719,4.627458,10.059290,3.428578,-1.935289,0.560431,-0.148715,-3.405208,-1.745246,0.005798,0.046295,0.100665,0.999817,-0.000744,-0.017025,-0.008726,-0.750664,-0.104770,-0.009123,0.652261,8.456870,8.648470,-81.334910
12257,-0.735687,4.723810,10.906235,3.175326,-0.389554,1.657309,-0.051966,-3.130875,-1.439792,-0.008722,0.047326,0.108921,0.999852,-0.000260,-0.015654,-0.007199,-0.746062,-0.094239,0.001629,0.659172,8.269807,6.996524,-82.417056
12258,-2.233667,5.271370,11.309383,3.467250,1.380721,2.301051,-0.150271,-3.198615,-1.294521,-0.023799,0.052949,0.112681,0.999851,-0.000751,-0.015992,-0.006472,-0.741765,-0.083093,0.012446,0.665376,8.072776,5.285196,-83.412138
12259,-0.112373,3.222746,9.973929,1.871170,-0.491540,0.489193,-0.188149,-3.150183,-1.205898,-0.002499,0.032334,0.099677,0.999857,-0.000941,-0.015750,-0.006029,-0.737566,-0.071938,0.022927,0.671041,7.883411,3.596359,-84.344282
12260,-0.327088,2.948380,9.608199,1.609862,-0.011421,0.113054,0.100624,-2.977980,-1.166144,-0.004529,0.029459,0.096036,0.999872,0.000503,-0.014889,-0.005830,-0.733216,-0.062402,0.033813,0.676281,7.893104,1.995299,-85.236050
12261,-0.620390,3.392466,10.465433,1.882305,0.528681,1.031246,0.182217,-2.842337,-1.194231,-0.007488,0.033872,0.104585,0.999881,0.000911,-0.014211,-0.005971,-0.728591,-0.053613,0.044401,0.681403,7.969050,0.479217,-86.132996
12262,-2.509403,2.558888,11.484528,0.769753,2.620540,1.903611,0.306467,-2.903972,-1.193904,-0.026606,0.025569,0.114505,0.999876,0.001532,-0.014519,-0.005969,-0.723741,-0.045053,0.055686,0.686345,8.144902,-1.074998,-87.038232
12263,-3.103561,2.916255,12.297335,0.968779,3.573678,2.662873,0.331617,-3.261593,-1.252384,-0.032853,0.029161,0.122496,0.999846,0.001658,-0.016307,-0.006262,-0.718387,-0.035364,0.068262,0.691382,8.359102,-2.818789,-88.011188
12264,-0.542155,2.100950,11.537370,0.344305,1.321192,1.846748,0.299421,-3.558624,-1.324757,-0.007335,0.020881,0.115286,0.999819,0.001497,-0.017792,-0.006623,-0.712444,-0.024542,0.081819,0.696510,8.595201,-4.726283,-89.059483
12265,1.457328,1.967043,10.636953,0.327143,-0.376044,1.090432,0.421737,-3.618119,-1.315503,0.012774,0.019358,0.106653,0.999813,0.002109,-0.018089,-0.006577,-0.706238,-0.013943,0.095922,0.701308,8.933153,-6.657288,-90.119205
12266,0.911633,2.942284,9.821450,1.340667,0.432969,0.383128,0.686044,-3.643978,-1.152258,0.007492,0.029039,0.098461,0.999812,0.003430,-0.018219,-0.005761,-0.700303,-0.004095,0.111080,0.705139,9.453233,-8.615619,-91.108002
12267,3.576721,5.094235,7.799678,3.646179,-2.205588,-0.789789,0.705275,-3.538359,-0.936186,0.034615,0.050502,0.078795,0.999826,0.003526,-0.017691,-0.004681,-0.694942,0.005427,0.125840,0.707948,9.994398,-10.520476,-91.984779
12268,3.825503,5.444618,7.397575,3.955675,-2.291838,-0.975410,0.547236,-3.048466,-0.694261,0.037308,0.054112,0.074698,0.999874,0.002736,-0.015242,-0.003471,-0.690526,0.013923,0.138356,0.709815,10.443210,-12.171688,-92.694819
12269,1.749053,4.275046,7.925432,2.747557,0.070198,-1.061123,0.422107,-2.798036,-0.554985,0.016497,0.042536,0.079580,0.999896,0.002110,-0.013990,-0.002775,-0.686619,0.022045,0.149470,0.711145,10.815382,-13.686625,-93.312245
12270,1.762785,3.059146,8.653198,1.380068,0.465206,-0.581313,0.486358,-2.637929,-0.469690,0.016555,0.030341,0.086829,0.999907,0.002432,-0.013189,-0.002348,-0.682999,0.029447,0.160275,0.712009,11.230357,-15.121617,-93.878037
12271,-0.103599,1.986618,9.276199,0.296226,2.676998,-0.716206,0.609655,-2.730727,-0.480384,-0.002256,0.019588,0.092797,0.999899,0.003048,-0.013653,-0.002402,-0.679161,0.036730,0.171759,0.712664,11.735594,-16.598101,-94.475502
12272,0.878152,1.422795,9.405495,-0.407089,2.038620,-0.489027,0.863340,-2.866496,-0.417475,0.007461,0.013805,0.094228,0.999886,0.004317,-0.014332,-0.002087,-0.675324,0.043696,0.184607,0.712705,12.404935,-18.157155,-95.075141
12273,0.004246,2.152234,9.034277,0.369479,3.000987,-1.032020,1.282851,-3.149701,-0.200569,-0.001360,0.020943,0.090464,0.999855,0.006414,-0.015748,-0.001003,-0.671925,0.050427,0.199760,0.711386,13.307367,-19.888611,-95.611319
12274,2.944940,3.013178,7.453000,1.146347,-0.040760,-1.328862,1.634647,-3.247335,0.287796,0.028189,0.029560,0.075238,0.999834,0.008173,-0.016236,0.001439,-0.670035,0.056812,0.216358,0.707824,14.345852,-21.737819,-95.910391
12275,3.005239,4.553923,6.906872,2.638218,-0.019163,-1.415985,1.919184,-3.195518,0.862038,0.028744,0.044996,0.069969,0.999817,0.009595,-0.015977,0.004310,-0.670093,0.062641,0.233498,0.701805,15.432668,-23.631587,-95.895649
12276,2.790443,2.907728,8.080301,0.683669,0.959107,-0.860796,1.773290,-3.023278,1.225331,0.026500,0.028522,0.081465,0.999828,0.008866,-0.015116,0.006126,-0.671331,0.068776,0.249406,0.694537,16.350263,-25.493131,-95.669417
12277,2.871724,1.447830,7.249213,-0.641926,0.772806,-1.946445,1.836183,-3.161726,1.210517,0.027480,0.013978,0.073063,0.999815,0.009180,-0.015808,0.006052,-0.672138,0.075114,0.265863,0.686953,17.323191,-27.425351,-95.506628
12278,7.774135,1.994632,4.866645,-0.007887,-4.377043,-1.510066,1.985586,-2.850892,1.159269,0.076920,0.019902,0.049965,0.999832,0.009927,-0.014254,0.005796,-0.672989,0.079812,0.281763,0.679209,18.383127,-29.187225,-95.351961
