PacketCounter,Acc_X,Acc_Y,Acc_Z,FreeAcc_E,FreeAcc_N,FreeAcc_U,Gyr_X,Gyr_Y,Gyr_Z,VelInc_X,VelInc_Y,VelInc_Z,OriInc_q0,OriInc_q1,OriInc_q2,OriInc_q3,Quat_q0,Quat_q1,Quat_q2,Quat_q3,Roll,Pitch,Yaw
06485,-5.236396,8.248341,0.226612,-0.118237,-0.259159,-0.044107,0.166822,-0.029803,-0.071672,-0.052335,0.082500,0.002327,1.000000,0.000834,-0.000149,-0.000358,0.274570,0.586433,-0.385094,-0.657579,88.921479,34.040703,-101.232746
06486,-5.231528,8.477481,0.320833,-0.244864,-0.373718,0.144213,0.166476,-0.024546,-0.028021,-0.052304,0.084779,0.003272,1.000000,0.000832,-0.000123,-0.000140,0.273965,0.586592,-0.385626,-0.657379,89.003723,34.050946,-101.254739
06487,-5.373962,8.575315,0.298358,-0.220603,-0.313256,0.304511,0.171547,-0.050391,0.015301,-0.053747,0.085746,0.003044,1.000000,0.000858,-0.000252,0.000077,0.273432,0.586596,-0.386340,-0.657177,89.080809,34.036408,-101.293209
06488,-5.495917,8.627027,0.399539,-0.313229,-0.217168,0.416929,0.139700,-0.082291,0.052829,-0.054984,0.086253,0.004033,1.000000,0.000698,-0.000411,0.000264,0.273059,0.586371,-0.387099,-0.657086,89.125895,33.999832,-101.354210
06489,-5.517941,8.460904,0.492774,-0.389047,-0.081782,0.292725,0.104391,-0.099850,0.063608,-0.055209,0.084589,0.004944,1.000000,0.000522,-0.000499,0.000318,0.272786,0.586026,-0.387801,-0.657093,89.145725,33.957244,-101.426345
06490,-5.511812,8.281446,0.419047,-0.299624,0.005212,0.139610,0.047439,-0.092732,0.049363,-0.055141,0.082800,0.004185,1.000000,0.000237,-0.000464,0.000247,0.272652,0.585647,-0.388261,-0.657215,89.133970,33.922579,-101.494575
06491,-5.505651,8.137924,0.329464,-0.194780,0.066347,0.016057,-0.006393,-0.075638,0.027397,-0.055069,0.081372,0.003271,1.000000,-0.000032,-0.000378,0.000137,0.272631,0.585301,-0.388460,-0.657415,89.099546,33.900929,-101.550308
06492,-5.546383,8.085661,0.171571,-0.022481,0.099252,-0.006600,-0.017170,-0.059466,-0.001781,-0.055464,0.080857,0.001692,1.000000,-0.000086,-0.000297,-0.000009,0.272583,0.585042,-0.388512,-0.657635,89.063333,33.895809,-101.596075
06493,-5.553125,8.187499,0.188252,-0.042761,0.050478,0.081928,-0.024226,-0.048405,-0.029027,-0.055520,0.081883,0.001859,1.000000,-0.000121,-0.000242,-0.000145,0.272481,0.584870,-0.388450,-0.657866,89.028843,33.906687,-101.633620
06494,-5.670283,7.983848,0.076024,0.111737,0.231979,-0.023234,-0.039872,-0.052959,-0.052585,-0.056682,0.079854,0.000729,1.000000,-0.000199,-0.000265,-0.000263,0.272345,0.584700,-0.388270,-0.658180,88.981778,33.930690,-101.675506
06495,-5.644858,7.938188,0.004605,0.184696,0.216102,-0.076237,0.032645,-0.068563,-0.087402,-0.056414,0.079407,0.000040,1.000000,0.000163,-0.000343,-0.000437,0.271846,0.584653,-0.388251,-0.658439,88.971646,33.974765,-101.727732
06496,-5.523069,7.860583,0.091174,0.086776,0.168529,-0.207197,0.045111,-0.082850,-0.098288,-0.055192,0.078633,0.000907,1.000000,0.000226,-0.000414,-0.000491,0.271252,0.584589,-0.388258,-0.658737,88.961336,34.024633,-101.790894
06497,-5.330574,7.711577,0.077458,0.079425,0.084138,-0.438465,0.105041,-0.083330,-0.092167,-0.053271,0.077140,0.000793,1.000000,0.000525,-0.000417,-0.000461,0.270497,0.584600,-0.388484,-0.658904,88.986828,34.071283,-101.853450
06498,-5.316315,7.773957,0.258513,-0.111993,0.067622,-0.392108,0.121611,-0.074689,-0.078545,-0.053134,0.077759,0.002613,1.000000,0.000608,-0.000373,-0.000393,0.269760,0.584627,-0.388788,-0.659003,89.023560,34.109965,-101.910752
06499,-5.378667,7.673886,0.307718,-0.145299,0.178574,-0.439306,0.118002,-0.088366,-0.065938,-0.053763,0.076755,0.003099,1.000000,0.000590,-0.000442,-0.000330,0.269043,0.584588,-0.389140,-0.659123,89.054627,34.141600,-101.976482
06500,-5.432427,7.688296,0.274477,-0.108750,0.202822,-0.397619,0.097155,-0.095631,-0.076690,-0.054296,0.076902,0.002756,1.000000,0.000486,-0.000478,-0.000383,0.268343,0.584509,-0.389397,-0.659327,89.069152,34.179073,-102.048266
06501,-5.465345,7.616703,0.236534,-0.060766,0.254696,-0.438706,0.062501,-0.091965,-0.098573,-0.054617,0.076193,0.002364,1.000000,0.000313,-0.000460,-0.000493,0.267673,0.584445,-0.389474,-0.659609,89.066713,34.229399,-102.116899
06502,-5.471227,7.684662,0.197353,-0.028741,0.203888,-0.379507,0.024998,-0.070680,-0.137017,-0.054660,0.076884,0.001964,1.000000,0.000125,-0.000353,-0.000685,0.267033,0.584469,-0.389283,-0.659961,89.049082,34.301675,-102.172170
06503,-5.415848,7.889859,0.035785,0.097610,-0.001420,-0.243309,0.026063,-0.055535,-0.181868,-0.054087,0.078948,0.000353,1.000000,0.000130,-0.000278,-0.000909,0.266266,0.584638,-0.388948,-0.660318,89.039258,34.400042,-102.216634
06504,-5.318034,8.231823,0.221474,-0.137342,-0.250471,-0.014125,-0.019385,-0.040084,-0.199466,-0.053099,0.082371,0.002196,0.999999,-0.000097,-0.000200,-0.000997,0.265608,0.584824,-0.388386,-0.660749,89.007561,34.508372,-102.251566
06505,-5.297129,8.406025,0.154388,-0.092264,-0.396649,0.115998,-0.040108,-0.037953,-0.186435,-0.052893,0.084110,0.001517,1.000000,-0.000201,-0.000190,-0.000932,0.265053,0.584972,-0.387795,-0.661188,88.966466,34.609497,-102.284086
06506,-5.483459,8.608576,0.188944,-0.108623,-0.370763,0.388406,-0.100864,-0.062704,-0.156272,-0.054768,0.086130,0.001829,1.000000,-0.000504,-0.000314,-0.000781,0.264732,0.584890,-0.387120,-0.661784,88.879175,34.692765,-102.334528
06507,-5.648922,8.388921,0.130272,0.011715,-0.143531,0.300695,-0.122286,-0.108044,-0.141313,-0.056431,0.083930,0.001221,0.999999,-0.000611,-0.000540,-0.000707,0.264431,0.584608,-0.386481,-0.662527,88.763210,34.767138,-102.415678
06508,-5.538214,8.149562,0.111408,0.049653,-0.118515,0.040385,-0.139711,-0.124106,-0.146990,-0.055323,0.081537,0.001023,0.999999,-0.000699,-0.000621,-0.000735,0.264135,0.584252,-0.385785,-0.663364,88.628908,34.844106,-102.509309
06509,-5.419161,8.030791,0.108097,0.057606,-0.164936,-0.125478,-0.130835,-0.092806,-0.158721,-0.054128,0.080352,0.001003,0.999999,-0.000654,-0.000464,-0.000794,0.263829,0.584042,-0.385046,-0.664100,88.513462,34.928377,-102.580671
06510,-5.372117,8.051074,0.060030,0.105758,-0.241257,-0.137274,-0.122966,-0.060414,-0.165435,-0.053655,0.080555,0.000535,0.999999,-0.000615,-0.000302,-0.000827,0.263545,0.583954,-0.384267,-0.664741,88.413534,35.016567,-102.630701
06511,-5.402849,8.135481,0.156885,0.017800,-0.262004,-0.048854,-0.130524,-0.030389,-0.158564,-0.053964,0.081399,0.001508,0.999999,-0.000653,-0.000152,-0.000793,0.263358,0.583949,-0.383446,-0.665293,88.322881,35.101558,-102.658903
06512,-5.494122,8.143142,-0.014946,0.210097,-0.244246,0.005283,-0.099963,-0.030454,-0.143864,-0.054883,0.081471,-0.000199,1.000000,-0.000500,-0.000152,-0.000719,0.263136,0.583948,-0.382766,-0.665773,88.248114,35.177767,-102.687937
06513,-5.561828,8.252924,-0.147713,0.347725,-0.293981,0.130107,-0.065772,-0.037055,-0.135738,-0.055562,0.082566,-0.001515,1.000000,-0.000329,-0.000185,-0.000679,0.262823,0.583963,-0.382236,-0.666189,88.191906,35.249507,-102.720637
06514,-5.534076,8.442042,-0.009133,0.194381,-0.409486,0.271393,-0.065712,-0.042295,-0.129230,-0.055286,0.084456,-0.000131,1.000000,-0.000329,-0.000211,-0.000646,0.262526,0.583939,-0.381728,-0.666618,88.131984,35.317054,-102.757892
06515,-5.488087,8.424931,-0.021647,0.204027,-0.450717,0.229934,-0.031331,-0.030868,-0.103586,-0.054837,0.084278,-0.000238,1.000000,-0.000157,-0.000154,-0.000518,0.262231,0.583957,-0.381398,-0.666907,88.098267,35.370449,-102.785719
06516,-5.501142,8.527933,0.096039,0.084716,-0.483968,0.324177,-0.041568,-0.023288,-0.068955,-0.054982,0.085298,0.000936,1.000000,-0.000208,-0.000116,-0.000345,0.262101,0.583913,-0.381122,-0.667155,88.060610,35.403777,-102.808363
06517,-5.491499,8.354314,0.080374,0.119581,-0.400765,0.176440,-0.051081,-0.032289,-0.033145,-0.054901,0.083552,0.000774,1.000000,-0.000255,-0.000161,-0.000166,0.262096,0.583766,-0.380933,-0.667393,88.015889,35.416778,-102.835604
06518,-5.541106,8.223837,0.110937,0.116029,-0.282642,0.099644,-0.029035,-0.023082,-0.008742,-0.055408,0.082241,0.001091,1.000000,-0.000145,-0.000115,-0.000044,0.262131,0.583624,-0.380874,-0.667537,87.986328,35.415579,-102.856687
06519,-5.585321,8.172197,0.076411,0.166197,-0.225395,0.082162,-0.021599,-0.018149,-0.004465,-0.055851,0.081723,0.000750,1.000000,-0.000108,-0.000091,-0.000022,0.262163,0.583508,-0.380849,-0.667640,87.964658,35.412420,-102.873300
06520,-5.576184,8.144428,0.025402,0.218892,-0.226694,0.052751,-0.004350,0.013178,0.000054,-0.055762,0.081444,0.000256,1.000000,-0.000022,0.000066,0.000000,0.262224,0.583502,-0.380851,-0.667620,87.964154,35.406897,-102.868678
06521,-5.603912,8.111569,-0.009442,0.260012,-0.191366,0.041106,0.015640,0.030475,0.007702,-0.056042,0.081114,-0.000080,1.000000,0.000078,0.000152,0.000039,0.262280,0.583574,-0.380922,-0.667494,87.983787,35.397755,-102.850829
06522,-5.602779,8.149415,-0.034056,0.276372,-0.216280,0.070738,0.053099,0.044217,0.008504,-0.056031,0.081492,-0.000307,1.000000,0.000265,0.000221,0.000043,0.262260,0.583732,-0.381100,-0.667263,88.028969,35.388001,-102.824191
06523,-5.570645,8.225872,0.072461,0.152506,-0.260364,0.117633,0.067528,0.043726,0.018320,-0.055714,0.082253,0.000765,1.000000,0.000338,0.000219,0.000092,0.262226,0.583896,-0.381357,-0.666986,88.083850,35.373016,-102.796803
06524,-5.565328,8.230527,0.039843,0.175742,-0.268811,0.117714,0.082473,0.045038,0.031618,-0.055666,0.082296,0.000445,1.000000,0.000412,0.000225,0.000158,0.262199,0.584051,-0.381699,-0.666665,88.146502,35.349988,-102.769074
06525,-5.553417,8.207292,0.102523,0.106307,-0.245489,0.093826,0.094082,0.041243,0.051141,-0.055555,0.082058,0.001075,1.000000,0.000470,0.000206,0.000256,0.262192,0.584178,-0.382144,-0.666301,88.215960,35.316114,-102.742754
06526,-5.587795,8.093274,0.171218,0.048561,-0.130685,0.022677,0.093691,0.035561,0.064358,-0.055904,0.080914,0.001760,1.000000,0.000468,0.000178,0.000322,0.262223,0.584253,-0.382632,-0.665943,88.281548,35.274103,-102.721051
06527,-5.509453,7.995716,0.182887,0.024591,-0.125925,-0.101739,0.104529,0.037055,0.067125,-0.055121,0.079938,0.001881,1.000000,0.000523,0.000185,0.000336,0.262230,0.584349,-0.383163,-0.665550,88.355384,35.230953,-102.697464
06528,-5.479940,7.992455,0.249833,-0.053695,-0.124479,-0.119746,0.086873,0.049100,0.070806,-0.054827,0.079904,0.002547,1.000000,0.000434,0.000245,0.000354,0.262329,0.584448,-0.383629,-0.665157,88.422508,35.185417,-102.666287
06529,-5.408628,8.035107,0.254374,-0.082610,-0.194802,-0.125783,0.072621,0.067628,0.078394,-0.054117,0.080329,0.002591,1.000000,0.000363,0.000338,0.000392,0.262525,0.584582,-0.384047,-0.664720,88.490400,35.136238,-102.621222
06530,-5.510026,8.101722,0.238745,-0.061969,-0.144733,-0.013173,0.042518,0.074059,0.080652,-0.055132,0.080994,0.002425,1.000000,0.000213,0.000370,0.000403,0.262834,0.584685,-0.384361,-0.664325,88.542131,35.085366,-102.572551
06531,-5.627040,8.150305,0.220444,-0.032466,-0.072786,0.093538,0.018588,0.071670,0.078183,-0.056301,0.081481,0.002232,1.000000,0.000093,0.000358,0.000391,0.263194,0.584762,-0.384593,-0.663981,88.580527,35.036299,-102.524827
06532,-5.702541,8.098054,0.198041,0.006630,0.021127,0.093683,-0.020849,0.060820,0.067175,-0.057052,0.080962,0.001989,1.000000,-0.000104,0.000304,0.000336,0.263618,0.584764,-0.384675,-0.663764,88.590365,34.992906,-102.485778
06533,-5.698179,8.101146,0.197093,0.007086,0.021967,0.093681,-0.038578,0.056878,0.043385,-0.056999,0.080999,0.001972,1.000000,-0.000193,0.000284,0.000217,0.264002,0.584783,-0.384635,-0.663618,88.589635,34.963542,-102.449072
06534,-5.636889,7.940383,-0.015227,0.220414,0.024890,-0.077430,-0.016276,0.057680,0.018690,-0.056376,0.079399,-0.000142,1.000000,-0.000081,0.000288,0.000093,0.264245,0.584873,-0.384594,-0.663465,88.600310,34.947875,-102.413081
06535,-5.525480,7.998970,0.154551,0.026720,-0.060638,-0.089831,0.002434,0.059802,0.007155,-0.055257,0.079988,0.001563,1.000000,0.000012,0.000299,0.000036,0.264395,0.585025,-0.384580,-0.663279,88.623862,34.939293,-102.374975
06536,-5.482048,7.936202,0.122657,0.052407,-0.063641,-0.166735,0.036684,0.068453,0.012538,-0.054825,0.079358,0.001260,1.000000,0.000183,0.000342,0.000063,0.264483,0.585233,-0.384682,-0.663001,88.669120,34.927272,-102.331578
06537,-5.538835,8.060037,0.220935,-0.053607,-0.063802,-0.030830,0.079301,0.067059,0.030236,-0.055400,0.080591,0.002260,1.000000,0.000397,0.000335,0.000151,0.264498,0.585467,-0.384981,-0.662615,88.739793,34.905512,-102.288067
06538,-5.525146,8.080401,0.365826,-0.206456,-0.050749,-0.019386,0.044655,0.045604,0.053006,-0.055272,0.080789,0.003689,1.000000,0.000223,0.000228,0.000265,0.264654,0.585532,-0.385258,-0.662335,88.780789,34.869954,-102.260064
06539,-5.444447,7.985247,0.359189,-0.207952,-0.055425,-0.143723,0.029987,0.036723,0.071442,-0.054472,0.079832,0.003614,1.000000,0.000150,0.000184,0.000357,0.264891,0.585520,-0.385554,-0.662078,88.811365,34.824168,-102.237202
06540,-5.438817,7.989221,0.356110,-0.207305,-0.054561,-0.143704,-0.005644,0.040730,0.072989,-0.054417,0.079872,0.003570,1.000000,-0.000028,0.000204,0.000365,0.265250,0.585463,-0.385730,-0.661882,88.821678,34.777079,-102.212389
06541,-5.459208,7.925418,0.318775,-0.159313,-0.002893,-0.185049,-0.048995,0.046770,0.058659,-0.054615,0.079239,0.003181,1.000000,-0.000245,0.000234,0.000293,0.265695,0.585404,-0.385714,-0.661765,88.810835,34.738727,-102.182750
06542,-5.482536,7.932063,0.266833,-0.102273,0.006674,-0.167143,-0.065042,0.072106,0.037563,-0.054839,0.079311,0.002662,1.000000,-0.000325,0.000361,0.000188,0.266172,0.585440,-0.385547,-0.661639,88.799236,34.712308,-102.136601
06543,-5.534724,8.127835,0.209901,-0.054975,-0.069609,0.022508,-0.069115,0.086061,0.015662,-0.055353,0.081275,0.002095,1.000000,-0.000346,0.000430,0.000078,0.266609,0.585567,-0.385286,-0.661502,88.792071,34.699069,-102.080215
06544,-5.629171,8.314895,0.196276,-0.041291,-0.099789,0.229818,-0.083982,0.079550,0.008864,-0.056295,0.083147,0.001950,1.000000,-0.000420,0.000398,0.000044,0.267061,0.585658,-0.384963,-0.661428,88.772305,34.689196,-102.029311
06545,-5.673635,8.335777,0.144722,0.017766,-0.084736,0.271397,-0.069627,0.062460,0.009809,-0.056740,0.083355,0.001436,1.000000,-0.000348,0.000312,0.000049,0.267435,0.585717,-0.384714,-0.661369,88.755420,34.679043,-101.989460
06546,-5.608609,8.227739,0.217311,-0.051233,-0.061428,0.146882,-0.047346,0.034146,-0.000524,-0.056086,0.082278,0.002163,1.000000,-0.000237,0.000171,-0.000003,0.267660,0.585724,-0.384545,-0.661370,88.738560,34.674002,-101.970327
06547,-5.501282,7.978856,0.177601,-0.005015,-0.015485,-0.119519,-0.023549,0.026426,-0.001651,-0.055012,0.079789,0.001774,1.000000,-0.000118,0.000132,-0.000008,0.267792,0.585748,-0.384463,-0.661343,88.733692,34.669974,-101.955750
06548,-5.367350,7.725544,0.187937,-0.015014,0.021743,-0.403803,0.033990,0.034038,-0.005516,-0.053671,0.077257,0.001902,1.000000,0.000170,0.000170,-0.000028,0.267762,0.585873,-0.384548,-0.661195,88.763347,34.667789,-101.936769
06549,-5.320085,7.670819,0.230777,-0.066355,0.024722,-0.474968,0.091150,0.051268,0.000959,-0.053201,0.076707,0.002356,1.000000,0.000456,0.000256,0.000005,0.267615,0.586127,-0.384820,-0.660871,88.834053,34.662552,-101.904860
06550,-5.314907,7.866504,0.344210,-0.208375,-0.062704,-0.315254,0.137982,0.061699,0.022949,-0.053157,0.078657,0.003513,1.000000,0.000690,0.000308,0.000115,0.267428,0.586428,-0.385295,-0.660403,88.934456,34.644335,-101.866238
06551,-5.410392,8.166776,0.403726,-0.292158,-0.135782,-0.013311,0.116316,0.053044,0.042264,-0.054120,0.081654,0.004099,1.000000,0.000582,0.000265,0.000211,0.267346,0.586642,-0.385769,-0.659970,89.020540,34.615372,-101.832613
06552,-5.465149,8.401487,0.464585,-0.373292,-0.203408,0.211680,0.047053,0.034727,0.059723,-0.054676,0.083997,0.004675,1.000000,0.000235,0.000174,0.000299,0.267494,0.586661,-0.386087,-0.659706,89.058335,34.575734,-101.812427
06553,-5.526873,8.438537,0.431269,-0.334552,-0.173485,0.276872,-0.027996,0.020890,0.064938,-0.055296,0.084368,0.004307,1.000000,-0.000140,0.000104,0.000325,0.267849,0.586531,-0.386194,-0.659616,89.049115,34.533440,-101.800984
06554,-5.605785,8.528571,0.384690,-0.277648,-0.163710,0.395419,-0.129581,0.032598,0.052916,-0.056080,0.085273,0.003801,1.000000,-0.000648,0.000163,0.000265,0.268489,0.586319,-0.385913,-0.659708,88.984777,34.497672,-101.782374
06555,-5.710019,8.479190,0.323408,-0.182256,-0.061141,0.413192,-0.202832,0.048726,0.040550,-0.057117,0.084784,0.003162,0.999999,-0.001014,0.000244,0.000203,0.269329,0.586094,-0.385333,-0.659905,88.886201,34.469665,-101.751804
06556,-5.704354,8.369433,0.249563,-0.084287,-0.017321,0.318548,-0.220703,0.055991,0.035396,-0.057058,0.083687,0.002419,0.999999,-0.001104,0.000280,0.000177,0.270223,0.585869,-0.384668,-0.660127,88.778750,34.444249,-101.717074
06557,-5.743544,8.389507,0.085947,0.096653,-0.027116,0.354387,-0.211513,0.055236,0.031193,-0.057448,0.083887,0.000787,0.999999,-0.001058,0.000276,0.000156,0.271069,0.585670,-0.384023,-0.660333,88.677712,34.421776,-101.682024
06558,-5.710540,8.312865,0.044070,0.153899,-0.017726,0.271554,-0.177798,0.036852,0.029104,-0.057117,0.083121,0.000377,1.000000,-0.000889,0.000184,0.000146,0.271779,0.585451,-0.383506,-0.660535,88.587307,34.399806,-101.660596
06559,-5.569967,8.177996,0.106736,0.091377,-0.042329,0.082028,-0.102377,0.037094,0.030476,-0.055712,0.081772,0.001036,1.000000,-0.000512,0.000185,0.000152,0.272268,0.585340,-0.383243,-0.660585,88.541691,34.377566,-101.638092
06560,-5.376074,8.061306,0.049100,0.130496,-0.141059,-0.124947,-0.028229,0.041458,0.041999,-0.053778,0.080602,0.000491,1.000000,-0.000141,0.000207,0.000210,0.272592,0.585315,-0.383251,-0.660469,88.538932,34.348310,-101.613202
06561,-5.289558,8.124478,0.166899,-0.006931,-0.217676,-0.119031,0.049165,0.046868,0.065703,-0.052922,0.081227,0.001701,1.000000,0.000246,0.000234,0.000329,0.272772,0.585375,-0.383578,-0.660151,88.584283,34.306034,-101.583320
06562,-5.151957,8.094863,0.225221,-0.089838,-0.291317,-0.219605,0.084556,0.041393,0.102975,-0.051561,0.080921,0.002297,1.000000,0.000423,0.000207,0.000515,0.272967,0.585386,-0.384137,-0.659736,88.646636,34.241814,-101.557520
06563,-5.271160,8.177874,0.229419,-0.089466,-0.226108,-0.083544,0.122112,0.040515,0.132189,-0.052765,0.081742,0.002355,1.000000,0.000611,0.000203,0.000661,0.273141,0.585397,-0.384907,-0.659205,88.731759,34.161316,-101.531143
06564,-5.439256,8.391108,0.293235,-0.150004,-0.180059,0.188674,0.070650,0.025630,0.141198,-0.054451,0.083872,0.002969,1.000000,0.000353,0.000128,0.000706,0.273472,0.585262,-0.385553,-0.658810,88.780159,34.074934,-101.515912
06565,-5.450436,8.483334,0.297013,-0.161015,-0.206323,0.271653,-0.011049,0.023068,0.130515,-0.054559,0.084798,0.002972,1.000000,-0.000055,0.000115,0.000653,0.273996,0.585036,-0.385904,-0.658588,88.782043,33.995148,-101.501827
06566,-5.370223,8.530281,0.290030,-0.167308,-0.285875,0.265972,-0.064797,0.044818,0.118558,-0.053752,0.085272,0.002885,1.000000,-0.000324,0.000224,0.000593,0.274685,0.584822,-0.386011,-0.658428,88.759980,33.921954,-101.473738
06567,-5.327040,8.532495,0.200991,-0.078931,-0.327973,0.242531,-0.140214,0.065223,0.110877,-0.053317,0.085297,0.001967,1.000000,-0.000701,0.000326,0.000554,0.275603,0.584594,-0.385820,-0.658358,88.703912,33.853961,-101.430807
06568,-5.404118,8.398712,0.027521,0.127446,-0.213883,0.171381,-0.151946,0.061753,0.109399,-0.054087,0.083958,0.000228,1.000000,-0.000760,0.000309,0.000547,0.276550,0.584333,-0.385590,-0.658328,88.638336,33.786261,-101.391083
06569,-5.534532,8.324544,0.053868,0.141789,-0.052089,0.182769,-0.166373,0.055223,0.114225,-0.055393,0.083214,0.000485,0.999999,-0.000832,0.000276,0.000571,0.277535,0.584029,-0.385336,-0.658332,88.563464,33.716292,-101.354866
06570,-5.487552,8.187174,-0.024737,0.235179,-0.019551,0.040635,-0.130826,0.037697,0.105787,-0.054919,0.081843,-0.000291,1.000000,-0.000654,0.000188,0.000529,0.278361,0.583724,-0.385197,-0.658335,88.500784,33.650385,-101.331623
06571,-5.402906,8.134699,0.062551,0.149866,-0.034655,-0.048213,-0.106679,0.030130,0.099789,-0.054070,0.081320,0.000590,1.000000,-0.000533,0.000151,0.000499,0.279076,0.583447,-0.385132,-0.658316,88.450413,33.588368,-101.312801
06572,-5.237147,7.988056,0.098111,0.107668,-0.074314,-0.261287,-0.073137,0.031742,0.093490,-0.052409,0.079856,0.000960,1.000000,-0.000366,0.000159,0.000467,0.279682,0.583226,-0.385155,-0.658242,88.418430,33.529449,-101.293767
06573,-5.190025,7.895613,0.193720,0.017959,-0.036372,-0.362135,-0.043007,0.045303,0.085549,-0.051934,0.078934,0.001932,1.000000,-0.000215,0.000227,0.000428,0.280193,0.583114,-0.385236,-0.658075,88.410142,33.475845,-101.264741
06574,-5.095868,7.779707,0.215623,-0.008430,-0.037585,-0.510176,-0.002198,0.056751,0.080436,-0.050989,0.077777,0.002170,1.000000,-0.000011,0.000284,0.000402,0.280596,0.583100,-0.385419,-0.657809,88.428108,33.424803,-101.228786
06575,-5.112010,7.721032,0.149397,0.062071,0.004486,-0.551725,0.014932,0.070981,0.081136,-0.051151,0.077189,0.001518,1.000000,0.000075,0.000355,0.000406,0.280974,0.583162,-0.385641,-0.657462,88.462587,33.374112,-101.182294
06576,-5.168994,7.869955,0.077678,0.125671,-0.033152,-0.397602,0.052926,0.070737,0.087075,-0.051724,0.078677,0.000816,1.000000,0.000265,0.000354,0.000435,0.281265,0.583258,-0.386005,-0.657039,88.517361,33.319444,-101.136742
06577,-5.268426,8.193441,0.122135,0.067005,-0.109258,-0.071677,0.027347,0.071176,0.089185,-0.052720,0.081911,0.001251,1.000000,0.000137,0.000356,0.000446,0.281633,0.583322,-0.386292,-0.656656,88.558945,33.264083,-101.090132
06578,-5.316033,8.434200,0.291215,-0.113200,-0.160624,0.159380,-0.009855,0.065004,0.086407,-0.053196,0.084319,0.002925,1.000000,-0.000049,0.000325,0.000432,0.282094,0.583311,-0.386455,-0.656371,88.575452,33.209663,-101.048654
06579,-5.271403,8.447028,0.374864,-0.200869,-0.180898,0.147604,-0.091225,0.058139,0.076878,-0.052745,0.084452,0.003725,1.000000,-0.000456,0.000291,0.000384,0.282742,0.583189,-0.386335,-0.656272,88.543982,33.161149,-101.011260
06580,-5.233238,8.231868,0.332134,-0.138992,-0.097195,-0.054000,-0.156714,0.061715,0.064410,-0.052358,0.082304,0.003273,1.000000,-0.000784,0.000309,0.000322,0.283552,0.583002,-0.385957,-0.656311,88.474846,33.119304,-100.972408
06581,-5.191074,7.913492,0.278876,-0.056851,0.035257,-0.344642,-0.189781,0.071065,0.054120,-0.051931,0.079123,0.002732,0.999999,-0.000949,0.000355,0.000271,0.284437,0.582826,-0.385427,-0.656395,88.391507,33.084096,-100.926509
06582,-5.225368,7.653902,0.144567,0.111271,0.183687,-0.546542,-0.159799,0.083001,0.039479,-0.052268,0.076530,0.001406,1.000000,-0.000799,0.000415,0.000197,0.285215,0.582752,-0.384935,-0.656413,88.328285,33.056966,-100.873502
06583,-5.318353,7.618550,0.002386,0.274402,0.257957,-0.529080,-0.093330,0.097142,0.034256,-0.053197,0.076176,0.000014,1.000000,-0.000467,0.000486,0.000171,0.285804,0.582836,-0.384627,-0.656263,88.309698,33.033649,-100.810131
06584,-5.354614,7.793423,-0.004616,0.274775,0.195469,-0.363050,-0.028979,0.095570,0.019947,-0.053554,0.077929,-0.000032,1.000000,-0.000145,0.000478,0.000100,0.286160,0.583027,-0.384489,-0.656019,88.325876,33.017972,-100.748921
06585,-5.365764,8.108489,0.108767,0.137023,0.056137,-0.090089,0.035627,0.096112,-0.004267,-0.053655,0.081086,0.001128,1.000000,0.000178,0.000481,-0.000021,0.286244,0.583366,-0.384492,-0.655679,88.380334,33.016670,-100.687047
06586,-5.281006,8.346293,0.175825,0.033193,-0.129708,0.064692,0.031514,0.089715,-0.016719,-0.052802,0.083467,0.001795,1.000000,0.000158,0.000449,-0.000084,0.286293,0.583694,-0.384454,-0.655388,88.428608,33.021837,-100.630553
06587,-5.167407,8.403327,0.297514,-0.115717,-0.233519,0.053345,0.036689,0.083867,-0.024697,-0.051662,0.084039,0.003012,1.000000,0.000183,0.000419,-0.000123,0.286283,0.584033,-0.384419,-0.655110,88.478921,33.031956,-100.577417
06588,-5.011193,8.290633,0.402983,-0.241699,-0.283375,-0.124018,0.021801,0.083635,-0.011414,-0.050106,0.082909,0.004060,1.000000,0.000109,0.000418,-0.000057,0.286366,0.584317,-0.384373,-0.654848,88.519443,33.033904,-100.524963
06589,-5.076010,8.220554,0.375684,-0.204905,-0.195172,-0.148090,0.018177,0.074664,0.009631,-0.050763,0.082203,0.003783,1.000000,0.000091,0.000373,0.000048,0.286505,0.584534,-0.384391,-0.654583,88.556060,33.024161,-100.477497
06590,-5.160492,8.338460,0.248140,-0.077938,-0.207697,-0.005907,-0.010641,0.059931,0.024124,-0.051614,0.083379,0.002492,1.000000,-0.000053,0.000300,0.000121,0.286753,0.584625,-0.384376,-0.654401,88.569474,33.005347,-100.440643
06591,-5.239343,8.505324,0.283727,-0.111420,-0.223880,0.177769,-0.085611,0.050573,0.026529,-0.052404,0.085047,0.002814,1.000000,-0.000428,0.000253,0.000133,0.287204,0.584582,-0.384138,-0.654382,88.537790,32.985565,-100.409359
06592,-5.299953,8.549047,0.335955,-0.149036,-0.187419,0.248685,-0.146720,0.056197,0.012601,-0.053004,0.085490,0.003312,1.000000,-0.000734,0.000281,0.000063,0.287805,0.584487,-0.383650,-0.654489,88.471722,32.973315,-100.375255
06593,-5.366721,8.587814,0.417132,-0.209390,-0.141614,0.319554,-0.219868,0.073785,-0.014202,-0.053660,0.085886,0.004097,0.999999,-0.001099,0.000369,-0.000071,0.288560,0.584404,-0.382819,-0.654717,88.371339,32.977288,-100.328842
06594,-5.330544,8.439389,0.244449,-0.016917,-0.125161,0.171388,-0.295350,0.090593,-0.046472,-0.053285,0.084410,0.002344,0.999999,-0.001477,0.000453,-0.000232,0.289466,0.584320,-0.381621,-0.655091,88.232272,32.999546,-100.272404
06595,-5.235874,8.179004,0.143030,0.105389,-0.086772,-0.101237,-0.302019,0.098305,-0.060652,-0.052333,0.081808,0.001332,0.999999,-0.001510,0.000492,-0.000303,0.290355,0.584284,-0.380349,-0.655470,88.093416,33.030746,-100.210265
06596,-5.261052,7.933045,0.018035,0.264351,0.039486,-0.297398,-0.239283,0.094066,-0.064936,-0.052585,0.079348,0.000110,0.999999,-0.001196,0.000470,-0.000325,0.291043,0.584325,-0.379274,-0.655751,87.987543,33.063861,-100.151970
06597,-5.220434,7.797914,-0.010268,0.303143,0.068426,-0.433779,-0.114820,0.087930,-0.059733,-0.052181,0.077995,-0.000125,1.000000,-0.000574,0.000440,-0.000299,0.291366,0.584524,-0.378632,-0.655801,87.952100,33.094499,-100.096979
06598,-5.068647,7.716436,0.106778,0.170203,0.002191,-0.581382,-0.002803,0.085701,-0.035667,-0.050672,0.077173,0.001088,1.000000,-0.000014,0.000429,-0.000178,0.291443,0.584826,-0.378430,-0.655614,87.979050,33.110761,-100.043693
06599,-5.013631,7.672051,0.177183,0.086981,-0.007453,-0.646411,0.115396,0.083915,0.004354,-0.050137,0.076718,0.001837,1.000000,0.000577,0.000420,0.000022,0.291296,0.585226,-0.378736,-0.655146,88.074889,33.104577,-99.989884
06600,-5.104042,7.905261,0.331356,-0.081672,-0.030774,-0.397458,0.189755,0.083763,0.027121,-0.051050,0.079042,0.003410,0.999999,0.000949,0.000419,0.000136,0.291011,0.585682,-0.379351,-0.654509,88.212243,33.084712,-99.936466
06601,-5.229987,8.132534,0.398487,-0.162373,-0.033024,-0.136832,0.186959,0.077374,0.031475,-0.052311,0.081313,0.004081,0.999999,0.000935,0.000387,0.000157,0.290730,0.586112,-0.379979,-0.653884,88.346893,33.062685,-99.886623
06602,-5.360241,8.427867,0.476945,-0.256479,-0.067598,0.183223,0.123284,0.090466,0.012054,-0.053605,0.084272,0.004846,1.000000,0.000616,0.000452,0.000060,0.290603,0.586521,-0.380322,-0.653374,88.448399,33.051356,-99.829042
06603,-5.498166,8.677055,0.503870,-0.289767,-0.082924,0.467593,-0.000997,0.097743,-0.025309,-0.054968,0.086778,0.005065,1.000000,-0.000005,0.000489,-0.000127,0.290726,0.586852,-0.380139,-0.653128,88.482320,33.062029,-99.766414
06604,-5.461016,8.747858,0.371983,-0.169879,-0.176378,0.503616,-0.119251,0.102583,-0.062059,-0.054581,0.087498,0.003696,1.000000,-0.000596,0.000513,-0.000310,0.291091,0.587089,-0.379455,-0.653151,88.448641,33.093272,-99.701922
06605,-5.303712,8.663027,0.274119,-0.082046,-0.283573,0.344349,-0.208996,0.102562,-0.082049,-0.053000,0.086655,0.002678,0.999999,-0.001045,0.000513,-0.000410,0.291649,0.587240,-0.378419,-0.653368,88.364667,33.136572,-99.637050
06606,-5.209202,8.442497,0.248806,-0.043193,-0.255258,0.107313,-0.244491,0.102011,-0.078409,-0.052058,0.084448,0.002411,0.999999,-0.001222,0.000510,-0.000392,0.292326,0.587321,-0.377277,-0.653652,88.258883,33.177302,-99.573329
06607,-5.265609,8.129460,0.204247,0.041322,-0.053680,-0.124970,-0.228193,0.095290,-0.064933,-0.052629,0.081314,0.001975,0.999999,-0.001141,0.000476,-0.000325,0.292981,0.587386,-0.376238,-0.653899,88.161395,33.210857,-99.513187
06608,-5.319320,7.961223,0.128747,0.143856,0.064303,-0.238348,-0.159436,0.078261,-0.058339,-0.053169,0.079629,0.001245,1.000000,-0.000797,0.000391,-0.000292,0.293428,0.587475,-0.375468,-0.654062,88.095692,33.239815,-99.465384
06609,-5.314034,7.827525,0.191673,0.094766,0.136325,-0.351277,-0.111010,0.070976,-0.057328,-0.053117,0.078292,0.001892,1.000000,-0.000555,0.000355,-0.000287,0.293718,0.587617,-0.374869,-0.654148,88.056334,33.268664,-99.421770
06610,-5.304668,7.796119,0.040290,0.246440,0.118792,-0.386885,-0.030170,0.071379,-0.060071,-0.053023,0.077977,0.000410,1.000000,-0.000151,0.000357,-0.000300,0.293767,0.587876,-0.374526,-0.654090,88.062134,33.298543,-99.378725
06611,-5.358394,8.069875,0.147651,0.127084,0.023921,-0.125566,0.038840,0.087252,-0.075517,-0.053553,0.080719,0.001516,1.000000,0.000194,0.000436,-0.000378,0.293586,0.588325,-0.374339,-0.653873,88.114595,33.338111,-99.324333
06612,-5.294772,8.185772,0.300865,-0.046504,-0.075209,-0.059525,0.000860,0.095527,-0.070211,-0.052918,0.081876,0.003034,1.000000,0.000004,0.000478,-0.000351,0.293556,0.588728,-0.374032,-0.653701,88.147261,33.374213,-99.264867
06613,-5.276851,8.353838,0.329439,-0.091587,-0.182718,0.071569,-0.022993,0.106204,-0.052852,-0.052745,0.083553,0.003313,1.000000,-0.000115,0.000531,-0.000264,0.293667,0.589105,-0.373683,-0.653511,88.171833,33.401094,-99.196876
06614,-5.335003,8.328944,0.339611,-0.092980,-0.123113,0.083024,-0.096541,0.098060,-0.029455,-0.053336,0.083299,0.003382,1.000000,-0.000483,0.000490,-0.000147,0.294061,0.589296,-0.373173,-0.653452,88.150220,33.413871,-99.134720
06615,-5.300143,8.187830,0.354532,-0.099344,-0.075552,-0.053477,-0.152222,0.086909,-0.029056,-0.052988,0.081889,0.003506,1.000000,-0.000761,0.000435,-0.000145,0.294594,0.589376,-0.372499,-0.653525,88.093787,33.426801,-99.079427
06616,-5.270150,8.042450,0.396274,-0.128051,-0.018537,-0.190018,-0.183696,0.098407,-0.032972,-0.052686,0.080437,0.003915,0.999999,-0.000918,0.000492,-0.000165,0.295234,0.589445,-0.371693,-0.653632,88.022340,33.441689,-99.017128
06617,-5.291898,7.944277,0.334033,-0.050771,0.039458,-0.261606,-0.168160,0.128189,-0.058370,-0.052894,0.079461,0.003307,0.999999,-0.000841,0.000641,-0.000292,0.295794,0.589689,-0.370820,-0.653655,87.972031,33.472331,-98.934218
06618,-5.361700,7.964332,0.050540,0.241038,0.040961,-0.214709,-0.102639,0.146263,-0.078995,-0.053585,0.079665,0.000504,1.000000,-0.000513,0.000731,-0.000395,0.296133,0.590119,-0.370072,-0.653538,87.964596,33.514631,-98.840172
06619,-5.451434,8.267850,0.058191,0.225616,-0.058227,0.088048,-0.006425,0.145625,-0.090983,-0.054476,0.082703,0.000619,1.000000,-0.000032,0.000728,-0.000455,0.296141,0.590719,-0.369604,-0.653256,88.013278,33.564308,-98.745996
06620,-5.420024,8.501589,0.327051,-0.065290,-0.184209,0.273066,0.032809,0.120840,-0.088245,-0.054161,0.085039,0.003317,1.000000,0.000164,0.000604,-0.000441,0.296002,0.591283,-0.369308,-0.652976,88.073908,33.611311,-98.669461
06621,-5.374678,8.487208,0.403821,-0.155386,-0.209961,0.237919,0.023202,0.100976,-0.076954,-0.053712,0.084892,0.004075,1.000000,0.000116,0.000505,-0.000385,0.295887,0.591755,-0.369044,-0.652751,88.122981,33.651955,-98.605458
06622,-5.349728,8.374638,0.436066,-0.190913,-0.169136,0.131117,-0.004435,0.087800,-0.054438,-0.053473,0.083761,0.004382,1.000000,-0.000022,0.000439,-0.000272,0.295907,0.592093,-0.368776,-0.652587,88.150262,33.678868,-98.550743
06623,-5.274940,8.204222,0.420197,-0.179453,-0.142377,-0.052650,-0.027529,0.087237,-0.044263,-0.052729,0.082054,0.004214,1.000000,-0.000138,0.000436,-0.000221,0.296023,0.592384,-0.368463,-0.652447,88.165529,33.700482,-98.495379
06624,-5.234920,8.139380,0.391261,-0.154229,-0.146006,-0.129616,-0.050906,0.104923,-0.030049,-0.052335,0.081403,0.003919,1.000000,-0.000255,0.000525,-0.000150,0.296292,0.592664,-0.368090,-0.652281,88.173071,33.713706,-98.428304
06625,-5.314461,8.199399,0.410569,-0.167061,-0.113109,-0.035085,-0.086645,0.123850,-0.015887,-0.053136,0.082000,0.004103,1.000000,-0.000433,0.000619,-0.000079,0.296742,0.592934,-0.367614,-0.652099,88.168841,33.719730,-98.347086
06626,-5.491205,8.232173,0.558940,-0.291895,0.031328,0.094292,-0.126077,0.114829,-0.018577,-0.054901,0.082330,0.005569,1.000000,-0.000630,0.000574,-0.000093,0.297289,0.593113,-0.367014,-0.652025,88.137252,33.726576,-98.272935
06627,-5.574278,8.108782,0.627567,-0.338283,0.173259,0.039942,-0.167817,0.103591,-0.033547,-0.055726,0.081102,0.006236,0.999999,-0.000839,0.000518,-0.000168,0.297885,0.593228,-0.366251,-0.652077,88.078569,33.742404,-98.206060
06628,-5.569405,7.824615,0.638588,-0.328376,0.322186,-0.198166,-0.188400,0.099050,-0.063798,-0.055666,0.078270,0.006340,0.999999,-0.000942,0.000495,-0.000319,0.298440,0.593345,-0.365337,-0.652230,88.004661,33.774966,-98.143843
06629,-5.404068,7.526364,0.478683,-0.168457,0.323689,-0.541976,-0.176859,0.112088,-0.090363,-0.054004,0.075292,0.004751,0.999999,-0.000884,0.000560,-0.000452,0.298893,0.593577,-0.364362,-0.652357,87.943351,33.823629,-98.072491
06630,-5.303936,7.688144,0.058723,0.237267,0.091397,-0.475767,-0.208951,0.130243,-0.099508,-0.053001,0.076908,0.000541,0.999999,-0.001045,0.000651,-0.000498,0.299448,0.593828,-0.363227,-0.652507,87.869191,33.877442,-97.989706
06631,-5.220711,7.533399,0.160263,0.140299,0.112071,-0.647462,-0.182747,0.136557,-0.090440,-0.052172,0.075359,0.001569,0.999999,-0.000914,0.000683,-0.000452,0.299961,0.594129,-0.362195,-0.652570,87.813999,33.926813,-97.901527
06632,-5.313763,7.789407,0.648339,-0.343922,0.093937,-0.367892,-0.009986,0.131724,-0.102136,-0.053094,0.077922,0.006514,1.000000,-0.000050,0.000659,-0.000511,0.299919,0.594687,-0.361698,-0.652357,87.854525,33.982265,-97.817759
06633,-5.288110,8.359061,1.095125,-0.813626,-0.204490,0.103637,-0.156217,0.132345,-0.108909,-0.052828,0.083628,0.010921,0.999999,-0.000781,0.000662,-0.000545,0.300286,0.595047,-0.360704,-0.652411,87.812836,34.042130,-97.732866
06634,-5.424371,7.892886,0.651885,-0.338080,0.107953,-0.219959,-0.084455,0.109203,-0.078915,-0.054209,0.078953,0.006515,1.000000,-0.000422,0.000546,-0.000395,0.300499,0.595376,-0.360066,-0.652364,87.802447,34.083820,-97.664001
06635,-5.269734,8.269750,0.359003,-0.072995,-0.269559,-0.004031,-0.167161,0.065740,-0.051200,-0.052675,0.082714,0.003538,1.000000,-0.000836,0.000329,-0.000256,0.300966,0.595398,-0.359308,-0.652548,87.729648,34.109241,-97.623602
06636,-4.990860,7.137664,0.722819,-0.415645,0.172432,-1.084864,-0.177641,0.076256,-0.013519,-0.049901,0.071386,0.007184,1.000000,-0.000888,0.000381,-0.000068,0.301611,0.595361,-0.358610,-0.652668,87.654113,34.112845,-97.575771
06637,-5.133358,7.542144,0.945986,-0.638233,0.084756,-0.663062,0.083026,0.165806,-0.035506,-0.051312,0.075427,0.009534,1.000000,0.000415,0.000829,-0.000178,0.301563,0.596057,-0.358562,-0.652081,87.763728,34.131606,-97.465754
06638,-5.555348,8.619078,-0.785780,1.080117,-0.359928,0.408450,-0.083181,0.272781,-0.015784,-0.055557,0.086192,-0.007818,0.999999,-0.000416,0.001364,-0.000079,0.302271,0.596806,-0.357869,-0.651448,87.818550,34.140788,-97.282046
06639,-6.204997,8.894120,-0.571922,0.906075,0.047754,1.009101,0.242750,0.210368,0.048768,-0.062078,0.088933,-0.005546,0.999999,0.001214,0.001052,0.000244,0.302100,0.597736,-0.358525,-0.650313,88.038214,34.111869,-97.139007
06640,-6.201190,9.101831,1.361504,-1.064880,0.145608,1.232509,0.518188,0.066091,0.076583,-0.062042,0.090959,0.013871,0.999997,0.002591,0.000330,0.000383,0.300941,0.598553,-0.360375,-0.649076,88.358567,34.063351,-97.096188
06641,-5.736562,8.478045,1.660965,-1.427577,0.162201,0.457648,0.443257,0.010516,0.077393,-0.057398,0.084721,0.016800,0.999997,0.002216,0.000053,0.000387,0.299901,0.599079,-0.362066,-0.648130,88.615625,34.013861,-97.091256
06642,-5.483379,7.832288,0.926119,-0.728638,0.248203,-0.237863,0.413548,0.036781,0.061555,-0.054856,0.078287,0.009433,0.999998,0.002068,0.000184,0.000308,0.298951,0.599663,-0.363571,-0.647185,88.864075,33.973245,-97.069568
06643,-5.673269,7.530367,0.633629,-0.442471,0.551381,-0.389635,0.536521,0.088217,0.034396,-0.056743,0.075277,0.006563,0.999996,0.002683,0.000441,0.000172,0.297630,0.600652,-0.365315,-0.645894,89.203944,33.949100,-97.012044
06644,-5.978711,7.761258,0.777521,-0.618279,0.700875,-0.029393,0.689473,0.101397,-0.010327,-0.059779,0.077588,0.008073,0.999994,0.003447,0.000507,-0.000052,0.295733,0.601978,-0.367394,-0.644350,89.634735,33.949852,-96.946843
06645,-5.941979,8.323577,0.746567,-0.681905,0.361086,0.412321,0.601726,0.068668,-0.059355,-0.059392,0.083230,0.007736,0.999995,0.003009,0.000343,-0.000297,0.293872,0.603161,-0.369089,-0.643125,90.004083,33.978735,-96.903429
06646,-5.823335,8.582457,0.794152,-0.806435,0.127236,0.557162,0.475434,0.032633,-0.078300,-0.058198,0.085828,0.008155,0.999997,0.002377,0.000163,-0.000392,0.292269,0.604064,-0.370369,-0.642271,90.285748,34.017876,-96.885608
06647,-5.632931,9.010490,1.324628,-1.421317,-0.201707,0.799219,0.397924,-0.020935,-0.076409,-0.056296,0.090100,0.013420,0.999998,0.001990,-0.000105,-0.000382,0.290799,0.604685,-0.371484,-0.641710,90.503957,34.056521,-96.903679
06648,-5.353895,9.197545,1.119832,-1.280734,-0.561239,0.796637,0.093316,-0.027784,-0.042556,-0.053521,0.091982,0.011234,1.000000,0.000467,-0.000139,-0.000213,0.290352,0.604767,-0.371731,-0.641692,90.543262,34.075383,-96.927594
06649,-5.369690,8.779940,0.828002,-0.955044,-0.353868,0.461998,-0.110209,-0.036702,0.011598,-0.053703,0.087801,0.008222,1.000000,-0.000551,-0.000184,0.000058,0.290671,0.604433,-0.371503,-0.641994,90.463960,34.063714,-96.957024
06650,-5.379296,8.113975,0.589315,-0.649164,-0.005677,-0.081335,-0.222123,-0.076017,0.031245,-0.053808,0.081138,0.005783,0.999999,-0.001111,-0.000380,0.000156,0.291324,0.603764,-0.371031,-0.642600,90.303550,34.040387,-97.014745
06651,-5.187835,7.695034,0.209498,-0.239234,0.023451,-0.532965,-0.217654,-0.060765,0.045669,-0.051897,0.076941,0.001995,0.999999,-0.001088,-0.000304,0.000228,0.292032,0.603132,-0.370595,-0.643123,90.153392,34.009134,-97.060820
06652,-5.269707,7.874600,0.031193,-0.048742,-0.027399,-0.337617,-0.161362,-0.025466,0.059884,-0.052721,0.078730,0.000242,1.000000,-0.000807,-0.000127,0.000299,0.292688,0.602660,-0.370330,-0.643421,90.047426,33.969112,-97.083480
06653,-5.543664,7.916248,0.238188,-0.215536,0.206446,-0.150036,-0.099678,-0.052127,0.078472,-0.055468,0.079142,0.002328,1.000000,-0.000498,-0.000261,0.000392,0.293161,0.602166,-0.370360,-0.643650,89.968352,33.918918,-97.123404
06654,-5.438496,8.146575,0.307684,-0.299298,0.006767,-0.017334,-0.074835,-0.075675,0.051097,-0.054407,0.081453,0.003026,1.000000,-0.000374,-0.000378,0.000255,0.293434,0.601675,-0.370420,-0.643952,89.892742,33.883848,-97.180566
06655,-5.013072,7.914722,-0.884047,0.870897,-0.360607,-0.449637,-0.264464,0.007281,0.006448,-0.050134,0.079134,-0.008943,0.999999,-0.001322,0.000036,0.000032,0.294281,0.601263,-0.369614,-0.644412,89.742185,33.874918,-97.179418
06656,-5.298770,8.164927,-1.054798,1.062849,-0.281516,-0.084034,-0.012869,0.097862,0.039659,-0.053009,0.081638,-0.010527,1.000000,-0.000064,0.000489,0.000198,0.294651,0.601442,-0.369584,-0.644093,89.768930,33.846676,-97.116704
06657,-5.792221,8.600013,-0.324922,0.351658,-0.018733,0.555127,0.183619,0.014884,0.071793,-0.057953,0.085982,-0.003166,1.000000,0.000918,0.000074,0.000359,0.294375,0.601594,-0.370407,-0.643605,89.878101,33.800320,-97.110174
06658,-5.538062,7.762197,0.186823,-0.144985,0.309162,-0.281681,0.338705,-0.039333,0.101772,-0.055420,0.077590,0.001989,0.999998,0.001694,-0.000197,0.000509,0.293634,0.601733,-0.371896,-0.642954,90.053619,33.736246,-97.142144
06659,-5.393516,6.504600,-0.109639,0.193726,0.860107,-1.408259,0.598597,-0.044197,0.117692,-0.053973,0.065017,-0.000914,0.999995,0.002993,-0.000221,0.000588,0.292144,0.602213,-0.374276,-0.641801,90.377684,33.663684,-97.176813
06660,-5.408471,5.616408,-0.418108,0.526733,1.334895,-2.137351,0.926362,-0.021210,0.114251,-0.054116,0.056152,-0.003927,0.999989,0.004632,-0.000106,0.000571,0.289702,0.603235,-0.377655,-0.639967,90.896361,33.592697,-97.197237
06661,-5.638852,6.238674,-0.724674,0.742667,1.156955,-1.484881,1.149808,-0.027397,0.081520,-0.056413,0.062404,-0.006896,0.999983,0.005749,-0.000137,0.000408,0.286455,0.604614,-0.381651,-0.637752,91.542181,33.541166,-97.221293
06662,-5.737352,8.077219,-0.374803,0.142719,0.300138,0.096285,1.333883,-0.008570,0.019977,-0.057381,0.080789,-0.003212,0.999978,0.006669,-0.000043,0.000100,0.282485,0.606403,-0.386004,-0.635200,92.299394,33.524401,-97.232681
06663,-5.366201,10.038065,1.129256,-1.710566,-0.828697,1.466498,1.207411,0.047135,-0.027937,-0.053645,0.100317,0.011911,0.999982,0.006037,0.000236,-0.000140,0.278838,0.608266,-0.389718,-0.632757,93.007577,33.534058,-97.203612
06664,-5.143596,10.724306,1.878792,-2.654831,-1.247161,1.866058,0.718670,0.029530,-0.010689,-0.051427,0.107177,0.019181,0.999994,0.003593,0.000148,-0.000053,0.276696,0.609334,-0.391951,-0.631288,93.427091,33.533787,-97.188151
06665,-4.850573,8.907569,0.792638,-1.428658,-0.665562,0.238036,0.235840,0.004012,0.051946,-0.048529,0.089054,0.008032,0.999999,0.001179,0.000020,0.000260,0.276165,0.609536,-0.392886,-0.630745,93.560508,33.498908,-97.191845
06666,-5.288286,7.221292,-0.495407,0.085492,0.412055,-0.858287,0.344345,0.026420,0.098219,-0.052919,0.072195,-0.004823,0.999998,0.001722,0.000132,0.000491,0.275499,0.609856,-0.394270,-0.629863,93.761552,33.436284,-97.183409
06667,-6.029227,7.239701,-0.526799,0.157465,1.024470,-0.433569,0.633065,-0.006615,0.094267,-0.060326,0.072385,-0.005041,0.999995,0.003165,-0.000033,0.000471,0.273867,0.610484,-0.396595,-0.628505,94.117287,33.377658,-97.196694
06668,-6.580901,7.978822,0.025110,-0.487116,1.193278,0.449324,1.026697,-0.169406,0.058687,-0.065833,0.079766,0.000605,0.999986,0.005133,-0.000847,0.000293,0.270600,0.611188,-0.400263,-0.626909,94.636250,33.346141,-97.321055
06669,-6.417082,9.512775,1.089571,-1.862276,0.445596,1.553558,1.237599,-0.284843,0.005409,-0.064189,0.095057,0.011393,0.999980,0.006188,-0.001424,0.000027,0.266275,0.611911,-0.404573,-0.625286,95.236065,33.352157,-97.520435
06670,-5.909194,10.201371,1.406116,-2.423168,-0.257829,1.807337,0.944738,-0.331404,-0.031370,-0.059100,0.101955,0.014445,0.999987,0.004724,-0.001657,-0.000157,0.262635,0.612144,-0.407902,-0.624435,95.649956,33.382773,-97.750299
06671,-5.643180,10.383937,1.296252,-2.427377,-0.582417,1.811445,0.470112,-0.350482,-0.091466,-0.056407,0.103834,0.013108,0.999996,0.002351,-0.001752,-0.000457,0.260209,0.611815,-0.409585,-0.624671,95.788776,33.450041,-97.987922
06672,-5.351792,9.913582,1.371653,-2.446870,-0.567735,1.254949,-0.228371,-0.346635,-0.130803,-0.053477,0.099186,0.013511,0.999998,-0.001142,-0.001733,-0.000654,0.259811,0.610655,-0.408956,-0.626381,95.527758,33.538862,-98.221785
06673,-5.208140,8.459936,0.345024,-1.152690,-0.139063,0.059787,-0.675739,-0.363157,-0.148171,-0.052025,0.084649,0.003070,0.999992,-0.003379,-0.001816,-0.000741,0.260681,0.608903,-0.406893,-0.629063,95.006027,33.637581,-98.465611
06674,-5.327212,8.020358,0.152947,-0.801245,0.127808,-0.217386,-0.801580,-0.335382,-0.131267,-0.053222,0.080244,0.001119,0.999990,-0.004008,-0.001677,-0.000656,0.262047,0.607017,-0.404440,-0.631894,94.418863,33.722861,-98.694060
06675,-5.672304,7.784043,-0.198113,-0.297191,0.443689,-0.193964,-0.802093,-0.368587,-0.112347,-0.056675,0.077863,-0.002398,0.999990,-0.004010,-0.001843,-0.000562,0.263394,0.604987,-0.402081,-0.634780,93.819503,33.797243,-98.946209
06676,-6.128316,7.710366,-0.415538,0.061593,0.791472,0.013197,-0.626369,-0.407791,-0.106444,-0.061233,0.077122,-0.004522,0.999993,-0.003132,-0.002039,-0.000532,0.264153,0.603030,-0.400339,-0.637422,93.302485,33.867090,-99.228027
06677,-6.447654,8.050297,-0.155244,-0.133730,0.894226,0.462803,-0.432403,-0.504846,-0.146828,-0.064413,0.080546,-0.001889,0.999994,-0.002162,-0.002524,-0.000734,0.263993,0.601105,-0.399219,-0.640004,92.861541,33.961591,-99.574873
06678,-6.059475,8.632818,-0.177096,-0.177571,0.223850,0.732069,-0.571474,-0.564862,-0.224598,-0.060492,0.086390,-0.002189,0.999991,-0.002857,-0.002824,-0.001123,0.263885,0.598939,-0.397491,-0.643147,92.315370,34.099209,-99.963535
06679,-5.509146,8.538307,-0.939149,0.581711,-0.364082,0.368852,-0.651335,-0.541866,-0.282545,-0.054945,0.085429,-0.009819,0.999990,-0.003257,-0.002709,-0.001413,0.263864,0.596857,-0.395298,-0.646434,91.733338,34.266841,-100.335835
06680,-5.361476,8.964471,-0.080256,-0.257898,-0.596487,0.612789,-0.664408,-0.537063,-0.321282,-0.053468,0.089727,-0.001244,0.999990,-0.003322,-0.002685,-0.001606,0.263768,0.594826,-0.392929,-0.649781,91.141234,34.452937,-100.708320
06681,-5.105522,8.976369,-0.386063,0.107161,-0.924926,0.479149,-1.296613,-0.465578,-0.336483,-0.050894,0.089821,-0.004561,0.999975,-0.006483,-0.002328,-0.001682,0.265626,0.592214,-0.388357,-0.654144,90.214294,34.643669,-101.033416
06682,-5.221770,8.111374,-0.806099,0.769647,-0.486825,-0.175267,-1.567848,-0.342685,-0.337839,-0.052066,0.081135,-0.008786,0.999966,-0.007839,-0.001713,-0.001689,0.268514,0.589600,-0.382704,-0.658643,89.174949,34.830362,-101.278872
06683,-5.687503,7.458327,-1.124190,1.353873,0.143769,-0.464808,-1.581947,-0.321655,-0.362047,-0.056721,0.074594,-0.011923,0.999966,-0.007910,-0.001608,-0.001810,0.271378,0.587054,-0.376882,-0.663085,88.134637,35.028100,-101.513345
06684,-5.684807,6.491267,-2.617929,3.015767,0.375258,-1.323257,-1.312648,-0.342415,-0.416688,-0.056667,0.064857,-0.026702,0.999975,-0.006563,-0.001712,-0.002083,0.273222,0.584861,-0.371796,-0.667124,87.233800,35.252778,-101.769886
06685,-5.115889,6.345140,-2.310125,2.706163,0.017439,-1.784877,-0.753521,-0.315904,-0.439867,-0.050982,0.063476,-0.023421,0.999989,-0.003768,-0.001580,-0.002199,0.273386,0.583554,-0.368460,-0.670046,86.662453,35.489405,-102.011631
06686,-4.805889,7.184067,-1.141905,1.510685,-0.555006,-1.244104,-0.824013,-0.198499,-0.453023,-0.047885,0.071901,-0.011763,0.999988,-0.004120,-0.000992,-0.002265,0.273928,0.582546,-0.364679,-0.672765,86.093621,35.735303,-102.176169
06687,-4.717524,6.976949,-1.281825,1.715032,-0.573555,-1.487730,-1.181401,-0.081313,-0.468229,-0.047007,0.069802,-0.013250,0.999980,-0.005907,-0.000407,-0.002341,0.275659,0.581461,-0.359481,-0.675787,85.366971,35.993898,-102.261658
06688,-4.725074,6.888532,-1.513200,2.024106,-0.595442,-1.589803,-1.168734,0.032030,-0.456921,-0.047096,0.068903,-0.015527,0.999980,-0.005844,0.000160,-0.002285,0.277590,0.580724,-0.354187,-0.678421,84.690671,36.250252,-102.271650
06689,-4.827281,6.226216,-2.233019,2.825672,-0.266773,-2.131604,-0.624023,0.054424,-0.380487,-0.048160,0.062284,-0.022511,0.999993,-0.003120,0.000272,-0.001902,0.278225,0.580678,-0.350924,-0.679894,84.338960,36.464711,-102.262375
06690,-4.680750,6.554010,-1.214237,1.796708,-0.444568,-1.880917,0.142959,0.040271,-0.287880,-0.046716,0.065616,-0.012086,0.999999,0.000715,0.000201,-0.001439,0.276926,0.581475,-0.350553,-0.679935,84.422715,36.625053,-102.258252
06691,-4.608894,7.567423,-0.339034,0.875894,-0.992799,-1.045142,0.148107,0.047466,-0.206804,-0.046011,0.075724,-0.003323,0.999999,0.000741,0.000237,-0.001034,0.275895,0.582169,-0.350425,-0.679826,84.517531,36.740085,-102.242137
06692,-4.781996,8.918050,-0.048143,0.574888,-1.642178,0.155970,-0.286362,0.134951,-0.164976,-0.047747,0.089219,-0.000577,0.999998,-0.001432,0.000675,-0.000825,0.276428,0.582478,-0.348821,-0.680170,84.401095,36.835540,-102.161741
06693,-5.320650,9.824956,-0.216323,0.845702,-1.815836,1.181537,-0.837687,0.221549,-0.158038,-0.053132,0.098282,-0.002516,0.999990,-0.004188,0.001108,-0.000790,0.278733,0.582309,-0.345239,-0.681200,84.007342,36.932904,-102.018659
06694,-6.061658,9.567098,-1.274544,2.088859,-1.257370,1.320717,-0.969092,0.256670,-0.186639,-0.060544,0.095664,-0.013131,0.999987,-0.004845,0.001283,-0.000933,0.281384,0.582105,-0.341069,-0.682384,83.550541,37.048910,-101.854330
06695,-6.453304,8.520088,-0.740596,1.688553,-0.260684,0.763998,-0.464033,0.219348,-0.199124,-0.064456,0.085248,-0.007533,0.999996,-0.002320,0.001097,-0.000996,0.282448,0.582504,-0.338633,-0.682818,83.367641,37.170999,-101.717357
06696,-6.287223,7.535620,0.986220,-0.035666,0.424818,0.041528,0.226516,0.132950,-0.188253,-0.062795,0.075404,0.009989,0.999999,0.001133,0.000665,-0.000941,0.281395,0.583554,-0.338708,-0.682318,83.542827,37.280568,-101.641816
06697,-5.822523,7.625389,2.393820,-1.541134,0.186225,-0.046999,0.568970,0.147927,-0.204624,-0.058129,0.076245,0.024198,0.999995,0.002845,0.000740,-0.001023,0.279306,0.585169,-0.339879,-0.681210,83.921636,37.400799,-101.555288
06698,-5.823981,8.888561,1.838211,-1.057436,-0.675882,0.898483,0.193297,0.211287,-0.239189,-0.058114,0.088937,0.018529,0.999998,0.000966,0.001056,-0.001196,0.278309,0.586523,-0.339579,-0.680604,84.110832,37.543489,-101.425778
06699,-5.180957,9.251813,0.054322,0.591785,-1.665473,0.642798,-0.392149,0.153873,-0.240895,-0.051698,0.092581,0.000402,0.999997,-0.001961,0.000769,-0.001204,0.278919,0.586874,-0.337360,-0.681154,83.940900,37.684390,-101.336610
06700,-4.834326,9.633803,0.163988,0.452838,-2.182545,0.734304,-0.520380,0.268703,-0.204265,-0.048243,0.096391,0.001454,0.999995,-0.002602,0.001344,-0.001021,0.280228,0.587363,-0.334650,-0.681532,83.748630,37.810936,-101.163103
06701,-5.627614,9.108908,-0.242738,1.029916,-1.319009,0.765606,-0.918052,0.334218,-0.170626,-0.056203,0.091125,-0.002752,0.999988,-0.004590,0.001671,-0.000853,0.282918,0.587460,-0.330585,-0.682321,83.360325,37.924006,-100.939311
06702,-5.958980,7.333519,-1.807583,2.687497,-0.158169,-0.576378,-0.929473,0.276667,-0.136382,-0.059565,0.073291,-0.018334,0.999988,-0.004647,0.001383,-0.000682,0.285663,0.587266,-0.326657,-0.683235,82.940558,38.014029,-100.755583
06703,-5.768988,5.807527,-2.448144,3.315996,0.574947,-1.959307,-0.483957,0.223968,-0.090441,-0.057691,0.058042,-0.024557,0.999996,-0.002420,0.001120,-0.000452,0.287160,0.587452,-0.324454,-0.683497,82.756179,38.075818,-100.605361
06704,-5.352975,5.209504,-1.996506,2.803150,0.677779,-2.638968,0.022988,0.246666,-0.033520,-0.053546,0.052106,-0.019893,0.999999,0.000115,0.001233,-0.000168,0.287403,0.588342,-0.324119,-0.682788,82.874904,38.106135,-100.434128
06705,-5.587671,5.259649,-0.905014,1.724264,0.947219,-2.340441,0.630804,0.360287,0.027920,-0.055900,0.052617,-0.008784,0.999993,0.003154,0.001801,0.000140,0.286245,0.590396,-0.325872,-0.680664,83.396865,38.109334,-100.174532
06706,-5.995728,6.384971,0.235712,0.583289,0.694305,-1.097810,1.159625,0.386570,0.062908,-0.059972,0.063815,0.002843,0.999981,0.005798,0.001933,0.000315,0.283685,0.593219,-0.329485,-0.677535,84.234634,38.091094,-99.893644
06707,-6.189580,7.662560,0.813359,-0.077924,0.134418,0.069717,1.316538,0.307771,0.052311,-0.061903,0.076553,0.008733,0.999977,0.006583,0.001539,0.000262,0.280478,0.595996,-0.333693,-0.674366,85.126889,38.072081,-99.670544
06708,-6.245425,8.615307,1.205648,-0.598270,-0.343343,0.874001,1.263259,0.252908,0.010495,-0.062443,0.086071,0.012679,0.999979,0.006316,0.001265,0.000052,0.277188,0.598552,-0.337662,-0.671481,85.961745,38.071202,-99.490498
06709,-6.244386,9.171994,1.511783,-1.037891,-0.630280,1.319596,1.085510,0.241540,-0.043973,-0.062405,0.091650,0.015691,0.999985,0.005428,0.001208,-0.000220,0.274215,0.600899,-0.340872,-0.668979,86.688717,38.099778,-99.320775
06710,-6.046458,9.176653,1.525366,-1.177153,-0.771639,1.192565,0.785055,0.257965,-0.070187,-0.060412,0.091727,0.015692,0.999991,0.003925,0.001290,-0.000351,0.272083,0.602913,-0.342970,-0.666962,87.250017,38.141637,-99.140155
06711,-5.735341,8.557321,1.463332,-1.197855,-0.632959,0.503678,0.514222,0.312491,-0.063153,-0.057303,0.085553,0.014943,0.999995,0.002571,0.001562,-0.000316,0.270876,0.604727,-0.344105,-0.665224,87.681908,38.180324,-98.918533
06712,-5.683762,8.350118,0.695691,-0.485556,-0.641524,0.280187,0.290171,0.381665,-0.025949,-0.056813,0.083498,0.007186,0.999997,0.001451,0.001908,-0.000130,0.270592,0.606392,-0.344514,-0.663610,88.016790,38.197266,-98.645683
06713,-6.182558,8.804827,0.869228,-0.666938,-0.506097,0.948516,0.145322,0.415063,0.038207,-0.061824,0.088030,0.008885,0.999998,0.000727,0.002075,0.000191,0.271011,0.607865,-0.344587,-0.662052,88.285478,38.177718,-98.346292
06714,-6.701652,9.519041,1.634467,-1.434149,-0.439459,1.846894,-0.114492,0.352088,0.051684,-0.067012,0.095182,0.016408,0.999998,-0.000572,0.001760,0.000258,0.272160,0.608745,-0.343928,-0.661114,88.376108,38.147852,-98.093298
06715,-7.019295,9.856145,2.509800,-2.275647,-0.297732,2.330041,-0.563072,0.271251,0.016373,-0.070167,0.098626,0.024916,0.999995,-0.002815,0.001356,0.000082,0.274412,0.608811,-0.341783,-0.661235,88.173611,38.137819,-97.899345
06716,-6.815429,9.529488,2.892467,-2.595052,-0.238459,1.970161,-1.170101,0.203181,-0.050742,-0.068101,0.095479,0.028436,0.999982,-0.005850,0.001016,-0.000254,0.278173,0.607912,-0.337516,-0.662681,87.590671,38.164972,-97.757415
06717,-6.325338,9.067888,2.625108,-2.243928,-0.411208,1.319312,-1.716171,0.164483,-0.064550,-0.063203,0.090920,0.025524,0.999963,-0.008581,0.000822,-0.000323,0.283462,0.606123,-0.331429,-0.665146,86.677930,38.201226,-97.643818
06718,-5.633839,8.151170,-0.032123,0.483812,-0.669897,0.061447,-1.730443,0.223247,0.029157,-0.056351,0.081497,-0.000964,0.999962,-0.008652,0.001116,0.000146,0.289187,0.604300,-0.325474,-0.667277,85.784551,38.186640,-97.484618
06719,-6.022939,7.898159,-0.521526,1.113577,-0.247366,0.067949,-1.160306,0.315383,0.149454,-0.060297,0.078905,-0.005578,0.999982,-0.005801,0.001577,0.000747,0.293719,0.603387,-0.321630,-0.667987,85.264599,38.109894,-97.250643
06720,-6.411041,7.950784,0.904134,-0.204541,0.145984,0.437703,-0.706017,0.137900,0.234719,-0.064198,0.079464,0.008805,0.999993,-0.003530,0.000689,0.001174,0.296879,0.602388,-0.319816,-0.668363,84.927702,37.976252,-97.140463
06721,-6.143423,7.603616,2.489378,-1.767098,0.275516,0.114796,-0.589717,0.085636,0.229171,-0.061511,0.076039,0.024696,0.999995,-0.002949,0.000428,0.001146,0.299576,0.601397,-0.318445,-0.668707,84.635353,37.844441,-97.066889
06722,-5.791213,7.571177,1.234858,-0.501232,-0.053918,-0.214184,-0.918559,0.137727,0.196001,-0.057978,0.075711,0.012041,0.999989,-0.004593,0.000689,0.000980,0.303235,0.600121,-0.315793,-0.669461,84.175437,37.733950,-96.957984
06723,-5.614004,6.578390,0.178679,0.552969,0.368516,-1.188157,-0.660397,0.238370,0.202250,-0.056205,0.065733,0.001637,0.999993,-0.003302,0.001192,0.001011,0.306288,0.599562,-0.313864,-0.669479,83.909515,37.627322,-96.774545
06724,-5.624354,6.604397,0.689725,0.064451,0.404409,-1.120196,-0.284588,0.268156,0.227561,-0.056309,0.065990,0.006879,0.999997,-0.001423,0.001341,0.001138,0.308349,0.599624,-0.313222,-0.668778,83.871687,37.507608,-96.568566
06725,-5.931839,6.251470,0.941074,-0.176833,0.898601,-1.192110,0.169925,0.128918,0.309527,-0.059409,0.062415,0.009502,0.999998,0.000850,0.000645,0.001548,0.309096,0.599799,-0.314557,-0.667649,84.037818,37.333475,-96.455933
06726,-6.024213,6.497500,1.466043,-0.713959,0.882478,-0.903754,0.712450,0.030136,0.374700,-0.060361,0.064809,0.014901,0.999992,0.003562,0.000151,0.001873,0.308281,0.600365,-0.318050,-0.665859,84.472439,37.115240,-96.411654
06727,-6.195395,7.739010,1.646740,-0.898894,0.321676,0.191056,0.904488,-0.037075,0.404280,-0.062113,0.077189,0.016805,0.999988,0.004522,-0.000185,0.002021,0.306869,0.600953,-0.322366,-0.663903,84.989018,36.877118,-96.414951
06728,-6.188894,9.393803,2.006021,-1.290976,-0.602655,1.524840,0.801393,-0.044129,0.420788,-0.062091,0.093726,0.020422,0.999990,0.004007,-0.000221,0.002104,0.305808,0.601310,-0.326395,-0.662098,85.441321,36.628493,-96.425698
06729,-6.069096,10.332818,2.672195,-2.004416,-1.158801,2.244710,0.347190,0.014795,0.400940,-0.060896,0.103160,0.026906,0.999996,0.001736,0.000074,0.002005,0.306134,0.601201,-0.328764,-0.660873,85.657932,36.394646,-96.396528
06730,-5.930386,10.541656,2.298342,-1.644345,-1.372895,2.311234,-0.274878,0.056668,0.342469,-0.059478,0.105346,0.022855,0.999998,-0.001374,0.000283,0.001712,0.308210,0.600361,-0.328837,-0.660636,85.532085,36.195181,-96.342183
06731,-5.863762,9.171518,1.289042,-0.620433,-0.647290,1.112414,-0.635795,0.107380,0.308104,-0.058772,0.091665,0.012630,0.999994,-0.003179,0.000537,0.001541,0.311330,0.599192,-0.327532,-0.660882,85.221185,36.018700,-96.252152
06732,-5.977145,8.218946,1.627314,-0.908777,0.047816,0.438997,-0.746294,0.077051,0.248652,-0.059867,0.082175,0.015990,0.999992,-0.003731,0.000385,0.001243,0.314538,0.597830,-0.325728,-0.661488,84.831223,35.874168,-96.187056
06733,-5.530084,6.517525,-0.129821,0.815779,0.611548,-1.325226,-0.954415,0.060055,0.229731,-0.055376,0.065105,-0.001592,0.999988,-0.004772,0.000300,0.001149,0.318264,0.596114,-0.323198,-0.662495,84.316429,35.740863,-96.132847
06734,-5.937553,4.542351,-0.242150,0.923347,2.114097,-2.697623,-0.143368,0.047094,0.201460,-0.059422,0.045362,-0.002440,0.999999,-0.000717,0.000235,0.001007,0.319460,0.595672,-0.323288,-0.662272,84.258659,35.622261,-96.090045
06735,-5.940802,4.752577,0.954130,-0.264463,2.064998,-2.433237,0.388605,-0.055467,0.139588,-0.059444,0.047466,0.009617,0.999998,0.001943,-0.000277,0.000698,0.318694,0.595850,-0.325117,-0.661586,84.462696,35.534014,-96.122608
06736,-5.278098,5.019045,-0.368199,0.983436,1.317958,-2.707727,0.608927,-0.065591,0.120671,-0.052810,0.050170,-0.003547,0.999995,0.003045,-0.000328,0.000603,0.317196,0.596362,-0.327632,-0.660603,84.786398,35.455403,-96.164965
06737,-5.025735,5.540161,0.781088,-0.207697,0.886431,-2.347278,0.957975,0.005840,0.160940,-0.050302,0.055323,0.008077,0.999988,0.004790,0.000029,0.000805,0.314897,0.597597,-0.331301,-0.658754,85.341636,35.358322,-96.154558
06738,-5.868396,5.601234,1.427053,-0.834207,1.596983,-1.775168,1.163401,-0.005488,0.167218,-0.058731,0.055879,0.014594,0.999983,0.005817,-0.000027,0.000836,0.311981,0.599082,-0.335674,-0.656576,86.007956,35.256454,-96.153998
06739,-5.828036,7.709507,2.934860,-2.398963,0.473565,-0.012899,1.157165,-0.030205,0.072555,-0.058313,0.076902,0.029785,0.999983,0.005786,-0.000151,0.000363,0.308716,0.600623,-0.339770,-0.654602,86.658919,35.208425,-96.175445
06740,-5.541229,9.792752,1.465710,-1.031132,-1.052325,1.438125,0.373699,0.046019,0.004715,-0.055411,0.097899,0.014853,0.999998,0.001868,0.000230,0.000024,0.307711,0.601299,-0.340973,-0.653828,86.888351,35.201238,-96.147669
06741,-5.751071,9.215970,0.330185,0.101494,-0.633833,1.036547,-0.036932,0.124518,-0.062678,-0.057480,0.092178,0.003321,1.000000,-0.000185,0.000623,-0.000313,0.307848,0.601722,-0.340510,-0.653615,86.914347,35.235546,-96.066468
06742,-5.966945,6.697409,0.881623,-0.411665,1.029744,-0.868018,-0.161661,0.142882,-0.150175,-0.059613,0.067026,0.008805,0.999999,-0.000808,0.000714,-0.000751,0.308111,0.602153,-0.339347,-0.653700,86.872837,35.319861,-95.976741
06743,-6.127988,4.415425,0.103625,0.388739,2.413744,-2.665544,-0.027108,0.098555,-0.185466,-0.061238,0.044211,0.001060,0.999999,-0.000136,0.000493,-0.000927,0.307772,0.602714,-0.338586,-0.653736,86.891459,35.423630,-95.918309
06744,-6.024731,3.552449,-0.983718,1.456480,2.740846,-3.468293,0.404906,0.073972,-0.215036,-0.060213,0.035609,-0.009743,0.999997,0.002025,0.000370,-0.001075,0.305998,0.603899,-0.339184,-0.653166,87.145604,35.542978,-95.878908
06745,-5.791405,4.486553,0.240346,0.170652,2.087082,-2.788302,1.213718,0.013570,-0.200936,-0.057869,0.044908,0.002680,0.999981,0.006069,0.000068,-0.001005,0.301712,0.606097,-0.342552,-0.651364,87.841139,35.652958,-95.879257
06746,-4.938421,6.066093,0.404586,-0.165165,0.485304,-1.996942,1.318813,-0.062739,-0.147536,-0.049341,0.060669,0.004430,0.999978,0.006594,-0.000314,-0.000738,0.297144,0.608080,-0.346523,-0.649512,88.565561,35.730690,-95.931541
06747,-4.543518,6.895700,0.721419,-0.625783,-0.286112,-1.551903,1.289497,-0.009390,-0.085940,-0.045406,0.068928,0.007657,0.999979,0.006447,-0.000047,-0.000430,0.292940,0.610068,-0.350494,-0.647423,89.297915,35.774522,-95.943183
06748,-5.012011,8.583718,1.444558,-1.484718,-0.809136,0.088178,1.242632,0.020878,-0.036652,-0.050103,0.085754,0.014984,0.999981,0.006213,0.000104,-0.000183,0.289084,0.611966,-0.354403,-0.645233,90.014783,35.790054,-95.933590
06749,-5.102358,8.707423,0.633572,-0.770685,-0.876715,0.231792,0.894442,0.046037,-0.000031,-0.051022,0.087045,0.006737,0.999990,0.004472,0.000230,-0.000000,0.286444,0.613368,-0.357257,-0.643504,90.544244,35.784719,-95.905109
06750,-6.083172,8.749009,1.328418,-1.466761,-0.018681,0.825094,0.991503,0.084510,0.004253,-0.060828,0.087421,0.013743,0.999988,0.004957,0.000423,0.000021,0.283587,0.615002,-0.360371,-0.641470,91.143402,35.776018,-95.850650
06751,-7.032762,8.339234,0.435017,-0.546803,0.896583,1.054168,0.819110,-0.003456,-0.033908,-0.070314,0.083386,0.004690,0.999992,0.004096,-0.000017,-0.000170,0.280968,0.616175,-0.362933,-0.640051,91.609524,35.790328,-95.856673
06752,-7.665691,8.653147,0.579668,-0.742459,1.246544,1.670780,1.049168,-0.048133,-0.132042,-0.076601,0.086550,0.006232,0.999986,0.005246,-0.000241,-0.000660,0.277245,0.617683,-0.365982,-0.638483,92.188605,35.861388,-95.892928
06753,-7.537940,10.046926,0.647695,-1.048301,0.340374,2.715888,1.025123,-0.129582,-0.231688,-0.075267,0.100522,0.006943,0.999986,0.005126,-0.000648,-0.001158,0.273115,0.619071,-0.368752,-0.637323,92.724146,35.992100,-95.981789
06754,-6.946449,10.889044,0.680455,-1.304155,-0.635846,3.039623,0.754759,-0.216439,-0.292692,-0.069313,0.108965,0.007141,0.999991,0.003774,-0.001082,-0.001463,0.269467,0.619903,-0.370579,-0.637008,93.068387,36.160504,-96.130074
06755,-5.899904,10.823388,1.004445,-1.745081,-1.422236,2.348535,0.155547,-0.272530,-0.327014,-0.058836,0.108322,0.010048,0.999997,0.000778,-0.001363,-0.001635,0.267454,0.619815,-0.370464,-0.638008,93.048231,36.350875,-96.315411
06756,-5.254177,10.447440,0.207095,-0.953639,-1.869779,1.693508,-0.266569,-0.243703,-0.300755,-0.052387,0.104556,0.001868,0.999997,-0.001333,-0.001219,-0.001504,0.266892,0.619192,-0.369042,-0.639670,92.794719,36.524637,-96.483485
06757,-5.341803,10.286324,0.777352,-1.448320,-1.660380,1.593136,-0.398809,-0.234962,-0.223103,-0.053312,0.102938,0.007506,0.999997,-0.001994,-0.001175,-0.001116,0.266996,0.618284,-0.367426,-0.641433,92.468482,36.653427,-96.648004
06758,-5.176781,8.126522,-0.187412,-0.210128,-0.684304,-0.202186,-0.664597,-0.235679,-0.103734,-0.051723,0.081285,-0.002205,0.999994,-0.003323,-0.001178,-0.000519,0.268307,0.616782,-0.365322,-0.643530,91.984527,36.712417,-96.819054
06759,-5.540326,6.421025,-0.589646,0.444825,0.542455,-1.340362,-0.104116,-0.253063,-0.021945,-0.055389,0.064213,-0.006000,0.999999,-0.000521,-0.001265,-0.000110,0.268112,0.615833,-0.365296,-0.644534,91.814872,36.724661,-97.003587
06760,-5.754504,6.436906,-0.527647,0.410242,0.709638,-1.201381,0.337596,-0.269845,0.002816,-0.057539,0.064377,-0.005245,0.999998,0.001688,-0.001349,0.000014,0.266612,0.615365,-0.366790,-0.644755,91.888649,36.722361,-97.202070
06761,-5.932955,7.708176,-0.566797,0.309430,0.098450,-0.074533,0.660723,-0.260183,-0.000974,-0.059322,0.077100,-0.005490,0.999994,0.003304,-0.001301,-0.000005,0.264115,0.615370,-0.369299,-0.644346,92.153860,36.723055,-97.392195
06762,-6.147829,9.283868,-0.405168,-0.051943,-0.626742,1.311809,0.757312,-0.260549,0.019839,-0.061482,0.092847,-0.003780,0.999992,0.003787,-0.001303,0.000099,0.261389,0.615444,-0.372177,-0.643730,92.471860,36.712093,-97.584486
06763,-6.151815,10.012627,0.199041,-0.795152,-0.938885,1.875896,0.869043,-0.315304,0.099887,-0.061572,0.100086,0.002328,0.999989,0.004345,-0.001577,0.000499,0.258464,0.615338,-0.375727,-0.642950,92.831105,36.658197,-97.817171
06764,-5.727649,9.240401,-0.306643,-0.293369,-0.882601,1.023353,0.652915,-0.318443,0.190639,-0.057360,0.092359,-0.002856,0.999993,0.003265,-0.001592,0.000953,0.256492,0.614750,-0.378857,-0.642465,93.061318,36.552828,-98.056873
06765,-5.864876,8.836691,-0.704105,0.128564,-0.577562,0.800008,0.702483,-0.264682,0.264119,-0.058756,0.088314,-0.006809,0.999992,0.003512,-0.001323,0.001321,0.254695,0.614261,-0.382299,-0.641609,93.343319,36.405157,-98.260093
06766,-6.154623,9.197595,-0.326728,-0.296350,-0.454879,1.245657,0.579389,-0.264659,0.264106,-0.061663,0.091904,-0.003083,0.999994,0.002897,-0.001323,0.001321,0.253279,0.613595,-0.385340,-0.640987,93.552931,36.257524,-98.465027
06767,-6.065663,9.465133,0.185881,-0.869202,-0.553752,1.383443,0.314379,-0.272526,0.228423,-0.060767,0.094579,0.001925,0.999997,0.001572,-0.001363,0.001142,0.252538,0.612643,-0.387429,-0.640931,93.610755,36.131631,-98.672690
06768,-5.799111,9.757343,0.967730,-1.701255,-0.763096,1.425428,-0.070101,-0.328154,0.187893,-0.058098,0.097522,0.009548,0.999998,-0.000351,-0.001641,0.000939,0.252743,0.611091,-0.388230,-0.641846,93.424681,36.029964,-98.918818
06769,-5.315507,9.316860,0.749642,-1.426326,-0.926994,0.804571,-0.640038,-0.360326,0.191375,-0.053257,0.093141,0.007102,0.999993,-0.003200,-0.001802,0.000957,0.254628,0.608715,-0.387250,-0.643948,92.901689,35.926820,-99.185389
06770,-5.231192,7.913545,-0.532045,0.111840,-0.431916,-0.322020,-0.979228,-0.353241,0.190887,-0.052377,0.079058,-0.005800,0.999986,-0.004896,-0.001766,0.000954,0.257560,0.605905,-0.385159,-0.646680,92.186522,35.820631,-99.446610
06771,-5.553000,6.810353,-0.504252,0.360433,0.462384,-1.030499,-0.742143,-0.364513,0.162935,-0.055576,0.068039,-0.005396,0.999991,-0.003711,-0.001823,0.000815,0.259648,0.603416,-0.383756,-0.649002,91.606536,35.729110,-99.711914
06772,-5.891076,7.592769,-0.156756,0.046878,0.347838,-0.207706,-0.805840,-0.432988,0.074421,-0.058935,0.075898,-0.002001,0.999989,-0.004029,-0.002165,0.000372,0.261512,0.600768,-0.381960,-0.651763,90.961624,35.686046,-100.024065
06773,-6.040937,8.086373,-0.243164,0.202997,0.153063,0.280647,-1.315201,-0.419224,-0.032935,-0.060390,0.080855,-0.003090,0.999976,-0.006576,-0.002096,-0.000165,0.264566,0.597696,-0.378150,-0.655566,90.033595,35.701790,-100.323663
06774,-6.446831,7.761328,-0.900314,1.074781,0.515498,0.246533,-1.412916,-0.438043,-0.164224,-0.064384,0.077599,-0.009692,0.999972,-0.007065,-0.002190,-0.000821,0.267440,0.594638,-0.373633,-0.659758,89.038763,35.787766,-100.639144
06775,-6.516429,7.632789,-1.191548,1.515099,0.551818,0.164360,-1.384345,-0.457464,-0.323200,-0.065013,0.076347,-0.012593,0.999972,-0.006922,-0.002287,-0.001616,0.269645,0.591830,-0.368744,-0.664121,88.050771,35.960908,-100.972153
06776,-6.008683,6.991277,-1.454277,1.860631,0.428669,-0.677569,-1.154062,-0.436951,-0.393844,-0.059917,0.069945,-0.015077,0.999979,-0.005770,-0.002185,-0.001969,0.270967,0.589490,-0.364363,-0.668070,87.196695,36.169839,-101.298199
06777,-5.491440,6.833068,-0.638820,1.073140,0.201132,-1.091329,-0.840617,-0.422970,-0.406741,-0.054761,0.068414,-0.006792,0.999987,-0.004203,-0.002115,-0.002034,0.271330,0.587637,-0.360961,-0.671394,86.526247,36.383857,-101.617854
06778,-5.168654,5.921927,-0.745746,1.248085,0.424909,-2.027982,-0.770271,-0.400567,-0.402603,-0.051552,0.059294,-0.007789,0.999989,-0.003851,-0.002003,-0.002013,0.271541,0.585922,-0.357768,-0.674510,85.900606,36.592689,-101.926451
06779,-4.418362,6.226874,0.113410,0.324129,-0.246594,-2.187573,-0.890804,-0.349986,-0.415563,-0.044056,0.062364,0.000779,0.999986,-0.004454,-0.001750,-0.002078,0.272139,0.584232,-0.354053,-0.677687,85.225673,36.809086,-102.202316
06780,-4.178490,6.589200,-0.128694,0.592733,-0.737196,-2.066855,-1.663088,-0.145542,-0.427794,-0.041643,0.065967,-0.001866,0.999963,-0.008315,-0.000728,-0.002139,0.275305,0.582167,-0.347389,-0.681623,84.189906,37.039210,-102.339066
06781,-4.899187,6.565652,-0.375373,1.068086,-0.246599,-1.685700,-1.789047,0.046673,-0.426268,-0.048853,0.065724,-0.004330,0.999958,-0.008945,0.000233,-0.002131,0.279149,0.580545,-0.340008,-0.685156,83.162930,37.279333,-102.342798
06782,-5.453631,7.048616,-0.757152,1.642297,-0.209157,-1.023131,-1.694429,0.065655,-0.378811,-0.054405,0.070522,-0.008151,0.999962,-0.008472,0.000328,-0.001894,0.282896,0.578983,-0.333036,-0.688358,82.196177,37.493036,-102.334986
06783,-6.099873,6.188009,-2.158370,3.213002,0.609160,-1.478201,-0.995960,0.011137,-0.333614,-0.060897,0.061873,-0.021888,0.999986,-0.004980,0.000056,-0.001668,0.284666,0.578126,-0.328658,-0.690449,81.608092,37.677530,-102.364119
06784,-5.889662,6.691291,-0.896000,1.978354,0.266032,-1.078871,-0.272356,-0.076602,-0.303720,-0.058791,0.066990,-0.009074,0.999998,-0.001362,-0.000383,-0.001519,0.284304,0.577929,-0.326985,-0.691556,81.395508,37.836797,-102.455618
06785,-5.501585,7.360036,0.045801,1.019664,-0.362699,-0.687543,-0.486182,0.030220,-0.274280,-0.054915,0.073677,0.000287,0.999996,-0.002431,0.000151,-0.001371,0.284830,0.577755,-0.324503,-0.692654,81.110109,37.989080,-102.467279
06786,-6.122095,8.042994,-0.364327,1.565818,-0.391291,0.172178,-0.349343,0.159463,-0.282497,-0.061110,0.080510,-0.003735,0.999997,-0.001747,0.000797,-0.001412,0.285144,0.578224,-0.322286,-0.693167,80.958049,38.156850,-102.388615
06787,-6.231032,9.092502,-0.271878,1.524657,-0.986059,1.062804,-0.152845,0.159608,-0.270207,-0.062190,0.091007,-0.002739,0.999998,-0.000764,0.000798,-0.001351,0.284927,0.578961,-0.320784,-0.693339,80.920875,38.318451,-102.307713
06788,-6.514130,9.178740,0.279505,1.025340,-0.788589,1.371587,-0.048004,0.194710,-0.269061,-0.065015,0.091876,0.002836,0.999999,-0.000240,0.000974,-0.001345,0.284471,0.579957,-0.319598,-0.693241,80.958761,38.481882,-102.201958
06789,-6.531630,8.897636,1.853585,-0.554606,-0.447267,1.356828,0.251870,0.165780,-0.306342,-0.065164,0.089053,0.018702,0.999998,0.001259,0.000829,-0.001532,0.282964,0.581345,-0.319383,-0.692795,81.154560,38.664354,-102.119907
06790,-5.957383,8.690234,2.927015,-1.759511,-0.656658,0.959990,0.530049,0.145273,-0.341131,-0.059404,0.086926,0.029544,0.999995,0.002650,0.000726,-0.001706,0.280498,0.583099,-0.320058,-0.692011,81.497949,38.863729,-102.056082
06791,-5.494958,9.587486,1.920066,-0.862847,-1.726954,1.236027,-0.067490,0.228649,-0.320354,-0.054774,0.095969,0.019231,0.999998,-0.000337,0.001143,-0.001602,0.279973,0.584273,-0.318606,-0.691904,81.540526,39.058930,-101.927395
06792,-4.747542,8.724167,-0.889603,1.794902,-2.091402,-0.229067,-0.673198,0.194036,-0.241941,-0.047379,0.087269,-0.009144,0.999993,-0.003366,0.000970,-0.001210,0.281436,0.584342,-0.315335,-0.692750,81.224496,39.206146,-101.816481
06793,-4.531246,9.039707,-0.794015,1.714607,-2.465483,-0.124533,-0.603726,0.348537,-0.144685,-0.045261,0.090405,-0.008134,0.999994,-0.003019,0.001743,-0.000723,0.283267,0.584891,-0.312365,-0.692886,81.027761,39.313179,-101.581275
06794,-5.387107,8.465172,-1.162739,2.238721,-1.488861,-0.075991,-0.837424,0.420378,-0.039436,-0.053879,0.084613,-0.011868,0.999989,-0.004187,0.002102,-0.000197,0.286260,0.585175,-0.308790,-0.693018,80.737335,39.367000,-101.282261
06795,-5.647282,6.648290,-2.684734,3.750755,-0.248571,-1.495878,-0.562678,0.354373,0.061155,-0.056541,0.066390,-0.026934,0.999994,-0.002813,0.001772,0.000306,0.288685,0.585467,-0.306547,-0.692761,80.582359,39.359680,-101.018816
06796,-5.473784,5.386218,-2.976391,3.960649,0.429990,-2.604301,0.164669,0.273869,0.192868,-0.054830,0.053834,-0.029645,0.999998,0.000823,0.001369,0.000964,0.289317,0.586317,-0.307327,-0.691432,80.815860,39.269313,-100.799212
06797,-5.157249,5.191511,-1.968234,2.868298,0.421856,-2.811443,1.008142,0.296621,0.319328,-0.051684,0.051931,-0.019344,0.999985,0.005041,0.001483,0.001597,0.287938,0.588268,-0.311352,-0.688543,81.551628,39.108885,-100.549457
06798,-5.352220,6.166686,-0.806489,1.687684,0.081100,-1.783454,1.582806,0.395861,0.409252,-0.053664,0.061618,-0.007471,0.999965,0.007914,0.001979,0.002046,0.285323,0.591214,-0.317465,-0.684304,82.664494,38.901244,-100.222500
06799,-6.006463,8.034703,0.360154,0.510443,-0.439560,0.202665,1.845727,0.424939,0.441631,-0.060233,0.080176,0.004470,0.999953,0.009228,0.002125,0.002208,0.282060,0.594539,-0.324502,-0.679459,83.938296,38.672755,-99.877775
06800,-6.427328,9.727423,1.673039,-0.911563,-0.972911,1.889950,1.647072,0.387862,0.373235,-0.064421,0.097011,0.017655,0.999962,0.008235,0.001939,0.001866,0.279075,0.597514,-0.330690,-0.675084,85.072672,38.474756,-99.572409
06801,-6.508955,10.505258,2.207987,-1.596267,-1.270787,2.574309,0.998963,0.349347,0.246841,-0.065180,0.104860,0.022718,0.999985,0.004995,0.001747,0.001234,0.277517,0.599636,-0.334344,-0.672038,85.810236,38.344201,-99.307034
06802,-6.448489,9.627519,2.317993,-1.785790,-0.719512,1.846558,0.482790,0.425474,0.127658,-0.064496,0.096177,0.023549,0.999995,0.002414,0.002127,0.000638,0.277233,0.601481,-0.335799,-0.669777,86.280700,38.281633,-98.994683
06803,-6.322235,8.722151,1.668129,-1.188412,-0.315165,1.018626,0.246842,0.467439,0.041221,-0.063201,0.087188,0.016937,0.999996,0.001234,0.002337,0.000206,0.277432,0.603284,-0.336138,-0.667901,86.632230,38.269182,-98.656038
06804,-5.572344,8.031652,0.411834,-0.038745,-0.605396,-0.047441,-0.129935,0.470397,0.054765,-0.055736,0.080304,0.004197,0.999997,-0.000650,0.002352,0.000274,0.278822,0.604541,-0.335258,-0.666627,86.768887,38.246930,-98.315281
06805,-5.325544,7.310281,-0.071956,0.423685,-0.392449,-0.786434,-0.162620,0.511458,0.141077,-0.053309,0.073065,-0.000643,0.999996,-0.000813,0.002557,0.000705,0.280659,0.605747,-0.334465,-0.665157,86.907575,38.176972,-97.940977
06806,-5.796710,7.786954,0.109765,0.259276,-0.281609,-0.111970,-0.058269,0.579166,0.214372,-0.058047,0.077808,0.001243,0.999995,-0.000291,0.002896,0.001072,0.282541,0.607190,-0.334149,-0.663200,87.136729,38.065102,-97.515875
06807,-6.534760,8.678260,0.799507,-0.405028,-0.160625,1.071454,-0.067057,0.552084,0.255421,-0.065436,0.086702,0.008147,0.999995,-0.000335,0.002760,0.001277,0.284532,0.608464,-0.333958,-0.661276,87.348622,37.928751,-97.109805
06808,-6.858074,8.863887,1.942786,-1.536451,0.111506,1.456871,-0.187200,0.461797,0.241761,-0.068643,0.088574,0.019503,0.999996,-0.000936,0.002309,0.001209,0.286695,0.609279,-0.333460,-0.659841,87.449209,37.795946,-96.771331
06809,-6.641815,9.202973,2.718905,-2.328446,-0.187351,1.621648,-0.637520,0.390345,0.153429,-0.066436,0.092065,0.027025,0.999993,-0.003188,0.001952,0.000767,0.289811,0.609359,-0.331300,-0.659493,87.258095,37.713073,-96.487425
06810,-6.272927,7.668918,2.915242,-2.474680,0.465842,0.203254,-1.107583,0.307553,0.082187,-0.062716,0.076824,0.028824,0.999983,-0.005538,0.001538,0.000411,0.293987,0.608582,-0.327490,-0.660265,86.758673,37.668778,-96.266296
06811,-5.854990,6.646181,0.974055,-0.505487,0.600416,-0.936589,-1.204399,0.397302,-0.005912,-0.058529,0.066521,0.009456,0.999980,-0.006022,0.001986,-0.000030,0.298296,0.608088,-0.322943,-0.661026,86.241962,37.680626,-95.983184
06812,-5.828760,6.195549,-1.425141,1.928812,0.703016,-1.435598,-1.053672,0.524164,0.014080,-0.058330,0.061876,-0.014425,0.999983,-0.005268,0.002621,0.000070,0.302413,0.608176,-0.318758,-0.661106,85.867328,37.686769,-95.608246
06813,-6.434299,6.380341,0.609417,-0.041208,1.187271,-0.808855,-0.174905,0.447701,0.106616,-0.064363,0.063774,0.006182,0.999997,-0.000875,0.002239,0.000533,0.304030,0.609187,-0.317865,-0.659863,85.966074,37.638644,-95.283161
06814,-6.531991,7.333468,2.360907,-1.783460,0.777308,0.098698,-0.006696,0.253059,0.175223,-0.065354,0.073278,0.023689,0.999999,-0.000033,0.001265,0.000876,0.305055,0.609693,-0.318034,-0.658840,86.076257,37.542167,-95.096107
06815,-5.996314,7.070346,2.930130,-2.408283,0.560330,-0.409636,0.155519,0.100212,0.220105,-0.060026,0.070615,0.029386,0.999999,0.000778,0.000501,0.001101,0.305484,0.609878,-0.319102,-0.657953,86.213900,37.414755,-95.016876
06816,-5.945526,8.199593,2.778171,-2.261435,-0.151898,0.442244,0.131389,0.101948,0.224025,-0.059533,0.081911,0.027866,0.999999,0.000657,0.000510,0.001120,0.306008,0.610016,-0.320103,-0.657095,86.337125,37.284139,-94.937480
06817,-6.058328,8.256391,1.840009,-1.318556,-0.121288,0.507372,-0.229982,0.121467,0.191733,-0.060651,0.082527,0.018342,0.999999,-0.001150,0.000607,0.000959,0.307553,0.609723,-0.319784,-0.656801,86.261635,37.173565,-94.844998
06818,-6.097356,7.876218,1.783729,-1.254141,0.153173,0.227128,-0.217012,0.152319,0.189111,-0.061034,0.078724,0.017798,0.999999,-0.001085,0.000762,0.000946,0.309104,0.609545,-0.319455,-0.656398,86.205539,37.064837,-94.731363
06819,-6.620964,6.987470,0.945936,-0.401113,1.089670,-0.210168,0.115840,0.110294,0.209610,-0.066278,0.069800,0.009536,0.999999,0.000579,0.000551,0.001048,0.309634,0.609719,-0.320342,-0.655554,86.323476,36.943670,-94.646234
06820,-6.924125,7.825170,3.429557,-2.874397,0.957786,0.758921,0.564009,-0.027624,0.152952,-0.069306,0.078102,0.034506,0.999996,0.002820,-0.000138,0.000765,0.308396,0.610213,-0.322739,-0.654502,86.635681,36.848949,-94.663818
06821,-6.469872,9.706211,2.567762,-2.035550,-0.556358,1.943593,-0.158755,-0.076627,0.067976,-0.064742,0.097060,0.025576,1.000000,-0.000794,-0.000383,0.000340,0.308998,0.609575,-0.322583,-0.654889,86.511782,36.802022,-94.719321
06822,-5.647800,9.867787,1.624055,-1.103157,-1.354488,1.538809,-0.645080,-0.010667,-0.029601,-0.056464,0.098738,0.015919,0.999995,-0.003225,-0.000053,-0.000148,0.310874,0.608545,-0.320436,-0.656011,86.133460,36.812271,-94.732974
06823,-4.989556,9.157147,0.597417,-0.053765,-1.507040,0.523223,-1.154123,0.148487,-0.041225,-0.049872,0.091614,0.005483,0.999983,-0.005771,0.000742,-0.000206,0.314502,0.607262,-0.316327,-0.657464,85.532631,36.836547,-94.632689
06824,-5.120981,5.753662,-2.203842,2.715724,0.555222,-2.295877,-0.771387,0.186348,0.068128,-0.051250,0.057434,-0.022212,0.999992,-0.003857,0.000932,0.000341,0.317387,0.606507,-0.313743,-0.658012,85.169377,36.799855,-94.500408
06825,-5.857496,3.722376,0.287208,0.207827,2.451252,-3.316770,0.465852,0.111508,0.197271,-0.058610,0.037159,0.002991,0.999997,0.002329,0.000558,0.000986,0.316817,0.607269,-0.315735,-0.656630,85.488929,36.686917,-94.412966
06826,-5.806856,3.267543,0.609571,-0.158134,2.713134,-3.698626,1.006595,-0.050514,0.320367,-0.058122,0.032551,0.006245,0.999986,0.005033,-0.000253,0.001602,0.314754,0.608142,-0.320128,-0.654684,86.051104,36.495441,-94.436583
06827,-5.131352,4.735820,0.011837,0.378693,1.301286,-2.962751,1.617561,-0.055870,0.390053,-0.051406,0.047255,0.000486,0.999965,0.008088,-0.000279,0.001950,0.311031,0.609827,-0.326725,-0.651630,86.962566,36.264996,-94.462989
06828,-5.134485,7.658750,0.950073,-0.643703,-0.341550,-0.572066,1.847959,0.031743,0.435711,-0.051510,0.076383,0.010215,0.999955,0.009240,0.000159,0.002179,0.306878,0.612024,-0.334049,-0.647815,88.039331,36.010350,-94.431683
06829,-5.464727,8.563648,1.782474,-1.611943,-0.494027,0.362361,1.794278,0.106471,0.451673,-0.054830,0.085348,0.018620,0.999957,0.008971,0.000532,0.002258,0.303033,0.614308,-0.341104,-0.643773,89.114211,35.747839,-94.352334
06830,-5.752142,9.077562,1.981778,-1.949719,-0.477483,0.929078,1.385424,0.129234,0.399151,-0.057689,0.090520,0.020483,0.999974,0.006927,0.000646,0.001996,0.300300,0.616085,-0.346624,-0.640400,89.958954,35.513795,-94.263893
06831,-6.577299,8.052457,1.331458,-1.323083,0.796178,0.555059,1.153414,0.198829,0.320305,-0.065888,0.080340,0.013844,0.999982,0.005767,0.000994,0.001602,0.298129,0.617854,-0.351037,-0.637298,90.698075,35.324402,-94.129421
06832,-7.367052,7.811471,0.568076,-0.596805,1.557628,0.809561,1.028349,0.121038,0.193151,-0.073742,0.078013,0.006127,0.999986,0.005142,0.000605,0.000966,0.295800,0.619382,-0.354764,-0.634831,91.331268,35.206663,-94.052055
06833,-7.229718,7.458721,1.250280,-1.345753,1.732456,0.417243,1.119960,0.002196,0.065590,-0.072321,0.074492,0.012921,0.999984,0.005600,0.000011,0.000328,0.292556,0.620886,-0.358552,-0.632734,91.971012,35.163917,-94.056000
06834,-6.363826,7.074472,1.308096,-1.493163,1.267047,-0.409373,0.902199,-0.097730,-0.060695,-0.063623,0.070704,0.013369,0.999990,0.004511,-0.000489,-0.000303,0.289409,0.621956,-0.361395,-0.631512,92.445623,35.195160,-94.128136
06835,-5.675555,7.101351,1.223762,-1.504007,0.686317,-0.790191,0.762360,-0.112042,-0.143419,-0.056712,0.071007,0.012477,0.999992,0.003812,-0.000560,-0.000717,0.286397,0.622926,-0.363554,-0.630689,92.837667,35.275119,-94.206280
06836,-5.550938,7.379626,1.187245,-1.539508,0.417551,-0.640075,0.502302,-0.126963,-0.184076,-0.055449,0.073817,0.012023,0.999996,0.002512,-0.000635,-0.000920,0.284043,0.623534,-0.364782,-0.630443,93.073814,35.378646,-94.294143
06837,-6.271070,7.648374,0.825674,-1.188920,0.798776,0.008415,0.383223,-0.132676,-0.223790,-0.062631,0.076538,0.008362,0.999997,0.001916,-0.000663,-0.001119,0.281917,0.624032,-0.365519,-0.630478,93.242201,35.505807,-94.382975
06838,-6.679069,7.183775,0.946955,-1.253224,1.390335,-0.137479,0.310240,-0.217418,-0.290008,-0.066697,0.071920,0.009509,0.999997,0.001551,-0.001087,-0.001450,0.279660,0.624269,-0.365934,-0.631008,93.333580,35.673345,-94.529803
06839,-6.492103,7.120686,0.613313,-0.932254,1.209917,-0.278820,0.211693,-0.297613,-0.370669,-0.064798,0.071321,0.006112,0.999997,0.001058,-0.001488,-0.001853,0.277301,0.624268,-0.365898,-0.632070,93.338857,35.890244,-94.728780
06840,-6.475201,7.641167,0.118438,-0.496672,0.799790,0.159432,0.194460,-0.319386,-0.441254,-0.064585,0.076553,0.001156,0.999996,0.000972,-0.001597,-0.002206,0.274737,0.624289,-0.365612,-0.633333,93.323788,36.147865,-94.942188
06841,-6.064383,7.823380,1.158481,-1.578069,0.448823,0.017483,0.285132,-0.365605,-0.425795,-0.060498,0.078346,0.011586,0.999995,0.001426,-0.001828,-0.002129,0.271846,0.624264,-0.365725,-0.634539,93.341824,36.398550,-95.188388
06842,-5.318863,7.608126,1.270101,-1.710241,-0.042773,-0.600730,-0.032869,-0.419526,-0.367650,-0.053075,0.076181,0.012577,0.999996,-0.000164,-0.002098,-0.001838,0.270037,0.623514,-0.365077,-0.636419,93.149697,36.617087,-95.477917
06843,-5.381218,7.912334,-0.292833,-0.164660,-0.404928,-0.249371,-0.185159,-0.381532,-0.318359,-0.053680,0.079206,-0.003104,0.999996,-0.000926,-0.001908,-0.001592,0.268920,0.622595,-0.364047,-0.638379,92.885689,36.805687,-95.742641
06844,-5.722560,9.269872,-0.592351,0.055365,-1.009017,1.050439,-0.477441,-0.315388,-0.278608,-0.057087,0.092764,-0.006235,0.999995,-0.002387,-0.001577,-0.001393,0.268965,0.621405,-0.362113,-0.640615,92.477703,36.968140,-95.964806
06845,-6.396448,9.832672,0.208683,-0.678959,-0.740982,1.876154,-0.474670,-0.386205,-0.257481,-0.063841,0.098413,0.001730,0.999994,-0.002373,-0.001931,-0.001287,0.268932,0.619958,-0.360348,-0.643021,92.040966,37.119166,-96.238861
06846,-6.530318,9.482504,0.116537,-0.459805,-0.479350,1.682287,-0.716977,-0.465344,-0.284022,-0.065170,0.094921,0.000673,0.999990,-0.003585,-0.002327,-0.001420,0.269424,0.617958,-0.357820,-0.646145,91.427056,37.284292,-96.573024
06847,-6.169502,8.078611,-1.085146,0.915417,-0.122226,0.368212,-0.695519,-0.384228,-0.329473,-0.061541,0.080849,-0.011251,0.999991,-0.003478,-0.001921,-0.001647,0.269837,0.616330,-0.355107,-0.649018,90.861048,37.472249,-96.849484
06848,-6.559169,7.395673,-1.246938,1.225094,0.534850,0.060833,-0.183988,-0.303638,-0.352999,-0.065442,0.074061,-0.012637,0.999997,-0.000920,-0.001518,-0.001765,0.268743,0.615676,-0.353866,-0.650768,90.619326,37.671039,-97.071330
06849,-7.051989,7.799199,-0.468746,0.489528,0.738498,0.675048,0.136162,-0.452406,-0.352856,-0.070371,0.078119,-0.004794,0.999996,0.000681,-0.002262,-0.001764,0.266392,0.614974,-0.353867,-0.652396,90.495793,37.870515,-97.400920
06850,-6.476508,8.294165,-1.087785,1.016419,-0.137355,0.716769,0.208848,-0.560779,-0.333489,-0.064596,0.083061,-0.010972,0.999994,0.001044,-0.002804,-0.001667,0.263692,0.613965,-0.354303,-0.654204,90.361451,38.058318,-97.812240
06851,-5.505592,8.560488,-1.026316,0.820426,-1.084686,0.326200,0.556587,-0.431714,-0.267816,-0.054919,0.085707,-0.010143,0.999993,0.002783,-0.002159,-0.001339,0.260359,0.613723,-0.355905,-0.654896,90.484810,38.208371,-98.129441
06852,-5.594818,9.775343,0.206723,-0.542009,-1.596824,1.325456,0.648976,-0.362197,-0.173009,-0.055868,0.097795,0.002283,0.999993,0.003245,-0.001811,-0.000865,0.257179,0.613640,-0.358004,-0.655086,90.689475,38.303903,-98.397991
06853,-5.494448,9.726738,-0.049221,-0.318786,-1.695424,1.224736,0.202843,-0.363526,-0.117821,-0.054886,0.097300,-0.000493,0.999998,0.001014,-0.001818,-0.000589,0.255537,0.612886,-0.358811,-0.655993,90.639328,38.368618,-98.666736
06854,-5.477823,9.121099,-0.149099,-0.149882,-1.364619,0.739021,-0.011576,-0.341262,-0.074939,-0.054741,0.091231,-0.001590,0.999998,-0.000058,-0.001706,-0.000375,0.254739,0.611840,-0.359015,-0.657167,90.473764,38.407588,-98.921258
06855,-5.619699,9.262847,0.557298,-0.813073,-1.238450,0.934262,-0.271882,-0.359862,-0.035479,-0.056190,0.092646,0.005346,0.999997,-0.001359,-0.001799,-0.000177,0.254826,0.610339,-0.358508,-0.658804,90.152292,38.423819,-99.188449
06856,-5.434459,9.067861,0.005661,-0.201607,-1.361767,0.668899,-0.835516,-0.368566,0.024465,-0.054355,0.090671,-0.000422,0.999990,-0.004178,-0.001843,0.000122,0.256818,0.607964,-0.356333,-0.661401,89.501837,38.403143,-99.463456
06857,-5.638222,8.120182,-0.351592,0.354542,-0.687013,0.048970,-0.780534,-0.313707,0.073114,-0.056406,0.081166,-0.003921,0.999991,-0.003903,-0.001569,0.000366,0.258890,0.605754,-0.354410,-0.663650,88.910559,38.353480,-99.696028
06858,-6.074383,8.632958,0.112241,-0.004333,-0.597173,0.726829,-0.792886,-0.326354,0.070851,-0.060776,0.086311,0.000681,0.999991,-0.003964,-0.001632,0.000354,0.260972,0.603468,-0.352450,-0.665957,88.305091,38.302168,-99.938437
06859,-6.376824,8.212821,-0.400443,0.675630,-0.191752,0.569046,-1.082568,-0.348130,0.046638,-0.063780,0.082090,-0.004560,0.999984,-0.005413,-0.001741,0.000233,0.263795,0.600770,-0.349471,-0.668848,87.526183,38.262854,-100.195030
06860,-6.264771,8.069770,-1.231012,1.601230,-0.326777,0.346651,-1.106295,-0.352268,-0.030984,-0.062613,0.080637,-0.012867,0.999983,-0.005531,-0.001761,-0.000155,0.266420,0.598131,-0.346175,-0.671880,86.728632,38.264183,-100.458073
06861,-6.277306,6.878363,-2.104590,2.632074,0.277973,-0.639904,-1.044726,-0.281140,-0.115138,-0.062703,0.068708,-0.021493,0.999985,-0.005224,-0.001406,-0.000576,0.268687,0.595951,-0.342727,-0.674676,85.997865,38.314365,-100.671926
06862,-6.128354,5.843661,-1.543522,2.167415,0.866975,-1.527879,-0.457000,-0.262187,-0.225086,-0.061197,0.058470,-0.015649,0.999996,-0.002285,-0.001311,-0.001125,0.268865,0.594791,-0.340903,-0.676550,85.606239,38.425645,-100.879933
06863,-5.464254,6.335186,-0.663315,1.219193,0.148444,-1.510642,-0.492170,-0.239445,-0.291748,-0.054542,0.063415,-0.006854,0.999995,-0.002461,-0.001197,-0.001459,0.268952,0.593780,-0.338727,-0.678494,85.202898,38.575790,-101.075388
06864,-4.858694,6.398033,-0.413181,0.924837,-0.348079,-1.829224,-0.733042,-0.154495,-0.266017,-0.048498,0.064029,-0.004404,0.999992,-0.003665,-0.000772,-0.001330,0.269988,0.592672,-0.335693,-0.680556,84.698202,38.713504,-101.210110
06865,-4.727382,6.634817,-0.381958,0.915250,-0.617067,-1.732084,-0.713198,-0.019682,-0.210380,-0.047204,0.066384,-0.004061,0.999993,-0.003566,-0.000098,-0.001052,0.271370,0.591957,-0.332704,-0.682094,84.269381,38.826871,-101.242871
06866,-5.417310,6.730622,-0.220985,0.905971,-0.148035,-1.218827,-0.788785,0.051525,-0.144792,-0.054125,0.067336,-0.002461,0.999992,-0.003944,0.000258,-0.000724,0.273321,0.591256,-0.329551,-0.683454,83.830855,38.906065,-101.220723
06867,-6.061354,6.554944,-0.605745,1.431084,0.389618,-0.988048,-0.677702,0.036973,-0.155450,-0.060564,0.065576,-0.006268,0.999994,-0.003389,0.000185,-0.000777,0.274873,0.590675,-0.326760,-0.684673,83.449789,38.991360,-101.209745
06868,-6.154761,7.316932,-0.611525,1.485362,-0.041571,-0.347788,-0.651104,0.044983,-0.188523,-0.061480,0.073207,-0.006340,0.999994,-0.003256,0.000225,-0.000943,0.276248,0.590196,-0.323948,-0.685867,83.084075,39.095266,-101.197433
06869,-6.065728,8.086589,-0.580635,1.476814,-0.617419,0.185352,-0.529842,0.113350,-0.214290,-0.060574,0.080915,-0.005986,0.999996,-0.002649,0.000567,-0.001071,0.277280,0.590164,-0.321378,-0.686687,82.818941,39.219485,-101.137071
06870,-6.455327,8.344020,-0.150709,1.145944,-0.461963,0.665378,-0.612128,0.169013,-0.240358,-0.064454,0.083513,-0.001708,0.999994,-0.003061,0.000845,-0.001202,0.278557,0.590237,-0.318369,-0.687508,82.529469,39.362015,-101.039849
06871,-6.080834,7.432048,-1.082084,2.044334,-0.287297,-0.372308,-0.718123,0.154859,-0.262813,-0.060719,0.074361,-0.011041,0.999992,-0.003591,0.000774,-0.001314,0.280038,0.590150,-0.314944,-0.688558,82.172114,39.517439,-100.955204
06872,-5.963075,6.933280,-1.093592,2.055366,-0.075845,-0.835256,-0.307358,0.229643,-0.232588,-0.059563,0.069385,-0.010974,0.999997,-0.001537,0.001148,-0.001163,0.280531,0.590834,-0.312916,-0.688695,82.085924,39.661036,-100.813782
06873,-6.469856,7.318423,0.538133,0.502824,0.205944,-0.044754,0.392827,0.181534,-0.182302,-0.064627,0.073232,0.005584,0.999997,0.001964,0.000908,-0.000912,0.279047,0.592261,-0.313511,-0.687801,82.383125,39.772951,-100.701418
06874,-6.572639,8.007360,2.028266,-1.002409,-0.018188,0.695677,0.742397,0.089155,-0.148598,-0.065658,0.080046,0.020609,0.999993,0.003712,0.000446,-0.000743,0.276501,0.593792,-0.315537,-0.686582,82.838878,39.857577,-100.653742
06875,-6.289269,8.557733,3.463050,-2.536767,-0.431059,1.057489,0.962070,0.059422,-0.162324,-0.062813,0.085460,0.035060,0.999988,0.004810,0.000297,-0.000812,0.273198,0.595542,-0.318309,-0.685107,83.407211,39.948396,-100.627585
06876,-5.754828,10.402598,3.070183,-2.287759,-2.073875,2.071051,0.144403,0.122790,-0.166342,-0.057443,0.104052,0.030812,0.999999,0.000722,0.000614,-0.000832,0.272420,0.596384,-0.318179,-0.684745,83.536532,40.044703,-100.554753
06877,-5.154095,10.007699,0.187864,0.511774,-2.608418,1.127500,-0.884357,0.133801,-0.130633,-0.051474,0.100118,0.001470,0.999990,-0.004422,0.000669,-0.000653,0.274840,0.595806,-0.314614,-0.685928,83.084698,40.122387,-100.470055
06878,-4.844948,9.481657,-0.459727,1.187051,-2.582286,0.459065,-0.933668,0.226795,-0.064572,-0.048424,0.094810,-0.004985,0.999988,-0.004668,0.001134,-0.000323,0.277780,0.595354,-0.310944,-0.686809,82.651650,40.168647,-100.311627
06879,-5.648244,8.705714,-0.569656,1.473585,-1.488648,0.367126,-1.089386,0.315447,-0.009485,-0.056488,0.087027,-0.006082,0.999984,-0.005447,0.001577,-0.000047,0.281498,0.594896,-0.306769,-0.687569,82.176355,40.192269,-100.081386
06880,-6.238225,6.963850,-1.626542,2.624542,0.007761,-0.693050,-0.920103,0.234872,0.055323,-0.062421,0.069546,-0.016512,0.999989,-0.004600,0.001174,0.000277,0.284809,0.594276,-0.303478,-0.688202,81.762686,40.172932,-99.905270
06881,-6.002781,5.804592,-1.860302,2.820187,0.586881,-1.757287,-0.349292,0.148265,0.165106,-0.060090,0.057964,-0.018660,0.999998,-0.001746,0.000741,0.000826,0.286661,0.594004,-0.302592,-0.688057,81.643176,40.085926,-99.780692
06882,-5.569300,5.427000,-1.570165,2.457633,0.549872,-2.289893,0.288327,0.192423,0.269837,-0.055781,0.054217,-0.015570,0.999998,0.001442,0.000962,0.001349,0.287050,0.594630,-0.304150,-0.686666,81.916122,39.941985,-99.613127
06883,-5.607279,5.981685,-0.891941,1.763743,0.296615,-1.761695,0.895538,0.268583,0.348728,-0.056189,0.059758,-0.008576,0.999988,0.004478,0.001343,0.001744,0.286011,0.596267,-0.307910,-0.683999,82.577226,39.759134,-99.382677
06884,-5.936389,7.146891,0.372782,0.491547,-0.066159,-0.527724,1.361724,0.268666,0.386004,-0.059496,0.071326,0.004294,0.999974,0.006809,0.001343,0.001930,0.283703,0.598485,-0.313368,-0.680535,83.503995,39.551685,-99.153230
06885,-6.014839,8.486733,1.442425,-0.667034,-0.719223,0.642909,1.480676,0.210774,0.360498,-0.060285,0.084649,0.015115,0.999970,0.007403,0.001054,0.001802,0.280842,0.600688,-0.319214,-0.677056,84.467126,39.353373,-98.973140
06886,-6.196386,9.435049,1.913874,-1.246799,-1.078542,1.516867,1.266170,0.213285,0.328479,-0.062098,0.094125,0.019801,0.999978,0.006331,0.001066,0.001642,0.278511,0.602612,-0.324222,-0.673922,85.303417,39.170304,-98.798225
06887,-6.422253,9.515175,2.058513,-1.481469,-0.883797,1.721797,1.015432,0.208928,0.266017,-0.064327,0.094960,0.021135,0.999986,0.005077,0.001045,0.001330,0.276702,0.604257,-0.328187,-0.671270,85.989624,39.021942,-98.633183
06888,-6.208584,9.435594,1.909930,-1.438191,-0.967375,1.510748,0.523236,0.190687,0.249270,-0.062185,0.094228,0.019405,0.999995,0.002616,0.000953,0.001246,0.276296,0.605169,-0.330473,-0.669491,86.382679,38.880219,-98.484937
06889,-5.990264,8.706442,1.503437,-1.078013,-0.685685,0.785111,0.147195,0.231594,0.273714,-0.060004,0.086971,0.015168,0.999998,0.000736,0.001158,0.001369,0.277168,0.605661,-0.331511,-0.668171,86.579233,38.726402,-98.306383
06890,-5.776463,8.518643,0.689243,-0.298458,-0.788876,0.468285,-0.173972,0.298201,0.318773,-0.057890,0.085100,0.006905,0.999997,-0.000870,0.001491,0.001594,0.279280,0.605846,-0.331524,-0.667117,86.621842,38.547591,-98.078513
06891,-5.982673,8.429015,0.745033,-0.321983,-0.536189,0.531609,-0.335968,0.334044,0.336928,-0.059956,0.084202,0.007409,0.999996,-0.001680,0.001670,0.001685,0.281993,0.605897,-0.330994,-0.666192,86.588146,38.360793,-97.823688
06892,-6.384836,8.377563,1.623757,-1.133486,-0.076547,0.784272,-0.520879,0.366622,0.336402,-0.063960,0.083710,0.016137,0.999994,-0.002604,0.001833,0.001682,0.285323,0.605782,-0.329802,-0.665470,86.461578,38.174501,-97.546145
06893,-6.609974,8.060551,1.724418,-1.172609,0.324965,0.682888,-0.746312,0.341520,0.298427,-0.066191,0.080571,0.017056,0.999990,-0.003732,0.001708,0.001492,0.289156,0.605322,-0.327770,-0.665237,86.193680,38.010961,-97.287804
06894,-6.356554,8.136817,1.797003,-1.218109,0.097297,0.596403,-1.023589,0.298500,0.252052,-0.063642,0.081379,0.017648,0.999985,-0.005118,0.001492,0.001260,0.293604,0.604372,-0.324734,-0.665641,85.745369,37.872293,-97.062908
06895,-6.261357,7.725747,2.956263,-2.301274,0.361955,0.296893,-1.382677,0.245443,0.225691,-0.062665,0.077389,0.029105,0.999975,-0.006913,0.001227,0.001128,0.298944,0.602745,-0.320484,-0.666799,85.068101,37.749175,-96.875942
06896,-6.226547,6.572788,1.575576,-0.854118,0.942255,-0.711266,-1.504331,0.195616,0.170120,-0.062306,0.065791,0.015322,0.999971,-0.007522,0.000978,0.000851,0.304376,0.600817,-0.315722,-0.668351,84.296637,37.655853,-96.727692
06897,-5.854920,6.183602,-1.268679,2.009347,0.737444,-1.473333,-1.300894,0.223245,0.144641,-0.058608,0.061710,-0.013023,0.999978,-0.006504,0.001116,0.000723,0.309133,0.599309,-0.311500,-0.669502,83.654267,37.581308,-96.559507
06898,-5.930106,5.704729,-0.405157,1.177803,1.152604,-1.740607,-0.452396,0.232421,0.225875,-0.059370,0.056971,-0.004112,0.999996,-0.002262,0.001162,0.001129,0.311633,0.598993,-0.310345,-0.669162,83.505182,37.460813,-96.378448
06899,-5.996658,6.789568,1.609729,-0.769596,0.646007,-0.667212,0.007823,0.136136,0.254368,-0.060042,0.067819,0.016141,0.999999,0.000039,0.000681,0.001272,0.312692,0.599033,-0.310959,-0.668347,83.579737,37.319194,-96.263591
06900,-5.946471,6.825790,2.307424,-1.466064,0.635074,-0.608154,-0.135797,0.031617,0.260465,-0.059550,0.068196,0.023037,0.999999,-0.000679,0.000158,0.001302,0.314045,0.598481,-0.311277,-0.668059,83.525784,37.166340,-96.223823
06901,-5.654376,6.202069,2.502093,-1.709787,0.812012,-1.261937,-0.035676,0.046241,0.242997,-0.056613,0.061956,0.025023,0.999999,-0.000178,0.000231,0.001215,0.315055,0.598169,-0.311851,-0.667596,83.535444,37.025410,-96.174460
06902,-5.687798,6.086892,1.371971,-0.588701,0.881934,-1.436578,-0.052747,0.117460,0.204108,-0.056932,0.060814,0.013737,0.999999,-0.000264,0.000587,0.001021,0.316103,0.598118,-0.312141,-0.667009,83.562686,36.910269,-96.078366
06903,-6.404931,6.255790,1.893686,-1.059504,1.389600,-0.829904,0.483148,0.128549,0.197415,-0.064099,0.062449,0.019129,0.999996,0.002416,0.000643,0.000987,0.315536,0.598968,-0.314176,-0.665558,83.901980,36.800311,-95.974757
06904,-6.819430,7.788479,1.671115,-0.775983,0.810579,0.613159,0.500970,0.045494,0.181173,-0.068261,0.077781,0.016922,0.999996,0.002505,0.000227,0.000906,0.314735,0.599582,-0.316353,-0.664352,84.213491,36.693353,-95.933202
06905,-6.818454,8.557685,1.944076,-1.064717,0.388109,1.242635,0.701508,-0.099780,0.181624,-0.068272,0.085446,0.019707,0.999993,0.003508,-0.000499,0.000908,0.313095,0.600031,-0.319421,-0.663253,84.578974,36.578670,-95.994836
06906,-5.691055,9.933370,3.421807,-2.618561,-1.232981,1.780048,0.221467,-0.149504,0.207225,-0.057039,0.099237,0.034285,0.999999,0.001107,-0.000748,0.001036,0.312905,0.599509,-0.321051,-0.663028,84.647976,36.446072,-96.091375
06907,-5.302765,7.685899,1.429546,-0.740735,-0.269938,-0.399168,0.034364,-0.018930,0.265729,-0.053131,0.076786,0.014304,0.999999,0.000172,-0.000095,0.001329,0.313671,0.599040,-0.322029,-0.662615,84.668453,36.287950,-96.090597
06908,-6.666179,9.347756,4.148656,-3.305643,0.004752,1.939002,0.522462,-0.010049,0.207344,-0.066761,0.093300,0.041727,0.999996,0.002612,-0.000050,0.001037,0.312802,0.599447,-0.324435,-0.661483,84.968307,36.162716,-96.088846
06909,-6.590197,11.268399,2.437097,-1.539080,-1.264779,3.316588,-0.691101,-0.123540,0.150691,-0.066002,0.112718,0.023941,0.999994,-0.003455,-0.000618,0.000753,0.315189,0.597677,-0.322830,-0.662736,84.524994,36.064741,-96.169725
06910,-6.095649,10.051523,1.311731,-0.410160,-0.988998,1.967110,-0.793681,-0.170545,0.146781,-0.061041,0.100521,0.012666,0.999991,-0.003968,-0.000853,0.000734,0.317796,0.595575,-0.320945,-0.664297,84.002353,35.964794,-96.284047
06911,-5.675284,9.222702,1.354762,-0.421332,-0.827116,1.061124,-1.075114,-0.205115,0.144602,-0.056833,0.092257,0.012993,0.999985,-0.005376,-0.001026,0.000723,0.321163,0.592912,-0.318163,-0.666395,83.306801,35.863893,-96.420232
06912,-5.588984,5.818019,-0.702992,1.528087,1.038231,-1.928080,-0.795924,-0.138990,0.183055,-0.055938,0.058100,-0.007300,0.999991,-0.003980,-0.000695,0.000915,0.323936,0.590830,-0.316315,-0.667781,82.799625,35.743497,-96.506512
06913,-6.169499,4.683713,0.768535,0.083338,2.248671,-2.361041,0.027368,-0.153430,0.165397,-0.061740,0.046785,0.007644,0.999999,0.000137,-0.000767,0.000827,0.324184,0.590067,-0.317181,-0.667923,82.759704,35.632824,-96.602384
06914,-5.943004,4.036097,1.120893,-0.323810,2.477575,-2.984619,0.470915,-0.237406,0.179621,-0.059480,0.040281,0.011233,0.999996,0.002355,-0.001187,0.000898,0.323043,0.589707,-0.319707,-0.667590,82.938982,35.507273,-96.756915
06915,-5.536845,4.882826,0.562916,0.220234,1.644900,-2.597342,0.910020,-0.236325,0.164244,-0.055415,0.048757,0.005786,0.999989,0.004550,-0.001182,0.000821,0.320547,0.590086,-0.323645,-0.666560,83.371129,35.392110,-96.911373
06916,-5.494495,6.560209,0.642762,0.165070,0.654444,-1.257980,1.172353,-0.190874,0.159578,-0.055004,0.065519,0.006759,0.999982,0.005862,-0.000954,0.000798,0.317331,0.591017,-0.328361,-0.664966,83.969756,35.282861,-97.036569
06917,-5.714811,7.827831,1.715797,-0.913697,0.188504,-0.014379,1.225986,-0.113828,0.132479,-0.057210,0.078133,0.017605,0.999981,0.006130,-0.000569,0.000662,0.313975,0.592322,-0.333041,-0.663067,84.630085,35.195315,-97.110118
06918,-5.664562,8.561342,1.837539,-1.099393,-0.241386,0.555199,0.825002,-0.106848,0.071699,-0.056686,0.085516,0.018698,0.999991,0.004125,-0.000534,0.000358,0.311615,0.593096,-0.336191,-0.661898,85.059284,35.142646,-97.184442
06919,-5.437999,7.589571,2.103795,-1.451438,0.177295,-0.354299,0.568164,-0.079540,0.024946,-0.054398,0.075829,0.021232,0.999996,0.002841,-0.000398,0.000125,0.309896,0.593640,-0.338306,-0.661139,85.352061,35.119098,-97.241935
06920,-5.533833,7.011983,1.929734,-1.301155,0.585724,-0.786117,0.338302,-0.085945,-0.025056,-0.055338,0.070094,0.019392,0.999998,0.001692,-0.000430,-0.000125,0.308689,0.593877,-0.339520,-0.660869,85.507107,35.123294,-97.308028
06921,-6.060279,6.399724,0.808185,-0.149608,1.276560,-1.055713,0.289065,-0.090731,-0.073644,-0.060583,0.064008,0.008147,0.999999,0.001445,-0.000454,-0.000368,0.307452,0.594115,-0.340434,-0.660762,85.632286,35.155869,-97.378863
06922,-6.146442,6.442371,0.609083,0.046798,1.298905,-0.982936,0.289097,-0.164802,-0.147126,-0.061422,0.064460,0.006133,0.999998,0.001445,-0.000824,-0.000736,0.305851,0.594220,-0.341242,-0.660993,85.723503,35.226649,-97.506556
06923,-6.007765,6.601719,0.312681,0.313987,1.055998,-0.949282,0.405878,-0.194320,-0.206429,-0.060013,0.066073,0.003203,0.999997,0.002029,-0.000972,-0.001032,0.303649,0.594515,-0.342304,-0.661194,85.869668,35.330979,-97.656693
06924,-5.808922,7.174705,0.531966,0.049358,0.567755,-0.583490,0.583587,-0.255305,-0.223591,-0.058016,0.071796,0.005455,0.999994,0.002918,-0.001277,-0.001118,0.300761,0.594892,-0.343991,-0.661299,86.090468,35.442506,-97.851437
06925,-5.671891,7.443261,0.727514,-0.196661,0.307464,-0.433539,0.710717,-0.271741,-0.209709,-0.056651,0.074466,0.007463,0.999992,0.003554,-0.001359,-0.001049,0.297503,0.595385,-0.346160,-0.661197,86.379517,35.546733,-98.055509
06926,-5.895736,7.047851,0.532605,-0.004656,0.688095,-0.634344,0.671637,-0.292733,-0.193031,-0.058897,0.070517,0.005477,0.999993,0.003358,-0.001464,-0.000965,0.294380,0.595703,-0.348275,-0.661198,86.636142,35.640957,-98.274433
06927,-5.880928,6.679726,0.457264,0.048274,0.872190,-0.944203,0.692350,-0.327795,-0.206738,-0.058748,0.066842,0.004708,0.999992,0.003462,-0.001639,-0.001034,0.291080,0.595959,-0.350466,-0.661270,86.891531,35.743200,-98.517178
06928,-5.820917,7.180077,0.801771,-0.352575,0.560546,-0.558460,0.841859,-0.319552,-0.246269,-0.058134,0.071838,0.008227,0.999989,0.004209,-0.001598,-0.001231,0.287219,0.596509,-0.353012,-0.661109,87.233096,35.868792,-98.756446
06929,-5.529697,7.866754,1.195425,-0.851612,-0.037486,-0.160456,0.756255,-0.285324,-0.278644,-0.055205,0.078699,0.012173,0.999991,0.003781,-0.001427,-0.001393,0.283554,0.597104,-0.355125,-0.661022,87.540869,36.015439,-98.970864
06930,-5.623149,8.389758,0.543405,-0.251578,-0.374189,0.291753,0.371152,-0.276005,-0.315294,-0.056107,0.083976,0.005512,0.999996,0.001856,-0.001380,-0.001576,0.280937,0.597232,-0.355836,-0.661642,87.629033,36.183380,-99.180768
06931,-5.602352,8.530324,-0.286587,0.549093,-0.614836,0.363525,0.156117,-0.257853,-0.314452,-0.055886,0.085393,-0.002871,0.999998,0.000781,-0.001289,-0.001572,0.278990,0.597122,-0.355812,-0.662577,87.602783,36.351873,-99.376903
06932,-5.734841,9.398537,0.589115,-0.359465,-0.932247,1.167729,0.295127,-0.207919,-0.318107,-0.057205,0.094068,0.005970,0.999997,0.001476,-0.001040,-0.001591,0.276708,0.597364,-0.356165,-0.663125,87.674671,36.523127,-99.539203
06933,-5.896755,10.131632,1.191537,-0.975270,-1.187651,1.869761,-0.161236,-0.201538,-0.320995,-0.058817,0.101420,0.011774,0.999998,-0.000806,-0.001008,-0.001605,0.275785,0.597009,-0.354987,-0.664461,87.488890,36.696633,-99.696366
06934,-6.092276,9.139370,0.177151,0.146406,-0.626992,1.153644,-0.446288,-0.175792,-0.329012,-0.060774,0.091497,0.001514,0.999996,-0.002231,-0.000879,-0.001645,0.275735,0.596346,-0.352799,-0.666239,87.147543,36.874219,-99.838135
06935,-6.343655,8.454927,-0.590609,1.011021,-0.168252,0.724197,-0.223715,-0.135840,-0.352305,-0.063283,0.084654,-0.006044,0.999998,-0.001119,-0.000679,-0.001762,0.275006,0.596171,-0.351227,-0.667527,86.951119,37.066399,-99.952154
06936,-6.545981,7.564551,-0.428278,0.933925,0.512672,0.143244,0.145491,-0.180329,-0.346303,-0.065325,0.075762,-0.004287,0.999998,0.000727,-0.000902,-0.001732,0.273125,0.596331,-0.350963,-0.668294,86.944548,37.252965,-100.099763
06937,-6.371443,7.051194,-0.166308,0.665114,0.692254,-0.356442,0.522210,-0.293137,-0.331393,-0.063595,0.070622,-0.001572,0.999994,0.002611,-0.001466,-0.001657,0.269963,0.596609,-0.352156,-0.668703,87.106329,37.428465,-100.326866
06938,-5.882942,7.294570,0.251685,0.132998,0.203786,-0.441260,0.960919,-0.405315,-0.266760,-0.058737,0.073011,0.002748,0.999986,0.004805,-0.002027,-0.001334,0.265512,0.596968,-0.355151,-0.668581,87.469674,37.564197,-100.633335
06939,-5.211738,8.571998,1.257891,-1.108929,-0.938628,0.192932,1.170303,-0.451715,-0.190350,-0.052065,0.085694,0.012963,0.999980,0.005851,-0.002259,-0.000952,0.260593,0.597303,-0.359124,-0.668095,87.935597,37.657428,-100.969138
06940,-4.823245,9.804580,1.622474,-1.692934,-1.916319,0.933815,0.749046,-0.308300,-0.099561,-0.048209,0.098008,0.016518,0.999992,0.003745,-0.001541,-0.000498,0.257493,0.597378,-0.361764,-0.667805,88.223106,37.702445,-101.199742
06941,-5.474496,10.010157,1.764475,-1.778287,-1.503366,1.495023,0.129024,-0.265890,-0.031426,-0.054753,0.100099,0.017637,0.999999,0.000645,-0.001329,-0.000157,0.256540,0.596678,-0.362479,-0.668410,88.176823,37.710314,-101.396820
06942,-5.750227,10.044988,0.636083,-0.587294,-1.521713,1.663828,-0.665332,-0.255252,-0.064477,-0.057478,0.100489,0.005953,0.999994,-0.003327,-0.001276,-0.000322,0.257871,0.595038,-0.360425,-0.670467,87.677595,37.735764,-101.588493
06943,-6.128472,10.060359,-0.110360,0.318036,-1.400823,1.879867,-1.405328,-0.138503,-0.139050,-0.061214,0.100635,-0.001853,0.999975,-0.007027,-0.000693,-0.000695,0.261348,0.592963,-0.355506,-0.673578,86.806017,37.806129,-101.697407
06944,-6.801350,9.129017,-0.661283,1.185173,-0.449060,1.519833,-1.720313,-0.113662,-0.260865,-0.067890,0.091317,-0.007437,0.999962,-0.008601,-0.000568,-0.001304,0.265384,0.590727,-0.349111,-0.677299,85.758496,37.944692,-101.796965
06945,-6.917871,8.824793,-0.918710,1.637293,-0.266462,1.314914,-1.869231,-0.167161,-0.371744,-0.069006,0.088285,-0.010070,0.999954,-0.009346,-0.000836,-0.001859,0.269362,0.588268,-0.341926,-0.681522,84.596948,38.143381,-101.944438
06946,-6.284758,7.741765,-1.383857,2.194042,-0.205862,0.010224,-1.972069,-0.199073,-0.458499,-0.062656,0.077420,-0.014664,0.999948,-0.009860,-0.000995,-0.002292,0.273272,0.585642,-0.334145,-0.686070,83.352340,38.386167,-102.128628
06947,-5.319272,6.413267,-1.296069,2.109517,-0.147801,-1.649902,-1.856857,-0.172341,-0.474447,-0.053029,0.064134,-0.013602,0.999954,-0.009284,-0.000862,-0.002372,0.276801,0.583246,-0.326643,-0.690297,82.181535,38.637795,-102.300834
06948,-4.729681,5.058835,-1.529057,2.336827,0.196728,-3.119429,-1.458945,-0.073266,-0.431271,-0.047182,0.050577,-0.015677,0.999971,-0.007295,-0.000366,-0.002156,0.279467,0.581617,-0.320480,-0.693478,81.280631,38.869717,-102.403887
06949,-4.971784,4.253986,-1.198888,2.088622,0.912131,-3.563051,-0.660789,0.021147,-0.331585,-0.049649,0.042582,-0.012124,0.999993,-0.003304,0.000106,-0.001658,0.280292,0.581261,-0.317229,-0.694937,80.886279,39.053600,-102.429449
06950,-5.662975,4.165648,-0.499050,1.518874,1.557466,-3.109087,0.344140,-0.049572,-0.207591,-0.056585,0.041724,-0.004933,0.999998,0.001721,-0.000248,-0.001038,0.278517,0.581857,-0.317928,-0.694832,81.042599,39.160089,-102.493661
06951,-5.701688,6.083329,0.219261,0.818029,0.431358,-1.523614,1.004777,-0.163503,-0.120122,-0.056982,0.060856,0.002452,0.999987,0.005024,-0.000818,-0.000601,0.274934,0.582838,-0.321329,-0.693872,81.532671,39.208255,-102.629697
06952,-5.695006,7.973832,0.430450,0.567865,-0.760259,-0.050534,0.774675,-0.083702,-0.071674,-0.056923,0.079741,0.004590,0.999992,0.003873,-0.000419,-0.000358,0.272318,0.583682,-0.323958,-0.692971,81.930128,39.235609,-102.702600
06953,-6.375113,9.457017,1.172934,-0.108673,-1.097931,1.599386,0.604234,0.078695,-0.094812,-0.063702,0.094564,0.012040,0.999995,0.003021,0.000393,-0.000474,0.270373,0.584895,-0.325703,-0.691892,82.305029,39.289964,-102.657768
06954,-6.836162,11.224057,1.994116,-0.883145,-1.782888,3.330006,-0.108119,0.141223,-0.150993,-0.068263,0.112303,0.019929,0.999999,-0.000541,0.000706,-0.000755,0.270422,0.585441,-0.324734,-0.691866,82.296445,39.380113,-102.573161
06955,-6.971306,10.700239,0.756479,0.394444,-1.538739,2.881512,-0.725843,0.133120,-0.211255,-0.069595,0.107103,0.007223,0.999993,-0.003629,0.000666,-0.001056,0.272051,0.585225,-0.321459,-0.692938,81.927323,39.504837,-102.500080
06956,-6.376288,10.477848,0.482572,0.651854,-1.923003,2.293143,-1.184922,0.136441,-0.282273,-0.063612,0.104895,0.004248,0.999981,-0.005925,0.000682,-0.001411,0.274781,0.584487,-0.316375,-0.694822,81.290045,39.669667,-102.434370
06957,-6.011749,8.707809,0.220684,0.941461,-1.129321,0.668376,-1.574532,0.250231,-0.313919,-0.059978,0.087186,0.001596,0.999967,-0.007873,0.001251,-0.001570,0.278700,0.583637,-0.309670,-0.696993,80.480344,39.864277,-102.290367
06958,-6.316309,6.195177,-0.015458,1.245352,0.673856,-1.079371,-1.314915,0.270315,-0.316046,-0.063066,0.062049,-0.000477,0.999976,-0.006575,0.001352,-0.001580,0.281875,0.583181,-0.303822,-0.698670,79.826276,40.062448,-102.135477
06959,-5.773194,4.783502,-0.115998,1.240693,1.158344,-2.508991,-0.620741,0.194218,-0.256979,-0.057672,0.047905,-0.001253,0.999994,-0.003104,0.000971,-0.001285,0.283102,0.583338,-0.300665,-0.699407,79.539126,40.221495,-102.029716
06960,-5.399517,4.891809,0.091030,0.983141,0.812810,-2.638734,0.101702,0.182662,-0.143345,-0.053959,0.048956,0.000984,0.999999,0.000509,0.000913,-0.000717,0.282606,0.584296,-0.300384,-0.698929,79.669568,40.314509,-101.917892
06961,-5.235469,5.901562,0.579353,0.497972,0.063980,-1.918254,0.366024,0.143805,-0.045244,-0.052337,0.059017,0.005939,0.999998,0.001830,0.000719,-0.000226,0.281615,0.585350,-0.301363,-0.698025,79.942636,40.348870,-101.820513
06962,-4.594334,8.191892,0.629558,0.409122,-1.915554,-0.605380,0.319585,0.206060,0.057251,-0.045960,0.081896,0.006474,0.999998,0.001598,0.001030,0.000286,0.281217,0.586392,-0.302395,-0.696864,80.226851,40.330307,-101.664204
06963,-6.233174,8.981751,0.724885,0.568662,-1.192410,1.064100,0.001394,0.378180,0.111449,-0.062368,0.089783,0.007367,0.999998,0.000007,0.001891,0.000557,0.282194,0.587509,-0.302232,-0.695598,80.416348,40.298073,-101.373049
06964,-7.108855,9.187928,1.043616,0.362728,-0.630876,1.828329,0.226476,0.277233,0.093448,-0.071117,0.091834,0.010639,0.999998,0.001132,0.001386,0.000467,0.282299,0.588611,-0.302943,-0.694313,80.683935,40.264677,-101.159839
06965,-6.673046,8.962691,1.957723,-0.658702,-0.710890,1.490080,0.458040,0.185834,0.100597,-0.066757,0.089548,0.019844,0.999997,0.002290,0.000929,0.000503,0.281602,0.589716,-0.304603,-0.692931,81.041402,40.218986,-101.013244
06966,-6.932814,8.307977,3.528200,-2.258713,0.079182,1.341951,0.778269,0.189556,0.070376,-0.069324,0.082917,0.035671,0.999992,0.003891,0.000948,0.000352,0.279865,0.591316,-0.307278,-0.691087,81.580727,40.188864,-100.868502
06967,-7.019988,9.134077,3.248474,-2.014846,-0.402491,1.978934,0.451026,0.153351,-0.009197,-0.070171,0.091270,0.032744,0.999997,0.002255,0.000767,-0.000046,0.278755,0.592457,-0.308631,-0.689954,81.910219,40.201038,-100.758884
06968,-6.009462,8.747314,0.359452,0.679903,-1.180216,0.718367,-0.317683,0.028728,-0.016164,-0.060087,0.087484,0.003464,0.999999,-0.001588,0.000144,-0.000081,0.279712,0.592096,-0.307488,-0.690387,81.738123,40.205862,-100.743303
06969,-5.108623,8.873038,0.045839,0.892934,-1.970446,0.194854,-0.400642,0.105302,0.005301,-0.051088,0.088730,0.000308,0.999998,-0.002003,0.000527,0.000027,0.281099,0.591857,-0.306009,-0.690686,81.557652,40.205962,-100.667780
06970,-5.674281,8.380340,0.016440,1.030830,-1.228080,0.180151,-0.793132,0.238422,0.008090,-0.056746,0.083801,-0.000100,0.999991,-0.003966,0.001192,0.000040,0.283864,0.591508,-0.302998,-0.691182,81.215398,40.215033,-100.493926
06971,-6.035898,6.395011,-1.354246,2.412423,0.233479,-1.251857,-0.717925,0.244430,0.019816,-0.060382,0.063895,-0.013698,0.999993,-0.003590,0.001222,0.000099,0.286445,0.591267,-0.300264,-0.691516,80.920833,40.219877,-100.313577
06972,-5.820286,4.942974,-2.052555,3.029013,0.980145,-2.574864,-0.168672,0.203789,0.064178,-0.058240,0.049394,-0.020508,0.999999,-0.000843,0.001019,0.000321,0.287499,0.591593,-0.299621,-0.691079,80.924197,40.195165,-100.158691
06973,-5.586137,4.135125,-1.869738,2.765947,1.357162,-3.308253,0.467552,0.214756,0.137434,-0.055910,0.041356,-0.018541,0.999996,0.002338,0.001074,0.000687,0.286933,0.592767,-0.301370,-0.689546,81.303249,40.130692,-99.986841
06974,-5.679449,4.261223,-0.987699,1.862914,1.423162,-3.038213,1.216273,0.257510,0.199875,-0.056850,0.042614,-0.009545,0.999980,0.006081,0.001288,0.000999,0.284426,0.595048,-0.305823,-0.686652,82.134719,40.031967,-99.778050
06975,-5.777790,5.749943,0.308846,0.544763,0.656252,-1.700251,1.665050,0.238470,0.232761,-0.057841,0.057403,0.003636,0.999964,0.008325,0.001192,0.001164,0.280647,0.597825,-0.311919,-0.683044,83.214759,39.911501,-99.582367
06976,-5.646949,7.313837,1.545008,-0.804615,-0.303087,-0.483905,1.751815,0.248942,0.228048,-0.056533,0.072934,0.016160,0.999960,0.008759,0.001245,0.001140,0.276592,0.600717,-0.318263,-0.679223,84.346534,39.790604,-99.382866
06977,-5.602705,8.514457,2.250895,-1.661391,-0.987365,0.444779,1.542381,0.338913,0.215388,-0.056080,0.084907,0.023259,0.999968,0.007712,0.001695,0.001077,0.273242,0.603606,-0.323706,-0.675435,85.398214,39.679533,-99.120628
06978,-5.978727,9.385900,2.315851,-1.833445,-1.202427,1.340548,1.087159,0.403786,0.208406,-0.059837,0.093668,0.023789,0.999983,0.005436,0.002019,0.001042,0.271339,0.606070,-0.327490,-0.672164,86.217045,39.571110,-98.813640
06979,-6.388592,9.293888,1.817285,-1.384307,-0.846411,1.494820,0.545201,0.379068,0.214203,-0.063950,0.092820,0.018547,0.999994,0.002726,0.001895,0.001071,0.271045,0.607696,-0.329493,-0.669831,86.712365,39.456573,-98.526627
06980,-6.243926,9.061377,0.551545,-0.190497,-0.917770,1.165499,0.205316,0.372588,0.241329,-0.062538,0.090533,0.005725,0.999997,0.001027,0.001863,0.001207,0.271869,0.608785,-0.330450,-0.668035,87.008889,39.323711,-98.244966
06981,-6.444661,9.158344,-0.286915,0.624639,-0.882778,1.337270,0.129759,0.409681,0.305344,-0.064592,0.091487,-0.002678,0.999997,0.000649,0.002048,0.001527,0.273189,0.609790,-0.331293,-0.666160,87.279716,39.155274,-97.934875
06982,-7.008980,9.584285,0.318474,0.026269,-0.609544,2.049570,0.255174,0.395592,0.340300,-0.070246,0.095719,0.003446,0.999996,0.001276,0.001978,0.001701,0.274225,0.610851,-0.332681,-0.664067,87.614177,38.964120,-97.636263
06983,-7.426803,10.331269,1.952006,-1.620715,-0.541135,2.945963,0.046727,0.304846,0.286244,-0.074386,0.103202,0.019658,0.999998,0.000234,0.001524,0.001431,0.275558,0.611417,-0.333329,-0.662668,87.784871,38.801887,-97.407510
06984,-7.477245,9.817490,3.541394,-3.167920,0.005062,2.629094,-0.515725,0.223783,0.172804,-0.074818,0.098201,0.035244,0.999996,-0.002579,0.001119,0.000864,0.278105,0.611117,-0.331882,-0.662607,87.592635,38.701616,-97.242643
06985,-6.654127,9.033807,3.007884,-2.625300,-0.210642,1.500890,-1.171636,0.170468,0.022476,-0.066526,0.090505,0.029606,0.999982,-0.005858,0.000852,0.000112,0.282056,0.609971,-0.327864,-0.663991,86.997894,38.687970,-97.120708
06986,-5.731916,7.268598,1.723372,-1.296894,0.033545,-0.486730,-1.503851,0.215184,-0.008362,-0.057298,0.072816,0.016748,0.999971,-0.007519,0.001076,-0.000042,0.286986,0.608520,-0.322576,-0.665798,86.231653,38.693449,-96.967887
06987,-5.587340,6.163778,0.346637,0.152116,0.487335,-1.501869,-1.351947,0.323819,0.022123,-0.055875,0.061654,0.003140,0.999976,-0.006760,0.001619,0.000111,0.291708,0.607575,-0.317708,-0.666949,85.604010,38.688552,-96.733309
06988,-6.121789,6.115995,-0.367511,0.965608,0.882855,-1.250866,-0.966750,0.296651,0.070373,-0.061245,0.061120,-0.003880,0.999987,-0.004834,0.001483,0.000352,0.295374,0.606993,-0.314304,-0.667478,85.185369,38.655394,-96.516561
06989,-6.302185,6.516351,0.692820,-0.036822,0.843101,-0.760166,-0.517513,0.173932,0.116844,-0.063054,0.065144,0.006814,0.999996,-0.002588,0.000870,0.000584,0.297626,0.606591,-0.312711,-0.667591,84.970870,38.591742,-96.385693
06990,-6.057482,6.930257,1.335187,-0.666530,0.438641,-0.546213,-0.407730,0.087308,0.169129,-0.060628,0.069278,0.013237,0.999997,-0.002039,0.000437,0.000846,0.299590,0.605970,-0.311775,-0.667715,84.781012,38.493136,-96.315219
06991,-5.664817,6.737917,1.076151,-0.427810,0.255645,-0.958346,-0.233216,0.064132,0.258282,-0.056732,0.067318,0.010701,0.999998,-0.001166,0.000321,0.001291,0.301278,0.605398,-0.311720,-0.667499,84.685323,38.343629,-96.254699
06992,-5.734545,6.649792,0.684398,-0.030719,0.371309,-1.013014,0.019759,0.139725,0.354835,-0.057459,0.066395,0.006891,0.999998,0.000099,0.000699,0.001774,0.302646,0.605300,-0.312691,-0.666515,84.771345,38.141996,-96.133703
06993,-6.401624,7.014104,1.397592,-0.693765,0.740146,-0.267931,0.362050,0.070446,0.408665,-0.064154,0.069985,0.014125,0.999996,0.001810,0.000352,0.002043,0.303041,0.605409,-0.315065,-0.665117,85.024663,37.906853,-96.059755
06994,-6.630268,7.771101,2.683708,-1.967916,0.565434,0.548783,0.442667,-0.047608,0.374660,-0.066454,0.077527,0.026993,0.999996,0.002213,-0.000238,0.001873,0.302897,0.605288,-0.317784,-0.663998,85.268409,37.684165,-96.075532
06995,-6.438874,8.603328,2.203762,-1.504498,-0.082610,1.052970,0.064459,-0.087204,0.265306,-0.064512,0.085941,0.022037,0.999999,0.000322,-0.000436,0.001327,0.303463,0.604641,-0.318971,-0.663760,85.274804,37.523060,-96.126112
06996,-5.743958,8.392303,1.231594,-0.583245,-0.531784,0.400910,-0.286847,-0.036807,0.187245,-0.057520,0.083887,0.012185,0.999999,-0.001434,-0.000184,0.000936,0.304919,0.603743,-0.318681,-0.664049,85.098251,37.407925,-96.145612
06997,-5.417749,7.303885,1.176083,-0.560995,-0.110517,-0.660914,-0.107505,0.065197,0.197719,-0.054246,0.072992,0.011739,0.999999,-0.000538,0.000326,0.000989,0.306023,0.603447,-0.318860,-0.663724,85.070664,37.292756,-96.090093
06998,-5.417194,6.947358,1.429870,-0.824442,0.141100,-0.926933,0.121564,0.089000,0.262649,-0.054257,0.069394,0.014365,0.999999,0.000608,0.000445,0.001313,0.306696,0.603468,-0.319960,-0.662865,85.185587,37.140655,-96.014646
06999,-6.266610,6.580704,1.246770,-0.607327,1.060940,-0.722268,0.672211,0.054890,0.384908,-0.062789,0.065644,0.012706,0.999992,0.003361,0.000274,0.001925,0.306049,0.604028,-0.323301,-0.661030,85.605937,36.917868,-95.956736
07000,-6.978458,9.289025,3.043780,-2.359028,0.152680,1.962723,0.891582,-0.118053,0.395968,-0.069986,0.092615,0.030810,0.999988,0.004458,-0.000590,0.001980,0.304496,0.604312,-0.327661,-0.659338,86.075510,36.680276,-96.024948
07001,-6.230238,10.684362,2.428531,-1.831342,-1.260923,2.593976,0.045539,-0.189927,0.351398,-0.062513,0.106728,0.024250,0.999998,0.000228,-0.000950,0.001757,0.305224,0.603146,-0.329200,-0.659303,86.029526,36.466471,-96.146459
07002,-5.783752,10.501194,0.719226,-0.134345,-1.583302,2.091889,-0.473351,-0.059221,0.263365,-0.057978,0.104952,0.006927,0.999996,-0.002367,-0.000296,0.001317,0.307448,0.601749,-0.328563,-0.659863,85.738102,36.307066,-96.179647
07003,-5.694934,8.500379,-0.759548,1.362611,-0.531737,0.342406,-0.584070,0.045514,0.236355,-0.057051,0.084914,-0.007831,0.999995,-0.002920,0.000228,0.001182,0.310077,0.600577,-0.327314,-0.660321,85.428399,36.168577,-96.138000
07004,-5.935081,6.215384,0.064406,0.551183,1.090800,-1.305829,-0.072378,0.053284,0.269725,-0.059434,0.062074,0.000637,0.999999,-0.000362,0.000266,0.001349,0.311299,0.600156,-0.327843,-0.659867,85.414989,36.010421,-96.089565
07005,-5.948428,4.167998,0.460794,0.118173,2.360458,-2.929190,0.353041,-0.049041,0.348711,-0.059558,0.041568,0.004667,0.999997,0.001765,-0.000245,0.001744,0.311327,0.599937,-0.330168,-0.658893,85.606584,35.803556,-96.108338
07006,-5.915912,3.547620,0.456213,0.091270,2.726794,-3.460690,1.026541,-0.092019,0.373422,-0.059227,0.035342,0.004717,0.999985,0.005133,-0.000460,0.001867,0.309348,0.600564,-0.334849,-0.656889,86.164909,35.579971,-96.158660
07007,-5.892963,4.990026,0.816947,-0.311557,1.924274,-2.296414,1.481020,-0.103672,0.348048,-0.059021,0.049735,0.008508,0.999971,0.007405,-0.000518,0.001740,0.305880,0.601881,-0.340947,-0.654165,86.977953,35.371933,-96.220425
07008,-5.909313,6.383203,1.120771,-0.708403,1.196121,-1.153135,1.662837,-0.086806,0.312079,-0.059198,0.063644,0.011712,0.999964,0.008314,-0.000434,0.001560,0.301762,0.603544,-0.347485,-0.651098,87.898005,35.184895,-96.276136
07009,-5.771305,7.782205,1.104426,-0.848694,0.324503,-0.103748,1.591859,-0.055218,0.273605,-0.057823,0.077652,0.011647,0.999967,0.007959,-0.000276,0.001368,0.297762,0.605238,-0.353602,-0.648067,88.789178,35.021949,-96.313040
07010,-5.899805,8.672781,1.557522,-1.437232,0.011986,0.693680,1.298700,-0.015095,0.225853,-0.059097,0.086558,0.016133,0.999978,0.006493,-0.000075,0.001129,0.294554,0.606667,-0.358548,-0.645474,89.525218,34.886436,-96.326148
