PacketCounter,Acc_X,Acc_Y,Acc_Z,FreeAcc_E,FreeAcc_N,FreeAcc_U,Gyr_X,Gyr_Y,Gyr_Z,VelInc_X,VelInc_Y,VelInc_Z,OriInc_q0,OriInc_q1,OriInc_q2,OriInc_q3,Quat_q0,Quat_q1,Quat_q2,Quat_q3,Roll,Pitch,Yaw
64738,-9.520143,0.425613,-1.751686,0.002864,0.004049,-0.123381,0.002498,0.007801,-0.021269,-0.095202,0.004266,-0.017513,1.000000,0.000012,0.000039,-0.000106,0.598456,0.303889,0.705688,-0.226949,166.488430,79.290382,122.191911
64739,-9.505789,0.423077,-1.732664,0.014046,-0.007844,-0.141034,0.004549,0.007724,-0.021933,-0.095058,0.004242,-0.017323,1.000000,0.000023,0.000039,-0.000110,0.598428,0.303867,0.705705,-0.227000,166.526603,79.290838,122.227540
64740,-9.507424,0.396708,-1.732855,-0.003434,-0.026262,-0.140533,0.003286,0.011277,-0.019266,-0.095075,0.003977,-0.017323,1.000000,0.000016,0.000056,-0.000096,0.598396,0.303849,0.705731,-0.227027,166.557948,79.289076,122.258031
64741,-9.555643,0.397433,-1.759121,-0.015742,-0.015012,-0.088373,0.001867,0.009581,-0.019935,-0.095557,0.003984,-0.017587,1.000000,0.000009,0.000048,-0.000100,0.598369,0.303825,0.705755,-0.227056,166.589513,79.288277,122.289204
64742,-9.505533,0.417209,-1.735492,0.010726,-0.008783,-0.141030,-0.009034,0.009810,-0.022078,-0.095056,0.004182,-0.017350,1.000000,-0.000045,0.000049,-0.000110,0.598358,0.303758,0.705796,-0.227050,166.621040,79.287699,122.327065
64743,-9.496301,0.388429,-1.803899,-0.057938,0.019087,-0.138963,-0.005613,0.011656,-0.015248,-0.094964,0.003891,-0.018034,1.000000,-0.000028,0.000058,-0.000076,0.598342,0.303727,0.705829,-0.227030,166.635238,79.284996,122.345576
64744,-9.515894,0.388541,-1.790613,-0.045729,0.007189,-0.122106,0.003919,0.009509,-0.020598,-0.095159,0.003896,-0.017902,1.000000,0.000020,0.000048,-0.000103,0.598313,0.303704,0.705851,-0.227066,166.669601,79.284385,122.378769
64745,-9.549834,0.388700,-1.796955,-0.045836,0.006863,-0.087601,0.008630,0.007692,-0.019848,-0.095499,0.003897,-0.017966,1.000000,0.000043,0.000038,-0.000099,0.598289,0.303687,0.705865,-0.227111,166.702217,79.284800,122.409049
64746,-9.521222,0.386181,-1.757839,-0.022398,-0.016596,-0.122897,0.013113,0.000964,-0.012195,-0.095212,0.003869,-0.017578,1.000000,0.000066,0.000005,-0.000061,0.598286,0.303711,0.705839,-0.227167,166.711131,79.287840,122.410982
64747,-9.505261,0.408642,-1.739012,0.005137,-0.010374,-0.141027,0.017276,0.002523,-0.013548,-0.095053,0.004094,-0.017389,1.000000,0.000086,0.000013,-0.000068,0.598270,0.303744,0.705815,-0.227239,166.727463,79.290192,122.418232
64748,-9.483869,0.429413,-1.754422,0.007085,0.019009,-0.158375,0.020771,0.004034,-0.016956,-0.094839,0.004304,-0.017542,1.000000,0.000104,0.000020,-0.000085,0.598239,0.303778,0.705797,-0.227332,166.756952,79.292146,122.436638
64749,-9.508695,0.402540,-1.827874,-0.060542,0.046918,-0.121837,0.016727,0.005901,-0.015654,-0.095087,0.004034,-0.018276,1.000000,0.000084,0.000030,-0.000078,0.598208,0.303809,0.705785,-0.227407,166.782251,79.292935,122.452609
64750,-9.472848,0.376700,-1.734401,-0.015578,-0.029375,-0.175064,0.012015,0.007717,-0.016406,-0.094729,0.003776,-0.017340,1.000000,0.000060,0.000039,-0.000082,0.598178,0.303823,0.705787,-0.227462,166.807661,79.292759,122.471970
64751,-9.454656,0.348879,-1.749038,-0.046345,-0.036185,-0.191465,0.017687,0.014516,-0.013731,-0.094548,0.003497,-0.017483,1.000000,0.000088,0.000073,-0.000069,0.598117,0.303875,0.705797,-0.227523,166.833835,79.288442,122.488088
64752,-9.518684,0.326032,-1.794911,-0.087386,-0.031477,-0.121211,0.021797,0.016304,-0.008260,-0.095188,0.003266,-0.017941,1.000000,0.000109,0.000082,-0.000041,0.598051,0.303957,0.705801,-0.227575,166.846737,79.282410,122.489014
64753,-9.604108,0.280685,-1.825618,-0.131518,-0.056477,-0.033625,0.049578,0.010515,-0.005873,-0.096042,0.002814,-0.018250,1.000000,0.000248,0.000053,-0.000029,0.597967,0.304121,0.705753,-0.227724,166.864310,79.279286,122.478903
64754,-9.559499,0.302321,-1.767739,-0.079393,-0.073394,-0.087019,0.051365,0.001770,-0.009814,-0.095595,0.003032,-0.017676,1.000000,0.000257,0.000009,-0.000049,0.597906,0.304269,0.705682,-0.227907,166.888725,79.281566,122.474306
64755,-9.486008,0.294776,-1.791159,-0.108114,-0.050491,-0.155294,0.060272,0.003356,-0.007028,-0.094860,0.002956,-0.017909,1.000000,0.000301,0.000017,-0.000035,0.597829,0.304453,0.705603,-0.228108,166.910976,79.282619,122.462712
64756,-9.506631,0.444117,-1.714081,0.053492,-0.000096,-0.142709,0.053424,0.003653,-0.003679,-0.095067,0.004447,-0.017138,1.000000,0.000267,0.000018,-0.000018,0.597765,0.304631,0.705525,-0.228277,166.919779,79.283052,122.441025
64757,-9.474761,0.537037,-1.766306,0.078969,0.106766,-0.160656,0.036425,0.005801,-0.003868,-0.094748,0.005375,-0.017659,1.000000,0.000182,0.000029,-0.000019,0.597722,0.304755,0.705476,-0.228378,166.920278,79.282337,122.421770
64758,-9.531681,0.491248,-1.756996,0.059396,0.058625,-0.108341,0.029169,0.012772,-0.006101,-0.095318,0.004918,-0.017563,1.000000,0.000146,0.000064,-0.000031,0.597659,0.304862,0.705458,-0.228455,166.928572,79.277996,122.413709
64759,-9.541443,0.344151,-1.753224,-0.039968,-0.050329,-0.105616,0.022231,0.009519,-0.006108,-0.095415,0.003446,-0.017527,1.000000,0.000111,0.000048,-0.000031,0.597621,0.304941,0.705440,-0.228507,166.930096,79.275388,122.403543
64760,-9.564328,0.296161,-1.738371,-0.060546,-0.098441,-0.087840,0.033216,0.010916,-0.007397,-0.095644,0.002968,-0.017378,1.000000,0.000166,0.000055,-0.000037,0.597557,0.305054,0.705413,-0.228605,166.943260,79.272252,122.398078
64761,-9.534054,0.364525,-1.790107,-0.051433,-0.009680,-0.105329,0.037813,0.005686,-0.006580,-0.095341,0.003652,-0.017898,1.000000,0.000189,0.000028,-0.000033,0.597508,0.305173,0.705365,-0.228720,166.952642,79.271945,122.386825
64762,-9.505930,0.437396,-1.719685,0.046780,-0.001973,-0.142674,0.041197,0.005726,-0.003135,-0.095060,0.004379,-0.017193,1.000000,0.000206,0.000029,-0.000016,0.597456,0.305319,0.705308,-0.228841,166.954275,79.271154,122.364970
64763,-9.508052,0.532289,-1.777791,0.073264,0.104896,-0.126070,0.041283,0.007323,-0.006577,-0.095081,0.005330,-0.017773,1.000000,0.000206,0.000037,-0.000033,0.597394,0.305455,0.705259,-0.228973,166.967730,79.270075,122.354884
64764,-9.472295,0.553086,-1.774058,0.087559,0.122727,-0.161012,0.020234,0.009362,-0.012273,-0.094723,0.005538,-0.017736,1.000000,0.000101,0.000047,-0.000061,0.597350,0.305510,0.705249,-0.229041,166.986750,79.268436,122.362951
64765,-9.480935,0.504685,-1.739307,0.079279,0.063099,-0.160861,-0.002230,0.011646,-0.011842,-0.094810,0.005052,-0.017388,1.000000,-0.000011,0.000058,-0.000059,0.597334,0.305500,0.705271,-0.229028,166.993708,79.265750,122.371859
64766,-9.519748,0.432554,-1.743268,0.030002,0.008449,-0.125030,-0.004312,0.009888,-0.014562,-0.095198,0.004332,-0.017428,1.000000,-0.000022,0.000049,-0.000073,0.597324,0.305474,0.705295,-0.229016,167.005754,79.264112,122.387141
64767,-9.515804,0.405481,-1.777299,-0.013097,0.013184,-0.123859,-0.004397,0.008296,-0.011119,-0.095159,0.004060,-0.017769,1.000000,-0.000022,0.000041,-0.000056,0.597325,0.305452,0.705312,-0.228989,167.005633,79.262862,122.391275
64768,-9.506899,0.405580,-1.724373,0.023699,-0.021852,-0.142214,0.005981,0.011356,-0.014490,-0.095070,0.004063,-0.017238,1.000000,0.000030,0.000057,-0.000072,0.597294,0.305459,0.705329,-0.229011,167.024355,79.260394,122.407350
64769,-9.515607,0.402572,-1.779018,-0.015315,0.012561,-0.123861,0.013962,0.004212,-0.017015,-0.095156,0.004035,-0.017788,1.000000,0.000070,0.000021,-0.000085,0.597272,0.305474,0.705319,-0.229080,167.050342,79.262140,122.426001
64770,-9.528812,0.499923,-1.768883,0.062341,0.073060,-0.108673,0.004536,0.007819,-0.018538,-0.095288,0.005008,-0.017685,1.000000,0.000023,0.000039,-0.000093,0.597250,0.305458,0.705332,-0.229115,167.077752,79.262164,122.451762
64771,-9.478840,0.520245,-1.745275,0.088978,0.079321,-0.161220,-0.007638,0.011563,-0.018040,-0.094789,0.005210,-0.017447,1.000000,-0.000038,0.000058,-0.000090,0.597236,0.305409,0.705372,-0.229095,167.098746,79.259983,122.478786
64772,-9.497844,0.445909,-1.763527,0.026412,0.036272,-0.142326,-0.015819,0.011735,-0.018806,-0.094979,0.004467,-0.017630,1.000000,-0.000079,0.000059,-0.000094,0.597232,0.305335,0.705421,-0.229053,167.117914,79.257851,122.508028
64773,-9.493795,0.418363,-1.797993,-0.016660,0.040999,-0.141183,-0.017672,0.016830,-0.021648,-0.094939,0.004192,-0.017972,1.000000,-0.000088,0.000084,-0.000108,0.597209,0.305252,0.705494,-0.229002,167.147416,79.253049,122.549179
64774,-9.518138,0.345322,-1.782870,-0.053645,-0.025218,-0.123038,-0.016865,0.020196,-0.023066,-0.095183,0.003463,-0.017819,1.000000,-0.000084,0.000101,-0.000115,0.597171,0.305170,0.705576,-0.228956,167.184156,79.246726,122.596917
64775,-9.551965,0.345602,-1.789777,-0.053821,-0.025558,-0.088531,-0.004338,0.008064,-0.017943,-0.095520,0.003464,-0.017894,1.000000,-0.000022,0.000040,-0.000090,0.597161,0.305134,0.705598,-0.228961,167.205473,79.246535,122.621012
64776,-9.513930,0.315910,-1.818288,-0.097826,-0.020749,-0.121927,0.004651,0.011261,-0.018593,-0.095140,0.003168,-0.018177,1.000000,0.000023,0.000056,-0.000093,0.597128,0.305122,0.705622,-0.228990,167.235371,79.244630,122.649238
64777,-9.509080,0.387056,-1.821543,-0.049820,0.033193,-0.123165,0.006424,0.002623,-0.019104,-0.095091,0.003880,-0.018214,1.000000,0.000032,0.000013,-0.000096,0.597123,0.305098,0.705623,-0.229032,167.260778,79.247379,122.673191
64778,-9.495653,0.459574,-1.770282,0.036126,0.052464,-0.142709,0.005561,-0.002454,-0.017655,-0.094956,0.004605,-0.017704,1.000000,0.000028,-0.000012,-0.000088,0.597137,0.305076,0.705603,-0.229084,167.279318,79.253015,122.689326
64779,-9.490202,0.456194,-1.804435,0.009425,0.075323,-0.141996,-0.001703,0.004504,-0.019902,-0.094902,0.004571,-0.018042,1.000000,-0.000009,0.000023,-0.000100,0.597136,0.305032,0.705617,-0.229104,167.304876,79.255030,122.717051
64780,-9.518659,0.408995,-1.754862,0.014391,0.004036,-0.124991,-0.006473,0.004592,-0.020635,-0.095187,0.004099,-0.017547,1.000000,-0.000032,0.000023,-0.000103,0.597140,0.304973,0.705637,-0.229111,167.330002,79.257099,122.746907
64781,-9.522593,0.433097,-1.722165,0.055261,-0.001374,-0.126091,-0.008470,0.006378,-0.020004,-0.095226,0.004340,-0.017219,1.000000,-0.000042,0.000032,-0.000100,0.597141,0.304912,0.705664,-0.229105,167.353173,79.257862,122.775892
64782,-9.517029,0.429811,-1.756860,0.028558,0.021489,-0.125384,-0.011826,0.008171,-0.020070,-0.095171,0.004307,-0.017565,1.000000,-0.000059,0.000041,-0.000100,0.597141,0.304843,0.705700,-0.229086,167.375945,79.257855,122.806475
64783,-9.498089,0.500756,-1.740062,0.088959,0.063949,-0.144168,-0.013319,0.002923,-0.024089,-0.094981,0.005018,-0.017400,1.000000,-0.000067,0.000015,-0.000120,0.597155,0.304755,0.705725,-0.229090,167.407448,79.261321,122.845478
64784,-9.496575,0.523244,-1.741195,0.104227,0.081742,-0.144547,-0.021477,0.004918,-0.021476,-0.094966,0.005241,-0.017410,1.000000,-0.000107,0.000025,-0.000107,0.597180,0.304648,0.705765,-0.229046,167.426708,79.263304,122.878113
64785,-9.522615,0.471477,-1.813874,0.020095,0.091533,-0.107851,-0.030735,0.011715,-0.029884,-0.095227,0.004726,-0.018134,1.000000,-0.000154,0.000059,-0.000149,0.597182,0.304497,0.705845,-0.228991,167.470906,79.262509,122.940368
64786,-9.491682,0.418677,-1.807229,-0.014661,0.055087,-0.141589,-0.037112,0.005073,-0.027785,-0.094917,0.004197,-0.018071,1.000000,-0.000186,0.000025,-0.000139,0.597224,0.304322,0.705913,-0.228910,167.499939,79.265181,122.992069
64787,-9.487698,0.390743,-1.840854,-0.057726,0.059856,-0.140515,-0.039079,0.006748,-0.030565,-0.094877,0.003918,-0.018406,1.000000,-0.000195,0.000034,-0.000153,0.597257,0.304134,0.705991,-0.228831,167.537569,79.267219,123.053203
64788,-9.565864,0.320924,-1.816024,-0.080652,-0.018042,-0.071032,-0.026877,0.004853,-0.027675,-0.095659,0.003220,-0.018158,1.000000,-0.000134,0.000024,-0.000138,0.597283,0.303989,0.706045,-0.228786,167.572040,79.269989,123.104468
64789,-9.553192,0.293988,-1.795602,-0.085798,-0.048014,-0.088263,-0.007873,0.000977,-0.028095,-0.095532,0.002953,-0.017956,1.000000,-0.000039,0.000005,-0.000140,0.597295,0.303893,0.706068,-0.228814,167.615891,79.274943,123.154572
64790,-9.532040,0.313986,-1.810293,-0.083760,-0.018606,-0.105567,0.005506,-0.007895,-0.027806,-0.095319,0.003154,-0.018107,1.000000,0.000028,-0.000039,-0.000139,0.597317,0.303829,0.706048,-0.228903,167.661120,79.284850,123.197901
64791,-9.526188,0.408688,-1.812975,-0.019379,0.053508,-0.107074,0.008329,-0.004481,-0.026469,-0.095261,0.004100,-0.018132,1.000000,0.000042,-0.000022,-0.000132,0.597327,0.303776,0.706034,-0.228989,167.706027,79.292921,123.240184
64792,-9.501944,0.431283,-1.739677,0.046203,0.025016,-0.143320,0.004949,-0.004516,-0.029918,-0.095018,0.004327,-0.017399,1.000000,0.000025,-0.000023,-0.000150,0.597336,0.303707,0.706027,-0.229078,167.759524,79.301180,123.292249
64793,-9.523410,0.405752,-1.724307,0.041925,-0.005004,-0.126025,-0.006591,-0.002568,-0.030752,-0.095233,0.004072,-0.017244,1.000000,-0.000033,-0.000013,-0.000154,0.597355,0.303602,0.706042,-0.229125,167.810277,79.308484,123.348364
64794,-9.498260,0.399905,-1.772295,0.002009,0.029482,-0.142267,-0.014109,-0.002358,-0.029467,-0.094982,0.004012,-0.017724,1.000000,-0.000071,-0.000012,-0.000147,0.597385,0.303481,0.706063,-0.229142,167.853046,79.315463,123.400622
64795,-9.560694,0.353870,-1.727826,0.007754,-0.041884,-0.090771,-0.022270,-0.000375,-0.026853,-0.095606,0.003550,-0.017279,1.000000,-0.000111,-0.000002,-0.000134,0.597426,0.303340,0.706097,-0.229114,167.884125,79.321091,123.446729
64796,-9.519779,0.372682,-1.756870,-0.003407,-0.000852,-0.124980,-0.018910,-0.002160,-0.026788,-0.095197,0.003738,-0.017570,1.000000,-0.000095,-0.000011,-0.000134,0.597466,0.303214,0.706120,-0.229106,167.916413,79.327626,123.491119
64797,-9.544095,0.298932,-1.740062,-0.040444,-0.067068,-0.106978,-0.016110,-0.000567,-0.028834,-0.095440,0.003002,-0.017401,1.000000,-0.000081,-0.000003,-0.000144,0.597492,0.303094,0.706147,-0.229115,167.958049,79.333494,123.542722
64798,-9.503202,0.317502,-1.769037,-0.051593,-0.026033,-0.141193,-0.006673,-0.004153,-0.027312,-0.095031,0.003187,-0.017692,1.000000,-0.000033,-0.000021,-0.000137,0.597520,0.303000,0.706151,-0.229154,167.997747,79.341197,123.587515
64799,-9.532988,0.390061,-1.776700,-0.002721,0.027849,-0.107746,-0.004600,-0.002394,-0.024589,-0.095329,0.003912,-0.017768,1.000000,-0.000023,-0.000012,-0.000123,0.597541,0.302923,0.706155,-0.229188,168.031359,79.347436,123.625188
64800,-9.534332,0.462185,-1.744685,0.070899,0.058653,-0.109463,-0.012801,-0.004063,-0.028742,-0.095342,0.004634,-0.017449,1.000000,-0.000064,-0.000020,-0.000144,0.597577,0.302806,0.706169,-0.229209,168.071977,79.355247,123.674487
64801,-9.452758,0.403196,-1.833668,-0.041375,0.091833,-0.175811,-0.025733,-0.002008,-0.026859,-0.094527,0.004042,-0.018338,1.000000,-0.000129,-0.000010,-0.000134,0.597626,0.302659,0.706200,-0.229177,168.101030,79.361699,123.719577
64802,-9.485157,0.381191,-1.750441,0.005501,0.015450,-0.159849,-0.017450,0.001272,-0.026145,-0.094851,0.003823,-0.017504,1.000000,-0.000087,0.000006,-0.000131,0.597652,0.302543,0.706231,-0.229167,168.134690,79.366203,123.764505
64803,-9.561684,0.335483,-1.726014,-0.001176,-0.044387,-0.090779,-0.029788,-0.000161,-0.025565,-0.095616,0.003364,-0.017261,1.000000,-0.000149,-0.000001,-0.000128,0.597704,0.302388,0.706272,-0.229111,168.158482,79.371445,123.806975
64804,-9.530956,0.328986,-1.808070,-0.066656,0.013283,-0.106409,-0.014189,-0.003933,-0.026028,-0.095309,0.003301,-0.018083,1.000000,-0.000071,-0.000020,-0.000130,0.597744,0.302276,0.706283,-0.229119,168.190472,79.378846,123.848301
64805,-9.497079,0.324811,-1.802137,-0.068627,0.013013,-0.140933,0.002920,-0.002571,-0.025876,-0.094970,0.003261,-0.018023,1.000000,0.000015,-0.000013,-0.000129,0.597760,0.302204,0.706284,-0.229170,168.230708,79.385447,123.890678
64806,-9.521136,0.349723,-1.754240,-0.014578,-0.004005,-0.124991,0.006895,-0.006018,-0.023731,-0.095210,0.003509,-0.017545,1.000000,0.000034,-0.000030,-0.000119,0.597778,0.302161,0.706261,-0.229250,168.266710,79.393740,123.923793
64807,-9.518524,0.396053,-1.755166,0.017087,0.031882,-0.125662,0.016386,-0.007884,-0.022239,-0.095184,0.003973,-0.017555,1.000000,0.000082,-0.000039,-0.000111,0.597789,0.302151,0.706220,-0.229363,168.302917,79.402900,123.951292
64808,-9.568323,0.470619,-1.748173,0.079110,0.074144,-0.075201,0.048938,-0.009753,-0.005494,-0.095682,0.004713,-0.017485,1.000000,0.000245,-0.000049,-0.000027,0.597777,0.302294,0.706110,-0.229542,168.306072,79.411163,123.926484
64809,-9.507549,0.344277,-1.731856,-0.005490,-0.016491,-0.142577,0.073094,-0.020138,0.007211,-0.095074,0.003446,-0.017327,1.000000,0.000365,-0.000101,0.000036,0.597778,0.302545,0.705922,-0.229787,168.278809,79.423634,123.856068
64810,-9.555274,0.055633,-1.639631,-0.138884,-0.291931,-0.122991,0.059089,0.012497,-0.000987,-0.095554,0.000562,-0.016390,1.000000,0.000295,0.000062,-0.000005,0.597678,0.302760,0.705860,-0.229954,168.288056,79.418888,123.831541
64811,-9.676900,0.061492,-1.643520,-0.124500,-0.304155,-0.002523,0.043469,0.014443,-0.003908,-0.096770,0.000620,-0.016428,1.000000,0.000217,0.000072,-0.000020,0.597595,0.302912,0.705830,-0.230064,168.297265,79.413396,123.817579
64812,-9.573308,0.080236,-1.628256,-0.111575,-0.286105,-0.106423,0.024483,-0.000200,0.009127,-0.095733,0.000800,-0.016283,1.000000,0.000122,-0.000001,0.000046,0.597603,0.303044,0.705755,-0.230098,168.248433,79.414595,123.754137
64813,-9.645655,-0.087384,-1.667719,-0.251447,-0.390075,-0.034538,0.031957,0.001654,0.018047,-0.096457,-0.000880,-0.016677,1.000000,0.000160,0.000008,0.000090,0.597606,0.303228,0.705664,-0.230127,168.178022,79.413781,123.664988
64814,-9.589186,-0.139611,-1.708569,-0.324876,-0.391671,-0.084777,0.039265,-0.003454,0.023674,-0.095891,-0.001404,-0.017088,1.000000,0.000196,-0.000017,0.000118,0.597620,0.303452,0.705540,-0.230175,168.091944,79.415063,123.555041
64815,-9.487201,-0.142830,-1.691476,-0.328299,-0.391708,-0.188382,0.037168,-0.001339,0.034540,-0.094872,-0.001442,-0.016916,1.000000,0.000186,-0.000007,0.000173,0.597644,0.303707,0.705410,-0.230176,167.973075,79.413849,123.413633
64816,-9.441653,-0.091001,-1.633725,-0.259404,-0.390447,-0.241773,0.055499,0.002430,0.055826,-0.094416,-0.000932,-0.016336,1.000000,0.000277,0.000012,0.000279,0.597650,0.304099,0.705236,-0.230176,167.803746,79.407882,123.209528
64817,-9.493647,0.040744,-1.596331,-0.139071,-0.335204,-0.192523,0.059886,0.016486,0.067906,-0.094938,0.000380,-0.015955,1.000000,0.000299,0.000082,0.000340,0.597615,0.304559,0.705082,-0.230128,167.609670,79.392381,122.978661
64818,-9.471720,0.168357,-1.583007,-0.045833,-0.256573,-0.211656,0.055279,0.025497,0.077253,-0.094720,0.001651,-0.015818,1.000000,0.000276,0.000127,0.000386,0.597564,0.305052,0.704945,-0.230029,167.392328,79.370602,122.725815
64819,-9.479446,0.272784,-1.609158,0.006198,-0.172969,-0.195321,0.033491,0.029603,0.083097,-0.094798,0.002691,-0.016077,1.000000,0.000167,0.000148,0.000415,0.597538,0.305505,0.704836,-0.229827,167.148861,79.345505,122.459326
64820,-9.462922,0.304827,-1.593543,0.033895,-0.166718,-0.213196,0.014578,0.038851,0.090236,-0.094634,0.003007,-0.015917,1.000000,0.000073,0.000194,0.000451,0.597517,0.305939,0.704765,-0.229524,166.881071,79.314204,122.178831
64821,-9.467528,0.360655,-1.653455,0.027586,-0.096108,-0.195616,-0.005603,0.049713,0.093230,-0.094681,0.003562,-0.016511,1.000000,-0.000028,0.000249,0.000466,0.597489,0.306339,0.704743,-0.229130,166.602957,79.276141,121.898757
64822,-9.477421,0.418560,-1.680071,0.046831,-0.048682,-0.178645,-0.002061,0.054933,0.096585,-0.094781,0.004140,-0.016775,1.000000,-0.000010,0.000275,0.000483,0.597444,0.306763,0.704729,-0.228725,166.321923,79.234530,121.614417
64823,-9.515565,0.477165,-1.746429,0.041258,0.021817,-0.126538,-0.005669,0.050017,0.100055,-0.095162,0.004724,-0.017441,1.000000,-0.000028,0.000250,0.000500,0.597422,0.307187,0.704697,-0.228309,166.028123,79.194788,121.318315
64824,-9.552802,0.461146,-1.843712,-0.039104,0.061219,-0.072941,-0.005048,0.046433,0.095352,-0.095534,0.004565,-0.018415,1.000000,-0.000025,0.000232,0.000477,0.597409,0.307588,0.704662,-0.227910,165.747041,79.157543,121.035594
64825,-9.549911,0.494577,-1.848886,-0.023768,0.079015,-0.073233,0.008487,0.042717,0.095582,-0.095505,0.004901,-0.018468,1.000000,0.000042,0.000214,0.000478,0.597382,0.308039,0.704596,-0.227576,165.474026,79.121912,120.750918
64826,-9.555646,0.526314,-1.907251,-0.046506,0.131524,-0.055356,0.014249,0.030521,0.093835,-0.095562,0.005220,-0.019058,1.000000,0.000071,0.000153,0.000469,0.597394,0.308474,0.704494,-0.227274,165.200042,79.093198,120.464101
64827,-9.476034,0.601763,-1.935203,-0.025421,0.208900,-0.124650,0.027040,0.023176,0.088666,-0.094765,0.005978,-0.019340,1.000000,0.000135,0.000116,0.000443,0.597401,0.308928,0.704360,-0.227053,164.945336,79.068996,120.187926
64828,-9.537424,0.611757,-1.982872,-0.050685,0.231570,-0.055009,0.048764,0.017297,0.082897,-0.095378,0.006083,-0.019819,1.000000,0.000244,0.000086,0.000414,0.597393,0.309412,0.704195,-0.226926,164.714770,79.048756,119.925142
64829,-9.485141,0.784530,-2.019047,0.036690,0.381257,-0.090896,0.053264,0.004712,0.070222,-0.094855,0.007817,-0.020186,1.000000,0.000266,0.000024,0.000351,0.597404,0.309859,0.704003,-0.226883,164.515668,79.037436,119.690058
64830,-9.522521,0.817936,-1.992172,0.078251,0.375751,-0.057235,0.051020,-0.004156,0.060809,-0.095227,0.008155,-0.019922,1.000000,0.000255,-0.000021,0.000304,0.597443,0.310248,0.703805,-0.226862,164.333609,79.032083,119.475344
64831,-9.502435,0.820485,-2.005757,0.064028,0.387107,-0.074178,0.054740,-0.016430,0.056320,-0.095025,0.008184,-0.020063,1.000000,0.000274,-0.000082,0.000282,0.597511,0.310623,0.703572,-0.226893,164.157687,79.034061,119.263750
64832,-9.466284,0.771263,-2.030845,0.003852,0.373921,-0.107540,0.053506,-0.018782,0.038595,-0.094662,0.007700,-0.020315,1.000000,0.000268,-0.000094,0.000193,0.597572,0.310924,0.703362,-0.226971,164.028503,79.040019,119.101444
64833,-9.451257,0.752047,-1.919965,0.062451,0.286076,-0.143543,0.060580,-0.034844,0.027400,-0.094510,0.007513,-0.019214,1.000000,0.000303,-0.000174,0.000137,0.597659,0.311201,0.703110,-0.227142,163.923446,79.056331,118.957565
64834,-9.471859,0.830267,-1.871910,0.149232,0.305206,-0.127953,0.063930,-0.036629,0.027478,-0.094716,0.008296,-0.018734,1.000000,0.000320,-0.000183,0.000137,0.597754,0.311474,0.702852,-0.227317,163.816664,79.073761,118.812008
64835,-9.481776,0.859020,-1.802175,0.215741,0.276624,-0.129363,0.064258,-0.032012,0.013725,-0.094815,0.008589,-0.018034,1.000000,0.000321,-0.000160,0.000069,0.597809,0.311718,0.702624,-0.227541,163.754763,79.090699,118.709501
64836,-9.469906,0.834449,-1.778410,0.210680,0.246698,-0.146617,0.050432,-0.038790,0.006882,-0.094696,0.008346,-0.017800,1.000000,0.000252,-0.000194,0.000034,0.597909,0.311876,0.702407,-0.227733,163.696562,79.112556,118.621312
64837,-9.468980,0.738690,-1.717224,0.182041,0.139313,-0.163669,0.041680,-0.035104,0.007386,-0.094687,0.007387,-0.017187,1.000000,0.000208,-0.000176,0.000037,0.598006,0.312019,0.702209,-0.227893,163.635491,79.132162,118.534310
64838,-9.528376,0.595031,-1.733353,0.070779,0.041913,-0.110020,0.020581,-0.034795,0.001679,-0.095281,0.005951,-0.017349,1.000000,0.000103,-0.000174,0.000008,0.598133,0.312074,0.702046,-0.227990,163.577895,79.152629,118.464164
64839,-9.536016,0.497795,-1.726100,0.004095,-0.030734,-0.108984,0.027465,-0.031254,0.008507,-0.095358,0.004976,-0.017275,1.000000,0.000137,-0.000156,0.000043,0.598241,0.312180,0.701874,-0.228088,163.507922,79.169952,118.376842
64840,-9.552283,0.398850,-1.772928,-0.100637,-0.068649,-0.089847,0.033025,-0.029837,0.004438,-0.095520,0.003989,-0.017743,1.000000,0.000165,-0.000149,0.000022,0.598334,0.312288,0.701707,-0.228213,163.453281,79.187217,118.302454
64841,-9.567505,0.353675,-1.699594,-0.083384,-0.151489,-0.090499,0.045697,-0.038803,0.002726,-0.095672,0.003539,-0.017014,1.000000,0.000228,-0.000194,0.000014,0.598433,0.312422,0.701499,-0.228406,163.403851,79.209641,118.225048
64842,-9.464330,0.371209,-1.680560,-0.070085,-0.133336,-0.194323,0.062219,-0.031861,0.014356,-0.094641,0.003711,-0.016820,1.000000,0.000311,-0.000159,0.000072,0.598498,0.312649,0.701277,-0.228606,163.335156,79.226363,118.119334
64843,-9.434464,0.395640,-1.639723,-0.029868,-0.138610,-0.229670,0.072801,-0.021675,0.017647,-0.094343,0.003954,-0.016406,1.000000,0.000364,-0.000108,0.000088,0.598514,0.312931,0.701068,-0.228819,163.272022,79.236904,118.012888
64844,-9.515133,0.425168,-1.670461,-0.025735,-0.109525,-0.143339,0.087273,-0.016637,0.023144,-0.095150,0.004248,-0.016711,1.000000,0.000436,-0.000083,0.000116,0.598496,0.313282,0.700849,-0.229057,163.205125,79.243776,117.894401
64845,-9.509818,0.424050,-1.703186,-0.052407,-0.086625,-0.142783,0.076282,-0.018008,0.024432,-0.095097,0.004235,-0.017039,1.000000,0.000381,-0.000090,0.000122,0.598501,0.313603,0.700636,-0.229257,163.127292,79.251105,117.770864
64846,-9.517401,0.477902,-1.636153,0.030414,-0.097134,-0.144391,0.062698,-0.015950,0.024246,-0.095173,0.004773,-0.016368,1.000000,0.000313,-0.000080,0.000121,0.598520,0.313885,0.700445,-0.229404,163.043485,79.257359,117.649503
64847,-9.519068,0.574740,-1.693570,0.056897,0.009633,-0.127243,0.042955,-0.013662,0.026041,-0.095190,0.005739,-0.016941,1.000000,0.000215,-0.000068,0.000130,0.598561,0.314122,0.700279,-0.229480,162.946038,79.261875,117.524624
64848,-9.465349,0.497344,-1.731536,-0.032726,-0.009927,-0.177479,0.025866,-0.013095,0.029273,-0.094653,0.004962,-0.017321,1.000000,0.000129,-0.000065,0.000146,0.598634,0.314314,0.700131,-0.229479,162.828928,79.265639,117.390850
64849,-9.467161,0.475569,-1.729644,-0.050224,-0.028275,-0.177251,0.025463,-0.004301,0.033832,-0.094672,0.004742,-0.017298,1.000000,0.000127,-0.000022,0.000169,0.598681,0.314533,0.700001,-0.229453,162.707024,79.263846,117.251835
64850,-9.517185,0.381139,-1.783831,-0.154351,-0.066296,-0.123729,0.022645,-0.007866,0.029112,-0.095172,0.003800,-0.017842,1.000000,0.000113,-0.000039,0.000146,0.598740,0.314720,0.699873,-0.229432,162.593158,79.264675,117.123241
64851,-9.499254,0.432111,-1.765954,-0.110157,-0.041923,-0.141738,0.037754,-0.004621,0.033278,-0.094993,0.004309,-0.017661,1.000000,0.000189,-0.000023,0.000166,0.598765,0.314979,0.699727,-0.229457,162.480354,79.262983,116.985377
64852,-9.504666,0.511906,-1.700978,-0.010935,-0.034357,-0.143522,0.044293,-0.011480,0.036932,-0.095047,0.005105,-0.017014,1.000000,0.000221,-0.000057,0.000185,0.598812,0.315255,0.699550,-0.229495,162.353055,79.264335,116.830486
64853,-9.481249,0.561217,-1.716697,0.007690,0.013189,-0.160959,0.038070,-0.012942,0.038959,-0.094812,0.005597,-0.017172,1.000000,0.000190,-0.000065,0.000195,0.598874,0.315522,0.699372,-0.229512,162.215838,79.266003,116.668231
64854,-9.445497,0.511249,-1.741720,-0.052407,0.000070,-0.194495,0.043574,-0.011232,0.041702,-0.094455,0.005097,-0.017421,1.000000,0.000218,-0.000056,0.000209,0.598926,0.315812,0.699189,-0.229533,162.074568,79.266245,116.499541
64855,-9.463320,0.540702,-1.728078,-0.024001,0.006204,-0.177729,0.046479,-0.008112,0.036184,-0.094633,0.005394,-0.017283,1.000000,0.000232,-0.000041,0.000181,0.598954,0.316099,0.699020,-0.229580,161.954563,79.265640,116.349991
64856,-9.504436,0.598900,-1.667398,0.059427,-0.004452,-0.144717,0.040790,-0.012919,0.040355,-0.095044,0.005973,-0.016679,1.000000,0.000204,-0.000065,0.000202,0.599015,0.316374,0.698837,-0.229597,161.813976,79.266897,116.183619
64857,-9.477336,0.621750,-1.716062,0.036064,0.048222,-0.161381,0.032766,-0.009471,0.036089,-0.094774,0.006203,-0.017164,1.000000,0.000164,-0.000047,0.000180,0.599073,0.316613,0.698681,-0.229593,161.684389,79.267035,116.033327
64858,-9.496966,0.627032,-1.701239,0.048030,0.036269,-0.144382,0.031447,-0.007592,0.038759,-0.094970,0.006255,-0.017015,1.000000,0.000157,-0.000038,0.000194,0.599128,0.316860,0.698527,-0.229574,161.548074,79.265539,115.876751
64859,-9.500286,0.625564,-1.788395,-0.016675,0.093923,-0.125787,0.032033,-0.011249,0.034081,-0.095003,0.006242,-0.017888,1.000000,0.000160,-0.000056,0.000170,0.599188,0.317093,0.698368,-0.229582,161.422904,79.266791,115.730374
64860,-9.477166,0.630263,-1.713893,0.032749,0.047376,-0.161365,0.032726,-0.011325,0.032723,-0.094772,0.006290,-0.017143,1.000000,0.000164,-0.000057,0.000164,0.599247,0.317319,0.698211,-0.229592,161.301023,79.268298,115.587744
64861,-9.475573,0.581925,-1.744390,-0.026723,0.034133,-0.160426,0.046976,-0.013295,0.034961,-0.094756,0.005807,-0.017449,1.000000,0.000235,-0.000066,0.000175,0.599292,0.317596,0.698028,-0.229650,161.179408,79.270361,115.436665
64862,-9.479510,0.535328,-1.740652,-0.060649,-0.002309,-0.160026,0.083043,-0.017812,0.031322,-0.094794,0.005346,-0.017413,1.000000,0.000415,-0.000089,0.000157,0.599292,0.317960,0.697796,-0.229849,161.083918,79.275538,115.291556
64863,-9.441855,0.613867,-1.615985,0.076110,-0.029335,-0.214239,0.085147,-0.018202,0.023839,-0.094418,0.006134,-0.016166,1.000000,0.000426,-0.000091,0.000119,0.599277,0.318314,0.697569,-0.230090,161.012173,79.282218,115.167623
64864,-9.489070,0.874129,-1.429818,0.393008,0.011811,-0.184794,0.068112,-0.017921,0.020260,-0.094890,0.008737,-0.014304,1.000000,0.000341,-0.000090,0.000101,0.599288,0.318594,0.697371,-0.230270,160.939442,79.289446,115.054389
64865,-9.416334,1.038224,-1.481522,0.467589,0.173088,-0.237116,0.010739,-0.001221,0.015847,-0.094164,0.010376,-0.014815,1.000000,0.000054,-0.000006,0.000079,0.599324,0.318715,0.697294,-0.230246,160.864110,79.288339,114.970559
64866,-9.464866,0.966971,-1.536883,0.379766,0.153158,-0.183926,-0.048335,0.006920,0.010979,-0.094650,0.009661,-0.015368,1.000000,-0.000242,0.000035,0.000055,0.599423,0.318643,0.697319,-0.230009,160.775814,79.283814,114.909387
64867,-9.415743,0.733829,-1.723414,0.077077,0.129544,-0.213617,-0.084417,0.009426,0.007847,-0.094159,0.007327,-0.017233,1.000000,-0.000422,0.000047,0.000039,0.599567,0.318457,0.697398,-0.229653,160.678742,79.278451,114.859913
64868,-9.404099,0.592283,-1.642042,0.028087,-0.025464,-0.248026,-0.066062,0.007292,0.008759,-0.094042,0.005913,-0.016419,1.000000,-0.000330,0.000036,0.000044,0.599691,0.318325,0.697448,-0.229361,160.587133,79.274111,114.805705
64869,-9.512799,0.654427,-1.593815,0.112579,-0.036445,-0.145844,-0.059075,0.010387,0.005322,-0.095129,0.006537,-0.015935,1.000000,-0.000295,0.000052,0.000027,0.599788,0.318205,0.697505,-0.229098,160.512653,79.268728,114.764767
64870,-9.600930,0.833243,-1.619883,0.227964,0.089362,-0.043541,-0.072973,0.003742,0.001960,-0.096010,0.008326,-0.016200,1.000000,-0.000365,0.000019,0.000010,0.599928,0.318024,0.697564,-0.228807,160.432974,79.267577,114.726729
64871,-9.572689,0.728907,-1.730695,0.071476,0.098058,-0.058290,-0.122126,0.005181,0.004204,-0.095727,0.007276,-0.017309,1.000000,-0.000611,0.000026,0.000021,0.600142,0.317706,0.697678,-0.228336,160.320334,79.265170,114.683681
64872,-9.612269,0.353818,-1.975077,-0.366671,0.000444,-0.000074,-0.124861,0.003198,-0.003965,-0.096123,0.003528,-0.019751,1.000000,-0.000624,0.000016,-0.000020,0.600359,0.317348,0.697803,-0.227883,160.227257,79.265435,114.662266
64873,-9.411233,0.136409,-2.121187,-0.642601,-0.015980,-0.185842,-0.116513,-0.008703,0.002569,-0.094111,0.001351,-0.021217,1.000000,-0.000583,-0.000044,0.000013,0.600611,0.317023,0.697873,-0.227457,160.108141,79.270810,114.609558
64874,-9.445035,0.247346,-1.974223,-0.462793,-0.048462,-0.171583,-0.056257,-0.018049,0.021801,-0.094449,0.002458,-0.019751,1.000000,-0.000281,-0.000090,0.000109,0.600822,0.316936,0.697814,-0.227199,159.959151,79.277459,114.491230
64875,-9.445518,0.496190,-1.969276,-0.286761,0.120333,-0.156324,-0.041251,-0.033444,0.031883,-0.094453,0.004943,-0.019710,1.000000,-0.000206,-0.000167,0.000159,0.601074,0.316913,0.697677,-0.226988,159.773963,79.290315,114.327317
64876,-9.460127,0.806423,-1.741618,0.087956,0.174502,-0.161813,-0.031869,-0.036906,0.036834,-0.094600,0.008044,-0.017435,1.000000,-0.000159,-0.000185,0.000184,0.601329,0.316930,0.697510,-0.226800,159.575881,79.303965,114.144817
64877,-9.599686,0.877370,-1.606295,0.236503,0.105372,-0.043507,-0.055751,-0.036228,0.036612,-0.095996,0.008752,-0.016083,1.000000,-0.000279,-0.000181,0.000183,0.601619,0.316875,0.697374,-0.226528,159.365036,79.317134,113.963326
64878,-9.635984,0.859822,-1.606431,0.219483,0.086843,-0.008791,-0.106235,-0.037011,0.024592,-0.096358,0.008578,-0.016087,1.000000,-0.000531,-0.000185,0.000123,0.601978,0.316626,0.697310,-0.226117,159.158035,79.333079,113.815125
64879,-9.520319,0.825936,-1.686469,0.123734,0.138569,-0.110713,-0.137513,-0.034601,0.018815,-0.095201,0.008239,-0.016887,1.000000,-0.000688,-0.000173,0.000094,0.602371,0.316265,0.697298,-0.225610,158.951633,79.348786,113.685873
64880,-9.379711,0.788103,-1.814992,-0.010583,0.225200,-0.229189,-0.172892,-0.031973,0.014376,-0.093795,0.007859,-0.018172,1.000000,-0.000864,-0.000160,0.000072,0.602806,0.315785,0.697341,-0.224990,158.739979,79.363952,113.571813
64881,-9.425502,0.724351,-1.778844,-0.034851,0.147307,-0.194676,-0.173667,-0.033379,0.019190,-0.094253,0.007219,-0.017810,1.000000,-0.000868,-0.000167,0.000096,0.603252,0.315318,0.697372,-0.224354,158.512216,79.378730,113.441827
64882,-9.452294,0.799605,-1.904899,-0.075423,0.282228,-0.141673,-0.179722,-0.031457,0.017743,-0.094521,0.007971,-0.019071,1.000000,-0.000899,-0.000157,0.000089,0.603698,0.314829,0.697417,-0.223699,158.286714,79.392746,113.317670
64883,-9.660070,0.846051,-1.899943,-0.031586,0.275809,0.064836,-0.162710,-0.033753,0.014507,-0.096598,0.008438,-0.019023,1.000000,-0.000814,-0.000169,0.000073,0.604122,0.314377,0.697441,-0.223115,158.077039,79.408540,113.199824
64884,-9.787743,0.862148,-1.862104,0.007338,0.240113,0.184959,-0.177847,-0.053974,0.009334,-0.097873,0.008600,-0.018655,1.000000,-0.000889,-0.000270,0.000047,0.604634,0.313839,0.697428,-0.222526,157.849606,79.436148,113.072625
64885,-9.942379,0.948199,-1.951950,0.006758,0.339608,0.358090,-0.210548,-0.072636,-0.015128,-0.099416,0.009469,-0.019566,0.999999,-0.001053,-0.000363,-0.000076,0.605234,0.313095,0.697433,-0.221926,157.650363,79.478816,112.993276
64886,-9.838931,1.008268,-2.136942,-0.099477,0.533109,0.291449,-0.237292,-0.111814,-0.035776,-0.098376,0.010075,-0.021436,0.999999,-0.001186,-0.000559,-0.000179,0.605989,0.312155,0.697380,-0.221356,157.447364,79.546753,112.925601
64887,-9.839953,1.125904,-2.302364,-0.145857,0.739034,0.327616,-0.280640,-0.123031,-0.059055,-0.098382,0.011256,-0.023100,0.999999,-0.001403,-0.000615,-0.000295,0.606822,0.310990,0.697376,-0.220724,157.271480,79.625626,112.910674
64888,-10.148932,1.129379,-2.123242,-0.006280,0.580019,0.601148,-0.212935,-0.141417,-0.085726,-0.101469,0.011315,-0.021316,0.999999,-0.001065,-0.000707,-0.000429,0.607585,0.309915,0.697281,-0.220436,157.188102,79.720210,112.950439
64889,-10.106888,1.430603,-2.371873,0.014475,0.988625,0.620144,-0.220085,-0.171612,-0.131080,-0.101039,0.014346,-0.023821,0.999999,-0.001100,-0.000858,-0.000655,0.608413,0.308627,0.697172,-0.220306,157.196316,79.840748,113.087512
64890,-10.315766,1.777922,-2.341085,0.284456,1.205377,0.842020,-0.166923,-0.197311,-0.190638,-0.103117,0.017858,-0.023527,0.999999,-0.000835,-0.000987,-0.000953,0.609181,0.307264,0.697016,-0.220583,157.383048,79.988074,113.374820
64891,-11.126545,2.358195,-2.279982,0.783277,1.482410,1.665475,-0.097601,-0.228885,-0.262444,-0.111208,0.023717,-0.022939,0.999998,-0.000488,-0.001144,-0.001312,0.609871,0.305826,0.696795,-0.221368,157.796583,80.167437,113.851949
64892,-11.633313,3.021390,-2.252618,1.296179,1.909262,2.196117,-0.090620,-0.339767,-0.378558,-0.116237,0.030424,-0.022737,0.999997,-0.000453,-0.001699,-0.001893,0.610806,0.303880,0.696403,-0.222700,158.457639,80.429874,114.575771
64893,-11.034613,3.446966,-2.050187,1.695406,2.233367,1.588398,-0.059191,-0.377670,-0.505090,-0.110220,0.034742,-0.020720,0.999995,-0.000296,-0.001888,-0.002525,0.611680,0.301546,0.696047,-0.224582,159.543466,80.736578,115.711430
64894,-10.425848,4.134785,-1.857440,2.275343,2.756321,0.979432,-0.047655,-0.355047,-0.578355,-0.104105,0.041645,-0.018769,0.999994,-0.000238,-0.001775,-0.002892,0.612368,0.299013,0.695850,-0.226693,160.990289,81.041191,117.204890
64895,-9.598426,4.796309,-1.291715,3.090946,3.030479,0.090075,-0.077213,-0.315903,-0.585428,-0.095823,0.048239,-0.013087,0.999994,-0.000386,-0.001580,-0.002927,0.612949,0.296408,0.695809,-0.228660,162.590202,81.319200,118.869396
64896,-8.975347,4.102584,-1.157398,2.670579,2.581884,-0.596982,-0.356170,-0.139124,-0.536578,-0.089635,0.041246,-0.011710,0.999995,-0.001781,-0.000696,-0.002683,0.613379,0.293315,0.696549,-0.229244,164.138915,81.485194,120.642599
64897,-8.034646,2.034720,-1.698828,0.790924,1.610202,-1.544478,-0.637685,0.088886,-0.370249,-0.080316,0.020442,-0.017018,0.999993,-0.003188,0.000444,-0.001851,0.613611,0.290196,0.698058,-0.227995,165.183207,81.493750,122.068963
64898,-7.432848,1.043311,-2.619191,-0.597804,1.581025,-2.044881,-0.651201,0.334952,0.001873,-0.074372,0.010347,-0.026101,0.999993,-0.003256,0.001675,0.000009,0.613419,0.288611,0.699789,-0.225203,165.084605,81.309774,122.347094
64899,-6.632796,2.634444,-1.099931,1.517278,1.796807,-2.985295,-0.289907,0.294176,0.601881,-0.066423,0.026129,-0.010940,0.999993,-0.001450,0.001471,0.003009,0.613516,0.290185,0.700112,-0.221885,163.033165,81.054361,120.440163
64900,-5.825096,4.462331,-1.356648,2.480536,3.357774,-3.627532,-0.076428,0.380355,1.240305,-0.058552,0.044256,-0.013472,0.999979,-0.000382,0.001902,0.006201,0.613692,0.294735,0.699517,-0.217230,159.214865,80.619328,116.617430
64901,-7.835481,4.397968,-1.337972,2.563437,2.897581,-1.593330,0.411593,0.517225,1.628712,-0.078744,0.043367,-0.013087,0.999961,0.002058,0.002586,0.008143,0.613056,0.302273,0.698197,-0.212872,155.049923,79.983732,112.153680
64902,-9.895736,4.416804,-1.316863,2.684859,2.402177,0.491956,0.616039,0.543689,1.717793,-0.099367,0.043355,-0.012764,0.999955,0.003080,0.002718,0.008589,0.612060,0.310750,0.696547,-0.208900,151.334282,79.261733,108.018053
64903,-10.294814,4.733735,-0.460248,3.494544,1.798889,0.824613,0.650491,0.467358,1.616709,-0.103337,0.046517,-0.004209,0.999959,0.003252,0.002337,0.008083,0.611119,0.318876,0.694723,-0.205454,148.270916,78.563690,104.517379
64904,-9.717837,5.120152,0.569601,4.420113,1.315902,0.172561,0.409591,0.442946,1.482051,-0.097541,0.050468,0.006016,0.999968,0.002048,0.002215,0.007410,0.610463,0.325748,0.693237,-0.201610,145.718771,77.887745,101.671235
64905,-9.453606,4.690640,0.393538,3.927157,1.035281,-0.064288,0.060780,0.461104,1.404805,-0.094853,0.046240,0.004168,0.999973,0.000304,0.002305,0.007024,0.610198,0.331288,0.692240,-0.196748,143.443314,77.204780,99.305987
64906,-9.373622,3.408330,0.191443,2.822006,0.156842,-0.245651,-0.244523,0.442234,1.371435,-0.093963,0.033442,0.002081,0.999973,-0.001223,0.002211,0.006857,0.610437,0.335742,0.691505,-0.190954,141.270414,76.523217,97.219129
64907,-9.527520,2.129543,0.011394,1.740914,-0.775580,-0.237985,-0.375332,0.441477,1.328718,-0.095413,0.020662,0.000285,0.999974,-0.001877,0.002207,0.006644,0.610827,0.339634,0.690926,-0.184826,139.301496,75.840534,95.413673
64908,-9.856467,1.195380,-0.545667,0.633510,-1.253875,0.031175,-0.380989,0.363157,1.271842,-0.098648,0.011316,-0.005300,0.999976,-0.001905,0.001816,0.006359,0.611411,0.343219,0.690176,-0.178980,137.481793,75.199621,93.760273
64909,-9.849845,0.749494,-0.515588,0.279062,-1.692520,-0.070855,-0.228326,0.241353,1.197816,-0.098547,0.006899,-0.005045,0.999981,-0.001142,0.001207,0.005989,0.612063,0.346895,0.689012,-0.174084,135.824667,74.625913,92.180139
64910,-9.962417,0.839718,-0.186310,0.513953,-1.973075,-0.023336,-0.247625,0.170197,1.090115,-0.099670,0.007852,-0.001788,0.999984,-0.001238,0.000851,0.005451,0.612876,0.350063,0.687811,-0.169573,134.324043,74.113987,90.769756
64911,-10.083420,0.744084,-0.107624,0.442379,-2.206155,0.045154,-0.392452,0.106545,0.931710,-0.100868,0.006969,-0.001036,0.999987,-0.001962,0.000533,0.004659,0.614011,0.352181,0.686793,-0.165152,132.951098,73.683160,89.575422
64912,-9.856935,0.306404,-0.370462,-0.103731,-2.339233,-0.225871,-0.545512,0.059527,0.741900,-0.098581,0.002688,-0.003683,0.999989,-0.002728,0.000298,0.003709,0.615404,0.353127,0.686076,-0.160870,131.733714,73.343907,88.632324
64913,-9.595115,-0.510143,-0.632580,-0.893822,-2.712964,-0.616642,-0.589752,0.025435,0.561488,-0.095937,-0.005389,-0.006298,0.999992,-0.002949,0.000127,0.002807,0.616836,0.353287,0.685593,-0.157045,130.705723,73.089746,87.912132
64914,-9.509994,-1.149909,-1.111774,-1.710383,-2.863483,-0.764306,-0.561888,-0.003861,0.402850,-0.095076,-0.011722,-0.011087,0.999994,-0.002809,-0.000019,0.002014,0.618185,0.352958,0.685271,-0.153858,129.868441,72.912791,87.373765
64915,-9.309576,-1.360445,-1.177673,-1.922118,-2.937258,-1.004519,-0.439033,-0.063037,0.264110,-0.093074,-0.013753,-0.011776,0.999997,-0.002195,-0.000315,0.001321,0.619408,0.352487,0.684907,-0.151621,129.191457,72.816368,86.929141
64916,-9.079774,-1.115524,-1.173167,-1.769914,-2.714554,-1.177783,-0.345888,-0.092787,0.165333,-0.090783,-0.011251,-0.011754,0.999998,-0.001729,-0.000464,0.000827,0.620489,0.351939,0.684553,-0.150063,128.646352,72.773596,86.566484
64917,-9.150235,-0.680914,-1.220682,-1.532011,-2.403605,-1.006093,-0.311708,-0.113076,0.078510,-0.091493,-0.006864,-0.012248,0.999999,-0.001559,-0.000565,0.000393,0.621514,0.351186,0.684259,-0.148925,128.191610,72.775858,86.277922
64918,-9.134324,-0.379841,-1.106956,-1.258996,-2.256981,-0.973770,-0.333309,-0.128098,-0.009951,-0.091336,-0.003812,-0.011122,0.999998,-0.001667,-0.000640,-0.000050,0.622559,0.350048,0.684089,-0.148016,127.804110,72.822966,86.072713
64919,-9.275013,-0.016045,-1.228765,-1.120775,-1.954242,-0.731896,-0.394805,-0.130740,-0.095432,-0.092742,-0.000141,-0.012348,0.999998,-0.001974,-0.000654,-0.000477,0.623656,0.348426,0.684102,-0.147165,127.471639,72.909226,85.962046
64920,-9.456827,0.222053,-1.283779,-1.013559,-1.788283,-0.490473,-0.452175,-0.129066,-0.197873,-0.094558,0.002285,-0.012904,0.999997,-0.002261,-0.000645,-0.000989,0.624767,0.346271,0.684338,-0.146435,127.224028,73.041574,85.974557
64921,-9.488920,0.300498,-1.591077,-1.194293,-1.526049,-0.383678,-0.522004,-0.122000,-0.305082,-0.094875,0.003108,-0.015977,0.999995,-0.002610,-0.000610,-0.001525,0.625893,0.343535,0.684827,-0.145786,127.066917,73.220326,86.123432
64922,-9.572657,0.633857,-1.868244,-1.184183,-1.107026,-0.174224,-0.628858,-0.132431,-0.425324,-0.095700,0.006483,-0.018766,0.999993,-0.003144,-0.000662,-0.002127,0.627142,0.340040,0.685560,-0.145165,126.972861,73.457904,86.401871
64923,-9.345573,0.915518,-2.156364,-1.211839,-0.621595,-0.274724,-0.762015,-0.148484,-0.536158,-0.093415,0.009323,-0.021668,0.999989,-0.003810,-0.000742,-0.002681,0.628581,0.335731,0.686514,-0.144459,126.909747,73.751786,86.791693
64924,-8.899427,0.342429,-2.387502,-1.743427,-0.734823,-0.788410,-0.884321,-0.157416,-0.636084,-0.088964,0.003601,-0.023961,0.999985,-0.004422,-0.000787,-0.003180,0.630166,0.330679,0.687680,-0.143659,126.889700,74.094696,87.298647
64925,-8.413418,-0.801130,-2.415750,-2.472065,-1.395170,-1.493702,-0.869460,-0.159846,-0.729421,-0.084144,-0.007810,-0.024191,0.999984,-0.004347,-0.000799,-0.003647,0.631650,0.325341,0.688959,-0.143204,127.000475,74.481008,87.931719
64926,-7.900687,-1.499678,-2.125043,-2.658250,-1.921508,-2.168931,-0.712368,-0.204873,-0.811476,-0.079045,-0.014752,-0.021279,0.999985,-0.003562,-0.001024,-0.004057,0.632954,0.320172,0.690097,-0.143618,127.252447,74.919899,88.616614
64927,-6.565996,-1.012289,-1.877134,-2.128348,-1.318032,-3.378917,-0.564046,-0.213682,-0.885050,-0.065684,-0.009885,-0.018813,0.999986,-0.002820,-0.001068,-0.004425,0.633980,0.315205,0.691196,-0.144786,127.701816,75.394185,89.416308
64928,-5.136654,1.442458,-4.110216,-2.345290,2.276304,-3.923902,-0.641415,-0.000255,-0.845683,-0.051305,0.014510,-0.041149,0.999986,-0.003207,-0.000001,-0.004228,0.634400,0.310273,0.692949,-0.145222,128.471363,75.773105,90.590833
64929,-9.855953,10.004417,-13.827823,-4.775814,13.410090,3.818021,-1.042042,0.990494,-0.389413,-0.099050,0.099516,-0.138308,0.999972,-0.005210,0.004952,-0.001947,0.632315,0.306359,0.697397,-0.141279,130.122148,75.583858,92.911246
64930,-22.465837,9.354017,-3.657824,3.078434,3.708304,14.319467,0.662156,0.323215,0.375368,-0.224892,0.093238,-0.035906,0.999991,0.003311,0.001616,0.001877,0.630463,0.310016,0.697336,-0.141879,130.484331,75.297741,92.893983
64931,-11.926291,-1.163047,4.912628,3.254425,-6.805402,0.714237,1.746945,-0.915279,-0.062082,-0.119489,-0.012019,0.048476,0.999951,0.008735,-0.004576,-0.000310,0.630901,0.314672,0.693239,-0.149549,130.002593,75.661158,91.363001
64932,-5.929563,-0.991445,0.809363,0.061594,-2.688840,-4.375421,0.053070,-0.050371,-0.862031,-0.059340,-0.009661,0.008076,0.999991,0.000265,-0.000252,-0.004310,0.630371,0.311840,0.694356,-0.152503,131.195452,76.052697,92.562292
64933,-11.729547,9.588561,3.195570,8.636801,2.621135,2.767686,-1.405711,0.491152,-1.045034,-0.116714,0.096719,0.031565,0.999959,-0.007028,0.002456,-0.005225,0.630066,0.304173,0.698542,-0.150117,132.841739,76.306995,95.087601
64934,-8.091463,4.185026,1.301812,3.757793,0.584138,-1.433064,-1.320975,-0.114587,-0.456196,-0.080826,0.042119,0.012694,0.999975,-0.006605,-0.000573,-0.002281,0.632147,0.298353,0.699815,-0.147085,132.591798,76.541536,95.609603
64935,-7.513633,-3.878994,-4.928973,-6.076868,-1.924225,-2.385412,-1.202173,0.382536,-0.400406,-0.075308,-0.038934,-0.048912,0.999978,-0.006011,0.001913,-0.002002,0.632325,0.293458,0.702455,-0.143542,133.198132,76.558280,96.941774
64936,-12.038705,-6.165750,-5.770148,-7.926971,-4.331575,1.790824,-0.449158,0.279427,-0.511230,-0.120625,-0.061478,-0.057395,0.999993,-0.002246,0.001397,-0.002556,0.631661,0.290471,0.704373,-0.143143,134.248965,76.657390,98.287030
64937,-9.636399,-2.954728,-3.034597,-3.865635,-2.781518,-0.425510,0.648184,-0.088456,-0.365767,-0.096404,-0.029272,-0.030484,0.999993,0.003241,-0.000442,-0.001829,0.630795,0.291194,0.704122,-0.146680,135.063601,76.840207,98.742930
64938,-9.392984,-0.924348,-3.034178,-2.648130,-1.084979,-0.320644,0.500334,0.068739,-0.274309,-0.093953,-0.009039,-0.030332,0.999996,0.002502,0.000344,-0.001372,0.629651,0.291885,0.704335,-0.149179,135.920661,76.920577,99.329118
64939,-9.827989,-0.199119,-2.168392,-1.481705,-1.091235,0.084011,0.142936,0.098825,-0.229509,-0.098293,-0.001863,-0.021637,0.999999,0.000715,0.000494,-0.001148,0.628953,0.291630,0.704840,-0.150234,136.551599,76.968980,99.893245
64940,-9.840864,0.227952,-2.192642,-1.224688,-0.732379,0.170597,0.025139,0.073934,-0.206030,-0.098414,0.002384,-0.021890,0.999999,0.000126,0.000370,-0.001030,0.628531,0.291068,0.705321,-0.150835,137.034648,77.017355,100.374740
64941,-9.263347,0.657829,-2.272792,-1.037717,-0.210810,-0.310761,0.010278,0.080255,-0.185961,-0.092636,0.006666,-0.022690,0.999999,0.000051,0.000401,-0.000930,0.628122,0.290534,0.705802,-0.151312,137.486441,77.054368,100.832823
64942,-9.603134,0.544424,-2.121076,-0.952681,-0.454633,-0.019771,0.174679,0.115616,-0.154116,-0.096039,0.005537,-0.021150,0.999999,0.000873,0.000578,-0.000771,0.627374,0.290655,0.706223,-0.152217,138.035154,77.063230,101.293653
64943,-9.829551,1.430615,-1.512636,0.093916,-0.154131,0.233317,0.325836,0.045914,-0.129351,-0.098290,0.014394,-0.015080,0.999998,0.001629,0.000230,-0.000647,0.626669,0.291284,0.706273,-0.153680,138.509546,77.091521,101.589348
64944,-9.199316,2.915460,-1.304803,1.144880,1.033819,-0.197581,0.258278,0.025371,-0.152421,-0.091973,0.029242,-0.012999,0.999999,0.001291,0.000127,-0.000762,0.626116,0.291604,0.706342,-0.155006,138.956480,77.136854,101.896532
64945,-8.944323,3.659510,-1.348469,1.566511,1.705108,-0.333768,0.143733,0.050233,-0.173066,-0.089415,0.036682,-0.013436,0.999999,0.000719,0.000251,-0.000865,0.625625,0.291511,0.706607,-0.155955,139.420522,77.178575,102.288532
64946,-8.872145,3.455619,-1.568989,1.280345,1.700112,-0.400552,0.002585,0.075671,-0.198857,-0.088693,0.034645,-0.015656,0.999999,0.000013,0.000378,-0.000994,0.625229,0.290904,0.707098,-0.156449,139.897527,77.218052,102.776687
64947,-8.978223,2.539567,-1.858061,0.514600,1.141187,-0.381721,-0.116543,0.092160,-0.225543,-0.089762,0.025486,-0.018554,0.999999,-0.000583,0.000461,-0.001128,0.624926,0.289844,0.707772,-0.156580,140.387646,77.259112,103.348215
64948,-9.346099,1.718344,-2.274964,-0.280082,0.674343,-0.068740,-0.106796,0.091791,-0.241158,-0.093451,0.017284,-0.022716,0.999999,-0.000534,0.000459,-0.001206,0.624597,0.288758,0.708458,-0.156796,140.917174,77.304932,103.954298
64949,-9.346954,1.427455,-2.303273,-0.462139,0.475524,-0.103490,-0.071811,0.068472,-0.252815,-0.093459,0.014384,-0.023006,0.999999,-0.000359,0.000342,-0.001264,0.624290,0.287721,0.709059,-0.157205,141.456811,77.364034,104.550104
64950,-9.421312,1.108908,-2.222828,-0.570906,0.176951,-0.087746,-0.055269,0.051375,-0.237706,-0.094206,0.011195,-0.022207,0.999999,-0.000276,0.000257,-0.001189,0.624031,0.286775,0.709572,-0.157650,141.953850,77.424343,105.092379
64951,-9.460781,0.862925,-2.393201,-0.838204,0.088638,-0.052158,-0.014070,0.033883,-0.223651,-0.094602,0.008733,-0.023917,0.999999,-0.000070,0.000169,-0.001118,0.623785,0.285994,0.709976,-0.158222,142.423029,77.486554,105.581837
64952,-9.454474,0.756367,-2.296431,-0.812198,-0.035427,-0.087884,0.018831,0.024222,-0.218889,-0.094539,0.007669,-0.022952,0.999999,0.000094,0.000121,-0.001094,0.623529,0.285324,0.710317,-0.158910,142.891070,77.550718,106.050666
64953,-9.650448,0.724941,-1.770524,-0.387646,-0.390454,0.010177,0.118267,0.003967,-0.217847,-0.096497,0.007365,-0.017699,0.999999,0.000591,0.000020,-0.001089,0.623203,0.284952,0.710513,-0.159975,143.387201,77.622869,106.489840
64954,-9.434538,1.246391,-1.071139,0.483734,-0.326224,-0.253877,0.142017,-0.001100,-0.224600,-0.094331,0.012577,-0.010703,0.999999,0.000710,-0.000006,-0.001123,0.622855,0.284625,0.710682,-0.161154,143.909008,77.698896,106.941200
64955,-9.320524,1.723327,-0.764340,1.022322,-0.091392,-0.358973,0.038446,0.022662,-0.213879,-0.093188,0.017334,-0.007630,0.999999,0.000192,0.000113,-0.001069,0.622578,0.284032,0.710994,-0.161897,144.390700,77.759366,107.412158
64956,-9.390816,1.312424,-0.971141,0.627319,-0.294578,-0.306233,-0.059885,0.054523,-0.205427,-0.093897,0.013218,-0.009690,0.999999,-0.000299,0.000273,-0.001027,0.622333,0.283189,0.711470,-0.162219,144.851013,77.801399,107.918757
64957,-9.616029,0.541243,-1.344547,-0.106432,-0.717973,-0.115166,-0.096441,0.076386,-0.201401,-0.096160,0.005503,-0.013411,0.999999,-0.000482,0.000382,-0.001007,0.622065,0.282263,0.712039,-0.162367,145.317680,77.830908,108.453247
64958,-9.556517,-0.131495,-1.749953,-0.823410,-0.990952,-0.182183,-0.030931,0.077871,-0.184620,-0.095573,-0.001229,-0.017462,0.999999,-0.000155,0.000389,-0.000923,0.621713,0.281602,0.712534,-0.162694,145.789775,77.853414,108.954811
64959,-9.567636,-0.190427,-1.815550,-0.895546,-0.992777,-0.164656,0.115223,0.067678,-0.155586,-0.095684,-0.001819,-0.018124,0.999999,0.000576,0.000338,-0.000778,0.621213,0.281491,0.712836,-0.163466,146.267841,77.870545,109.376813
64960,-9.435150,0.028658,-1.602132,-0.588955,-0.909754,-0.303998,0.244838,0.069285,-0.126146,-0.094357,0.000366,-0.015988,0.999999,0.001224,0.000346,-0.000631,0.620549,0.281887,0.712996,-0.164606,146.758262,77.876897,109.735450
64961,-9.663136,0.222905,-1.262332,-0.172966,-0.993288,-0.117183,0.391876,0.052527,-0.089764,-0.096634,0.002297,-0.012593,0.999998,0.001959,0.000263,-0.000449,0.619765,0.282855,0.712929,-0.166180,147.227542,77.879284,109.986309
64962,-9.651557,-0.040766,-1.496679,-0.508022,-1.052844,-0.115900,0.503384,0.046166,-0.069770,-0.096519,-0.000336,-0.014945,0.999997,0.002517,0.000231,-0.000349,0.618860,0.284233,0.712718,-0.168098,147.706722,77.878176,110.181930
64963,-9.681977,-0.257595,-1.960429,-0.992115,-0.943945,-0.026219,0.633438,0.039223,-0.058996,-0.096824,-0.002485,-0.019593,0.999995,0.003167,0.000196,-0.000295,0.617799,0.286044,0.712355,-0.170455,148.226225,77.876800,110.342585
64964,-9.597752,0.034183,-1.943284,-0.792557,-0.697658,-0.077213,0.796556,0.013327,-0.038106,-0.095979,0.000437,-0.019425,0.999992,0.003983,0.000067,-0.000191,0.616606,0.288407,0.711733,-0.173362,148.755457,77.881519,110.417592
64965,-9.578880,0.804414,-1.668246,-0.085174,-0.253615,-0.060074,0.881000,0.016086,-0.017947,-0.095789,0.008126,-0.016639,0.999990,0.004405,0.000080,-0.000090,0.615288,0.291099,0.711006,-0.176502,149.291152,77.878793,110.449726
64966,-9.479784,1.713429,-1.684732,0.487329,0.478389,-0.056967,0.793553,0.032277,-0.023517,-0.094799,0.017212,-0.016764,0.999992,0.003968,0.000161,-0.000118,0.614024,0.293512,0.710401,-0.179321,149.811096,77.869623,110.516995
64967,-9.258483,2.042365,-2.050988,0.422240,0.998999,-0.173135,0.569714,0.077024,-0.045120,-0.092588,0.020503,-0.020416,0.999996,0.002849,0.000385,-0.000226,0.612903,0.295197,0.710157,-0.181343,150.311800,77.844289,110.695776
64968,-9.290820,1.797597,-2.312124,0.091123,0.968756,-0.119919,0.406711,0.104977,-0.069793,-0.092914,0.018055,-0.023036,0.999998,0.002034,0.000525,-0.000349,0.611898,0.296319,0.710179,-0.182820,150.811051,77.811627,110.968629
64969,-9.561965,1.259122,-2.676786,-0.490947,0.736872,0.157152,0.359080,0.101388,-0.091235,-0.095627,0.012683,-0.026697,0.999998,0.001795,0.000507,-0.000456,0.610953,0.297214,0.710262,-0.184197,151.326233,77.786181,111.285745
64970,-9.546154,0.857696,-2.979887,-0.959281,0.633652,0.158402,0.462228,0.076904,-0.113019,-0.095468,0.008700,-0.029742,0.999997,0.002311,0.000385,-0.000565,0.609919,0.298324,0.710204,-0.186043,151.918753,77.778382,111.621530
64971,-9.487908,0.761068,-3.244979,-1.201215,0.753611,0.143143,0.639006,0.048767,-0.133977,-0.094882,0.007778,-0.032402,0.999995,0.003195,0.000244,-0.000670,0.608697,0.299869,0.709922,-0.188621,152.626775,77.789592,111.971882
64972,-9.608670,1.111086,-3.549784,-1.159025,1.208207,0.353862,0.825846,0.008910,-0.171815,-0.096079,0.011340,-0.035447,0.999991,0.004129,0.000045,-0.000859,0.607292,0.301807,0.709388,-0.192035,153.484690,77.830012,112.366006
64973,-10.998219,1.358886,-3.918209,-1.115486,1.391605,1.805338,1.025310,-0.028641,-0.220020,-0.109961,0.013911,-0.039127,0.999986,0.005127,-0.000143,-0.001100,0.605659,0.304136,0.708607,-0.196354,154.533619,77.900408,112.838574
64974,-12.816025,3.444456,-6.021499,-1.064499,4.007319,4.158003,1.136202,-0.315666,-0.397575,-0.127996,0.035041,-0.060219,0.999981,0.005681,-0.001578,-0.001988,0.604680,0.305881,0.707093,-0.202035,155.768422,78.160869,113.435861
64975,-8.885379,4.956649,-6.651633,-0.735368,6.365462,0.516913,1.358936,-0.593321,-0.561779,-0.088516,0.050267,-0.066439,0.999969,0.006795,-0.002967,-0.002809,0.604145,0.307422,0.704732,-0.209413,157.291085,78.601521,114.196058
64976,-9.613214,5.910010,-6.286614,0.355928,6.786806,1.172457,1.517090,-0.589626,-0.699389,-0.095739,0.059911,-0.062696,0.999961,0.007585,-0.002948,-0.003497,0.603168,0.308939,0.702377,-0.217744,159.380228,79.064436,115.440003
64977,-10.869997,7.070118,-5.047364,2.290962,6.668633,2.182995,1.850789,-0.750431,-0.813883,-0.108221,0.071608,-0.050220,0.999942,0.009254,-0.003752,-0.004069,0.602056,0.310855,0.699284,-0.227817,161.987342,79.625463,117.014471
64978,-10.040372,6.754877,-3.627951,3.143912,5.698089,1.015231,2.067495,-0.862929,-0.907560,-0.099939,0.068376,-0.036007,0.999927,0.010337,-0.004315,-0.004538,0.600816,0.312926,0.695657,-0.239077,165.156594,80.248452,119.030598
64979,-9.033880,5.667133,-1.821818,3.650485,3.888749,-0.400140,2.100432,-0.658799,-0.956063,-0.090007,0.057291,-0.017916,0.999928,0.010502,-0.003294,-0.004780,0.598669,0.315128,0.692582,-0.250240,169.004165,80.740580,121.712201
64980,-10.026608,5.930728,-1.793849,4.074182,3.958751,0.514542,1.719749,-0.372109,-0.935417,-0.099954,0.059928,-0.017611,0.999950,0.008599,-0.001861,-0.004677,0.596083,0.316581,0.690723,-0.259545,173.043052,81.037357,124.805228
64981,-10.011113,7.200189,-1.996251,5.010043,4.987378,0.486540,1.344576,-0.268729,-0.760710,-0.099809,0.072515,-0.019610,0.999969,0.006723,-0.001344,-0.003804,0.593912,0.317630,0.689329,-0.266844,176.463479,81.233068,127.488045
64982,-7.359039,8.360909,-2.716185,5.270535,6.613243,-2.071649,0.841846,-0.071732,-0.438762,-0.073397,0.083884,-0.026835,0.999989,0.004209,-0.000359,-0.002194,0.592266,0.318543,0.688648,-0.271135,178.527902,81.288282,129.089209
64983,-7.039485,8.933553,-2.206851,6.063957,6.618390,-2.487526,0.522897,0.130716,0.015565,-0.070416,0.089387,-0.021789,0.999996,0.002614,0.000654,0.000078,0.591038,0.320349,0.688267,-0.272651,178.737838,81.216077,128.999283
64984,-6.799420,9.210720,-1.099054,6.986476,5.944502,-2.875176,0.273982,0.259180,0.461744,-0.068221,0.091965,-0.010776,0.999996,0.001370,0.001296,0.002309,0.590370,0.323125,0.687884,-0.271789,177.193329,81.061477,127.277747
64985,-6.484575,9.574904,-1.626834,6.890906,6.560025,-3.041001,-0.196493,0.495722,0.798676,-0.065268,0.095473,-0.016201,0.999988,-0.000982,0.002479,0.003993,0.590097,0.325991,0.688283,-0.267920,174.317440,80.746781,124.480097
64986,-6.874690,9.383393,-1.455617,6.847216,6.199757,-2.594274,-0.625986,0.697836,0.988206,-0.069260,0.093447,-0.014608,0.999977,-0.003130,0.003489,0.004941,0.590062,0.328497,0.689521,-0.261683,170.868412,80.279754,121.347437
64987,-7.331518,8.881759,-1.400195,6.474959,5.708604,-2.061405,-0.885710,0.807880,1.089754,-0.073854,0.088354,-0.014096,0.999967,-0.004429,0.004039,0.005449,0.590174,0.330717,0.691217,-0.254047,167.338732,79.708639,118.279479
64988,-7.883885,8.379777,-1.336895,6.099195,5.187075,-1.442754,-1.205018,0.832978,1.100799,-0.079354,0.083281,-0.013542,0.999958,-0.006025,0.004165,0.005504,0.590697,0.332036,0.693323,-0.245222,163.978729,79.091707,115.564130
64989,-8.127465,7.469192,-1.624451,5.144092,4.699418,-1.098612,-1.627271,0.840951,1.074132,-0.081743,0.074120,-0.016506,0.999944,-0.008136,0.004205,0.005371,0.591803,0.331997,0.695944,-0.234965,160.786823,78.446826,113.261427
64990,-8.424652,5.529941,-2.206659,3.230485,3.697943,-0.740119,-1.800380,0.821716,1.097229,-0.084639,0.054636,-0.022213,0.999936,-0.009002,0.004108,0.005486,0.593217,0.331459,0.698591,-0.224051,157.721335,77.784857,111.183499
64991,-8.775528,3.175058,-2.582719,1.182728,2.191277,-0.455404,-1.637917,0.754395,1.165027,-0.088035,0.031027,-0.025752,0.999942,-0.008189,0.003772,0.005825,0.594603,0.331529,0.700657,-0.213577,154.783213,77.120185,109.135905
64992,-9.049164,1.705499,-2.631755,0.029287,1.026863,-0.290875,-1.289919,0.669024,1.232490,-0.090681,0.016328,-0.026121,0.999955,-0.006449,0.003345,0.006162,0.595720,0.332739,0.701915,-0.204251,152.054518,76.461704,107.092775
64993,-8.782794,1.267357,-2.290498,-0.133870,0.416991,-0.658644,-0.916071,0.554423,1.312532,-0.087971,0.011992,-0.022717,0.999964,-0.004580,0.002772,0.006563,0.596652,0.335205,0.702257,-0.196162,149.466090,75.816183,104.968349
64994,-8.341015,1.426250,-2.155574,-0.022527,0.416676,-1.090446,-0.624753,0.518235,1.404315,-0.083563,0.013609,-0.021383,0.999967,-0.003124,0.002591,0.007022,0.597269,0.338797,0.702004,-0.188880,147.042573,75.140006,102.835193
64995,-8.296418,1.557176,-2.081515,0.052873,0.346763,-1.125720,-0.391488,0.490818,1.478985,-0.083127,0.014917,-0.020641,0.999968,-0.001957,0.002454,0.007395,0.597620,0.343307,0.701275,-0.182217,144.787540,74.430526,100.731746
64996,-8.388991,1.287236,-2.160454,-0.253077,0.062340,-1.058824,-0.230826,0.482154,1.510415,-0.084036,0.012213,-0.021416,0.999968,-0.001154,0.002411,0.007552,0.597715,0.348370,0.700276,-0.176037,142.757813,73.695379,98.759002
64997,-8.824507,1.301539,-2.293280,-0.385124,-0.086673,-0.611191,-0.109719,0.446566,1.492354,-0.088390,0.012344,-0.022742,0.999970,-0.000549,0.002233,0.007462,0.597670,0.353684,0.699049,-0.170375,140.950533,72.963818,96.939097
64998,-8.863796,1.224618,-2.050515,-0.330069,-0.435081,-0.649096,-0.019537,0.388424,1.453599,-0.088763,0.011599,-0.020334,0.999972,-0.000098,0.001942,0.007268,0.597600,0.359056,0.697601,-0.165248,139.331212,72.257956,95.254518
64999,-8.918275,0.969965,-1.850521,-0.428558,-0.874944,-0.704981,-0.005695,0.361016,1.386831,-0.089280,0.009080,-0.018344,0.999974,-0.000028,0.001805,0.006934,0.597513,0.364200,0.696139,-0.160397,137.897078,71.574839,93.750329
65000,-8.954233,0.653982,-1.676011,-0.585381,-1.327098,-0.795489,-0.007020,0.376061,1.314199,-0.089614,0.005951,-0.016592,0.999977,-0.000035,0.001880,0.006571,0.597287,0.369075,0.694822,-0.155735,136.674297,70.904193,92.463739
65001,-9.600397,0.676813,-1.556795,-0.533604,-1.711098,-0.229611,-0.073361,0.405020,1.244601,-0.096075,0.006165,-0.015376,0.999979,-0.000367,0.002025,0.006223,0.597003,0.373522,0.693739,-0.150979,135.608510,70.239906,91.379190
65002,-10.560910,0.889069,-1.260400,-0.224471,-2.200017,0.628576,-0.176723,0.380620,1.157607,-0.105682,0.008268,-0.012410,0.999981,-0.000884,0.001903,0.005788,0.596905,0.377319,0.692797,-0.146174,134.623646,69.615558,90.438988
65003,-11.269250,0.819830,-0.815465,-0.012927,-2.894820,1.139556,-0.371343,0.321506,1.042606,-0.112746,0.007596,-0.007988,0.999983,-0.001857,0.001608,0.005213,0.597275,0.380086,0.692011,-0.141134,133.638482,69.055476,89.614472
65004,-11.980752,0.371293,-1.001589,-0.520127,-3.430255,1.704308,-0.574307,0.246548,0.881248,-0.119834,0.003156,-0.009878,0.999985,-0.002872,0.001233,0.004406,0.598156,0.381617,0.691430,-0.136021,132.666632,68.588506,88.925661
65005,-12.382668,-0.282756,-0.632929,-0.761955,-4.335809,1.781732,-0.762789,0.111173,0.659525,-0.123820,-0.003260,-0.006249,0.999987,-0.003814,0.000556,0.003298,0.599698,0.381722,0.690975,-0.131166,131.688367,68.262498,88.344627
65006,-12.090319,-0.939986,-0.235040,-0.957936,-4.979366,1.205601,-1.024210,0.008506,0.404540,-0.120884,-0.009656,-0.002296,0.999985,-0.005121,0.000043,0.002023,0.601909,0.380077,0.690852,-0.126373,130.712798,68.082676,87.926402
65007,-11.641351,-1.469305,-0.272395,-1.354012,-5.176330,0.633668,-1.322576,-0.078241,0.095876,-0.116405,-0.014767,-0.002672,0.999978,-0.006613,-0.000391,0.000479,0.604770,0.376405,0.691215,-0.121631,129.763504,68.066388,87.720864
65008,-11.413618,-2.217427,-0.458605,-1.978112,-5.497140,0.250435,-1.619261,-0.161224,-0.234409,-0.114158,-0.022077,-0.004499,0.999966,-0.008096,-0.000806,-0.001172,0.608240,0.370617,0.692093,-0.117019,128.853169,68.226396,87.740184
65009,-11.002107,-3.593537,-0.445733,-2.820160,-6.309420,-0.517740,-1.885811,-0.256337,-0.569022,-0.110117,-0.035663,-0.004261,0.999951,-0.009429,-0.001282,-0.002845,0.612289,0.362779,0.693398,-0.112663,127.975306,68.569723,87.958969
65010,-10.461994,-5.586623,-0.483610,-4.036633,-7.504088,-1.548869,-1.890697,-0.349134,-0.857579,-0.104850,-0.055461,-0.004493,0.999945,-0.009453,-0.001746,-0.004288,0.616440,0.353831,0.694875,-0.109336,127.240090,69.078431,88.332786
65011,-9.674284,-7.695336,-0.378668,-5.154611,-8.818859,-2.840658,-1.672349,-0.455316,-1.052639,-0.097138,-0.076472,-0.003367,0.999949,-0.008362,-0.002277,-0.005263,0.620403,0.344787,0.696174,-0.107540,126.672995,69.713860,88.751376
65012,-9.282038,-8.849380,-0.364136,-5.729607,-9.545067,-3.436047,-1.301729,-0.544704,-1.176961,-0.093330,-0.087968,-0.003321,0.999958,-0.006509,-0.002723,-0.005885,0.623912,0.336375,0.697148,-0.107569,126.323744,70.438843,89.173741
65013,-10.647293,-7.791111,-6.224445,-9.661871,-5.889470,-0.605590,-1.414312,-0.131305,-1.309060,-0.106941,-0.077650,-0.061765,0.999953,-0.007071,-0.000657,-0.006545,0.626045,0.327347,0.699630,-0.106910,126.597351,71.083640,90.322464
65014,-16.375359,-4.568868,-19.563255,-18.391797,1.978592,8.341165,-1.816490,0.992657,-1.141114,-0.164984,-0.046519,-0.194396,0.999930,-0.009082,0.004963,-0.005705,0.624920,0.318207,0.705492,-0.102470,128.026365,71.256287,92.932403
65015,-22.546372,-8.306487,-9.347234,-12.019733,-8.430828,11.380228,2.338271,0.044545,-0.696609,-0.225770,-0.081179,-0.094379,0.999926,0.011691,0.000223,-0.003483,0.620667,0.323087,0.705455,-0.112787,130.152964,71.547161,93.763297
65016,-8.400539,-4.014061,5.646679,2.191375,-8.872412,-3.893416,2.565414,-1.739784,-0.682567,-0.084627,-0.040566,0.055214,0.999874,0.012827,-0.008699,-0.003413,0.622224,0.327650,0.699588,-0.126724,130.029034,72.486036,92.088175
65017,-2.031873,-0.161450,-0.945505,-0.816024,-0.170900,-7.726204,0.510699,-0.062935,-0.819939,-0.020322,-0.001507,-0.009465,0.999988,0.002553,-0.000315,-0.004100,0.621109,0.326357,0.700370,-0.131136,131.193056,72.863720,93.001586
65018,-14.393509,8.620490,5.013539,9.553400,-0.651968,4.847698,-0.091944,0.326942,-0.842675,-0.143488,0.086833,0.050330,0.999990,-0.000460,0.001635,-0.004213,0.619585,0.323361,0.702778,-0.132871,132.627565,73.095788,94.557405
65019,-9.308046,4.504041,4.012647,6.149288,-1.616227,-0.724176,-0.384783,-0.374484,-0.405873,-0.093064,0.045306,0.039865,0.999994,-0.001924,-0.001872,-0.002029,0.621279,0.320523,0.702491,-0.133354,132.381042,73.409993,94.530766
65020,-6.724032,0.307197,0.559842,0.802346,-1.995805,-3.410094,-0.813129,0.291752,-0.606570,-0.067222,0.003299,0.005683,0.999986,-0.004066,0.001459,-0.003033,0.621174,0.316086,0.704868,-0.131887,133.101774,73.549751,95.768997
65021,-11.126484,-0.375182,-0.284043,-0.093271,-3.245297,0.839952,-1.016274,0.447373,-0.689819,-0.111283,-0.003382,-0.002574,0.999979,-0.005081,0.002237,-0.003449,0.620765,0.310818,0.707967,-0.129711,134.053071,73.657372,97.368125
65022,-10.125842,-0.818476,-0.668205,-0.640210,-3.066888,-0.125932,-0.444257,0.135326,-0.452277,-0.101281,-0.007970,-0.006596,0.999995,-0.002221,0.000677,-0.002261,0.620709,0.307954,0.709341,-0.129306,134.585417,73.786746,98.188389
65023,-9.224134,-2.560895,-3.446713,-3.905809,-2.592200,-0.782311,-0.408491,0.210904,-0.356672,-0.092323,-0.025515,-0.034318,0.999996,-0.002042,0.001055,-0.001783,0.620387,0.305588,0.710771,-0.128612,135.119290,73.844606,98.988506
65024,-10.006258,-4.114080,-4.529420,-5.628525,-3.409326,-0.103798,0.077467,0.228612,-0.309763,-0.100178,-0.040968,-0.045196,0.999998,0.000387,0.001143,-0.001549,0.619285,0.304904,0.711868,-0.129473,135.894886,73.873831,99.750239
65025,-9.543955,-2.789063,-4.732303,-4.997287,-2.101117,-0.227662,0.829120,0.028142,-0.242568,-0.095480,-0.027578,-0.047424,0.999991,0.004146,0.000141,-0.001213,0.617788,0.306653,0.711748,-0.133105,136.733428,73.956601,100.129027
65026,-8.747497,0.417961,-4.650065,-3.010886,0.615141,-0.385480,1.194570,-0.031693,-0.185899,-0.087463,0.004539,-0.046488,0.999982,0.005973,-0.000158,-0.000929,0.615964,0.309685,0.711093,-0.137951,137.623430,74.040791,100.343394
65027,-8.723403,2.764173,-3.534724,-0.644857,1.823544,-0.195456,1.264941,0.009890,-0.149955,-0.087215,0.027930,-0.035167,0.999980,0.006325,0.000049,-0.000750,0.613884,0.313078,0.710435,-0.142867,138.561723,74.092602,100.565952
65028,-9.052191,4.758503,-1.740799,2.073264,2.213064,0.107974,1.017224,0.025350,-0.156532,-0.090487,0.047744,-0.017154,0.999987,0.005086,0.000127,-0.000783,0.612111,0.315688,0.709988,-0.146893,139.391674,74.139195,100.823404
65029,-8.917849,6.003308,-0.643954,3.746586,2.537212,-0.039871,0.454965,0.039922,-0.200588,-0.089119,0.060137,-0.006285,0.999997,0.002275,0.000200,-0.001003,0.611132,0.316426,0.710057,-0.149034,139.989481,74.194884,101.174342
65030,-8.730741,5.586117,-0.742351,3.422733,2.338722,-0.283950,-0.060232,0.101259,-0.245818,-0.087242,0.055966,-0.007396,0.999999,-0.000301,0.000506,-0.001229,0.610715,0.315475,0.710765,-0.149385,140.444828,74.239252,101.683908
65031,-8.948725,3.650067,-1.799599,1.408731,1.464010,-0.194302,-0.367901,0.161139,-0.291476,-0.089448,0.036598,-0.017991,0.999997,-0.001840,0.000806,-0.001457,0.610533,0.313465,0.711956,-0.148688,140.875121,74.272569,102.350511
65032,-9.263525,1.699266,-2.448657,-0.286648,0.298210,-0.090281,-0.404391,0.170678,-0.325215,-0.092628,0.017094,-0.024442,0.999996,-0.002022,0.000853,-0.001626,0.610346,0.311228,0.713251,-0.147948,141.352866,74.312361,103.087992
65033,-9.312549,0.414069,-2.946773,-1.453267,-0.389398,-0.152728,-0.177494,0.125050,-0.326887,-0.093137,0.004267,-0.029413,0.999998,-0.000887,0.000625,-0.001634,0.609964,0.309643,0.714237,-0.148091,141.908769,74.371397,103.771473
65034,-9.521397,0.306593,-2.866055,-1.418671,-0.556922,0.017998,0.185782,0.075161,-0.316772,-0.095220,0.003243,-0.028622,0.999998,0.000929,0.000376,-0.001584,0.609203,0.309163,0.714784,-0.149579,142.599178,74.447522,104.378260
65035,-9.413091,1.356003,-2.751290,-0.653546,0.230216,0.063261,0.368546,0.011602,-0.323405,-0.094110,0.013763,-0.027482,0.999997,0.001843,0.000058,-0.001617,0.608378,0.309168,0.715008,-0.151837,143.333020,74.552933,104.921203
65036,-9.162111,2.330405,-2.893739,-0.141437,1.150650,0.005899,0.336813,-0.007525,-0.335548,-0.091581,0.023506,-0.028901,0.999997,0.001684,-0.000038,-0.001678,0.607659,0.309016,0.715213,-0.154047,144.054357,74.669485,105.469723
65037,-9.151139,2.436077,-2.888380,-0.043706,1.258372,0.007446,0.210535,0.004121,-0.345285,-0.091470,0.024549,-0.028856,0.999998,0.001053,0.000021,-0.001726,0.607082,0.308454,0.715562,-0.155817,144.743473,74.781998,106.059573
65038,-9.368831,1.950104,-2.801450,-0.243227,0.809335,0.122690,0.072011,-0.008005,-0.361865,-0.093652,0.019681,-0.028011,0.999998,0.000360,-0.000040,-0.001809,0.606748,0.307401,0.716005,-0.157160,145.376732,74.903907,106.673424
65039,-9.377895,1.467218,-2.753320,-0.489437,0.438650,0.048669,0.008313,-0.011023,-0.367068,-0.093750,0.014845,-0.027538,0.999998,0.000042,-0.000055,-0.001835,0.606516,0.306133,0.716495,-0.158293,145.988887,75.027087,107.302903
65040,-9.406021,1.115362,-2.436954,-0.445600,0.001713,-0.042459,-0.027275,-0.009507,-0.365568,-0.094038,0.011322,-0.024376,0.999998,-0.000136,-0.000048,-0.001828,0.606332,0.304762,0.717013,-0.159293,146.589947,75.147419,107.941599
65041,-9.379398,1.099597,-2.073790,-0.158445,-0.194338,-0.147292,-0.093654,-0.000312,-0.370411,-0.093773,0.011160,-0.020743,0.999998,-0.000468,-0.000002,-0.001852,0.606211,0.303180,0.717616,-0.160054,147.182457,75.263040,108.610488
65042,-9.030168,1.222379,-1.719978,0.181317,-0.202659,-0.543251,-0.199766,0.017060,-0.362041,-0.090281,0.012370,-0.017204,0.999998,-0.000999,0.000085,-0.001810,0.606192,0.301318,0.718342,-0.160383,147.728642,75.366083,109.293956
65043,-9.050713,0.643183,-0.976807,0.412588,-1.073476,-0.759478,-0.131292,0.050061,-0.313702,-0.090499,0.006567,-0.009750,0.999999,-0.000656,0.000250,-0.001569,0.605989,0.299863,0.719038,-0.160761,148.270105,75.436674,109.931777
65044,-9.347352,-0.704203,-0.700205,-0.171959,-2.327372,-0.707036,0.045264,0.076409,-0.256769,-0.093485,-0.006920,-0.006968,0.999999,0.000226,0.000382,-0.001284,0.605470,0.299168,0.719585,-0.161561,148.840939,75.475894,110.495229
65045,-10.022573,-1.689697,-0.414761,-0.493170,-3.398294,-0.237333,0.481474,0.061202,-0.195678,-0.100243,-0.016789,-0.004157,0.999997,0.002407,0.000306,-0.000978,0.604401,0.300000,0.719639,-0.163768,149.531206,75.503060,110.923824
65046,-9.951699,-1.712229,-0.800505,-0.803974,-3.149118,-0.218654,0.824556,0.028586,-0.141911,-0.099530,-0.017019,-0.008061,0.999991,0.004123,0.000143,-0.000710,0.602971,0.302032,0.719223,-0.167094,150.280717,75.529643,111.210507
65047,-9.934542,-1.031011,-1.782859,-1.117323,-2.008777,0.069267,1.070330,0.040064,-0.099009,-0.099354,-0.010165,-0.017863,0.999986,0.005352,0.000200,-0.000495,0.601151,0.304961,0.718556,-0.171153,151.102318,75.537500,111.426176
65048,-9.634946,0.170318,-2.343740,-0.779243,-0.665184,0.051619,1.059864,0.033383,-0.071260,-0.096353,0.001862,-0.023412,0.999986,0.005299,0.000167,-0.000356,0.599377,0.307945,0.717815,-0.175097,151.857001,75.540360,111.578939
65049,-9.330156,0.967441,-2.831421,-0.627810,0.321012,-0.039898,0.916167,0.074817,-0.036782,-0.093310,0.009821,-0.028235,0.999989,0.004581,0.000374,-0.000184,0.597691,0.310650,0.717253,-0.178354,152.504868,75.512588,111.706397
65050,-9.469864,1.212952,-3.194935,-0.694702,0.707629,0.205983,0.709154,0.103068,-0.025248,-0.094714,0.012255,-0.031857,0.999994,0.003546,0.000515,-0.000126,0.596226,0.312798,0.716930,-0.180786,153.038306,75.467024,111.838222
65051,-9.287417,1.206400,-3.524987,-0.933727,0.959406,0.104202,0.515843,0.099449,-0.035787,-0.092890,0.012171,-0.035172,0.999997,0.002579,0.000497,-0.000179,0.595060,0.314325,0.716781,-0.182562,153.476604,75.425780,111.986191
65052,-9.213084,1.278276,-3.576569,-0.906926,1.066679,0.053740,0.397776,0.104700,-0.052168,-0.092146,0.012878,-0.035692,0.999998,0.001989,0.000523,-0.000261,0.594043,0.315445,0.716777,-0.183953,153.882769,75.385699,112.170905
65053,-9.165746,1.715489,-3.350941,-0.429160,1.257940,0.006476,0.357635,0.098142,-0.081223,-0.091667,0.017252,-0.033434,0.999998,0.001788,0.000491,-0.000406,0.593083,0.316335,0.716833,-0.185297,154.315821,75.355925,112.407203
65054,-9.073620,2.123441,-3.188206,-0.018664,1.478156,-0.075189,0.406869,0.095371,-0.116724,-0.090739,0.021352,-0.031795,0.999998,0.002034,0.000477,-0.000584,0.592021,0.317240,0.716889,-0.186925,154.842986,75.335823,112.711650
65055,-9.291736,2.238603,-3.204684,0.099728,1.530292,0.150537,0.509351,0.082644,-0.176606,-0.092911,0.022550,-0.031951,0.999996,0.002547,0.000413,-0.000883,0.590781,0.318219,0.716902,-0.189118,155.535486,75.335877,113.126335
65056,-9.686420,2.431678,-3.282467,0.253736,1.645851,0.567147,0.724962,0.022872,-0.245924,-0.096838,0.024555,-0.032725,0.999993,0.003625,0.000114,-0.001230,0.589342,0.319527,0.716637,-0.192381,156.437326,75.381959,113.629642
65057,-11.687448,2.722136,-4.004520,0.190987,1.897610,2.693497,0.953151,-0.030008,-0.358781,-0.116819,0.027621,-0.039932,0.999987,0.004766,-0.000150,-0.001794,0.587606,0.321046,0.716163,-0.196875,157.659497,75.478713,114.328710
65058,-12.062982,5.573921,-5.882619,0.937428,5.165470,3.738208,1.017552,-0.393906,-0.595748,-0.120347,0.056397,-0.058778,0.999981,0.005088,-0.001970,-0.002979,0.586818,0.321537,0.714913,-0.202873,159.130986,75.815236,115.246317
65059,-7.839486,6.893323,-6.553636,1.042510,7.582045,-0.150955,1.217500,-0.582721,-0.716217,-0.077956,0.069611,-0.065342,0.999971,0.006087,-0.002914,-0.003581,0.586233,0.321977,0.713067,-0.210232,160.893413,76.270319,116.344141
65060,-8.723211,7.042224,-6.060867,1.708423,7.258210,0.522600,1.328733,-0.535466,-0.870703,-0.086761,0.071202,-0.060370,0.999965,0.006644,-0.002677,-0.004353,0.585101,0.322222,0.711444,-0.218353,163.208617,76.717393,117.942719
65061,-10.231886,7.201453,-5.176647,2.736943,6.560554,1.711832,1.591228,-0.679888,-0.966446,-0.101792,0.072918,-0.051535,0.999951,0.007956,-0.003399,-0.004832,0.583905,0.322710,0.709208,-0.227898,165.951103,77.241629,119.822457
65062,-9.946800,5.925659,-4.412732,2.440161,5.319180,1.108541,1.610247,-0.748754,-0.997989,-0.099005,0.060106,-0.044017,0.999948,0.008051,-0.003744,-0.004990,0.582829,0.323029,0.706727,-0.237695,168.943253,77.786792,121.942597
65063,-9.074389,5.103550,-3.070591,2.754847,4.059337,-0.130223,1.650286,-0.621532,-0.854359,-0.090429,0.051675,-0.030563,0.999952,0.008251,-0.003108,-0.004272,0.581351,0.324094,0.704269,-0.246980,171.848645,78.221637,123.946914
65064,-8.821090,4.971227,-2.954682,2.803019,3.986788,-0.458412,1.525814,-0.371548,-0.555602,-0.088017,0.050181,-0.029329,0.999965,0.007629,-0.001858,-0.002778,0.579516,0.326129,0.702148,-0.254538,174.097589,78.474552,125.351055
65065,-7.781577,6.263226,-3.267364,3.546896,5.241442,-1.422064,1.516304,-0.128707,-0.071902,-0.077772,0.062906,-0.032247,0.999971,0.007581,-0.000644,-0.000360,0.577422,0.330125,0.699910,-0.260244,175.100724,78.554275,125.488942
65066,-6.769389,8.707398,-3.012482,5.556591,6.729360,-2.426445,1.583041,0.079933,0.496338,-0.067922,0.087140,-0.029408,0.999966,0.007915,0.000400,0.002482,0.575191,0.336551,0.697205,-0.264187,174.602145,78.486015,124.055164
65067,-7.451935,10.945190,-2.405429,7.856662,7.425958,-1.797831,1.716402,0.334367,0.872982,-0.075036,0.109325,-0.022991,0.999952,0.008582,0.001672,0.004365,0.572298,0.344985,0.694364,-0.267056,173.234544,78.244745,121.655665
65068,-9.117413,13.699713,-1.466548,10.877919,7.908802,-0.217072,1.306807,0.455095,0.955146,-0.091859,0.136651,-0.013563,0.999965,0.006534,0.002275,0.004776,0.569755,0.352661,0.692216,-0.268042,171.546389,77.916357,119.165593
65069,-8.020718,16.491911,0.144834,13.984907,8.397285,-1.431632,-0.012133,0.428801,0.806655,-0.080868,0.164594,0.001611,0.999990,-0.000061,0.002144,0.004033,0.569404,0.356020,0.691990,-0.264913,169.589407,77.599999,117.171091
65070,-5.886360,16.200418,-0.327782,13.175464,9.005529,-3.292485,-1.496370,0.555720,0.645022,-0.059397,0.161783,-0.004324,0.999963,-0.007482,0.002779,0.003225,0.571014,0.354740,0.694346,-0.256879,167.365977,77.216335,115.771878
65071,-6.346149,12.184070,-1.896266,8.921415,7.752489,-2.558609,-2.486351,0.733497,0.560748,-0.063875,0.121416,-0.020240,0.999912,-0.012431,0.003667,0.002804,0.573585,0.350531,0.698542,-0.245290,164.992261,76.732686,114.798629
65072,-7.685135,7.272503,-2.940775,4.401814,5.208707,-1.205220,-2.921817,0.761211,0.547084,-0.077163,0.072077,-0.030171,0.999882,-0.014609,0.003806,0.002735,0.576685,0.344981,0.703233,-0.232131,162.545280,76.227947,114.004231
65073,-7.946463,3.457015,-3.499173,1.028050,3.028469,-1.031414,-2.776114,0.695062,0.644946,-0.079697,0.033826,-0.035188,0.999892,-0.013880,0.003475,0.003225,0.579753,0.340049,0.707235,-0.219252,160.031210,75.732719,113.053442
65074,-7.668489,1.962463,-3.402225,-0.146755,1.925362,-1.416148,-2.168495,0.609530,0.828832,-0.076868,0.018938,-0.033996,0.999928,-0.010842,0.003048,0.004144,0.582186,0.337365,0.709885,-0.208107,157.540237,75.236331,111.764299
65075,-7.601670,2.045954,-3.397861,-0.180524,1.889331,-1.451287,-1.588861,0.534267,1.032546,-0.076211,0.019797,-0.033934,0.999952,-0.007944,0.002671,0.005163,0.584051,0.336981,0.711281,-0.198515,155.038694,74.717916,110.117896
65076,-8.095679,2.952037,-3.363959,0.444772,2.264305,-0.854779,-1.158049,0.482698,1.189571,-0.081211,0.028843,-0.033612,0.999963,-0.005790,0.002413,0.005948,0.585478,0.338324,0.711774,-0.190078,152.591319,74.169358,108.266762
65077,-8.487015,3.613656,-3.127116,1.020873,2.355933,-0.417350,-0.924211,0.400508,1.265958,-0.085159,0.035454,-0.031266,0.999967,-0.004621,0.002003,0.006330,0.586834,0.340530,0.711624,-0.182363,150.207265,73.619664,106.337629
65078,-8.460036,3.581783,-3.091926,0.930015,2.206214,-0.419750,-0.842676,0.351225,1.297399,-0.084884,0.035138,-0.030919,0.999969,-0.004213,0.001756,0.006487,0.588216,0.343012,0.711157,-0.174931,147.915789,73.064697,104.450307
65079,-9.004340,3.265515,-3.261827,0.536488,1.825648,0.125044,-0.757519,0.329388,1.303535,-0.090307,0.031944,-0.032592,0.999970,-0.003788,0.001647,0.006518,0.589500,0.345734,0.710494,-0.167797,145.770048,72.496534,102.659448
65080,-9.258331,2.937501,-3.221225,0.264169,1.374499,0.324421,-0.675310,0.277017,1.316467,-0.092818,0.028656,-0.032181,0.999972,-0.003377,0.001385,0.006582,0.590803,0.348672,0.709546,-0.161010,143.726716,71.930877,100.920457
65081,-9.015422,2.624421,-3.252755,-0.078793,1.129246,0.059629,-0.615825,0.255994,1.336435,-0.090368,0.025541,-0.032491,0.999972,-0.003079,0.001280,0.006682,0.592060,0.351828,0.708410,-0.154390,141.779556,71.348390,99.241826
65082,-9.024798,2.473317,-3.069246,-0.137046,0.785258,0.002979,-0.630038,0.257811,1.359362,-0.090452,0.024022,-0.030652,0.999971,-0.003150,0.001289,0.006797,0.593318,0.354997,0.707212,-0.147653,139.911357,70.740910,97.648758
65083,-9.051106,2.090185,-3.314145,-0.666539,0.539671,0.012661,-0.705309,0.273678,1.380440,-0.090697,0.020160,-0.033089,0.999969,-0.003527,0.001368,0.006902,0.594635,0.358014,0.706034,-0.140536,138.094940,70.100889,96.151002
65084,-9.065777,1.319167,-3.786927,-1.624657,0.158380,-0.035029,-0.750071,0.336730,1.401236,-0.090810,0.012414,-0.037764,0.999967,-0.003750,0.001684,0.007006,0.595784,0.360985,0.704995,-0.133091,136.403008,69.412666,94.806306
65085,-10.029873,0.134465,-3.947222,-2.593352,-1.055251,0.596705,-0.646613,0.381856,1.423331,-0.100379,0.000503,-0.039283,0.999968,-0.003233,0.001909,0.007117,0.596563,0.364356,0.703932,-0.125841,134.888089,68.682858,93.582070
65086,-10.945450,-0.938808,-4.216438,-3.572283,-2.126185,1.195398,-0.524121,0.328293,1.427279,-0.109452,-0.010279,-0.041959,0.999970,-0.002621,0.001641,0.007136,0.597272,0.368042,0.702583,-0.119114,133.476129,67.963404,92.386383
65087,-10.926312,-1.962921,-3.803194,-4.022150,-3.229005,0.727478,-0.297824,0.295566,1.398166,-0.109178,-0.020449,-0.037841,0.999973,-0.001489,0.001478,0.006991,0.597628,0.372268,0.701012,-0.113309,132.264771,67.257508,91.262029
65088,-10.966671,-2.949215,-3.308343,-4.375340,-4.353931,0.277331,-0.070597,0.289930,1.359508,-0.109511,-0.030249,-0.032914,0.999976,-0.000353,0.001450,0.006797,0.597527,0.377008,0.699334,-0.108434,131.281898,66.563739,90.238103
65089,-11.035534,-3.442479,-2.778450,-4.374793,-5.144043,-0.027401,0.210648,0.245692,1.270596,-0.110168,-0.035096,-0.027686,0.999979,0.001053,0.001228,0.006353,0.596975,0.382242,0.697505,-0.104873,130.543940,65.917684,89.301101
65090,-11.326299,-2.915142,-1.388430,-3.055193,-5.823336,-0.042114,0.367472,0.220719,1.113067,-0.113114,-0.029756,-0.013814,0.999982,0.001837,0.001104,0.005565,0.596104,0.387360,0.695794,-0.102386,130.042126,65.347132,88.519632
65091,-11.995567,-1.888997,0.038747,-1.378583,-6.344418,0.449396,0.315757,0.166314,0.875388,-0.119871,-0.019415,0.000457,0.999989,0.001579,0.000832,0.004377,0.595383,0.391464,0.694385,-0.100518,129.671629,64.897357,87.912910
65092,-12.103669,-0.923467,1.366465,0.206698,-6.605768,0.460557,-0.095264,0.112316,0.546800,-0.121003,-0.009559,0.013737,0.999996,-0.000476,0.000562,0.002734,0.595480,0.393164,0.693657,-0.098317,129.285827,64.612208,87.547267
65093,-12.077898,-0.485168,1.402572,0.506346,-6.354416,0.552795,-0.728076,0.047830,0.191411,-0.120771,-0.004916,0.014072,0.999993,-0.003640,0.000239,0.000957,0.596863,0.391717,0.693736,-0.095095,128.752822,64.506145,87.420004
65094,-12.048966,-1.139323,1.564200,0.213901,-6.876481,0.266522,-1.308418,-0.052653,-0.182032,-0.120504,-0.011181,0.015684,0.999978,-0.006542,-0.000263,-0.000910,0.599536,0.387178,0.694504,-0.091179,128.075766,64.604076,87.500969
65095,-11.926386,-2.436105,1.296418,-0.774573,-7.519204,-0.183833,-1.798290,-0.201487,-0.574818,-0.119346,-0.023901,0.013060,0.999955,-0.008991,-0.001007,-0.002874,0.603456,0.379717,0.695762,-0.087012,127.263079,64.931741,87.742544
65096,-11.281786,-4.295489,0.783683,-2.246421,-8.202491,-1.209476,-2.126193,-0.383554,-0.924642,-0.113030,-0.042348,0.008073,0.999931,-0.010631,-0.001918,-0.004623,0.608410,0.369923,0.697199,-0.083105,126.336790,65.484874,88.064667
65097,-11.113800,-5.978287,0.853823,-3.095857,-9.331839,-1.855621,-2.194272,-0.526611,-1.248846,-0.111531,-0.058991,0.008895,0.999917,-0.010971,-0.002633,-0.006244,0.613764,0.358681,0.698721,-0.080192,125.454248,66.237869,88.476127
65098,-10.877070,-6.849456,0.696285,-3.586025,-9.737361,-2.194912,-2.057125,-0.688047,-1.563510,-0.109326,-0.067567,0.007286,0.999911,-0.010285,-0.003440,-0.007817,0.619202,0.346629,0.700140,-0.079006,124.707369,67.194622,88.946732
65099,-10.501246,-7.016358,1.125890,-3.175656,-9.875344,-2.521581,-1.797860,-0.858516,-1.865502,-0.105709,-0.069077,0.011430,0.999907,-0.008989,-0.004292,-0.009327,0.624557,0.334196,0.701321,-0.079939,124.145965,68.350919,89.453798
65100,-8.912307,-7.447856,1.142517,-3.250332,-9.543598,-3.934416,-1.707327,-0.946103,-2.112972,-0.089957,-0.073432,0.011631,0.999897,-0.008536,-0.004730,-0.010564,0.629845,0.321074,0.702472,-0.082098,123.740752,69.654917,90.068106
65101,-7.226487,-5.225363,-8.892796,-10.263835,-2.020624,-2.800018,-2.162576,-0.248751,-2.218760,-0.072735,-0.052407,-0.088452,0.999879,-0.010812,-0.001244,-0.011093,0.633233,0.306364,0.706015,-0.081851,124.127222,70.786110,91.796116
65102,-10.327502,9.508228,-33.121103,-23.001161,20.468025,8.788215,-2.776959,1.806021,-0.691744,-0.105949,0.090844,-0.331543,0.999857,-0.013884,0.009030,-0.003459,0.630765,0.295857,0.713794,-0.071434,125.581521,70.516965,95.024270
65103,-22.541823,-1.824185,2.278254,1.573502,-10.135066,10.471554,6.004097,0.080519,0.506043,-0.225361,-0.019487,0.022301,0.999546,0.030016,0.000403,0.002530,0.621517,0.316524,0.710798,-0.091081,128.615757,70.254796,94.594112
65104,-9.636206,-11.563924,-1.402027,-7.575210,-11.425789,-3.441101,2.127091,-2.074970,-0.338335,-0.096396,-0.115311,-0.016248,0.999888,0.010635,-0.010374,-0.001692,0.625328,0.320982,0.703803,-0.102939,127.483939,71.137815,92.104137
65105,-1.193082,-4.069094,-5.873137,-7.121339,-0.262272,-8.512653,1.944811,0.342715,-1.352714,-0.012304,-0.040035,-0.059102,0.999928,0.009724,0.001714,-0.006763,0.620287,0.322487,0.705960,-0.113428,130.478668,71.614212,94.089012
65106,-21.076876,17.142244,9.165512,18.212043,1.457569,12.284298,0.497337,0.651154,-1.470995,-0.209201,0.172735,0.092766,0.999965,0.002487,0.003256,-0.007355,0.616359,0.319226,0.710010,-0.118666,133.300241,71.990484,96.759638
65107,-7.066662,9.855459,7.761097,12.325462,1.145412,-2.459618,-1.446037,-1.085125,-0.378212,-0.070896,0.099244,0.076511,0.999957,-0.007230,-0.005426,-0.001891,0.622298,0.312801,0.708062,-0.116398,131.470383,72.567438,95.709031
65108,-3.151559,-3.754131,-5.149606,-6.261096,-1.063881,-6.617411,-1.813665,0.586334,-0.661514,-0.031791,-0.037901,-0.051061,0.999949,-0.009068,0.002932,-0.003308,0.622671,0.305172,0.711907,-0.111086,132.014675,72.624420,97.368965
65109,-15.434545,-6.178605,-4.180517,-6.268401,-7.224458,4.413602,-1.061747,0.778897,-0.849170,-0.154767,-0.061348,-0.040877,0.999969,-0.005309,0.003894,-0.004246,0.621057,0.299299,0.716161,-0.108731,133.490414,72.676561,99.552945
65110,-10.354592,-5.053462,0.254770,-2.132716,-7.172107,-1.047311,0.261325,-0.377272,-0.529438,-0.103684,-0.050263,0.002286,0.999994,0.001307,-0.001886,-0.002647,0.621753,0.298039,0.715601,-0.111849,133.789865,73.043325,99.710148
65111,-7.976221,-4.236140,-3.969220,-5.256726,-3.551441,-2.257981,0.266750,0.190296,-0.408908,-0.079886,-0.042145,-0.039673,0.999997,0.001334,0.000951,-0.002045,0.620473,0.297542,0.716617,-0.113764,134.714865,73.133226,100.517717
65112,-10.991891,-3.364183,-4.638956,-5.118957,-3.329173,0.974892,0.440840,0.191847,-0.345923,-0.110021,-0.033349,-0.046358,0.999996,0.002204,0.000959,-0.001730,0.618959,0.297809,0.717439,-0.116104,135.665669,73.193162,101.247729
65113,-9.841778,-0.778117,-3.170579,-2.473573,-1.692659,0.113781,0.659655,0.006634,-0.287363,-0.098430,-0.007535,-0.031728,0.999994,0.003298,0.000033,-0.001437,0.617811,0.298852,0.717467,-0.119324,136.423900,73.303149,101.645330
65114,-8.722943,2.011724,-3.079861,-0.828222,0.819257,-0.417742,0.733573,-0.023537,-0.227843,-0.087203,0.020329,-0.030735,0.999993,0.003668,-0.000118,-0.001139,0.616688,0.300316,0.717258,-0.122668,137.108541,73.400814,101.921750
65115,-7.904854,2.881480,-3.713589,-0.845401,2.104776,-0.900034,0.768101,0.037425,-0.173250,-0.079030,0.029026,-0.037010,0.999992,0.003840,0.000187,-0.000866,0.615318,0.302114,0.717124,-0.125874,137.820626,73.450730,102.206006
65116,-8.780854,3.849488,-1.748786,1.406991,1.546929,-0.293896,0.848561,0.078971,-0.155241,-0.087785,0.038637,-0.017289,0.999991,0.004243,0.000395,-0.000776,0.613679,0.304245,0.717027,-0.129248,138.608600,73.474849,102.521332
65117,-8.989005,5.309946,-0.517524,3.315996,1.943478,-0.091962,0.480124,0.043920,-0.190119,-0.089841,0.053197,-0.005028,0.999997,0.002401,0.000220,-0.000951,0.612695,0.305094,0.717106,-0.131460,139.193909,73.526220,102.845363
65118,-8.824100,5.558010,-1.115452,3.005373,2.524844,-0.086780,0.085283,0.120612,-0.241101,-0.088181,0.055691,-0.011078,0.999999,0.000426,0.000603,-0.001206,0.612003,0.304601,0.717753,-0.132295,139.726915,73.562226,103.350703
65119,-8.871048,4.276167,-2.153120,1.431011,2.111016,-0.060108,-0.186423,0.122183,-0.285113,-0.088663,0.042868,-0.021517,0.999998,-0.000932,0.000611,-0.001426,0.611688,0.303118,0.718650,-0.132286,140.174249,73.612559,103.928900
65120,-8.751230,2.470764,-2.929835,-0.262291,1.184754,-0.336393,-0.277665,0.133147,-0.330293,-0.087491,0.024811,-0.029274,0.999997,-0.001388,0.000666,-0.001651,0.611440,0.301200,0.719706,-0.132071,140.654146,73.673208,104.595361
65121,-9.164327,1.119312,-3.197955,-1.232105,0.178586,-0.121732,-0.085593,0.121414,-0.349787,-0.091643,0.011340,-0.031929,0.999998,-0.000428,0.000607,-0.001749,0.610930,0.299790,0.720626,-0.132623,141.263995,73.744301,105.282343
65122,-9.182817,0.920028,-3.637343,-1.675357,0.283309,-0.039580,0.161079,0.059939,-0.347122,-0.091823,0.009389,-0.036338,0.999998,0.000805,0.000300,-0.001736,0.610271,0.299101,0.721188,-0.134148,141.942052,73.839906,105.892871
65123,-9.061491,1.828023,-3.612959,-1.096809,1.042560,-0.003727,0.257845,0.026447,-0.353592,-0.090587,0.018487,-0.036094,0.999998,0.001289,0.000132,-0.001768,0.609581,0.298661,0.721590,-0.136091,142.653167,73.950844,106.479798
65124,-9.101997,2.831950,-3.012826,0.012888,1.512489,0.069392,0.180759,0.019156,-0.373928,-0.090970,0.028517,-0.030094,0.999998,0.000904,0.000096,-0.001870,0.609016,0.297906,0.722049,-0.137828,143.352658,74.070162,107.100222
65125,-8.825679,3.071715,-2.529425,0.543753,1.530312,-0.268663,-0.003673,0.034158,-0.399237,-0.088200,0.030893,-0.025280,0.999998,-0.000018,0.000171,-0.001996,0.608651,0.296507,0.722717,-0.138953,144.015322,74.189019,107.791885
65126,-9.106969,2.518962,-1.683643,0.932796,0.575933,-0.277763,-0.156552,0.080707,-0.413052,-0.091024,0.025364,-0.016820,0.999997,-0.000783,0.000404,-0.002065,0.608333,0.294624,0.723649,-0.139498,144.677769,74.288707,108.573930
65127,-9.794412,1.486336,-0.825445,1.085474,-0.866204,0.030704,-0.156812,0.074394,-0.416803,-0.097916,0.015061,-0.008230,0.999997,-0.000784,0.000372,-0.002084,0.608033,0.292721,0.724564,-0.140062,145.348179,74.390009,109.364060
65128,-9.723920,0.502955,-0.476853,0.799418,-1.790147,-0.263282,-0.031998,0.051595,-0.417849,-0.097230,0.005232,-0.004744,0.999998,-0.000160,0.000258,-0.002089,0.607629,0.291176,0.725321,-0.141115,146.075195,74.499938,110.138263
65129,-9.404842,-0.039043,-0.686387,0.307383,-1.993694,-0.601049,0.163046,0.064315,-0.397748,-0.094051,-0.000198,-0.006834,0.999998,0.000815,0.000322,-0.001989,0.606906,0.290305,0.725946,-0.142794,146.904306,74.594541,110.902091
65130,-9.611612,-0.017207,-0.613093,0.425821,-2.042756,-0.410296,0.412116,0.080018,-0.373539,-0.096119,0.000020,-0.006093,0.999996,0.002061,0.000400,-0.001868,0.605779,0.290286,0.726402,-0.145281,147.860830,74.670968,111.649718
65131,-9.798445,0.475275,-0.991710,0.466651,-1.461410,-0.072807,0.587446,0.076577,-0.348988,-0.097980,0.004953,-0.009865,0.999994,0.002937,0.000383,-0.001745,0.604422,0.290883,0.726677,-0.148333,148.878543,74.738267,112.356378
65132,-9.503071,1.156376,-1.294062,0.640705,-0.658073,-0.196220,0.577553,0.094208,-0.341530,-0.095017,0.011763,-0.012862,0.999994,0.002888,0.000471,-0.001708,0.603013,0.291486,0.726993,-0.151300,149.903042,74.791368,113.075744
65133,-9.102377,1.305830,-2.015558,0.156387,-0.010573,-0.400131,0.400448,0.130857,-0.327453,-0.091015,0.013248,-0.020070,0.999996,0.002002,0.000654,-0.001637,0.601735,0.291632,0.727527,-0.153526,150.843696,74.819008,113.813224
65134,-9.136504,1.006004,-2.313326,-0.221709,-0.064506,-0.337151,0.276008,0.169821,-0.310249,-0.091369,0.010234,-0.023042,0.999997,0.001380,0.000849,-0.001551,0.600506,0.291494,0.728244,-0.155190,151.722898,74.819229,114.560873
65135,-9.327766,0.300611,-2.345364,-0.622909,-0.628736,-0.230679,0.244652,0.192751,-0.279827,-0.093296,0.003165,-0.023360,0.999998,0.001223,0.000964,-0.001399,0.599261,0.291389,0.729007,-0.156615,152.549423,74.796805,115.272578
65136,-9.440657,-0.192071,-2.590503,-1.070215,-0.885680,-0.120232,0.302915,0.197710,-0.264307,-0.094435,-0.001757,-0.025814,0.999997,0.001515,0.000989,-0.001322,0.597922,0.291518,0.729713,-0.158197,153.382367,74.765080,115.956446
65137,-9.499325,-0.248751,-2.573865,-1.050373,-0.939893,-0.069124,0.419881,0.216692,-0.248501,-0.095024,-0.002316,-0.025641,0.999996,0.002099,0.001083,-0.001243,0.596352,0.292067,0.730356,-0.160130,154.266660,74.716951,116.624181
65138,-9.656973,0.059156,-2.450286,-0.708178,-0.796012,0.093333,0.549780,0.223077,-0.229044,-0.096596,0.000769,-0.024393,0.999995,0.002749,0.001115,-0.001145,0.594579,0.293078,0.730880,-0.162469,155.188883,74.657952,117.254269
65139,-9.845742,0.362909,-2.571288,-0.549111,-0.519731,0.341624,0.647503,0.224057,-0.240122,-0.098482,0.003830,-0.025590,0.999993,0.003238,0.001120,-0.001201,0.592644,0.294335,0.731335,-0.165195,156.183138,74.598328,117.901140
65140,-9.640858,1.091624,-2.907263,-0.330377,0.306596,0.305938,0.736576,0.194753,-0.263647,-0.096422,0.011150,-0.028938,0.999992,0.003683,0.000974,-0.001318,0.590657,0.295743,0.731653,-0.168356,157.242821,74.556345,118.563131
65141,-9.427332,2.633877,-3.455168,0.253472,1.888156,0.391249,0.767508,0.176636,-0.316493,-0.094262,0.026620,-0.034367,0.999991,0.003838,0.000883,-0.001582,0.588636,0.297028,0.731958,-0.171812,158.403310,74.532044,119.311395
65142,-10.282895,4.821447,-4.165336,1.293357,3.813775,1.594149,0.781272,0.144530,-0.423316,-0.102756,0.048594,-0.041390,0.999990,0.003906,0.000723,-0.002117,0.586609,0.297929,0.732302,-0.175676,159.751824,74.542381,120.246622
65143,-12.452887,8.102060,-6.741728,1.843675,7.428039,4.595367,0.574104,-0.016495,-0.691893,-0.124242,0.081644,-0.067194,0.999990,0.002871,-0.000082,-0.003459,0.585233,0.297092,0.732740,-0.179805,161.403017,74.684360,121.618546
65144,-10.462318,11.250115,-9.184628,1.842859,11.869378,3.457613,0.226111,-0.416159,-1.040225,-0.103845,0.113147,-0.091935,0.999984,0.001131,-0.002081,-0.005201,0.585510,0.293594,0.732821,-0.184268,163.343507,75.093602,123.494836
65145,-7.766006,11.642499,-9.059468,1.842495,12.812392,0.693308,0.145374,-0.561883,-1.286583,-0.076654,0.116986,-0.090726,0.999975,0.000727,-0.002809,-0.006433,0.586188,0.288812,0.732881,-0.189360,165.790510,75.601704,125.938604
65146,-8.060269,8.548809,-6.798442,1.622930,9.152608,0.079767,0.391492,-0.636534,-1.458512,-0.079759,0.086205,-0.068071,0.999966,0.001957,-0.003183,-0.007292,0.586587,0.284032,0.732695,-0.195958,168.910875,76.142775,128.925423
65147,-10.257537,5.140342,-5.296253,0.948706,5.382231,1.581072,0.936220,-0.687975,-1.432925,-0.102020,0.052384,-0.053070,0.999957,0.004681,-0.003440,-0.007165,0.586382,0.280874,0.731733,-0.204529,172.505918,76.666541,132.072939
65148,-10.396500,4.319691,-3.152998,2.126293,3.551057,1.121399,1.743382,-0.722288,-1.145588,-0.103600,0.044066,-0.031523,0.999939,0.008717,-0.003611,-0.005728,0.585403,0.281068,0.729366,-0.215242,176.109274,77.146385,134.747378
65149,-8.767665,7.424990,-1.265428,5.421664,4.994927,-0.909975,2.023574,-0.551996,-0.666090,-0.087394,0.074666,-0.012142,0.999939,0.010118,-0.002760,-0.003330,0.583853,0.283982,0.726435,-0.225303,178.870718,77.481823,136.390324
65150,-7.057217,12.187534,0.620875,9.857349,7.450598,-3.027134,1.766584,-0.234091,-0.010721,-0.070574,0.121818,0.007202,0.999960,0.008833,-0.001170,-0.000054,0.582195,0.288854,0.723717,-0.232049,179.876460,77.619364,136.384243
65151,-4.749655,16.135124,0.396133,12.186837,10.649267,-5.216142,1.152708,0.120775,0.703627,-0.048061,0.161156,0.004919,0.999977,0.005763,0.000604,0.003518,0.580931,0.294921,0.721667,-0.233960,178.677997,77.548025,134.481722
65152,-4.965696,16.767216,-1.148334,11.689590,11.946421,-4.545139,0.696308,0.603727,1.228365,-0.050719,0.167401,-0.010748,0.999971,0.003482,0.003019,0.006142,0.579180,0.302101,0.720742,-0.231983,175.985605,77.172730,131.314157
65153,-7.723027,16.368333,-1.130157,11.884623,11.014149,-1.671282,0.179269,0.807959,1.416367,-0.078431,0.163141,-0.010840,0.999966,0.000896,0.004040,0.007082,0.577658,0.308686,0.720677,-0.227264,172.777855,76.634655,127.916400
65154,-8.166980,16.575920,0.519693,13.192900,9.836222,-1.391199,-0.921285,0.699421,1.310747,-0.082737,0.165242,0.004723,0.999962,-0.004606,0.003497,0.006554,0.578061,0.311559,0.721661,-0.219047,169.416527,76.124822,125.001528
65155,-7.053952,14.826203,0.553630,11.679866,8.800057,-2.328511,-1.939491,0.687663,1.229521,-0.071433,0.147871,0.004346,0.999928,-0.009697,0.003438,0.006147,0.579943,0.311157,0.723771,-0.207371,165.874996,75.590479,122.496497
65156,-7.407547,10.768329,-1.439806,7.294273,7.165135,-1.545340,-2.556582,0.729063,1.222260,-0.074786,0.107034,-0.015497,0.999893,-0.012782,0.003645,0.006111,0.582521,0.308918,0.726524,-0.193394,162.255352,74.998110,120.269278
65157,-8.255570,5.348361,-2.138830,3.050237,3.413004,-0.847291,-2.523875,0.611438,1.223867,-0.082946,0.052703,-0.021803,0.999897,-0.012619,0.003057,0.006119,0.585358,0.306612,0.728744,-0.179658,158.784606,74.434261,118.171694
65158,-8.924777,1.390290,-2.117630,0.426896,0.174780,-0.546948,-1.940603,0.478782,1.317034,-0.089386,0.013110,-0.021092,0.999928,-0.009703,0.002394,0.006585,0.587762,0.306169,0.729784,-0.167961,155.571405,73.889486,115.988038
65159,-9.162176,0.140732,-2.420744,-0.666022,-0.784572,-0.391229,-0.995008,0.276536,1.516647,-0.091662,0.000592,-0.024085,0.999958,-0.004975,0.001383,0.007583,0.589561,0.309039,0.729043,-0.159402,152.546229,73.366146,113.430573
65160,-8.747531,1.471870,-1.810550,0.512518,-0.164895,-0.775437,-0.163956,0.104815,1.723606,-0.087607,0.013949,-0.018071,0.999962,-0.000820,0.000524,0.008618,0.590815,0.314941,0.726759,-0.153531,149.678153,72.836440,110.531852
65161,-8.729920,3.399197,-1.056069,2.227999,0.708345,-0.679608,0.239299,0.040614,1.848813,-0.087611,0.033196,-0.010503,0.999957,0.001196,0.000203,0.009244,0.591719,0.322423,0.723714,-0.148828,146.957863,72.258629,107.537965
65162,-8.871011,4.738385,-0.551470,3.396761,1.216338,-0.408920,0.237041,0.021064,1.877369,-0.089150,0.046555,-0.005450,0.999955,0.001185,0.000105,0.009387,0.592661,0.329950,0.720507,-0.144066,144.367240,71.641207,104.671022
65163,-8.980261,5.044294,-0.734271,3.368078,1.364867,-0.147319,-0.117920,0.046206,1.828267,-0.090260,0.049615,-0.007351,0.999958,-0.000590,0.000231,0.009141,0.594016,0.336247,0.717643,-0.138101,141.842880,70.988713,102.078941
65164,-10.096568,4.237287,-0.866413,2.709593,0.344608,0.826022,-0.493683,0.082817,1.743752,-0.101333,0.041469,-0.008725,0.999959,-0.002468,0.000414,0.008719,0.595758,0.341111,0.715234,-0.130981,139.425887,70.317081,99.817686
65165,-11.303409,2.233561,-1.360257,0.981432,-1.380760,1.664816,-0.839829,0.028987,1.642532,-0.113214,0.021349,-0.013677,0.999957,-0.004199,0.000145,0.008213,0.598171,0.344529,0.712998,-0.122989,137.022853,69.674610,97.773854
65166,-11.937968,-0.244350,-1.851402,-1.083258,-3.269642,1.768987,-0.925026,-0.073792,1.520369,-0.119349,-0.003437,-0.018544,0.999960,-0.004625,-0.000369,0.007602,0.600967,0.347154,0.710663,-0.115243,134.733878,69.096752,95.895141
65167,-12.105831,-1.836626,-1.742575,-2.128743,-4.687997,1.432275,-0.855813,-0.220837,1.389220,-0.120907,-0.019281,-0.017478,0.999966,-0.004279,-0.001104,0.006946,0.604050,0.349420,0.708015,-0.108366,132.564380,68.604496,94.096080
65168,-10.994273,-2.987619,-1.099740,-2.491970,-5.596452,-0.144324,-0.715610,-0.336042,1.244974,-0.109735,-0.030599,-0.011073,0.999973,-0.003578,-0.001680,0.006225,0.607176,0.351505,0.705158,-0.102633,130.578021,68.196376,92.401254
65169,-10.572224,-3.081076,-0.538890,-2.210138,-5.902720,-0.766842,-0.624949,-0.294423,1.056274,-0.105550,-0.031385,-0.005447,0.999980,-0.003125,-0.001472,0.005281,0.609875,0.353214,0.702672,-0.097699,128.919559,67.834927,91.000162
65170,-11.642567,-2.871905,-0.175564,-1.865642,-6.417463,0.145362,-0.728697,-0.335218,0.799316,-0.116307,-0.029191,-0.001845,0.999984,-0.003643,-0.001676,0.003997,0.612747,0.353662,0.700546,-0.093268,127.426999,67.591021,89.838871
65171,-12.645070,-3.316220,-0.782541,-2.686924,-6.822920,1.037898,-1.025903,-0.463326,0.481213,-0.126352,-0.033507,-0.007947,0.999981,-0.005129,-0.002317,0.002406,0.616429,0.352021,0.698698,-0.088980,125.905610,67.524189,88.829962
65172,-11.896025,-5.416583,-1.524567,-4.585561,-7.691869,-0.169727,-1.263306,-0.668640,0.172786,-0.118862,-0.054365,-0.015300,0.999974,-0.006316,-0.003343,0.000864,0.621076,0.348455,0.696841,-0.085184,124.267885,67.660493,87.841964
65173,-10.733781,-8.122624,-1.540774,-6.193550,-9.267072,-2.110328,-1.234034,-0.742934,-0.121931,-0.107330,-0.081255,-0.015305,0.999974,-0.006170,-0.003715,-0.000610,0.625777,0.343911,0.695211,-0.082519,122.766679,67.949433,86.985330
65174,-10.684299,-9.954597,-1.947175,-7.569244,-10.406993,-2.640476,-0.960372,-0.762083,-0.437844,-0.106987,-0.099405,-0.019402,0.999979,-0.004802,-0.003810,-0.002189,0.629910,0.339094,0.693925,-0.081834,121.611895,68.391135,86.334649
65175,-13.175362,-9.801465,-7.315975,-11.891977,-8.312640,0.801579,-0.996620,-0.343978,-0.832435,-0.132036,-0.097829,-0.072899,0.999977,-0.004983,-0.001720,-0.004162,0.632469,0.332955,0.694604,-0.081545,121.227866,68.896595,86.536355
65176,-19.289400,-15.094359,-14.992255,-21.169051,-10.630751,6.420859,-1.885597,0.525614,-1.290348,-0.194259,-0.151095,-0.147989,0.999931,-0.009428,0.002628,-0.006452,0.633240,0.322734,0.699099,-0.078170,121.818518,69.366114,88.325209
65177,-22.212037,-31.659739,-25.012643,-38.340366,-19.535512,6.608057,0.195292,0.894335,-2.034561,-0.226440,-0.314065,-0.249428,0.999938,0.000976,0.004472,-0.010173,0.628993,0.316605,0.705057,-0.083814,124.802001,70.055401,91.387395
65178,-15.352874,-14.970469,-13.760037,-19.671603,-9.416107,3.356699,3.355100,-1.270319,-2.231839,-0.154281,-0.145639,-0.141045,0.999777,0.016774,-0.006351,-0.011158,0.627111,0.318717,0.702997,-0.104626,127.172100,71.514918,91.861958
65179,-0.007497,0.832747,1.524255,1.721272,-0.219719,-9.887095,3.220238,-1.706608,-0.925447,-0.000168,0.008081,0.015373,0.999823,0.016100,-0.008533,-0.004627,0.627409,0.324643,0.697279,-0.121519,127.595957,72.527095,90.368381
65180,-6.767597,2.727034,3.456847,4.425382,-1.975961,-3.355274,1.744712,-0.023118,-0.493980,-0.067613,0.027134,0.034798,0.999959,0.008723,-0.000116,-0.002470,0.624360,0.328396,0.696885,-0.129158,129.103232,72.754730,90.900754
65181,-15.784402,3.564730,3.302190,4.903490,-3.925506,5.461631,0.850910,-0.076926,-0.642550,-0.157741,0.036013,0.033114,0.999986,0.004255,-0.000385,-0.003213,0.622835,0.328789,0.697107,-0.134227,130.223910,73.063695,91.563718
65182,-11.210794,-0.738611,4.726812,3.315441,-6.613902,-0.125887,0.671664,-0.245197,-0.669227,-0.112190,-0.007169,0.047106,0.999988,0.003358,-0.001226,-0.003346,0.622158,0.328409,0.696949,-0.139028,131.062479,73.443861,92.038065
65183,-7.530479,1.698926,8.409764,7.705128,-5.907882,-3.808876,-0.298440,0.175528,-0.889064,-0.075154,0.017449,0.084138,0.999989,-0.001492,0.000878,-0.004445,0.621440,0.324530,0.699120,-0.140438,132.275014,73.755354,93.480788
65184,-9.674097,5.836579,7.220676,9.489907,-2.553223,-0.690703,-1.725586,0.536673,-0.774914,-0.096319,0.059361,0.071956,0.999952,-0.008628,0.002683,-0.003875,0.621820,0.316850,0.703188,-0.135911,133.078929,73.871291,95.347900
65185,-10.119873,1.982796,1.042483,2.327778,-1.870123,0.112720,-2.478135,0.569121,-0.462360,-0.101123,0.020191,0.010464,0.999917,-0.012390,0.002846,-0.002312,0.623410,0.307910,0.707280,-0.127697,133.083063,73.840181,96.830844
65186,-10.586515,-4.811254,-5.621870,-6.982218,-3.574464,0.448740,-2.045029,0.592302,-0.398296,-0.106126,-0.048471,-0.055410,0.999941,-0.010225,0.002961,-0.001991,0.624202,0.300518,0.710969,-0.120761,133.278086,73.772359,98.254568
65187,-10.101713,-9.611116,-7.891578,-11.543797,-6.113584,-0.535899,-0.635318,0.378189,-0.379603,-0.101348,-0.096169,-0.078419,0.999991,-0.003177,0.001891,-0.001898,0.623608,0.297442,0.713063,-0.119093,133.945335,73.778638,99.329049
65188,-8.219366,-7.947220,-7.487994,-10.311223,-4.472501,-2.037066,1.114813,0.092772,-0.231344,-0.082320,-0.078958,-0.075283,0.999984,0.005574,0.000464,-0.001157,0.621500,0.300174,0.712987,-0.123623,135.011185,73.834123,99.774325
65189,-7.812919,-1.204019,-6.591372,-5.648994,0.599346,-1.229856,2.348263,-0.040221,-0.071883,-0.078120,-0.011237,-0.066065,0.999931,0.011741,-0.000201,-0.000359,0.618060,0.307198,0.711436,-0.132246,136.380358,73.877993,99.799402
65190,-8.183630,5.408921,-4.461513,0.162525,4.499346,-0.021866,2.533659,-0.028373,-0.026236,-0.081823,0.054659,-0.043937,0.999920,0.012668,-0.000142,-0.000131,0.614232,0.314921,0.709623,-0.141346,137.808172,73.898588,99.775081
65191,-8.380154,9.534347,-1.542095,5.189558,5.834581,0.313113,1.948099,0.065606,-0.047911,-0.083784,0.095508,-0.014464,0.999952,0.009740,0.000328,-0.000240,0.610898,0.320794,0.708456,-0.148272,139.059287,73.887516,99.915946
65192,-8.133614,10.316221,-0.410150,6.675821,5.740610,-0.054297,0.942407,0.078497,-0.174581,-0.081248,0.103251,-0.003583,0.999988,0.004712,0.000392,-0.000873,0.609002,0.323138,0.708235,-0.151991,139.940122,73.917016,100.271253
65193,-7.910196,8.118545,-0.610482,5.159528,4.269148,-0.647091,0.091702,0.201402,-0.314387,-0.078980,0.081312,-0.005988,0.999998,0.000459,0.001007,-0.001572,0.607931,0.322485,0.709252,-0.152923,140.706157,73.942121,101.014242
65194,-9.075578,5.006901,-0.898644,3.026229,1.826519,-0.027576,-0.405216,0.284989,-0.379887,-0.090673,0.050223,-0.008959,0.999995,-0.002026,0.001425,-0.001899,0.607311,0.320152,0.711003,-0.152156,141.394893,73.950881,101.973037
65195,-9.597893,2.347487,-1.887285,0.621373,0.311230,0.222701,-0.430833,0.249768,-0.383315,-0.095957,0.023618,-0.018804,0.999995,-0.002154,0.001249,-0.001917,0.606848,0.317700,0.712665,-0.151362,142.032026,73.973641,102.893333
65196,-9.503911,0.756705,-2.692140,-0.984430,-0.362999,0.038381,-0.177519,0.215050,-0.403356,-0.095052,0.007735,-0.026826,0.999997,-0.000888,0.001075,-0.002017,0.606088,0.315916,0.714056,-0.151587,142.806572,74.016024,103.805445
65197,-9.074002,0.654288,-2.894755,-1.197243,-0.187284,-0.342916,0.074423,0.173630,-0.431050,-0.090751,0.006749,-0.028866,0.999997,0.000372,0.000868,-0.002155,0.605053,0.314763,0.715171,-0.152859,143.725557,74.083207,104.717394
65198,-8.805064,0.726065,-2.912705,-1.144799,-0.028670,-0.580754,0.321464,0.159466,-0.417408,-0.088058,0.007491,-0.029045,0.999996,0.001607,0.000797,-0.002087,0.603686,0.314393,0.716028,-0.154994,144.754868,74.148126,105.596589
65199,-9.347438,0.070020,-2.483274,-1.151001,-0.899838,-0.251756,0.534439,0.184073,-0.387395,-0.093496,0.000947,-0.024744,0.999994,0.002672,0.000920,-0.001937,0.601914,0.314790,0.716741,-0.157762,145.891842,74.187110,106.460622
65200,-9.861049,-0.175060,-2.010992,-0.864051,-1.477771,0.106203,0.658835,0.163966,-0.380555,-0.098630,-0.001497,-0.020034,0.999992,0.003294,0.000820,-0.001903,0.600016,0.315566,0.717275,-0.160984,147.070768,74.228760,107.294018
65201,-9.724858,0.427086,-1.653941,-0.170821,-1.183241,-0.011600,0.677112,0.167909,-0.387602,-0.097254,0.004515,-0.016443,0.999992,0.003386,0.000840,-0.001938,0.598059,0.316370,0.717806,-0.164285,148.281837,74.265949,108.149748
65202,-9.600642,1.625552,-1.294096,0.917579,-0.459076,-0.043527,0.562331,0.217646,-0.380314,-0.095989,0.016474,-0.012790,0.999994,0.002812,0.001088,-0.001902,0.596104,0.316893,0.718559,-0.167070,149.470235,74.271684,109.050178
65203,-9.364612,2.585232,-1.189296,1.652130,0.262503,-0.169287,0.272235,0.261934,-0.377560,-0.093613,0.026045,-0.011735,0.999996,0.001361,0.001310,-0.001888,0.594445,0.316595,0.719674,-0.168734,150.532628,74.249912,109.992388
65204,-9.245112,2.895556,-1.571716,1.603042,0.770697,-0.160602,-0.069665,0.318755,-0.394153,-0.092419,0.029132,-0.015580,0.999997,-0.000348,0.001594,-0.001971,0.593106,0.315267,0.721269,-0.169125,151.480484,74.199738,111.019336
65205,-9.213952,2.657570,-2.038341,1.134594,0.900044,-0.116456,-0.301544,0.351015,-0.418840,-0.092119,0.026738,-0.020262,0.999995,-0.001508,0.001755,-0.002094,0.591990,0.313187,0.723188,-0.168701,152.363541,74.135514,112.117290
65206,-9.435615,2.143530,-2.864327,0.241191,0.977228,0.228061,-0.324851,0.348248,-0.458415,-0.094356,0.021605,-0.028514,0.999995,-0.001624,0.001741,-0.002292,0.590882,0.310890,0.725174,-0.168313,153.293520,74.078268,113.278273
65207,-9.414223,1.395005,-3.853479,-0.948823,1.037077,0.358200,-0.153353,0.299143,-0.492187,-0.094165,0.014152,-0.038405,0.999996,-0.000767,0.001496,-0.002461,0.589651,0.308933,0.726915,-0.168721,154.332273,74.049394,114.450422
65208,-9.397511,0.945201,-5.086492,-2.120619,1.474166,0.599253,0.137573,0.242005,-0.534764,-0.094011,0.009738,-0.050745,0.999995,0.000688,0.001210,-0.002674,0.588137,0.307628,0.728303,-0.170398,155.563446,74.054102,115.649417
65209,-9.647340,1.109523,-5.560534,-2.277418,1.867495,0.982999,0.635725,0.106840,-0.588431,-0.096470,0.011556,-0.055518,0.999990,0.003179,0.000534,-0.002942,0.586295,0.307473,0.728941,-0.174253,157.073074,74.134187,116.840919
65210,-9.407151,1.739270,-5.543665,-1.799949,2.462347,0.814982,1.241685,-0.048175,-0.655068,-0.094000,0.018044,-0.055349,0.999975,0.006208,-0.000241,-0.003275,0.584009,0.308706,0.728674,-0.180744,158.954758,74.301250,118.057527
65211,-9.163504,2.742924,-5.388194,-0.939024,3.269472,0.625337,1.846892,-0.176978,-0.735276,-0.091485,0.028262,-0.053705,0.999950,0.009234,-0.000885,-0.003676,0.581141,0.311275,0.727555,-0.189860,161.285659,74.540958,119.379319
65212,-12.667014,3.775270,-4.645461,0.916385,2.857059,3.872309,2.443977,-0.202328,-0.842981,-0.126461,0.038851,-0.046112,0.999916,0.012220,-0.001012,-0.004215,0.577257,0.315121,0.725865,-0.201474,164.218168,74.796405,120.968569
65213,-16.395605,9.804212,-5.116310,5.483299,6.820660,7.921902,2.396226,-0.679624,-1.176646,-0.163201,0.099612,-0.050531,0.999905,0.011981,-0.003398,-0.005883,0.574741,0.317082,0.723244,-0.214594,167.663475,75.339664,123.113898
65214,-10.041253,14.807031,-5.398612,8.200629,12.029926,1.902204,1.869489,-1.087385,-1.276802,-0.099172,0.149205,-0.053136,0.999921,0.009347,-0.005437,-0.006384,0.574329,0.316674,0.720048,-0.226706,171.081359,76.089340,125.535942
65215,-8.072370,16.129992,-5.161556,9.229064,13.261434,-0.276833,1.030293,-0.797914,-1.244306,-0.079512,0.162061,-0.051101,0.999959,0.005151,-0.003990,-0.006221,0.574171,0.314266,0.718498,-0.235216,174.318944,76.635873,128.260658
65216,-9.857021,15.656787,-2.628404,10.992445,10.901167,0.653022,0.960872,-0.577748,-0.921529,-0.097772,0.157144,-0.025813,0.999974,0.004804,-0.002889,-0.004608,0.573673,0.313054,0.717106,-0.242191,176.984059,77.009007,130.432903
65217,-10.446029,15.752114,0.624715,13.411388,8.582938,0.390568,0.677495,-0.611592,-0.246481,-0.104286,0.157628,0.006462,0.999989,0.003387,-0.003058,-0.001232,0.574536,0.313401,0.714876,-0.246251,177.892321,77.368180,130.967123
65218,-4.811769,16.964127,1.569636,14.149071,9.629042,-5.286875,0.351607,-0.311042,0.479632,-0.048549,0.169497,0.015919,0.999994,0.001758,-0.001555,0.002398,0.575720,0.315768,0.712762,-0.246592,176.795297,77.536622,129.637387
65219,-2.347144,16.858036,-1.887685,11.465085,12.362379,-6.815118,0.215667,0.594980,1.158895,-0.024503,0.168461,-0.018623,0.999978,0.001078,0.002975,0.005794,0.574713,0.321280,0.712329,-0.243046,174.057941,77.146320,126.706183
65220,-7.570651,16.770467,-3.410412,11.137168,12.297717,-1.157464,0.462510,0.951201,1.664827,-0.077259,0.167144,-0.033352,0.999951,0.002313,0.004756,0.008324,0.572613,0.329706,0.711758,-0.238346,170.570959,76.480878,122.853242
65221,-10.399686,19.166729,1.524503,16.500817,9.597843,0.837853,-0.382671,0.616367,1.753969,-0.105626,0.190775,0.015203,0.999955,-0.001913,0.003082,0.008770,0.573153,0.335608,0.711019,-0.230899,166.587721,75.936911,118.978778
65222,-7.735735,18.664666,1.853606,15.849272,9.563498,-1.507955,-2.039931,0.400756,1.680302,-0.078888,0.186165,0.016793,0.999911,-0.010199,0.002004,0.008401,0.577074,0.336196,0.711606,-0.218116,162.000410,75.456723,115.451550
65223,-6.089903,13.564058,-1.268756,9.550732,8.759776,-2.415774,-2.787693,0.514635,1.632083,-0.062038,0.134945,-0.014413,0.999866,-0.013938,0.002573,0.008160,0.581672,0.334516,0.713253,-0.202554,157.443299,74.856018,112.390866
65224,-7.521997,7.864423,-2.838498,4.253216,5.542627,-0.999736,-2.962825,0.583694,1.561525,-0.075913,0.077624,-0.029319,0.999856,-0.014813,0.002918,0.007807,0.586076,0.332039,0.715202,-0.186418,153.287547,74.179582,109.840764
65225,-9.032859,2.532744,-2.431199,0.773527,1.008150,-0.205421,-2.778321,0.383281,1.520509,-0.090563,0.024300,-0.024481,0.999873,-0.013891,0.001916,0.007602,0.590699,0.329692,0.716258,-0.171324,149.382470,73.567682,107.434275
65226,-9.097085,-1.590822,-2.230843,-1.986354,-2.270490,-0.803782,-2.026811,0.133387,1.596801,-0.090854,-0.016858,-0.022080,0.999917,-0.010134,0.000667,0.007984,0.594913,0.329541,0.715662,-0.159091,145.761764,73.012140,104.867024
65227,-7.922591,-2.433098,-2.260971,-2.750233,-2.674877,-2.126443,-0.911207,-0.062639,1.746211,-0.079002,-0.025124,-0.022521,0.999951,-0.004556,-0.000313,0.008731,0.598036,0.333055,0.713246,-0.150689,142.532247,72.452786,102.033294
65228,-7.452720,-0.947032,-1.776457,-1.541114,-1.848657,-2.477747,-0.050707,-0.139948,1.928549,-0.074419,-0.010193,-0.017814,0.999953,-0.000254,-0.000700,0.009643,0.600075,0.339690,0.709586,-0.144943,139.656987,71.819933,99.043556
65229,-8.647094,0.862666,-1.111782,0.091193,-1.417434,-1.167892,0.357011,-0.168748,2.059688,-0.086544,0.007756,-0.011176,0.999945,0.001785,-0.000844,0.010298,0.601562,0.347970,0.705241,-0.140265,137.013034,71.104274,96.040649
65230,-9.531822,2.345676,-0.761539,1.231048,-0.987232,-0.094440,0.392036,-0.254884,2.066841,-0.095544,0.022485,-0.007692,0.999944,0.001960,-0.001274,0.010334,0.603224,0.356268,0.700529,-0.135843,134.497864,70.380712,93.139115
65231,-9.664545,3.007097,-0.899539,1.426729,-0.618900,0.228893,0.160152,-0.297169,1.970727,-0.096922,0.029124,-0.009116,0.999950,0.000801,-0.001486,0.009853,0.605323,0.363476,0.695934,-0.130940,132.093430,69.671577,90.484621
65232,-10.925083,2.400927,-0.936122,0.848616,-1.594046,1.265830,-0.208613,-0.278079,1.798348,-0.109448,0.023016,-0.009538,0.999958,-0.001043,-0.001390,0.008992,0.607851,0.368934,0.691895,-0.125247,129.846032,68.995668,88.211021
65233,-12.060588,0.833553,-1.098259,-0.488972,-3.115540,1.909493,-0.591804,-0.337292,1.616676,-0.120649,0.007327,-0.011209,0.999962,-0.002959,-0.001686,0.008083,0.611133,0.372544,0.688186,-0.118862,127.612351,68.389344,86.178823
65234,-11.386086,-1.339426,-1.937832,-2.692893,-3.960073,0.782380,-0.815779,-0.438934,1.450078,-0.113717,-0.014299,-0.019571,0.999963,-0.004079,-0.002195,0.007250,0.615030,0.374796,0.684565,-0.112413,125.393807,67.868284,84.292462
65235,-10.383055,-3.138217,-2.436442,-4.337698,-4.608167,-0.672698,-0.779458,-0.458326,1.302177,-0.103567,-0.032152,-0.024478,0.999969,-0.003897,-0.002292,0.006511,0.618805,0.376627,0.681086,-0.106555,123.376536,67.395814,82.595335
65236,-10.691552,-4.457899,-1.863782,-4.875043,-6.058582,-1.027387,-0.580681,-0.404001,1.180583,-0.106612,-0.045263,-0.018723,0.999976,-0.002903,-0.002020,0.005903,0.621916,0.378656,0.677868,-0.101659,121.700934,66.946857,81.138879
65237,-12.174106,-5.296939,-2.468645,-6.064943,-6.906163,0.080745,-0.504780,-0.376617,1.046165,-0.121415,-0.053668,-0.024780,0.999981,-0.002524,-0.001883,0.005231,0.624700,0.380473,0.674914,-0.097367,120.245211,66.538691,79.870446
65238,-12.746976,-5.592879,-2.803569,-6.651652,-7.181511,0.473491,-0.344140,-0.429310,0.879086,-0.127162,-0.056537,-0.028212,0.999987,-0.001721,-0.002147,0.004395,0.627250,0.382180,0.672021,-0.094251,118.975908,66.218822,78.700837
65239,-12.745116,-5.725936,-3.247054,-7.173094,-7.032974,0.426969,-0.274923,-0.453403,0.677494,-0.127182,-0.057735,-0.032680,0.999991,-0.001375,-0.002267,0.003387,0.629643,0.383415,0.669382,-0.092030,117.868769,65.995772,77.663347
65240,-12.950104,-5.480444,-3.319756,-7.177630,-6.907460,0.652929,-0.148128,-0.496102,0.449800,-0.129294,-0.055120,-0.033478,0.999994,-0.000741,-0.002481,0.002249,0.631817,0.384253,0.666984,-0.091045,116.939379,65.894084,76.739062
65241,-13.144643,-5.926652,-2.887886,-7.215893,-7.534095,0.551412,-0.088589,-0.549303,0.171927,-0.131315,-0.059392,-0.029213,0.999996,-0.000443,-0.002747,0.000860,0.633925,0.384332,0.664911,-0.091225,116.144380,65.941348,75.924888
65242,-13.116027,-6.644238,-2.755084,-7.617998,-8.047738,0.235496,-0.027532,-0.623901,-0.167048,-0.131129,-0.066337,-0.027951,0.999995,-0.000138,-0.003119,-0.000835,0.635999,0.383431,0.663225,-0.092837,115.484365,66.179301,75.220560
65243,-12.448852,-6.312376,-1.725853,-6.588264,-8.106646,-0.395974,-0.009021,-0.765382,-0.543712,-0.124592,-0.062786,-0.017732,0.999989,-0.000045,-0.003827,-0.002719,0.638324,0.381275,0.661786,-0.095969,114.858299,66.642678,74.543957
65244,-11.710672,-5.610394,-1.228229,-5.708504,-7.537386,-0.828047,-0.133141,-0.883655,-0.955374,-0.117317,-0.055552,-0.012763,0.999979,-0.000666,-0.004418,-0.004777,0.641056,0.377286,0.660799,-0.100236,114.219009,67.346905,73.932864
65245,-10.343277,-5.327899,-0.651671,-4.938167,-7.067489,-1.973236,-0.339414,-0.987095,-1.399484,-0.103769,-0.052565,-0.006939,0.999962,-0.001697,-0.004935,-0.006997,0.644262,0.371098,0.660377,-0.105427,113.536173,68.304141,73.406303
65246,-7.724066,-6.133854,1.182394,-3.719837,-7.730797,-4.804908,-0.589168,-1.048005,-1.789804,-0.077846,-0.060609,0.011596,0.999942,-0.002946,-0.005240,-0.008949,0.647862,0.362745,0.660557,-0.111160,112.798926,69.479034,72.978449
65247,-5.164412,-7.875501,1.169218,-4.491550,-8.055962,-7.579908,-1.023841,-0.965047,-2.101121,-0.052524,-0.078146,0.011841,0.999920,-0.005119,-0.004825,-0.010505,0.651716,0.351955,0.661716,-0.116296,112.051420,70.797990,72.808108
65248,-4.670004,-8.562396,0.497660,-5.298932,-7.991907,-7.964178,-1.243754,-0.808629,-2.341367,-0.047719,-0.085037,0.005315,0.999904,-0.006219,-0.004043,-0.011706,0.655184,0.339681,0.663824,-0.121196,111.524595,72.211360,73.004572
65249,-11.975091,3.695451,-24.613545,-18.320426,13.935484,5.452587,-2.915855,1.352495,-2.327446,-0.121001,0.034772,-0.245838,0.999803,-0.014578,0.006762,-0.011636,0.654139,0.323187,0.673804,-0.116794,113.773945,73.139741,77.111275
65250,-30.975901,15.540885,-19.691717,-8.730728,14.358071,26.331426,-0.719746,0.987578,0.297611,-0.310958,0.154240,-0.195940,0.999980,-0.003599,0.004938,0.001488,0.652163,0.322435,0.676924,-0.111770,114.795455,72.747540,78.611650
65251,-8.904157,4.325938,21.175807,18.752396,-12.072874,-2.827871,7.412111,-1.681325,-0.000681,-0.090826,0.035394,0.212409,0.999278,0.037052,-0.008405,-0.000003,0.645461,0.345456,0.666779,-0.139451,116.188649,73.158024,75.627500
65252,-6.736387,-27.402677,-10.070677,-25.705709,-15.373120,-9.051678,-0.524026,-0.979692,-1.494274,-0.068918,-0.273779,-0.100324,0.999957,-0.002620,-0.004898,-0.007471,0.648591,0.338113,0.666498,-0.144186,115.415766,74.169279,75.135526
65253,-9.014011,-1.240241,-15.430400,-13.079942,6.565869,0.515401,1.766380,1.229263,-2.181313,-0.091205,-0.010051,-0.153841,0.999883,0.008832,0.006146,-0.010906,0.639889,0.337447,0.672785,-0.155024,120.786515,74.936805,79.657784
65254,-20.978575,16.053427,17.340071,22.642514,-4.846622,11.688877,1.624522,-0.954602,-1.444407,-0.209454,0.160638,0.173705,0.999930,0.008122,-0.004773,-0.007222,0.639224,0.337049,0.670825,-0.166683,121.540708,75.924661,79.475828
65255,-1.962951,9.001403,9.309328,12.830571,0.104119,-7.187371,-3.135749,-0.682028,-0.938562,-0.019516,0.091550,0.091599,0.999860,-0.015678,-0.003410,-0.004693,0.645955,0.323292,0.672710,-0.160264,119.457973,76.582735,79.181888
65256,-4.678860,-1.142455,-10.991923,-9.376176,4.962838,-4.202544,-1.843937,0.881074,-1.186331,-0.047343,-0.012156,-0.109602,0.999930,-0.009219,0.004405,-0.005932,0.645007,0.314058,0.678869,-0.156431,121.688936,76.907928,82.559791
65257,-12.759925,-3.930173,-3.788788,-5.718063,-3.508727,2.336691,-1.380985,0.581108,-0.952616,-0.127894,-0.038952,-0.037247,0.999961,-0.006905,0.002906,-0.004763,0.644463,0.306842,0.683257,-0.153868,123.366612,77.185700,85.093734
65258,-10.465688,-6.964866,-1.618656,-5.726624,-6.650731,-0.667606,-1.048762,-0.134496,-0.893546,-0.104956,-0.069264,-0.015893,0.999976,-0.005244,-0.000672,-0.004468,0.645858,0.300327,0.684951,-0.153340,123.717399,77.651930,86.069340
65259,-9.650693,-6.513853,-0.974242,-4.836884,-6.507540,-1.400150,-0.835144,0.124120,-0.798546,-0.096772,-0.064792,-0.009411,0.999983,-0.004176,0.000621,-0.003993,0.646094,0.295014,0.687145,-0.152841,124.673649,77.987349,87.537658
