PacketCounter,Acc_X,Acc_Y,Acc_Z,FreeAcc_E,FreeAcc_N,FreeAcc_U,Gyr_X,Gyr_Y,Gyr_Z,VelInc_X,VelInc_Y,VelInc_Z,OriInc_q0,OriInc_q1,OriInc_q2,OriInc_q3,Quat_q0,Quat_q1,Quat_q2,Quat_q3,Roll,Pitch,Yaw
35989,-8.774854,5.002751,0.073271,0.732033,0.166602,0.260396,0.112899,0.272317,0.534401,-0.087881,0.049792,0.000880,0.999995,0.000564,0.001362,0.002672,0.528043,0.646151,0.240622,-0.495742,83.676932,63.478446,-28.430203
35990,-8.698363,5.303962,0.316341,0.856982,-0.175378,0.342513,0.015067,0.297388,0.561641,-0.087127,0.052795,0.003297,0.999995,0.000075,0.001487,0.002808,0.529057,0.647599,0.239507,-0.493306,84.085928,63.170526,-27.982156
35991,-8.707857,5.119798,0.209098,0.677012,-0.014732,0.268182,-0.049318,0.306642,0.595210,-0.087227,0.050939,0.002212,0.999994,-0.000247,0.001533,0.002976,0.530345,0.648939,0.238464,-0.490661,84.464902,62.842298,-27.525514
35992,-8.585803,5.055633,0.204482,0.607103,-0.015626,0.134574,0.066283,0.305855,0.639273,-0.086016,0.050281,0.002193,0.999994,0.000331,0.001529,0.003196,0.531361,0.650622,0.236989,-0.488040,84.900961,62.487756,-27.077399
35993,-8.545756,5.146860,0.381101,0.559732,-0.218975,0.152436,0.045918,0.332551,0.655191,-0.085619,0.051187,0.003965,0.999993,0.000230,0.001663,0.003276,0.532442,0.652332,0.235582,-0.485253,85.347025,62.123659,-26.603582
35994,-8.503970,5.142170,0.413562,0.488052,-0.257541,0.118349,-0.052971,0.368996,0.682306,-0.085207,0.051132,0.004279,0.999992,-0.000265,0.001845,0.003412,0.533863,0.653883,0.234418,-0.482158,85.763666,61.744245,-26.097028
35995,-8.570049,4.959642,0.168414,0.328785,0.042181,0.084879,-0.091207,0.367885,0.706938,-0.085872,0.049294,0.001819,0.999992,-0.000456,0.001839,0.003535,0.535458,0.655354,0.233260,-0.478942,86.149139,61.348798,-25.599431
35996,-8.338113,5.313089,0.249433,0.612875,-0.188013,0.056651,-0.191151,0.377422,0.729011,-0.083569,0.052829,0.002601,0.999991,-0.000956,0.001887,0.003645,0.537416,0.656589,0.232289,-0.475517,86.474879,60.939876,-25.102471
35997,-8.214119,4.948170,0.002893,0.386025,0.136913,-0.232087,-0.275570,0.445332,0.762976,-0.082329,0.049168,0.000144,0.999989,-0.001378,0.002227,0.003815,0.539640,0.657791,0.231587,-0.471664,86.814039,60.512121,-24.532960
35998,-8.301842,4.901214,0.044164,0.215099,0.137667,-0.175328,-0.202519,0.406742,0.779330,-0.083207,0.048689,0.000561,0.999990,-0.001013,0.002034,0.003897,0.541698,0.659098,0.230548,-0.467975,87.142062,60.072533,-24.021712
35999,-8.089914,4.924061,0.041126,0.251971,0.097245,-0.345834,-0.180048,0.387170,0.799547,-0.081094,0.048917,0.000524,0.999990,-0.000900,0.001936,0.003998,0.543738,0.660436,0.229334,-0.464305,87.454513,59.619114,-23.541388
36000,-7.931936,4.952824,0.163368,0.222780,-0.051830,-0.462827,-0.105981,0.414103,0.836331,-0.079522,0.049197,0.001772,0.999989,-0.000530,0.002071,0.004182,0.545579,0.662059,0.227893,-0.460528,87.822697,59.144176,-23.043002
36001,-7.913770,5.038846,0.389642,0.135408,-0.288455,-0.428262,-0.150715,0.425390,0.852969,-0.079343,0.050053,0.004027,0.999988,-0.000754,0.002127,0.004265,0.547578,0.663597,0.226526,-0.456600,88.165526,58.658015,-22.542132
36002,-7.915908,4.830678,0.152207,-0.031474,0.000607,-0.538064,-0.181434,0.435937,0.870867,-0.079365,0.047963,0.001651,0.999988,-0.000907,0.002180,0.004354,0.549697,0.665072,0.225193,-0.452549,88.486315,58.160653,-22.043506
36003,-8.140731,4.702753,-0.039733,-0.262158,0.265783,-0.418596,-0.105010,0.425030,0.878546,-0.081613,0.046669,-0.000249,0.999988,-0.000525,0.002125,0.004393,0.551576,0.666731,0.223627,-0.448581,88.830192,57.656867,-21.566955
36004,-8.133615,4.718257,-0.291831,-0.246298,0.496251,-0.421455,0.018227,0.392365,0.862042,-0.081544,0.046832,-0.002754,0.999989,0.000091,0.001962,0.004310,0.553033,0.668616,0.221742,-0.444901,89.200644,57.161025,-21.139671
36005,-8.230060,5.009079,-0.138288,-0.210047,0.284350,-0.183658,0.026777,0.420960,0.873739,-0.082521,0.049731,-0.001203,0.999988,0.000134,0.002105,0.004369,0.554440,0.670592,0.219875,-0.441086,89.591206,56.656765,-20.692205
36006,-8.197167,5.206152,-0.094898,-0.145872,0.175025,-0.104239,0.102388,0.412761,0.850186,-0.082194,0.051713,-0.000753,0.999989,0.000512,0.002064,0.004251,0.555540,0.672712,0.217891,-0.437443,90.003761,56.164662,-20.267386
36007,-8.370108,5.196739,-0.302350,-0.262307,0.401085,0.032408,0.020323,0.379763,0.827852,-0.083921,0.051621,-0.002859,0.999990,0.000102,0.001899,0.004139,0.556889,0.674499,0.216066,-0.433868,90.332054,55.683528,-19.885522
36008,-8.289930,5.723086,-0.029947,0.005331,-0.022077,0.260862,0.094511,0.318516,0.810051,-0.083130,0.056895,-0.000140,0.999990,0.000473,0.001593,0.004050,0.558006,0.676321,0.213964,-0.430627,90.640761,55.212090,-19.576455
36009,-8.194171,5.606544,0.022246,-0.135138,-0.052096,0.114888,-0.103931,0.304730,0.778500,-0.082159,0.055746,0.000319,0.999991,-0.000520,0.001524,0.003892,0.559728,0.677518,0.212355,-0.427293,90.819361,54.757712,-19.286124
36010,-8.204283,5.840034,0.039359,-0.046704,-0.123447,0.257064,-0.056155,0.271402,0.750874,-0.082261,0.058092,0.000489,0.999992,-0.000281,0.001357,0.003754,0.561257,0.678732,0.210639,-0.424199,90.991300,54.319334,-19.035531
36011,-8.086652,6.065151,0.277493,0.033452,-0.418880,0.290775,-0.223018,0.241003,0.739936,-0.081087,0.060355,0.002805,0.999992,-0.001115,0.001205,0.003700,0.563349,0.679395,0.209227,-0.421050,91.041001,53.886870,-18.816903
36012,-8.029569,5.887205,0.128897,-0.090240,-0.219085,0.141870,-0.272410,0.227830,0.719523,-0.080505,0.058584,0.001301,0.999992,-0.001362,0.001139,0.003598,0.565574,0.679854,0.207946,-0.417952,91.047718,53.466555,-18.614848
36013,-8.012470,5.839365,0.124962,-0.182312,-0.183857,0.099227,-0.266143,0.219162,0.682513,-0.080322,0.058121,0.001260,0.999993,-0.001331,0.001096,0.003413,0.567697,0.680268,0.206751,-0.414981,91.051053,53.067134,-18.420888
36014,-8.071401,5.806663,0.103308,-0.296802,-0.122613,0.125725,-0.314706,0.245012,0.650212,-0.080901,0.057805,0.001041,0.999993,-0.001574,0.001225,0.003251,0.569886,0.680550,0.205836,-0.411964,91.042799,52.686340,-18.205100
36015,-8.198859,5.770008,-0.082968,-0.397326,0.109423,0.204848,-0.336432,0.197387,0.617847,-0.082167,0.057445,-0.000845,0.999993,-0.001682,0.000987,0.003089,0.572120,0.680633,0.204938,-0.409166,90.986516,52.324258,-18.033570
36016,-8.076207,5.814385,-0.073330,-0.352153,0.090335,0.132418,-0.329838,0.155839,0.581557,-0.080931,0.057907,-0.000766,0.999994,-0.001649,0.000779,0.002908,0.574296,0.680600,0.204028,-0.406622,90.901122,51.983872,-17.902392
36017,-7.878915,5.810410,-0.019483,-0.308253,0.028506,-0.027879,-0.334206,0.141812,0.549471,-0.078949,0.057887,-0.000236,0.999995,-0.001671,0.000709,0.002747,0.576426,0.680490,0.203194,-0.404202,90.804351,51.661744,-17.782413
36018,-7.832432,5.769125,0.100396,-0.397101,-0.058632,-0.092681,-0.334735,0.144147,0.524466,-0.078475,0.057487,0.000964,0.999995,-0.001674,0.000721,0.002622,0.578502,0.680345,0.202449,-0.401847,90.707298,51.354420,-17.661378
36019,-7.882679,5.878976,0.044784,-0.373129,0.001243,0.013887,-0.333097,0.114316,0.489973,-0.078970,0.058597,0.000395,0.999995,-0.001665,0.000572,0.002450,0.580524,0.680108,0.201732,-0.399686,90.591403,51.066833,-17.565737
36020,-7.657150,5.897128,-0.096275,-0.221836,0.113283,-0.150642,-0.319771,0.102759,0.444977,-0.076703,0.058799,-0.001017,0.999996,-0.001599,0.000514,0.002225,0.582421,0.679831,0.201105,-0.397710,90.473787,50.805567,-17.481254
36021,-7.517536,5.894387,0.009783,-0.210769,0.007703,-0.262158,-0.264448,0.138182,0.430299,-0.075302,0.058782,0.000072,0.999997,-0.001322,0.000691,0.002151,0.584057,0.679770,0.200520,-0.395703,90.414091,50.552289,-17.363101
36022,-7.617616,5.957131,-0.012961,-0.257009,0.049595,-0.145888,-0.215278,0.151752,0.416444,-0.076300,0.059412,-0.000136,0.999997,-0.001076,0.000759,0.002082,0.585485,0.679857,0.199922,-0.393744,90.390000,50.307296,-17.234346
36023,-7.656847,6.008869,-0.160557,-0.236982,0.199992,-0.083180,-0.198095,0.123739,0.403006,-0.076690,0.059933,-0.001618,0.999997,-0.000990,0.000619,0.002015,0.586849,0.679926,0.199254,-0.391928,90.357300,50.069808,-17.129712
36024,-7.520408,6.076747,-0.260807,-0.111129,0.268481,-0.144862,-0.159107,0.105918,0.393103,-0.075325,0.060617,-0.002616,0.999998,-0.000796,0.000530,0.001966,0.588078,0.680056,0.198488,-0.390244,90.332871,49.838428,-17.042544
36025,-7.490876,6.178983,-0.128485,-0.094736,0.125626,-0.102657,-0.111713,0.096394,0.384888,-0.075028,0.061645,-0.001283,0.999998,-0.000559,0.000482,0.001924,0.589135,0.680301,0.197631,-0.388656,90.330147,49.611469,-16.962794
36026,-7.431186,6.365709,-0.008240,0.005992,-0.030581,-0.027813,-0.112563,0.073163,0.382043,-0.074433,0.063515,-0.000091,0.999998,-0.000563,0.000366,0.001910,0.590212,0.680486,0.196714,-0.387159,90.309508,49.386555,-16.905124
36027,-7.346524,6.504298,0.190154,0.065723,-0.252083,-0.002209,-0.153749,0.046241,0.374167,-0.073586,0.064907,0.001869,0.999998,-0.000769,0.000231,0.001871,0.591434,0.680494,0.195824,-0.385729,90.248635,49.165927,-16.869795
36028,-7.249862,6.540605,0.252781,0.101159,-0.319590,-0.050955,-0.197960,0.050756,0.368930,-0.072618,0.065275,0.002482,0.999998,-0.000990,0.000254,0.001845,0.592793,0.680365,0.195050,-0.384259,90.164135,48.948647,-16.831509
36029,-7.248845,6.555738,0.175081,0.103725,-0.228330,-0.040733,-0.227156,0.054358,0.359958,-0.072606,0.065429,0.001696,0.999998,-0.001136,0.000272,0.001800,0.594225,0.680150,0.194372,-0.382768,90.066834,48.736209,-16.788460
36030,-7.183922,6.624271,0.049089,0.200146,-0.112832,-0.043388,-0.259450,0.055450,0.351233,-0.071955,0.066117,0.000425,0.999998,-0.001297,0.000277,0.001756,0.595749,0.679824,0.193787,-0.381272,89.950581,48.529156,-16.745292
36031,-7.162134,6.617039,0.025725,0.185562,-0.070054,-0.063709,-0.266423,0.062548,0.351983,-0.071738,0.066044,0.000192,0.999998,-0.001332,0.000313,0.001760,0.597286,0.679494,0.193234,-0.379735,89.836504,48.321395,-16.694314
36032,-7.153284,6.602494,0.074316,0.137582,-0.092104,-0.079219,-0.281348,0.068884,0.343137,-0.071646,0.065903,0.000675,0.999997,-0.001407,0.000344,0.001716,0.598850,0.679113,0.192756,-0.378192,89.716771,48.119128,-16.638710
36033,-7.269433,6.607880,0.078684,0.037132,-0.051872,0.011301,-0.290734,0.066782,0.338898,-0.072806,0.065957,0.000715,0.999997,-0.001454,0.000334,0.001694,0.600434,0.678699,0.192304,-0.376652,89.591826,47.919011,-16.583290
36034,-7.303744,6.638000,0.026041,0.023445,0.023043,0.056822,-0.296882,0.061008,0.324086,-0.073145,0.066262,0.000184,0.999998,-0.001484,0.000305,0.001620,0.602016,0.678231,0.191895,-0.375174,89.458518,47.727786,-16.533646
36035,-7.249093,6.587724,0.005812,0.001513,0.065593,-0.017633,-0.282760,0.059992,0.315165,-0.072595,0.065763,-0.000013,0.999998,-0.001414,0.000300,0.001576,0.603528,0.677798,0.191486,-0.373732,89.334148,47.541389,-16.483296
36036,-7.176238,6.539775,0.013622,-0.013748,0.076472,-0.103872,-0.285270,0.059516,0.310381,-0.071864,0.065286,0.000064,0.999998,-0.001426,0.000298,0.001552,0.605041,0.677344,0.191095,-0.372308,89.206900,47.358155,-16.434162
36037,-7.046385,6.517643,-0.164891,0.078003,0.250258,-0.216355,-0.304385,0.073633,0.303386,-0.070563,0.065067,-0.001722,0.999998,-0.001522,0.000368,0.001517,0.606586,0.676853,0.190806,-0.370832,89.078905,47.178773,-16.371589
36038,-7.145002,6.456641,-0.107700,-0.070030,0.246577,-0.185378,-0.268206,0.087254,0.287814,-0.071543,0.064462,-0.001132,0.999998,-0.001341,0.000436,0.001439,0.607967,0.676474,0.190542,-0.369395,88.978678,47.008878,-16.298629
36039,-7.208849,6.425975,-0.019985,-0.181362,0.195891,-0.159204,-0.196391,0.093824,0.262178,-0.072173,0.064165,-0.000229,0.999999,-0.000982,0.000469,0.001311,0.609047,0.676303,0.190253,-0.368076,88.924582,46.853455,-16.219271
36040,-7.140434,6.430732,-0.006147,-0.159264,0.181201,-0.206340,-0.186771,0.088919,0.236967,-0.071481,0.064223,-0.000090,0.999999,-0.000934,0.000445,0.001185,0.610053,0.676122,0.190014,-0.366863,88.871267,46.712821,-16.145593
36041,-7.017526,6.372677,-0.232363,-0.081056,0.397161,-0.339234,-0.151725,0.097200,0.232540,-0.070250,0.063643,-0.002338,0.999999,-0.000759,0.000486,0.001163,0.610920,0.676063,0.189752,-0.365663,88.844144,46.574512,-16.063971
36042,-6.974104,6.380268,-0.353338,-0.038510,0.510971,-0.367680,-0.072243,0.106904,0.249615,-0.069822,0.063714,-0.003519,0.999999,-0.000361,0.000535,0.001248,0.611543,0.676273,0.189315,-0.364458,88.867041,46.426875,-15.975348
36043,-7.024078,6.513921,-0.324362,-0.011194,0.469739,-0.239118,0.022868,0.099817,0.253610,-0.070325,0.065050,-0.003201,0.999999,0.000114,0.000499,0.001268,0.611853,0.676769,0.188670,-0.363349,88.941065,46.276486,-15.891813
36044,-7.057956,6.586631,0.004652,-0.095245,0.142872,-0.160282,0.073902,0.089307,0.244278,-0.070660,0.065780,0.000102,0.999999,0.000370,0.000447,0.001221,0.611986,0.677387,0.187931,-0.362357,89.036107,46.131587,-15.818808
36045,-7.283714,6.451861,0.388370,-0.464545,-0.165794,-0.087128,0.091694,0.086016,0.196067,-0.072899,0.064445,0.003945,0.999999,0.000458,0.000430,0.000980,0.611970,0.678012,0.187313,-0.361533,89.139738,46.013862,-15.748543
36046,-7.369752,6.268746,0.578162,-0.717747,-0.305800,-0.151632,0.079331,0.070394,0.120319,-0.073733,0.062641,0.005832,1.000000,0.000397,0.000352,0.000602,0.611876,0.678494,0.186926,-0.360989,89.224706,45.939654,-15.693595
36047,-7.104376,6.316415,0.233576,-0.428412,-0.035804,-0.313266,0.015719,0.044697,0.066060,-0.071064,0.063140,0.002357,1.000000,0.000079,0.000223,0.000330,0.611920,0.678689,0.186759,-0.360632,89.258718,45.895991,-15.659459
36048,-6.758655,6.601364,-0.280373,0.127236,0.343395,-0.368010,-0.003264,0.024715,0.077709,-0.067613,0.065987,-0.002796,1.000000,-0.000016,0.000124,0.000389,0.612072,0.678796,0.186525,-0.360296,89.268807,45.845805,-15.642802
36049,-6.464834,7.034537,-0.213701,0.596630,0.144444,-0.276041,0.059368,0.037199,0.120545,-0.064691,0.070307,-0.002104,1.000000,0.000297,0.000186,0.000603,0.612073,0.679162,0.186072,-0.359838,89.323669,45.770860,-15.614411
36050,-6.733938,7.208216,0.361728,0.370541,-0.394123,0.043401,0.044401,0.046361,0.157250,-0.067395,0.072028,0.003649,1.000000,0.000222,0.000232,0.000786,0.612185,0.679526,0.185548,-0.359229,89.374180,45.675227,-15.579400
36051,-7.172281,7.089350,0.782735,-0.131382,-0.695682,0.277502,-0.012683,0.011197,0.113914,-0.071763,0.070853,0.007827,1.000000,-0.000063,0.000056,0.000570,0.612443,0.679618,0.185167,-0.358813,89.372257,45.603872,-15.572600
36052,-7.127246,6.950552,0.588331,-0.153524,-0.482601,0.147104,-0.157694,-0.016368,0.057569,-0.071293,0.069490,0.005823,1.000000,-0.000788,-0.000082,0.000288,0.613120,0.679158,0.185153,-0.358534,89.269532,45.564934,-15.589927
36053,-6.983244,6.792314,-0.320402,0.068925,0.414177,-0.074744,-0.302498,-0.011316,0.044303,-0.069847,0.067903,-0.003311,0.999999,-0.001512,-0.000057,0.000222,0.614257,0.678255,0.185459,-0.358139,89.088018,45.533288,-15.602060
36054,-6.853727,6.723914,-0.852733,0.244941,0.936705,-0.222364,-0.233280,-0.018306,0.052869,-0.068554,0.067211,-0.008612,0.999999,-0.001166,-0.000092,0.000264,0.615182,0.677554,0.185589,-0.357810,88.941050,45.496960,-15.620718
36055,-6.856700,6.796746,-0.321535,0.153478,0.428330,-0.163520,-0.143137,-0.060733,0.073816,-0.068591,0.067940,-0.003285,1.000000,-0.000716,-0.000304,0.000369,0.615876,0.677078,0.185358,-0.357638,88.822624,45.447812,-15.672476
36056,-6.843847,6.850587,0.160338,0.071944,-0.031687,-0.128252,-0.150887,-0.098012,0.079350,-0.068466,0.068480,0.001518,1.000000,-0.000754,-0.000490,0.000397,0.616642,0.676511,0.185005,-0.357573,88.677080,45.395257,-15.755442
36057,-6.940403,6.750247,0.271622,-0.093398,-0.083889,-0.128008,-0.188931,-0.098540,0.051503,-0.069423,0.067487,0.002618,0.999999,-0.000945,-0.000493,0.000258,0.617484,0.675804,0.184814,-0.357555,88.510537,45.358173,-15.838031
36058,-6.871047,6.547634,0.010748,-0.119260,0.208848,-0.324535,-0.208652,-0.061426,0.017371,-0.068716,0.065470,0.000018,0.999999,-0.001043,-0.000307,0.000087,0.618300,0.675065,0.184887,-0.357503,88.352568,45.341368,-15.892041
36059,-6.743252,6.326196,-0.087616,-0.159295,0.330391,-0.573350,-0.135645,-0.016262,-0.000022,-0.067432,0.063261,-0.000925,1.000000,-0.000678,-0.000081,-0.000000,0.618793,0.674622,0.185028,-0.357415,88.263618,45.334901,-15.908522
36060,-6.706233,6.287281,-0.020431,-0.177448,0.271778,-0.625820,-0.047540,-0.009116,0.001661,-0.067063,0.062872,-0.000222,1.000000,-0.000238,-0.000046,0.000008,0.618988,0.674459,0.185028,-0.357384,88.228067,45.327887,-15.920216
36061,-6.683690,6.361850,0.046615,-0.127788,0.193817,-0.588094,-0.010887,-0.030134,0.001075,-0.066837,0.063618,0.000453,1.000000,-0.000054,-0.000151,0.000005,0.619075,0.674378,0.184900,-0.357454,88.202608,45.320537,-15.947949
36062,-6.692780,6.467976,0.151125,-0.087747,0.078480,-0.504788,0.047237,-0.031731,0.002420,-0.066929,0.064679,0.001516,1.000000,0.000236,-0.000159,0.000012,0.618972,0.674469,0.184657,-0.357585,88.208288,45.312677,-15.978030
36063,-6.771828,6.629505,0.213111,-0.046944,0.005852,-0.333702,0.066580,-0.023376,0.003543,-0.067720,0.066293,0.002145,1.000000,0.000333,-0.000117,0.000018,0.618796,0.674641,0.184403,-0.357696,88.231183,45.304043,-16.000194
36064,-6.778958,6.717384,0.044167,0.050268,0.153286,-0.270494,0.078601,-0.018902,-0.005101,-0.067788,0.067175,0.000462,1.000000,0.000393,-0.000095,-0.000026,0.618562,0.674845,0.184170,-0.357836,88.262130,45.300731,-16.020018
36065,-6.810247,6.955615,0.004990,0.201958,0.153164,-0.081510,0.095412,-0.013570,-0.002513,-0.068102,0.069557,0.000078,1.000000,0.000477,-0.000068,-0.000013,0.618268,0.675118,0.183915,-0.357960,88.307110,45.295755,-16.034357
36066,-6.854529,7.089389,0.083355,0.242333,0.059285,0.045746,0.089855,-0.028670,-0.000079,-0.068545,0.070894,0.000856,1.000000,0.000449,-0.000143,-0.000000,0.618014,0.675344,0.183614,-0.358127,88.338939,45.289421,-16.062016
36067,-6.856042,7.314942,0.275152,0.346416,-0.166068,0.209379,0.051130,-0.037289,-0.007539,-0.068558,0.073151,0.002757,1.000000,0.000256,-0.000186,-0.000038,0.617882,0.675433,0.183382,-0.358305,88.344744,45.286935,-16.095779
36068,-6.859869,7.310396,0.216311,0.355666,-0.106522,0.207724,-0.001831,-0.036232,-0.005825,-0.068597,0.073106,0.002150,1.000000,-0.000009,-0.000181,-0.000029,0.617935,0.675356,0.183241,-0.358431,88.319574,45.283769,-16.129728
36069,-6.878225,7.213131,0.237214,0.270371,-0.103203,0.152841,-0.016659,-0.032643,0.008007,-0.068786,0.072129,0.002355,1.000000,-0.000083,-0.000163,0.000040,0.618055,0.675259,0.183092,-0.358484,88.289495,45.272429,-16.159325
36070,-6.881139,7.140629,0.207330,0.225545,-0.055958,0.103342,-0.049674,-0.039366,0.010055,-0.068815,0.071403,0.002042,1.000000,-0.000248,-0.000197,0.000050,0.618300,0.675043,0.182974,-0.358528,88.235400,45.260084,-16.195415
36071,-6.922408,7.091814,0.100686,0.191195,0.071497,0.095997,-0.076976,-0.048709,0.015686,-0.069230,0.070913,0.000963,1.000000,-0.000385,-0.000244,0.000078,0.618653,0.674737,0.182858,-0.358555,88.161654,45.244009,-16.237842
36072,-6.923243,7.104268,0.069011,0.207228,0.109937,0.104552,-0.072388,-0.058376,0.018150,-0.069239,0.071037,0.000644,1.000000,-0.000362,-0.000292,0.000091,0.619006,0.674424,0.182694,-0.358617,88.083780,45.226610,-16.289112
36073,-6.853303,7.130983,0.051873,0.276438,0.117669,0.073216,-0.059168,-0.057098,0.027705,-0.068543,0.071300,0.000478,1.000000,-0.000296,-0.000285,0.000139,0.619328,0.674168,0.182479,-0.358652,88.015718,45.203404,-16.337933
36074,-6.836951,7.115459,0.009090,0.285524,0.166486,0.049588,-0.031324,-0.050439,0.038981,-0.068383,0.071141,0.000063,1.000000,-0.000157,-0.000252,0.000195,0.619573,0.674016,0.182196,-0.358660,87.966468,45.174154,-16.382062
36075,-6.817264,7.158527,-0.020873,0.331679,0.189667,0.065270,0.015977,-0.042034,0.057291,-0.068193,0.071566,-0.000217,1.000000,0.000080,-0.000210,0.000286,0.619680,0.674047,0.181793,-0.358621,87.950858,45.134252,-16.417683
36076,-6.843480,7.167721,0.041556,0.297384,0.136130,0.092069,0.031116,-0.031233,0.070680,-0.068460,0.071653,0.000416,1.000000,0.000156,-0.000156,0.000353,0.619753,0.674151,0.181351,-0.358523,87.949182,45.087222,-16.445219
36077,-6.789062,7.127458,0.010319,0.305993,0.163361,0.024579,0.048169,-0.015400,0.081996,-0.067920,0.071247,0.000115,1.000000,0.000241,-0.000077,0.000410,0.619772,0.674351,0.180889,-0.358346,87.967897,45.033709,-16.458467
36078,-6.849279,7.028186,0.097567,0.163964,0.106666,-0.000487,0.080325,0.000732,0.094163,-0.068526,0.070249,0.001004,1.000000,0.000402,0.000004,0.000471,0.619692,0.674686,0.180379,-0.358112,88.013233,44.973889,-16.459444
36079,-6.911449,7.036710,0.096192,0.116454,0.116663,0.049639,0.074148,0.001758,0.097385,-0.069149,0.070333,0.000989,1.000000,0.000371,0.000009,0.000487,0.619635,0.675011,0.179872,-0.357853,88.056915,44.911907,-16.458451
36080,-6.821380,6.996780,0.058934,0.148462,0.139264,-0.042929,0.064841,0.009930,0.096262,-0.068247,0.069935,0.000615,1.000000,0.000324,0.000050,0.000481,0.619603,0.675315,0.179410,-0.357567,88.098577,44.851063,-16.452064
36081,-6.847058,7.088650,0.048599,0.185010,0.135724,0.040275,0.096751,0.010986,0.093756,-0.068504,0.070854,0.000524,1.000000,0.000484,0.000055,0.000469,0.619454,0.675723,0.178903,-0.357307,88.160294,44.791330,-16.443858
36082,-6.845974,7.068116,0.253231,0.106504,-0.063038,0.029793,0.102243,0.011904,0.089922,-0.068491,0.070649,0.002573,1.000000,0.000511,0.000060,0.000450,0.619281,0.676141,0.178402,-0.357068,88.224254,44.734143,-16.436225
36083,-6.825427,7.124964,0.171233,0.169560,-0.002054,0.054031,0.071549,0.024491,0.083770,-0.068284,0.071220,0.001746,1.000000,0.000358,0.000122,0.000419,0.619187,0.676485,0.178016,-0.356771,88.278866,44.680350,-16.417578
36084,-6.864195,7.187828,-0.036546,0.229974,0.192364,0.121772,0.061950,0.017044,0.084344,-0.068672,0.071849,-0.000337,1.000000,0.000310,0.000085,0.000422,0.619136,0.676781,0.177621,-0.356495,88.322427,44.626435,-16.406106
36085,-6.830342,7.219151,0.124293,0.221924,0.022126,0.123883,0.068842,0.013927,0.077933,-0.068331,0.072164,0.001273,1.000000,0.000344,0.000070,0.000390,0.619049,0.677093,0.177227,-0.356249,88.369295,44.575783,-16.396245
36086,-6.789340,7.170229,0.161705,0.197043,-0.015418,0.061238,0.032798,0.009439,0.082365,-0.067923,0.071674,0.001632,1.000000,0.000164,0.000047,0.000412,0.619099,0.677284,0.176867,-0.355979,88.391731,44.522868,-16.391056
36087,-6.771003,7.115380,0.113545,0.175702,0.037638,0.008500,0.001642,0.006438,0.081682,-0.067739,0.071126,0.001138,1.000000,0.000008,0.000032,0.000408,0.619254,0.677377,0.176556,-0.355687,88.395873,44.469936,-16.387199
36088,-6.787131,7.034792,0.091140,0.107541,0.078885,-0.038029,-0.014583,0.007271,0.074464,-0.067897,0.070323,0.000909,1.000000,-0.000073,0.000036,0.000372,0.619452,0.677409,0.176301,-0.355407,88.389795,44.421510,-16.383953
36089,-6.786526,6.939767,0.079570,0.039114,0.109260,-0.106496,-0.023356,0.005964,0.066613,-0.067888,0.069375,0.000790,1.000000,-0.000117,0.000030,0.000333,0.619664,0.677411,0.176084,-0.355141,88.379110,44.377197,-16.380810
36090,-6.786945,6.870820,0.046178,-0.005554,0.156469,-0.156166,-0.022606,0.010552,0.057467,-0.067889,0.068689,0.000458,1.000000,-0.000113,0.000053,0.000287,0.619856,0.677409,0.175910,-0.354895,88.370011,44.338559,-16.375305
36091,-6.756698,6.742348,-0.005196,-0.064098,0.224254,-0.270263,-0.019163,0.010050,0.048337,-0.067583,0.067407,-0.000055,1.000000,-0.000096,0.000050,0.000242,0.620018,0.677415,0.175761,-0.354676,88.363732,44.304784,-16.369294
36092,-6.701709,6.703322,0.024846,-0.065440,0.192640,-0.336050,-0.000819,0.005246,0.037943,-0.067030,0.067021,0.000250,1.000000,-0.000004,0.000026,0.000190,0.620106,0.677454,0.175598,-0.354527,88.363838,44.277242,-16.368476
36093,-6.735735,6.664332,0.028581,-0.120029,0.202296,-0.340152,0.025663,0.012481,0.016981,-0.067363,0.066638,0.000299,1.000000,0.000128,0.000062,0.000085,0.620058,0.677575,0.175483,-0.354437,88.384097,44.261471,-16.361245
36094,-6.721391,6.646656,-0.023789,-0.110822,0.251064,-0.363857,0.033942,0.011940,0.002032,-0.067215,0.066466,-0.000223,1.000000,0.000170,0.000060,0.000010,0.619959,0.677702,0.175401,-0.354407,88.407278,44.254603,-16.355901
36095,-6.704491,6.659106,-0.040167,-0.088273,0.257508,-0.366979,0.073758,0.012254,-0.007885,-0.067042,0.066594,-0.000373,1.000000,0.000369,0.000061,-0.000039,0.619704,0.677951,0.175284,-0.354437,88.454575,44.253075,-16.349420
36096,-6.660303,6.723648,0.085943,-0.049138,0.110054,-0.349077,0.098680,0.010261,-0.010568,-0.066599,0.067240,0.000896,1.000000,0.000493,0.000051,-0.000053,0.619365,0.678264,0.175125,-0.354509,88.513715,44.253393,-16.345699
36097,-6.654892,6.838318,0.109648,0.024052,0.059576,-0.270253,0.100094,0.007703,-0.012444,-0.066545,0.068387,0.001133,1.000000,0.000500,0.000039,-0.000062,0.619016,0.678582,0.174962,-0.354590,88.573498,44.254408,-16.342955
36098,-6.737424,6.927228,0.130136,0.020509,0.033957,-0.148592,0.106521,0.009606,-0.018021,-0.067368,0.069278,0.001341,1.000000,0.000533,0.000048,-0.000090,0.618637,0.678911,0.174812,-0.354694,88.636665,44.258980,-16.339902
36099,-6.784161,7.003369,0.188518,0.023238,-0.034378,-0.060465,0.109860,0.018651,-0.027976,-0.067832,0.070042,0.001930,1.000000,0.000549,0.000093,-0.000140,0.618218,0.679264,0.174719,-0.354795,88.707956,44.269036,-16.328686
36100,-6.804110,7.041784,0.147778,0.046165,-0.006285,-0.019715,0.098278,0.019410,-0.037269,-0.068028,0.070430,0.001519,1.000000,0.000491,0.000097,-0.000186,0.617824,0.679569,0.174679,-0.354918,88.771651,44.284752,-16.318112
36101,-6.777185,7.112440,0.012751,0.149630,0.098438,0.009997,0.068708,0.019037,-0.050272,-0.067754,0.071141,0.000158,1.000000,0.000344,0.000095,-0.000251,0.617504,0.679776,0.174736,-0.355051,88.819342,44.307568,-16.306929
36102,-6.726120,7.151494,0.030366,0.208976,0.058034,0.002527,0.053294,0.022374,-0.054789,-0.067242,0.071533,0.000330,1.000000,0.000266,0.000112,-0.000274,0.617229,0.679931,0.174845,-0.355178,88.858760,44.333341,-16.294221
36103,-6.736885,7.175987,0.193256,0.177499,-0.107398,0.029808,0.061561,0.019687,-0.057876,-0.067348,0.071779,0.001961,1.000000,0.000308,0.000098,-0.000289,0.616920,0.680110,0.174942,-0.355325,88.902686,44.360504,-16.282574
36104,-6.816583,7.149537,0.406420,0.052201,-0.296495,0.069429,0.010087,0.006613,-0.071096,-0.068140,0.071519,0.004070,1.000000,0.000050,0.000033,-0.000355,0.616776,0.680090,0.175134,-0.355519,88.908387,44.395436,-16.282692
36105,-6.734374,6.984487,0.215515,0.054223,-0.099501,-0.108644,-0.056362,-0.007241,-0.072611,-0.067318,0.069870,0.002133,1.000000,-0.000282,-0.000036,-0.000363,0.616865,0.679844,0.175408,-0.355700,88.869482,44.430734,-16.292857
36106,-6.645782,6.935631,0.058098,0.130427,0.046660,-0.207815,-0.061358,-0.013775,-0.057036,-0.066438,0.069375,0.000555,1.000000,-0.000307,-0.000069,-0.000285,0.617007,0.679579,0.175616,-0.355857,88.822917,44.457376,-16.309158
36107,-6.766544,6.954247,0.118168,0.049399,0.013463,-0.109131,-0.042091,-0.021748,-0.045430,-0.067650,0.069558,0.001160,1.000000,-0.000210,-0.000109,-0.000227,0.617108,0.679375,0.175727,-0.356016,88.784280,44.476915,-16.330598
36108,-6.796325,7.030228,0.218509,0.058679,-0.086545,-0.032557,-0.043487,-0.034829,-0.049316,-0.067946,0.070320,0.002158,1.000000,-0.000217,-0.000174,-0.000247,0.617221,0.679134,0.175813,-0.356236,88.736145,44.498857,-16.363738
36109,-6.849618,7.152535,0.187137,0.118763,-0.062504,0.091505,-0.055202,-0.028083,-0.048271,-0.068479,0.071542,0.001842,1.000000,-0.000276,-0.000140,-0.000241,0.617368,0.678876,0.175937,-0.356413,88.686333,44.519916,-16.390381
36110,-6.838417,7.321172,0.048754,0.283083,0.044350,0.201491,-0.058051,-0.034115,-0.044427,-0.068368,0.073227,0.000455,1.000000,-0.000290,-0.000171,-0.000222,0.617538,0.678596,0.176035,-0.356603,88.630248,44.539025,-16.422935
36111,-6.783387,7.392553,0.115937,0.355674,-0.038379,0.214757,-0.054724,-0.030711,-0.031353,-0.067822,0.073936,0.001129,1.000000,-0.000274,-0.000154,-0.000157,0.617715,0.678349,0.176093,-0.356738,88.579397,44.550314,-16.451428
36112,-6.824865,7.434858,0.311858,0.307539,-0.219906,0.277417,-0.057334,-0.043316,-0.025278,-0.068240,0.074358,0.003082,1.000000,-0.000287,-0.000217,-0.000126,0.617926,0.678072,0.176095,-0.356900,88.518752,44.558277,-16.491052
36113,-6.820244,7.399938,0.444225,0.255746,-0.332797,0.251903,-0.121753,-0.055920,-0.021473,-0.068196,0.074009,0.004378,1.000000,-0.000609,-0.000280,-0.000107,0.618369,0.677581,0.176161,-0.357030,88.415382,44.563457,-16.539641
36114,-6.811268,7.252906,0.419279,0.174071,-0.270908,0.140709,-0.172577,-0.062200,-0.026113,-0.068104,0.072542,0.004109,1.000000,-0.000863,-0.000311,-0.000131,0.618985,0.676912,0.176314,-0.357157,88.278000,44.571486,-16.594513
36115,-6.806680,7.223338,0.268405,0.203699,-0.104500,0.113395,-0.194850,-0.068485,-0.028605,-0.068057,0.072246,0.002590,0.999999,-0.000974,-0.000342,-0.000143,0.619674,0.676166,0.176495,-0.357287,88.125472,44.580352,-16.653439
36116,-6.764548,7.128737,0.201404,0.192644,-0.014035,0.014887,-0.211740,-0.067861,-0.024569,-0.067637,0.071298,0.001916,0.999999,-0.001059,-0.000339,-0.000123,0.620428,0.675365,0.176694,-0.357393,87.962424,44.587180,-16.712894
36117,-6.715851,7.123565,0.187612,0.231829,0.008659,-0.023449,-0.188934,-0.076992,-0.009628,-0.067156,0.071241,0.001783,0.999999,-0.000945,-0.000385,-0.000048,0.621137,0.674637,0.176774,-0.357497,87.808812,44.584758,-16.778176
36118,-6.752107,7.108519,0.189288,0.200931,0.035212,-0.008802,-0.180541,-0.078805,0.000513,-0.067522,0.071087,0.001802,1.000000,-0.000903,-0.000394,0.000003,0.621839,0.673935,0.176799,-0.357589,87.657993,44.576748,-16.845678
36119,-6.772593,7.091553,0.159054,0.186732,0.088667,-0.007552,-0.165203,-0.071058,0.004899,-0.067728,0.070915,0.001508,1.000000,-0.000826,-0.000355,0.000024,0.622488,0.673303,0.176805,-0.357648,87.521705,44.565904,-16.905664
36120,-6.866440,7.003922,0.095498,0.082296,0.198479,-0.006268,-0.120628,-0.063068,0.000147,-0.068665,0.070040,0.000891,1.000000,-0.000603,-0.000315,0.000001,0.622973,0.672813,0.176773,-0.357741,87.414145,44.558279,-16.960460
36121,-6.849164,6.989584,0.115661,0.081203,0.188206,-0.028175,-0.065708,-0.051076,-0.009065,-0.068489,0.069899,0.001116,1.000000,-0.000329,-0.000255,-0.000045,0.623243,0.672514,0.176710,-0.357864,87.345829,44.555791,-17.004835
36122,-6.767291,6.969255,0.068490,0.137218,0.227241,-0.101819,-0.041430,-0.049390,-0.007918,-0.067670,0.069695,0.000654,1.000000,-0.000207,-0.000247,-0.000040,0.623435,0.672288,0.176606,-0.358005,87.291170,44.553047,-17.048915
36123,-6.789047,6.979256,0.004170,0.146642,0.297409,-0.081745,-0.008261,-0.044878,0.001783,-0.067891,0.069792,0.000024,1.000000,-0.000041,-0.000224,0.000009,0.623526,0.672188,0.176423,-0.358124,87.259575,44.544462,-17.087879
36124,-6.760012,7.099534,0.126946,0.215935,0.156371,-0.012372,0.031223,-0.041370,0.004466,-0.067602,0.070994,0.001267,1.000000,0.000156,-0.000207,0.000022,0.623489,0.672214,0.176172,-0.358264,87.251413,44.534816,-17.125027
36125,-6.732963,7.066832,0.277921,0.170700,0.011601,-0.049446,0.026671,-0.035357,0.013178,-0.067335,0.070664,0.002777,1.000000,0.000133,-0.000177,0.000066,0.623474,0.672250,0.175918,-0.358346,87.245535,44.519956,-17.155879
36126,-6.701729,7.062907,0.216478,0.203483,0.066253,-0.076214,0.019866,-0.025635,0.009918,-0.067021,0.070626,0.002163,1.000000,0.000099,-0.000128,0.000050,0.623471,0.672274,0.175718,-0.358406,87.239894,44.507617,-17.180168
36127,-6.707075,6.975629,0.161981,0.152270,0.134370,-0.136467,0.030984,-0.014713,0.014083,-0.067076,0.069751,0.001626,1.000000,0.000155,-0.000074,0.000070,0.623425,0.672361,0.175518,-0.358420,87.248145,44.492801,-17.194402
36128,-6.693136,6.985923,0.088896,0.185183,0.199802,-0.141344,0.031440,-0.004167,0.019108,-0.066938,0.069853,0.000899,1.000000,0.000157,-0.000021,0.000096,0.623381,0.672467,0.175333,-0.358389,87.261464,44.475796,-17.201107
36129,-6.746508,7.040882,0.016889,0.201484,0.270469,-0.067128,0.036057,0.003247,0.028130,-0.067475,0.070399,0.000183,1.000000,0.000180,0.000016,0.000141,0.623327,0.672615,0.175132,-0.358303,87.283099,44.453433,-17.200397
36130,-6.772033,7.105162,0.091351,0.203869,0.191631,-0.000765,0.055873,0.005001,0.027574,-0.067730,0.071042,0.000935,1.000000,0.000279,0.000025,0.000138,0.623207,0.672821,0.174903,-0.358236,87.315782,44.431834,-17.199447
36131,-6.780216,7.155387,0.174861,0.206019,0.101879,0.043714,0.049408,0.006659,0.022016,-0.067810,0.071546,0.001769,1.000000,0.000247,0.000033,0.000110,0.623095,0.673011,0.174710,-0.358170,87.346809,44.413057,-17.196254
36132,-6.696467,7.136903,0.117337,0.262109,0.140854,-0.029882,0.017432,0.013697,0.019376,-0.066972,0.071362,0.001184,1.000000,0.000087,0.000068,0.000097,0.623082,0.673105,0.174605,-0.358066,87.362108,44.396380,-17.188670
36133,-6.718547,7.064322,0.051489,0.211041,0.219755,-0.068287,0.014284,0.020179,0.031386,-0.067196,0.070633,0.000527,1.000000,0.000071,0.000101,0.000157,0.623093,0.673218,0.174485,-0.357893,87.380816,44.372588,-17.174317
36134,-6.693355,7.002903,0.161623,0.152613,0.117265,-0.126061,0.030823,0.009789,0.035540,-0.066946,0.070017,0.001630,1.000000,0.000154,0.000049,0.000178,0.623067,0.673361,0.174289,-0.357764,87.401993,44.346553,-17.169293
36135,-6.671846,6.938051,0.212787,0.104371,0.073525,-0.185691,0.011320,0.007441,0.044901,-0.066734,0.069365,0.002134,1.000000,0.000057,0.000037,0.000225,0.623123,0.673454,0.174090,-0.357589,87.412197,44.314686,-17.164670
36136,-6.696774,6.958634,0.042017,0.141152,0.240503,-0.159016,0.006457,0.014077,0.044793,-0.066983,0.069571,0.000427,1.000000,0.000032,0.000070,0.000224,0.623192,0.673537,0.173920,-0.357395,87.422024,44.283464,-17.155904
36137,-6.748342,7.015116,-0.030575,0.157417,0.311197,-0.084826,0.038516,0.021125,0.048830,-0.067501,0.070135,-0.000285,1.000000,0.000193,0.000106,0.000244,0.623152,0.673742,0.173701,-0.357186,87.455524,44.249695,-17.140229
36138,-6.752468,7.055682,0.092938,0.142698,0.183788,-0.048827,0.055782,0.019828,0.049765,-0.067542,0.070540,0.000956,1.000000,0.000279,0.000099,0.000249,0.623058,0.673993,0.173444,-0.357000,87.496893,44.215765,-17.126748
36139,-6.797779,7.104585,0.118647,0.131693,0.157817,0.018729,0.037983,0.017191,0.037865,-0.067991,0.071033,0.001206,1.000000,0.000190,0.000086,0.000189,0.623003,0.674179,0.173251,-0.356838,87.527577,44.188160,-17.114664
36140,-6.766723,7.086415,0.034143,0.157900,0.233516,-0.018427,0.034667,0.019830,0.031393,-0.067678,0.070853,0.000360,1.000000,0.000173,0.000099,0.000157,0.622948,0.674349,0.173093,-0.356691,87.556354,44.164737,-17.101878
36141,-6.764971,7.088106,0.030357,0.156925,0.234013,-0.018424,0.036623,0.017403,0.018233,-0.067656,0.070875,0.000322,1.000000,0.000183,0.000087,0.000091,0.622862,0.674514,0.172969,-0.356588,87.585883,44.148364,-17.090331
36142,-6.723447,7.107613,0.102452,0.175801,0.149793,-0.031069,0.046299,0.015217,0.018409,-0.067241,0.071070,0.001046,1.000000,0.000231,0.000076,0.000092,0.622749,0.674700,0.172820,-0.356506,87.618425,44.132253,-17.081701
36143,-6.698263,7.087775,0.208830,0.147482,0.042805,-0.059569,0.041299,-0.000402,0.022160,-0.066990,0.070870,0.002103,1.000000,0.000206,-0.000002,0.000111,0.622669,0.674852,0.172619,-0.356455,87.640820,44.113199,-17.084246
36144,-6.676006,7.037715,0.279375,0.106014,-0.021898,-0.108832,0.021632,-0.013844,0.035332,-0.066773,0.070365,0.002797,1.000000,0.000108,-0.000069,0.000177,0.622694,0.674924,0.172367,-0.356398,87.643474,44.086711,-17.098249
36145,-6.663476,6.991342,0.191969,0.102015,0.068814,-0.153366,0.009691,-0.019749,0.039557,-0.066649,0.069900,0.001917,1.000000,0.000048,-0.000099,0.000198,0.622769,0.674958,0.172103,-0.356330,87.637432,44.057240,-17.115641
36146,-6.665404,7.043639,0.088983,0.158634,0.161754,-0.117480,0.015798,-0.013369,0.047386,-0.066671,0.070421,0.000891,1.000000,0.000079,-0.000067,0.000237,0.622834,0.675023,0.171822,-0.356229,87.637304,44.023862,-17.128852
36147,-6.706894,7.150759,0.134790,0.184404,0.110381,-0.010251,0.004778,-0.002656,0.055698,-0.067089,0.071489,0.001349,1.000000,0.000024,-0.000013,0.000278,0.622940,0.675086,0.171565,-0.356049,87.638300,43.985552,-17.132086
36148,-6.668917,7.179964,0.110644,0.230537,0.122824,-0.016242,-0.001113,-0.000034,0.055901,-0.066709,0.071781,0.001106,1.000000,-0.000006,-0.000000,0.000280,0.623066,0.675129,0.171327,-0.355861,87.636064,43.947613,-17.134395
36149,-6.645823,7.184951,0.138611,0.236106,0.091426,-0.027720,0.003305,0.017605,0.051557,-0.066477,0.071832,0.001393,1.000000,0.000017,0.000088,0.000258,0.623151,0.675219,0.171150,-0.355625,87.647303,43.912146,-17.121654
36150,-6.758084,7.102612,0.280955,0.060423,-0.008159,-0.004833,-0.004525,0.029121,0.025599,-0.067590,0.071018,0.002818,1.000000,-0.000023,0.000146,0.000128,0.623210,0.675278,0.171111,-0.355430,87.658486,43.892240,-17.101797
36151,-6.704586,7.034603,0.331896,0.035656,-0.056838,-0.089377,-0.043397,0.029585,0.000528,-0.067046,0.070347,0.003314,1.000000,-0.000217,0.000148,0.000003,0.623352,0.675200,0.171227,-0.355272,87.648393,43.886261,-17.081218
36152,-6.668894,7.002873,0.103310,0.099486,0.163540,-0.143747,-0.071914,0.032630,-0.000149,-0.066689,0.070029,0.001019,1.000000,-0.000360,0.000163,-0.000001,0.623589,0.675032,0.171405,-0.355088,87.622308,43.881181,-17.059416
36153,-6.672852,6.998859,0.046366,0.108853,0.222902,-0.145651,-0.056684,0.024741,0.002155,-0.066729,0.069988,0.000452,1.000000,-0.000283,0.000124,0.000011,0.623783,0.674906,0.171524,-0.354930,87.601969,43.874164,-17.042631
36154,-6.686298,7.043995,0.076500,0.121299,0.192198,-0.102968,-0.047513,0.019448,0.008420,-0.066866,0.070437,0.000755,1.000000,-0.000238,0.000097,0.000042,0.623965,0.674799,0.171589,-0.354784,87.582805,43.863873,-17.031010
36155,-6.719602,7.019209,0.102418,0.073324,0.180887,-0.096992,-0.041158,0.016243,0.013267,-0.067201,0.070188,0.001015,1.000000,-0.000206,0.000081,0.000066,0.624133,0.674715,0.171617,-0.354634,87.566950,43.850297,-17.020592
36156,-6.735950,7.007112,0.115088,0.048968,0.175611,-0.094012,-0.013319,0.020361,0.006711,-0.067362,0.070069,0.001153,1.000000,-0.000067,0.000102,0.000034,0.624195,0.674714,0.171629,-0.354520,87.567838,43.841011,-17.008302
36157,-6.650202,6.922010,0.143831,0.041083,0.143044,-0.213836,0.012200,0.019361,0.009737,-0.066505,0.069217,0.001449,1.000000,0.000061,0.000097,0.000049,0.624175,0.674800,0.171584,-0.354415,87.584187,43.829530,-16.995529
36158,-6.581553,6.973493,0.092888,0.134248,0.167250,-0.225765,0.020428,0.037434,0.005808,-0.065817,0.069733,0.000948,1.000000,0.000102,0.000187,0.000029,0.624107,0.674934,0.171593,-0.354275,87.613759,43.821166,-16.969733
36159,-6.625929,7.050743,0.155489,0.136321,0.099205,-0.137375,0.051418,0.046982,0.004253,-0.066260,0.070506,0.001589,1.000000,0.000257,0.000235,0.000021,0.623920,0.675186,0.171583,-0.354128,87.667615,43.813466,-16.935243
36160,-6.683737,7.119186,0.287448,0.104636,-0.033461,-0.044080,0.065518,0.051302,0.000171,-0.066837,0.071191,0.002915,1.000000,0.000328,0.000257,0.000001,0.623678,0.675480,0.171575,-0.353998,87.730491,43.808616,-16.898651
36161,-6.761604,7.212741,0.369111,0.089813,-0.117620,0.079596,0.042140,0.046263,-0.008646,-0.067612,0.072130,0.003722,1.000000,0.000211,0.000231,-0.000043,0.623501,0.675691,0.171622,-0.353885,87.778333,43.808233,-16.865160
36162,-6.781887,7.210540,0.335603,0.082383,-0.085083,0.091074,0.011120,0.038863,-0.018958,-0.067811,0.072112,0.003373,1.000000,0.000056,0.000194,-0.000095,0.623419,0.675777,0.171736,-0.353810,87.802797,43.814017,-16.839033
36163,-6.736400,7.270014,0.216614,0.185810,0.008687,0.099150,-0.029357,0.031552,-0.021376,-0.067356,0.072708,0.002166,1.000000,-0.000147,0.000158,-0.000107,0.623473,0.675728,0.171907,-0.353725,87.801322,43.820577,-16.817602
36164,-6.708416,7.221340,0.158870,0.188597,0.067583,0.043057,-0.040772,0.015497,-0.011353,-0.067080,0.072218,0.001579,1.000000,-0.000204,0.000077,-0.000057,0.623600,0.675617,0.172014,-0.353660,87.783383,43.821491,-16.809779
36165,-6.672114,7.154299,0.243168,0.147001,-0.008118,-0.028079,-0.036974,0.004822,-0.010906,-0.066717,0.071547,0.002420,1.000000,-0.000185,0.000024,-0.000055,0.623722,0.675506,0.172080,-0.353627,87.763080,43.821463,-16.809237
36166,-6.798318,7.044473,0.250496,-0.014644,0.031215,-0.019665,-0.027519,0.000261,-0.024699,-0.067974,0.070453,0.002495,1.000000,-0.000138,0.000001,-0.000123,0.623793,0.675398,0.172161,-0.353667,87.744075,43.829679,-16.813920
36167,-6.680870,6.982554,0.258878,0.024574,0.010364,-0.145403,-0.020327,-0.007905,-0.028199,-0.066799,0.069835,0.002579,1.000000,-0.000102,-0.000040,-0.000141,0.623839,0.675301,0.172216,-0.353744,87.725934,43.839262,-16.824024
36168,-6.653703,6.960218,0.178909,0.050961,0.085964,-0.182609,0.014538,-0.003029,-0.022662,-0.066529,0.069610,0.001793,1.000000,0.000073,-0.000015,-0.000113,0.623775,0.675320,0.172205,-0.353825,87.729256,43.846236,-16.831262
36169,-6.682970,7.048517,0.233625,0.076426,0.023862,-0.097141,0.029009,-0.008896,-0.017152,-0.066824,0.070491,0.002343,1.000000,0.000145,-0.000044,-0.000086,0.623675,0.675385,0.172133,-0.353914,87.739073,43.849473,-16.841810
36170,-6.696040,7.080850,0.300732,0.071817,-0.044604,-0.062883,0.035422,-0.015063,-0.017478,-0.066954,0.070814,0.003015,1.000000,0.000177,-0.000075,-0.000087,0.623560,0.675453,0.172030,-0.354037,87.747854,43.853208,-16.858437
36171,-6.705231,7.239510,0.358987,0.157470,-0.126215,0.059433,0.025778,-0.004747,-0.022919,-0.067044,0.072402,0.003598,1.000000,0.000129,-0.000024,-0.000115,0.623456,0.675510,0.171996,-0.354127,87.757972,43.859842,-16.865873
36172,-6.722798,7.267204,0.367367,0.163209,-0.135807,0.091763,-0.010221,0.007042,-0.028956,-0.067217,0.072682,0.003672,1.000000,-0.000051,0.000035,-0.000145,0.623456,0.675465,0.172082,-0.354172,87.752514,43.870648,-16.865307
36173,-6.760215,7.292722,0.349287,0.162269,-0.113613,0.135531,-0.047402,0.007308,-0.042000,-0.067587,0.072942,0.003478,1.000000,-0.000237,0.000037,-0.000210,0.623556,0.675298,0.172279,-0.354218,87.726907,43.888466,-16.863777
36174,-6.760747,7.224422,0.437481,0.097337,-0.184232,0.089229,-0.072875,0.005289,-0.050251,-0.067589,0.072263,0.004350,1.000000,-0.000364,0.000026,-0.000251,0.623731,0.675036,0.172542,-0.354281,87.684106,43.911423,-16.865294
36175,-6.735321,7.173001,0.385950,0.100076,-0.125499,0.033107,-0.128442,-0.005342,-0.058739,-0.067332,0.071752,0.003812,1.000000,-0.000642,-0.000027,-0.000294,0.624085,0.674580,0.172900,-0.354352,87.604677,43.938527,-16.874407
36176,-6.721652,7.014160,0.206094,0.056916,0.080814,-0.096117,-0.160556,-0.027174,-0.051700,-0.067199,0.070161,0.001995,1.000000,-0.000803,-0.000136,-0.000258,0.624581,0.673985,0.173222,-0.354454,87.493629,43.961515,-16.901874
36177,-6.693478,6.951913,0.201170,0.042732,0.101737,-0.160744,-0.150867,-0.047143,-0.045549,-0.066919,0.069536,0.001943,1.000000,-0.000754,-0.000236,-0.000228,0.625070,0.673395,0.173444,-0.354604,87.378482,43.979967,-16.943914
36178,-6.702564,6.833462,0.181444,-0.031490,0.153154,-0.240383,-0.127239,-0.047981,-0.050868,-0.067009,0.068353,0.001755,1.000000,-0.000636,-0.000240,-0.000254,0.625472,0.672867,0.173639,-0.354802,87.274934,44.001846,-16.988044
36179,-6.688716,6.842992,0.180507,-0.008943,0.159521,-0.243335,-0.084636,-0.062852,-0.043792,-0.066873,0.068445,0.001755,1.000000,-0.000423,-0.000314,-0.000219,0.625754,0.672457,0.173689,-0.355057,87.188994,44.018753,-17.042637
36180,-6.660029,6.904748,0.102756,0.077738,0.226412,-0.221818,-0.038510,-0.056581,-0.033323,-0.066589,0.069059,0.000995,1.000000,-0.000193,-0.000283,-0.000167,0.625896,0.672206,0.173640,-0.355305,87.131912,44.030255,-17.093032
36181,-6.677618,7.028159,0.070512,0.160528,0.245820,-0.122261,0.009110,-0.040192,-0.024042,-0.066768,0.070290,0.000695,1.000000,0.000046,-0.000201,-0.000120,0.625878,0.672147,0.173528,-0.355503,87.112721,44.036441,-17.128858
36182,-6.721028,7.133174,0.176859,0.175592,0.135900,-0.012873,0.060564,-0.030771,-0.025496,-0.067201,0.071340,0.001780,1.000000,0.000303,-0.000154,-0.000127,0.625679,0.672259,0.173358,-0.355726,87.126878,44.044182,-17.158419
36183,-6.731129,7.195083,0.280811,0.183910,0.025208,0.042347,0.065046,-0.018248,-0.023111,-0.067303,0.071958,0.002825,1.000000,0.000325,-0.000091,-0.000116,0.625455,0.672415,0.173211,-0.355896,87.151897,44.050472,-17.176739
36184,-6.731292,7.208747,0.296431,0.189596,0.004774,0.052819,0.055217,-0.010968,-0.029948,-0.067302,0.072097,0.002981,1.000000,0.000276,-0.000055,-0.000150,0.625248,0.672541,0.173128,-0.356062,87.173827,44.061338,-17.190706
36185,-6.820098,7.222710,0.288143,0.141600,0.026116,0.124292,0.047426,-0.008244,-0.038101,-0.068187,0.072239,0.002896,1.000000,0.000237,-0.000041,-0.000191,0.625048,0.672646,0.173094,-0.356230,87.193880,44.076484,-17.201647
36186,-6.774704,7.201635,0.233758,0.174621,0.069752,0.075661,0.032777,-0.009117,-0.033885,-0.067735,0.072027,0.002346,1.000000,0.000164,-0.000046,-0.000169,0.624909,0.672702,0.173070,-0.356382,87.203869,44.089661,-17.214290
36187,-6.726465,7.169473,0.220793,0.190560,0.075455,0.018560,0.031151,-0.014786,-0.023019,-0.067257,0.071702,0.002214,1.000000,0.000156,-0.000074,-0.000115,0.624796,0.672758,0.172994,-0.356511,87.211380,44.095999,-17.229845
36188,-6.708221,7.238546,0.224179,0.249844,0.056562,0.055515,0.026743,-0.021348,-0.018762,-0.067076,0.072391,0.002244,1.000000,0.000134,-0.000107,-0.000094,0.624714,0.672786,0.172891,-0.356652,87.211537,44.100183,-17.251647
36189,-6.691638,7.223724,0.233868,0.248838,0.046194,0.033675,0.014826,-0.022826,-0.008646,-0.066914,0.072240,0.002336,1.000000,0.000074,-0.000114,-0.000043,0.624689,0.672789,0.172771,-0.356748,87.205626,44.098069,-17.273045
36190,-6.728035,7.181760,0.238577,0.194376,0.056150,0.029067,0.019359,-0.005115,-0.016694,-0.067274,0.071823,0.002391,1.000000,0.000097,-0.000026,-0.000083,0.624621,0.672825,0.172725,-0.356822,87.210609,44.101522,-17.281831
36191,-6.712848,7.124479,0.249989,0.163304,0.050107,-0.022190,0.020194,-0.005605,-0.019160,-0.067122,0.071251,0.002505,1.000000,0.000101,-0.000028,-0.000096,0.624544,0.672866,0.172684,-0.356898,87.217042,44.105895,-17.289912
36192,-6.615895,7.074268,0.185893,0.213344,0.098892,-0.127926,0.002128,-0.002364,-0.016926,-0.066153,0.070748,0.001859,1.000000,0.000011,-0.000012,-0.000085,0.624532,0.672852,0.172678,-0.356948,87.213671,44.109557,-17.296514
36193,-6.638347,7.083564,0.116847,0.222785,0.169108,-0.108051,-0.009953,0.004263,-0.008271,-0.066381,0.070838,0.001166,1.000000,-0.000050,0.000021,-0.000041,0.624567,0.672827,0.172686,-0.356931,87.208601,44.107965,-17.296306
36194,-6.672853,7.057049,0.141035,0.174889,0.158004,-0.102217,-0.003817,0.003209,-0.011522,-0.066724,0.070574,0.001410,1.000000,-0.000019,0.000016,-0.000058,0.624580,0.672809,0.172690,-0.356940,87.205061,44.108690,-17.298257
36195,-6.737028,7.077215,0.224208,0.122969,0.088616,-0.040184,-0.005940,0.001780,-0.016839,-0.067364,0.070778,0.002241,1.000000,-0.000030,0.000009,-0.000084,0.624589,0.672784,0.172711,-0.356961,87.200683,44.111920,-17.300361
36196,-6.691344,7.015112,0.175783,0.126011,0.136526,-0.118242,-0.027570,0.006109,-0.018033,-0.066907,0.070157,0.001750,1.000000,-0.000138,0.000031,-0.000090,0.624667,0.672692,0.172788,-0.356960,87.184966,44.116452,-17.300256
36197,-6.682230,6.965732,0.090008,0.122391,0.227108,-0.163067,-0.030704,-0.003015,-0.011903,-0.066818,0.069661,0.000888,1.000000,-0.000154,-0.000015,-0.000060,0.624772,0.672586,0.172822,-0.356961,87.163881,44.116747,-17.305971
36198,-6.717505,6.965891,0.094129,0.098010,0.232747,-0.138309,-0.011369,-0.008811,-0.012269,-0.067171,0.069663,0.000934,1.000000,-0.000057,-0.000044,-0.000061,0.624819,0.672523,0.172804,-0.357007,87.149323,44.117556,-17.317534
36199,-6.731961,6.982666,0.144686,0.086584,0.185270,-0.114438,0.001288,-0.001871,-0.014462,-0.067315,0.069832,0.001447,1.000000,0.000006,-0.000009,-0.000072,0.624811,0.672516,0.172793,-0.357039,87.147131,44.119334,-17.322442
36200,-6.764928,7.039967,0.162934,0.098774,0.165543,-0.049759,0.009829,-0.002918,-0.020633,-0.067642,0.070407,0.001632,1.000000,0.000049,-0.000015,-0.000103,0.624766,0.672522,0.172784,-0.357109,87.147757,44.125096,-17.329641
36201,-6.784910,7.079090,0.130487,0.121277,0.193656,-0.008947,0.021861,0.001577,-0.029318,-0.067839,0.070801,0.001313,1.000000,0.000109,0.000008,-0.000147,0.624659,0.672573,0.172797,-0.357194,87.158886,44.135465,-17.332376
36202,-6.748669,7.079833,0.185566,0.133510,0.130409,-0.031676,0.032217,0.007046,-0.033072,-0.067475,0.070809,0.001869,1.000000,0.000161,0.000035,-0.000165,0.624509,0.672656,0.172821,-0.357289,87.177529,44.148629,-17.332120
36203,-6.696331,7.051601,0.231235,0.139102,0.077198,-0.086738,0.030484,-0.001628,-0.023636,-0.066955,0.070524,0.002323,1.000000,0.000152,-0.000008,-0.000118,0.624386,0.672733,0.172790,-0.357374,87.191959,44.155664,-17.337186
36204,-6.697046,7.092240,0.226797,0.168275,0.073506,-0.057278,0.025595,-0.007625,-0.024428,-0.066962,0.070930,0.002274,1.000000,0.000128,-0.000038,-0.000122,0.624285,0.672777,0.172751,-0.357486,87.198897,44.163470,-17.348286
36205,-6.712458,7.108211,0.276300,0.156810,0.026040,-0.033381,-0.004360,-0.005207,-0.028404,-0.067115,0.071092,0.002760,1.000000,-0.000022,-0.000026,-0.000142,0.624274,0.672735,0.172786,-0.357568,87.191257,44.173123,-17.356389
36206,-6.733166,7.077826,0.269795,0.125892,0.041871,-0.040977,0.000503,-0.003698,-0.033527,-0.067320,0.070790,0.002697,1.000000,0.000003,-0.000018,-0.000168,0.624239,0.672699,0.172835,-0.357673,87.185747,44.186245,-17.364717
36207,-6.819157,7.052639,0.327573,0.037291,0.008807,0.002936,-0.009886,-0.005525,-0.040911,-0.068177,0.070541,0.003270,1.000000,-0.000049,-0.000028,-0.000205,0.624224,0.672628,0.172922,-0.357790,87.174406,44.203057,-17.373567
36208,-6.729275,7.050847,0.162867,0.144974,0.149797,-0.066886,-0.028040,-0.008308,-0.045306,-0.067277,0.070524,0.001616,1.000000,-0.000140,-0.000042,-0.000227,0.624267,0.672485,0.173047,-0.357923,87.149639,44.222787,-17.386055
36209,-6.692726,7.093234,0.219305,0.187100,0.082089,-0.060103,-0.010357,-0.008618,-0.034830,-0.066915,0.070944,0.002186,1.000000,-0.000052,-0.000043,-0.000174,0.624268,0.672412,0.173104,-0.358031,87.136461,44.236015,-17.397156
36210,-6.718327,7.061032,0.404395,0.101279,-0.084459,-0.058702,-0.006374,-0.016262,-0.032981,-0.067172,0.070622,0.004036,1.000000,-0.000032,-0.000081,-0.000165,0.624267,0.672334,0.173124,-0.358171,87.119999,44.248458,-17.415525
36211,-6.654914,7.026437,0.364409,0.134369,-0.051954,-0.129159,-0.033608,-0.014478,-0.031057,-0.066538,0.070275,0.003627,1.000000,-0.000168,-0.000072,-0.000155,0.624357,0.672181,0.173192,-0.358267,87.090310,44.259348,-17.431180
36212,-6.738239,6.945467,0.217671,0.064275,0.122874,-0.134282,-0.026395,-0.009982,-0.033907,-0.067371,0.069466,0.002164,1.000000,-0.000132,-0.000050,-0.000170,0.624417,0.672050,0.173270,-0.358371,87.065832,44.272493,-17.444591
36213,-6.776587,6.997735,0.178207,0.086714,0.161903,-0.071617,-0.004888,-0.004654,-0.033468,-0.067754,0.069989,0.001779,1.000000,-0.000024,-0.000023,-0.000167,0.624398,0.672002,0.173325,-0.358466,87.058003,44.285045,-17.452501
36214,-6.831048,7.079108,0.146820,0.115749,0.190917,0.023404,0.003478,-0.005726,-0.035884,-0.068298,0.070803,0.001467,1.000000,0.000017,-0.000029,-0.000179,0.624350,0.671971,0.173370,-0.358588,87.052946,44.299442,-17.462604
36215,-6.808033,7.208343,0.226424,0.200828,0.087700,0.102591,0.020209,-0.007868,-0.040718,-0.068066,0.072097,0.002269,1.000000,0.000101,-0.000039,-0.000204,0.624236,0.671989,0.173394,-0.358739,87.057481,44.316035,-17.473396
36216,-6.771515,7.181832,0.304938,0.189558,0.007693,0.060971,0.013537,-0.015918,-0.038014,-0.067702,0.071831,0.003049,1.000000,0.000068,-0.000080,-0.000190,0.624160,0.671969,0.173397,-0.358910,87.052423,44.331351,-17.491744
36217,-6.770528,7.182705,0.364915,0.178076,-0.050644,0.063050,0.002755,-0.014194,-0.049016,-0.067688,0.071844,0.003645,1.000000,0.000014,-0.000071,-0.000245,0.624095,0.671914,0.173461,-0.359093,87.043149,44.352525,-17.507948
36218,-6.778907,7.064120,0.334188,0.104205,0.000704,-0.016964,-0.024157,-0.012378,-0.054606,-0.067770,0.070660,0.003329,1.000000,-0.000121,-0.000062,-0.000273,0.624112,0.671768,0.173597,-0.359271,87.017968,44.377435,-17.524174
36219,-6.725815,6.978563,0.177715,0.128328,0.155156,-0.121043,-0.019028,-0.012967,-0.051638,-0.067240,0.069803,0.001766,1.000000,-0.000095,-0.000065,-0.000258,0.624115,0.671646,0.173713,-0.359439,86.996825,44.400131,-17.539510
36220,-6.757906,6.995148,0.259762,0.099912,0.080962,-0.083745,0.019351,-0.024493,-0.044880,-0.067564,0.069966,0.002596,1.000000,0.000097,-0.000122,-0.000224,0.624014,0.671622,0.173701,-0.359665,86.990036,44.419103,-17.565065
36221,-6.764377,7.033007,0.448444,0.073913,-0.105197,-0.045162,0.014538,-0.034158,-0.034530,-0.067632,0.070341,0.004478,1.000000,0.000073,-0.000171,-0.000173,0.623953,0.671581,0.173633,-0.359880,86.976718,44.431351,-17.596698
36222,-6.756125,6.982651,0.361827,0.070586,-0.014539,-0.090117,0.016057,-0.030684,-0.029788,-0.067551,0.069836,0.003614,1.000000,0.000080,-0.000153,-0.000149,0.623895,0.671548,0.173556,-0.360077,86.964992,44.441494,-17.626596
36223,-6.777571,6.978982,0.333544,0.063043,0.017920,-0.078797,0.025159,-0.021116,-0.034707,-0.067764,0.069801,0.003337,1.000000,0.000126,-0.000106,-0.000174,0.623787,0.671564,0.173510,-0.360258,86.965045,44.454229,-17.647806
36224,-6.761994,7.074106,0.315264,0.145664,0.015778,-0.022618,0.028069,-0.012026,-0.037085,-0.067607,0.070753,0.003159,1.000000,0.000140,-0.000060,-0.000185,0.623660,0.671596,0.173495,-0.360425,86.970442,44.469111,-17.663070
36225,-6.778113,7.089321,0.363782,0.134113,-0.031641,0.001315,0.034034,-0.013095,-0.036587,-0.067768,0.070905,0.003645,1.000000,0.000170,-0.000065,-0.000183,0.623512,0.671652,0.173464,-0.360593,86.980000,44.483154,-17.677957
36226,-6.788054,7.165770,0.488526,0.148651,-0.163113,0.067388,0.015203,-0.015429,-0.042255,-0.067866,0.071672,0.004885,1.000000,0.000076,-0.000077,-0.000211,0.623421,0.671633,0.173479,-0.360777,86.975950,44.500893,-17.696174
36227,-6.792780,7.147342,0.471023,0.141146,-0.141561,0.056875,-0.021877,-0.019142,-0.047810,-0.067911,0.071490,0.004696,1.000000,-0.000109,-0.000096,-0.000239,0.623445,0.671494,0.173568,-0.360951,86.949764,44.521183,-17.716349
36228,-6.747055,7.098932,0.444173,0.150951,-0.114834,-0.010703,-0.047549,-0.016949,-0.046307,-0.067454,0.071006,0.004419,1.000000,-0.000238,-0.000085,-0.000232,0.623559,0.671274,0.173705,-0.361098,86.908750,44.541183,-17.735993
36229,-6.791884,7.061822,0.354108,0.123875,-0.008313,-0.009168,-0.060550,-0.015895,-0.041794,-0.067904,0.070633,0.003514,1.000000,-0.000303,-0.000079,-0.000209,0.623722,0.671025,0.173853,-0.361209,86.862337,44.558096,-17.753385
36230,-6.803450,7.009203,0.243852,0.114059,0.114292,-0.042874,-0.072721,-0.024983,-0.035245,-0.068022,0.070105,0.002405,1.000000,-0.000364,-0.000125,-0.000176,0.623947,0.670721,0.173973,-0.361326,86.802670,44.571489,-17.779048
36231,-6.826563,6.989931,0.202594,0.100036,0.167805,-0.042121,-0.052789,-0.029725,-0.029879,-0.068255,0.069910,0.001997,1.000000,-0.000264,-0.000149,-0.000149,0.624117,0.670482,0.174025,-0.361453,86.753242,44.581147,-17.807039
36232,-6.792475,7.002638,0.224334,0.129262,0.142300,-0.056253,-0.034197,-0.033414,-0.027101,-0.067916,0.070036,0.002220,1.000000,-0.000171,-0.000167,-0.000136,0.624234,0.670290,0.174022,-0.361607,86.711120,44.589575,-17.839141
36233,-6.795560,6.985734,0.209779,0.121787,0.163852,-0.066794,-0.024117,-0.036093,-0.018129,-0.067950,0.069864,0.002077,1.000000,-0.000121,-0.000180,-0.000091,0.624335,0.670138,0.173962,-0.361743,86.674862,44.592237,-17.871775
36234,-6.783668,6.924922,0.165542,0.101568,0.216689,-0.120276,0.001859,-0.030707,-0.016051,-0.067831,0.069255,0.001646,1.000000,0.000009,-0.000154,-0.000080,0.624349,0.670073,0.173865,-0.361885,86.655272,44.594407,-17.901203
36235,-6.770776,6.948618,0.113474,0.141115,0.260805,-0.114665,0.033469,-0.021282,-0.016378,-0.067702,0.069492,0.001139,1.000000,0.000167,-0.000106,-0.000082,0.624247,0.670130,0.173741,-0.362016,86.660428,44.596570,-17.921835
36236,-6.798787,6.982558,0.210933,0.119079,0.165623,-0.066791,0.065868,-0.009362,-0.013978,-0.067983,0.069830,0.002129,1.000000,0.000329,-0.000047,-0.000070,0.624032,0.670305,0.173588,-0.362136,86.689617,44.598268,-17.934022
36237,-6.825264,7.031939,0.325166,0.103367,0.049279,-0.008351,0.084814,-0.011474,-0.018022,-0.068246,0.070324,0.003278,1.000000,0.000424,-0.000057,-0.000090,0.623746,0.670538,0.173408,-0.362283,86.729687,44.601711,-17.946835
36238,-6.757793,7.029752,0.315076,0.149738,0.039698,-0.057666,0.079977,-0.006366,-0.022597,-0.067570,0.070304,0.003177,1.000000,0.000400,-0.000032,-0.000113,0.623466,0.670755,0.173267,-0.362432,86.768374,44.608447,-17.957007
36239,-6.774088,7.072769,0.338148,0.161597,0.009055,-0.014705,0.074256,-0.002278,-0.025421,-0.067732,0.070735,0.003407,1.000000,0.000371,-0.000011,-0.000127,0.623194,0.670965,0.173159,-0.362563,86.807339,44.616404,-17.962788
36240,-6.694493,7.079605,0.257311,0.242046,0.064111,-0.068943,0.049999,0.000352,-0.020580,-0.066938,0.070802,0.002591,1.000000,0.000250,0.000002,-0.000103,0.623011,0.671102,0.173087,-0.362656,86.832711,44.622210,-17.967461
36241,-6.729621,7.121369,0.253570,0.247346,0.065437,-0.014701,0.042900,0.001839,-0.011074,-0.067292,0.071217,0.002552,1.000000,0.000215,0.000009,-0.000055,0.622867,0.671235,0.173001,-0.362701,86.856540,44.622094,-17.969239
36242,-6.813314,7.208536,0.281182,0.241990,0.040874,0.107145,0.024628,0.003428,-0.005739,-0.068131,0.072087,0.002822,1.000000,0.000123,0.000017,-0.000029,0.622794,0.671311,0.172934,-0.362716,86.869575,44.619508,-17.970780
36243,-6.807212,7.198015,0.130064,0.279126,0.185901,0.089534,-0.005376,0.008661,-0.004433,-0.068070,0.071982,0.001302,1.000000,-0.000027,0.000043,-0.000022,0.622817,0.671311,0.172934,-0.362676,86.869749,44.615823,-17.966799
36244,-6.778321,7.180728,0.298919,0.240281,0.020158,0.063531,0.002006,0.008084,-0.000636,-0.067783,0.071807,0.002993,1.000000,0.000010,0.000040,-0.000003,0.622826,0.671330,0.172907,-0.362640,86.872608,44.610463,-17.964375
36245,-6.812141,7.112138,0.326187,0.162265,0.013334,0.039605,-0.022265,0.006217,-0.001711,-0.068121,0.071122,0.003256,1.000000,-0.000111,0.000031,-0.000009,0.622913,0.671275,0.172920,-0.362584,86.861818,44.605095,-17.962269
36246,-6.774744,6.916968,0.168612,0.097104,0.191536,-0.131576,-0.046282,-0.006756,-0.006517,-0.067745,0.069172,0.001668,1.000000,-0.000231,-0.000034,-0.000033,0.623085,0.671112,0.172953,-0.362575,86.828456,44.602632,-17.972026
36247,-6.797563,6.884127,0.104964,0.076654,0.266097,-0.141472,-0.025568,0.000678,-0.002946,-0.067975,0.068842,0.001041,1.000000,-0.000128,0.000003,-0.000015,0.623186,0.671036,0.172960,-0.362539,86.812617,44.597794,-17.974413
36248,-6.792114,6.903023,0.183754,0.071718,0.186865,-0.128771,0.014685,-0.000529,-0.008756,-0.067918,0.069033,0.001842,1.000000,0.000073,-0.000003,-0.000044,0.623145,0.671072,0.172909,-0.362568,86.817632,44.596807,-17.979263
36249,-6.749331,6.951986,0.296505,0.103182,0.060298,-0.119535,0.018361,-0.003072,-0.009817,-0.067490,0.069523,0.002970,1.000000,0.000092,-0.000015,-0.000049,0.623089,0.671120,0.172848,-0.362604,86.824669,44.595810,-17.984915
36250,-6.757031,6.958838,0.195470,0.129873,0.157545,-0.113233,0.012388,-0.002023,-0.010309,-0.067567,0.069592,0.001958,1.000000,0.000062,-0.000010,-0.000052,0.623054,0.671145,0.172802,-0.362641,86.827477,44.595664,-17.991035
36251,-6.758479,7.027203,0.169344,0.182222,0.170519,-0.064610,0.030131,0.004442,-0.009585,-0.067581,0.070275,0.001706,1.000000,0.000151,0.000022,-0.000048,0.622952,0.671243,0.172742,-0.362661,86.845489,44.594763,-17.990668
36252,-6.787912,7.046325,0.247400,0.153611,0.096434,-0.027252,0.034456,0.011017,-0.013869,-0.067874,0.070468,0.002490,1.000000,0.000172,0.000055,-0.000069,0.622825,0.671357,0.172709,-0.362685,86.868186,44.597065,-17.986469
36253,-6.802412,7.063110,0.294724,0.141949,0.049065,-0.003272,0.016274,0.011116,-0.013018,-0.068019,0.070635,0.002957,1.000000,0.000081,0.000056,-0.000065,0.622758,0.671422,0.172706,-0.362681,86.881929,44.598335,-17.980884
36254,-6.770533,7.046324,0.271878,0.158296,0.065594,-0.038468,0.006448,0.010171,-0.014604,-0.067700,0.070468,0.002724,1.000000,0.000032,0.000051,-0.000073,0.622724,0.671446,0.172723,-0.362685,86.888080,44.601030,-17.977395
36255,-6.772099,7.003041,0.273673,0.127408,0.070385,-0.068067,0.009330,0.005121,-0.018392,-0.067714,0.070037,0.002742,1.000000,0.000047,0.000026,-0.000092,0.622676,0.671474,0.172732,-0.362713,86.894269,44.605160,-17.976899
36256,-6.736305,6.989898,0.311151,0.133207,0.028082,-0.101109,-0.001054,0.007716,-0.019838,-0.067356,0.069906,0.003114,1.000000,-0.000005,0.000039,-0.000099,0.622660,0.671466,0.172773,-0.362735,86.894578,44.610773,-17.975609
36257,-6.756976,6.986848,0.282618,0.125659,0.060569,-0.089870,-0.008291,0.001674,-0.017682,-0.067564,0.069875,0.002824,1.000000,-0.000041,0.000008,-0.000088,0.622675,0.671433,0.172801,-0.362757,86.888812,44.614412,-17.977778
36258,-6.724063,6.943059,0.283437,0.118592,0.060327,-0.144093,-0.005380,0.001138,-0.015553,-0.067235,0.069436,0.002833,1.000000,-0.000027,0.000006,-0.000078,0.622688,0.671404,0.172815,-0.362784,86.883060,44.617369,-17.981589
36259,-6.744469,6.940266,0.254575,0.111058,0.092824,-0.132862,0.007002,0.006628,-0.014745,-0.067439,0.069408,0.002550,1.000000,0.000035,0.000033,-0.000074,0.622653,0.671429,0.172821,-0.362793,86.888844,44.619515,-17.979691
36260,-6.723820,7.040966,0.295242,0.182923,0.031882,-0.074225,0.010589,0.005576,-0.011321,-0.067234,0.070413,0.002958,1.000000,0.000053,0.000028,-0.000057,0.622615,0.671461,0.172806,-0.362806,86.894876,44.620189,-17.979750
36261,-6.759072,7.040685,0.296445,0.158251,0.037543,-0.049607,0.010028,0.009117,-0.011182,-0.067587,0.070410,0.002971,1.000000,0.000050,0.000046,-0.000056,0.622574,0.671505,0.172802,-0.362799,86.904008,44.620332,-17.975641
36262,-6.794272,7.082341,0.294010,0.163580,0.039068,0.004636,0.024203,0.013639,-0.019079,-0.067936,0.070830,0.002953,1.000000,0.000121,0.000068,-0.000095,0.622470,0.671587,0.172813,-0.362820,86.922158,44.625694,-17.969554
36263,-6.841048,7.087754,0.384690,0.111194,-0.040902,0.044804,0.005726,0.020315,-0.020425,-0.068403,0.070884,0.003856,1.000000,0.000029,0.000102,-0.000102,0.622417,0.671629,0.172882,-0.362800,86.934830,44.631450,-17.956898
36264,-6.869602,7.007347,0.260577,0.071643,0.096888,0.003000,-0.006505,0.014841,-0.025001,-0.068687,0.070082,0.002609,1.000000,-0.000033,0.000074,-0.000125,0.622404,0.671613,0.172973,-0.362810,86.935889,44.640234,-17.950096
36265,-6.855146,6.976542,0.250733,0.064333,0.107461,-0.029418,0.000851,0.009758,-0.027116,-0.068542,0.069775,0.002511,1.000000,0.000004,0.000049,-0.000136,0.622364,0.671615,0.173041,-0.362841,86.939659,44.649497,-17.946159
36266,-6.822743,6.974173,0.247188,0.087153,0.102930,-0.054008,0.018797,0.003623,-0.030827,-0.068217,0.069752,0.002480,1.000000,0.000094,0.000018,-0.000154,0.622265,0.671652,0.173070,-0.362928,86.948702,44.661271,-17.948625
36267,-6.817785,7.006943,0.342929,0.088407,0.002565,-0.030601,0.020238,0.001095,-0.032721,-0.068166,0.070080,0.003437,1.000000,0.000101,0.000005,-0.000164,0.622158,0.671693,0.173095,-0.363024,86.958449,44.673477,-17.951952
36268,-6.804803,7.044609,0.307885,0.134523,0.025755,-0.014325,0.011295,0.001152,-0.036066,-0.068035,0.070458,0.003083,1.000000,0.000056,0.000006,-0.000180,0.622076,0.671698,0.173148,-0.363129,86.961640,44.688174,-17.956627
36269,-6.818197,7.048557,0.397844,0.105791,-0.059368,0.001259,0.003502,-0.001356,-0.033772,-0.068170,0.070497,0.003979,1.000000,0.000018,-0.000007,-0.000169,0.622026,0.671682,0.173199,-0.363221,86.960377,44.700927,-17.961940
36270,-6.750491,7.018738,0.414771,0.128878,-0.085848,-0.066926,-0.000915,0.000182,-0.034729,-0.067493,0.070199,0.004147,1.000000,-0.000005,0.000001,-0.000174,0.621989,0.671648,0.173266,-0.363315,86.956060,44.714829,-17.967341
36271,-6.718470,7.015991,0.413531,0.151567,-0.090530,-0.091484,-0.023368,-0.009334,-0.034797,-0.067173,0.070172,0.004124,1.000000,-0.000117,-0.000047,-0.000174,0.622033,0.671533,0.173345,-0.363413,86.934911,44.727948,-17.979024
36272,-6.721256,6.929262,0.420878,0.091041,-0.081363,-0.150794,0.002020,-0.014497,-0.033990,-0.067201,0.069304,0.004205,1.000000,0.000010,-0.000072,-0.000170,0.622000,0.671483,0.173359,-0.363557,86.923967,44.740975,-17.996228
36273,-6.780999,7.005886,0.329754,0.130056,0.006626,-0.057885,0.027717,-0.026242,-0.030991,-0.067800,0.070069,0.003298,1.000000,0.000139,-0.000131,-0.000155,0.621895,0.671499,0.173279,-0.363745,86.922448,44.751345,-18.021574
36274,-6.787286,6.915765,0.276457,0.080143,0.074608,-0.119416,0.027931,-0.042479,-0.020504,-0.067866,0.069164,0.002760,1.000000,0.000140,-0.000212,-0.000103,0.621824,0.671489,0.173114,-0.363963,86.910879,44.755791,-18.060746
36275,-6.740645,6.770402,0.232351,0.024125,0.130551,-0.257009,0.078632,-0.046778,-0.008515,-0.067404,0.067706,0.002334,1.000000,0.000393,-0.000234,-0.000043,0.621606,0.671646,0.172802,-0.364193,86.927693,44.752702,-18.101514
36276,-6.757651,6.756876,0.240971,-0.000271,0.125397,-0.254259,0.122209,-0.050514,-0.007876,-0.067574,0.067570,0.002434,1.000000,0.000611,-0.000253,-0.000039,0.621248,0.671926,0.172398,-0.364480,86.965971,44.749693,-18.146612
36277,-6.764905,6.805925,0.130943,0.056187,0.218244,-0.218371,0.170188,-0.040154,-0.004220,-0.067648,0.068060,0.001354,1.000000,0.000851,-0.000201,-0.000021,0.620724,0.672382,0.171925,-0.364754,87.039052,44.744382,-18.181949
36278,-6.753919,6.803366,0.277704,0.017124,0.063465,-0.222380,0.266721,-0.017911,-0.011312,-0.067536,0.068034,0.002862,0.999999,0.001334,-0.000090,-0.000057,0.619845,0.673165,0.171370,-0.365066,87.178520,44.744372,-18.200926
36279,-6.799677,6.894814,0.346370,0.024289,-0.024972,-0.122858,0.285185,-0.012100,-0.016943,-0.067991,0.068949,0.003558,0.999999,0.001426,-0.000060,-0.000085,0.618885,0.674017,0.170817,-0.365383,87.333141,44.747244,-18.214081
36280,-6.697899,6.809286,0.326187,0.034955,-0.031418,-0.255890,0.295343,-0.003750,-0.019437,-0.066972,0.068094,0.003361,0.999999,0.001477,-0.000019,-0.000097,0.617880,0.674905,0.170280,-0.365695,87.496833,44.752323,-18.221941
36281,-6.679975,6.811081,0.334547,0.040537,-0.062917,-0.267051,0.295693,0.003629,-0.023511,-0.066792,0.068114,0.003447,0.999999,0.001478,0.000018,-0.000118,0.616856,0.675809,0.169779,-0.365986,87.666186,44.759416,-18.222646
36282,-6.828234,6.843339,0.201014,-0.004121,0.071913,-0.143600,0.308212,0.008866,-0.034156,-0.068271,0.068442,0.002119,0.999999,0.001541,0.000044,-0.000171,0.615767,0.676744,0.169306,-0.366310,87.844116,44.773237,-18.220758
36283,-7.021191,7.101080,0.390281,-0.017479,-0.136070,0.180106,0.315573,0.014592,-0.047776,-0.070195,0.071021,0.004020,0.999999,0.001578,0.000073,-0.000239,0.614620,0.677706,0.168882,-0.366655,88.030652,44.794409,-18.213307
36284,-7.045210,7.248663,0.307496,0.087895,-0.099395,0.299435,0.242512,-0.000233,-0.051257,-0.070434,0.072501,0.003163,0.999999,0.001213,-0.000001,-0.000256,0.613727,0.678405,0.168559,-0.367005,88.165523,44.817841,-18.219104
36285,-6.954400,7.269729,0.393211,0.136619,-0.221122,0.252087,0.211400,-0.022774,-0.038654,-0.069530,0.072707,0.004001,0.999999,0.001057,-0.000114,-0.000193,0.612979,0.678984,0.168180,-0.367359,88.271402,44.833060,-18.241464
36286,-6.894746,7.323519,0.522190,0.174553,-0.379551,0.250592,0.175713,-0.046404,-0.044730,-0.068932,0.073246,0.005270,1.000000,0.000879,-0.000232,-0.000224,0.612362,0.679398,0.167815,-0.367789,88.341893,44.851988,-18.284281
36287,-6.887158,7.270205,0.429346,0.171543,-0.289154,0.205303,0.098789,-0.051892,-0.045533,-0.068856,0.072716,0.004312,1.000000,0.000494,-0.000259,-0.000228,0.612007,0.679571,0.167577,-0.368168,88.366561,44.870754,-18.330231
36288,-6.863257,7.229277,0.327783,0.192258,-0.192856,0.157269,0.070072,-0.042600,-0.048355,-0.068616,0.072308,0.003289,1.000000,0.000350,-0.000213,-0.000242,0.611739,0.679665,0.167431,-0.368507,88.378616,44.891855,-18.370053
36289,-6.912874,7.219563,0.401145,0.133321,-0.251665,0.186799,0.044103,-0.046379,-0.041995,-0.069115,0.072209,0.004011,1.000000,0.000221,-0.000232,-0.000210,0.611572,0.679683,0.167299,-0.368810,88.375062,44.908680,-18.411521
36290,-6.889940,7.120702,0.290467,0.117896,-0.130101,0.098378,-0.003316,-0.060126,-0.037913,-0.068887,0.071220,0.002883,1.000000,-0.000017,-0.000301,-0.000190,0.611587,0.679529,0.167198,-0.369116,88.335191,44.923503,-18.465309
36291,-6.851853,7.061028,0.147454,0.149306,0.013869,0.026279,-0.017900,-0.064037,-0.034946,-0.068507,0.070622,0.001446,1.000000,-0.000090,-0.000320,-0.000175,0.611658,0.679331,0.167102,-0.369405,88.286097,44.935920,-18.520969
36292,-6.923022,7.016926,0.162595,0.071216,0.029246,0.045609,-0.019513,-0.066065,-0.035171,-0.069218,0.070182,0.001596,1.000000,-0.000098,-0.000330,-0.000176,0.611738,0.679118,0.167004,-0.369709,88.233540,44.949005,-18.579555
36293,-6.827777,6.865893,0.095983,0.056389,0.106684,-0.130039,-0.027598,-0.074589,-0.031810,-0.068267,0.068670,0.000925,1.000000,-0.000138,-0.000373,-0.000159,0.611857,0.678873,0.166881,-0.370017,88.172707,44.959331,-18.643946
36294,-6.799714,6.773645,0.048857,0.030411,0.169408,-0.216274,-0.012162,-0.077708,-0.027446,-0.067988,0.067746,0.000458,1.000000,-0.000061,-0.000389,-0.000137,0.611936,0.678667,0.166708,-0.370343,88.117790,44.967694,-18.711810
36295,-6.797760,6.782936,-0.117784,0.091332,0.331100,-0.215101,-0.001195,-0.072810,-0.033859,-0.067966,0.067841,-0.001203,1.000000,-0.000006,-0.000364,-0.000169,0.611959,0.678505,0.166550,-0.370673,88.073139,44.979227,-18.774620
36296,-6.750815,6.861889,-0.156270,0.190984,0.344796,-0.193536,0.032122,-0.061817,-0.025511,-0.067499,0.068628,-0.001573,1.000000,0.000161,-0.000309,-0.000128,0.611878,0.678465,0.166337,-0.370975,88.052681,44.986721,-18.829607
36297,-6.822442,6.923112,0.054103,0.123133,0.148384,-0.094614,0.081944,-0.057651,-0.027991,-0.068215,0.069240,0.000550,1.000000,0.000410,-0.000288,-0.000140,0.611617,0.678590,0.166051,-0.371305,88.064404,44.995087,-18.880148
36298,-6.825612,6.863267,0.038953,0.086182,0.174305,-0.135027,0.061484,-0.059011,-0.024765,-0.068248,0.068641,0.000390,1.000000,0.000307,-0.000295,-0.000124,0.611435,0.678646,0.165788,-0.371620,88.062370,45.002209,-18.932856
36299,-6.817637,6.731707,-0.270539,0.096391,0.493112,-0.241022,0.066302,-0.060969,-0.014991,-0.068170,0.067323,-0.002704,1.000000,0.000332,-0.000305,-0.000075,0.611254,0.678727,0.165479,-0.371907,88.063442,45.003243,-18.985538
36300,-6.753028,6.698058,-0.316394,0.130367,0.525294,-0.311396,0.160228,-0.056594,-0.013776,-0.067525,0.066988,-0.003129,1.000000,0.000801,-0.000283,-0.000069,0.610755,0.679097,0.165004,-0.372262,88.119575,45.004137,-19.035991
36301,-6.824532,6.787091,-0.137761,0.085860,0.345670,-0.193387,0.218069,-0.056876,0.003675,-0.068246,0.067871,-0.001323,0.999999,0.001090,-0.000284,0.000018,0.610089,0.679665,0.164360,-0.372604,88.210444,44.994503,-19.084897
36302,-6.791652,6.855037,-0.180770,0.161936,0.353601,-0.169064,0.262126,-0.039528,0.009880,-0.067920,0.068549,-0.001731,0.999999,0.001311,-0.000198,0.000049,0.609272,0.680396,0.163665,-0.372911,88.335161,44.982256,-19.120935
36303,-6.832174,6.939665,-0.073461,0.151804,0.227539,-0.077797,0.307999,-0.015699,0.014530,-0.068327,0.069393,-0.000633,0.999999,0.001540,-0.000078,0.000073,0.608284,0.681321,0.162942,-0.373152,88.501336,44.967245,-19.136238
36304,-6.808623,7.018025,-0.035183,0.199985,0.149908,-0.037783,0.321070,0.007737,0.011961,-0.068090,0.070177,-0.000237,0.999999,0.001605,0.000039,0.000060,0.607229,0.682318,0.162274,-0.373338,88.686847,44.954613,-19.134054
36305,-6.827878,7.057101,-0.090768,0.222210,0.178236,0.003098,0.294817,0.019798,0.003816,-0.068280,0.070571,-0.000797,0.999999,0.001474,0.000099,0.000019,0.606235,0.683257,0.161719,-0.373478,88.865479,44.946272,-19.120955
36306,-6.805048,7.008596,-0.039505,0.181176,0.113331,-0.046166,0.304867,0.034355,-0.012568,-0.068046,0.070091,-0.000277,0.999999,0.001524,0.000172,-0.000063,0.605165,0.684232,0.161245,-0.373634,89.056590,44.947959,-19.097701
36307,-6.832937,6.962913,0.044481,0.099011,0.026804,-0.057555,0.309043,0.045160,-0.039019,-0.068316,0.069642,0.000568,0.999999,0.001545,0.000226,-0.000195,0.604019,0.685223,0.160886,-0.373827,89.257431,44.964240,-19.064764
36308,-6.795089,6.857348,0.110215,0.028456,-0.044884,-0.158376,0.300541,0.044510,-0.061200,-0.067930,0.068592,0.001220,0.999999,0.001503,0.000223,-0.000306,0.602861,0.686162,0.160616,-0.374089,89.451594,44.993742,-19.033701
36309,-6.728789,6.743324,0.115732,-0.007797,-0.063156,-0.285971,0.279184,0.045229,-0.074973,-0.067262,0.067457,0.001267,0.999999,0.001396,0.000226,-0.000375,0.601748,0.687031,0.160433,-0.374365,89.635253,45.030344,-19.000993
36310,-6.757026,6.743305,0.024809,0.001884,0.007330,-0.266480,0.271684,0.042355,-0.083902,-0.067542,0.067461,0.000354,0.999999,0.001358,0.000212,-0.000420,0.600646,0.687857,0.160289,-0.374678,89.811827,45.072705,-18.971458
36311,-6.848164,6.725023,0.022537,-0.070182,0.012664,-0.214841,0.268445,0.034844,-0.093210,-0.068450,0.067282,0.000328,0.999999,0.001342,0.000174,-0.000466,0.599541,0.688658,0.160159,-0.375033,89.983874,45.119786,-18.946426
36312,-6.896665,6.719448,-0.095073,-0.067044,0.115199,-0.184281,0.261870,0.028267,-0.089548,-0.068937,0.067227,-0.000853,0.999999,0.001309,0.000141,-0.000448,0.598471,0.689421,0.160010,-0.375403,90.147038,45.165265,-18.927925
36313,-6.927649,6.784414,-0.213783,-0.004427,0.198113,-0.115936,0.284956,0.016062,-0.091073,-0.069246,0.067879,-0.002036,0.999999,0.001425,0.000080,-0.000455,0.597326,0.690235,0.159784,-0.375829,90.317988,45.210998,-18.917880
36314,-6.965577,6.995195,-0.202392,0.108852,0.124120,0.059783,0.306479,0.003352,-0.092102,-0.069624,0.069987,-0.001916,0.999999,0.001532,0.000017,-0.000461,0.596115,0.691080,0.159484,-0.376325,90.492643,45.257964,-18.919221
36315,-6.976981,7.110173,-0.069172,0.135009,-0.049124,0.148082,0.303451,-0.007415,-0.090093,-0.069738,0.071134,-0.000586,0.999999,0.001517,-0.000037,-0.000450,0.594923,0.691902,0.159149,-0.376842,90.660856,45.303203,-18.927931
36316,-6.975559,7.246600,0.011258,0.201908,-0.178704,0.242114,0.256750,-0.018178,-0.091686,-0.069722,0.072498,0.000199,0.999999,0.001284,-0.000091,-0.000458,0.593900,0.692555,0.158877,-0.377371,90.794803,45.350091,-18.946448
36317,-6.928360,7.387061,0.020704,0.326701,-0.249159,0.306721,0.186014,-0.019308,-0.090671,-0.069250,0.073902,0.000269,0.999999,0.000930,-0.000097,-0.000453,0.593121,0.693002,0.158731,-0.377836,90.889001,45.395897,-18.964482
36318,-6.748040,7.366458,0.181292,0.383014,-0.447064,0.161632,0.089982,-0.017621,-0.080338,-0.067451,0.073691,0.001840,1.000000,0.000450,-0.000088,-0.000402,0.592695,0.693169,0.158735,-0.378196,90.927725,45.436320,-18.982510
36319,-6.797315,7.232977,0.272736,0.234873,-0.493042,0.101725,0.019843,-0.026400,-0.057291,-0.067953,0.072349,0.002726,1.000000,0.000099,-0.000132,-0.000286,0.592560,0.693137,0.158766,-0.378455,90.922331,45.463040,-19.006715
36320,-6.938573,7.186781,0.293082,0.109175,-0.466922,0.169776,-0.052819,-0.027595,-0.060774,-0.069364,0.071890,0.002902,1.000000,-0.000264,-0.000138,-0.000304,0.592673,0.692877,0.158943,-0.378678,90.873213,45.492342,-19.033172
36321,-6.950363,7.102186,-0.230816,0.228342,0.057467,0.124435,-0.146227,-0.035695,-0.052209,-0.069485,0.071038,-0.002372,1.000000,-0.000731,-0.000178,-0.000261,0.593131,0.692338,0.159243,-0.378821,90.767129,45.516157,-19.065119
36322,-6.936969,7.134051,-0.658438,0.409247,0.461671,0.140660,-0.147904,-0.054509,-0.026835,-0.069358,0.071345,-0.006656,1.000000,-0.000740,-0.000273,-0.000134,0.593659,0.691773,0.159402,-0.378961,90.647456,45.526143,-19.114086
36323,-6.922914,7.277515,-0.444476,0.448164,0.235432,0.228738,-0.119343,-0.080982,-0.006046,-0.069225,0.072775,-0.004516,1.000000,-0.000597,-0.000405,-0.000030,0.594146,0.691263,0.159355,-0.379145,90.529816,45.523610,-19.183812
36324,-6.886744,7.241622,-0.193437,0.368711,0.015164,0.175784,-0.153179,-0.100671,0.000922,-0.068867,0.072414,-0.002024,1.000000,-0.000766,-0.000503,0.000005,0.594781,0.690615,0.159292,-0.379357,90.380016,45.517752,-19.270768
36325,-6.874957,7.003150,-0.251498,0.240996,0.143394,0.000249,-0.194531,-0.093170,0.001451,-0.068749,0.070028,-0.002615,0.999999,-0.000973,-0.000466,0.000007,0.595551,0.689865,0.159326,-0.379501,90.212301,45.510750,-19.350302
36326,-6.902131,6.784996,-0.563377,0.185808,0.513700,-0.133094,-0.168593,-0.066486,-0.007944,-0.069017,0.067848,-0.005714,1.000000,-0.000843,-0.000332,-0.000040,0.596194,0.689228,0.159424,-0.379608,90.073677,45.509591,-19.409227
36327,-6.810555,6.609569,-0.695053,0.176099,0.670575,-0.322035,-0.088904,-0.048204,-0.011253,-0.068100,0.066096,-0.006996,1.000000,-0.000445,-0.000241,-0.000056,0.596539,0.688865,0.159435,-0.379718,89.992640,45.509639,-19.451978
36328,-6.820660,6.579735,-0.593301,0.117683,0.589947,-0.336167,0.003560,-0.042056,-0.011255,-0.068202,0.065801,-0.005946,1.000000,0.000018,-0.000210,-0.000056,0.596563,0.688785,0.159290,-0.379888,89.966904,45.510264,-19.490926
36329,-6.788940,6.704923,-0.613601,0.229599,0.572513,-0.271109,0.073774,-0.043353,0.001271,-0.067888,0.067051,-0.006126,1.000000,0.000369,-0.000217,0.000006,0.596367,0.688927,0.158966,-0.380074,89.982018,45.503199,-19.529559
36330,-6.768689,6.809818,-0.584361,0.301018,0.511689,-0.211760,0.139823,-0.033733,0.020580,-0.067693,0.068095,-0.005807,1.000000,0.000699,-0.000169,0.000103,0.595975,0.689293,0.158477,-0.380229,90.039219,45.485598,-19.561697
36331,-6.739265,6.756832,-0.477652,0.242893,0.408835,-0.269393,0.194733,-0.008396,0.037376,-0.067405,0.067560,-0.004714,1.000000,0.000974,-0.000042,0.000187,0.595403,0.689891,0.157901,-0.380281,90.144061,45.457782,-19.571846
36332,-6.838607,6.545871,-0.281644,-0.039711,0.285507,-0.346370,0.274069,0.014936,0.050991,-0.068403,0.065445,-0.002722,0.999999,0.001370,0.000075,0.000255,0.594566,0.690772,0.157196,-0.380283,90.306404,45.422732,-19.564403
36333,-6.783278,6.307464,-0.108231,-0.233282,0.150687,-0.553556,0.325382,0.006016,0.052344,-0.067849,0.063059,-0.000978,0.999999,0.001627,0.000030,0.000262,0.593557,0.691796,0.156360,-0.380343,90.494379,45.386145,-19.563182
36334,-6.750448,6.227849,-0.395550,-0.179631,0.412098,-0.630697,0.401431,0.034015,0.049264,-0.067520,0.062270,-0.003819,0.999998,0.002007,0.000170,0.000246,0.592258,0.693086,0.155475,-0.380381,90.740521,45.351932,-19.540515
36335,-6.810018,6.540518,-0.349035,-0.042091,0.276233,-0.368199,0.501618,0.049060,0.054745,-0.068119,0.065395,-0.003310,0.999997,0.002508,0.000245,0.000274,0.590604,0.694709,0.154425,-0.380419,91.054019,45.313790,-19.504545
36336,-6.957292,6.958724,0.074295,-0.028030,-0.227087,0.025034,0.561332,0.047435,0.066203,-0.069596,0.069562,0.000955,0.999996,0.002807,0.000237,0.000331,0.588765,0.696503,0.153215,-0.380480,91.398923,45.269542,-19.471794
36337,-6.973320,7.319647,0.197846,0.135054,-0.469017,0.287075,0.523615,0.040442,0.058585,-0.069754,0.073171,0.002184,0.999997,0.002618,0.000202,0.000293,0.587041,0.698167,0.152081,-0.380548,91.719532,45.229054,-19.443540
36338,-6.873353,7.628894,-0.156706,0.509419,-0.277187,0.440658,0.447663,0.073075,0.063927,-0.068758,0.076270,-0.001371,0.999997,0.002238,0.000365,0.000320,0.585566,0.699664,0.151169,-0.380434,92.013572,45.185376,-19.390642
36339,-6.938216,7.989438,-0.445388,0.783350,-0.121759,0.748550,0.400970,0.088985,0.106730,-0.069427,0.079866,-0.004263,0.999998,0.002005,0.000445,0.000534,0.584319,0.701090,0.150241,-0.380094,92.290210,45.116082,-19.325148
36340,-6.980659,8.272152,-0.304490,0.863343,-0.349718,0.975409,0.353352,0.102842,0.154463,-0.069872,0.082673,-0.002863,0.999998,0.001767,0.000514,0.000772,0.583319,0.702430,0.149276,-0.379537,92.544497,45.019500,-19.251947
36341,-6.993652,8.225238,-0.028439,0.695541,-0.613941,0.943972,0.236057,0.112677,0.187205,-0.070014,0.082187,-0.000148,0.999999,0.001180,0.000563,0.000936,0.582782,0.703474,0.148447,-0.378753,92.737151,44.903080,-19.171374
36342,-6.990656,7.995289,0.027904,0.499584,-0.614640,0.778218,0.072755,0.121900,0.209942,-0.069990,0.079879,0.000351,0.999999,0.000364,0.000610,0.001050,0.582856,0.704069,0.147874,-0.377756,92.838940,44.773885,-19.086146
36343,-6.880220,7.762075,-0.086806,0.437161,-0.470486,0.540199,0.003281,0.116909,0.226980,-0.068891,0.077543,-0.000827,0.999999,0.000016,0.000585,0.001135,0.583207,0.704470,0.147357,-0.376666,92.898502,44.634324,-19.004763
36344,-6.908950,7.471930,-0.197846,0.243684,-0.279600,0.359080,0.015582,0.132904,0.231655,-0.069177,0.074639,-0.001927,0.999999,0.000078,0.000665,0.001158,0.583513,0.704933,0.146847,-0.375524,92.972206,44.492227,-18.912463
36345,-6.833194,7.420191,-0.106217,0.203070,-0.366794,0.266362,-0.044965,0.128531,0.224798,-0.068416,0.074125,-0.001035,0.999999,-0.000225,0.000643,0.001124,0.584020,0.705211,0.146462,-0.374363,93.009923,44.353446,-18.822422
36346,-6.921808,7.255708,-0.298888,0.085190,-0.113337,0.218560,-0.181280,0.121410,0.189652,-0.069289,0.072489,-0.003013,0.999999,-0.000906,0.000607,0.000948,0.584948,0.705044,0.146435,-0.373238,92.964908,44.235666,-18.738162
36347,-7.046564,6.999306,-0.427958,-0.132962,0.116006,0.126948,-0.115303,0.065358,0.117902,-0.070508,0.069949,-0.004297,1.000000,-0.000577,0.000327,0.000590,0.585548,0.704917,0.146373,-0.372559,92.929735,44.159924,-18.694458
36348,-6.961481,7.109484,-0.326496,-0.048372,-0.019972,0.142756,-0.121798,0.045060,0.065193,-0.069639,0.071070,-0.003293,1.000000,-0.000609,0.000225,0.000326,0.586088,0.704689,0.146449,-0.372110,92.879758,44.115666,-18.666026
36349,-6.833810,6.913575,-0.470190,-0.040025,0.152282,-0.081565,-0.296050,0.029404,0.063180,-0.068361,0.069107,-0.004794,0.999999,-0.001480,0.000147,0.000316,0.587248,0.703925,0.146812,-0.371586,92.722622,44.072440,-18.648592
36350,-6.657710,6.534237,-0.838471,-0.035760,0.582567,-0.464764,-0.356652,-0.046999,0.085107,-0.066603,0.065299,-0.008517,0.999998,-0.001783,-0.000235,0.000426,0.588718,0.702849,0.146985,-0.371229,92.486777,44.019288,-18.693910
36351,-6.444679,6.419582,-1.020778,0.096947,0.762290,-0.691483,-0.302744,-0.064917,0.110928,-0.064479,0.064144,-0.010326,0.999999,-0.001514,-0.000325,0.000555,0.590056,0.701920,0.146913,-0.370889,92.272869,43.951030,-18.752708
36352,-6.377555,6.336620,-0.880803,0.033321,0.658323,-0.803401,-0.159826,0.000063,0.155745,-0.063825,0.063309,-0.008859,0.999999,-0.000799,0.000000,0.000779,0.590928,0.701560,0.146611,-0.370301,92.174716,43.856174,-18.762209
36353,-6.611589,6.258456,-0.418031,-0.352293,0.307312,-0.711174,0.037150,0.045313,0.193159,-0.066177,0.062521,-0.004154,0.999999,0.000186,0.000227,0.000966,0.591142,0.701898,0.145946,-0.369580,92.214845,43.738265,-18.735598
36354,-6.607845,6.370264,-0.353197,-0.321936,0.214107,-0.635591,0.190251,0.048310,0.212302,-0.066147,0.063636,-0.003455,0.999999,0.000951,0.000242,0.001062,0.590854,0.702701,0.144940,-0.368911,92.342379,43.609938,-18.708780
36355,-6.617997,6.716032,-0.603344,-0.047686,0.347458,-0.371083,0.341836,0.096033,0.218820,-0.066256,0.067098,-0.005887,0.999998,0.001709,0.000480,0.001094,0.590006,0.704048,0.143772,-0.368155,92.583445,43.476061,-18.643801
36356,-6.694819,7.302052,-0.477616,0.197887,0.068925,0.103190,0.451313,0.096736,0.205961,-0.067026,0.072962,-0.004579,0.999997,0.002257,0.000484,0.001030,0.588748,0.705700,0.142449,-0.367520,92.885805,43.349888,-18.580115
36357,-6.576970,7.839178,-0.295312,0.522440,-0.302306,0.406508,0.440321,0.099118,0.195465,-0.065848,0.078334,-0.002748,0.999997,0.002202,0.000496,0.000977,0.587501,0.707319,0.141191,-0.366889,93.183911,43.228894,-18.513864
36358,-6.550482,8.086886,-0.291858,0.664999,-0.402352,0.569390,0.254049,0.082385,0.190292,-0.065583,0.080810,-0.002789,0.999999,0.001270,0.000412,0.000951,0.586916,0.708346,0.140241,-0.366208,93.364541,43.111724,-18.462616
36359,-6.604128,7.970362,-0.241720,0.510464,-0.416171,0.520065,0.103383,0.082304,0.192480,-0.066119,0.079641,-0.002349,0.999999,0.000517,0.000412,0.000962,0.586864,0.708938,0.139560,-0.365406,93.459637,42.992706,-18.410671
36360,-6.868522,7.648203,-0.082830,0.047882,-0.414253,0.458853,-0.047034,0.036006,0.176730,-0.068753,0.076421,-0.000834,1.000000,-0.000235,0.000180,0.000884,0.587350,0.708985,0.139073,-0.364716,93.442893,42.884778,-18.395704
36361,-6.716294,7.199691,-0.285514,-0.069217,-0.125863,0.036424,-0.176944,0.011993,0.144968,-0.067215,0.071946,-0.002915,0.999999,-0.000885,0.000060,0.000725,0.588253,0.708591,0.138865,-0.364107,93.341364,42.795238,-18.396580
36362,-6.786700,7.026951,-0.569303,-0.135091,0.218742,-0.030289,-0.191714,0.024078,0.111558,-0.067907,0.070226,-0.005752,0.999999,-0.000959,0.000120,0.000558,0.589141,0.708145,0.138837,-0.363550,93.237615,42.725012,-18.387616
36363,-6.800657,6.988165,-0.579071,-0.172110,0.255605,-0.049300,-0.138556,0.001953,0.078523,-0.068034,0.069851,-0.005838,1.000000,-0.000693,0.000010,0.000393,0.589793,0.707797,0.138764,-0.363197,93.154909,42.673825,-18.393046
36364,-6.599715,7.066500,-0.525920,-0.004880,0.150998,-0.130466,-0.129330,-0.026306,0.046119,-0.066013,0.070646,-0.005314,1.000000,-0.000647,-0.000132,0.000231,0.590375,0.707396,0.138706,-0.363054,93.062399,42.642624,-18.420226
36365,-6.432381,7.082847,-0.651277,0.164802,0.237840,-0.227143,-0.153204,-0.013080,0.037094,-0.064337,0.070812,-0.006571,1.000000,-0.000766,-0.000065,0.000185,0.591014,0.706949,0.138762,-0.362866,92.964761,42.615491,-18.435457
36366,-6.425123,6.903076,-0.698429,0.073963,0.340712,-0.362772,-0.165911,-0.011600,0.025301,-0.064260,0.069017,-0.007045,1.000000,-0.000830,-0.000058,0.000127,0.591676,0.706452,0.138886,-0.362707,92.859721,42.595706,-18.450213
36367,-6.511669,6.609490,-0.518291,-0.233105,0.279202,-0.527026,-0.092518,-0.007153,0.025330,-0.065125,0.066084,-0.005216,1.000000,-0.000463,-0.000036,0.000127,0.592074,0.706185,0.138892,-0.362574,92.800378,42.575194,-18.460187
36368,-6.551481,6.404833,-0.473202,-0.405515,0.306238,-0.652475,-0.071137,-0.001281,0.018367,-0.065521,0.064041,-0.004755,1.000000,-0.000356,-0.000006,0.000092,0.592381,0.705982,0.138900,-0.362464,92.755297,42.559065,-18.466591
36369,-6.474549,6.327867,-0.573141,-0.366225,0.406529,-0.757811,-0.045608,-0.000140,0.011143,-0.064749,0.063274,-0.005746,1.000000,-0.000228,-0.000001,0.000056,0.592582,0.705858,0.138890,-0.362381,92.727076,42.546384,-18.470495
36370,-6.405594,6.518383,-0.458757,-0.239972,0.235380,-0.668376,0.014514,0.012897,0.008154,-0.064059,0.065182,-0.004579,1.000000,0.000073,0.000064,0.000041,0.592559,0.705927,0.138821,-0.362311,92.738787,42.535709,-18.465488
36371,-6.387434,6.789313,-0.389042,-0.085177,0.093261,-0.483728,0.036023,0.042736,0.016897,-0.063881,0.067888,-0.003865,1.000000,0.000180,0.000214,0.000084,0.592453,0.706125,0.138772,-0.362118,92.779445,42.518822,-18.436353
36372,-6.445151,6.994716,-0.385401,-0.003057,0.046059,-0.293631,0.038530,0.053633,0.025896,-0.064462,0.069940,-0.003823,1.000000,0.000193,0.000268,0.000129,0.592349,0.706351,0.138717,-0.361868,92.825812,42.496848,-18.400417
36373,-6.519977,7.098650,-0.312759,-0.020863,-0.036310,-0.169193,0.050966,0.047249,0.019442,-0.065207,0.070981,-0.003094,1.000000,0.000255,0.000236,0.000097,0.592192,0.706603,0.138644,-0.361661,92.877207,42.478204,-18.368075
36374,-6.610307,7.068925,-0.102897,-0.178711,-0.208215,-0.137918,0.011933,0.043331,-0.004683,-0.066102,0.070691,-0.001010,1.000000,0.000060,0.000217,-0.000023,0.592133,0.706711,0.138715,-0.361520,92.903688,42.473985,-18.338998
36375,-6.685873,7.054720,-0.431025,-0.126288,0.119481,-0.085122,-0.063438,0.043176,-0.036391,-0.066847,0.070558,-0.004318,1.000000,-0.000317,0.000216,-0.000182,0.592281,0.706578,0.139035,-0.361413,92.889015,42.487488,-18.307489
36376,-6.690478,7.239428,-0.584795,0.042302,0.216755,0.059750,-0.050775,0.055587,-0.052896,-0.066887,0.072410,-0.005848,1.000000,-0.000254,0.000278,-0.000264,0.592348,0.706489,0.139426,-0.361328,92.887285,42.510505,-18.267001
36377,-6.664182,7.343584,-0.453226,0.085266,0.059355,0.113750,-0.046753,0.033205,-0.075144,-0.066615,0.073460,-0.004538,1.000000,-0.000234,0.000166,-0.000376,0.592375,0.706360,0.139822,-0.361382,92.877855,42.546318,-18.241915
36378,-6.665527,7.414172,-0.422752,0.126448,0.013900,0.165375,-0.096688,0.018403,-0.102782,-0.066618,0.074174,-0.004257,1.000000,-0.000483,0.000092,-0.000514,0.592540,0.706032,0.140362,-0.361544,92.831638,42.598961,-18.228358
36379,-6.583991,7.486727,-0.678111,0.329223,0.220597,0.172441,-0.155668,0.011941,-0.131873,-0.065791,0.074905,-0.006835,0.999999,-0.000778,0.000060,-0.000659,0.592863,0.705502,0.141092,-0.361765,92.750204,42.667889,-18.217563
36380,-6.595149,7.441311,-0.386184,0.208564,-0.032029,0.135865,-0.177985,0.009436,-0.150208,-0.065896,0.074459,-0.003925,0.999999,-0.000890,0.000047,-0.000751,0.593234,0.704882,0.141919,-0.362040,92.653766,42.747943,-18.209409
36381,-6.672953,7.155559,-0.154914,-0.085672,-0.146562,-0.028749,-0.300631,-0.006230,-0.162375,-0.066671,0.071607,-0.001659,0.999999,-0.001503,-0.000031,-0.000812,0.594023,0.703866,0.142964,-0.362312,92.480117,42.834715,-18.212156
36382,-6.479642,6.724676,-0.730806,-0.005905,0.480371,-0.457997,-0.431608,-0.030248,-0.154642,-0.064743,0.067281,-0.007463,0.999997,-0.002158,-0.000151,-0.000773,0.595305,0.702414,0.144147,-0.362558,92.216940,42.918275,-18.235512
36383,-6.302222,6.614054,-0.963723,0.144446,0.708337,-0.654640,-0.305931,-0.029848,-0.123471,-0.062980,0.066165,-0.009748,0.999999,-0.001530,-0.000149,-0.000617,0.596196,0.701363,0.144994,-0.362791,92.026241,42.983358,-18.258748
36384,-6.309116,6.860161,-0.541423,0.167999,0.265462,-0.482029,-0.171248,-0.013536,-0.100146,-0.063056,0.068629,-0.005477,1.000000,-0.000856,-0.000068,-0.000501,0.596647,0.700752,0.145564,-0.363002,91.919580,43.035268,-18.271286
36385,-6.393052,7.022143,-0.479282,0.202822,0.195767,-0.308381,-0.161509,-0.008174,-0.080399,-0.063902,0.070243,-0.004852,1.000000,-0.000808,-0.000041,-0.000402,0.597093,0.700200,0.146062,-0.363134,91.822299,43.075161,-18.278988
36386,-6.464963,7.303410,-0.568939,0.371629,0.236851,-0.052307,-0.151128,0.012507,-0.070513,-0.064624,0.073053,-0.005741,1.000000,-0.000756,0.000063,-0.000353,0.597507,0.699717,0.146568,-0.363179,91.740438,43.109607,-18.272080
36387,-6.596771,7.314532,-0.391274,0.236169,0.103991,0.041564,-0.137706,0.029329,-0.067289,-0.065944,0.073165,-0.003953,1.000000,-0.000689,0.000147,-0.000336,0.597865,0.699313,0.147089,-0.363158,91.676440,43.141388,-18.250882
36388,-6.700828,7.231726,-0.536132,0.167037,0.290369,0.055147,-0.124626,0.021083,-0.073136,-0.066982,0.072338,-0.005399,1.000000,-0.000623,0.000105,-0.000366,0.598175,0.698922,0.147582,-0.363200,91.614344,43.177207,-18.237286
36389,-6.696232,7.328715,-0.425843,0.203316,0.165077,0.120204,-0.057682,0.020361,-0.077870,-0.066934,0.073312,-0.004273,1.000000,-0.000288,0.000102,-0.000389,0.598241,0.698732,0.147967,-0.363301,91.591540,43.215118,-18.223033
36390,-6.537988,7.458274,-0.364279,0.382349,0.040466,0.104772,-0.037878,0.010430,-0.069298,-0.065354,0.074605,-0.003654,1.000000,-0.000189,0.000052,-0.000346,0.598262,0.698584,0.148257,-0.363433,91.573341,43.248917,-18.217933
36391,-6.544313,7.702830,-0.228055,0.495860,-0.144975,0.284180,-0.041529,0.016288,-0.063272,-0.065419,0.077049,-0.002291,1.000000,-0.000208,0.000081,-0.000316,0.598300,0.698446,0.148550,-0.363515,91.557485,43.278560,-18.207099
36392,-6.767878,7.476067,-0.022475,0.135295,-0.230500,0.268226,-0.124774,0.016138,-0.078909,-0.067649,0.074787,-0.000266,1.000000,-0.000624,0.000081,-0.000395,0.598603,0.698041,0.149048,-0.363591,91.492693,43.317781,-18.197346
36393,-6.827602,7.178298,-0.440488,0.050373,0.255245,0.100457,-0.170523,0.029192,-0.103623,-0.068239,0.071815,-0.004456,0.999999,-0.000853,0.000146,-0.000518,0.599007,0.697510,0.149754,-0.363653,91.410471,43.370322,-18.175557
36394,-6.763152,7.270374,-0.434043,0.162604,0.215638,0.122805,-0.072342,0.056149,-0.106409,-0.067594,0.072738,-0.004348,1.000000,-0.000362,0.000281,-0.000532,0.599047,0.697313,0.150373,-0.363711,91.397700,43.424748,-18.133829
36395,-6.872176,7.105468,-0.070412,-0.129492,-0.066841,0.071552,-0.004646,0.023666,-0.100119,-0.068686,0.071089,-0.000698,1.000000,-0.000023,0.000118,-0.000501,0.598883,0.697271,0.150749,-0.363905,91.407383,43.475369,-18.116600
36396,-6.576380,7.224290,-0.249796,0.218678,0.006213,-0.042647,-0.037110,-0.010847,-0.099121,-0.065728,0.072275,-0.002515,1.000000,-0.000186,-0.000054,-0.000496,0.598863,0.697063,0.151077,-0.364201,91.378379,43.526560,-18.127860
36397,-6.201165,7.620485,-0.391270,0.786733,-0.036635,-0.011716,-0.074974,0.017040,-0.048059,-0.061994,0.076218,-0.003936,1.000000,-0.000375,0.000085,-0.000240,0.599044,0.696837,0.151379,-0.364209,91.343612,43.547427,-18.116797
36398,-6.584819,7.674357,-0.137215,0.478573,-0.199372,0.287097,-0.079614,0.028332,-0.030078,-0.065837,0.076753,-0.001393,1.000000,-0.000398,0.000142,-0.000150,0.599268,0.696625,0.151662,-0.364129,91.310650,43.558540,-18.098446
36399,-7.083166,7.461457,0.044142,-0.056680,-0.203165,0.473324,-0.146116,0.032827,-0.051147,-0.070813,0.074633,0.000399,1.000000,-0.000731,0.000164,-0.000256,0.599679,0.696212,0.152150,-0.364038,91.243592,43.580904,-18.075040
36400,-7.069888,7.053922,-0.069861,-0.266062,0.005793,0.171058,-0.185722,0.008090,-0.079051,-0.070671,0.070566,-0.000761,0.999999,-0.000929,0.000040,-0.000395,0.600198,0.695607,0.152736,-0.364094,91.139344,43.620342,-18.071917
36401,-7.003093,6.949725,-0.242034,-0.221717,0.185576,0.052248,-0.112863,-0.004307,-0.095291,-0.069998,0.069529,-0.002461,1.000000,-0.000564,-0.000022,-0.000476,0.600441,0.695191,0.153208,-0.364290,91.071489,43.668610,-18.077145
36402,-7.060274,6.947533,-0.204588,-0.263916,0.165152,0.089868,0.006912,-0.022455,-0.118683,-0.070561,0.069517,-0.002051,1.000000,0.000035,-0.000112,-0.000593,0.600241,0.695078,0.153488,-0.364718,91.061220,43.731082,-18.097754
36403,-6.952250,6.952792,0.008725,-0.242878,-0.064801,0.016451,0.039901,-0.060759,-0.155989,-0.069468,0.069582,0.000080,1.000000,0.000200,-0.000304,-0.000780,0.599885,0.694971,0.153722,-0.365409,91.050529,43.814651,-18.147004
36404,-6.736170,6.958876,0.045685,-0.087256,-0.150267,-0.129000,-0.025126,-0.074950,-0.167799,-0.067303,0.069645,0.000423,1.000000,-0.000126,-0.000375,-0.000839,0.599746,0.694627,0.154074,-0.366142,90.993361,43.905786,-18.208747
36405,-6.582900,6.860991,-0.042289,0.000704,-0.072434,-0.304571,-0.132535,-0.115083,-0.177571,-0.065768,0.068668,-0.000506,0.999999,-0.000663,-0.000575,-0.000888,0.599990,0.693885,0.154536,-0.366953,90.853593,44.002217,-18.301359
36406,-6.387871,6.889027,-0.044777,0.173128,-0.109030,-0.419941,-0.157935,-0.104740,-0.165223,-0.063822,0.068943,-0.000536,0.999999,-0.000790,-0.000524,-0.000826,0.600338,0.693089,0.155033,-0.367678,90.703149,44.091918,-18.387608
36407,-6.372427,6.882848,0.102885,0.150685,-0.237134,-0.436493,-0.217308,-0.080859,-0.142417,-0.063676,0.068875,0.000928,0.999999,-0.001087,-0.000404,-0.000712,0.600912,0.692180,0.155630,-0.368198,90.532690,44.167573,-18.454282
36408,-6.512404,6.813162,-0.008277,0.063896,-0.066161,-0.388138,-0.296126,-0.076155,-0.124838,-0.065081,0.068172,-0.000208,0.999999,-0.001481,-0.000381,-0.000624,0.601789,0.691050,0.156326,-0.368595,90.317969,44.233629,-18.518919
36409,-6.466786,6.832026,-0.212302,0.190230,0.133155,-0.405935,-0.317277,-0.050339,-0.109225,-0.064630,0.068352,-0.002248,0.999999,-0.001586,-0.000252,-0.000546,0.602743,0.689920,0.157084,-0.368829,90.106491,44.289878,-18.562111
36410,-6.478082,6.944368,-0.263785,0.288695,0.180054,-0.318292,-0.318989,-0.019675,-0.089212,-0.064750,0.069468,-0.002755,0.999999,-0.001595,-0.000098,-0.000446,0.603717,0.688849,0.157869,-0.368904,89.909616,44.335179,-18.582320
36411,-6.609033,6.988166,-0.306622,0.255858,0.262891,-0.196391,-0.354112,-0.026398,-0.063602,-0.066068,0.069897,-0.003199,0.999998,-0.001771,-0.000132,-0.000318,0.604860,0.687685,0.158610,-0.368886,89.690195,44.365131,-18.606669
36412,-6.628350,6.930835,-0.492860,0.275548,0.481684,-0.225905,-0.367589,-0.040863,-0.049521,-0.066265,0.069316,-0.005070,0.999998,-0.001838,-0.000204,-0.000248,0.606087,0.686455,0.159282,-0.368873,89.453394,44.387488,-18.644128
36413,-6.700252,7.056407,-0.708392,0.388498,0.700413,-0.089184,-0.324695,-0.026371,-0.045997,-0.066985,0.070568,-0.007207,0.999999,-0.001623,-0.000132,-0.000230,0.607158,0.685389,0.159908,-0.368824,89.250582,44.407272,-18.668702
36414,-6.749222,7.093319,-0.849462,0.432143,0.857684,-0.031769,-0.246834,0.001142,-0.037665,-0.067479,0.070935,-0.008582,0.999999,-0.001234,0.000006,-0.000188,0.607956,0.684609,0.160443,-0.368725,89.106458,44.422998,-18.672573
36415,-6.717251,7.092317,-0.839622,0.455158,0.852681,-0.055989,-0.120387,0.021162,-0.034617,-0.067161,0.070930,-0.008432,1.000000,-0.000602,0.000106,-0.000173,0.608308,0.684258,0.160795,-0.368641,89.047417,44.436479,-18.659123
36416,-6.749905,7.181447,-0.786775,0.478273,0.791824,0.030974,0.043289,0.038515,-0.027654,-0.067491,0.071825,-0.007839,1.000000,0.000216,0.000193,-0.000138,0.608101,0.684437,0.160876,-0.368617,89.090577,44.446813,-18.632919
36417,-6.766961,7.280761,-0.526499,0.451246,0.516870,0.117451,0.172340,0.047440,-0.027185,-0.067661,0.072821,-0.005186,1.000000,0.000862,0.000237,-0.000136,0.607444,0.685031,0.160743,-0.368655,89.214198,44.456313,-18.598122
36418,-6.834335,7.425746,-0.247076,0.412305,0.216860,0.271647,0.264327,0.060493,-0.033695,-0.068332,0.074272,-0.002352,0.999999,0.001322,0.000302,-0.000168,0.606450,0.685915,0.160503,-0.368751,89.396376,44.470183,-18.554265
36419,-6.891019,7.408231,0.207188,0.216503,-0.221898,0.302391,0.270835,0.061900,-0.050750,-0.068891,0.074097,0.002194,0.999999,0.001354,0.000309,-0.000254,0.605398,0.686814,0.160315,-0.368889,89.584593,44.493191,-18.507764
36420,-6.943532,7.340639,0.247385,0.121510,-0.254911,0.290730,0.187798,0.061077,-0.072121,-0.069408,0.073429,0.002564,0.999999,0.000939,0.000305,-0.000361,0.604594,0.687435,0.160349,-0.369036,89.723255,44.528888,-18.463470
36421,-6.983895,7.293359,0.238365,0.067083,-0.244669,0.284853,0.146739,0.061888,-0.093453,-0.069804,0.072964,0.002459,1.000000,0.000734,0.000309,-0.000467,0.603888,0.687922,0.160535,-0.369203,89.840502,44.576106,-18.416949
36422,-7.084578,7.334167,0.388666,-0.015390,-0.386700,0.384495,0.050459,0.047120,-0.113254,-0.070803,0.073381,0.003922,1.000000,0.000252,0.000236,-0.000566,0.603491,0.688068,0.160922,-0.369412,89.892766,44.635235,-18.383707
36423,-7.114231,7.347314,0.337608,0.000297,-0.337173,0.414511,-0.123175,0.010479,-0.126151,-0.071096,0.073520,0.003335,1.000000,-0.000616,0.000052,-0.000631,0.603694,0.687619,0.161562,-0.369637,89.826235,44.700978,-18.378741
36424,-6.976739,7.151647,0.214722,0.017246,-0.198055,0.178682,-0.286577,-0.007142,-0.133266,-0.069720,0.071566,0.002042,0.999999,-0.001433,-0.000036,-0.000666,0.604461,0.686630,0.162476,-0.369820,89.654513,44.771484,-18.389447
36425,-6.810903,6.959133,-0.003210,0.086154,0.031836,-0.075673,-0.346291,-0.009264,-0.123687,-0.068066,0.069633,-0.000156,0.999998,-0.001731,-0.000046,-0.000618,0.605449,0.685470,0.163460,-0.369924,89.448643,44.835755,-18.400794
36426,-6.697622,6.938948,0.024398,0.157713,0.004628,-0.169929,-0.327025,-0.012384,-0.110135,-0.066938,0.069427,0.000126,0.999999,-0.001635,-0.000062,-0.000551,0.606398,0.684364,0.164353,-0.370020,89.250395,44.892920,-18.416226
36427,-6.580575,6.852535,0.076793,0.176477,-0.035378,-0.313494,-0.265345,-0.010771,-0.082475,-0.065778,0.068553,0.000673,0.999999,-0.001327,-0.000054,-0.000412,0.607184,0.683476,0.165040,-0.370069,89.089821,44.933468,-18.429076
36428,-6.649679,6.811835,0.162022,0.087295,-0.078179,-0.292613,-0.209166,-0.001982,-0.056306,-0.066478,0.068139,0.001548,0.999999,-0.001046,-0.000010,-0.000282,0.607819,0.682788,0.165562,-0.370062,88.965220,44.959835,-18.435825
36429,-6.675100,6.814452,0.106093,0.096919,-0.007736,-0.273530,-0.193715,0.004183,-0.043995,-0.066736,0.068160,0.000996,1.000000,-0.000969,0.000021,-0.000220,0.608416,0.682175,0.166031,-0.370000,88.854505,44.978525,-18.436101
36430,-6.701202,6.743792,0.015508,0.065061,0.108889,-0.306427,-0.161051,0.026494,-0.032047,-0.067001,0.067449,0.000110,1.000000,-0.000805,0.000132,-0.000160,0.608908,0.681706,0.166467,-0.369862,88.773958,44.991315,-18.419523
36431,-6.752546,6.644369,0.046845,-0.042309,0.117631,-0.340038,-0.127357,0.034118,-0.023658,-0.067518,0.066452,0.000438,1.000000,-0.000637,0.000171,-0.000118,0.609290,0.681367,0.166835,-0.369690,88.718835,44.998725,-18.395088
36432,-6.876318,6.638804,0.030982,-0.121673,0.167159,-0.256764,-0.117286,0.033228,-0.013951,-0.068759,0.066393,0.000282,1.000000,-0.000586,0.000166,-0.000070,0.609659,0.681057,0.167149,-0.369509,88.667438,45.001262,-18.372755
36433,-6.850587,6.625687,-0.084911,-0.076665,0.279546,-0.286227,-0.101592,0.030100,-0.017046,-0.068500,0.066262,-0.000872,1.000000,-0.000508,0.000150,-0.000085,0.609970,0.680795,0.167434,-0.369353,88.624779,45.004829,-18.351518
36434,-6.837305,6.764030,-0.107365,0.034259,0.273388,-0.198299,-0.053478,0.035655,-0.014295,-0.068368,0.067645,-0.001080,1.000000,-0.000267,0.000178,-0.000071,0.610119,0.680684,0.167639,-0.369218,88.611326,45.007618,-18.327227
36435,-6.867689,6.943385,-0.004734,0.104738,0.145488,-0.048281,0.012509,0.039743,-0.009305,-0.068674,0.069437,-0.000029,1.000000,0.000063,0.000199,-0.000047,0.610047,0.680792,0.167717,-0.369101,88.639501,45.006980,-18.298111
36436,-6.861402,7.155477,0.129282,0.211602,-0.029767,0.099464,0.032581,0.038265,-0.006243,-0.068612,0.071557,0.001318,1.000000,0.000163,0.000191,-0.000031,0.609916,0.680955,0.167744,-0.369005,88.676962,45.005179,-18.271550
36437,-6.909885,7.347950,0.217681,0.281605,-0.146456,0.271236,0.029280,0.045257,-0.010699,-0.069094,0.073483,0.002203,1.000000,0.000146,0.000226,-0.000053,0.609780,0.681124,0.167813,-0.368887,88.718009,45.005379,-18.237898
36438,-6.928559,7.476018,0.231369,0.351285,-0.184762,0.375137,-0.004761,0.048655,-0.019412,-0.069278,0.074767,0.002329,1.000000,-0.000024,0.000243,-0.000097,0.609743,0.681181,0.167984,-0.368765,88.739860,45.011231,-18.203159
36439,-7.014262,7.492079,0.283368,0.290778,-0.220544,0.447830,-0.055281,0.058895,-0.041394,-0.070126,0.074936,0.002834,1.000000,-0.000276,0.000294,-0.000207,0.609827,0.681091,0.168355,-0.368623,88.739770,45.029121,-18.159151
36440,-7.033310,7.332902,0.292840,0.172095,-0.192107,0.348913,-0.123068,0.056065,-0.057943,-0.070311,0.073351,0.002903,1.000000,-0.000615,0.000280,-0.000290,0.610115,0.680768,0.168898,-0.368493,88.697622,45.057142,-18.119083
36441,-7.002177,7.186276,0.293676,0.100945,-0.163790,0.223360,-0.205467,0.036655,-0.064560,-0.069998,0.071888,0.002876,0.999999,-0.001027,0.000183,-0.000323,0.610686,0.680159,0.169557,-0.368371,88.598387,45.088122,-18.093439
36442,-6.781265,7.028619,0.009174,0.235337,0.103692,-0.049442,-0.269475,0.018292,-0.062527,-0.067791,0.070307,0.000003,0.999999,-0.001347,0.000091,-0.000313,0.611495,0.679314,0.170270,-0.368259,88.450536,45.118307,-18.084212
36443,-6.790806,7.044960,-0.054887,0.268580,0.179749,-0.032858,-0.270685,0.015659,-0.057749,-0.067888,0.070468,-0.000639,0.999999,-0.001353,0.000078,-0.000289,0.612316,0.678470,0.170961,-0.368130,88.301942,45.145085,-18.075608
36444,-6.759484,7.057531,-0.020368,0.297889,0.153844,-0.046043,-0.274597,0.016484,-0.057501,-0.067575,0.070594,-0.000295,0.999999,-0.001373,0.000082,-0.000288,0.613150,0.677609,0.171661,-0.368003,88.150060,45.172395,-18.067936
36445,-6.855821,7.068711,0.181280,0.191708,-0.004966,0.034394,-0.267278,0.046763,-0.044799,-0.068542,0.070705,0.001734,0.999999,-0.001336,0.000234,-0.000224,0.613954,0.676841,0.172395,-0.367731,88.021397,45.192299,-18.034112
36446,-6.870775,6.957158,0.258086,0.091434,-0.039421,-0.031774,-0.275856,0.031997,-0.036867,-0.068695,0.069588,0.002496,0.999999,-0.001379,0.000160,-0.000184,0.614815,0.676020,0.173073,-0.367486,87.878040,45.208136,-18.013415
36447,-6.676648,6.768931,0.039673,0.161469,0.178832,-0.307976,-0.297867,0.027784,-0.021550,-0.066759,0.067697,0.000305,0.999999,-0.001489,0.000139,-0.000108,0.615780,0.675140,0.173727,-0.367178,87.721349,45.214502,-17.994255
36448,-6.770758,6.669951,-0.081203,0.069431,0.348545,-0.314704,-0.238567,0.039706,-0.007756,-0.067705,0.066701,-0.000878,0.999999,-0.001193,0.000199,-0.000039,0.616559,0.674470,0.174262,-0.366848,87.604415,45.213927,-17.966435
36449,-6.838758,6.699425,-0.027929,0.032534,0.318384,-0.244550,-0.199653,0.045861,-0.016990,-0.068382,0.067000,-0.000330,0.999999,-0.000998,0.000229,-0.000085,0.617182,0.673929,0.174774,-0.366550,87.514595,45.218051,-17.932591
36450,-6.823584,6.769597,-0.015808,0.090761,0.299545,-0.205866,-0.170326,0.064655,-0.017651,-0.068230,0.067702,-0.000194,1.000000,-0.000852,0.000323,-0.000088,0.617691,0.673505,0.175293,-0.366225,87.450908,45.223829,-17.884845
36451,-6.887939,6.876199,0.125581,0.084333,0.164661,-0.080917,-0.134109,0.064876,-0.019190,-0.068872,0.068769,0.001232,1.000000,-0.000671,0.000324,-0.000096,0.618072,0.673198,0.175753,-0.365927,87.409480,45.229876,-17.835508
36452,-6.832836,6.882098,0.216636,0.103023,0.068798,-0.113074,-0.130987,0.062811,-0.025319,-0.068319,0.068831,0.002143,1.000000,-0.000655,0.000314,-0.000127,0.618435,0.672884,0.176220,-0.365666,87.367073,45.240050,-17.789546
36453,-6.810704,6.802585,0.317290,0.038853,-0.013329,-0.181497,-0.162419,0.051383,-0.025854,-0.068097,0.068037,0.003135,1.000000,-0.000812,0.000257,-0.000129,0.618910,0.672459,0.176710,-0.365408,87.301579,45.249484,-17.751511
36454,-6.846357,6.757268,0.331115,-0.015363,-0.002943,-0.187582,-0.184086,0.033447,-0.032114,-0.068452,0.067587,0.003260,1.000000,-0.000920,0.000167,-0.000161,0.619464,0.671921,0.177206,-0.365219,87.211606,45.262817,-17.729703
36455,-6.836963,6.747807,0.251319,0.012210,0.082811,-0.203676,-0.190388,0.028728,-0.051959,-0.068352,0.067498,0.002459,1.000000,-0.000952,0.000144,-0.000260,0.620004,0.671343,0.177766,-0.365093,87.116238,45.286706,-17.711050
36456,-6.917662,6.840477,0.467761,-0.028835,-0.116219,-0.073559,-0.126606,0.026300,-0.063491,-0.069154,0.068430,0.004643,1.000000,-0.000633,0.000131,-0.000317,0.620313,0.670941,0.178240,-0.365076,87.054126,45.317831,-17.696395
36457,-6.733898,6.779509,0.420815,0.072666,-0.092241,-0.248671,-0.163704,-0.015502,-0.065087,-0.067317,0.067820,0.004147,1.000000,-0.000819,-0.000078,-0.000325,0.620779,0.670351,0.178657,-0.365163,86.947673,45.348013,-17.714673
36458,-6.582846,6.786247,0.105003,0.270592,0.190587,-0.363429,-0.190338,-0.026487,-0.034258,-0.065817,0.067875,0.000977,1.000000,-0.000952,-0.000132,-0.000171,0.621402,0.669680,0.178986,-0.365175,86.819300,45.360805,-17.741840
36459,-6.766229,6.842228,-0.016346,0.223850,0.349395,-0.198842,-0.130274,-0.020778,-0.017891,-0.067656,0.068428,-0.000215,1.000000,-0.000651,-0.000104,-0.000089,0.621846,0.669226,0.179168,-0.365162,86.730486,45.363778,-17.762213
36460,-6.939117,7.055155,0.107851,0.226986,0.240199,0.078165,-0.087269,-0.004090,-0.038572,-0.069378,0.070565,0.001046,1.000000,-0.000436,-0.000020,-0.000193,0.622094,0.668911,0.179393,-0.365205,86.673949,45.379714,-17.771411
36461,-7.105666,7.193270,0.663896,0.070333,-0.277424,0.316106,-0.067739,-0.008307,-0.079219,-0.071028,0.071963,0.006612,1.000000,-0.000339,-0.000042,-0.000396,0.622206,0.668620,0.179704,-0.365396,86.626243,45.418072,-17.784523
36462,-7.039783,7.277895,0.787527,0.154039,-0.413706,0.333817,-0.232123,-0.062974,-0.133498,-0.070352,0.072835,0.007769,0.999999,-0.001161,-0.000315,-0.000667,0.622817,0.667661,0.180327,-0.365800,86.449097,45.486243,-17.846488
36463,-7.009199,7.023471,0.537159,0.086351,-0.115930,0.123384,-0.380849,-0.102117,-0.194870,-0.070026,0.070313,0.005202,0.999998,-0.001904,-0.000511,-0.000974,0.623845,0.666117,0.181304,-0.366381,86.162653,45.587205,-17.942644
36464,-7.076466,6.744268,0.751981,-0.177601,-0.234474,-0.012673,-0.442900,-0.155819,-0.267685,-0.070680,0.067554,0.007315,0.999996,-0.002214,-0.000779,-0.001338,0.624992,0.664204,0.182469,-0.367319,85.803942,45.727919,-18.089405
36465,-6.861653,6.096340,1.186642,-0.563235,-0.563950,-0.592049,-0.600310,-0.213492,-0.300998,-0.068537,0.061102,0.011610,0.999994,-0.003002,-0.001067,-0.001505,0.626646,0.661663,0.183849,-0.368397,85.319393,45.883559,-18.286206
36466,-6.444353,4.991169,0.361431,-0.816790,0.346651,-1.701922,-0.665737,-0.264010,-0.251703,-0.064385,0.050004,0.003363,0.999993,-0.003329,-0.001320,-0.001259,0.628647,0.658853,0.185029,-0.369431,84.766558,46.008092,-18.524707
36467,-6.341567,4.264247,-1.458199,-0.775240,2.215725,-2.395471,-0.296054,-0.221933,-0.201335,-0.063356,0.042685,-0.014715,0.999998,-0.001480,-0.001110,-0.001007,0.629477,0.657330,0.185490,-0.370498,84.453036,46.104293,-18.725073
36468,-6.582109,5.051567,-1.346881,-0.386505,2.054627,-1.671087,0.505619,-0.150697,-0.123062,-0.065780,0.050590,-0.013391,0.999996,0.002528,-0.000753,-0.000615,0.627748,0.658525,0.184432,-0.371835,84.643628,46.160185,-18.862555
36469,-7.151686,7.059957,0.879593,0.086898,-0.289554,0.270547,0.972653,-0.151959,-0.039771,-0.071510,0.070570,0.009085,0.999988,0.004863,-0.000760,-0.000199,0.624627,0.661256,0.182224,-0.373331,85.107090,46.168483,-18.993206
36470,-7.330871,8.114703,1.342229,0.574136,-0.908525,1.152547,0.726988,-0.072519,-0.049533,-0.073294,0.081116,0.013691,0.999993,0.003635,-0.000363,-0.000248,0.622216,0.663341,0.180752,-0.374372,85.475243,46.187296,-19.060278
36471,-7.443922,8.430802,1.170514,0.757318,-0.817651,1.439789,0.566802,-0.004729,-0.108300,-0.074394,0.084315,0.011942,0.999996,0.002834,-0.000024,-0.000541,0.620158,0.664999,0.179984,-0.375215,85.790618,46.242366,-19.073739
36472,-7.266248,8.550109,1.183120,0.953930,-0.927529,1.391424,0.273714,0.032301,-0.158904,-0.072593,0.085542,0.011960,0.999999,0.001369,0.000162,-0.000795,0.618944,0.665763,0.180048,-0.375833,85.957020,46.328474,-19.060507
36473,-7.098269,8.248328,1.117907,0.879562,-0.867871,1.056683,-0.037525,0.032980,-0.145600,-0.070921,0.082537,0.011175,1.000000,-0.000188,0.000165,-0.000728,0.618787,0.665584,0.180654,-0.376117,85.948044,46.406330,-19.044006
36474,-6.951083,7.587522,1.020264,0.552409,-0.689904,0.490119,-0.264823,0.021231,-0.117807,-0.069465,0.075930,0.010109,0.999999,-0.001324,0.000106,-0.000589,0.619451,0.664697,0.181558,-0.376159,85.801068,46.468496,-19.037457
36475,-7.027162,6.694801,0.752664,-0.038886,-0.249268,-0.081081,-0.340666,-0.018121,-0.077260,-0.070246,0.066988,0.007406,0.999998,-0.001703,-0.000091,-0.000386,0.620476,0.663541,0.182350,-0.376127,85.590049,46.505366,-19.059647
36476,-7.242640,6.498799,0.120204,-0.132185,0.458735,-0.092774,-0.274283,-0.040453,-0.072619,-0.072403,0.065016,0.001098,0.999999,-0.001371,-0.000202,-0.000363,0.621310,0.662546,0.182930,-0.376223,85.402222,46.538974,-19.101935
36477,-7.355913,6.997405,0.142350,0.151812,0.394845,0.331988,-0.046177,-0.058385,-0.068659,-0.073536,0.070000,0.001386,1.000000,-0.000231,-0.000292,-0.000343,0.621410,0.662235,0.183012,-0.376565,85.335946,46.568756,-19.157372
36478,-7.266153,7.397966,0.760306,0.334275,-0.277545,0.575584,0.010524,-0.109520,-0.062314,-0.072643,0.074002,0.007567,1.000000,0.000053,-0.000548,-0.000312,0.621382,0.662004,0.182807,-0.377117,85.269950,46.593141,-19.256548
36479,-7.083195,7.370698,0.689699,0.459230,-0.237003,0.419978,-0.084359,-0.119184,-0.037424,-0.070822,0.073723,0.006824,1.000000,-0.000422,-0.000596,-0.000187,0.621722,0.661488,0.182667,-0.377529,85.146375,46.601936,-19.360834
36480,-7.058583,6.995169,0.596530,0.241097,-0.076448,0.139590,-0.184145,-0.106793,-0.036816,-0.070576,0.069970,0.005863,0.999999,-0.000921,-0.000534,-0.000184,0.622383,0.660679,0.182753,-0.377815,84.971647,46.611610,-19.456111
36481,-6.887884,6.544836,0.560472,0.049768,0.010738,-0.294845,-0.234293,-0.108316,-0.040201,-0.068869,0.065469,0.005491,0.999999,-0.001171,-0.000542,-0.000201,0.623202,0.659714,0.182937,-0.378062,84.768453,46.622038,-19.551702
36482,-6.792772,6.203130,0.502883,-0.107901,0.117997,-0.601397,-0.227372,-0.091577,-0.029655,-0.067921,0.062047,0.004927,0.999999,-0.001137,-0.000458,-0.000148,0.624004,0.658803,0.183129,-0.378235,84.578436,46.627995,-19.633909
36483,-6.722839,5.987002,0.406483,-0.184524,0.245000,-0.806473,-0.195041,-0.060406,-0.014568,-0.067225,0.059879,0.003986,0.999999,-0.000975,-0.000302,-0.000073,0.624697,0.658072,0.183306,-0.378278,84.428156,46.626249,-19.687441
36484,-6.748413,5.950659,0.292028,-0.192817,0.378367,-0.820672,-0.104923,-0.030992,-0.001368,-0.067484,0.059509,0.002879,1.000000,-0.000525,-0.000155,-0.000007,0.625092,0.657683,0.183361,-0.378274,84.346510,46.619189,-19.717078
36485,-6.870984,6.103327,0.368581,-0.184021,0.315289,-0.622279,0.008089,-0.021124,0.019494,-0.068716,0.061026,0.003681,1.000000,0.000040,-0.000106,0.000097,0.625145,0.657691,0.183166,-0.378268,84.338189,46.600275,-19.735256
36486,-6.931871,6.270003,0.334665,-0.098642,0.337423,-0.466448,0.064700,-0.025567,0.029909,-0.069329,0.062689,0.003358,1.000000,0.000324,-0.000128,0.000150,0.625036,0.657871,0.182815,-0.378304,84.358895,46.575674,-19.757798
36487,-7.008761,6.495140,0.343496,0.004166,0.307912,-0.255871,0.156595,0.001436,0.029800,-0.070097,0.064938,0.003486,1.000000,0.000783,0.000007,0.000149,0.624598,0.658396,0.182374,-0.378327,84.450116,46.552002,-19.756376
36488,-7.004020,6.805300,0.556391,0.163328,0.045116,-0.032643,0.181817,0.011213,0.032051,-0.070051,0.068037,0.005630,1.000000,0.000909,0.000056,0.000160,0.624074,0.659013,0.181909,-0.378342,84.560142,46.528240,-19.748329
36489,-6.993838,6.933665,0.507820,0.267493,0.059885,0.044910,0.114153,0.024467,0.018080,-0.069944,0.069327,0.005126,1.000000,0.000571,0.000122,0.000090,0.623733,0.659437,0.181656,-0.378287,84.639895,46.512342,-19.729259
36490,-7.096524,7.049651,0.349680,0.321628,0.209266,0.188976,0.107672,0.028839,0.006406,-0.070967,0.070492,0.003545,1.000000,0.000538,0.000144,0.000032,0.623388,0.659832,0.181470,-0.378257,84.716520,46.504131,-19.708691
36491,-7.260478,7.263815,0.831167,0.233302,-0.257221,0.485264,0.102176,0.025167,-0.026583,-0.072594,0.072644,0.008358,1.000000,0.000511,0.000126,-0.000133,0.623001,0.660179,0.181390,-0.378328,84.787261,46.513799,-19.692507
36492,-7.252891,7.257194,0.736104,0.261119,-0.171348,0.469122,-0.031500,0.026024,-0.051043,-0.072509,0.072592,0.007359,1.000000,-0.000157,0.000130,-0.000255,0.623009,0.660082,0.181648,-0.378359,84.779289,46.538195,-19.678638
36493,-7.169427,6.925222,0.310378,0.199934,0.272511,0.154332,-0.089144,0.006145,-0.042936,-0.071679,0.069269,0.003075,1.000000,-0.000446,0.000031,-0.000215,0.623240,0.659781,0.181925,-0.378371,84.727926,46.556232,-19.679550
36494,-7.192918,6.802063,0.192216,0.133244,0.414098,0.079423,-0.023759,-0.007214,-0.033581,-0.071918,0.068033,0.001911,1.000000,-0.000119,-0.000036,-0.000168,0.623285,0.659662,0.182007,-0.378464,84.705319,46.568922,-19.691953
36495,-7.172126,6.965393,0.371455,0.216049,0.210956,0.187458,0.057836,-0.017036,-0.032038,-0.071710,0.069664,0.003729,1.000000,0.000289,-0.000085,-0.000160,0.623072,0.659786,0.181896,-0.378652,84.724978,46.579358,-19.711271
36496,-7.124019,7.122881,0.675233,0.277274,-0.120739,0.279466,0.097976,-0.021467,-0.036361,-0.071228,0.071238,0.006780,1.000000,0.000490,-0.000107,-0.000182,0.622724,0.660016,0.181713,-0.378911,84.763369,46.592890,-19.735715
36497,-7.043653,7.283281,0.727279,0.430579,-0.217946,0.334000,0.031889,-0.027939,-0.040118,-0.070423,0.072846,0.007275,1.000000,0.000159,-0.000140,-0.000201,0.622591,0.660032,0.181646,-0.379135,84.761308,46.607521,-19.764298
36498,-7.006211,7.227849,0.770309,0.407517,-0.256683,0.271468,-0.057623,-0.033063,-0.045213,-0.070047,0.072297,0.007671,1.000000,-0.000288,-0.000165,-0.000226,0.622750,0.659747,0.181751,-0.379319,84.703033,46.625489,-19.799071
36499,-6.992740,6.990418,0.621322,0.294488,-0.070925,0.089768,-0.147014,-0.033681,-0.051894,-0.069910,0.069927,0.006150,1.000000,-0.000735,-0.000168,-0.000259,0.623190,0.659183,0.182044,-0.379437,84.594056,46.646529,-19.833656
36500,-6.967284,6.644610,0.560189,0.089054,0.047550,-0.169167,-0.164413,-0.028692,-0.050586,-0.069657,0.066468,0.005537,1.000000,-0.000822,-0.000143,-0.000253,0.623686,0.658569,0.182382,-0.379526,84.476825,46.667719,-19.865338
36501,-6.908608,6.405674,0.320094,0.029061,0.312734,-0.391152,-0.154055,-0.032504,-0.046154,-0.069072,0.064075,0.003140,1.000000,-0.000770,-0.000163,-0.000231,0.624159,0.657988,0.182672,-0.379615,84.364609,46.685411,-19.898783
36502,-6.944823,6.090954,0.359273,-0.223705,0.342090,-0.577305,-0.102396,-0.049219,-0.035801,-0.069438,0.060924,0.003544,1.000000,-0.000512,-0.000246,-0.000179,0.624497,0.657541,0.182780,-0.379782,84.271272,46.696924,-19.946442
36503,-6.985987,5.956303,0.003565,-0.245868,0.718254,-0.663631,0.022911,-0.028032,-0.047365,-0.069846,0.059580,0.000033,1.000000,0.000115,-0.000140,-0.000237,0.624380,0.657522,0.182752,-0.380021,84.263372,46.715459,-19.976045
36504,-7.111672,6.309528,0.220302,-0.130996,0.480005,-0.316004,0.191696,-0.021207,-0.052972,-0.071100,0.063112,0.002256,0.999999,0.000958,-0.000106,-0.000265,0.623692,0.658031,0.182445,-0.380417,84.354420,46.738348,-20.001863
36505,-7.025803,6.795171,0.566164,0.176695,0.039873,-0.023715,0.225098,-0.015199,-0.050938,-0.070241,0.067963,0.005733,0.999999,0.001125,-0.000076,-0.000255,0.622891,0.658662,0.182086,-0.380809,84.469948,46.759789,-20.020936
36506,-7.007967,7.118642,0.822421,0.347819,-0.275879,0.200601,0.215619,0.000103,-0.055837,-0.070060,0.071197,0.008301,0.999999,0.001078,0.000001,-0.000279,0.622099,0.659281,0.181808,-0.381165,84.587531,46.785544,-20.029129
36507,-6.959647,7.192575,0.872421,0.418600,-0.359201,0.218598,0.111214,0.001344,-0.069299,-0.069571,0.071945,0.008765,1.000000,0.000556,0.000007,-0.000346,0.621622,0.659572,0.181777,-0.381456,84.646732,46.818408,-20.035911
36508,-6.956838,7.035294,0.646337,0.375369,-0.122866,0.094619,0.004260,-0.006578,-0.076599,-0.069542,0.070379,0.006463,1.000000,0.000021,-0.000033,-0.000383,0.621492,0.659502,0.181951,-0.381706,84.638008,46.855660,-20.051235
36509,-6.959349,6.647517,0.639924,0.105549,-0.053444,-0.168128,-0.048617,-0.004722,-0.084243,-0.069566,0.066506,0.006381,1.000000,-0.000243,-0.000024,-0.000421,0.621519,0.659270,0.182253,-0.381918,84.600950,46.896560,-20.064487
36510,-7.069018,6.017936,0.207092,-0.286561,0.490920,-0.544121,-0.062389,-0.015851,-0.094402,-0.070662,0.060213,0.002047,1.000000,-0.000312,-0.000079,-0.000472,0.621583,0.658958,0.182583,-0.382193,84.547271,46.943452,-20.089055
36511,-7.156288,5.615375,-0.226562,-0.502888,0.988128,-0.781247,0.162269,-0.012669,-0.110124,-0.071532,0.056195,-0.002225,1.000000,0.000811,-0.000063,-0.000551,0.620873,0.659342,0.182546,-0.382703,84.624769,46.998859,-20.110698
36512,-7.211701,5.854173,0.188026,-0.478450,0.548210,-0.550624,0.413199,-0.022430,-0.103645,-0.072087,0.058575,0.001993,0.999998,0.002066,-0.000112,-0.000518,0.619356,0.660485,0.181976,-0.383462,84.839104,47.050724,-20.141345
36513,-7.163244,6.297138,0.518780,-0.224379,0.117980,-0.264348,0.542805,-0.020819,-0.101398,-0.071601,0.062993,0.005351,0.999996,0.002714,-0.000104,-0.000507,0.617408,0.662037,0.181153,-0.384315,85.130587,47.100750,-20.168721
36514,-7.126805,6.897389,0.809933,0.140291,-0.307446,0.132512,0.551406,-0.004472,-0.094198,-0.071236,0.068985,0.008288,0.999996,0.002757,-0.000022,-0.000471,0.615428,0.663641,0.180339,-0.385106,85.436093,47.148265,-20.182964
36515,-7.053855,7.356359,1.026365,0.446700,-0.646946,0.400449,0.397336,0.019164,-0.091587,-0.070504,0.073575,0.010417,0.999998,0.001987,0.000096,-0.000458,0.613937,0.664822,0.179885,-0.385660,85.669858,47.194737,-20.175326
36516,-7.059536,7.577805,0.971775,0.615034,-0.661029,0.550191,0.262024,0.049728,-0.094515,-0.070557,0.075799,0.009835,0.999999,0.001310,0.000249,-0.000473,0.612863,0.665635,0.179796,-0.386008,85.843402,47.244810,-20.143439
36517,-7.094421,7.591275,0.843299,0.641727,-0.552686,0.577314,0.132397,0.058404,-0.091824,-0.070907,0.075940,0.008504,1.000000,0.000662,0.000292,-0.000459,0.612216,0.666075,0.179973,-0.386193,85.949669,47.293036,-20.102541
36518,-7.167080,7.419165,0.751660,0.504276,-0.427759,0.509074,0.026550,0.051756,-0.081609,-0.071639,0.074220,0.007545,1.000000,0.000133,0.000259,-0.000408,0.611948,0.666181,0.180301,-0.386282,85.990397,47.335733,-20.067846
