// General information: 
//  MT Manager version: 2022.0.0 
//  XDA version: 2022.0.0 build 7085 rev 119802 built on 2022-11-08
// Device information: 
//  DeviceId: 00B4737C
//  ProductCode: MTW2-3A7G6
//  Firmware Version: 4.14.0
//  Hardware Version: 2.0.0
// Device settings: 
//  Filter Profile: human(46.1)
//  Option Flags: Orientation Smoother Disabled, Position/Velocity Smoother Disabled, Continuous Zero Rotation Update Disabled, AHS Disabled, ICC Disabled
// Coordinate system: ENU
PacketCounter,Acc_X,Acc_Y,Acc_Z,FreeAcc_E,FreeAcc_N,FreeAcc_U,Gyr_X,Gyr_Y,Gyr_Z,VelInc_X,VelInc_Y,VelInc_Z,OriInc_q0,OriInc_q1,OriInc_q2,OriInc_q3,Quat_q0,Quat_q1,Quat_q2,Quat_q3,Roll,Pitch,Yaw
46943,2.512058,1.667922,9.419732,-0.098129,0.102098,0.076887,-0.004844,-0.067155,-0.151823,0.025102,0.016662,0.094205,1.000000,-0.000024,-0.000336,-0.000759,-0.707467,0.028706,0.158828,0.688069,10.632579,-15.321469,-89.841472
46944,2.515762,1.716806,9.378549,-0.045825,0.094393,0.047467,0.008734,-0.060710,-0.153572,0.025142,0.017145,0.093794,1.000000,0.000044,-0.000304,-0.000768,-0.706918,0.028807,0.159081,0.688571,10.657645,-15.342331,-89.933118
46945,2.526942,1.976161,9.453262,0.190160,0.120381,0.167500,0.040740,-0.070160,-0.108208,0.025247,0.019729,0.094545,1.000000,0.000204,-0.000351,-0.000541,-0.706521,0.028861,0.159470,0.688886,10.694414,-15.373022,-89.999424
46946,2.722408,2.228040,9.263394,0.467783,-0.100201,0.084649,0.040785,-0.051285,-0.035367,0.027204,0.022257,0.092645,1.000000,0.000204,-0.000256,-0.000177,-0.706390,0.028911,0.159783,0.688946,10.719352,-15.401065,-90.021056
46947,2.859391,2.213058,9.121680,0.477257,-0.267039,-0.015764,0.018685,-0.000287,0.029944,0.028590,0.022126,0.091219,1.000000,0.000093,-0.000001,0.000150,-0.706521,0.028913,0.159829,0.688801,10.720076,-15.407095,-89.999003
46948,2.700190,2.027927,9.198112,0.282049,-0.103727,-0.018890,0.017492,0.057783,0.085864,0.027020,0.020283,0.091975,1.000000,0.000087,0.000289,0.000429,-0.706892,0.028765,0.159659,0.688466,10.709678,-15.386647,-89.937799
46949,2.523886,1.924256,9.353859,0.153274,0.097277,0.063267,0.016213,0.085313,0.119193,0.025267,0.019250,0.093529,1.000000,0.000081,0.000427,0.000596,-0.707398,0.028553,0.159381,0.688019,10.692694,-15.353980,-89.854185
46950,2.464414,1.783705,9.424169,0.004945,0.160161,0.089041,0.007835,0.084090,0.113422,0.024674,0.017847,0.094232,1.000000,0.000039,0.000420,0.000567,-0.707882,0.028371,0.159081,0.687598,10.671810,-15.321613,-89.774024
46951,2.419870,1.632958,9.408380,-0.136873,0.185411,0.035502,-0.007759,0.076802,0.074713,0.024229,0.016342,0.094074,1.000000,-0.000039,0.000384,0.000374,-0.708224,0.028237,0.158757,0.687326,10.648300,-15.288963,-89.717363
46952,2.361106,1.585648,9.433745,-0.185151,0.240202,0.035798,-0.007817,0.073307,0.028018,0.023643,0.015863,0.094328,1.000000,-0.000039,0.000367,0.000140,-0.708404,0.028080,0.158453,0.687218,10.631992,-15.253576,-89.688287
46953,2.426613,1.614612,9.500021,-0.166549,0.190375,0.121186,-0.008647,0.046638,-0.013104,0.024289,0.016149,0.094994,1.000000,-0.000043,0.000233,-0.000066,-0.708420,0.027983,0.158245,0.687253,10.622382,-15.228596,-89.686225
46954,2.492326,1.681988,9.457641,-0.091084,0.115743,0.110318,-0.004748,0.034391,-0.044327,0.024943,0.016817,0.094572,1.000000,-0.000024,0.000172,-0.000222,-0.708320,0.027891,0.158100,0.687393,10.620065,-15.207475,-89.703649
46955,2.543455,1.739914,9.537921,-0.049185,0.086927,0.210208,0.003148,0.018546,-0.074162,0.025450,0.017388,0.095377,1.000000,0.000016,0.000093,-0.000371,-0.708106,0.027800,0.158041,0.687631,10.627359,-15.191861,-89.740297
46956,2.578690,1.887356,9.521657,0.097160,0.054373,0.230286,0.014307,0.007694,-0.071901,0.025797,0.018857,0.095217,1.000000,0.000072,0.000038,-0.000360,-0.707893,0.027711,0.158059,0.687849,10.640930,-15.182854,-89.776727
46957,2.716588,1.959713,9.511226,0.168794,-0.078946,0.269426,0.005356,-0.000287,-0.072985,0.027173,0.019585,0.095113,1.000000,0.000027,-0.000001,-0.000365,-0.707668,0.027679,0.158074,0.688079,10.649836,-15.177954,-89.814745
46958,2.662575,1.916774,9.534500,0.120533,-0.024143,0.269719,0.004389,0.001686,-0.080941,0.026634,0.019155,0.095345,1.000000,0.000022,0.000008,-0.000405,-0.707418,0.027638,0.158080,0.688336,10.659268,-15.171361,-89.857103
46959,2.541322,1.948415,9.550910,0.146384,0.097846,0.259230,0.009548,-0.008078,-0.084618,0.025418,0.019469,0.095511,1.000000,0.000048,-0.000040,-0.000423,-0.707147,0.027608,0.158139,0.688602,10.672572,-15.169603,-89.902758
46960,2.540749,1.927388,9.552926,0.122957,0.098293,0.257260,0.012467,-0.024776,-0.087514,0.025404,0.019257,0.095534,1.000000,0.000062,-0.000124,-0.000438,-0.706854,0.027625,0.158268,0.688873,10.688397,-15.177192,-89.951859
46961,2.591985,1.876065,9.504676,0.078399,0.035838,0.215745,0.020440,-0.040568,-0.092417,0.025909,0.018739,0.095054,1.000000,0.000102,-0.000203,-0.000462,-0.706532,0.027663,0.158480,0.689153,10.710086,-15.192868,-90.005646
46962,2.663512,1.948075,9.459742,0.153908,-0.038749,0.204838,0.019182,-0.037051,-0.092884,0.026627,0.019459,0.094604,1.000000,0.000096,-0.000185,-0.000464,-0.706211,0.027694,0.158676,0.689435,10.730960,-15.206761,-90.059246
46963,2.630834,1.887503,9.535710,0.076955,0.011672,0.257450,0.011467,-0.037474,-0.105465,0.026300,0.018856,0.095363,1.000000,0.000057,-0.000187,-0.000527,-0.705845,0.027742,0.158847,0.689769,10.749449,-15.219265,-90.120320
46964,2.546775,1.826100,9.595366,0.002190,0.108215,0.280877,0.021158,-0.050497,-0.101073,0.025453,0.018238,0.095962,1.000000,0.000106,-0.000252,-0.000505,-0.705485,0.027806,0.159099,0.690076,10.773133,-15.239815,-90.180207
46965,2.705746,1.895922,9.530829,0.077681,-0.054340,0.274101,0.035233,-0.064718,-0.094595,0.027036,0.018930,0.095320,1.000000,0.000176,-0.000324,-0.000473,-0.705138,0.027872,0.159447,0.690348,10.804416,-15.268767,-90.237991
46966,2.898853,1.917801,9.470420,0.103987,-0.250518,0.271785,0.042669,-0.057615,-0.088691,0.028970,0.019145,0.094717,1.000000,0.000213,-0.000288,-0.000443,-0.704818,0.027895,0.159796,0.690593,10.838793,-15.294594,-90.291485
46967,2.815958,1.996375,9.444795,0.180611,-0.170201,0.240058,0.042554,-0.037029,-0.076643,0.028150,0.019933,0.094457,1.000000,0.000213,-0.000185,-0.000383,-0.704555,0.027854,0.160069,0.690799,10.870750,-15.309842,-90.335744
46968,2.765652,2.024813,9.424428,0.208024,-0.123515,0.212780,0.028457,-0.026683,-0.066347,0.027651,0.020226,0.094251,1.000000,0.000142,-0.000133,-0.000332,-0.704335,0.027838,0.160257,0.690981,10.892665,-15.320627,-90.372772
46969,2.747963,1.954553,9.414642,0.137527,-0.110743,0.186107,0.024943,-0.015469,-0.056089,0.027478,0.019526,0.094151,1.000000,0.000125,-0.000077,-0.000280,-0.704158,0.027802,0.160390,0.691132,10.910749,-15.325942,-90.402632
46970,2.543458,1.948508,9.523730,0.109266,0.115750,0.234300,0.031796,-0.016432,-0.048238,0.025431,0.019464,0.095242,1.000000,0.000159,-0.000082,-0.000241,-0.704009,0.027753,0.160551,0.691249,10.931490,-15.332901,-90.427952
46971,2.475523,1.998385,9.484212,0.162573,0.175052,0.188060,0.037860,-0.029905,-0.033138,0.024744,0.019962,0.094850,1.000000,0.000189,-0.000150,-0.000166,-0.703901,0.027739,0.160777,0.691306,10.953878,-15.348813,-90.446058
46972,2.646695,1.936127,9.347286,0.122861,-0.025559,0.092341,0.023358,-0.031889,-0.033940,0.026455,0.019346,0.093479,1.000000,0.000117,-0.000159,-0.000170,-0.703788,0.027785,0.160961,0.691377,10.968053,-15.366007,-90.464792
46973,2.630753,1.868708,9.371916,0.049664,-0.004457,0.099086,0.027020,-0.015437,-0.031978,0.026303,0.018670,0.093724,1.000000,0.000135,-0.000077,-0.000160,-0.703694,0.027760,0.161098,0.691441,10.983632,-15.373896,-90.480596
46974,2.459753,1.926374,9.403828,0.099188,0.172102,0.094574,0.027722,-0.003363,-0.025647,0.024598,0.019248,0.094041,1.000000,0.000139,-0.000017,-0.000128,-0.703633,0.027699,0.161196,0.691484,10.998176,-15.375942,-90.491272
46975,2.443985,1.958817,9.452452,0.120665,0.201962,0.142388,0.005057,-0.008620,-0.026073,0.024438,0.019583,0.094526,1.000000,0.000025,-0.000043,-0.000130,-0.703562,0.027732,0.161232,0.691546,11.000058,-15.380634,-90.502863
46976,2.306726,1.843249,9.503272,-0.000726,0.344320,0.132773,-0.011582,-0.023551,-0.028262,0.023059,0.018435,0.095034,1.000000,-0.000058,-0.000118,-0.000141,-0.703470,0.027877,0.161265,0.691626,10.993097,-15.393748,-90.517353
46977,2.324256,1.785158,9.421903,-0.042134,0.306903,0.049627,0.005390,-0.043728,-0.022983,0.023224,0.017846,0.094225,1.000000,0.000027,-0.000219,-0.000115,-0.703382,0.028033,0.161426,0.691672,10.995756,-15.418517,-90.531125
46978,2.549549,1.839749,9.252734,0.040408,0.052328,-0.040605,0.015252,-0.054945,-0.029419,0.025473,0.018387,0.092536,1.000000,0.000076,-0.000275,-0.000147,-0.703264,0.028191,0.161662,0.691730,11.005309,-15.449160,-90.549855
46979,2.619950,1.902321,9.138575,0.121251,-0.039005,-0.118344,0.017307,-0.028672,-0.020850,0.026188,0.019013,0.091391,1.000000,0.000087,-0.000143,-0.000104,-0.703197,0.028255,0.161811,0.691761,11.014023,-15.465686,-90.560685
46980,2.502400,1.935524,9.189258,0.144271,0.091395,-0.095612,0.016617,-0.016124,-0.006818,0.025017,0.019347,0.091896,1.000000,0.000083,-0.000081,-0.000034,-0.703189,0.028292,0.161912,0.691744,11.019678,-15.476966,-90.561829
46981,2.472011,1.997498,9.286835,0.186367,0.150685,-0.000007,0.018275,-0.006401,0.021099,0.024715,0.019969,0.092871,1.000000,0.000091,-0.000032,0.000105,-0.703285,0.028309,0.161980,0.691629,11.021745,-15.485560,-90.545651
46982,2.471369,1.848461,9.268685,0.043869,0.142152,-0.044839,0.005338,-0.009975,0.035037,0.024706,0.018486,0.092689,1.000000,0.000027,-0.000050,0.000175,-0.703425,0.028398,0.162015,0.691475,11.014228,-15.497965,-90.521670
46983,2.523423,1.773192,9.258234,-0.027706,0.087836,-0.054702,0.014736,-0.002912,0.040034,0.025229,0.017730,0.092584,1.000000,0.000074,-0.000015,0.000200,-0.703589,0.028432,0.162055,0.691298,11.011205,-15.506663,-90.494043
46984,2.455925,1.754146,9.296640,-0.052810,0.163583,-0.039941,0.015622,-0.002409,0.028359,0.024556,0.017538,0.092968,1.000000,0.000078,-0.000012,0.000142,-0.703713,0.028453,0.162100,0.691160,11.010384,-15.514079,-90.473096
46985,2.391129,1.795489,9.432458,-0.037179,0.264650,0.078780,0.011884,0.000882,0.022164,0.023910,0.017952,0.094326,1.000000,0.000059,0.000004,0.000111,-0.703818,0.028469,0.162120,0.691048,11.008394,-15.518683,-90.455467
46986,2.289454,1.821695,9.431649,-0.010477,0.365749,0.055560,0.013822,-0.028970,0.014974,0.022880,0.018212,0.094321,1.000000,0.000069,-0.000145,0.000075,-0.703874,0.028578,0.162254,0.690954,11.009434,-15.539572,-90.445348
46987,2.517145,1.769981,9.413193,-0.060146,0.144066,0.089468,0.021699,-0.055175,0.013163,0.025144,0.017691,0.094141,1.000000,0.000108,-0.000276,0.000066,-0.703904,0.028745,0.162506,0.690858,11.016170,-15.574710,-90.439344
46988,2.776444,1.795856,9.210712,0.000277,-0.152501,-0.027612,0.024422,-0.050109,-0.000011,0.027741,0.017947,0.092116,1.000000,0.000122,-0.000251,-0.000000,-0.703893,0.028877,0.162753,0.690806,11.026272,-15.605849,-90.440380
46989,2.763467,1.921495,9.213075,0.121794,-0.130508,-0.005660,0.018670,-0.013186,-0.015887,0.027630,0.019204,0.092134,1.000000,0.000093,-0.000066,-0.000079,-0.703855,0.028887,0.162851,0.690820,11.034547,-15.614191,-90.446569
46990,2.747097,1.905218,9.267448,0.094656,-0.100798,0.038347,0.011904,0.012828,-0.016957,0.027479,0.019044,0.092674,1.000000,0.000060,0.000064,-0.000085,-0.703835,0.028832,0.162836,0.690847,11.038213,-15.608076,-90.450341
46991,2.526273,1.979326,9.456466,0.132891,0.163739,0.171303,0.009533,0.023896,-0.009532,0.025275,0.019788,0.094563,1.000000,0.000048,0.000119,-0.000048,-0.703849,0.028751,0.162771,0.690852,11.039122,-15.596266,-90.448594
46992,2.507388,2.002877,9.437100,0.159686,0.176931,0.152279,0.010935,0.003246,0.000594,0.025075,0.020024,0.094372,1.000000,0.000055,0.000016,0.000003,-0.703881,0.028746,0.162783,0.690816,11.039770,-15.597465,-90.443209
46993,2.524379,1.953413,9.424709,0.112962,0.156203,0.135995,0.016905,-0.014188,0.007449,0.025236,0.019527,0.094251,1.000000,0.000085,-0.000071,0.000037,-0.703923,0.028785,0.162876,0.690750,11.043407,-15.608930,-90.435888
46994,2.744630,1.930436,9.229858,0.125210,-0.107133,0.006819,0.015923,-0.003589,0.007187,0.027444,0.019298,0.092301,1.000000,0.000080,-0.000018,0.000036,-0.703973,0.028792,0.162928,0.690686,11.046085,-15.614697,-90.427432
46995,2.727511,1.913570,9.284585,0.098065,-0.077468,0.050829,0.011558,0.026439,-0.004999,0.027288,0.019130,0.092843,1.000000,0.000058,0.000132,-0.000025,-0.704005,0.028698,0.162861,0.690673,11.047371,-15.601949,-90.422747
46996,2.709689,1.949226,9.368545,0.117015,-0.039095,0.131975,0.013344,0.037010,-0.004296,0.027115,0.019485,0.093682,1.000000,0.000067,0.000185,-0.000021,-0.704048,0.028565,0.162764,0.690658,11.049132,-15.583625,-90.416369
46997,2.707043,2.026426,9.395486,0.188324,-0.029837,0.170963,-0.004449,0.050695,-0.000095,0.027094,0.020266,0.093948,1.000000,-0.000022,0.000253,-0.000000,-0.704114,0.028448,0.162555,0.690644,11.039743,-15.557777,-90.406057
46998,2.599605,1.938291,9.479258,0.088032,0.087411,0.205089,0.001165,0.053295,0.007331,0.026021,0.019383,0.094786,1.000000,0.000006,0.000266,0.000037,-0.704209,0.028311,0.162357,0.690600,11.032217,-15.531570,-90.391043
46999,2.460753,1.976901,9.583386,0.107276,0.247167,0.273548,0.023428,0.027322,0.017139,0.024619,0.019760,0.095833,1.000000,0.000117,0.000137,0.000086,-0.704320,0.028191,0.162324,0.690500,11.036834,-15.520754,-90.373338
47000,2.631437,2.041982,9.501999,0.184148,0.063854,0.254296,0.036737,-0.000673,0.028153,0.026311,0.020406,0.095024,1.000000,0.000184,-0.000003,0.000141,-0.704448,0.028132,0.162435,0.690346,11.048086,-15.527181,-90.352318
47001,2.716427,2.009951,9.416086,0.166073,-0.040539,0.189929,0.052536,-0.006012,0.046179,0.027157,0.020081,0.094167,1.000000,0.000263,-0.000030,0.000231,-0.704635,0.028047,0.162617,0.690115,11.065861,-15.538304,-90.321462
47002,2.634584,2.098218,9.493890,0.234646,0.065132,0.257973,0.075035,-0.001622,0.073673,0.026337,0.020956,0.094947,1.000000,0.000375,-0.000008,0.000368,-0.704924,0.027893,0.162857,0.689769,11.091960,-15.550290,-90.273985
47003,2.570253,2.111638,9.562295,0.231242,0.149396,0.307931,0.067488,-0.020715,0.106791,0.025681,0.021098,0.095633,1.000000,0.000337,-0.000104,0.000534,-0.705311,0.027856,0.163133,0.689310,11.109253,-15.576388,-90.209440
47004,2.486769,1.988924,9.525151,0.115439,0.220320,0.227556,0.064786,-0.044231,0.126862,0.024834,0.019874,0.095263,1.000000,0.000324,-0.000221,0.000634,-0.705747,0.027929,0.163481,0.688778,11.122402,-15.618234,-90.135799
47005,2.780489,1.823031,9.378926,-0.021831,-0.102548,0.137580,0.053386,-0.038785,0.113583,0.027776,0.018221,0.093800,1.000000,0.000267,-0.000194,0.000568,-0.706139,0.028009,0.163771,0.688304,11.131030,-15.655265,-90.069355
47006,2.512690,1.773858,9.529477,-0.100791,0.199057,0.198373,0.058335,-0.041511,0.089689,0.025099,0.017722,0.095305,1.000000,0.000292,-0.000208,0.000448,-0.706448,0.028065,0.164092,0.687908,11.146165,-15.691496,-90.017095
47007,2.200163,1.887566,9.783372,-0.042129,0.581161,0.374484,0.077740,-0.073580,0.096233,0.021957,0.018848,0.097849,1.000000,0.000389,-0.000368,0.000481,-0.706755,0.028165,0.164591,0.687469,11.172483,-15.746199,-89.964787
47008,2.196217,1.805336,9.842462,-0.142264,0.610455,0.412954,0.140890,-0.154645,0.137203,0.021874,0.017999,0.098454,0.999999,0.000704,-0.000773,0.000686,-0.707144,0.028357,0.165589,0.686821,11.230818,-15.851359,-89.897870
47009,2.289547,1.982211,9.777838,0.030740,0.536587,0.409267,0.193010,-0.243779,0.177819,0.022759,0.019748,0.097825,0.999998,0.000965,-0.001219,0.000889,-0.707605,0.028701,0.167074,0.685972,11.315363,-16.010918,-89.817779
47010,2.771726,2.339844,9.640242,0.396400,0.087262,0.479385,0.167316,-0.273048,0.210615,0.027561,0.023347,0.096460,0.999998,0.000837,-0.001365,0.001053,-0.708148,0.029267,0.168570,0.685022,11.380499,-16.191032,-89.722011
47011,2.905370,2.362035,9.589315,0.422956,-0.020952,0.473028,0.058417,-0.264048,0.219550,0.028901,0.023624,0.095938,0.999998,0.000292,-0.001320,0.001098,-0.708710,0.030192,0.169657,0.684131,11.381341,-16.366831,-89.620064
47012,3.072880,1.893417,9.442954,-0.002057,-0.220147,0.294165,-0.019401,-0.242629,0.236581,0.030592,0.018980,0.094465,0.999999,-0.000097,-0.001213,0.001183,-0.709335,0.031336,0.170401,0.683246,11.333577,-16.532803,-89.505370
47013,3.189599,1.710418,9.245470,-0.133056,-0.371579,0.108097,-0.013292,-0.204336,0.233531,0.031782,0.017147,0.092486,0.999999,-0.000066,-0.001022,0.001168,-0.709981,0.032323,0.171029,0.682372,11.288327,-16.676510,-89.387826
47014,2.902465,1.672928,9.326588,-0.182194,-0.053184,0.095499,0.005092,-0.176747,0.216312,0.028924,0.016758,0.093292,0.999999,0.000025,-0.000884,0.001082,-0.710593,0.033139,0.171625,0.681545,11.255122,-16.803028,-89.276888
47015,2.867419,1.639764,9.275113,-0.201183,-0.015293,0.030986,0.031686,-0.173433,0.193163,0.028578,0.016411,0.092779,0.999999,0.000158,-0.000867,0.000966,-0.711132,0.033826,0.172303,0.680778,11.240865,-16.924741,-89.179115
47016,2.751174,1.739879,9.263285,-0.101251,0.119788,0.004642,0.043185,-0.167544,0.162353,0.027420,0.017401,0.092660,0.999999,0.000216,-0.000838,0.000812,-0.711572,0.034428,0.173004,0.680109,11.237919,-17.040001,-89.098591
47017,2.851426,1.773451,9.162772,-0.046316,0.015802,-0.054115,0.023837,-0.143121,0.121496,0.028438,0.017741,0.091650,1.000000,0.000119,-0.000716,0.000607,-0.711890,0.034977,0.173559,0.679607,11.230092,-17.136656,-89.039268
47018,2.745952,1.735030,9.221766,-0.096523,0.145823,-0.037159,0.019051,-0.121999,0.095216,0.027395,0.017355,0.092236,1.000000,0.000095,-0.000610,0.000476,-0.712136,0.035452,0.174028,0.679205,11.223116,-17.218814,-88.992807
47019,2.390529,1.751898,9.444245,-0.130874,0.564994,0.068667,0.039166,-0.137516,0.088772,0.023833,0.017511,0.094462,1.000000,0.000196,-0.000688,0.000444,-0.712350,0.035900,0.174620,0.678806,11.229396,-17.308659,-88.952020
47020,2.430763,1.900543,9.437007,0.014600,0.553984,0.100467,0.050843,-0.190642,0.101779,0.024208,0.018994,0.094398,0.999999,0.000254,-0.000953,0.000509,-0.712562,0.036501,0.175440,0.678339,11.241720,-17.430132,-88.909689
47021,2.842099,1.961681,9.244746,0.119718,0.132155,0.054390,0.008456,-0.204251,0.101009,0.028317,0.019627,0.092477,0.999999,0.000042,-0.001021,0.000505,-0.712751,0.037295,0.176163,0.677910,11.230417,-17.558838,-88.869475
47022,3.106837,1.807743,9.087158,0.007368,-0.157204,-0.041710,0.003494,-0.178981,0.105813,0.030977,0.018092,0.090900,0.999999,0.000017,-0.000895,0.000529,-0.712978,0.038028,0.176779,0.677470,11.214279,-17.674198,-88.823314
47023,2.974786,1.847740,9.172617,0.028015,0.015183,0.005630,0.037714,-0.144735,0.133629,0.029669,0.018480,0.091751,0.999999,0.000189,-0.000724,0.000668,-0.713334,0.038545,0.177382,0.676908,11.211577,-17.773075,-88.756786
47024,3.290397,2.005757,9.146097,0.194740,-0.263443,0.106664,0.055091,-0.130372,0.173423,0.032827,0.020061,0.091488,0.999999,0.000275,-0.000652,0.000867,-0.713840,0.038989,0.177987,0.676190,11.210866,-17.868639,-88.664947
47025,3.477867,2.043860,9.125491,0.242389,-0.430002,0.152444,0.032779,-0.080312,0.202757,0.034721,0.020459,0.091272,0.999999,0.000164,-0.000402,0.001014,-0.714484,0.039367,0.178330,0.675397,11.190246,-17.938991,-88.549963
47026,3.179444,1.946543,9.259247,0.117471,-0.103692,0.167643,0.019846,-0.042637,0.209374,0.031754,0.019489,0.092601,0.999999,0.000099,-0.000213,0.001047,-0.715181,0.039672,0.178494,0.674597,11.159369,-17.989176,-88.426502
47027,3.100297,1.854420,9.326925,0.018145,-0.007541,0.189404,-0.021310,-0.041932,0.186389,0.030966,0.018583,0.093274,1.000000,-0.000107,-0.000210,0.000932,-0.715792,0.040099,0.178521,0.673917,11.109120,-18.036023,-88.316568
47028,3.057305,1.554104,9.332084,-0.270185,0.015923,0.125968,-0.031016,-0.036771,0.143223,0.030545,0.015577,0.093324,1.000000,-0.000155,-0.000184,0.000716,-0.716260,0.040508,0.178506,0.673399,11.060783,-18.075438,-88.231401
47029,2.890145,1.490340,9.384840,-0.342967,0.191693,0.111772,0.008242,-0.050418,0.105575,0.028870,0.014915,0.093856,1.000000,0.000041,-0.000252,0.000528,-0.716597,0.040786,0.178678,0.672978,11.042425,-18.118032,-88.170134
47030,3.091483,1.665895,9.295012,-0.145573,-0.003144,0.122529,0.021328,-0.060913,0.056943,0.030882,0.016658,0.092961,1.000000,0.000107,-0.000305,0.000285,-0.716763,0.041011,0.178943,0.672717,11.040701,-18.161494,-88.138740
47031,2.955092,1.742619,9.449864,-0.105654,0.186359,0.238348,0.007739,-0.049014,0.022861,0.029526,0.017426,0.094507,1.000000,0.000039,-0.000245,0.000114,-0.716821,0.041212,0.179125,0.672594,11.037177,-18.194208,-88.126234
47032,2.860644,1.753941,9.488108,-0.106144,0.295781,0.246390,0.030264,-0.080277,0.015967,0.028567,0.017527,0.094895,1.000000,0.000151,-0.000401,0.000080,-0.716834,0.041433,0.179498,0.672468,11.048812,-18.244063,-88.121323
47033,3.103532,1.983405,9.422100,0.137077,0.076283,0.302507,0.028500,-0.102689,0.017323,0.030985,0.019823,0.094240,1.000000,0.000143,-0.000513,0.000087,-0.716830,0.041735,0.179943,0.672334,11.060135,-18.306348,-88.118312
47034,3.350544,1.888216,9.152831,0.105417,-0.237991,0.111932,-0.007972,-0.088042,0.011114,0.033464,0.018888,0.091542,1.000000,-0.000040,-0.000440,0.000056,-0.716811,0.042116,0.180216,0.672258,11.051043,-18.360038,-88.117183
47035,3.448386,1.771634,9.054351,0.015372,-0.364030,0.030004,-0.006647,-0.050485,0.004379,0.034461,0.017720,0.090552,1.000000,-0.000033,-0.000252,0.000022,-0.716803,0.042356,0.180359,0.672213,11.042738,-18.391548,-88.115791
47036,3.460280,1.778956,8.929818,0.049248,-0.409641,-0.080800,-0.002624,0.006154,0.001346,0.034605,0.017791,0.089297,1.000000,-0.000013,0.000031,0.000007,-0.716837,0.042392,0.180315,0.672187,11.035094,-18.391193,-88.109543
47037,3.427231,1.833326,8.961147,0.096692,-0.366850,-0.052297,-0.003997,0.069043,-0.001226,0.034303,0.018335,0.089599,1.000000,-0.000020,0.000345,-0.000006,-0.716918,0.042217,0.180040,0.672185,11.025001,-18.354882,-88.097652
47038,3.425574,1.978260,8.945311,0.243700,-0.365174,-0.041612,0.011794,0.128048,0.029232,0.034310,0.019782,0.089432,1.000000,0.000059,0.000640,0.000146,-0.717158,0.041816,0.179600,0.672071,11.016011,-18.289028,-88.060823
47039,3.029711,2.298781,9.179143,0.499172,0.098328,0.110082,0.049927,0.176686,0.110237,0.030366,0.022982,0.091770,0.999999,0.000250,0.000883,0.000551,-0.717722,0.041186,0.179097,0.671643,11.012298,-18.204387,-87.970533
47040,3.025693,2.512024,9.120275,0.721716,0.092165,0.092621,0.059709,0.181763,0.215244,0.030313,0.025126,0.091183,0.999999,0.000299,0.000909,0.001076,-0.718643,0.040600,0.178587,0.670828,10.994617,-18.128654,-87.817469
47041,3.143093,2.295900,8.882701,0.569304,-0.122773,-0.132121,0.012292,0.214348,0.290194,0.031493,0.022999,0.088795,0.999998,0.000061,0.001072,0.001451,-0.719833,0.040139,0.177785,0.669792,10.935254,-18.042365,-87.616531
47042,3.051727,1.898092,8.892886,0.184873,-0.087822,-0.223251,0.027536,0.273095,0.324445,0.030608,0.019018,0.088890,0.999998,0.000138,0.001365,0.001622,-0.721191,0.039459,0.176815,0.668628,10.876534,-17.926837,-87.388759
47043,2.730450,1.866795,9.131751,0.100829,0.264129,-0.104485,0.051671,0.306352,0.315631,0.027415,0.018688,0.091280,0.999998,0.000258,0.001532,0.001578,-0.722550,0.038571,0.175807,0.667478,10.832825,-17.791160,-87.162782
47044,2.534540,1.723639,9.306568,-0.076994,0.464524,-0.025692,0.049461,0.283586,0.316310,0.025450,0.017254,0.093034,0.999998,0.000247,0.001418,0.001582,-0.723887,0.037769,0.174873,0.666319,10.788895,-17.668495,-86.939160
47045,2.806450,1.535357,9.180990,-0.215367,0.128704,-0.093578,0.051139,0.263605,0.282865,0.028164,0.015370,0.091777,0.999998,0.000256,0.001318,0.001414,-0.725092,0.036996,0.174022,0.665274,10.753281,-17.553047,-86.737859
47046,3.037971,1.316705,8.993302,-0.372737,-0.190761,-0.238394,0.060282,0.275082,0.224361,0.030489,0.013174,0.089895,0.999998,0.000301,0.001375,0.001122,-0.726112,0.036104,0.173170,0.664432,10.733177,-17.425096,-86.569907
47047,3.182080,1.274932,8.963588,-0.395433,-0.366313,-0.231123,0.076452,0.323947,0.165349,0.031955,0.012741,0.089589,0.999998,0.000382,0.001620,0.000827,-0.726979,0.034936,0.172204,0.663797,10.731716,-17.263014,-86.431544
47048,3.324575,1.264382,8.967227,-0.396215,-0.533134,-0.188691,0.091311,0.373201,0.113720,0.033406,0.012622,0.089616,0.999998,0.000457,0.001866,0.000569,-0.727717,0.033509,0.171118,0.663343,10.746388,-17.068006,-86.318120
47049,3.438681,1.261834,8.817353,-0.361338,-0.721211,-0.298928,0.114655,0.451610,0.068602,0.034581,0.012580,0.088103,0.999997,0.000573,0.002258,0.000343,-0.728372,0.031696,0.169830,0.663044,10.780212,-16.823798,-86.222607
47050,3.086580,1.431425,9.084300,-0.278501,-0.338317,-0.122062,0.204663,0.529800,0.043442,0.031103,0.014228,0.090775,0.999996,0.001023,0.002649,0.000217,-0.729020,0.029276,0.168559,0.662768,10.867552,-16.533261,-86.132873
47051,2.739735,1.988787,9.242757,0.197776,0.051891,0.028447,0.256992,0.534555,0.081732,0.027636,0.019780,0.092379,0.999996,0.001285,0.002673,0.000409,-0.729800,0.026680,0.167436,0.662303,10.978867,-16.244088,-86.019837
47052,3.224305,2.413560,9.094275,0.662806,-0.450040,0.101201,0.253548,0.575060,0.168515,0.032484,0.024048,0.090880,0.999995,0.001268,0.002875,0.000843,-0.730894,0.024037,0.166141,0.661523,11.073151,-15.942108,-85.850936
47053,3.384880,2.300928,8.860179,0.607050,-0.731278,-0.099248,0.226737,0.667931,0.261161,0.034115,0.022953,0.088514,0.999993,0.001134,0.003340,0.001306,-0.732360,0.021259,0.164405,0.660430,11.135510,-15.598099,-85.617177
47054,3.412326,1.903682,8.674904,0.260051,-0.914638,-0.346041,0.255379,0.781306,0.336984,0.034430,0.018984,0.086639,0.999990,0.001277,0.003907,0.001685,-0.734160,0.018066,0.162338,0.659037,11.200374,-15.199284,-85.326113
47055,3.535713,1.717434,8.482144,0.130141,-1.175601,-0.539170,0.293009,0.933661,0.356998,0.035722,0.017114,0.084680,0.999986,0.001465,0.004668,0.001785,-0.736135,0.014247,0.159830,0.657538,11.281610,-14.717213,-85.005933
47056,3.580764,1.566329,8.328404,0.022760,-1.360921,-0.714106,0.283817,1.114374,0.311195,0.036247,0.015601,0.083105,0.999982,0.001419,0.005572,0.001556,-0.738081,0.009832,0.156625,0.656207,11.361701,-14.129131,-84.691360
47057,3.352404,1.695384,9.029066,-0.023252,-1.077681,-0.092928,0.316411,1.345693,0.226680,0.034112,0.016850,0.090089,0.999975,0.001582,0.006728,0.001133,-0.739902,0.004470,0.152671,0.655147,11.469334,-13.401860,-84.398602
47058,-1.952934,3.502753,12.768888,0.366990,4.950495,2.616431,0.598839,1.284990,0.358706,-0.018770,0.034611,0.127915,0.999973,0.002994,0.006425,0.001794,-0.742077,-0.001636,0.149856,0.653347,11.726182,-12.724966,-84.035397
47059,-5.163027,5.505263,15.430545,1.297470,8.796097,4.884621,0.388676,0.217635,0.677537,-0.051648,0.054578,0.154468,0.999992,0.001943,0.001088,0.003388,-0.744470,-0.003239,0.150311,0.650508,11.852479,-12.684986,-83.615220
47060,0.451501,4.174489,13.155229,1.096416,2.773073,3.670521,-0.192621,-0.672701,0.771100,0.003911,0.041887,0.131526,0.999986,-0.000963,-0.003363,0.003855,-0.746490,0.000291,0.152189,0.647758,11.655707,-13.155349,-83.247423
47061,2.374100,0.731615,10.566631,-1.400795,-0.032028,0.951179,-0.353376,-0.973516,0.627752,0.023203,0.007576,0.105767,0.999982,-0.001767,-0.004868,0.003139,-0.747793,0.005282,0.154663,0.645645,11.390542,-13.776323,-82.995137
47062,3.337361,-0.068872,9.573802,-1.817718,-1.190459,0.090759,-0.128972,-0.977898,0.376963,0.032906,-0.000565,0.095900,0.999986,-0.000645,-0.004889,0.001885,-0.748265,0.009258,0.157880,0.644273,11.285878,-14.371126,-82.885758
47063,2.622577,1.031898,9.958204,-0.925126,-0.133428,0.494305,-0.061103,-0.932201,0.137291,0.025754,0.010367,0.099700,0.999989,-0.000306,-0.004661,0.000686,-0.747984,0.012640,0.161151,0.643731,11.252847,-14.912890,-82.909402
47064,2.417627,1.546839,10.220692,-0.508516,0.311896,0.786530,-0.274404,-0.979859,-0.057401,0.023680,0.015602,0.102302,0.999987,-0.001372,-0.004899,-0.000287,-0.747008,0.016819,0.163923,0.644070,11.128570,-15.460220,-83.051082
47065,2.863085,0.939704,9.828546,-0.942099,-0.204004,0.422080,-0.427197,-1.028732,-0.219079,0.028135,0.009576,0.098411,0.999984,-0.002136,-0.005144,-0.001095,-0.745435,0.021590,0.166393,0.645116,10.945068,-16.017262,-83.291786
47066,3.337433,0.349492,9.211618,-1.312611,-0.803977,-0.130520,-0.380382,-1.006513,-0.361873,0.032917,0.003610,0.092276,0.999984,-0.001902,-0.005033,-0.001809,-0.743401,0.025999,0.168943,0.646635,10.812902,-16.547401,-83.612600
47067,3.516276,0.561718,8.934112,-1.029835,-0.918958,-0.294682,-0.225979,-0.923312,-0.487782,0.034764,0.005633,0.089496,0.999986,-0.001130,-0.004617,-0.002439,-0.741028,0.029455,0.171692,0.648484,10.790729,-17.017215,-83.998330
47068,2.946270,1.465879,9.466464,-0.338440,-0.013616,0.203701,-0.097472,-0.841261,-0.557399,0.029105,0.014624,0.094780,0.999987,-0.000487,-0.004206,-0.002787,-0.738498,0.032111,0.174561,0.650475,10.854630,-17.433624,-84.416783
47069,1.978882,2.236087,9.981033,0.190388,1.241166,0.529447,0.002034,-0.929871,-0.459598,0.019376,0.022315,0.099901,0.999987,0.000010,-0.004649,-0.002298,-0.736206,0.034769,0.178059,0.651987,10.964809,-17.909501,-84.789404
47070,3.439830,2.913727,9.200836,1.121747,-0.178154,0.369986,0.024945,-1.023058,-0.300506,0.033971,0.029075,0.092186,0.999986,0.000125,-0.005115,-0.001503,-0.734333,0.037791,0.181944,0.652858,11.065749,-18.454929,-85.080443
47071,4.646777,3.050980,8.281426,1.533364,-1.486497,-0.069913,-0.071189,-0.859325,-0.166822,0.046137,0.030501,0.083002,0.999990,-0.000356,-0.004297,-0.000834,-0.733009,0.040748,0.184882,0.653342,11.083123,-18.922321,-85.274707
47072,4.357232,2.349910,8.010513,0.879889,-1.331027,-0.532074,-0.101517,-0.613878,-0.028668,0.043330,0.023534,0.080226,0.999995,-0.000508,-0.003069,-0.000143,-0.732348,0.043145,0.186793,0.653386,11.048183,-19.267315,-85.358448
47073,3.843982,2.101491,8.350953,0.524748,-0.730363,-0.425359,-0.028158,-0.430440,0.112116,0.038248,0.021048,0.083589,0.999998,-0.000141,-0.002152,0.000561,-0.732327,0.044803,0.188238,0.652883,11.020884,-19.524281,-85.337007
47074,3.280258,2.134311,8.891722,0.398076,0.011782,-0.106020,0.009293,-0.317931,0.248546,0.032635,0.021380,0.088970,0.999998,0.000046,-0.001590,0.001243,-0.732863,0.046087,0.189364,0.651866,10.982977,-19.733225,-85.220727
47075,2.991337,1.807453,9.201830,-0.005265,0.369222,0.023582,-0.013507,-0.308360,0.310898,0.029743,0.018127,0.092063,0.999998,-0.000068,-0.001542,0.001554,-0.733602,0.047479,0.190364,0.650642,10.918640,-19.943137,-85.065823
47076,2.907235,1.665697,9.415576,-0.187225,0.532093,0.165355,-0.083508,-0.317631,0.282716,0.028899,0.016737,0.094195,0.999998,-0.000418,-0.001588,0.001414,-0.734221,0.049135,0.191177,0.649582,10.819448,-20.155350,-84.928217
47077,2.144156,1.512982,9.803779,-0.468676,1.388610,0.229848,-0.181885,-0.404494,0.187618,0.021229,0.015239,0.098067,0.999997,-0.000909,-0.002022,0.000938,-0.734420,0.051339,0.192011,0.648941,10.686533,-20.405679,-84.857047
47078,2.206679,1.052351,9.715448,-0.872734,1.283978,0.084596,-0.282857,-0.563230,0.067517,0.021790,0.010668,0.097201,0.999995,-0.001414,-0.002816,0.000338,-0.734045,0.054316,0.193130,0.648790,10.526624,-20.732916,-84.875051
47079,2.364691,0.880770,9.625668,-0.988561,1.144802,0.022595,-0.258495,-0.668858,-0.064876,0.023328,0.008925,0.096324,0.999994,-0.001292,-0.003344,-0.000324,-0.733135,0.057415,0.194749,0.649068,10.413373,-21.105528,-84.984042
47080,1.726502,1.437083,10.055193,-0.573461,2.042634,0.269529,-0.281426,-0.845297,-0.192924,0.016854,0.014496,0.100603,0.999990,-0.001407,-0.004226,-0.000965,-0.731620,0.061048,0.196974,0.649774,10.322703,-21.564951,-85.189486
47081,2.142615,1.287182,9.947368,-0.643398,1.690770,0.283063,-0.453327,-1.034303,-0.380401,0.020936,0.013057,0.099553,0.999982,-0.002267,-0.005171,-0.001902,-0.729236,0.065735,0.199382,0.651260,10.185341,-22.111752,-85.529473
47082,2.204855,0.452601,9.683996,-1.374059,1.531285,-0.085823,-0.514131,-1.205010,-0.559288,0.021478,0.004715,0.096959,0.999975,-0.002571,-0.006025,-0.002796,-0.726049,0.071021,0.202267,0.653374,10.064991,-22.737973,-85.997124
47083,3.205075,0.186444,8.973339,-1.413755,0.436668,-0.397945,-0.453459,-1.327908,-0.745760,0.031461,0.001950,0.089939,0.999968,-0.002267,-0.006639,-0.003729,-0.722107,0.076292,0.205848,0.656024,10.034994,-23.414958,-86.594019
47084,3.621538,0.630179,8.792504,-0.925333,0.166040,-0.329239,-0.406759,-1.324825,-0.906962,0.035661,0.006318,0.088150,0.999966,-0.002034,-0.006624,-0.004535,-0.717611,0.081217,0.209622,0.659164,10.079163,-24.074504,-87.292848
47085,3.989562,0.842325,8.411973,-0.640658,-0.179162,-0.488320,-0.444330,-1.293716,-1.018551,0.039393,0.008409,0.084357,0.999964,-0.002222,-0.006469,-0.005093,-0.712713,0.086049,0.213187,0.662712,10.137878,-24.704201,-88.061720
47086,4.208966,0.972035,8.221804,-0.487410,-0.336586,-0.544106,-0.443164,-1.211270,-1.073558,0.041643,0.009679,0.082450,0.999965,-0.002216,-0.006056,-0.005368,-0.707670,0.090541,0.216475,0.666441,10.217066,-25.281499,-88.859980
47087,4.358928,1.074978,7.940999,-0.351125,-0.486533,-0.710235,-0.432231,-1.104728,-1.087522,0.043208,0.010686,0.079626,0.999968,-0.002161,-0.005524,-0.005438,-0.702654,0.094616,0.219410,0.670213,10.309941,-25.795715,-89.659655
47088,4.646748,1.189458,7.737806,-0.222922,-0.744580,-0.742066,-0.388126,-0.944683,-1.056046,0.046164,0.011801,0.077574,0.999973,-0.001941,-0.004723,-0.005280,-0.697898,0.098031,0.221906,0.673860,10.419109,-26.222200,-90.425233
47089,4.670514,1.534789,7.761873,0.089042,-0.669306,-0.649731,-0.366945,-0.766358,-1.007476,0.046484,0.015256,0.077769,0.999978,-0.001835,-0.003832,-0.005037,-0.693479,0.100818,0.223813,0.677370,10.523646,-26.551504,-91.143083
47090,4.970228,1.759196,7.620161,0.309734,-0.942662,-0.599647,-0.423171,-0.597320,-0.951805,0.049558,0.017517,0.076313,0.999982,-0.002116,-0.002987,-0.004759,-0.689383,0.103288,0.224910,0.680807,10.575529,-26.791034,-91.808108
47091,5.143464,1.713318,7.735741,0.226173,-1.021654,-0.424536,-0.477213,-0.378584,-0.921784,0.051367,0.017081,0.077414,0.999985,-0.002386,-0.001893,-0.004609,-0.685584,0.105228,0.225044,0.684293,10.578617,-26.909784,-92.429733
47092,4.508164,1.552704,8.407764,-0.021295,-0.146951,-0.148171,-0.550483,-0.227557,-0.921847,0.045058,0.015551,0.084086,0.999985,-0.002752,-0.001138,-0.004609,-0.681896,0.106902,0.224405,0.687919,10.532613,-26.944120,-93.033831
47093,4.486611,1.416914,8.603481,-0.177809,-0.038489,-0.008398,-0.580646,-0.187592,-0.926620,0.044851,0.014211,0.086036,0.999985,-0.002903,-0.000938,-0.004633,-0.678199,0.108530,0.223519,0.691598,10.468806,-26.955524,-93.636496
47094,4.968629,1.464266,8.471802,-0.130103,-0.526804,0.102368,-0.637869,-0.125563,-0.975682,0.049705,0.014670,0.084702,0.999983,-0.003189,-0.000628,-0.004878,-0.674349,0.110082,0.222247,0.695516,10.382911,-26.928024,-94.262752
47095,5.060323,1.281109,8.346300,-0.292064,-0.675308,0.004006,-0.697783,-0.040000,-1.053430,0.050654,0.012835,0.083428,0.999980,-0.003489,-0.000200,-0.005267,-0.670265,0.111445,0.220510,0.699786,10.279759,-26.844802,-94.928166
47096,4.960447,1.527013,8.495812,-0.056216,-0.537684,0.128354,-0.752447,0.045460,-1.180953,0.049714,0.015296,0.084889,0.999975,-0.003762,0.000227,-0.005905,-0.665770,0.112550,0.218359,0.704558,10.175819,-26.701915,-95.663744
47097,4.487447,1.468794,8.634442,-0.077789,-0.081799,0.027804,-0.925737,0.086570,-1.376118,0.045013,0.014778,0.086257,0.999966,-0.004629,0.000433,-0.006881,-0.660495,0.113864,0.215555,0.710153,10.023430,-26.517294,-96.517259
47098,4.736946,0.650948,8.366025,-0.863445,-0.426267,-0.224910,-1.036110,0.119666,-1.632156,0.047473,0.006556,0.083598,0.999953,-0.005180,0.000598,-0.008161,-0.654231,0.115142,0.212381,0.716672,9.874787,-26.291057,-97.527323
47099,4.950553,0.133160,7.795498,-1.338283,-0.869609,-0.716083,-1.026580,0.190931,-1.943955,0.049592,0.001250,0.077901,0.999939,-0.005133,0.000955,-0.009720,-0.646860,0.115789,0.209162,0.724166,9.809576,-25.995344,-98.724007
47100,5.258520,0.259611,7.361438,-1.242220,-1.376507,-0.954244,-1.035861,0.369149,-2.314422,0.052749,0.002367,0.073504,0.999918,-0.005179,0.001846,-0.011572,-0.638237,0.115418,0.205520,0.732866,9.823369,-25.563688,-100.129966
47101,5.402275,0.901784,7.265941,-0.679231,-1.667250,-0.893619,-1.241196,0.628102,-2.712686,0.054370,0.008732,0.072434,0.999884,-0.006206,0.003140,-0.013563,-0.628176,0.114321,0.200487,0.743055,9.799311,-24.946699,-101.750592
47102,4.968238,0.843403,7.518805,-0.732753,-1.252954,-0.878530,-1.564195,0.923293,-3.104252,0.050158,0.008244,0.074892,0.999838,-0.007821,0.004616,-0.015520,-0.616598,0.112718,0.193497,0.754758,9.656296,-24.127557,-103.574357
47103,4.410759,0.727691,7.885535,-0.791416,-0.700270,-0.810038,-1.863392,1.200081,-3.532045,0.044707,0.007224,0.078521,0.999783,-0.009316,0.006000,-0.017659,-0.603272,0.110536,0.184690,0.767942,9.405342,-23.116821,-105.623450
47104,3.658922,0.578157,8.522575,-0.792153,0.113866,-0.554526,-2.261970,1.403421,-3.904865,0.037302,0.006019,0.084898,0.999721,-0.011309,0.007016,-0.019523,-0.588184,0.108377,0.173858,0.782348,8.966671,-21.968542,-107.870773
47105,2.919156,-0.660176,8.302516,-1.734974,0.844923,-1.200850,-2.296555,1.538227,-4.175441,0.029696,-0.006266,0.082871,0.999687,-0.011482,0.007690,-0.020875,-0.571787,0.105493,0.162534,0.797191,8.516605,-20.736210,-110.260839
47106,2.219370,0.348987,8.549308,-0.523037,1.106086,-1.058366,-2.206907,1.661442,-4.385454,0.022986,0.003933,0.085263,0.999664,-0.011033,0.008306,-0.021925,-0.554331,0.101623,0.151224,0.812109,8.104994,-19.433629,-112.756610
47107,3.306427,0.833405,6.508707,-0.474142,-0.912857,-2.537429,-2.606018,1.868625,-4.878423,0.033874,0.008359,0.064664,0.999574,-0.013028,0.009342,-0.024389,-0.534406,0.097568,0.137852,0.828183,7.494592,-17.995756,-115.522116
47108,4.307593,1.866430,7.495810,-0.009150,-2.092627,-1.219840,-3.464558,2.581707,-5.438895,0.044545,0.018754,0.074065,0.999397,-0.017319,0.012906,-0.027189,-0.511686,0.092368,0.119156,0.845841,6.398747,-16.152776,-118.565807
47109,1.382889,-5.301113,6.481190,-5.038511,3.149223,-3.753601,-3.137289,3.016350,-5.256629,0.013431,-0.052344,0.065432,0.999418,-0.015683,0.015079,-0.026278,-0.489540,0.084493,0.100505,0.862039,5.357869,-14.127161,-121.481091
47110,0.348793,-2.184716,6.715298,-1.748847,2.467237,-3.421842,-0.949315,3.188534,-4.688315,0.004050,-0.021619,0.067194,0.999587,-0.004746,0.015940,-0.023438,-0.470367,0.070722,0.090523,0.874962,5.390894,-12.058850,-124.046158
47111,0.243750,6.083846,8.084237,5.134898,-1.872810,-1.296037,-0.289141,3.241938,-3.638679,0.004854,0.060882,0.080689,0.999702,-0.001446,0.016208,-0.018192,-0.455708,0.055590,0.082863,0.884519,5.589809,-10.012558,-125.974646
47112,1.819189,7.494834,6.318651,5.083403,-4.649396,-2.606075,-0.637505,3.359176,-2.481874,0.020177,0.074906,0.062620,0.999777,-0.003187,0.016795,-0.012408,-0.445880,0.041183,0.073035,0.891157,5.414284,-7.962846,-127.215978
47113,2.694947,6.888998,6.054398,3.863205,-5.338934,-2.889031,-0.981902,3.803862,-1.357799,0.028558,0.068994,0.059672,0.999784,-0.004909,0.019018,-0.006789,-0.440956,0.025954,0.060416,0.895117,4.916086,-5.724517,-127.793982
47114,1.066948,5.625253,6.318260,3.703794,-3.549120,-3.002439,-1.153142,4.245113,-0.395904,0.012114,0.056592,0.062610,0.999756,-0.005765,0.021224,-0.001979,-0.440247,0.009407,0.045907,0.896653,4.253234,-3.284343,-127.820958
47115,-0.200333,3.240900,6.804560,2.467190,-1.338432,-2.815590,-1.215722,4.472019,0.340426,-0.000540,0.032820,0.067870,0.999730,-0.006078,0.022358,0.001702,-0.442661,-0.007856,0.030560,0.896134,3.539197,-0.743501,-127.447258
47116,-0.747491,1.945953,7.091559,1.635992,-0.391920,-2.615675,-1.005251,4.661621,0.815515,-0.005901,0.019790,0.070966,0.999707,-0.005026,0.023306,0.004077,-0.446975,-0.026356,0.015738,0.894019,2.965210,1.894297,-126.824403
47117,-1.364636,1.967214,7.173842,1.870604,-0.199921,-2.488211,-0.900972,4.834224,1.196754,-0.012028,0.019921,0.071953,0.999680,-0.004504,0.024169,0.005983,-0.452720,-0.045815,0.001037,0.890474,2.491543,4.626225,-126.001510
47118,-2.842327,1.728560,7.580116,2.335041,0.818390,-1.913891,-0.892584,4.999397,1.525660,-0.026651,0.017418,0.076405,0.999649,-0.004462,0.024994,0.007627,-0.459623,-0.065995,-0.013925,0.885549,2.080873,7.451343,-125.003474
47119,-4.074145,1.750599,7.466282,2.854820,1.516596,-1.753801,-0.777818,5.027248,1.807377,-0.039007,0.017441,0.075590,0.999636,-0.003889,0.025133,0.009036,-0.467405,-0.086536,-0.028340,0.879341,1.808633,10.293009,-123.852166
47120,-4.719125,1.812976,7.716022,2.991587,1.680773,-1.250849,-0.851067,5.029512,2.178094,-0.045429,0.017960,0.078241,0.999615,-0.004255,0.025144,0.010889,-0.476498,-0.106902,-0.042901,0.871597,1.594178,13.134325,-122.485973
47121,-6.434572,1.844187,7.929475,3.613486,2.731860,-0.477681,-0.928990,5.002515,2.381645,-0.062554,0.018063,0.080790,0.999606,-0.004644,0.025009,0.011907,-0.486154,-0.126927,-0.057595,0.862685,1.432757,15.961774,-120.993453
47122,-6.154569,1.518852,7.730788,2.938492,2.409517,-0.566432,-0.975088,4.889975,2.699454,-0.059834,0.014755,0.078712,0.999598,-0.004875,0.024447,0.013495,-0.496855,-0.146342,-0.071966,0.852373,1.375710,18.722817,-119.296681
47123,-6.064840,2.967344,7.520555,3.907757,1.399773,-0.598425,-0.911319,4.894860,3.161629,-0.059249,0.029076,0.076534,0.999565,-0.004556,0.024471,0.015806,-0.509061,-0.165984,-0.085680,0.840217,1.540298,21.478882,-117.287145
47124,-6.818159,3.036861,7.490066,3.998847,1.755809,-0.183491,-1.063755,4.962294,3.622116,-0.066838,0.029554,0.076412,0.999514,-0.005318,0.024807,0.018108,-0.522829,-0.185562,-0.099743,0.825995,1.839092,24.257855,-114.939663
47125,-8.505246,2.193957,8.783348,3.266530,2.760983,1.848370,-1.215640,4.866787,3.843979,-0.083292,0.020869,0.089746,0.999501,-0.006077,0.024330,0.019217,-0.537187,-0.204280,-0.113880,0.810390,2.243986,26.964826,-112.383158
47126,-9.318140,1.180827,9.589528,2.031769,3.135062,3.078921,-1.254882,4.525599,3.762461,-0.091189,0.010690,0.097905,0.999547,-0.006273,0.022625,0.018809,-0.550936,-0.221265,-0.127235,0.794558,2.739474,29.459827,-109.805818
47127,-9.515702,1.009446,10.369031,1.343309,2.621802,3.985086,-1.024016,3.881270,3.885389,-0.093301,0.008807,0.105466,0.999610,-0.005119,0.019404,0.019424,-0.564864,-0.236225,-0.137655,0.778574,3.533661,31.557189,-107.078667
47128,-8.723293,3.162555,10.861965,2.675395,0.748024,4.199678,-0.664779,3.184067,4.118712,-0.086122,0.030208,0.109895,0.999656,-0.003324,0.015919,0.020591,-0.579339,-0.249466,-0.144331,0.762431,4.727932,33.204817,-104.130269
47129,-8.470079,2.622815,11.475890,1.629673,0.176724,4.596282,-0.848437,2.681106,4.085670,-0.083672,0.025001,0.115777,0.999693,-0.004242,0.013404,0.020426,-0.593903,-0.260077,-0.150197,0.746378,5.901175,34.515991,-101.145769
47130,-8.943358,-1.600512,12.183900,-2.865478,0.993351,5.079467,-0.382215,2.040105,3.922788,-0.087851,-0.017505,0.122773,0.999754,-0.001911,0.010200,0.019612,-0.607404,-0.269408,-0.152548,0.731579,7.337129,35.415637,-98.251160
47131,-8.929019,0.556520,13.295511,-1.449520,-0.270737,6.143839,0.947668,1.169253,4.086417,-0.088591,0.003119,0.133493,0.999763,0.004738,0.005846,0.020430,-0.620083,-0.279593,-0.147096,0.718114,9.607262,35.731197,-95.276369
47132,-8.298051,5.687613,14.336783,2.708005,-2.238403,7.344505,1.458470,0.266037,4.865581,-0.084123,0.053791,0.143879,0.999677,0.007292,0.001330,0.024325,-0.635160,-0.288528,-0.135839,0.703471,12.418019,35.345199,-91.872089
47133,-7.213013,8.053657,14.231174,4.441008,-3.094555,7.218877,0.945246,-0.326505,5.385539,-0.074484,0.077878,0.142564,0.999625,0.004726,-0.001632,0.026924,-0.652763,-0.293907,-0.123659,0.687188,15.019253,34.428612,-88.265730
47134,-7.777453,3.941227,13.938938,0.035657,-1.594675,6.550280,0.088378,-0.779680,5.479505,-0.079357,0.037191,0.139099,0.999617,0.000442,-0.003898,0.027394,-0.671732,-0.294761,-0.112713,0.670215,17.005306,33.129406,-84.778201
47135,-7.286894,-1.152687,12.681395,-4.947798,-0.706827,3.980437,0.237342,-1.139691,5.107120,-0.073261,-0.013545,0.126382,0.999657,0.001187,-0.005698,0.025533,-0.688948,-0.294491,-0.100523,0.654615,18.778923,31.605390,-81.713307
47136,-7.113466,-0.952008,12.600317,-5.104045,-0.659939,3.743528,0.867111,-1.371354,4.547590,-0.071747,-0.011692,0.125465,0.999709,0.004335,-0.006856,0.022736,-0.703084,-0.295156,-0.086236,0.641186,20.578842,29.984234,-79.160620
47137,-6.758538,1.917770,13.211763,-2.869362,-1.044497,4.835253,0.890643,-1.597989,3.972889,-0.068994,0.017229,0.131650,0.999761,0.004453,-0.007989,0.019863,-0.715066,-0.294778,-0.071877,0.629778,22.084614,28.299648,-77.109433
47138,-7.683378,3.724624,14.020452,-1.935119,-0.265716,6.485834,0.378877,-1.894821,3.490089,-0.078789,0.035618,0.139533,0.999801,0.001894,-0.009473,0.017449,-0.726074,-0.291328,-0.058749,0.620075,23.041309,26.525899,-75.494250
47139,-9.521425,5.328025,15.072700,-1.465122,1.385989,8.684035,-0.324181,-2.431660,3.282632,-0.097896,0.051931,0.149463,0.999790,-0.001621,-0.012157,0.016412,-0.737322,-0.283485,-0.046129,0.611445,23.416477,24.500048,-74.183570
47140,-10.861489,5.148208,15.376004,-2.337702,3.067070,9.317632,-0.919626,-3.289143,3.398449,-0.111983,0.050299,0.151704,0.999710,-0.004598,-0.016444,0.016991,-0.749596,-0.270706,-0.031982,0.603160,23.333612,21.993714,-73.048031
47141,-10.619499,6.115630,15.422260,-1.646974,3.828308,9.437326,-1.456330,-4.244033,3.534828,-0.110500,0.060338,0.151467,0.999592,-0.007281,-0.021217,0.017672,-0.762633,-0.252873,-0.015668,0.595147,22.836561,18.959037,-72.072852
47142,-7.892410,3.285533,13.771305,-3.158919,2.526402,5.881264,-2.050300,-5.018072,3.519918,-0.082918,0.032815,0.135329,0.999478,-0.010250,-0.025086,0.017597,-0.775727,-0.230232,0.001824,0.587569,21.897835,15.528966,-71.261775
47143,-4.221541,-0.030461,11.857732,-4.600502,-0.026363,1.901599,-1.939807,-5.341935,3.139448,-0.045362,0.000142,0.117394,0.999473,-0.009697,-0.026705,0.015694,-0.786755,-0.206835,0.020456,0.581220,20.920038,12.019547,-70.683849
47144,-2.390321,-2.084594,10.186158,-5.466395,-1.108553,-0.719589,-1.487654,-5.421908,2.586921,-0.026389,-0.020422,0.101322,0.999521,-0.007437,-0.027105,0.012933,-0.794910,-0.184826,0.040126,0.576495,20.118383,8.586943,-70.375726
47145,0.807402,-2.245531,8.623649,-4.184662,-3.294098,-2.623475,-0.734879,-5.159879,1.836070,0.006048,-0.022076,0.086492,0.999618,-0.003674,-0.025796,0.009179,-0.799571,-0.166559,0.060195,0.573864,19.691731,5.445813,-70.389294
47146,-1.450915,1.428866,10.386504,-2.259212,-0.026336,0.526479,-0.273929,-4.851522,1.278615,-0.017114,0.014327,0.103451,0.999684,-0.001370,-0.024255,0.006392,-0.801785,-0.151065,0.079849,0.572664,19.513852,2.577828,-70.628304
47147,-2.021214,3.857090,10.403913,-0.403937,1.761824,1.318802,-0.634231,-4.921370,0.972643,-0.022950,0.038792,0.103374,0.999680,-0.003171,-0.024604,0.004863,-0.802855,-0.133957,0.098467,0.572524,19.138289,-0.270629,-71.031729
47148,-0.893811,4.941323,9.591119,1.122480,1.651438,0.826595,-1.318837,-4.857533,0.835858,-0.011466,0.049999,0.095325,0.999675,-0.006593,-0.024285,0.004179,-0.803505,-0.114261,0.114717,0.572856,18.391072,-3.063442,-71.469647
47149,0.371928,3.199830,8.018206,0.464321,0.454472,-1.196883,-1.831624,-4.551727,0.761239,0.001774,0.032740,0.079940,0.999692,-0.009157,-0.022756,0.003806,-0.803899,-0.093354,0.128152,0.573244,17.366668,-5.682332,-71.852320
47150,-0.309853,2.027551,7.432827,-0.581186,1.106108,-2.204674,-1.934791,-4.203991,0.681129,-0.004728,0.020978,0.074040,0.999727,-0.009673,-0.021018,0.003405,-0.803866,-0.073022,0.139783,0.573522,16.292428,-8.104229,-72.174283
47151,0.710393,0.616674,6.423442,-1.193577,-0.046960,-3.432102,-1.933242,-3.943527,0.509052,0.005820,0.006804,0.064294,0.999756,-0.009665,-0.019716,0.002545,-0.803102,-0.053530,0.150235,0.574100,15.234139,-10.360757,-72.507634
47152,1.076776,0.105404,7.057984,-1.714972,-0.225808,-2.885412,-1.528390,-3.562605,0.329975,0.009506,0.001611,0.070746,0.999811,-0.007641,-0.017812,0.001650,-0.801654,-0.036863,0.160208,0.574739,14.421630,-12.385621,-72.849655
47153,-1.109077,2.222986,8.366796,-0.791510,2.980856,-1.648473,-1.149612,-3.525408,0.244741,-0.012589,0.022695,0.083325,0.999827,-0.005748,-0.017626,0.001224,-0.799629,-0.021880,0.171045,0.575203,13.842851,-14.381314,-73.212554
47154,0.419863,2.949492,7.270183,0.656880,1.922291,-2.223386,-1.574481,-3.670905,0.037977,0.002861,0.030067,0.072527,0.999801,-0.007872,-0.018353,0.000190,-0.796634,-0.004945,0.181157,0.576655,13.064309,-16.435066,-73.693629
47155,4.234198,-0.947785,5.158939,-1.258844,-3.065584,-3.942974,-1.760564,-3.417997,-0.307187,0.041437,-0.009083,0.052384,0.999814,-0.008802,-0.017089,-0.001536,-0.792569,0.011687,0.189643,0.579425,12.238052,-18.309808,-74.318567
47156,4.664863,-2.047367,4.949529,-2.143045,-3.662063,-4.116808,-1.107364,-2.877002,-0.607163,0.045867,-0.020337,0.050272,0.999877,-0.005537,-0.014384,-0.003036,-0.787941,0.023881,0.197841,0.582613,11.834438,-19.852473,-75.037577
47157,3.400639,0.305578,6.402255,-0.730879,-1.191389,-2.692967,-0.715050,-2.459729,-0.856986,0.033229,0.003142,0.064423,0.999909,-0.003575,-0.012298,-0.004285,-0.782874,0.033058,0.205521,0.586325,11.706090,-21.134524,-75.853076
47162,2.471101,0.269138,6.890889,-1.195032,0.268541,-2.594128,-0.873861,-2.270065,-1.541733,0.104370,0.016803,0.350491,0.997409,-0.021828,-0.056703,-0.038510,-0.745994,0.075631,0.237810,0.617430,11.670163,-26.628455,-81.997252
47173,4.257627,3.138559,6.410604,1.655865,-1.243461,-1.777614,-1.326475,0.398262,-3.226968,0.539877,0.303236,0.670576,0.981407,-0.072503,0.021768,-0.176382,-0.623170,0.073456,0.185586,0.756189,11.612555,-20.022970,-103.073426
47174,3.190157,-0.019484,8.800609,-1.704054,0.262740,-0.612070,-2.417140,1.850893,-2.434754,0.032717,0.000471,0.087703,0.999810,-0.012085,0.009254,-0.012173,-0.614702,0.071746,0.171516,0.766535,10.631716,-18.714602,-104.302995
47176,4.338118,-4.711177,7.097066,-6.285227,-0.565679,-2.632305,-2.469619,2.185978,-4.238526,0.085874,-0.094363,0.142387,0.998558,-0.024684,0.021849,-0.042365,-0.583375,0.062889,0.141916,0.797232,9.126386,-15.417750,-108.848288
47178,1.157537,-5.565529,8.680183,-5.995723,3.182192,-1.966456,-3.065181,3.104719,-6.983260,0.021001,-0.107449,0.176264,0.996612,-0.030617,0.031012,-0.069754,-0.528326,0.045997,0.103276,0.841481,7.321879,-10.750819,-116.444381
47181,-1.476756,1.613163,9.579937,1.630054,2.225616,-0.387302,0.052804,2.812832,-6.271198,-0.027383,0.051276,0.288833,0.994690,0.000791,0.042118,-0.093901,-0.450995,0.000314,0.085388,0.888432,8.736855,-4.449289,-126.512609
47182,1.546278,17.675837,6.681612,12.488522,-10.654829,-0.328831,1.279975,2.626591,-2.611708,0.018651,0.176097,0.067714,0.999808,0.006399,0.013132,-0.013058,-0.440466,-0.015318,0.085106,0.893595,9.542697,-2.728139,-127.749005
47183,3.056264,17.938891,6.131633,11.471491,-12.462901,-0.768150,-0.776578,3.397876,-1.112131,0.032588,0.179446,0.060077,0.999833,-0.003883,0.016988,-0.005560,-0.436967,-0.029223,0.074030,0.895949,9.102794,-0.706609,-128.057953
47186,-1.332162,2.314565,7.032168,1.644822,0.013811,-2.476473,-1.231340,4.013082,0.736502,-0.028029,0.072989,0.211566,0.997957,-0.018458,0.060155,0.011040,-0.451075,-0.074074,0.031309,0.888856,7.073633,5.937117,-125.819118
47191,-4.470083,1.169214,10.204320,1.390364,2.128678,1.084956,-0.493847,3.265915,1.148072,-0.182671,0.059253,0.525526,0.996181,-0.012330,0.081544,0.028665,-0.478502,-0.139649,-0.014533,0.866789,6.441504,14.832887,-121.359764
47192,-1.917608,0.817478,7.776380,-0.143674,-0.196340,-1.765644,-1.489757,2.543864,1.734173,-0.018259,0.008594,0.077937,0.999854,-0.007448,0.012719,0.008670,-0.486846,-0.147196,-0.025879,0.860607,5.903354,16.173900,-120.166720
47193,-0.897468,0.569855,6.021621,-0.476123,-0.769072,-3.765420,-1.221547,2.895637,2.004355,-0.008161,0.005982,0.060302,0.999826,-0.006107,0.014477,0.010021,-0.495953,-0.156884,-0.036720,0.853270,5.599385,17.707081,-118.793542
47194,-0.668842,1.497342,5.074675,0.397830,-1.377830,-4.676242,-0.974641,3.600460,2.269597,-0.005946,0.015151,0.050785,0.999762,-0.004873,0.018001,0.011347,-0.505664,-0.170179,-0.048032,0.844414,5.543735,19.632080,-117.210876
47196,-4.999269,2.429053,6.130789,2.563805,1.278951,-2.051467,-0.454230,4.521807,2.862084,-0.095662,0.046371,0.126794,0.998558,-0.004540,0.045196,0.028607,-0.527780,-0.207114,-0.069810,0.820779,6.560803,24.436101,-113.093972
47197,-11.242735,2.735088,9.636452,3.650931,4.866495,3.960329,-0.472935,4.184074,2.956931,-0.110770,0.025936,0.098631,0.999669,-0.002364,0.020918,0.014783,-0.538813,-0.223976,-0.079716,0.808183,7.229430,26.611119,-110.905603
47206,-7.049343,2.935025,11.216935,0.739856,0.207367,3.719196,-0.361123,1.805263,3.371992,-0.582354,0.189805,1.054906,0.985093,-0.016170,0.080833,0.150985,-0.650353,-0.289003,-0.101419,0.695149,16.127529,32.256892,-89.121693
47207,-7.435217,7.238211,13.872604,2.870160,-1.598591,7.195695,0.687053,-0.755082,5.709734,-0.076892,0.069734,0.138682,0.999579,0.003435,-0.003775,0.028545,-0.669355,-0.291397,-0.088272,0.677687,18.366749,30.872036,-85.596870
47208,-8.329751,2.852666,14.225621,-1.976567,-0.185173,6.798170,0.061133,-1.277299,5.553446,-0.084952,0.026140,0.141725,0.999594,0.000306,-0.006386,0.027763,-0.688413,-0.289573,-0.075665,0.660688,19.996782,29.131298,-82.399690
47209,-9.306996,-0.633432,14.002223,-5.817086,1.250014,5.924310,0.403469,-1.845795,5.003955,-0.094155,-0.008962,0.139140,0.999642,0.002017,-0.009228,0.025017,-0.704850,-0.286629,-0.060704,0.646023,21.460786,27.123638,-79.778528
47210,-9.431974,1.590722,15.167350,-4.564452,1.197762,7.485465,0.711049,-2.548738,4.566446,-0.096565,0.013183,0.150502,0.999652,0.003555,-0.012742,0.022830,-0.719146,-0.282154,-0.042860,0.633547,22.778267,24.781583,-77.690262
47211,-10.133279,4.346468,15.851913,-2.874972,2.244121,9.147197,0.635269,-3.389173,4.540603,-0.104945,0.040609,0.156893,0.999594,0.003176,-0.016944,0.022700,-0.733102,-0.274533,-0.022237,0.621851,23.841404,21.965024,-75.920195
47212,-9.000420,7.290110,15.971663,-0.467157,2.293821,9.774518,-0.046680,-4.225515,4.476237,-0.094952,0.070850,0.157728,0.999526,-0.000233,-0.021124,0.022378,-0.747241,-0.261556,-0.000739,0.610917,24.313745,18.704225,-74.472614
47213,-8.944922,8.717068,16.143167,0.407667,3.485679,10.290598,-1.240998,-4.982775,4.211810,-0.095246,0.086195,0.158570,0.999449,-0.006204,-0.024909,0.021055,-0.761366,-0.241544,0.019595,0.601327,23.915308,15.108964,-73.385686
47217,-4.405644,-0.484338,11.519195,-5.435028,1.526747,1.128354,-1.767631,-6.225931,2.885073,-0.230583,-0.015948,0.434856,0.989975,-0.035234,-0.124102,0.057509,-0.794513,-0.136382,0.106597,0.582054,19.927025,-0.608609,-72.559337
47221,0.941338,3.800361,6.675091,1.470075,0.392940,-2.240206,-1.535279,-5.579273,0.698266,0.005835,0.160393,0.263994,0.993213,-0.030636,-0.111333,0.013934,-0.789639,-0.044668,0.178380,0.585368,16.680513,-13.262823,-75.052731
47222,4.013352,-0.954253,2.626561,-0.751489,-3.632826,-6.626776,-2.188241,-4.144688,0.179262,0.039585,-0.009213,0.027192,0.999725,-0.010940,-0.020722,0.000896,-0.786760,-0.023696,0.188318,0.587354,15.566518,-15.574184,-75.627915
47225,3.027255,-0.752811,4.231047,-1.367250,-2.068581,-5.179478,-1.215794,-2.706691,-0.428421,0.085419,-0.020782,0.130863,0.998989,-0.018231,-0.040587,-0.006424,-0.775046,0.013442,0.209179,0.596126,14.067371,-19.893556,-77.610396
47229,-0.902830,1.074266,8.809283,-1.757757,3.879690,-1.978490,-0.920949,-2.246718,-1.832646,-0.050091,0.051093,0.349437,0.998150,-0.018408,-0.044907,-0.036630,-0.742221,0.046973,0.233076,0.626560,14.073234,-23.881754,-83.330615
47230,-1.990320,-0.317499,9.989991,-3.274745,5.529565,-1.904075,-1.795822,-3.497721,-3.076412,-0.021683,-0.001956,0.099552,0.999688,-0.008978,-0.017487,-0.015380,-0.727876,0.061029,0.241053,0.639035,14.045747,-25.398547,-85.743008
47231,2.664033,-1.655154,6.306026,-3.159538,-0.031031,-3.519008,-1.343612,-3.757619,-3.533469,0.025155,-0.016578,0.063654,0.999645,-0.006717,-0.018786,-0.017665,-0.711412,0.073692,0.251413,0.652115,14.496008,-26.989538,-88.516201
47235,4.250094,3.375299,4.839205,1.847380,-1.141049,-2.874743,-1.173989,-2.904439,-3.783851,0.168302,0.126875,0.200342,0.995178,-0.023442,-0.057995,-0.075555,-0.642491,0.109026,0.281674,0.704258,17.428285,-31.031602,-100.125116
47236,6.144981,2.763641,2.148504,1.199346,-4.081841,-4.163668,-1.453031,-1.574884,-3.448457,0.061745,0.026731,0.021774,0.999794,-0.007265,-0.007874,-0.017241,-0.627228,0.114396,0.283403,0.716367,17.892441,-31.293024,-102.640469
47237,6.720265,3.279201,1.585892,1.487806,-4.938515,-4.171485,-1.345428,-0.712420,-3.433064,0.067697,0.031740,0.015884,0.999824,-0.006727,-0.003562,-0.017164,-0.613065,0.116330,0.282712,0.728487,18.323262,-31.073089,-104.969318
47238,6.758686,3.471181,1.153918,1.514720,-5.322532,-4.480636,-1.845803,0.203864,-3.600288,0.068210,0.033592,0.011156,0.999795,-0.009228,0.001019,-0.018000,-0.599063,0.116175,0.277373,0.742085,18.399134,-30.314876,-107.198531
47239,8.736465,1.833188,0.384149,-0.705975,-7.280280,-4.682340,-2.356791,1.346786,-4.058050,0.087735,0.016593,0.003049,0.999702,-0.011783,0.006733,-0.020288,-0.584351,0.112622,0.266849,0.758051,18.158306,-28.856238,-109.454226
47252,-0.914701,4.583815,8.171708,2.916085,0.383931,-1.197122,-1.423110,6.571719,-2.101954,0.388729,0.655626,0.905372,0.896974,-0.089303,0.412389,-0.131902,-0.524522,-0.194026,-0.054725,0.827185,7.012461,22.234641,-113.862349
47254,-2.530871,-0.358437,10.810182,-2.180789,-1.203124,1.011109,-1.983990,2.439459,1.589996,-0.045246,-0.003610,0.217446,0.999379,-0.019836,0.024390,0.015897,-0.539947,-0.204572,-0.080827,0.812450,5.663911,24.815181,-111.537575
47261,-5.955632,2.192957,10.548200,0.728969,-0.277431,2.460056,-0.402594,2.543881,2.475575,-0.361177,0.131270,0.770285,0.992194,-0.014054,0.088804,0.086420,-0.601939,-0.274314,-0.121958,0.739965,10.352476,33.558512,-98.616121
47262,-6.200595,8.157203,9.635908,6.002139,-1.748232,2.786963,-0.498718,1.582248,3.704125,-0.062742,0.080655,0.096652,0.999794,-0.002493,0.007911,0.018519,-0.615283,-0.280885,-0.123452,0.726147,11.582065,34.044971,-95.892116
47263,-9.339972,4.755470,11.764889,2.158377,0.560279,5.784584,-0.148635,1.122974,4.487323,-0.093774,0.045541,0.118140,0.999732,-0.000743,0.005614,0.022435,-0.630968,-0.287169,-0.121115,0.710454,13.288510,34.116613,-92.687990
47264,-10.872986,5.143969,14.294003,1.423149,0.597857,8.803885,0.685898,0.109897,5.132287,-0.109915,0.048138,0.143169,0.999665,0.003429,0.000549,0.025659,-0.647979,-0.292718,-0.111612,0.694250,15.598324,33.441368,-89.236430
47265,-10.904567,7.003719,16.375438,1.932030,-0.271682,10.977097,1.199271,-1.209851,6.113976,-0.112087,0.065660,0.163485,0.999497,0.005995,-0.006048,0.030565,-0.667834,-0.295637,-0.094529,0.676507,18.298468,31.753029,-85.493867
47266,-10.379678,9.105980,18.386056,2.570033,-1.106316,13.006497,0.904879,-2.404218,6.797537,-0.108994,0.086584,0.182970,0.999340,0.004523,-0.012018,0.033980,-0.690221,-0.293527,-0.073326,0.657313,20.706605,29.150139,-81.762792
47271,-10.633255,2.512451,17.999884,-5.515083,3.220640,10.147278,-0.146059,-5.595765,5.709102,-0.659815,0.040230,0.813018,0.980089,-0.003627,-0.138964,0.141779,-0.781095,-0.204053,0.063289,0.586726,23.389388,8.081264,-72.149255
47272,-7.371275,-4.032702,10.164062,-9.261654,3.923544,-1.287640,-3.019051,-7.999598,3.195796,-0.077073,-0.040031,0.099208,0.998959,-0.015090,-0.039984,0.015973,-0.790224,-0.167584,0.088862,0.582723,21.652579,3.145258,-72.209622
47275,-0.359168,-2.892911,5.671015,-4.681741,-0.771202,-5.566003,-1.059554,-7.104989,0.794632,-0.027842,-0.084355,0.169121,0.994129,-0.015862,-0.106366,0.011896,-0.785805,-0.090896,0.165144,0.589047,19.962135,-8.769330,-75.257329
47278,1.559304,3.021766,3.732157,1.799256,-0.104481,-5.100167,-2.709303,-5.232871,-0.074176,0.038118,0.095146,0.111377,0.996096,-0.040587,-0.078391,-0.001111,-0.772895,-0.012536,0.202064,0.601371,15.952037,-17.293759,-78.212557
47279,0.667749,-2.804153,3.597974,-3.641996,-0.498847,-7.030879,-1.795924,-3.848262,-1.096490,0.005828,-0.027750,0.036347,0.999760,-0.008979,-0.019240,-0.005482,-0.765658,0.004901,0.211401,0.607498,15.314160,-19.249118,-79.471330
47284,1.031777,-2.382107,5.006448,-3.686624,0.397121,-5.580826,-1.267067,-3.306687,-3.793933,0.019527,-0.113901,0.256494,0.991595,-0.031588,-0.082435,-0.094582,-0.684300,0.059369,0.253974,0.680960,17.030653,-25.368809,-93.579870
47285,3.702430,-0.585282,3.522934,-1.792982,-1.822320,-5.349183,-1.893587,-1.490214,-6.080993,0.036566,-0.006634,0.035563,0.999465,-0.009466,-0.007450,-0.030400,-0.660805,0.063204,0.254238,0.703353,17.625975,-25.145072,-97.533632
47286,4.833623,0.639680,3.002595,-0.827655,-3.008974,-5.012249,-1.950819,-0.883912,-6.491911,0.048383,0.005121,0.030186,0.999416,-0.009752,-0.004419,-0.032453,-0.635878,0.064516,0.252185,0.726567,18.210945,-24.485748,-101.600041
47287,6.702416,2.554889,3.095113,0.318302,-4.822907,-3.676520,-2.145042,-0.009733,-6.777786,0.067844,0.023589,0.030694,0.999368,-0.010723,-0.000049,-0.033882,-0.610181,0.062830,0.246420,0.750339,18.606615,-23.266585,-105.626700
47290,2.402282,4.724392,6.439124,2.470553,-0.606515,-1.881424,-3.436750,1.637242,-7.061063,0.091745,0.142344,0.183739,0.992769,-0.051427,0.024499,-0.105661,-0.529377,0.049475,0.197685,0.823549,16.592606,-16.905252,-117.016963
47291,-3.654547,3.891406,10.702279,3.916696,5.394267,0.113764,-4.609309,1.914435,-6.699983,-0.034140,0.042542,0.106405,0.999128,-0.023040,0.009569,-0.033490,-0.502117,0.047169,0.175087,0.845576,14.908436,-14.809004,-120.543165
47295,0.272701,6.092477,7.624307,4.317343,-1.171094,-1.150790,-2.544786,1.743398,-4.259383,0.042717,0.256026,0.291014,0.994474,-0.050802,0.034804,-0.085031,-0.431272,0.028264,0.117604,0.894078,10.841921,-8.741558,-129.329082
47297,4.317002,9.361360,4.772521,4.327128,-8.071219,-3.095311,-2.648051,2.620197,-0.477666,0.089614,0.189203,0.088137,0.999295,-0.026474,0.026196,-0.004776,-0.429100,0.015731,0.082619,0.899333,7.803324,-5.693038,-129.374085
47299,4.608373,3.895781,3.580001,0.007350,-5.557322,-5.532930,-1.860632,4.026381,1.280082,0.093892,0.080378,0.066361,0.998935,-0.018600,0.040250,0.012796,-0.443257,-0.011383,0.048281,0.895021,5.540030,-1.284983,-127.368570
47300,3.344905,4.721518,3.575568,1.510950,-5.308230,-5.837905,-1.286702,5.359029,2.043105,0.033899,0.047785,0.034545,0.999568,-0.006433,0.026791,0.010214,-0.453613,-0.031985,0.030726,0.890094,4.804215,1.665503,-125.921197
47302,1.525072,4.275550,3.378293,2.278538,-3.780531,-6.273889,-0.882670,6.638530,2.816445,0.032425,0.086987,0.064691,0.997362,-0.008819,0.066327,0.028140,-0.479862,-0.086006,-0.006437,0.873095,4.139720,8.995711,-122.086930
47304,-6.878437,2.452247,5.179448,4.464584,3.705694,-3.006010,-0.459189,8.226879,3.689589,-0.130154,0.044656,0.114298,0.995927,-0.004586,0.082157,0.036846,-0.510030,-0.155366,-0.046689,0.844720,4.803079,18.065689,-116.990023
47305,-17.227763,-0.310034,10.595498,4.242242,11.851968,6.012382,0.204003,7.942269,3.964680,-0.167784,-0.006569,0.112673,0.999015,0.001020,0.039698,0.019817,-0.524302,-0.190171,-0.062953,0.827635,5.910070,22.383057,-114.121679
47310,-10.353309,1.099436,12.501389,0.616390,3.430893,6.052210,-0.417678,3.770076,2.896654,-0.458481,0.027137,0.669831,0.992890,-0.010417,0.094028,0.072245,-0.576642,-0.265570,-0.106749,0.765220,9.698499,31.975073,-103.214441
47311,-6.756318,3.730895,11.802513,1.360874,-1.236740,4.168639,-0.614014,2.803939,3.103961,-0.066473,0.036636,0.118849,0.999777,-0.003070,0.014019,0.015519,-0.587753,-0.276155,-0.113028,0.752004,10.654391,33.243928,-100.789898
47313,-7.692911,2.684624,12.564863,0.026171,-0.817920,5.139764,-1.058463,1.973772,3.292889,-0.150583,0.051375,0.253739,0.999207,-0.010582,0.019732,0.032920,-0.612822,-0.288216,-0.123412,0.725362,12.234882,34.707102,-95.777935
47315,-7.382839,0.881592,12.061289,-1.969741,-0.670826,4.201966,-0.566581,1.160867,3.457362,-0.145368,0.013952,0.242836,0.999319,-0.005665,0.011606,0.034566,-0.637766,-0.297202,-0.124581,0.699575,14.491891,35.081196,-90.689794
47320,-9.615885,4.639097,14.420327,-0.400012,0.585217,8.081933,0.168308,-1.842995,5.352722,-0.537992,0.159380,0.697827,0.989993,0.004194,-0.045921,0.133371,-0.729355,-0.281250,-0.051468,0.621523,22.488047,25.130616,-75.797766
47321,-10.780072,-1.482119,13.394231,-7.677903,3.300635,5.284101,-0.327020,-4.135889,4.844519,-0.110142,-0.017254,0.131707,0.999492,-0.001635,-0.020676,0.024218,-0.745594,-0.268320,-0.030542,0.609230,23.019248,21.868704,-73.999392
47322,-10.558843,2.085201,13.220618,-4.734849,4.279231,5.992592,0.180258,-4.842695,4.265585,-0.109158,0.018431,0.129609,0.999479,0.000901,-0.024209,0.021324,-0.758730,-0.254717,-0.006202,0.599507,23.540398,18.350040,-72.772598
47324,-8.968689,5.514238,13.210403,-1.659477,4.817990,6.279644,-1.162483,-5.754239,3.623875,-0.198016,0.106308,0.251914,0.997621,-0.011616,-0.057497,0.036210,-0.782012,-0.210993,0.039704,0.585118,22.523357,10.650267,-71.482666
47326,-4.165953,-1.685159,9.863807,-5.876765,1.320442,-0.808221,-2.216584,-6.248265,2.656066,-0.094583,-0.031815,0.192317,0.997451,-0.022147,-0.062430,0.026538,-0.797796,-0.155492,0.081065,0.576864,20.002319,2.868765,-71.233336
47327,0.323443,-4.477455,7.233259,-6.179063,-2.528267,-4.531795,-0.692792,-6.005637,1.577824,0.001410,-0.044508,0.072548,0.999512,-0.003463,-0.030023,0.007888,-0.800086,-0.134670,0.104199,0.575212,19.596315,-0.676586,-71.544452
47331,0.892528,4.095173,8.311043,1.289895,0.577344,-0.630039,-1.862295,-5.316212,0.554462,-0.001235,0.176199,0.327202,0.993599,-0.037166,-0.106097,0.011066,-0.795380,-0.041714,0.168525,0.580715,15.583722,-12.687624,-74.010313
47333,3.879803,-2.233266,3.783543,-2.235326,-3.662855,-5.822945,-2.066950,-4.100863,-0.395522,0.074210,-0.043344,0.079666,0.998938,-0.020662,-0.040994,-0.003954,-0.786234,-0.002047,0.188754,0.588391,13.638300,-17.121609,-75.682479
47335,-0.456603,0.637793,7.658383,-1.756677,2.566574,-2.772435,-1.369647,-3.582159,-1.516717,-0.014388,0.015040,0.152519,0.999150,-0.013693,-0.035811,-0.015163,-0.769955,0.027011,0.208638,0.602419,12.961191,-20.721618,-78.459311
47338,1.766462,0.324400,6.158863,-1.157709,0.625345,-3.536999,-1.485794,-3.766616,-2.713485,0.042917,0.012003,0.187131,0.997328,-0.022267,-0.056449,-0.040666,-0.731086,0.069734,0.239187,0.635169,12.979987,-25.996658,-84.976758
47340,3.518755,1.411135,4.672697,0.336124,-0.881167,-3.870381,-1.477803,-3.101501,-3.462809,0.068395,0.027229,0.095189,0.998811,-0.014772,-0.031003,-0.034614,-0.699830,0.091942,0.254549,0.661052,13.686718,-28.544314,-90.232821
47342,6.590981,1.960648,2.178014,1.130251,-4.568661,-4.348380,-1.430275,-1.833099,-3.882903,0.132404,0.034720,0.045466,0.998976,-0.014298,-0.018325,-0.038816,-0.667519,0.104173,0.261183,0.689456,14.713662,-29.494090,-95.745188
47343,6.602453,0.642655,1.515884,-0.392192,-4.950594,-5.161330,-1.937753,-0.437217,-4.479864,0.066115,0.005094,0.015250,0.999700,-0.009688,-0.002186,-0.022397,-0.650320,0.106305,0.258188,0.706485,15.023949,-29.079074,-98.658302
47350,2.339716,1.195170,6.043195,-0.187786,0.084036,-3.247649,-3.749700,2.531303,-6.450232,0.219997,0.091188,0.393297,0.962220,-0.129583,0.087477,-0.222908,-0.477262,0.067538,0.123574,0.867404,8.872430,-13.598653,-123.419156
47351,-1.219638,-0.967088,8.502794,-0.119389,3.684946,-1.995131,-2.636360,3.654356,-5.563615,-0.010881,-0.008232,0.085350,0.999359,-0.013179,0.018268,-0.027812,-0.454233,0.054527,0.105149,0.882974,7.974225,-11.058845,-126.327433
47356,0.106382,6.251186,10.405812,4.747768,-2.086581,1.149381,-1.198472,2.603580,-1.355439,0.049610,0.326739,0.508366,0.996860,-0.029930,0.065021,-0.033851,-0.428298,0.007164,0.050571,0.902193,4.890269,-3.224334,-129.347504
47357,5.621299,2.550708,6.785601,-1.795327,-5.385418,-2.607276,-1.145433,2.553886,0.621197,0.056992,0.026069,0.066983,0.999897,-0.005727,0.012769,0.003106,-0.431698,-0.001760,0.039878,0.901135,4.210831,-1.791287,-128.871411
47358,6.118799,3.053062,5.523547,-1.669154,-6.379115,-4.000292,-0.902171,3.299138,1.027324,0.061928,0.031093,0.054079,0.999841,-0.004511,0.016495,0.005136,-0.436962,-0.014438,0.028670,0.898907,3.678744,0.051654,-128.149276
47360,4.583186,6.229051,3.919043,1.949933,-7.414100,-5.767466,-0.874851,4.663289,2.141414,0.092446,0.127210,0.072975,0.998645,-0.008745,0.046612,0.021404,-0.457151,-0.051827,0.000669,0.887877,2.795921,5.245346,-125.385752
47361,1.341354,5.939502,2.403175,3.879529,-4.653178,-7.333499,-1.382924,6.154411,3.341339,0.013140,0.059779,0.023212,0.999363,-0.006913,0.030766,0.016703,-0.472112,-0.075914,-0.018674,0.878065,2.254399,8.681784,-123.297453
47362,-2.150142,4.170001,1.243384,4.478250,-0.615728,-8.045625,-1.447932,7.203969,4.056559,-0.021883,0.041351,0.012917,0.999120,-0.007238,0.036009,0.020277,-0.489418,-0.104395,-0.040494,0.864830,1.888480,12.721061,-120.777339
47363,-7.746811,2.794819,2.550585,5.694879,4.594925,-5.257882,-1.378934,8.152979,4.580441,-0.076964,0.026371,0.028465,0.998883,-0.006892,0.040750,0.022894,-0.507787,-0.137052,-0.063958,0.848103,1.842677,17.302892,-117.898926
47364,-14.994617,-1.015074,4.749330,4.493451,11.760030,-0.339279,-0.747301,8.368300,4.902120,-0.147479,-0.013594,0.053747,0.998818,-0.003735,0.041825,0.024501,-0.525845,-0.172002,-0.084947,0.828665,2.479049,21.987299,-114.722437
47365,-19.255170,0.506084,10.202463,5.234719,12.339410,7.367389,-0.177844,7.572222,4.716207,-0.188557,0.000677,0.109214,0.999005,-0.000889,0.037849,0.023573,-0.541842,-0.204720,-0.101443,0.808830,3.689585,26.174023,-111.505066
47366,-19.394901,1.403818,13.838226,4.023421,9.920259,11.514237,-0.401823,5.699988,4.158201,-0.190142,0.010343,0.143815,0.999376,-0.002009,0.028494,0.020787,-0.555882,-0.228629,-0.114199,0.791001,4.833775,29.252159,-108.542032
47367,-13.699029,1.876869,14.434051,1.898255,4.118439,9.653020,-1.164385,3.873881,3.355701,-0.134461,0.017348,0.146858,0.999655,-0.005821,0.019367,0.016777,-0.568125,-0.242555,-0.125694,0.776274,5.402650,31.291900,-106.087937
47368,-8.574826,-1.977138,12.169373,-2.798467,1.738156,4.838524,-1.360960,2.777167,3.024688,-0.083743,-0.020214,0.123002,0.999766,-0.006804,0.013885,0.015122,-0.579681,-0.251283,-0.135174,0.763253,5.796419,32.704088,-103.865546
47369,-4.881191,-0.330732,10.982479,-1.916774,-1.513268,1.959197,-0.455939,2.485524,3.288445,-0.047382,-0.003843,0.110428,0.999785,-0.002280,0.012427,0.016441,-0.591043,-0.261622,-0.139957,0.750090,6.872094,33.912145,-101.428894
47370,-5.286824,4.725814,12.381118,2.476517,-3.424595,3.814827,-0.093207,2.480080,3.941874,-0.052246,0.046282,0.124440,0.999729,-0.000466,0.012399,0.019708,-0.604096,-0.273306,-0.142446,0.734902,8.484654,35.016221,-98.478130
47371,-8.041511,4.400824,14.121383,1.797488,-2.163711,6.786179,-0.238987,2.084473,4.454531,-0.079894,0.042394,0.141997,0.999697,-0.001195,0.010421,0.022270,-0.619166,-0.283337,-0.143483,0.718168,10.279635,35.778055,-95.141651
47372,-10.237351,1.876473,15.862389,-1.340234,-0.946099,9.087687,0.109815,1.145029,4.910409,-0.101881,0.016172,0.159218,0.999682,0.000549,0.005725,0.024549,-0.635667,-0.291191,-0.139634,0.701169,12.426393,35.864491,-91.574772
47373,-11.006839,3.603563,17.347719,-0.643662,-1.301424,10.993887,1.040323,-0.247387,5.606014,-0.111218,0.032026,0.173514,0.999593,0.005201,-0.001237,0.028026,-0.653761,-0.297428,-0.126970,0.684114,15.220649,34.957229,-87.780933
47374,-10.085452,6.379052,18.248095,1.085386,-2.386147,11.830790,0.959682,-1.555048,6.060472,-0.104123,0.059794,0.181973,0.999499,0.004798,-0.007774,0.030297,-0.673763,-0.298913,-0.109531,0.666857,17.847086,33.110803,-84.064923
47375,-10.290586,6.473936,18.218349,0.456055,-1.412732,12.037007,0.074134,-2.636734,6.065344,-0.107193,0.061464,0.180812,0.999453,0.000371,-0.013181,0.030321,-0.694989,-0.293529,-0.091259,0.650002,19.635590,30.559782,-80.755231
47376,-11.182327,2.395654,16.305599,-3.670135,1.290047,9.717802,-0.621632,-3.563802,5.770457,-0.115342,0.021165,0.160953,0.999420,-0.003108,-0.017816,0.028847,-0.715914,-0.282218,-0.072376,0.634494,20.610919,27.500771,-78.003929
47377,-10.903749,1.992992,15.237578,-4.251322,2.424845,8.380729,-0.533383,-4.459563,5.391280,-0.112888,0.017323,0.149838,0.999385,-0.002666,-0.022293,0.026951,-0.734977,-0.267934,-0.050436,0.620867,21.259210,24.006596,-75.808280
47378,-9.559914,1.079618,12.427887,-4.565389,3.286851,4.859911,-0.418968,-5.200835,5.197901,-0.099028,0.008509,0.121714,0.999322,-0.002094,-0.025998,0.025984,-0.752520,-0.251347,-0.025630,0.608179,21.698130,20.139142,-73.991263
47382,-5.807142,1.956693,10.880786,-2.982671,2.401423,2.044147,-1.023743,-5.189630,3.776212,-0.280877,0.066771,0.406258,0.991564,-0.020417,-0.103501,0.075312,-0.799881,-0.172719,0.059007,0.571732,20.219879,5.917729,-70.056129
47383,-6.280844,-2.537489,10.367738,-7.450876,3.259385,-0.474159,-1.616117,-5.508296,1.951940,-0.065389,-0.025175,0.102104,0.999540,-0.008079,-0.027537,0.009758,-0.804882,-0.149872,0.078078,0.568865,19.294393,2.569232,-70.066176
47384,-1.577184,-3.282268,8.925096,-6.148963,-0.647342,-2.418824,-1.039361,-5.808427,1.103839,-0.018178,-0.032456,0.088916,0.999550,-0.005196,-0.029038,0.005518,-0.806198,-0.128630,0.099286,0.568895,18.687060,-0.786971,-70.547065
47385,0.154918,3.230698,10.943206,-0.506976,0.153479,1.584765,-0.330721,-5.579824,0.442222,-0.001575,0.032487,0.109364,0.999607,-0.001653,-0.027895,0.002211,-0.804605,-0.111137,0.121071,0.570615,18.526771,-3.898888,-71.323687
47386,-3.814334,8.092680,12.047545,2.150198,6.118061,3.717705,-1.725405,-5.826581,0.339341,-0.041755,0.081887,0.118590,0.999537,-0.008626,-0.029128,0.001696,-0.802658,-0.087274,0.139717,0.573239,17.615545,-7.136405,-72.174126
47387,2.141744,3.995915,7.449944,1.856094,-0.318957,-1.298673,-3.192766,-5.869601,0.041514,0.019224,0.041152,0.074434,0.999442,-0.015961,-0.029343,0.000208,-0.799644,-0.057548,0.154046,0.577519,15.928746,-10.363573,-73.129019
47388,4.542355,-2.509521,4.780537,-2.490462,-4.518526,-5.001449,-3.529653,-5.303973,-0.379907,0.044080,-0.024317,0.049420,0.999491,-0.017645,-0.026515,-0.001899,-0.795094,-0.028342,0.164866,0.582959,14.109427,-13.245487,-74.143795
47389,4.977563,-7.459581,3.735194,-6.695611,-6.336886,-6.752065,-2.282029,-4.646504,-0.902228,0.048541,-0.074375,0.039339,0.999655,-0.011409,-0.023230,-0.004511,-0.788704,-0.006441,0.176485,0.588861,13.089526,-15.712091,-75.305170
47390,3.314143,-5.044934,5.480440,-5.494413,-3.388888,-4.834069,-0.918253,-4.094853,-1.531323,0.031621,-0.050441,0.055694,0.999751,-0.004591,-0.020473,-0.007656,-0.780438,0.007932,0.189828,0.595666,12.974589,-17.803206,-76.745717
47391,0.994741,-1.583769,6.982005,-3.295378,0.434173,-3.394737,-0.508179,-3.914862,-2.211977,0.008403,-0.015759,0.070035,0.999744,-0.002541,-0.019573,-0.011059,-0.769938,0.019508,0.203608,0.604449,13.269886,-19.701186,-78.582416
47392,0.307596,-0.585973,6.650979,-2.431432,1.528639,-3.777911,-0.638088,-3.870279,-2.863158,0.001706,-0.005678,0.066570,0.999705,-0.003190,-0.019349,-0.014314,-0.757079,0.030787,0.216788,0.615538,13.692075,-21.478542,-80.834028
47393,1.172395,-0.078569,5.076536,-1.393548,0.589787,-4.826817,-0.792837,-3.695221,-3.446106,0.010770,-0.000775,0.050973,0.999673,-0.003964,-0.018474,-0.017229,-0.742123,0.041453,0.228766,0.628650,14.225153,-23.058065,-83.451653
47394,3.718004,0.136379,2.492101,-0.275721,-2.457097,-6.079530,-0.860784,-3.208791,-3.913971,0.036793,0.000750,0.025509,0.999671,-0.004303,-0.016042,-0.019568,-0.725751,0.050290,0.238690,0.643260,14.879910,-24.277597,-86.321249
47395,4.051279,1.566067,2.394362,0.977168,-2.514094,-5.650917,-0.808589,-2.346523,-4.273998,0.040552,0.014892,0.024358,0.999695,-0.004043,-0.011731,-0.021368,-0.708806,0.055696,0.245575,0.658927,15.653526,-24.931130,-89.303958
47396,2.977671,2.961337,2.731697,2.075102,-1.272153,-5.434090,-1.041355,-1.636084,-4.568040,0.030221,0.029069,0.027411,0.999692,-0.005206,-0.008180,-0.022838,-0.691263,0.059198,0.249125,0.675713,16.345901,-25.114187,-92.360999
47402,1.456365,2.096411,4.976293,0.822019,0.292615,-4.301706,-3.130931,1.385822,-5.895059,0.122607,0.133190,0.281610,0.979159,-0.093274,0.041285,-0.175621,-0.563107,0.051078,0.162666,0.808605,12.310499,-15.414468,-111.966159
47407,1.485782,3.598666,5.989514,1.970732,-1.532947,-3.146038,-2.679755,2.906392,-5.768507,0.121567,0.183854,0.279489,0.984756,-0.066653,0.072290,-0.143479,-0.447023,0.006232,0.072759,0.891537,7.153373,-4.367976,-127.014101
47408,0.771895,19.336983,5.165822,14.652310,-11.445522,-2.362871,-1.216982,3.918808,-0.133142,0.008843,0.193673,0.050314,0.999789,-0.006084,0.019593,-0.000666,-0.447759,-0.008557,0.058527,0.892196,6.440765,-2.128594,-126.819159
47409,2.802736,12.188911,3.570894,7.881675,-9.169996,-5.022429,-2.790267,4.598295,1.433225,0.027936,0.122566,0.033359,0.999613,-0.013950,0.022989,0.007165,-0.455481,-0.022364,0.035803,0.889244,4.821379,0.410225,-125.738677
47410,3.318491,2.645269,0.754630,0.201501,-4.223817,-8.980719,-2.419508,5.488206,2.409854,0.033047,0.026933,0.006314,0.999478,-0.012095,0.027436,0.012047,-0.467248,-0.040797,0.012800,0.883092,3.488135,3.445114,-124.127988
47411,2.204746,0.842398,0.935063,-0.592900,-2.344954,-9.043447,-1.613610,6.804439,2.600128,0.022234,0.008783,0.008526,0.999304,-0.008066,0.034014,0.012998,-0.479205,-0.066837,-0.009717,0.875100,2.718634,7.255343,-122.417364
47412,-2.731903,-1.590491,1.980250,-0.187342,2.906736,-7.484136,-0.727174,7.947483,2.689239,-0.026286,-0.016188,0.020919,0.999114,-0.003635,0.039726,0.013442,-0.490445,-0.099915,-0.031019,0.865170,2.595140,11.730773,-120.637525
47413,-10.660358,0.181864,5.337585,4.392673,7.893926,-2.036905,0.476291,8.466624,2.853993,-0.104228,0.000185,0.057824,0.998999,0.002381,0.042319,0.014265,-0.500787,-0.138007,-0.048276,0.853133,3.339192,16.488822,-118.690320
47414,-16.944270,4.045857,10.353732,8.827688,9.655165,5.656747,0.777160,7.867357,2.940677,-0.165760,0.037583,0.110257,0.999111,0.003885,0.039325,0.014699,-0.510495,-0.174082,-0.062578,0.839747,4.458462,20.870765,-116.586358
47415,-17.392047,6.676537,13.786496,9.483440,7.171176,10.077027,0.154171,6.315242,3.039008,-0.170439,0.064048,0.143334,0.999386,0.000771,0.031570,0.015192,-0.520873,-0.201799,-0.075378,0.826007,5.396403,24.324210,-114.365803
47416,-14.374920,6.453143,13.609756,7.399602,4.291892,9.168436,-1.156259,4.532169,3.184682,-0.141634,0.063063,0.138956,0.999600,-0.005781,0.022658,0.015921,-0.533321,-0.218640,-0.088705,0.812340,5.725159,26.733214,-112.066776
47419,-6.182372,-4.085781,9.966802,-4.586449,2.337380,1.480589,-1.330748,3.503532,2.742858,-0.164276,-0.123502,0.310474,0.997574,-0.019945,0.052510,0.041110,-0.565257,-0.253685,-0.123740,0.775124,6.445179,32.219486,-105.934085
47422,-7.802924,3.939397,14.267952,1.586850,-2.147152,6.703222,-0.501856,2.375395,2.450547,-0.222881,0.113109,0.435251,0.998662,-0.007524,0.035615,0.036742,-0.590615,-0.281252,-0.140217,0.743243,8.769527,35.711618,-100.225461
47423,-5.483168,-0.693651,12.610077,-3.122019,-2.345786,3.389819,-0.575190,1.422800,2.830756,-0.053831,-0.007340,0.126507,0.999870,-0.002876,0.007114,0.014153,-0.600919,-0.286831,-0.142533,0.732331,9.706933,36.257229,-98.073547
47425,-7.164518,5.999164,13.257329,2.980375,-2.932233,5.857658,0.236465,0.906513,3.800598,-0.145282,0.113856,0.266732,0.999234,0.002364,0.009063,0.037996,-0.626402,-0.300026,-0.135247,0.706621,13.269055,36.401986,-92.507213
47428,-10.592657,5.737712,15.392593,1.018782,-0.373076,9.688864,0.552030,-1.239037,5.741024,-0.339281,0.139706,0.456847,0.996088,0.008270,-0.018561,0.086003,-0.684882,-0.302518,-0.091398,0.656556,20.195167,31.495671,-81.830999
47437,-6.030447,0.396745,13.134304,-4.832453,1.662394,3.536460,-0.568475,-5.599203,4.010805,-0.806671,-0.068070,0.999803,0.952031,-0.025171,-0.247922,0.177591,-0.799168,-0.123964,0.120061,0.575802,19.682426,-2.816707,-72.034317
47438,-1.411378,7.072908,9.626271,2.639531,3.201236,1.476301,-1.239621,-5.293011,0.305068,-0.016755,0.071298,0.095402,0.999629,-0.006197,-0.026462,0.001525,-0.797349,-0.103613,0.137764,0.578377,19.039504,-5.729833,-72.874044
47439,-0.641235,6.525518,8.782961,2.729132,2.830704,0.417058,-2.549316,-5.117821,0.196838,-0.008707,0.066358,0.086785,0.999591,-0.012745,-0.025586,0.000984,-0.795413,-0.078429,0.150837,0.581734,17.676166,-8.551887,-73.692693
47440,-2.390547,3.115922,7.307314,-0.201989,3.814417,-2.449912,-2.810812,-5.186164,0.232081,-0.025818,0.032147,0.071973,0.999564,-0.014052,-0.025927,0.001160,-0.792953,-0.051948,0.163302,0.584687,16.193402,-11.433828,-74.438636
47441,2.307531,-0.424327,4.116036,-1.094664,-1.740623,-5.545077,-2.581881,-5.087574,-0.036714,0.022017,-0.003711,0.041780,0.999593,-0.012908,-0.025434,-0.000184,-0.789064,-0.026804,0.175843,0.587996,14.891274,-14.239826,-75.256046
47442,3.985603,-2.891090,3.124648,-2.674883,-4.011168,-6.533083,-1.855348,-4.467292,-0.513932,0.039067,-0.028715,0.032392,0.999704,-0.009276,-0.022334,-0.002569,-0.783660,-0.006784,0.187878,0.592058,14.081112,-16.644463,-76.212343
47443,2.698931,-1.761827,4.359509,-2.364380,-2.009561,-5.367394,-1.107316,-3.897455,-1.127867,0.026033,-0.017523,0.044206,0.999779,-0.005536,-0.019486,-0.005639,-0.776547,0.008081,0.199783,0.597491,13.811923,-18.659204,-77.430680
47444,0.378431,-0.183019,6.126718,-1.933528,1.250746,-4.120062,-0.997261,-3.627086,-1.776936,0.002658,-0.001551,0.061330,0.999784,-0.004986,-0.018134,-0.008884,-0.767428,0.021033,0.210899,0.605090,13.763527,-20.435513,-79.001498
47445,-0.489888,-0.758951,6.508084,-2.721204,2.246358,-4.270665,-1.092191,-3.658676,-2.443010,-0.006178,-0.007164,0.065016,0.999743,-0.005460,-0.018292,-0.012214,-0.755890,0.033758,0.221826,0.615048,13.856509,-22.140396,-80.992607
47446,1.200453,-0.651082,5.557952,-2.086916,0.655724,-4.524363,-0.995514,-3.605650,-3.018491,0.010902,-0.006403,0.055815,0.999711,-0.004977,-0.018027,-0.015091,-0.742244,0.045274,0.232810,0.626756,14.203024,-23.725523,-83.354028
47447,2.676320,1.745026,4.596665,0.580604,-0.369179,-4.257280,-1.081206,-3.237355,-3.574555,0.026325,0.017227,0.046302,0.999695,-0.005405,-0.016185,-0.017871,-0.726826,0.055304,0.242162,0.640331,14.685536,-25.014351,-86.034528
47448,3.608056,1.151924,3.474478,0.296532,-1.674480,-4.962556,-1.719822,-2.766277,-4.166142,0.035830,0.011072,0.035145,0.999650,-0.008598,-0.013830,-0.020828,-0.709433,0.065372,0.247745,0.656547,14.987213,-25.935296,-89.035585
47449,5.194747,0.297378,2.917872,-0.521165,-3.383819,-4.927860,-1.838159,-1.987891,-4.963495,0.051711,0.001960,0.029672,0.999600,-0.009190,-0.009938,-0.024814,-0.689817,0.072290,0.250271,0.675493,15.419557,-26.291991,-92.419841
47450,4.404718,-0.349203,2.821705,-1.301052,-2.702147,-5.512969,-2.248337,-1.325266,-5.714503,0.043741,-0.004425,0.028554,0.999507,-0.011240,-0.006625,-0.028568,-0.667732,0.077364,0.249160,0.697186,15.778795,-26.143389,-96.158075
47451,5.837382,-1.210326,1.886602,-2.319994,-4.326869,-5.941621,-2.085319,-0.521499,-6.298580,0.057909,-0.013733,0.019155,0.999446,-0.010425,-0.002607,-0.031487,-0.643978,0.078302,0.245915,0.720200,16.293820,-25.436672,-100.097186
47452,5.611470,1.566584,2.569877,-0.062806,-3.951532,-4.820897,-1.908533,0.508622,-6.751553,0.056671,0.014002,0.025416,0.999382,-0.009541,0.002543,-0.033751,-0.619176,0.074306,0.239866,0.744019,16.864330,-24.054683,-104.083177
47453,3.447097,5.095998,5.315585,3.034509,-1.493630,-2.420214,-2.612768,1.432531,-7.003898,0.036619,0.050389,0.052238,0.999276,-0.013061,0.007161,-0.035011,-0.593452,0.068659,0.228124,0.768804,16.896217,-22.106651,-107.993549
47454,0.853550,4.251642,6.701119,2.691921,1.084454,-2.378518,-3.553684,2.029255,-6.991655,0.010716,0.043348,0.066144,0.999180,-0.017764,0.010143,-0.034949,-0.567219,0.063413,0.210633,0.793647,16.199298,-19.852806,-111.746652
47455,-1.369639,3.449493,7.901436,2.700113,3.217727,-2.161979,-3.994462,2.333752,-6.923458,-0.011538,0.036490,0.078442,0.999133,-0.019967,0.011665,-0.034607,-0.540481,0.058179,0.190161,0.817517,15.073869,-17.498568,-115.393654
47456,0.111994,3.806346,6.631004,2.719676,0.798924,-2.712700,-4.659442,2.559344,-7.064950,0.003339,0.039502,0.065367,0.999023,-0.023290,0.012793,-0.035313,-0.512191,0.053565,0.166046,0.840964,13.438986,-15.081155,-119.099773
47457,1.512042,3.927855,6.941832,2.191621,-0.913905,-2.051692,-5.378029,3.116857,-7.096116,0.017612,0.040526,0.068078,0.998888,-0.026880,0.015579,-0.035467,-0.482974,0.048324,0.137153,0.863476,11.231432,-12.470415,-122.791228
47458,-0.864159,-2.396403,7.501660,-1.802362,3.892663,-3.153388,-4.761453,3.459902,-6.264434,-0.008044,-0.021909,0.075697,0.999077,-0.023800,0.017294,-0.031313,-0.456744,0.040566,0.109605,0.881888,9.126618,-9.885098,-126.030112
47459,-2.801637,-2.338708,8.188351,-0.438039,5.294090,-2.592069,-2.091159,3.182576,-4.807459,-0.027244,-0.021865,0.082555,0.999530,-0.010454,0.015910,-0.024034,-0.436690,0.028694,0.094017,0.894226,8.301059,-7.667819,-128.500655
47460,-0.722893,10.007833,9.656974,7.860780,-3.841951,1.020317,-0.497499,2.820810,-3.225590,-0.004251,0.100403,0.096394,0.999767,-0.002487,0.014103,-0.016127,-0.423457,0.015660,0.086030,0.901686,8.199052,-5.802635,-130.104072
47461,0.568277,12.703949,8.261096,8.912030,-7.204779,0.117463,-1.326933,2.631030,-1.551866,0.007750,0.127529,0.081673,0.999861,-0.006634,0.013155,-0.007759,-0.417467,0.005974,0.074562,0.905608,7.493168,-4.190584,-130.776990
47462,3.576730,9.539746,6.450261,4.543546,-8.021922,-2.040806,-1.483937,2.831585,0.011773,0.036663,0.095872,0.063278,0.999872,-0.007419,0.014157,0.000059,-0.418515,-0.003746,0.061900,0.906090,6.628245,-2.580501,-130.565927
47463,5.409776,7.954362,5.016092,2.257997,-8.754906,-3.817536,-1.520518,3.428410,1.175653,0.054470,0.080237,0.048621,0.999807,-0.007602,0.017141,0.005878,-0.424887,-0.015697,0.047823,0.903846,5.727404,-0.702601,-129.679804
47464,5.209802,5.008588,4.065167,0.280822,-6.983000,-5.351579,-1.699744,4.343698,1.844280,0.052491,0.050905,0.039084,0.999686,-0.008498,0.021716,0.009220,-0.434298,-0.031269,0.031047,0.899691,4.764570,1.678844,-128.395138
47466,2.840207,1.613122,3.345237,-0.778584,-3.317923,-6.615578,-1.148334,5.836816,2.323631,0.059780,0.034368,0.063085,0.997961,-0.011476,0.058328,0.023221,-0.456553,-0.077912,-0.003994,0.886269,3.710573,8.149028,-125.225976
47470,-9.484243,4.744794,5.852957,7.360622,4.180894,-1.200989,-0.674853,7.696180,4.192342,-0.352168,0.163054,0.287582,0.984587,-0.013428,0.153132,0.083416,-0.524057,-0.206529,-0.079263,0.822452,5.450984,25.011325,-113.780540
47471,-18.574915,-1.940573,11.823619,1.421054,11.748924,8.850965,-1.119832,6.120332,4.284520,-0.181552,-0.022642,0.123956,0.999287,-0.005598,0.030594,0.021418,-0.540093,-0.230400,-0.095337,0.803820,6.231124,28.254017,-110.635383
47472,-15.123416,-2.941245,13.065750,-1.873200,8.057564,8.614434,-0.765616,4.280493,3.582912,-0.147838,-0.031573,0.133964,0.999603,-0.003828,0.021400,0.017912,-0.553163,-0.247121,-0.105816,0.788508,7.097910,30.449584,-107.964253
47473,-9.606032,0.630261,12.327874,-0.405480,2.050922,5.687593,-0.657007,2.963390,3.007754,-0.094304,0.005284,0.124666,0.999772,-0.003285,0.014816,0.015038,-0.564187,-0.258564,-0.112841,0.775954,7.897590,31.910551,-105.697932
47474,-5.839808,2.479376,11.007480,0.568689,-1.307646,2.811758,-0.975385,2.569939,3.042658,-0.057352,0.024455,0.110696,0.999790,-0.004877,0.012849,0.015212,-0.575728,-0.267416,-0.119924,0.763312,8.571776,33.115600,-103.396331
47475,-4.758351,2.859391,10.119367,0.802778,-2.042874,1.518597,-0.653724,2.548611,3.804461,-0.046826,0.028030,0.101701,0.999733,-0.003268,0.012742,0.019021,-0.589487,-0.277512,-0.124612,0.748307,9.794745,34.211053,-100.519766
47476,-6.218920,5.570746,12.241652,2.824215,-2.786504,4.463848,-0.483421,2.553298,4.570118,-0.061877,0.054588,0.123075,0.999655,-0.002417,0.012765,0.022848,-0.605505,-0.288361,-0.127566,0.730711,11.485235,35.162782,-97.055960
47477,-9.058376,2.936574,14.274039,-0.313579,-1.049113,7.310649,-0.306124,2.070977,4.960542,-0.089795,0.027351,0.143630,0.999638,-0.001530,0.010354,0.024800,-0.622578,-0.298099,-0.127718,0.712195,13.478155,35.706838,-93.322930
47478,-10.887905,2.268287,16.450206,-2.014163,-0.693361,9.928738,0.632733,0.930152,5.262972,-0.108650,0.019300,0.165072,0.999638,0.003163,0.004650,0.026312,-0.639598,-0.306603,-0.120472,0.694547,16.023492,35.451087,-89.565163
47479,-10.116817,4.942983,17.741777,-0.516727,-2.239686,11.072887,1.161544,-0.464617,5.773280,-0.102931,0.045445,0.177452,0.999564,0.005807,-0.002323,0.028862,-0.657912,-0.312080,-0.106008,0.677141,18.840192,34.203336,-85.805997
47480,-8.334004,6.807163,17.602423,0.701362,-3.315634,10.536281,0.840603,-1.479400,5.995515,-0.086615,0.064769,0.175668,0.999515,0.004202,-0.007396,0.029973,-0.677403,-0.312831,-0.088890,0.659819,21.243863,32.225444,-82.291145
47481,-8.702571,5.313985,16.959850,-1.160811,-1.886903,9.850456,-0.024065,-2.147364,5.884221,-0.090352,0.050534,0.168634,0.999510,-0.000120,-0.010735,0.029416,-0.697518,-0.308151,-0.072397,0.642862,22.841167,29.814416,-79.173425
47482,-10.109838,2.066437,16.452171,-4.804079,0.306886,9.000127,-0.324174,-2.885011,5.524114,-0.103981,0.018084,0.163005,0.999513,-0.001621,-0.014423,0.027616,-0.716514,-0.299564,-0.054831,0.627585,23.871769,27.037727,-76.610429
47483,-12.246439,2.992276,16.888429,-5.046444,2.751978,10.460617,-0.334078,-3.854452,5.170822,-0.126411,0.026968,0.166426,0.999479,-0.001670,-0.019269,0.025850,-0.733960,-0.287547,-0.034246,0.614366,24.541178,23.802698,-74.613352
47484,-12.405970,3.776014,14.856562,-4.271965,4.885834,8.805474,-0.765638,-5.040280,4.782756,-0.128612,0.035281,0.145224,0.999389,-0.003827,-0.025196,0.023909,-0.750201,-0.269865,-0.011205,0.603528,24.619183,20.032541,-73.218340
47486,-6.280274,1.325939,11.153813,-4.113712,1.881981,2.226646,-1.260436,-5.540362,3.913835,-0.138657,0.024007,0.215318,0.997621,-0.012594,-0.055360,0.039107,-0.776100,-0.226771,0.033350,0.587479,23.610532,12.396792,-71.647997
47487,-4.500762,2.421941,11.334269,-2.873452,1.478668,2.191567,-1.353369,-5.228443,3.043585,-0.048316,0.024262,0.111944,0.999520,-0.006766,-0.026138,0.015215,-0.785354,-0.205551,0.053124,0.581503,22.916458,8.952416,-71.216838
47488,-7.956527,1.358181,12.058077,-5.244032,5.000279,2.756623,-1.784863,-5.472436,2.657871,-0.083002,0.013556,0.118220,0.999498,-0.008923,-0.027358,0.013287,-0.793098,-0.181785,0.072127,0.576843,21.916654,5.469417,-70.999226
47489,-6.276060,-0.605545,10.958715,-6.145793,3.841167,0.544808,-1.622766,-5.990714,1.977627,-0.065947,-0.005818,0.107691,0.999470,-0.008112,-0.029948,0.009886,-0.797716,-0.157267,0.092972,0.574694,20.974869,1.858412,-71.195742
47491,-0.999618,1.086551,9.884996,-2.695918,0.488234,-0.208408,-1.123122,-6.441261,0.849902,-0.032839,0.023694,0.195601,0.997827,-0.011223,-0.064366,0.008493,-0.796699,-0.110105,0.139002,0.577777,19.728789,-5.408291,-72.841397
47494,1.224860,3.715620,7.035122,1.294404,0.559148,-1.897399,-2.557593,-5.964214,0.099211,0.017809,0.119550,0.208726,0.995265,-0.038303,-0.089322,0.001486,-0.785651,-0.027176,0.187523,0.588939,15.853116,-15.227113,-75.844249
47495,5.651828,-2.687343,2.628520,-2.033130,-5.536824,-6.455154,-2.092522,-4.934147,-0.152277,0.055822,-0.026629,0.027948,0.999641,-0.010461,-0.024668,-0.000761,-0.780593,-0.004583,0.200644,0.591942,14.902870,-17.927775,-76.711544
47501,1.342295,0.075999,5.925679,-1.539967,0.828247,-4.007006,-1.220833,-3.716971,-1.755073,0.041003,0.014886,0.361172,0.991737,-0.036524,-0.111202,-0.052507,-0.721046,0.079540,0.263883,0.635713,14.593419,-28.794737,-86.567516
47510,4.475871,1.587140,3.064292,0.095565,-2.694798,-4.875166,-2.437641,0.026748,-5.765595,0.426587,0.062995,0.265371,0.960587,-0.108249,0.001188,-0.256034,-0.521791,0.086486,0.203977,0.823801,15.247166,-20.815537,-118.116739
47511,-2.156146,-1.202062,7.130932,-0.439084,5.116329,-4.285766,-5.084747,3.767502,-7.752102,-0.020607,-0.009385,0.071965,0.998748,-0.025413,0.018830,-0.038744,-0.490885,0.076227,0.176310,0.849786,13.643276,-17.616806,-122.097500
47513,0.903750,5.035889,7.391810,3.423064,-0.976061,-1.568452,-4.139180,4.197936,-6.618260,0.030992,0.104925,0.142426,0.996075,-0.041338,0.041924,-0.066096,-0.437096,0.049021,0.124898,0.889351,10.536565,-11.325262,-128.701526
47514,-1.456917,4.971818,7.400785,4.595977,-0.119848,-2.037838,-2.652738,4.369644,-3.804100,-0.011996,0.050941,0.073618,0.999493,-0.013261,0.021845,-0.019017,-0.422071,0.032997,0.104404,0.899926,9.313040,-8.483321,-130.438449
47515,-0.168859,9.488563,6.813369,7.088127,-4.495231,-1.687470,-1.203986,4.043239,-1.411147,0.000353,0.095296,0.067567,0.999753,-0.006019,0.020215,-0.007055,-0.417566,0.016637,0.090635,0.903962,8.674094,-6.071592,-130.873770
47526,-5.711568,2.989974,8.790670,3.555671,1.969149,0.130789,-1.113548,6.497777,3.117345,-0.301746,0.323033,1.095835,0.920639,-0.059616,0.347873,0.166894,-0.566216,-0.258776,-0.118742,0.773521,7.435472,32.330667,-105.433762
47527,-2.840291,-0.714581,10.993187,-3.002229,-2.804069,0.796128,-0.521273,1.988501,2.231125,-0.027228,-0.007167,0.110225,0.999885,-0.002606,0.009942,0.011155,-0.574340,-0.266796,-0.123304,0.764035,8.121306,33.320308,-103.700153
47528,-1.443225,4.567608,9.852931,1.946384,-5.161403,-0.347130,-0.164619,2.478127,3.228015,-0.013946,0.045530,0.098667,0.999793,-0.000823,0.012390,0.016139,-0.585288,-0.277695,-0.126723,0.751175,9.398717,34.439366,-101.232330
47531,-8.888223,3.993113,15.246100,0.488183,-1.917427,8.168895,-0.204019,1.912739,4.635490,-0.260930,0.102922,0.464596,0.997168,-0.003057,0.028664,0.069467,-0.633166,-0.305445,-0.126111,0.699929,15.056578,35.964068,-90.821855
47533,-10.339235,7.690389,18.674007,1.722938,-2.742767,12.634809,1.150431,-1.206933,5.880716,-0.219670,0.136846,0.372520,0.998132,0.011497,-0.012062,0.058771,-0.671222,-0.311171,-0.092149,0.666439,20.485750,32.578812,-83.544948
47535,-12.758238,6.359640,19.060343,-1.453614,1.074890,13.905757,-0.283235,-3.568971,6.571936,-0.276176,0.110553,0.371265,0.997201,-0.002830,-0.035656,0.065658,-0.717351,-0.290689,-0.049334,0.631248,23.240234,25.961856,-77.265717
47536,-17.996449,4.220426,19.455548,-5.837621,7.428697,15.299190,-0.622638,-5.747008,6.149751,-0.186646,0.037127,0.189134,0.999110,-0.003112,-0.028727,0.030740,-0.738478,-0.271609,-0.021637,0.616775,23.737924,21.530763,-75.160443
47537,-15.353205,3.932747,16.601291,-5.370179,7.935153,11.035507,-1.261074,-7.487222,5.759134,-0.160660,0.035790,0.159853,0.998865,-0.006303,-0.037422,0.028785,-0.757950,-0.244151,0.009956,0.604816,23.459653,16.274585,-73.776073
47539,-4.803028,-1.844101,9.866033,-6.193841,1.358914,-0.680660,-1.301194,-7.863378,4.479025,-0.109464,-0.039087,0.189556,0.995824,-0.012994,-0.078524,0.044728,-0.784280,-0.185336,0.072543,0.587616,22.210925,5.970976,-72.511145
47540,0.584300,-6.096947,6.400123,-7.414239,-3.203766,-6.175178,-1.643858,-6.940628,2.767714,0.004444,-0.060372,0.064670,0.999268,-0.008217,-0.034695,0.013835,-0.790861,-0.157385,0.097464,0.583327,21.272434,1.687771,-72.506869
47541,0.165919,-4.928133,8.312219,-7.191468,-2.396483,-3.818524,-0.966404,-5.974858,1.235169,-0.000526,-0.048878,0.083365,0.999523,-0.004831,-0.029870,0.006175,-0.791963,-0.135420,0.119193,0.583309,20.714771,-1.765568,-73.068599
47544,0.211114,1.504580,9.863714,-1.992022,0.371774,-0.054166,-1.868993,-5.742074,0.007043,-0.019048,0.053396,0.293577,0.995901,-0.027997,-0.086013,0.000105,-0.782388,-0.062414,0.170515,0.595734,17.851871,-11.096047,-76.321533
47546,4.615156,-1.176112,4.609159,-1.655910,-3.985807,-4.786562,-1.864113,-4.685788,-0.765381,0.087664,-0.022429,0.096790,0.998699,-0.018633,-0.046838,-0.007650,-0.770029,-0.021115,0.195354,0.606997,16.290627,-15.975268,-78.797026
47547,2.209771,-0.068556,6.057945,-1.646049,-0.733339,-3.621279,-1.181289,-3.986451,-1.401134,0.020881,-0.000475,0.061007,0.999759,-0.005906,-0.019931,-0.007005,-0.761843,-0.005806,0.206919,0.613797,16.039788,-17.947965,-80.264183
47551,-0.273949,1.614950,7.032465,-0.680275,2.828540,-3.210164,-1.094929,-3.893496,-2.611731,-0.029080,0.071921,0.277979,0.995368,-0.021865,-0.077750,-0.052154,-0.710434,0.047999,0.251437,0.655560,16.746275,-24.846656,-89.113463
47559,3.032709,2.928109,4.385376,1.402991,-0.578929,-3.922773,-1.530699,-2.179209,-3.286100,0.241524,0.224196,0.358006,0.985722,-0.060936,-0.086753,-0.130818,-0.589982,0.114907,0.275665,0.750151,18.693457,-29.845945,-108.654415
47560,4.742486,3.501954,2.314972,1.575911,-3.238265,-4.603091,-2.814024,0.201966,-4.097006,0.048156,0.034359,0.022615,0.999691,-0.014069,0.001010,-0.020483,-0.573098,0.116670,0.266763,0.766019,18.319750,-28.980072,-111.168347
47561,7.186668,1.107470,1.073910,-1.521329,-5.530323,-5.217212,-3.738385,1.260568,-5.081103,0.072185,0.009436,0.010098,0.999483,-0.018689,0.006302,-0.025401,-0.552869,0.115763,0.251638,0.785884,17.536644,-27.399919,-114.053903
47563,5.461415,-0.453826,2.399890,-2.852337,-3.079084,-5.552396,-4.703082,2.907947,-6.438106,0.109780,-0.013961,0.045389,0.996401,-0.046974,0.029045,-0.064304,-0.502262,0.102373,0.205166,0.833763,14.970579,-22.135790,-120.814720
47564,2.138890,0.414889,4.307275,-0.820153,-0.075637,-5.057026,-5.212028,4.067817,-7.093544,0.022413,0.004479,0.042510,0.998825,-0.026050,0.020331,-0.035454,-0.473641,0.091140,0.176611,0.858001,13.241897,-18.886631,-124.412134
47566,0.419990,1.174261,7.341524,0.686662,1.470922,-2.550776,-4.147106,4.592643,-5.972609,0.016706,0.028698,0.145071,0.996304,-0.041420,0.045870,-0.059652,-0.425098,0.060610,0.124078,0.894552,10.049458,-12.352642,-130.255378
47567,-1.417591,4.380714,7.715939,4.209712,0.294082,-1.881240,-0.979787,4.330488,-3.180311,-0.011801,0.044386,0.077216,0.999627,-0.004898,0.021650,-0.015900,-0.413138,0.041340,0.111396,0.902884,9.750985,-9.595643,-131.645031
47568,1.617031,16.921607,7.201654,11.429759,-10.426847,0.258936,-0.347891,4.179114,-1.253154,0.018726,0.169229,0.071349,0.999761,-0.001739,0.020894,-0.006265,-0.409674,0.022522,0.101398,0.906299,9.591682,-7.117431,-131.949212
47569,2.290363,16.217524,5.945579,10.352369,-11.083690,-1.235879,-2.217287,4.613175,0.599892,0.023751,0.162888,0.057111,0.999668,-0.011085,0.023063,0.002999,-0.414378,0.006456,0.081813,0.906397,8.245454,-4.560245,-131.191948
47570,1.757068,6.431547,4.703385,3.448710,-4.843707,-4.226080,-2.605764,5.050079,1.856087,0.018135,0.065084,0.045736,0.999553,-0.013027,0.025247,0.009279,-0.424622,-0.010238,0.059422,0.903361,6.667812,-1.831838,-129.755248
47571,3.121873,3.781573,4.103427,0.643631,-4.501209,-5.318254,-2.122567,5.686883,2.358469,0.031909,0.038616,0.039726,0.999470,-0.010611,0.028429,0.011790,-0.436884,-0.030720,0.037906,0.898194,5.448929,1.264309,-128.063010
47572,2.494927,1.892352,3.867054,-0.395946,-3.093643,-5.936604,-1.817556,6.595060,2.739108,0.025937,0.019620,0.037650,0.999321,-0.009086,0.032968,0.013692,-0.450454,-0.055789,0.015713,0.890916,4.504918,4.890427,-126.164538
47573,0.396942,2.941603,3.735749,1.668890,-2.237352,-5.943310,-1.047048,7.494367,3.205351,0.004887,0.029684,0.037031,0.999156,-0.005234,0.037461,0.016022,-0.465276,-0.086511,-0.004875,0.880914,4.175736,9.030161,-123.986421
47574,-4.137124,5.731843,4.334416,6.230763,-0.287420,-4.349978,-0.686890,8.317734,3.837225,-0.040618,0.056686,0.044849,0.998945,-0.003433,0.041574,0.019179,-0.481816,-0.121507,-0.025599,0.867429,4.288591,13.619027,-121.387411
47575,-10.081460,6.122177,5.894604,8.837087,4.083889,-0.923771,-0.714282,8.722207,4.738984,-0.099540,0.059073,0.063093,0.998762,-0.003570,0.043593,0.023685,-0.501141,-0.158067,-0.046705,0.849524,4.779720,18.383437,-118.152681
47576,-16.060035,4.354374,8.663953,8.451954,9.019644,4.292108,-0.839831,8.475168,5.112084,-0.157793,0.039868,0.093195,0.998767,-0.004197,0.042358,0.025550,-0.520957,-0.192915,-0.067418,0.828760,5.562418,22.954700,-114.562935
47577,-18.741907,0.916028,13.255820,4.003441,10.658716,10.134622,-1.409425,7.572915,4.806862,-0.182389,0.005702,0.139481,0.998970,-0.007045,0.037852,0.024026,-0.539204,-0.222080,-0.088183,0.807566,6.253436,26.986896,-111.036715
47578,-19.481025,-5.945954,15.272868,-3.817592,12.220972,12.186422,-1.022476,5.456571,4.159392,-0.189261,-0.062635,0.158258,0.999399,-0.005111,0.027277,0.020793,-0.554445,-0.243022,-0.102359,0.789337,7.143285,29.812125,-107.926339
47579,-13.722547,-2.631613,15.753724,-3.339951,5.210686,10.313110,-0.491445,3.280275,3.237828,-0.134171,-0.028114,0.159822,0.999731,-0.002457,0.016400,0.016188,-0.566050,-0.256262,-0.109370,0.775857,8.111955,31.430508,-105.486478
47580,-7.100835,0.485986,13.175692,-1.640321,-0.512138,5.063288,-0.658900,2.189038,2.838337,-0.069624,0.004301,0.132509,0.999834,-0.003294,0.010945,0.014191,-0.576658,-0.264369,-0.114473,0.764506,8.850852,32.428550,-103.367857
47581,-3.841364,2.214914,11.543586,-0.361897,-3.144289,2.141216,-0.605722,2.089918,3.450952,-0.037584,0.021846,0.115765,0.999792,-0.003028,0.010449,0.017254,-0.589388,-0.272591,-0.118177,0.751232,9.903396,33.289060,-100.799811
47582,-4.972054,4.703868,11.543812,2.010345,-2.992944,3.114160,-0.113173,2.150516,4.526524,-0.049524,0.045982,0.115945,0.999686,-0.000566,0.010751,0.022630,-0.605131,-0.282893,-0.118738,0.734635,11.687304,34.010949,-97.456613
47583,-8.809991,5.533529,13.896007,2.199968,-1.236035,7.361263,0.112221,1.835279,5.406790,-0.088271,0.052872,0.139800,0.999592,0.000561,0.009175,0.027030,-0.623551,-0.293118,-0.116115,0.715390,13.976594,34.346404,-93.508807
47584,-11.649640,4.787045,16.395374,0.294443,0.064562,10.858363,0.535681,0.665348,5.994647,-0.117306,0.043922,0.164464,0.999542,0.002678,0.003326,0.029969,-0.643577,-0.300482,-0.107438,0.695684,16.592326,33.805173,-89.382068
47585,-10.952301,4.429523,17.278283,-1.083879,-0.584028,11.080484,0.771025,-0.739348,6.394072,-0.111488,0.040086,0.172533,0.999475,0.003854,-0.003696,0.031965,-0.664769,-0.303714,-0.092636,0.676208,19.232108,32.270143,-85.365326
47586,-10.457197,5.770177,17.740570,-0.679918,-0.763652,11.546967,0.575348,-1.951345,6.438675,-0.108070,0.053751,0.176521,0.999430,0.002876,-0.009755,0.032187,-0.686227,-0.301806,-0.074377,0.657627,21.413741,29.935945,-81.774023
47587,-10.758581,4.059844,16.733079,-2.735910,0.880150,10.283975,-0.095138,-2.956967,6.152122,-0.111225,0.037293,0.165686,0.999418,-0.000476,-0.014782,0.030755,-0.707343,-0.293905,-0.055135,0.640504,22.798334,27.032382,-78.772733
47588,-11.903415,2.881236,16.952929,-4.708321,2.648985,10.388825,-0.428648,-3.968172,5.674921,-0.123125,0.025717,0.167056,0.999398,-0.002143,-0.019837,0.028369,-0.726850,-0.281036,-0.034103,0.625735,23.542833,23.658490,-76.451141
47589,-12.554061,2.405178,15.325589,-5.359207,4.940390,8.761506,-0.635580,-5.163245,5.292233,-0.130024,0.021130,0.149867,0.999312,-0.003177,-0.025810,0.026455,-0.744714,-0.263310,-0.009797,0.613166,23.819910,19.724499,-74.733291
47590,-10.337820,2.980466,13.256149,-4.106613,4.880957,6.019956,-0.891988,-5.937983,4.834103,-0.107938,0.027814,0.129274,0.999257,-0.004459,-0.029683,0.024165,-0.760478,-0.241793,0.015946,0.602458,23.675559,15.490939,-73.507273
47591,-6.840387,0.736091,10.416257,-4.598148,3.174832,1.347618,-1.067937,-6.189516,4.225690,-0.071724,0.006417,0.101941,0.999284,-0.005338,-0.030940,0.021123,-0.773482,-0.218606,0.041407,0.593483,23.262203,11.269423,-72.670296
47593,-4.952589,0.612085,9.677973,-4.114909,2.621299,-0.086355,-1.552691,-6.189496,3.188318,-0.111138,0.011761,0.186741,0.997457,-0.015514,-0.061842,0.031856,-0.791313,-0.167947,0.086896,0.581435,21.559025,3.312244,-71.984067
47594,-1.679040,-4.067638,7.874854,-6.773984,-0.589990,-3.885667,-1.669726,-5.857355,1.736922,-0.018743,-0.040177,0.078555,0.999499,-0.008347,-0.029282,0.008683,-0.794834,-0.143525,0.106660,0.579882,20.601112,-0.177559,-72.258475
47595,-1.548195,-1.378430,9.424082,-4.896642,0.360565,-1.507313,-0.991243,-5.676447,0.755579,-0.018098,-0.013384,0.093819,0.999578,-0.004956,-0.028378,0.003777,-0.794401,-0.122623,0.126839,0.581207,20.051224,-3.381442,-72.978560
47597,-0.222061,5.445015,9.744091,1.466615,1.948730,1.076486,-1.719838,-5.758786,0.205513,-0.015797,0.112199,0.192278,0.998192,-0.017188,-0.057553,0.002054,-0.789011,-0.074993,0.162590,0.587709,18.296626,-9.696165,-74.927598
47598,4.284557,2.401749,5.164297,1.486625,-2.822921,-3.440403,-2.568987,-5.394644,0.245107,0.041408,0.024739,0.052458,0.999553,-0.012843,-0.026969,0.001225,-0.785973,-0.048786,0.176338,0.590569,16.983524,-12.683883,-75.742752
47599,6.347916,1.116764,4.064249,1.162199,-5.009602,-4.190897,-2.109301,-4.614185,0.288055,0.062504,0.011696,0.041971,0.999677,-0.010545,-0.023068,0.001440,-0.783040,-0.026557,0.188250,0.592204,15.916523,-15.269471,-76.346736
47600,4.378754,0.100298,4.123366,-0.269329,-3.223917,-4.741747,-1.630509,-3.944220,0.116427,0.042963,0.001369,0.042076,0.999772,-0.008152,-0.019720,0.000582,-0.779725,-0.008379,0.198844,0.593650,15.141102,-17.465980,-76.907434
47605,0.532192,-0.940538,7.210635,-2.981046,1.566641,-3.360110,-1.458889,-3.618098,-2.086840,-0.008152,-0.033997,0.362242,0.993889,-0.036398,-0.090268,-0.052065,-0.726517,0.063524,0.245932,0.638478,14.283687,-26.006048,-85.934025
47606,0.815839,0.365950,7.078544,-1.509602,2.336403,-3.242976,-2.105935,-3.882517,-5.002493,0.006884,0.004223,0.070885,0.999443,-0.010528,-0.019409,-0.025008,-0.704726,0.077331,0.254697,0.657656,14.752560,-27.432167,-89.661958
47609,4.262649,0.295184,3.101773,-0.853685,-2.207850,-5.098667,-1.970014,-2.966187,-6.728928,0.123805,-0.000934,0.098561,0.993487,-0.029486,-0.044396,-0.100715,-0.620381,0.101298,0.272680,0.728362,18.099787,-29.071087,-103.884397
47610,5.735268,2.004329,1.399947,0.233254,-4.336047,-5.340756,-3.357902,-1.220122,-8.171622,0.058028,0.017917,0.014039,0.999006,-0.016784,-0.006099,-0.040845,-0.586680,0.104928,0.268045,0.756934,18.717065,-28.252681,-109.193458
47611,5.784391,1.913629,1.528037,-0.328698,-4.366356,-5.311032,-3.389778,0.021278,-8.361847,0.058585,0.016952,0.014974,0.998983,-0.016943,0.000106,-0.041795,-0.552723,0.103525,0.259249,0.785220,19.123238,-26.690140,-114.292514
47613,5.264025,7.109191,2.373892,3.783883,-5.487901,-3.550886,-4.477168,1.978707,-8.536880,0.117815,0.134349,0.039088,0.995162,-0.044699,0.019755,-0.085231,-0.483672,0.090208,0.220748,0.842137,17.799402,-21.436768,-123.654630
47614,1.438203,3.665276,3.337138,2.122805,-1.414657,-5.328193,-6.245991,3.522984,-7.835121,0.016400,0.037049,0.031941,0.998590,-0.031215,0.017607,-0.039157,-0.451111,0.081742,0.189160,0.868352,15.557723,-18.217505,-127.605451
47618,-2.102118,6.139330,7.034860,5.834614,0.107059,-2.255384,-2.743063,3.872564,-3.624740,-0.043996,0.264842,0.271643,0.992876,-0.054731,0.077267,-0.072323,-0.395368,0.025234,0.111236,0.911413,10.630405,-7.698164,-133.815211
47621,1.393969,2.367039,5.377732,0.484446,-1.721223,-4.048736,-2.134451,3.726916,0.509962,0.050083,0.076434,0.156294,0.997896,-0.031994,0.055865,0.007644,-0.407010,-0.012272,0.059587,0.911395,6.813898,-1.497671,-131.960079
47623,2.335137,2.822293,5.150800,0.113441,-3.333694,-4.446505,-1.346141,4.957047,1.489919,0.050842,0.058541,0.099784,0.998570,-0.013455,0.049547,0.014892,-0.423196,-0.051060,0.027286,0.904187,5.323740,3.970387,-129.652375
47624,0.901329,4.245663,4.579631,2.114048,-3.468477,-4.984848,-1.048595,5.792643,2.300778,0.009839,0.042805,0.045295,0.999501,-0.005242,0.028958,0.011502,-0.434486,-0.074700,0.010909,0.897509,4.885048,7.158124,-128.030893
47625,-0.707243,7.028687,4.602399,5.235541,-4.070675,-4.606670,-1.268634,6.410090,3.053680,-0.006677,0.070474,0.045796,0.999350,-0.006342,0.032044,0.015265,-0.448768,-0.100456,-0.007594,0.887952,4.475172,10.673767,-125.957921
47626,-3.878670,6.576957,3.910997,6.761295,-1.237724,-4.679833,-1.554911,6.992379,3.893710,-0.038674,0.065324,0.039955,0.999169,-0.007772,0.034952,0.019463,-0.466246,-0.128086,-0.028150,0.874881,4.157087,14.499410,-123.362440
47627,-8.328939,5.456359,4.051652,7.929472,2.992562,-3.202336,-1.891928,7.417004,4.643919,-0.082966,0.053034,0.043091,0.998998,-0.009456,0.037073,0.023212,-0.486297,-0.156605,-0.050725,0.858148,3.946713,18.548988,-120.276398
47628,-12.750472,1.454596,5.227192,5.775283,8.300607,-0.344175,-1.950736,7.689663,4.883293,-0.125687,0.012002,0.057003,0.998915,-0.009750,0.038434,0.024408,-0.506354,-0.185955,-0.073819,0.838795,4.009386,22.750128,-116.956939
47629,-16.820604,-3.109263,8.535230,1.682468,12.280460,4.733652,-1.327659,7.149988,4.663797,-0.164232,-0.034360,0.091493,0.999067,-0.006636,0.035739,0.023312,-0.524076,-0.214089,-0.093091,0.819051,4.613840,26.633002,-113.680498
47632,-13.207595,2.505670,13.040296,2.690655,4.157053,8.235512,-0.703378,4.263256,3.832137,-0.373825,0.057533,0.414943,0.996250,-0.010537,0.063869,0.057410,-0.565593,-0.265428,-0.122507,0.771132,7.646663,33.225690,-105.198541
47633,-6.351739,4.567607,11.230295,2.514982,-1.906627,3.505050,-0.949952,2.575137,4.636930,-0.063111,0.044745,0.112903,0.999637,-0.004749,0.012874,0.023182,-0.583012,-0.275569,-0.127152,0.753652,9.031156,34.307067,-101.757375
47634,-7.637616,4.527865,12.928419,1.899401,-1.769106,5.654164,-0.091086,2.400536,5.691831,-0.076066,0.043170,0.130179,0.999523,-0.000455,0.012001,0.028455,-0.602823,-0.287805,-0.126595,0.733312,11.369437,35.080735,-97.551646
47635,-10.278677,4.683086,15.985904,0.856255,-1.252340,9.700666,0.824550,1.660612,6.644439,-0.102919,0.042751,0.160895,0.999405,0.004122,0.008301,0.033216,-0.624643,-0.300499,-0.118856,0.710911,14.623017,35.151526,-92.736949
47636,-10.639359,5.615829,18.880272,0.064442,-2.501870,12.432537,1.071354,0.646569,7.122509,-0.107667,0.051325,0.189433,0.999346,0.005356,0.003232,0.035605,-0.647596,-0.310147,-0.106292,0.687844,18.026845,34.356062,-87.837965
47638,-11.601369,3.051433,20.864866,-4.337048,-1.724176,13.790469,0.601486,-1.290851,6.722901,-0.240669,0.042534,0.414519,0.997640,0.006010,-0.012898,0.067176,-0.691874,-0.311615,-0.072613,0.647251,22.977820,30.255951,-79.892728
47640,-10.967043,2.544480,19.547181,-5.753298,-0.058917,11.989168,-0.099377,-3.763026,5.352133,-0.236138,0.038928,0.382222,0.997860,-0.000993,-0.037603,0.053483,-0.728133,-0.289818,-0.030310,0.620410,24.848291,23.812942,-75.546594
47641,-10.951552,3.382310,16.307153,-4.764830,2.997370,9.304718,-0.517418,-5.365972,4.823452,-0.114614,0.031516,0.159958,0.999346,-0.002587,-0.026824,0.024112,-0.744217,-0.271862,-0.005287,0.610085,25.046576,19.851733,-74.235653
47644,-7.386383,2.447658,13.112447,-4.152699,3.107929,4.495368,-1.604166,-6.405535,4.021125,-0.261999,0.067485,0.367783,0.993283,-0.024009,-0.095868,0.060182,-0.783066,-0.193882,0.067817,0.587042,22.713573,6.974308,-72.313263
47646,-0.433317,-3.649867,7.852035,-6.085081,-1.802613,-3.911166,-0.900153,-6.293930,2.216052,-0.016943,-0.071899,0.156798,0.997734,-0.008995,-0.062892,0.022144,-0.791805,-0.148012,0.116014,0.581101,21.669358,-0.670405,-72.677782
47648,1.212207,4.269272,9.625724,0.639310,-0.358998,0.756461,-0.961678,-5.397761,0.821653,0.013134,0.087376,0.192589,0.998464,-0.009612,-0.053950,0.008212,-0.790570,-0.107819,0.154208,0.582747,20.651044,-6.786065,-74.027236
47652,2.903220,0.948867,6.995076,-0.912609,-1.713301,-2.443159,-2.030704,-4.462119,0.468874,0.090283,0.050448,0.286756,0.995153,-0.040548,-0.089098,0.009362,-0.782912,-0.021727,0.201295,0.588266,16.438166,-16.835819,-76.290193
47653,5.947990,-0.862643,5.407925,-1.303428,-4.595213,-3.289793,-1.030751,-2.980534,0.082216,0.058668,-0.008320,0.055001,0.999876,-0.005154,-0.014902,0.000411,-0.780175,-0.008833,0.209970,0.589204,15.988125,-18.494766,-76.741295
47656,3.086619,2.108215,6.543401,0.392810,-0.436667,-2.301118,-0.727024,-2.116170,0.187827,0.086140,0.065651,0.198398,0.999433,-0.010903,-0.031737,0.002817,-0.774889,0.019113,0.228189,0.589161,14.964796,-22.096283,-77.430687
47657,1.132131,2.731464,7.157811,0.389601,2.009316,-2.343668,-0.782112,-1.651349,0.097430,0.010717,0.027600,0.071561,0.999958,-0.003911,-0.008257,0.000487,-0.773188,0.027148,0.232332,0.589462,14.596610,-23.034013,-77.631994
47658,0.757434,2.201308,7.423670,-0.214351,2.396461,-2.414069,-1.214232,-1.673923,-0.278348,0.006984,0.022453,0.074161,0.999946,-0.006071,-0.008369,-0.001392,-0.770236,0.036500,0.235240,0.591663,14.065105,-23.926980,-78.054573
47659,0.594349,-0.876633,7.200195,-2.972317,1.693999,-3.389448,-1.371707,-1.746491,-0.782156,0.005281,-0.008294,0.072108,0.999931,-0.006858,-0.008732,-0.003911,-0.765576,0.046058,0.238057,0.595904,13.582669,-24.796250,-78.791725
47660,1.116431,-2.510691,6.288550,-4.095125,0.597774,-4.338544,-0.935136,-1.855461,-1.366988,0.010409,-0.024885,0.063101,0.999923,-0.004676,-0.009277,-0.006835,-0.759040,0.053584,0.242659,0.601751,13.516653,-25.649429,-79.903887
47661,2.222666,-1.240820,5.520393,-2.514577,-0.183067,-4.281279,-0.606873,-1.822682,-2.037242,0.021595,-0.012462,0.055440,0.999902,-0.003034,-0.009113,-0.010186,-0.750477,0.058931,0.248277,0.609647,13.839413,-26.391768,-81.437017
47662,2.319866,-0.468308,5.433915,-1.794986,0.004039,-4.164200,-0.577804,-1.671978,-2.725982,0.022678,-0.004837,0.054544,0.999868,-0.002889,-0.008360,-0.013629,-0.739844,0.062852,0.253549,0.619995,14.380129,-26.943326,-83.388575
47663,2.364809,-0.159474,5.035897,-1.437551,-0.038616,-4.435970,-0.602694,-1.545215,-3.294392,0.023229,-0.001828,0.050545,0.999830,-0.003013,-0.007726,-0.016471,-0.727375,0.065728,0.258384,0.632331,15.080691,-27.323141,-85.688565
47664,4.254634,-0.063635,3.206033,-0.791682,-2.408881,-5.127277,-0.544525,-1.286409,-3.725454,0.042318,-0.001338,0.032336,0.999802,-0.002722,-0.006432,-0.018626,-0.713634,0.066998,0.262502,0.646012,15.930495,-27.466059,-88.222371
47665,6.103107,1.011190,2.120271,0.405029,-4.355372,-4.951859,-0.503853,-0.620194,-4.125648,0.061157,0.008905,0.021369,0.999779,-0.002519,-0.003101,-0.020627,-0.699188,0.065420,0.264405,0.661019,16.858755,-27.143818,-90.882909
47666,6.017034,2.527315,2.186209,1.602506,-4.166142,-4.574360,-0.652549,0.280832,-4.476690,0.060747,0.023989,0.021697,0.999743,-0.003262,0.001404,-0.022382,-0.684394,0.060887,0.262649,0.677431,17.685978,-26.231834,-93.566137
47667,4.537493,4.075496,4.128197,2.434248,-2.077915,-3.180253,-1.013982,1.165373,-4.726160,0.046563,0.039872,0.040809,0.999691,-0.005069,0.005826,-0.023628,-0.669417,0.054243,0.256595,0.695052,18.230960,-24.767796,-96.188026
47668,1.347804,4.304877,5.779031,2.448298,1.232318,-3.013791,-1.429461,1.665093,-4.667558,0.014963,0.043122,0.057362,0.999667,-0.007147,0.008325,-0.023335,-0.654748,0.047284,0.247220,0.712707,18.398052,-23.024957,-98.632461
47669,0.791364,4.259093,5.794852,2.493771,1.440968,-3.176200,-1.556568,1.897227,-4.411508,0.009404,0.042843,0.057531,0.999681,-0.007782,0.009485,-0.022055,-0.640817,0.040201,0.236444,0.729267,18.339003,-21.202785,-100.848620
47670,1.076923,5.103323,6.048390,3.205791,0.890403,-2.552807,-1.610068,2.192791,-4.102229,0.012479,0.051273,0.059941,0.999697,-0.008050,0.010963,-0.020509,-0.627962,0.032549,0.224285,0.744514,18.089220,-19.278004,-102.805183
47674,-5.855431,5.853942,12.641821,4.296005,8.736829,1.731519,-1.387374,1.522923,-2.716415,-0.205156,0.259866,0.505243,0.997676,-0.027726,0.030435,-0.054286,-0.592116,0.015220,0.185746,0.784006,16.363590,-14.112779,-107.915721
47675,0.094813,5.575944,10.503141,3.143108,1.973278,1.485085,0.084079,-2.173511,-0.421275,-0.000076,0.055715,0.105058,0.999939,0.000420,-0.010867,-0.002106,-0.588420,0.022960,0.192506,0.784969,16.571494,-15.224111,-108.518775
47678,9.853565,5.230667,4.855208,0.938559,-8.586373,-1.244304,-0.192215,-0.531464,-0.049611,0.294553,0.157124,0.147554,0.999964,-0.002883,-0.007972,-0.000744,-0.586303,0.030901,0.194887,0.785693,16.320483,-16.086186,-108.859219
47680,3.519366,3.194523,10.044499,0.096870,-0.609512,1.282308,-0.280583,0.876264,0.312494,0.071942,0.064676,0.200083,0.999953,-0.002806,0.008762,0.003125,-0.590379,0.026221,0.187496,0.784608,15.832866,-15.220452,-108.209463
47683,3.013549,1.668360,10.790635,-1.258642,0.287400,1.440481,-0.251030,0.383828,0.221714,0.092098,0.051572,0.323000,0.999971,-0.003765,0.005757,0.003326,-0.594026,0.024615,0.181043,0.783423,15.249613,-14.693909,-107.635699
47685,3.360267,2.220872,9.921697,-0.671326,-0.514723,0.861952,0.117227,0.152935,-0.125063,0.067564,0.044101,0.198383,0.999997,0.001172,0.001529,-0.001251,-0.593390,0.022492,0.181109,0.783953,15.409748,-14.489454,-107.724971
47686,3.143616,3.098921,10.100273,0.157481,-0.484883,1.198270,0.037190,0.164342,-0.217307,0.031553,0.030936,0.100983,0.999999,0.000186,0.000822,-0.001087,-0.592708,0.021530,0.180814,0.784563,15.458110,-14.366503,-107.820592
47687,3.265849,3.133351,9.907905,0.175546,-0.684492,1.057034,0.002048,0.147214,-0.199408,0.032763,0.031300,0.099055,0.999999,0.000010,0.000736,-0.000997,-0.592089,0.020809,0.180389,0.785148,15.476391,-14.258026,-107.906627
47688,3.382689,3.265087,9.894708,0.255192,-0.846364,1.106430,0.004437,0.168097,-0.145556,0.033934,0.032624,0.098919,0.999999,0.000022,0.000840,-0.000728,-0.591687,0.019996,0.179949,0.785573,15.495497,-14.144166,-107.960570
47689,3.484143,3.167675,9.791294,0.144839,-0.967763,1.007908,0.006191,0.173488,-0.056786,0.034935,0.031664,0.097884,1.000000,0.000031,0.000867,-0.000284,-0.591650,0.019288,0.179446,0.785733,15.495020,-14.042973,-107.961131
47690,3.765860,3.031818,9.710281,-0.059140,-1.239271,0.963391,0.040426,0.220404,0.046790,0.037758,0.030307,0.097067,0.999999,0.000202,0.001102,0.000234,-0.592053,0.018337,0.178977,0.785560,15.506259,-13.930123,-107.897304
47691,3.752913,2.946575,10.008723,-0.196649,-1.139072,1.214778,0.083644,0.287777,0.125616,0.037655,0.029448,0.100045,0.999999,0.000418,0.001439,0.000628,-0.592841,0.017115,0.178423,0.785119,15.520978,-13.793786,-107.776069
47692,2.542867,2.711130,10.588332,-0.179246,0.188682,1.406109,0.169543,0.255128,0.222850,0.025534,0.027050,0.105874,0.999998,0.000848,0.001276,0.001114,-0.593975,0.015807,0.178346,0.784306,15.581436,-13.689547,-107.606642
47693,2.076799,2.893407,10.702394,0.090993,0.607072,1.450052,0.231015,0.084824,0.334397,0.020765,0.028845,0.107048,0.999998,0.001155,0.000424,0.001672,-0.595409,0.015130,0.178954,0.783093,15.660455,-13.697630,-107.398884
47698,2.562900,2.508409,9.493981,-0.175181,-0.097723,0.334029,0.028155,-0.002372,0.290966,0.127202,0.126014,0.474795,0.999973,0.000704,-0.000059,0.007274,-0.601228,0.016229,0.179382,0.778514,15.526039,-13.943691,-106.553980
47705,1.842034,2.520038,9.154886,0.139220,0.442986,-0.151465,-0.108733,0.088454,-0.076225,0.131398,0.178490,0.639761,0.999984,-0.003806,0.003096,-0.002668,-0.599817,0.015824,0.174592,0.780696,15.122039,-13.541737,-106.734833
47707,2.406276,3.188745,8.941648,0.676400,-0.335656,-0.048408,-0.022663,0.035637,0.031101,0.048169,0.063830,0.178801,1.000000,-0.000227,0.000356,0.000311,-0.600139,0.015654,0.174309,0.780516,15.101142,-13.512396,-106.685850
47715,2.114859,2.883352,9.437057,0.399999,0.116460,0.270489,-0.021187,0.111057,0.182487,0.170847,0.232550,0.754011,0.999963,-0.000847,0.004442,0.007299,-0.606805,0.014265,0.170758,0.776161,14.746675,-13.260451,-105.686794
47718,2.775347,2.566996,9.153115,-0.007915,-0.536536,0.075870,0.088533,-0.003596,0.078192,0.083155,0.076743,0.274700,0.999998,0.001328,-0.000054,0.001173,-0.607764,0.013616,0.171938,0.775161,14.886319,-13.303243,-105.549347
47723,2.546316,2.627965,9.398196,0.038045,-0.288335,0.268533,0.049255,0.143943,0.004882,0.128990,0.130836,0.469609,0.999993,0.001231,0.003599,0.000122,-0.608623,0.010242,0.170684,0.774816,14.985814,-12.922701,-105.407080
47725,2.625018,2.647936,9.237691,0.044983,-0.456862,0.138512,0.037321,0.204357,0.044872,0.052854,0.052913,0.184666,0.999998,0.000373,0.002044,0.000449,-0.609353,0.008479,0.169814,0.774455,15.013339,-12.714101,-105.289653
47728,1.984908,2.643626,9.302817,0.172345,0.110175,0.057907,0.076241,0.316789,0.121784,0.060728,0.079100,0.278888,0.999986,0.001144,0.004752,0.001827,-0.611656,0.004498,0.167783,0.773114,15.060933,-12.251699,-104.926450
47730,2.148688,2.729222,9.131520,0.234122,-0.166309,-0.047058,-0.020614,0.303451,0.224207,0.043405,0.054719,0.182488,0.999993,-0.000206,0.003035,0.002242,-0.613938,0.002674,0.165796,0.771741,14.966374,-11.987902,-104.574230
47733,1.724969,2.462826,9.463996,0.005355,0.311567,0.112562,0.111352,0.353356,0.270420,0.052954,0.073624,0.283764,0.999976,0.001670,0.005300,0.004056,-0.618018,-0.001683,0.163815,0.768906,15.024343,-11.530698,-103.943578
47734,1.654229,2.839836,9.693942,0.311001,0.326929,0.413262,0.149924,0.198939,0.302978,0.016596,0.028351,0.096944,0.999998,0.000750,0.000995,0.001515,-0.619357,-0.002687,0.163835,0.767820,15.076691,-11.467889,-103.740245
47737,1.295017,2.564754,9.868585,0.090954,0.754798,0.437484,0.033668,0.080594,0.227585,0.038946,0.076926,0.296049,0.999993,0.000505,0.001209,0.003414,-0.622262,-0.003239,0.163431,0.765552,15.035628,-11.445495,-103.304988
