PacketCounter,Acc_X,Acc_Y,Acc_Z,FreeAcc_E,FreeAcc_N,FreeAcc_U,Gyr_X,Gyr_Y,Gyr_Z,VelInc_X,VelInc_Y,VelInc_Z,OriInc_q0,OriInc_q1,OriInc_q2,OriInc_q3,Quat_q0,Quat_q1,Quat_q2,Quat_q3,Roll,Pitch,Yaw
15541,-3.976366,1.038044,8.930006,-0.053634,0.122888,0.016659,0.067443,0.026401,-0.042219,-0.039750,0.010359,0.089309,1.000000,0.000337,0.000132,-0.000211,0.251653,0.215072,-0.005863,-0.943600,7.490589,23.761666,-148.556106
15542,-3.961794,1.069336,8.943727,-0.060754,0.090947,0.026905,0.093197,0.020418,-0.037361,-0.039607,0.010659,0.089446,1.000000,0.000466,0.000102,-0.000187,0.251452,0.215264,-0.006223,-0.943607,7.534759,23.773379,-148.568977
15543,-3.962753,1.064164,9.000188,-0.091320,0.096019,0.077797,0.110560,0.022054,-0.036353,-0.039616,0.010599,0.090012,1.000000,0.000553,0.000110,-0.000182,0.251237,0.215485,-0.006661,-0.943611,7.588904,23.785952,-148.581239
15544,-4.054190,1.132342,8.920962,0.037807,0.094565,0.050975,0.128531,0.026070,-0.030741,-0.040529,0.011272,0.089222,1.000000,0.000643,0.000130,-0.000154,0.251029,0.215748,-0.007187,-0.943603,7.655158,23.800393,-148.589516
15545,-3.955487,1.309636,8.952708,0.024137,-0.102852,0.061564,0.121048,0.016630,-0.025989,-0.039546,0.013047,0.089538,1.000000,0.000605,0.000083,-0.000130,0.250850,0.215956,-0.007693,-0.943598,7.717732,23.809117,-148.595773
15546,-3.940854,1.394108,8.997492,0.028417,-0.181993,0.106728,0.073371,0.020124,-0.020292,-0.039398,0.013912,0.089984,1.000000,0.000367,0.000101,-0.000101,0.250751,0.216120,-0.007978,-0.943585,7.754807,23.819393,-148.598037
15547,-4.028969,1.320977,8.950098,0.077818,-0.068547,0.090397,0.053727,0.030308,-0.017189,-0.040275,0.013189,0.089511,1.000000,0.000269,0.000152,-0.000086,0.250687,0.216308,-0.008159,-0.943557,7.781485,23.835208,-148.597663
15548,-3.999049,1.398464,8.942918,0.089357,-0.148074,0.081451,0.047916,0.031125,-0.024511,-0.039975,0.013968,0.089439,1.000000,0.000240,0.000156,-0.000123,0.250596,0.216493,-0.008305,-0.943538,7.803307,23.852058,-148.601594
15549,-4.088999,1.396190,8.891017,0.176174,-0.097304,0.070578,0.035213,0.025541,-0.019307,-0.040877,0.013950,0.088918,1.000000,0.000176,0.000128,-0.000097,0.250542,0.216635,-0.008402,-0.943519,7.818687,23.865332,-148.602928
15550,-4.038307,1.401913,8.940732,0.116681,-0.130729,0.095858,0.012644,0.010663,-0.021348,-0.040377,0.014018,0.089410,1.000000,0.000063,0.000053,-0.000107,0.250503,0.216679,-0.008411,-0.943519,7.820402,23.870326,-148.606625
15551,-4.055839,1.324839,8.893626,0.113280,-0.051271,0.050686,0.001068,0.006547,-0.023078,-0.040554,0.013253,0.088938,1.000000,0.000005,0.000033,-0.000115,0.250468,0.216689,-0.008367,-0.943526,7.814616,23.873112,-148.611916
15552,-4.021492,1.343304,8.937909,0.077567,-0.089240,0.079183,-0.012246,-0.002088,-0.025689,-0.040214,0.013444,0.089378,1.000000,-0.000061,-0.000010,-0.000128,0.250435,0.216642,-0.008269,-0.943547,7.800549,23.871209,-148.619389
15553,-4.034791,1.178305,8.954874,0.005633,0.057799,0.079448,-0.022086,-0.010394,-0.028096,-0.040351,0.011799,0.089545,1.000000,-0.000110,-0.000052,-0.000140,0.250400,0.216543,-0.008132,-0.943580,7.779654,23.864766,-148.629234
15554,-4.033510,1.144516,8.968875,-0.015136,0.084024,0.087441,0.001916,-0.005073,-0.028994,-0.040336,0.011450,0.089688,1.000000,0.000010,-0.000025,-0.000145,0.250336,0.216500,-0.008102,-0.943607,7.772771,23.861422,-148.639009
15555,-4.001400,1.239501,8.927875,0.022587,-0.011021,0.049051,0.001063,-0.010862,-0.026187,-0.040017,0.012400,0.089277,1.000000,0.000005,-0.000054,-0.000131,0.250285,0.216428,-0.008076,-0.943637,7.765606,23.854563,-148.647706
15556,-3.949231,1.264863,8.943128,-0.010783,-0.059996,0.044905,-0.007885,-0.011403,-0.021741,-0.039496,0.012656,0.089429,1.000000,-0.000039,-0.000057,-0.000109,0.250266,0.216342,-0.008015,-0.943662,7.754710,23.847064,-148.653515
15557,-3.964009,1.243648,9.031635,-0.043620,-0.043998,0.128471,-0.019446,-0.006160,-0.018693,-0.039642,0.012449,0.090314,1.000000,-0.000097,-0.000031,-0.000093,0.250272,0.216266,-0.007894,-0.943679,7.737838,23.842291,-148.657159
15558,-4.015077,1.153763,8.963432,-0.015927,0.063083,0.076241,-0.026378,0.002539,-0.014319,-0.040149,0.011552,0.089633,1.000000,-0.000132,0.000013,-0.000072,0.250309,0.216223,-0.007737,-0.943681,7.718688,23.842130,-148.657181
15559,-3.965615,1.250632,8.973816,-0.011701,-0.048596,0.077564,-0.026070,-0.000127,-0.010390,-0.039656,0.012520,0.089737,1.000000,-0.000130,-0.000001,-0.000052,0.250362,0.216167,-0.007587,-0.943681,7.700311,23.840142,-148.655161
15560,-3.946695,1.149856,8.962652,-0.067721,0.029270,0.047447,-0.021753,0.005668,-0.014599,-0.039464,0.011511,0.089626,1.000000,-0.000109,0.000028,-0.000073,0.250392,0.216144,-0.007447,-0.943679,7.683843,23.841778,-148.655096
15561,-4.034845,1.153341,8.934481,0.014086,0.069599,0.057980,0.018419,0.017272,-0.018886,-0.040340,0.011529,0.089349,1.000000,0.000092,0.000086,-0.000094,0.250358,0.216226,-0.007476,-0.943669,7.689414,23.850322,-148.656892
15562,-3.987627,1.295188,8.952702,0.034692,-0.078634,0.072765,0.013814,0.015131,-0.013773,-0.039869,0.012948,0.089531,1.000000,0.000069,0.000076,-0.000069,0.250353,0.216293,-0.007493,-0.943655,7.693847,23.857267,-148.655525
15563,-4.023110,1.234277,8.898766,0.054893,-0.003684,0.030781,0.008315,0.013601,-0.015564,-0.040224,0.012342,0.088991,1.000000,0.000042,0.000068,-0.000078,0.250346,0.216344,-0.007482,-0.943645,7.694338,23.863471,-148.655564
15564,-4.024591,1.294852,8.952123,0.061960,-0.061248,0.087155,0.007745,0.003497,-0.016880,-0.040243,0.012948,0.089522,1.000000,0.000039,0.000017,-0.000084,0.250333,0.216349,-0.007482,-0.943648,7.694122,23.864051,-148.657099
15565,-3.971492,1.266907,9.016391,-0.018663,-0.068848,0.120490,-0.011612,0.002271,-0.011436,-0.039713,0.012677,0.090164,1.000000,-0.000058,0.000011,-0.000057,0.250366,0.216322,-0.007395,-0.943646,7.683848,23.863506,-148.655526
15566,-4.060224,1.281687,8.930210,0.094086,-0.033269,0.080079,-0.025195,0.006969,-0.006760,-0.040599,0.012829,0.089302,1.000000,-0.000126,0.000035,-0.000034,0.250436,0.216301,-0.007246,-0.943633,7.667421,23.865280,-148.650485
15567,-3.992396,1.340208,8.983113,0.048561,-0.125030,0.107681,-0.050921,0.006138,-0.003571,-0.039921,0.013426,0.089829,1.000000,-0.000255,0.000031,-0.000018,0.250549,0.216243,-0.006978,-0.943618,7.636732,23.866331,-148.643706
15568,-4.042737,1.234771,8.973350,0.045099,-0.013047,0.106344,-0.074907,0.010156,0.002117,-0.040423,0.012381,0.089731,1.000000,-0.000375,0.000051,0.000011,0.250716,0.216174,-0.006600,-0.943593,7.594166,23.869248,-148.632886
15569,-3.992083,1.194089,8.934661,0.005167,-0.004394,0.045847,-0.079270,0.019145,-0.003407,-0.039912,0.011977,0.089346,1.000000,-0.000396,0.000096,-0.000017,0.250860,0.216142,-0.006182,-0.943564,7.547711,23.877684,-148.624932
15570,-4.043493,1.117380,8.991399,-0.012918,0.075848,0.108891,-0.039684,0.029044,-0.009038,-0.040421,0.011193,0.089918,1.000000,-0.000198,0.000145,-0.000045,0.250936,0.216207,-0.005935,-0.943531,7.523151,23.892181,-148.619491
15571,-4.010952,1.064191,8.958538,-0.050346,0.106027,0.059591,-0.019465,0.027697,-0.017235,-0.040096,0.010654,0.089590,1.000000,-0.000097,0.000138,-0.000086,0.250951,0.216290,-0.005773,-0.943509,7.507764,23.906518,-148.619435
15572,-4.016923,1.157680,8.917028,0.013879,0.028209,0.035576,-0.006177,0.035693,-0.017824,-0.040152,0.011583,0.089177,1.000000,-0.000031,0.000178,-0.000089,0.250950,0.216429,-0.005666,-0.943478,7.500400,23.925454,-148.618922
15573,-4.021716,1.220300,8.888960,0.056880,-0.023639,0.019563,0.000497,0.023263,-0.016438,-0.040206,0.012206,0.088894,1.000000,0.000002,0.000116,-0.000082,0.250947,0.216516,-0.005605,-0.943459,7.496503,23.937213,-148.618738
15574,-3.955173,1.272148,8.918741,0.016272,-0.104836,0.025729,-0.001215,0.010692,-0.015683,-0.039546,0.012725,0.089189,1.000000,-0.000006,0.000053,-0.000078,0.250949,0.216543,-0.005555,-0.943453,7.491690,23.941789,-148.618943
15575,-3.988670,1.197401,8.923427,0.005345,-0.025035,0.034654,-0.002075,0.003916,-0.017720,-0.039884,0.011978,0.089235,1.000000,-0.000010,0.000020,-0.000089,0.250942,0.216536,-0.005505,-0.943456,7.485354,23.942652,-148.621138
15576,-3.990936,1.278808,8.941425,0.038669,-0.097985,0.061568,-0.009586,0.002171,-0.016278,-0.039907,0.012796,0.089414,1.000000,-0.000048,0.000011,-0.000081,0.250951,0.216512,-0.005425,-0.943460,7.475316,23.942431,-148.622409
15577,-4.058551,1.202079,8.946931,0.054028,-0.001055,0.084862,-0.018840,0.004283,-0.015760,-0.040583,0.012032,0.089469,1.000000,-0.000094,0.000021,-0.000079,0.250971,0.216486,-0.005297,-0.943461,7.459880,23.943356,-148.623357
15578,-4.007045,1.194731,8.975284,-0.000478,-0.024167,0.088773,-0.017983,0.010733,-0.015330,-0.040065,0.011958,0.089754,1.000000,-0.000090,0.000054,-0.000077,0.250994,0.216492,-0.005168,-0.943455,7.445555,23.947929,-148.623335
15579,-4.044574,1.222841,8.961826,0.047587,-0.032869,0.095133,-0.032180,0.030446,-0.012080,-0.040431,0.012245,0.089622,1.000000,-0.000161,0.000152,-0.000060,0.251047,0.216572,-0.004949,-0.943423,7.424267,23.963445,-148.619873
15580,-4.047519,1.209454,8.938573,0.052856,-0.022109,0.073666,-0.044029,0.030290,-0.011301,-0.040461,0.012117,0.089389,1.000000,-0.000220,0.000151,-0.000057,0.251117,0.216638,-0.004677,-0.943391,7.396679,23.978831,-148.615771
15581,-3.997660,1.199785,8.966538,-0.001611,-0.045285,0.077586,-0.048922,0.022432,-0.010086,-0.039966,0.012022,0.089667,1.000000,-0.000245,0.000112,-0.000050,0.251197,0.216659,-0.004391,-0.943366,7.366035,23.989650,-148.611729
15582,-4.067885,1.123848,8.890627,0.049418,0.057476,0.028462,-0.038801,0.017419,-0.014967,-0.040670,0.011259,0.088908,1.000000,-0.000194,0.000087,-0.000075,0.251244,0.216670,-0.004156,-0.943352,7.340092,23.997995,-148.610955
15583,-3.985322,1.230058,8.923353,0.022929,-0.081914,0.036923,-0.036759,0.009909,-0.014957,-0.039848,0.012320,0.089233,1.000000,-0.000184,0.000050,-0.000075,0.251288,0.216648,-0.003938,-0.943346,7.314774,24.002057,-148.610956
15584,-4.019624,1.174769,8.892385,0.037991,-0.017460,0.016363,-0.031824,0.001339,-0.014506,-0.040195,0.011765,0.088922,1.000000,-0.000159,0.000007,-0.000073,0.251329,0.216592,-0.003756,-0.943349,7.292421,24.001232,-148.611183
15585,-4.036118,1.174045,8.944813,0.031304,-0.016932,0.070482,-0.028910,-0.008099,-0.014041,-0.040364,0.011756,0.089445,1.000000,-0.000145,-0.000040,-0.000070,0.251368,0.216495,-0.003598,-0.943362,7.271248,23.994993,-148.612049
15586,-4.034871,1.129541,8.936209,0.015230,0.019777,0.057026,-0.031523,-0.001664,-0.012195,-0.040349,0.011312,0.089360,1.000000,-0.000158,-0.000008,-0.000061,0.251420,0.216425,-0.003424,-0.943364,7.249556,23.992296,-148.611078
15587,-4.018023,1.152343,8.952213,0.008388,-0.012232,0.067308,-0.025160,-0.002385,-0.011546,-0.040181,0.011537,0.089520,1.000000,-0.000126,-0.000012,-0.000058,0.251467,0.216359,-0.003280,-0.943367,7.231348,23.989123,-148.609936
15588,-3.950909,1.252519,9.015016,-0.020337,-0.140636,0.108442,-0.033836,0.001444,-0.009649,-0.039508,0.012542,0.090148,1.000000,-0.000169,0.000007,-0.000048,0.251533,0.216302,-0.003094,-0.943364,7.209074,23.988011,-148.607129
15589,-4.053008,1.134845,8.930896,0.040365,0.015836,0.060193,-0.048003,0.003417,-0.011157,-0.040528,0.011372,0.089307,1.000000,-0.000240,0.000017,-0.000056,0.251607,0.216234,-0.002835,-0.943360,7.178064,23.988110,-148.605286
15590,-4.036430,1.156206,8.946995,0.033512,-0.016133,0.070476,-0.043358,-0.000854,-0.006579,-0.040364,0.011583,0.089467,1.000000,-0.000217,-0.000004,-0.000033,0.251698,0.216154,-0.002610,-0.943355,7.151041,23.985471,-148.600751
15591,-3.984335,1.146957,8.975887,-0.020923,-0.039399,0.074425,-0.041065,0.004097,-0.010740,-0.039841,0.011490,0.089757,1.000000,-0.000205,0.000020,-0.000054,0.251766,0.216098,-0.002384,-0.943350,7.124133,23.985928,-148.598596
15592,-4.069714,1.093350,8.997138,0.013195,0.042644,0.122326,-0.026050,0.007607,-0.013613,-0.040693,0.010948,0.089972,1.000000,-0.000130,0.000038,-0.000068,0.251805,0.216079,-0.002223,-0.943345,7.105515,23.988603,-148.597775
15593,-4.050799,0.974458,8.939888,-0.033676,0.141343,0.049312,-0.006404,0.005233,-0.019967,-0.040505,0.009751,0.089400,1.000000,-0.000032,0.000026,-0.000100,0.251792,0.216073,-0.002148,-0.943350,7.096167,23.990361,-148.601274
15594,-4.053383,1.038034,8.913119,0.009424,0.089658,0.033276,0.023944,0.000551,-0.025018,-0.040532,0.010375,0.089133,1.000000,0.000120,0.000003,-0.000125,0.251723,0.216084,-0.002219,-0.943365,7.103077,23.989834,-148.608103
15595,-4.022048,1.155050,8.917598,0.038064,-0.026354,0.037817,0.036965,-0.004538,-0.024647,-0.040221,0.011539,0.089177,1.000000,0.000185,-0.000023,-0.000123,0.251641,0.216086,-0.002356,-0.943386,7.117086,23.986369,-148.615272
15596,-4.003993,1.141621,8.923874,0.014679,-0.021827,0.034653,0.028889,-0.007372,-0.021360,-0.040042,0.011408,0.089239,1.000000,0.000144,-0.000037,-0.000107,0.251584,0.216066,-0.002464,-0.943406,7.127502,23.981082,-148.620447
15597,-4.021128,1.158760,8.917532,0.038948,-0.026045,0.037814,0.026600,-0.012323,-0.017195,-0.040216,0.011579,0.089174,1.000000,0.000133,-0.000062,-0.000086,0.251549,0.216018,-0.002571,-0.943426,7.137211,23.972664,-148.623586
15598,-3.954092,1.285632,8.944550,0.036585,-0.169808,0.049487,0.014481,-0.017545,-0.017095,-0.039548,0.012853,0.089443,1.000000,0.000072,-0.000088,-0.000085,0.251527,0.215931,-0.002628,-0.943451,7.140130,23.961292,-148.626895
15599,-4.053130,1.177587,8.964021,0.056538,-0.029693,0.095096,-0.003155,-0.015602,-0.017196,-0.040537,0.011781,0.089637,1.000000,-0.000016,-0.000078,-0.000086,0.251524,0.215831,-0.002598,-0.943476,7.132687,23.951010,-148.630291
15600,-4.000504,1.184434,8.934915,0.033038,-0.057719,0.048103,-0.005448,-0.021846,-0.019466,-0.040014,0.011851,0.089344,1.000000,-0.000027,-0.000109,-0.000097,0.251513,0.215699,-0.002565,-0.943509,7.123462,23.937360,-148.635406
15601,-4.031710,1.150200,8.949897,0.038386,-0.014453,0.070461,-0.011470,-0.031544,-0.012963,-0.040330,0.011510,0.089492,1.000000,-0.000057,-0.000158,-0.000065,0.251538,0.215513,-0.002520,-0.943545,7.111824,23.917712,-148.637403
15602,-4.030023,1.189916,8.960543,0.055420,-0.050768,0.083911,-0.008581,-0.033892,-0.018957,-0.040314,0.011907,0.089598,1.000000,-0.000043,-0.000169,-0.000095,0.251532,0.215320,-0.002488,-0.943590,7.100562,23.897176,-148.643129
15603,-3.974259,1.142015,8.980983,-0.015576,-0.037648,0.074442,-0.014391,-0.021786,-0.011802,-0.039752,0.011429,0.089805,1.000000,-0.000072,-0.000109,-0.000059,0.251566,0.215176,-0.002418,-0.943614,7.087854,23.882993,-148.643639
15604,-4.041338,1.128594,8.960653,0.042132,0.007595,0.081634,-0.017561,-0.026424,-0.016134,-0.040424,0.011297,0.089600,1.000000,-0.000088,-0.000132,-0.000081,0.251584,0.215007,-0.002337,-0.943648,7.072401,23.866502,-148.647012
15605,-4.022399,1.142588,8.955060,0.040153,-0.013840,0.070455,-0.025055,-0.027220,-0.009860,-0.040236,0.011439,0.089544,1.000000,-0.000125,-0.000136,-0.000049,0.251638,0.214825,-0.002226,-0.943676,7.053905,23.849093,-148.646724
15606,-3.984358,1.109129,8.969206,-0.007063,-0.005036,0.064148,-0.025623,-0.028296,-0.008011,-0.039856,0.011104,0.089685,1.000000,-0.000128,-0.000141,-0.000040,0.251702,0.214637,-0.002118,-0.943701,7.035822,23.830966,-148.645186
15607,-3.999810,1.121980,8.964218,0.017213,-0.009224,0.067300,-0.025047,-0.026574,-0.006637,-0.040010,0.011232,0.089635,1.000000,-0.000125,-0.000133,-0.000033,0.251772,0.214457,-0.002010,-0.943724,7.018165,23.813698,-148.642834
15608,-3.996307,1.124047,9.068969,-0.022786,-0.025550,0.161228,-0.054240,-0.018160,0.002810,-0.039971,0.011265,0.090683,1.000000,-0.000271,-0.000091,0.000014,0.251918,0.214281,-0.001765,-0.943726,6.986717,23.800580,-148.633781
15609,-3.974809,0.970273,9.025778,-0.091345,0.098879,0.096252,-0.068190,0.007530,0.011649,-0.039745,0.009731,0.090256,1.000000,-0.000341,0.000038,0.000058,0.252121,0.214207,-0.001430,-0.943689,6.949980,23.801440,-148.617453
15610,-3.961803,1.054457,9.014916,-0.055289,0.015117,0.090503,-0.056732,0.026189,0.002110,-0.039606,0.010570,0.090151,1.000000,-0.000284,0.000131,0.000011,0.252267,0.214237,-0.001117,-0.943643,6.918283,23.813602,-148.605465
15611,-4.017869,1.096235,8.995312,0.016638,0.002339,0.099949,-0.048070,0.032358,0.008242,-0.040165,0.010982,0.089957,1.000000,-0.000240,0.000162,0.000041,0.252431,0.214306,-0.000842,-0.943584,6.892979,23.828835,-148.589384
15612,-4.004983,1.112821,8.906948,0.050304,-0.013150,0.016314,-0.039665,0.022856,0.002426,-0.040040,0.011145,0.089072,1.000000,-0.000198,0.000114,0.000012,0.252561,0.214341,-0.000615,-0.943541,6.871036,23.839089,-148.577459
15613,-4.006628,1.118990,8.929130,0.046009,-0.023614,0.037790,-0.032132,0.015924,-0.000628,-0.040059,0.011204,0.089293,1.000000,-0.000161,0.000080,-0.000003,0.252666,0.214353,-0.000426,-0.943511,6.852140,23.845591,-148.568135
15614,-4.007601,1.116626,8.928990,0.046433,-0.023445,0.037788,-0.019383,0.005476,-0.002582,-0.040073,0.011175,0.089290,1.000000,-0.000097,0.000027,-0.000013,0.252750,0.214332,-0.000310,-0.943493,6.840034,23.846308,-148.560640
15615,-4.007651,1.114809,8.929194,0.046884,-0.023313,0.037786,-0.018476,-0.005150,-0.003743,-0.040079,0.011157,0.089290,1.000000,-0.000092,-0.000026,-0.000019,0.252826,0.214261,-0.000209,-0.943489,6.827542,23.841038,-148.554827
15616,-3.990281,1.138750,8.945419,0.040171,-0.055315,0.048091,-0.016734,-0.010285,-0.009277,-0.039907,0.011397,0.089451,1.000000,-0.000084,-0.000051,-0.000046,0.252876,0.214170,-0.000119,-0.943496,6.814800,23.833250,-148.552658
15617,-4.022555,1.104075,8.959820,0.045422,-0.012035,0.070434,-0.014109,-0.016391,-0.009533,-0.040232,0.011049,0.089594,1.000000,-0.000071,-0.000082,-0.000048,0.252920,0.214052,-0.000047,-0.943511,6.803017,23.821980,-148.551279
15618,-4.020839,1.102422,8.960794,0.045844,-0.011866,0.070433,-0.012063,-0.024854,-0.014382,-0.040219,0.011033,0.089602,1.000000,-0.000060,-0.000124,-0.000072,0.252940,0.213897,0.000008,-0.943541,6.791234,23.806251,-148.553362
15619,-4.019669,1.141975,8.971425,0.063006,-0.048177,0.083879,-0.013770,-0.028417,-0.010458,-0.040209,0.011428,0.089708,1.000000,-0.000069,-0.000142,-0.000052,0.252980,0.213722,0.000065,-0.943570,6.779055,23.788203,-148.553443
15620,-3.929828,1.144844,9.023303,-0.022295,-0.099562,0.095078,-0.027031,-0.037721,-0.016308,-0.039314,0.011464,0.090224,1.000000,-0.000135,-0.000189,-0.000082,0.253007,0.213488,0.000176,-0.943616,6.757839,23.765283,-148.557669
15621,-4.028436,1.037533,8.962669,0.032827,0.046575,0.068150,-0.033105,-0.030365,-0.008194,-0.040298,0.010392,0.089619,1.000000,-0.000166,-0.000152,-0.000041,0.253078,0.213280,0.000319,-0.943644,6.735098,23.745974,-148.556472
15622,-3.993524,1.118057,8.982486,0.040482,-0.043447,0.080736,-0.024158,-0.029125,-0.009429,-0.039948,0.011193,0.089818,1.000000,-0.000121,-0.000146,-0.000047,0.253134,0.213090,0.000421,-0.943671,6.717511,23.727482,-148.555757
15623,-3.971759,1.076942,9.025986,-0.009071,-0.023835,0.107113,-0.035122,-0.031554,-0.009774,-0.039731,0.010787,0.090252,1.000000,-0.000176,-0.000158,-0.000049,0.253200,0.212874,0.000574,-0.943702,6.693189,23.707603,-148.555615
15624,-4.003066,1.003039,8.950888,0.014969,0.061879,0.043527,-0.042651,-0.024627,-0.006697,-0.040041,0.010051,0.089502,1.000000,-0.000213,-0.000123,-0.000033,0.253289,0.212681,0.000765,-0.943722,6.665831,23.691487,-148.552862
15625,-3.983918,1.034223,8.990654,0.003606,0.019221,0.075320,-0.038869,-0.026978,-0.002597,-0.039851,0.010360,0.089899,1.000000,-0.000194,-0.000135,-0.000013,0.253392,0.212482,0.000934,-0.943739,6.641295,23.673736,-148.547908
15626,-3.947188,1.041106,9.013952,-0.026898,-0.008559,0.082500,-0.034570,-0.020503,-0.003552,-0.039481,0.010427,0.090134,1.000000,-0.000173,-0.000103,-0.000018,0.253487,0.212319,0.001089,-0.943750,6.619470,23.659762,-148.542908
15627,-3.980789,1.018668,8.970224,0.009172,0.030099,0.053837,-0.025404,-0.006154,-0.005702,-0.039810,0.010199,0.089700,1.000000,-0.000127,-0.000031,-0.000029,0.253562,0.212235,0.001223,-0.943749,6.602479,23.654071,-148.538370
15628,-3.963536,1.023585,8.941377,0.011923,0.019276,0.021185,-0.020763,-0.011703,-0.007599,-0.039640,0.010247,0.089410,1.000000,-0.000104,-0.000059,-0.000038,0.253623,0.212132,0.001329,-0.943755,6.587806,23.645376,-148.535227
15629,-3.981128,1.096748,8.990612,0.043574,-0.042453,0.080727,-0.016986,-0.014373,-0.005116,-0.039817,0.010976,0.089902,1.000000,-0.000085,-0.000072,-0.000026,0.253691,0.212019,0.001413,-0.943762,6.575549,23.634971,-148.530912
15630,-3.978794,1.044496,8.959295,0.031918,0.004723,0.045796,-0.018134,-0.017806,-0.007865,-0.039796,0.010455,0.089588,1.000000,-0.000091,-0.000089,-0.000039,0.253749,0.211890,0.001499,-0.943775,6.562146,23.622822,-148.528367
15631,-3.960314,1.059280,8.953470,0.030004,-0.016738,0.034628,-0.012615,-0.025283,-0.009318,-0.039614,0.010600,0.089529,1.000000,-0.000063,-0.000126,-0.000047,0.253792,0.211732,0.001553,-0.943799,6.551035,23.606483,-148.527437
15632,-3.957766,1.066795,8.977340,0.025728,-0.027183,0.056111,-0.016348,-0.030989,-0.011810,-0.039591,0.010678,0.089766,1.000000,-0.000082,-0.000155,-0.000059,0.253829,0.211543,0.001617,-0.943831,6.537297,23.587087,-148.528295
15633,-3.987058,0.991028,8.982920,0.014081,0.052506,0.064997,-0.008237,-0.035876,-0.011911,-0.039886,0.009916,0.089822,1.000000,-0.000041,-0.000179,-0.000060,0.253856,0.211340,0.001640,-0.943870,6.527751,23.564888,-148.529722
15634,-3.983639,0.990192,8.984529,0.014490,0.052660,0.064996,0.000748,-0.043007,-0.013176,-0.039855,0.009904,0.089837,1.000000,0.000004,-0.000215,-0.000066,0.253868,0.211116,0.001610,-0.943916,6.523130,23.538743,-148.532261
15635,-3.964026,1.057039,9.011586,0.024706,-0.015808,0.088759,0.010867,-0.047652,-0.016520,-0.039661,0.010569,0.090107,1.000000,0.000054,-0.000238,-0.000083,0.253854,0.210882,0.001533,-0.943973,6.523057,23.510140,-148.537381
15636,-3.943113,1.064583,8.984047,0.027467,-0.026633,0.056108,0.009469,-0.055499,-0.016737,-0.039455,0.010645,0.089830,1.000000,0.000047,-0.000277,-0.000084,0.253840,0.210610,0.001450,-0.944037,6.522202,23.477118,-148.543007
15637,-3.988194,0.987997,8.939148,0.048984,0.070057,0.025142,0.020217,-0.066484,-0.017108,-0.039911,0.009874,0.089379,1.000000,0.000101,-0.000332,-0.000086,0.253813,0.210298,0.001304,-0.944114,6.526816,23.437833,-148.549826
15638,-3.948242,1.050233,8.995717,0.030677,-0.004777,0.067270,0.028641,-0.075011,-0.018133,-0.039515,0.010493,0.089944,1.000000,0.000143,-0.000375,-0.000091,0.253772,0.209959,0.001108,-0.944201,6.536053,23.393797,-148.557725
15639,-3.976231,1.041970,8.976611,0.061984,0.023339,0.060066,0.033866,-0.078836,-0.018650,-0.039797,0.010408,0.089752,1.000000,0.000169,-0.000394,-0.000093,0.253723,0.209606,0.000884,-0.944293,6.547765,23.347584,-148.566387
15640,-3.934904,1.036223,8.956055,0.040893,0.016704,0.024293,0.035636,-0.082690,-0.017740,-0.039385,0.010350,0.089546,1.000000,0.000178,-0.000413,-0.000089,0.253678,0.209239,0.000644,-0.944387,6.560895,23.299158,-148.574601
15641,-3.860400,1.142009,9.021430,0.013337,-0.111958,0.065590,0.039109,-0.082341,-0.017542,-0.038640,0.011406,0.090201,1.000000,0.000196,-0.000412,-0.000088,0.253628,0.208877,0.000390,-0.944480,6.575789,23.250881,-148.582844
15642,-3.887146,1.161464,9.070294,0.030614,-0.115622,0.122846,0.024341,-0.083065,-0.025127,-0.038908,0.011608,0.090688,1.000000,0.000122,-0.000415,-0.000126,0.253559,0.208493,0.000211,-0.944584,6.580641,23.202730,-148.595668
15643,-3.914473,1.083040,8.974325,0.059063,-0.019291,0.037730,0.018005,-0.081721,-0.022491,-0.039180,0.010827,0.089728,1.000000,0.000090,-0.000409,-0.000112,0.253508,0.208107,0.000063,-0.944682,6.582266,23.155132,-148.606938
15644,-3.870904,1.080843,9.057099,-0.002207,-0.042615,0.095962,0.017398,-0.074428,-0.020637,-0.038742,0.010805,0.090558,1.000000,0.000087,-0.000372,-0.000103,0.253468,0.207756,-0.000078,-0.944771,6.584503,23.111602,-148.616374
15645,-3.865042,1.071984,9.037106,0.002915,-0.031901,0.074474,0.010404,-0.067065,-0.022595,-0.038680,0.010720,0.090359,1.000000,0.000052,-0.000335,-0.000113,0.253424,0.207429,-0.000171,-0.944854,6.582176,23.072353,-148.626655
15646,-3.859221,1.081082,9.062054,-0.001315,-0.042369,0.095963,0.004868,-0.059912,-0.022738,-0.038618,0.010813,0.090609,1.000000,0.000024,-0.000300,-0.000114,0.253387,0.207130,-0.000232,-0.944930,6.577147,23.037224,-148.636315
15647,-3.871440,1.045407,9.026130,0.010770,0.000545,0.064145,0.001664,-0.055214,-0.022226,-0.038738,0.010458,0.090251,1.000000,0.000008,-0.000276,-0.000111,0.253354,0.206848,-0.000270,-0.945000,6.570249,23.004695,-148.645511
15648,-3.831865,1.064533,9.072229,-0.024276,-0.037966,0.092853,0.003066,-0.047047,-0.020418,-0.038339,0.010648,0.090713,1.000000,0.000015,-0.000235,-0.000102,0.253329,0.206608,-0.000308,-0.945059,6.565117,22.976733,-148.652822
15649,-3.863189,1.053441,9.052235,0.006998,-0.009822,0.085635,-0.000758,-0.035060,-0.018074,-0.038647,0.010538,0.090516,1.000000,-0.000004,-0.000175,-0.000090,0.253319,0.206418,-0.000313,-0.945104,6.558404,22.955402,-148.658007
15650,-3.840759,1.005427,9.072715,-0.037984,0.020213,0.090575,0.001234,-0.034819,-0.021321,-0.038422,0.010058,0.090721,1.000000,0.000006,-0.000174,-0.000107,0.253292,0.206233,-0.000326,-0.945151,6.552352,22.934457,-148.664996
15651,-3.822492,1.012325,9.044009,-0.035187,0.009328,0.057927,0.004641,-0.015817,-0.011534,-0.038231,0.010123,0.090437,1.000000,0.000023,-0.000079,-0.000058,0.253306,0.206141,-0.000339,-0.945167,6.550845,22.923651,-148.664767
15652,-3.752820,1.083111,9.119505,-0.084083,-0.093624,0.107309,-0.010457,-0.002639,-0.008546,-0.037529,0.010837,0.091194,1.000000,-0.000052,-0.000013,-0.000043,0.253351,0.206093,-0.000269,-0.945166,6.542057,22.920182,-148.661615
15653,-3.769436,0.973507,9.084356,-0.110525,0.011363,0.070102,-0.018808,0.046955,0.005977,-0.037673,0.009742,0.090851,1.000000,-0.000094,0.000235,0.000030,0.253473,0.206268,-0.000110,-0.945095,6.533065,22.943966,-148.646114
15654,-3.970300,1.100642,9.006844,0.135427,0.002318,0.090826,0.002244,0.044143,-0.000339,-0.039683,0.011005,0.090077,1.000000,0.000011,0.000221,-0.000002,0.253544,0.206458,-0.000050,-0.945035,6.534829,22.966588,-148.634545
15655,-3.836746,1.155518,9.033328,0.043585,-0.114358,0.068703,-0.007553,0.035168,-0.005902,-0.038351,0.011560,0.090340,1.000000,-0.000038,0.000176,-0.000030,0.253598,0.206591,0.000054,-0.944991,6.529105,22.984438,-148.627221
15656,-3.903661,0.996831,9.018834,0.023921,0.055458,0.064962,-0.004043,0.026511,-0.008931,-0.039024,0.009972,0.090193,1.000000,-0.000020,0.000133,-0.000045,0.253635,0.206689,0.000131,-0.944960,6.524714,22.997582,-148.622251
15657,-3.892508,1.067461,8.962192,0.069869,-0.006860,0.016201,0.002367,0.016803,-0.011546,-0.038917,0.010676,0.089625,1.000000,0.000012,0.000084,-0.000058,0.253652,0.206749,0.000170,-0.944942,6.522805,23.005346,-148.619717
15658,-3.858402,1.095986,9.028420,0.030268,-0.056031,0.066420,-0.003366,0.010530,-0.012363,-0.038579,0.010964,0.090286,1.000000,-0.000017,0.000053,-0.000062,0.253672,0.206772,0.000227,-0.944932,6.517531,23.009630,-148.617919
15659,-3.873018,1.014653,9.061284,-0.010164,0.017102,0.093688,-0.004849,0.010104,-0.017391,-0.038725,0.010152,0.090615,1.000000,-0.000024,0.000051,-0.000087,0.253669,0.206791,0.000297,-0.944928,6.509889,23.013960,-148.619474
15660,-3.910939,1.025783,9.003566,0.047231,0.030241,0.056899,-0.006555,0.015860,-0.008643,-0.039102,0.010262,0.090038,1.000000,-0.000033,0.000079,-0.000043,0.253710,0.206835,0.000372,-0.944908,6.503834,23.021034,-148.615020
15661,-3.879410,1.058219,8.988946,0.043134,-0.012844,0.034585,-0.000211,0.014527,-0.011268,-0.038787,0.010584,0.089892,1.000000,-0.000001,0.000073,-0.000056,0.253731,0.206881,0.000420,-0.944892,6.500452,23.027486,-148.612477
15662,-3.845366,1.086525,9.055221,0.003574,-0.062040,0.084815,-0.005700,0.012982,-0.013015,-0.038447,0.010870,0.090554,1.000000,-0.000029,0.000065,-0.000065,0.253750,0.206912,0.000492,-0.944880,6.493746,23.033201,-148.611002
15663,-3.879110,1.002400,9.036558,-0.003802,0.028196,0.072194,0.005500,0.020168,-0.013660,-0.038781,0.010024,0.090370,1.000000,0.000027,0.000101,-0.000068,0.253754,0.206992,0.000522,-0.944861,6.493212,23.043019,-148.609542
15664,-3.900930,1.031403,8.971460,0.051311,0.019771,0.024239,0.013617,0.014984,-0.015388,-0.039002,0.010311,0.089718,1.000000,0.000068,0.000075,-0.000077,0.253742,0.207058,0.000508,-0.944850,6.497060,23.050034,-148.609320
15665,-3.867210,1.051942,9.014993,0.016411,-0.018858,0.052979,0.017384,0.011375,-0.017738,-0.038666,0.010515,0.090153,1.000000,0.000087,0.000057,-0.000089,0.253714,0.207110,0.000476,-0.944846,6.502106,23.055111,-148.611001
15666,-3.866228,1.039242,9.072704,-0.013986,-0.014264,0.104031,0.011352,0.009061,-0.016032,-0.038657,0.010390,0.090729,1.000000,0.000057,0.000045,-0.000080,0.253702,0.207146,0.000465,-0.944842,6.504322,23.058797,-148.611625
15667,-3.885815,1.036373,9.020993,0.019547,0.002987,0.064132,0.009912,0.009903,-0.014633,-0.038853,0.010362,0.090212,1.000000,0.000050,0.000050,-0.000073,0.253696,0.207182,0.000463,-0.944835,6.505799,23.062834,-148.611489
15668,-3.884029,0.963679,9.024171,-0.018666,0.065120,0.058758,0.010808,0.008295,-0.012577,-0.038836,0.009634,0.090244,1.000000,0.000054,0.000041,-0.000063,0.253701,0.207213,0.000450,-0.944827,6.508535,23.065855,-148.610050
15669,-3.837070,1.064364,9.034426,-0.012547,-0.046505,0.060231,0.008115,0.023717,-0.007504,-0.038360,0.010641,0.090349,1.000000,0.000041,0.000119,-0.000038,0.253731,0.207312,0.000467,-0.944797,6.511092,23.077293,-148.604527
15670,-3.855842,1.057299,9.062912,-0.014466,-0.035388,0.092882,0.002574,0.031177,-0.006051,-0.038544,0.010573,0.090635,1.000000,0.000013,0.000156,-0.000030,0.253774,0.207441,0.000515,-0.944758,6.511315,23.092919,-148.597406
15671,-3.701949,1.041915,9.144476,-0.177755,-0.107514,0.105391,-0.023370,0.064311,0.000501,-0.036990,0.010430,0.091455,1.000000,-0.000117,0.000322,0.000003,0.253875,0.207692,0.000724,-0.944675,6.498906,23.126946,-148.584063
15672,-3.852085,1.079838,9.073356,-0.020408,-0.067371,0.103230,-0.027640,0.126226,0.001208,-0.038464,0.010811,0.090756,1.000000,-0.000138,0.000631,0.000006,0.253984,0.208231,0.001028,-0.944527,6.486235,23.196203,-148.565765
15673,-3.969752,1.118927,9.000198,0.110841,-0.044753,0.086817,-0.026355,0.112285,0.000769,-0.039647,0.011201,0.090023,1.000000,-0.000132,0.000561,0.000004,0.254088,0.208704,0.001311,-0.944394,6.473536,23.257531,-148.548885
15674,-3.923470,0.978673,8.972953,0.010119,0.050794,0.029193,-0.031827,0.110742,-0.000966,-0.039185,0.009801,0.089750,1.000000,-0.000159,0.000554,-0.000005,0.254191,0.209165,0.001618,-0.944264,6.457537,23.318126,-148.532985
15675,-4.037263,1.014100,8.981012,0.105943,0.067254,0.085328,-0.009714,0.089594,-0.005141,-0.040332,0.010146,0.089828,1.000000,-0.000049,0.000448,-0.000026,0.254251,0.209553,0.001800,-0.944162,6.452316,23.366923,-148.521376
15676,-3.961554,1.105289,8.965992,0.090627,-0.051228,0.051072,-0.006934,0.066116,-0.008614,-0.039585,0.011058,0.089673,1.000000,-0.000035,0.000331,-0.000043,0.254291,0.209834,0.001940,-0.944088,6.447473,23.402603,-148.513443
15677,-3.980715,1.014874,8.974175,0.054582,0.032437,0.056854,-0.000755,0.051683,-0.010298,-0.039783,0.010151,0.089752,1.000000,-0.000004,0.000258,-0.000051,0.254317,0.210054,0.002037,-0.944032,6.445070,23.430148,-148.507692
15678,-3.933052,0.991440,8.955016,0.009587,0.029706,0.018039,0.007059,0.050466,-0.009470,-0.039307,0.009913,0.089560,1.000000,0.000035,0.000252,-0.000047,0.254340,0.210279,0.002092,-0.943975,6.447610,23.456986,-148.501297
15679,-3.940804,1.065958,8.949070,0.048770,-0.032105,0.023401,0.035568,0.058166,-0.015538,-0.039381,0.010647,0.089504,1.000000,0.000178,0.000291,-0.000078,0.254303,0.210576,0.002031,-0.943919,6.464913,23.488560,-148.498336
15680,-3.961971,1.060972,8.976175,0.046838,-0.020968,0.056049,0.029916,0.043828,-0.014784,-0.039599,0.010599,0.089772,1.000000,0.000150,0.000219,-0.000074,0.254276,0.210798,0.001976,-0.943877,6.479049,23.511954,-148.495775
15681,-3.946310,1.024501,9.016239,-0.002827,-0.001793,0.082540,0.015816,0.037679,-0.014622,-0.039445,0.010241,0.090171,1.000000,0.000079,0.000188,-0.000073,0.254264,0.210973,0.001981,-0.943841,6.484693,23.531803,-148.493674
15682,-3.898514,1.061049,9.052400,-0.039846,-0.062078,0.100170,-0.006075,0.035283,-0.002440,-0.038969,0.010614,0.090531,1.000000,-0.000030,0.000176,-0.000012,0.254334,0.211110,0.002072,-0.943792,6.481039,23.549541,-148.483973
15683,-3.970225,0.979053,8.952322,0.013930,0.051957,0.029183,-0.015720,0.048728,-0.004160,-0.039680,0.009798,0.089532,1.000000,-0.000079,0.000244,-0.000021,0.254404,0.211297,0.002229,-0.943730,6.471525,23.575005,-148.474596
15684,-3.974349,1.005984,9.018271,0.000660,0.020228,0.093687,-0.000100,0.045664,-0.005702,-0.039723,0.010061,0.090192,1.000000,-0.000000,0.000228,-0.000029,0.254451,0.211490,0.002308,-0.943674,6.470762,23.598849,-148.466348
15685,-3.980804,1.041564,8.922810,0.058133,0.000965,0.013035,-0.004307,0.030798,-0.004749,-0.039794,0.010419,0.089234,1.000000,-0.000022,0.000154,-0.000024,0.254507,0.211607,0.002389,-0.943633,6.467141,23.614145,-148.458602
15686,-3.981549,1.018658,8.957553,0.032304,0.016125,0.042608,0.003886,0.016926,-0.008059,-0.039808,0.010186,0.089579,1.000000,0.000019,0.000085,-0.000040,0.254541,0.211670,0.002416,-0.943610,6.467296,23.621806,-148.453592
15687,-3.931780,1.064591,9.017248,-0.009192,-0.054843,0.081752,0.008549,0.011392,-0.009947,-0.039312,0.010644,0.090175,1.000000,0.000043,0.000057,-0.000050,0.254559,0.211712,0.002417,-0.943595,6.469200,23.626389,-148.450442
15688,-3.930898,0.983102,8.997382,-0.043052,0.017804,0.054894,0.020250,0.028373,-0.010738,-0.039296,0.009824,0.089980,1.000000,0.000101,0.000142,-0.000054,0.254561,0.211849,0.002383,-0.943564,6.478376,23.640729,-148.446406
15689,-4.004432,1.004567,8.961287,0.035786,0.038135,0.053748,0.020749,0.038471,-0.009354,-0.040027,0.010038,0.089622,1.000000,0.000104,0.000192,-0.000047,0.254569,0.212034,0.002361,-0.943520,6.488189,23.660689,-148.440973
15690,-3.992827,1.063919,8.962142,0.051159,-0.019562,0.056030,0.018738,0.039181,-0.001297,-0.039911,0.010631,0.089630,1.000000,0.000094,0.000196,-0.000006,0.254618,0.212221,0.002338,-0.943465,6.499163,23.680570,-148.430288
15691,-3.887323,0.978074,9.101683,-0.131592,-0.012351,0.131712,-0.000344,0.040616,-0.006389,-0.038854,0.009782,0.091025,1.000000,-0.000002,0.000203,-0.000032,0.254662,0.212389,0.002415,-0.943415,6.497699,23.701557,-148.422852
15692,-3.925381,0.849280,8.967526,-0.116736,0.131021,0.011549,0.040179,0.099911,-0.014964,-0.039208,0.008478,0.089697,1.000000,0.000201,0.000500,-0.000075,0.254621,0.212889,0.002383,-0.943313,6.519264,23.756882,-148.416458
15693,-4.102061,1.155608,8.943604,0.167381,-0.049736,0.092861,0.063242,0.106396,-0.021101,-0.040972,0.011532,0.089461,1.000000,0.000316,0.000532,-0.000106,0.254528,0.213449,0.002259,-0.943213,6.552451,23.816268,-148.413465
15694,-4.004312,1.081823,8.918924,0.055241,-0.029970,0.023374,0.058543,0.082387,-0.016695,-0.040005,0.010795,0.089209,1.000000,0.000293,0.000412,-0.000083,0.254461,0.213890,0.002120,-0.943131,6.583648,23.861745,-148.409168
15695,-3.972720,0.992452,8.954334,-0.035529,0.029323,0.033400,0.067886,0.071642,-0.018818,-0.039694,0.009898,0.089561,1.000000,0.000339,0.000358,-0.000094,0.254373,0.214291,0.001928,-0.943064,6.619093,23.901198,-148.407182
15696,-4.068619,1.055759,8.873682,0.093396,0.030838,0.005706,0.078051,0.066711,-0.023690,-0.040655,0.010528,0.088754,1.000000,0.000390,0.000334,-0.000118,0.254252,0.214682,0.001685,-0.943008,6.659271,23.938202,-148.408404
15697,-4.053394,1.001478,8.948590,0.017439,0.064872,0.061810,0.076496,0.046069,-0.021370,-0.040512,0.009985,0.089499,1.000000,0.000382,0.000230,-0.000107,0.254143,0.214974,0.001422,-0.942972,6.698273,23.963269,-148.409812
15698,-3.919792,1.004841,8.921735,-0.081870,0.005092,-0.016510,0.108261,0.050069,-0.022922,-0.039174,0.010005,0.089233,1.000000,0.000541,0.000250,-0.000115,0.253993,0.215325,0.001014,-0.942932,6.755469,23.990761,-148.411705
15699,-4.046266,1.026024,8.912930,0.020635,0.054179,0.029159,0.141766,0.056355,-0.034781,-0.040436,0.010204,0.089148,1.000000,0.000709,0.000282,-0.000174,0.253751,0.215748,0.000471,-0.942902,6.828801,24.022592,-148.420649
15700,-4.053969,1.110236,8.905252,0.059994,-0.007458,0.034502,0.136103,0.043627,-0.025974,-0.040519,0.011047,0.089069,1.000000,0.000681,0.000218,-0.000130,0.253557,0.216104,-0.000073,-0.942872,6.900982,24.046638,-148.424828
15701,-4.075708,1.154638,8.940848,0.075304,-0.032547,0.080574,0.114561,0.028247,-0.019617,-0.040743,0.011499,0.089421,1.000000,0.000573,0.000141,-0.000098,0.253414,0.216359,-0.000540,-0.942852,6.961735,24.061453,-148.426374
15702,-4.025142,1.145316,9.025751,-0.009499,-0.052399,0.135923,0.074080,0.028657,-0.012998,-0.040238,0.011422,0.090268,1.000000,0.000370,0.000143,-0.000065,0.253348,0.216566,-0.000824,-0.942822,7.001269,24.076080,-148.423626
15703,-4.062100,1.111292,8.933998,0.035050,0.007933,0.064086,0.056348,0.039527,-0.009961,-0.040603,0.011090,0.089351,1.000000,0.000282,0.000198,-0.000050,0.253314,0.216801,-0.001013,-0.942777,7.031485,24.096636,-148.418268
15704,-4.032863,1.167667,8.963090,0.022158,-0.056401,0.084824,0.044808,0.036286,-0.006918,-0.040312,0.011658,0.089641,1.000000,0.000224,0.000181,-0.000035,0.253307,0.217007,-0.001157,-0.942731,7.056032,24.115157,-148.411270
15705,-4.046374,1.008794,8.977176,-0.053236,0.088885,0.085280,0.044303,0.027157,-0.003443,-0.040451,0.010069,0.089779,1.000000,0.000222,0.000136,-0.000017,0.253317,0.217168,-0.001311,-0.942691,7.080628,24.128214,-148.402785
15706,-4.085339,1.055932,8.904080,0.025730,0.076868,0.040284,0.051319,0.019178,-0.004582,-0.040845,0.010537,0.089047,1.000000,0.000257,0.000096,-0.000023,0.253315,0.217301,-0.001509,-0.942661,7.108982,24.136858,-148.395412
15707,-4.073196,1.158965,8.914060,0.058546,-0.017002,0.055994,0.036358,0.008174,0.003075,-0.040728,0.011573,0.089144,1.000000,0.000182,0.000041,0.000015,0.253365,0.217363,-0.001658,-0.942633,7.130090,24.138654,-148.384330
15708,-4.038041,1.132302,8.926518,0.011166,-0.008957,0.049889,0.043293,0.008902,0.003514,-0.040377,0.011303,0.089269,1.000000,0.000216,0.000045,0.000018,0.253410,0.217437,-0.001840,-0.942603,7.155578,24.140881,-148.372671
15709,-4.030771,1.362037,8.882541,0.131094,-0.205025,0.033254,0.038731,0.004095,-0.004252,-0.040306,0.013604,0.088829,1.000000,0.000194,0.000020,-0.000021,0.253422,0.217483,-0.001996,-0.942589,7.176049,24.140873,-148.366470
15710,-4.080743,1.315302,8.902678,0.137942,-0.139975,0.066662,0.032697,0.000789,-0.007432,-0.040807,0.013140,0.089029,1.000000,0.000163,0.000004,-0.000037,0.253426,0.217506,-0.002127,-0.942583,7.192409,24.139260,-148.362355
15711,-4.066897,1.416045,8.913538,0.170855,-0.233805,0.082369,0.010276,-0.014312,-0.009604,-0.040675,0.014158,0.089133,1.000000,0.000051,-0.000072,-0.000048,0.253444,0.217428,-0.002167,-0.942596,7.194622,24.129169,-148.360936
15712,-3.956950,1.311430,9.012650,-0.002864,-0.205819,0.115192,-0.022921,-0.019461,-0.016374,-0.039577,0.013128,0.090121,1.000000,-0.000115,-0.000097,-0.000082,0.253467,0.217286,-0.002052,-0.942622,7.176225,24.116692,-148.363890
15713,-4.085324,1.077298,8.925233,0.024218,0.067303,0.061780,-0.024438,-0.010889,-0.018237,-0.040857,0.010788,0.089249,1.000000,-0.000122,-0.000054,-0.000091,0.253482,0.217180,-0.001915,-0.942643,7.156462,24.109165,-148.367574
15714,-4.086350,1.134940,8.979860,0.032967,0.010025,0.118226,-0.023243,-0.015807,-0.015466,-0.040870,0.011363,0.089794,1.000000,-0.000116,-0.000079,-0.000077,0.253510,0.217054,-0.001794,-0.942665,7.138215,24.098693,-148.369729
15715,-4.052359,1.177852,8.908810,0.059931,-0.037337,0.044840,-0.027461,-0.030027,-0.011267,-0.040536,0.011793,0.089080,1.000000,-0.000137,-0.000150,-0.000056,0.253560,0.216855,-0.001674,-0.942697,7.117888,24.079789,-148.370558
15716,-3.944694,1.153197,9.026288,-0.079201,-0.081814,0.104539,-0.045767,-0.020896,-0.009632,-0.039456,0.011555,0.090256,1.000000,-0.000229,-0.000104,-0.000048,0.253640,0.216677,-0.001460,-0.942717,7.088074,24.066010,-148.369443
15717,-4.069871,0.813683,8.956191,-0.113232,0.278525,0.053867,-0.023910,0.023004,-0.006651,-0.040688,0.008149,0.089566,1.000000,-0.000120,0.000115,-0.000033,0.253709,0.216732,-0.001295,-0.942686,7.072634,24.076932,-148.363277
15718,-4.115147,1.009172,8.977476,0.004273,0.126230,0.113640,0.029148,0.039344,-0.005507,-0.041134,0.010080,0.089784,1.000000,0.000146,0.000197,-0.000028,0.253726,0.216932,-0.001363,-0.942636,7.088685,24.097104,-148.355006
15719,-4.050218,1.039709,9.123108,-0.095941,0.052581,0.222470,0.022389,0.051722,-0.006900,-0.040478,0.010388,0.091243,1.000000,0.000112,0.000259,-0.000034,0.253744,0.217181,-0.001379,-0.942573,7.100625,24.124370,-148.346764
15720,-4.166373,1.181044,8.927599,0.135692,0.006050,0.108860,0.052654,0.064336,-0.010231,-0.041634,0.011789,0.089292,1.000000,0.000263,0.000322,-0.000051,0.253712,0.217529,-0.001521,-0.942502,7.129735,24.159056,-148.339735
15721,-4.144418,1.342900,8.936999,0.183981,-0.145508,0.126856,0.054819,0.074212,0.009697,-0.041412,0.013402,0.089389,1.000000,0.000274,0.000371,0.000048,0.253772,0.217925,-0.001679,-0.942393,7.165234,24.197918,-148.319361
15722,-4.201242,1.283327,8.827580,0.234836,-0.052732,0.044574,0.073150,0.089860,0.023157,-0.041974,0.012796,0.088299,1.000000,0.000366,0.000449,0.000116,0.253878,0.218419,-0.001921,-0.942250,7.215491,24.244753,-148.289102
15723,-3.659369,1.384738,8.896193,-0.176831,-0.404612,-0.104148,0.085125,0.094355,0.060084,-0.036556,0.013799,0.088985,1.000000,0.000426,0.000472,0.000300,0.254143,0.218948,-0.002252,-0.942055,7.281987,24.291388,-148.235626
15724,-3.997965,0.571853,9.239365,-0.459740,0.432279,0.251028,0.069708,0.154016,0.101881,-0.039911,0.005666,0.092426,1.000000,0.000349,0.000770,0.000509,0.254625,0.219739,-0.002482,-0.941740,7.352760,24.368873,-148.150909
15725,-4.809233,0.223148,9.112662,0.032560,1.147326,0.429463,0.204275,0.146314,0.116967,-0.048027,0.002110,0.091164,0.999999,0.001021,0.000732,0.000585,0.255027,0.220663,-0.003370,-0.941413,7.504141,24.440661,-148.057499
15726,-4.793614,-0.448814,9.570447,-0.517761,1.695578,0.752844,0.297956,0.105759,0.147094,-0.047882,-0.004666,0.095723,0.999998,0.001490,0.000529,0.000735,0.255468,0.221516,-0.004785,-0.941087,7.716030,24.486938,-147.948088
15727,-5.703662,-0.743854,9.679152,-0.031537,2.419291,1.183529,0.527380,0.021958,0.193604,-0.057019,-0.007749,0.096778,0.999996,0.002637,0.000110,0.000968,0.255869,0.222264,-0.007438,-0.940784,8.068293,24.481431,-147.816942
15728,-5.575884,0.184356,9.253280,0.460943,1.659794,0.854066,0.785214,-0.082952,0.264891,-0.055799,0.001406,0.092516,0.999991,0.003926,-0.000415,0.001324,0.256313,0.222844,-0.011516,-0.940485,8.582670,24.409769,-147.650822
15729,-4.167375,0.965339,9.174808,-0.247000,0.387364,0.299890,0.844224,-0.196442,0.312746,-0.041778,0.009201,0.091747,0.999989,0.004221,-0.000982,0.001564,0.256903,0.222958,-0.016070,-0.940230,9.137848,24.268091,-147.467074
15730,-2.993075,1.208812,9.058893,-1.010136,-0.301488,-0.253854,0.878114,-0.216137,0.289950,-0.030046,0.011647,0.090608,0.999989,0.004391,-0.001081,0.001450,0.257338,0.223021,-0.020784,-0.940004,9.704679,24.115866,-147.301514
15731,-3.527291,1.531965,9.101759,-0.489322,-0.233705,0.053212,0.866200,-0.238934,0.240151,-0.035400,0.014883,0.091040,0.999989,0.004331,-0.001195,0.001201,0.257548,0.222960,-0.025414,-0.939847,10.249986,23.954180,-147.170734
15732,-3.369176,1.680722,8.441130,-0.272231,-0.314726,-0.579313,0.776564,-0.316959,0.153500,-0.033838,0.016454,0.084422,0.999991,0.003883,-0.001585,0.000767,0.257432,0.222424,-0.029627,-0.939882,10.717539,23.756529,-147.104296
15733,-3.289252,1.727072,8.503629,-0.352317,-0.324372,-0.545332,0.776175,-0.263975,0.103706,-0.033014,0.016924,0.085059,0.999991,0.003881,-0.001320,0.000519,0.257089,0.222140,-0.033714,-0.939906,11.174315,23.593605,-147.063665
15734,-4.744589,2.469233,9.535441,0.653374,-0.218673,1.098666,0.696606,-0.307871,0.124941,-0.047608,0.024330,0.095366,0.999993,0.003483,-0.001539,0.000625,0.256921,0.221540,-0.037507,-0.939949,11.587877,23.403311,-147.017076
15735,-3.172367,1.128142,8.323153,-0.662321,0.282286,-0.863232,0.697725,-0.304736,0.152533,-0.031859,0.010967,0.083222,0.999992,0.003489,-0.001524,0.000763,0.256879,0.220948,-0.041330,-0.939940,12.008115,23.211270,-146.954583
15736,-3.884720,1.451893,8.886944,-0.224789,0.411712,-0.016962,0.802923,-0.176288,0.184325,-0.038939,0.014126,0.088892,0.999991,0.004015,-0.000881,0.000922,0.256891,0.221085,-0.045518,-0.939711,12.502044,23.086780,-146.857754
15737,-3.804785,1.103148,8.998423,-0.518891,0.745999,-0.022965,0.779096,-0.191918,0.163705,-0.038143,0.010650,0.089990,0.999992,0.003895,-0.000960,0.000819,0.256827,0.221118,-0.049590,-0.939514,12.975932,22.955460,-146.776558
15738,-3.736336,1.127567,8.939026,-0.555043,0.764018,-0.104672,0.766645,-0.167126,0.067571,-0.037442,0.010920,0.089401,0.999992,0.003833,-0.000836,0.000338,0.256325,0.221272,-0.053464,-0.939403,13.420511,22.849922,-146.751613
15739,-4.456189,1.436085,9.294778,-0.038356,0.927973,0.553110,0.817510,-0.184006,-0.030602,-0.044645,0.013988,0.092964,0.999991,0.004088,-0.000920,-0.000153,0.255299,0.221435,-0.057489,-0.939406,13.870163,22.748106,-146.789010
15740,-4.326094,2.056450,9.175429,0.179447,0.396705,0.528619,0.724443,-0.272486,-0.096243,-0.043376,0.020253,0.091769,0.999992,0.003622,-0.001362,-0.000481,0.254035,0.221078,-0.061116,-0.939604,14.245605,22.606475,-146.880379
15741,-4.041798,3.206560,8.652979,0.696445,-0.675185,0.214820,0.765848,-0.268738,-0.059715,-0.040525,0.031746,0.086597,0.999992,0.003829,-0.001344,-0.000299,0.252898,0.220777,-0.064973,-0.939723,14.653525,22.462303,-146.949851
15742,-4.571214,4.219949,9.004625,1.387474,-1.213890,0.975651,0.643085,-0.286055,0.038298,-0.045849,0.041901,0.090116,0.999994,0.003215,-0.001430,0.000191,0.252344,0.220204,-0.068381,-0.939764,15.011993,22.294552,-146.964643
15743,-4.871789,5.068614,9.103693,1.951850,-1.727748,1.390313,0.483385,-0.383504,0.131130,-0.048926,0.050434,0.091065,0.999995,0.002417,-0.001918,0.000656,0.252369,0.218938,-0.071264,-0.939839,15.293837,22.059125,-146.940429
15744,-4.157259,3.908071,8.318528,1.246423,-1.046919,0.142405,0.371149,-0.407198,0.177384,-0.041776,0.038889,0.083173,0.999996,0.001856,-0.002036,0.000887,0.252723,0.217402,-0.073700,-0.939913,15.519736,21.803602,-146.893695
15745,-4.196778,3.632789,9.056061,0.849568,-0.715840,0.750828,0.241405,-0.454661,0.217016,-0.042213,0.036173,0.090509,0.999996,0.001207,-0.002273,0.001085,0.253385,0.215461,-0.075629,-0.940028,15.676443,21.515508,-146.832335
15746,-3.779392,3.196010,8.733420,0.503764,-0.510145,0.200133,0.250064,-0.474816,0.301107,-0.038049,0.031794,0.087284,0.999995,0.001250,-0.002374,0.001506,0.254424,0.213405,-0.077715,-0.940046,15.854536,21.203210,-146.725467
15747,-3.640614,3.144373,8.761660,0.389258,-0.480294,0.163550,0.258953,-0.450985,0.353862,-0.036659,0.031266,0.087575,0.999995,0.001295,-0.002255,0.001769,0.255707,0.211448,-0.079866,-0.939960,16.049148,20.895246,-146.584871
15748,-3.638067,2.467531,8.836164,0.080789,0.155582,0.054987,0.217040,-0.454910,0.352163,-0.036625,0.024515,0.088305,0.999995,0.001085,-0.002275,0.001761,0.257023,0.209419,-0.081825,-0.939887,16.218201,20.585155,-146.447127
15749,-3.308207,2.029215,8.687144,-0.281502,0.405258,-0.310864,0.279474,-0.447886,0.321895,-0.033309,0.020117,0.086825,0.999995,0.001397,-0.002239,0.001609,0.258131,0.207512,-0.084034,-0.939811,16.415865,20.283211,-146.327425
15750,-3.164351,1.854199,8.905351,-0.545192,0.544872,-0.212581,0.329261,-0.419787,0.299558,-0.031858,0.018348,0.089017,0.999995,0.001646,-0.002099,0.001498,0.259093,0.205811,-0.086418,-0.939705,16.638391,20.000113,-146.217182
15751,-3.860933,2.333024,9.363051,0.037263,0.587553,0.563705,0.397977,-0.444362,0.287568,-0.038851,0.023088,0.093590,0.999995,0.001990,-0.002222,0.001438,0.259913,0.204084,-0.089142,-0.939600,16.895214,19.704905,-146.119851
15752,-3.942870,2.560594,9.413456,0.207462,0.504282,0.695323,0.327398,-0.512863,0.226456,-0.039699,0.025407,0.094075,0.999995,0.001637,-0.002564,0.001132,0.260486,0.201970,-0.091561,-0.939666,17.094835,19.382215,-146.071554
15753,-3.904135,2.408412,9.258140,0.208053,0.661800,0.496252,0.298115,-0.577034,0.139998,-0.039325,0.023919,0.092504,0.999994,0.001491,-0.002885,0.000700,0.260649,0.199553,-0.093837,-0.939913,17.256582,19.038704,-146.086159
15754,-3.822050,2.168296,9.009039,0.180501,0.858451,0.172424,0.267733,-0.642186,0.060904,-0.038516,0.021551,0.089996,0.999994,0.001339,-0.003211,0.000305,0.260437,0.196826,-0.095976,-0.940330,17.382291,18.673299,-146.159001
15755,-3.434959,2.549391,9.113385,0.048629,0.392037,0.246919,0.269074,-0.683773,-0.016077,-0.034659,0.025374,0.091050,0.999993,0.001345,-0.003419,-0.000080,0.259839,0.193938,-0.098098,-0.940876,17.492420,18.298305,-146.284476
15756,-3.607895,3.967235,8.956213,0.937420,-0.678230,0.561823,0.249810,-0.743388,-0.050739,-0.036402,0.039570,0.089477,0.999992,0.001249,-0.003717,-0.000254,0.259063,0.190761,-0.100171,-0.941521,17.582738,17.897176,-146.441029
15757,-2.741882,4.414854,8.302118,0.771845,-1.526661,-0.168661,0.107836,-0.745012,-0.004989,-0.027727,0.044104,0.082942,0.999993,0.000539,-0.003725,-0.000025,0.258634,0.187364,-0.101620,-0.942166,17.600536,17.487137,-146.571771
15758,-2.750919,4.698600,8.558010,0.855361,-1.698087,0.150667,0.074223,-0.669296,0.129663,-0.027826,0.046936,0.085505,0.999994,0.000371,-0.003346,0.000648,0.258906,0.184213,-0.102939,-0.942569,17.627156,17.095397,-146.611501
15759,-2.947922,4.280629,8.771503,0.796178,-1.181956,0.282954,-0.038219,-0.654675,0.225970,-0.029814,0.042789,0.087610,0.999994,-0.000191,-0.003273,0.001130,0.259739,0.180930,-0.103796,-0.942882,17.606181,16.694695,-146.593681
15760,-2.742826,2.771279,8.641581,0.062906,0.000659,-0.332409,-0.146903,-0.654115,0.219116,-0.027741,0.027746,0.086305,0.999994,-0.000735,-0.003271,0.001096,0.260636,0.177513,-0.104133,-0.943247,17.522144,16.295743,-146.579137
15761,-2.276356,1.589921,8.775993,-0.840822,0.786038,-0.680187,-0.140684,-0.617359,0.132788,-0.023045,0.015946,0.087678,0.999995,-0.000703,-0.003087,0.000664,0.261135,0.174317,-0.104373,-0.943678,17.429636,15.931512,-146.606689
15762,-2.876431,1.364558,9.713926,-0.762574,1.413507,0.282676,-0.107512,-0.629073,-0.000320,-0.029070,0.013698,0.097041,0.999995,-0.000538,-0.003145,-0.000002,0.260970,0.171180,-0.104668,-0.944265,17.335643,15.583850,-146.711125
15763,-2.768941,1.870992,9.712334,-0.550377,0.948387,0.399770,-0.159582,-0.710957,-0.174472,-0.028018,0.018812,0.097009,0.999993,-0.000798,-0.003555,-0.000872,0.259980,0.167675,-0.104673,-0.945166,17.182343,15.220539,-146.928037
15764,-2.133291,1.569796,8.963988,-0.854823,0.797552,-0.539011,-0.177334,-0.729049,-0.315822,-0.021635,0.015811,0.089547,0.999992,-0.000887,-0.003645,-0.001579,0.258324,0.164135,-0.104498,-0.946260,16.999103,14.870749,-147.226677
15765,-2.500771,2.421077,8.963923,-0.105473,0.279991,-0.201363,-0.122286,-0.698667,-0.382445,-0.025274,0.024314,0.089536,0.999992,-0.000611,-0.003493,-0.001912,0.256319,0.160839,-0.104488,-0.947372,16.841060,14.547623,-147.556404
15766,-2.569975,2.839647,8.957069,0.203794,-0.034313,-0.073363,-0.164204,-0.693255,-0.416872,-0.025951,0.028524,0.089458,0.999991,-0.000821,-0.003466,-0.002084,0.254183,0.157533,-0.104242,-0.948529,16.656646,14.232431,-147.903149
15767,-1.931702,3.333341,8.533459,0.107136,-0.831515,-0.487483,-0.178413,-0.649273,-0.420071,-0.019524,0.033450,0.085242,0.999992,-0.000892,-0.003246,-0.002100,0.252062,0.154414,-0.103869,-0.949649,16.467486,13.940592,-148.242856
15768,-2.272558,3.925042,8.757125,0.626722,-1.137945,-0.036707,-0.207457,-0.590483,-0.368768,-0.022911,0.039383,0.087463,0.999993,-0.001037,-0.002952,-0.001844,0.250234,0.151511,-0.103322,-0.950659,16.273048,13.671910,-148.542229
15769,-2.233382,4.343124,8.874992,0.793078,-1.508403,0.172887,-0.280757,-0.568103,-0.270978,-0.022527,0.043586,0.088625,0.999994,-0.001404,-0.002841,-0.001355,0.248934,0.148569,-0.102472,-0.951556,16.051971,13.398670,-148.781325
15770,-2.062675,3.943686,8.668996,0.597396,-1.285933,-0.171731,-0.293421,-0.518535,-0.122712,-0.020827,0.039577,0.086578,0.999995,-0.001467,-0.002593,-0.000614,0.248373,0.145771,-0.101610,-0.952227,15.846380,13.128753,-148.927031
15771,-1.740244,4.088214,8.612279,0.463891,-1.584451,-0.263478,-0.305964,-0.442924,0.011779,-0.017595,0.041013,0.086021,0.999996,-0.001530,-0.002215,0.000059,0.248497,0.143246,-0.100689,-0.952676,15.654097,12.878901,-148.983570
15772,-1.707609,3.062696,8.590141,0.036674,-0.730704,-0.563303,-0.308540,-0.370008,0.113112,-0.017252,0.030750,0.085822,0.999997,-0.001543,-0.001850,0.000566,0.249141,0.141015,-0.099741,-0.952940,15.476317,12.653741,-148.970212
15773,-1.320153,1.464792,8.843605,-1.039655,0.464697,-0.823759,-0.318887,-0.285808,0.108429,-0.013336,0.014782,0.088394,0.999998,-0.001594,-0.001429,0.000542,0.249810,0.139171,-0.098632,-0.953152,15.294652,12.475646,-148.945851
15774,-1.524390,0.501153,9.662484,-1.525112,1.481537,-0.251436,-0.194623,-0.239573,0.022004,-0.015360,0.005104,0.096602,0.999999,-0.000973,-0.001198,0.000110,0.250004,0.137748,-0.097999,-0.953373,15.175570,12.336356,-148.962655
15775,-1.500442,0.264516,9.743831,-1.645885,1.676318,-0.234354,-0.186562,-0.263718,-0.155575,-0.015131,0.002748,0.097416,0.999998,-0.000933,-0.001319,-0.000778,0.249332,0.136304,-0.097309,-0.953827,15.038731,12.210021,-149.083511
15776,-1.283309,0.248547,9.500786,-1.730763,1.548945,-0.507916,-0.101131,-0.244299,-0.319073,-0.012945,0.002554,0.094991,0.999998,-0.000506,-0.001221,-0.001595,0.247831,0.135139,-0.096893,-0.954426,14.932432,12.118537,-149.293577
15777,-1.779786,1.427479,9.695487,-0.822235,0.806319,0.080822,-0.035295,-0.239347,-0.423528,-0.017884,0.014330,0.096931,0.999997,-0.000176,-0.001197,-0.002118,0.245787,0.134128,-0.096712,-0.955115,14.851788,12.044710,-149.561921
15778,-1.948069,2.041995,9.468989,-0.319245,0.332307,0.057171,-0.003308,-0.246377,-0.456283,-0.019551,0.020466,0.094665,0.999997,-0.000017,-0.001232,-0.002281,0.243561,0.133139,-0.096671,-0.955828,14.785835,11.971552,-149.849654
15779,-2.669001,3.357248,9.540398,0.864205,-0.440046,0.602368,0.054696,-0.268745,-0.395708,-0.026752,0.033599,0.095377,0.999997,0.000273,-0.001344,-0.001979,0.241574,0.132083,-0.096973,-0.956448,14.759887,11.876828,-150.106320
15780,-2.236147,3.518766,8.999315,0.745858,-0.856557,0.040217,-0.002384,-0.276265,-0.325375,-0.022428,0.035225,0.089962,0.999998,-0.000012,-0.001381,-0.001627,0.239956,0.130888,-0.097058,-0.957011,14.709722,11.767633,-150.324079
15781,-1.899170,3.169181,8.914784,0.347884,-0.726705,-0.196306,0.016551,-0.214411,-0.243114,-0.019049,0.031708,0.089130,0.999999,0.000083,-0.001072,-0.001216,0.238748,0.129970,-0.097212,-0.957422,14.682050,11.680504,-150.485989
15782,-2.611402,3.395088,9.783598,0.810139,-0.467309,0.826397,0.035324,-0.218558,-0.187312,-0.026189,0.033958,0.097813,0.999999,0.000177,-0.001093,-0.000937,0.237793,0.129029,-0.097498,-0.957758,14.671791,11.583041,-150.616779
15783,-2.289892,2.923751,9.664579,0.387155,-0.222611,0.531225,-0.022919,-0.257874,-0.132365,-0.023004,0.029264,0.096613,0.999999,-0.000115,-0.001289,-0.000662,0.237119,0.127802,-0.097586,-0.958081,14.633336,11.455649,-150.722279
15784,-2.437733,2.640981,10.032054,0.307770,0.150058,0.838234,0.048023,-0.262952,-0.037295,-0.024504,0.026390,0.100295,0.999999,0.000240,-0.001315,-0.000186,0.236852,0.126589,-0.098082,-0.958257,14.646431,11.311791,-150.774598
15785,-2.702068,3.551002,10.180970,0.908024,-0.476062,1.255812,0.052997,-0.334352,0.062091,-0.027202,0.035475,0.101774,0.999999,0.000265,-0.001672,0.000310,0.237022,0.124990,-0.098748,-0.958356,14.671214,11.113822,-150.781418
15786,-2.179790,3.875613,8.730802,1.048167,-1.175137,-0.142163,0.003812,-0.373172,0.144375,-0.021989,0.038739,0.087268,0.999998,0.000019,-0.001866,0.000722,0.237598,0.123107,-0.099276,-0.958403,14.675810,10.882568,-150.747456
15787,-1.200155,4.108884,8.195447,0.493863,-1.900405,-0.777582,-0.038392,-0.298405,0.223929,-0.012170,0.041091,0.081929,0.999998,-0.000192,-0.001492,0.001120,0.238616,0.121491,-0.099561,-0.958327,14.666351,10.681040,-150.657684
15788,-1.669622,3.907147,9.212890,0.555438,-1.348033,0.227480,-0.043608,-0.253565,0.319877,-0.016875,0.039065,0.092099,0.999998,-0.000218,-0.001268,0.001599,0.240120,0.120037,-0.099827,-0.958107,14.665071,10.490620,-150.507082
15789,-1.551321,3.176904,9.334216,0.136917,-0.742661,0.140025,-0.123144,-0.260190,0.399252,-0.015698,0.031795,0.093302,0.999997,-0.000616,-0.001301,0.001996,0.242046,0.118413,-0.099765,-0.957830,14.625273,10.284918,-150.312897
15790,-0.805164,2.410770,8.728868,-0.638146,-0.515157,-0.758376,-0.097558,-0.219840,0.442372,-0.008201,0.024132,0.087268,0.999997,-0.000488,-0.001099,0.002212,0.244183,0.116993,-0.099805,-0.957458,14.605210,10.095601,-150.088335
15791,-1.010207,2.133144,9.403021,-0.744816,-0.076273,-0.146922,-0.072250,-0.137144,0.432649,-0.010213,0.021343,0.094016,0.999997,-0.000361,-0.000686,0.002163,0.246298,0.116002,-0.099855,-0.957032,14.599765,9.953442,-149.857361
15792,-1.532736,2.375287,10.189149,-0.381167,0.089511,0.754085,-0.072163,-0.165041,0.414903,-0.015461,0.023758,0.101870,0.999997,-0.000361,-0.000825,0.002075,0.248313,0.114888,-0.099932,-0.956637,14.591731,9.798497,-149.640392
15793,-1.446666,2.482655,9.876029,-0.295673,-0.074357,0.468331,-0.056239,-0.187770,0.425855,-0.014612,0.024823,0.098740,0.999997,-0.000281,-0.000939,0.002129,0.250358,0.113677,-0.100117,-0.956230,14.592297,9.629289,-149.420845
15794,-1.622820,3.035827,9.916934,0.122318,-0.437779,0.674861,-0.060971,-0.171576,0.475555,-0.016385,0.030350,0.099146,0.999997,-0.000305,-0.000858,0.002378,0.252650,0.112513,-0.100289,-0.955746,14.594893,9.461951,-149.170949
15795,-1.989984,3.280179,10.027934,0.544949,-0.426669,0.901786,-0.063666,-0.157383,0.573730,-0.020073,0.032776,0.100253,0.999996,-0.000318,-0.000787,0.002869,0.255417,0.111363,-0.100482,-0.955125,14.604146,9.288206,-148.864095
15796,-0.960628,3.583797,9.927042,-0.121615,-1.207653,0.715333,-0.161060,-0.179118,0.598769,-0.009803,0.035889,0.099233,0.999995,-0.000805,-0.000896,0.002994,0.258346,0.109971,-0.100253,-0.954522,14.558762,9.098966,-148.546295
15797,-0.683122,4.289416,9.869646,0.031519,-1.949169,0.792750,-0.198467,-0.056307,0.628665,-0.006994,0.042970,0.098652,0.999995,-0.000992,-0.000282,0.003143,0.261495,0.109100,-0.099700,-0.953822,14.496132,8.973767,-148.193952
15798,-1.119027,5.627170,10.248189,0.979904,-2.806910,1.549684,-0.401052,0.059444,0.625780,-0.011336,0.056442,0.102372,0.999993,-0.002005,0.000297,0.003129,0.264797,0.108518,-0.098030,-0.953151,14.319727,8.913952,-147.826169
15799,0.528699,6.585143,10.178296,0.138065,-4.523433,1.446098,-0.655973,0.184006,0.559026,0.005196,0.066199,0.101561,0.999990,-0.003280,0.000920,0.002795,0.267974,0.108220,-0.094939,-0.952610,13.993605,8.934274,-147.478197
15800,1.928482,6.856844,10.849270,-1.006153,-5.484414,1.906946,-0.795034,0.350661,0.483868,0.019308,0.069046,0.108185,0.999988,-0.003975,0.001753,0.002419,0.270943,0.108565,-0.090925,-0.952122,13.585921,9.059707,-147.149340
15801,4.679231,7.801873,12.083776,-3.067862,-7.705972,2.835899,-0.764090,0.343683,0.473449,0.046814,0.078590,0.120458,0.999988,-0.003820,0.001718,0.002367,0.273834,0.108919,-0.087054,-0.951616,13.194766,9.184981,-146.828336
15802,5.231607,1.655002,10.910207,-6.256713,-3.102571,0.205693,-0.764944,0.329647,0.344651,0.052467,0.017057,0.108951,0.999990,-0.003825,0.001648,0.001723,0.276103,0.109258,-0.083135,-0.951272,12.792702,9.320767,-146.582461
15803,8.529645,8.238977,12.249843,-5.961390,-10.306135,2.391396,0.111068,0.136673,0.083299,0.085346,0.082357,0.122486,1.000000,0.000555,0.000683,0.000416,0.276565,0.109997,-0.083496,-0.951021,12.863843,9.383129,-146.510092
15804,10.329758,5.043517,11.162254,-8.782758,-8.735645,0.350410,-0.274086,-0.139034,-0.146418,0.103257,0.050513,0.111625,0.999999,-0.001370,-0.000695,-0.000732,0.276034,0.108983,-0.082293,-0.951397,12.688540,9.319607,-146.602960
15805,11.831331,5.971424,11.222374,-9.565826,-10.287889,0.396796,0.237281,-0.432572,-0.289295,0.118156,0.059410,0.112550,0.999996,0.001186,-0.002163,-0.001446,0.274419,0.107342,-0.083837,-0.951916,12.786356,9.111024,-146.814521
15806,11.186489,5.845378,11.036466,-9.058973,-9.767340,0.367789,0.230232,-0.783038,-0.334275,0.111529,0.058140,0.110869,0.999990,0.001151,-0.003915,-0.001671,0.272446,0.104029,-0.085818,-0.952673,12.871620,8.710899,-147.096526
15807,11.186802,5.957868,10.161657,-8.784212,-9.844472,-0.335284,0.375471,-1.077314,-0.302244,0.111408,0.059218,0.102329,0.999983,0.001877,-0.005387,-0.001511,0.270414,0.099506,-0.088891,-0.953453,13.038096,8.144765,-147.399463
15808,9.464740,5.229590,10.351070,-7.733557,-8.162197,0.068698,0.482655,-1.279612,-0.193610,0.094032,0.051954,0.104239,0.999976,0.002413,-0.006398,-0.000968,0.268748,0.094095,-0.092819,-0.954099,13.275332,7.450056,-147.669153
15809,7.543272,5.041115,10.091644,-6.108641,-6.870384,0.168959,0.655501,-1.521639,-0.040846,0.074671,0.050063,0.101651,0.999966,0.003277,-0.007608,-0.000204,0.267599,0.087702,-0.097943,-0.954519,13.619779,6.604092,-147.888864
15810,6.114632,4.345006,9.481755,-5.046836,-5.465469,-0.282421,0.691205,-1.576915,0.122703,0.060369,0.043158,0.095445,0.999963,0.003456,-0.007884,0.000614,0.267172,0.080985,-0.103399,-0.954657,13.998226,5.703197,-148.029457
15811,4.034424,3.451782,9.630841,-3.680256,-3.452263,-0.041352,0.748976,-1.546177,0.310272,0.039544,0.034218,0.096745,0.999962,0.003745,-0.007731,0.001551,0.267609,0.074411,-0.109135,-0.954431,14.419646,4.797197,-148.067331
15812,2.312179,3.166338,9.749414,-2.295546,-2.136344,0.216594,0.797017,-1.533873,0.509910,0.022292,0.031332,0.097793,0.999959,0.003985,-0.007669,0.002550,0.268970,0.067820,-0.115174,-0.953830,14.879030,3.865840,-147.999268
15813,1.541855,3.191141,9.755010,-1.531674,-1.599402,0.327036,0.715376,-1.492938,0.689915,0.014580,0.031613,0.097774,0.999960,0.003577,-0.007465,0.003450,0.271215,0.061230,-0.120796,-0.952944,15.294548,2.933359,-147.832607
15814,0.614059,2.921228,9.803061,-0.785302,-0.727193,0.378602,0.690642,-1.466612,0.857979,0.005297,0.028897,0.098172,0.999958,0.003453,-0.007333,0.004290,0.274265,0.054599,-0.126330,-0.951755,15.698868,1.984796,-147.575827
15815,0.292188,3.184765,9.676096,-0.248097,-0.651563,0.354223,0.618449,-1.453604,0.978558,0.002063,0.031560,0.096876,0.999957,0.003092,-0.007268,0.004893,0.277890,0.047877,-0.131500,-0.950365,16.057345,1.026534,-147.257009
15816,0.311747,3.201283,9.213244,-0.069062,-0.638926,-0.075451,0.584925,-1.403029,1.084593,0.002298,0.031757,0.092244,0.999956,0.002925,-0.007015,0.005423,0.282039,0.041247,-0.136479,-0.948750,16.393684,0.073432,-146.877703
15817,-0.172361,3.216248,9.411181,0.419800,-0.205565,0.123279,0.541456,-1.289733,1.182471,-0.002520,0.031894,0.094184,0.999958,0.002707,-0.006449,0.005912,0.286711,0.035050,-0.141076,-0.946924,16.696716,-0.831746,-146.431431
15818,-1.856435,2.669245,9.980070,1.544176,1.446865,0.467991,0.631989,-1.267764,1.276470,-0.019365,0.026255,0.099763,0.999955,0.003160,-0.006339,0.006382,0.291805,0.028991,-0.146098,-0.944809,17.045169,-1.746812,-145.935086
15819,-1.986276,2.464041,9.369203,1.710222,1.673741,-0.217373,0.602613,-1.251109,1.298451,-0.020607,0.024226,0.093638,0.999955,0.003013,-0.006255,0.006492,0.296990,0.022975,-0.150923,-0.942598,17.366754,-2.655595,-145.428896
15820,-2.818807,1.471455,8.975244,1.965297,2.948492,-0.974813,0.568152,-1.113586,1.248462,-0.028777,0.014281,0.089634,0.999961,0.002841,-0.005568,0.006242,0.302024,0.017567,-0.155386,-0.940387,17.663017,-3.486976,-144.930988
15821,-3.360266,0.962033,8.975015,2.166351,3.771860,-1.219301,0.499313,-0.993444,1.174652,-0.034103,0.009197,0.089605,0.999967,0.002497,-0.004967,0.005873,0.306786,0.012701,-0.159302,-0.938266,17.912840,-4.238606,-144.455786
15822,-4.178291,0.046915,9.066055,2.323123,5.077635,-1.537838,0.461051,-0.845763,1.128761,-0.042167,0.000023,0.090483,0.999972,0.002305,-0.004229,0.005644,0.311437,0.008480,-0.162821,-0.936175,18.136486,-4.907011,-143.982230
15823,-5.547931,-0.132411,9.690090,3.258421,6.305258,-1.191787,0.391071,-0.735587,1.139391,-0.055826,-0.001831,0.096693,0.999975,0.001955,-0.003678,0.005697,0.316211,0.004682,-0.165812,-0.934075,18.311118,-5.515577,-143.484768
15824,-6.407236,-1.035806,9.349916,3.448121,7.479214,-1.956661,0.238650,-0.675554,1.143433,-0.064327,-0.010837,0.093269,0.999977,0.001193,-0.003378,0.005717,0.321044,0.000897,-0.168006,-0.932043,18.393289,-6.096403,-142.975241
15825,-6.546836,-1.931867,8.491175,3.097499,8.030295,-3.133438,0.115362,-0.515887,1.112286,-0.065578,-0.019732,0.084731,0.999981,0.000577,-0.002579,0.005561,0.325850,-0.002293,-0.169343,-0.930129,18.397522,-6.582102,-142.453481
15826,-6.587630,-1.850035,9.001894,3.095829,8.213144,-2.684345,-0.038117,-0.344770,1.077355,-0.065930,-0.018838,0.089909,0.999984,-0.000191,-0.001724,0.005387,0.330627,-0.004927,-0.169697,-0.928366,18.309273,-6.970672,-141.919099
15827,-6.851072,-1.975673,9.451062,3.148396,8.654274,-2.372671,-0.127506,-0.311251,1.053730,-0.068553,-0.020058,0.094417,0.999985,-0.000638,-0.001556,0.005269,0.335309,-0.007514,-0.169561,-0.926693,18.166121,-7.333084,-141.390250
15828,-5.555014,-1.402938,8.449791,2.580584,7.155981,-3.004031,-0.234785,-0.267972,0.954546,-0.055596,-0.014196,0.084440,0.999987,-0.001174,-0.001340,0.004773,0.339555,-0.010012,-0.168865,-0.925250,17.964837,-7.654840,-140.906777
15829,-5.462999,-0.892160,8.276336,2.837840,6.699552,-3.015578,-0.302062,-0.124234,0.820451,-0.054645,-0.009021,0.082743,0.999990,-0.001510,-0.000621,0.004102,0.343289,-0.011830,-0.167605,-0.924079,17.728512,-7.870702,-140.469966
15830,-5.659466,-0.127536,8.002454,3.493814,6.208152,-3.079398,-0.326730,-0.056149,0.708492,-0.056612,-0.001345,0.080011,0.999992,-0.001634,-0.000281,0.003542,0.346556,-0.013295,-0.166126,-0.923106,17.483673,-8.029864,-140.081995
15831,-4.630671,0.249939,6.582777,3.074935,4.847929,-4.166371,-0.251797,0.136813,0.578993,-0.046269,0.002448,0.065856,0.999995,-0.001259,0.000684,0.002895,0.349386,-0.013618,-0.164657,-0.922297,17.286083,-8.058157,-139.731347
15832,-5.001792,0.447068,6.681015,3.454031,4.979523,-4.057022,-0.169826,0.402769,0.465372,-0.049894,0.004411,0.066907,0.999995,-0.000849,0.002014,0.002327,0.351912,-0.012489,-0.163112,-0.921627,17.138317,-7.921896,-139.398023
15833,-6.073430,1.284396,7.655524,4.682287,5.385026,-3.014104,-0.073343,0.537157,0.373115,-0.060552,0.012759,0.076713,0.999995,-0.000367,0.002686,0.001866,0.354125,-0.010485,-0.161775,-0.921040,17.050626,-7.694508,-139.093182
15834,-6.745861,0.975930,7.636888,4.943464,6.022617,-3.174085,-0.129748,0.655491,0.213039,-0.067218,0.009737,0.076583,0.999994,-0.000649,0.003277,0.001065,0.355690,-0.007913,-0.159978,-0.920776,16.941156,-7.375850,-138.857488
15835,-8.535844,0.324322,7.454083,5.827650,7.567469,-3.705283,-0.047238,0.792940,-0.129001,-0.085060,0.003316,0.074878,0.999992,-0.000236,0.003965,-0.000645,0.355788,-0.004281,-0.158324,-0.921048,16.901214,-6.923609,-138.788205
15836,-6.207082,6.254627,7.208767,7.946506,1.789350,-1.858823,0.400453,0.917453,-0.895384,-0.061458,0.062677,0.072496,0.999977,0.002002,0.004587,-0.004477,0.352454,0.001325,-0.158523,-0.922304,17.164441,-6.275020,-139.119759
15837,0.119248,19.106423,25.461633,9.064984,-6.314079,20.041262,0.208658,1.783160,-2.217351,0.005580,0.190753,0.254779,0.999898,0.001043,0.008915,-0.011086,0.343668,0.011635,-0.156283,-0.925923,17.368279,-4.926237,-140.026816
15838,-7.933519,5.845372,19.441419,7.410279,6.218935,9.718676,-1.714112,-0.597460,-1.014760,-0.079611,0.060519,0.193664,0.999946,-0.008570,-0.002987,-0.005074,0.338648,0.006680,-0.149282,-0.928972,16.439127,-5.088658,-140.677840
15839,15.388261,-0.782852,-2.070247,-12.112676,-9.704908,-10.703801,-0.729492,0.738156,-0.146296,0.153799,-0.008018,-0.021241,0.999986,-0.003647,0.003691,-0.000731,0.338602,0.008946,-0.144607,-0.929708,16.013068,-4.662986,-140.632710
15840,-5.478237,8.399076,12.062638,8.035337,0.500089,3.649993,0.383365,1.090009,0.020230,-0.054132,0.083753,0.121083,0.999983,0.001917,0.005450,0.000101,0.339526,0.014610,-0.144517,-0.929313,16.214213,-4.070239,-140.440362
15841,-0.416352,-0.855161,7.890501,-1.205806,2.876303,-2.502656,-1.084220,0.868915,0.231667,-0.003811,-0.008128,0.078967,0.999975,-0.005421,0.004345,0.001158,0.341365,0.016603,-0.137989,-0.929599,15.570482,-3.631557,-140.168468
15842,0.454388,1.508789,11.037243,-0.828874,1.287546,1.230759,0.224812,1.113843,0.557446,0.005117,0.014978,0.110362,0.999980,0.001124,0.005569,0.002787,0.344763,0.021745,-0.137151,-0.928362,15.666821,-3.106661,-139.680816
15843,0.993234,-1.373349,10.979912,-3.150920,2.943482,0.426332,-0.003742,1.002565,0.550241,0.010520,-0.013703,0.109748,0.999984,-0.000019,0.005013,0.002751,0.348063,0.025979,-0.135435,-0.927272,15.637032,-2.642349,-139.214371
15844,1.442449,-2.266513,10.331536,-4.050480,3.071448,-0.425604,0.150292,0.926451,0.161753,0.014921,-0.022731,0.103230,0.999989,0.000751,0.004632,0.000809,0.349482,0.030391,-0.134514,-0.926739,15.709079,-2.160062,-138.974173
15845,-0.297026,-2.619556,11.000029,-3.143060,4.567560,0.046769,0.183240,0.844741,-0.330978,-0.002549,-0.026292,0.109988,0.999989,0.000916,0.004224,-0.001655,0.348549,0.034812,-0.133808,-0.927037,15.811269,-1.646523,-139.017942
15846,-0.886504,-1.018954,10.966921,-1.740654,3.754719,0.432767,0.189712,0.669160,-0.725535,-0.008535,-0.010262,0.109688,0.999987,0.000949,0.003346,-0.003628,0.345661,0.038693,-0.133366,-0.928027,15.922699,-1.167874,-139.305790
15847,-0.517275,0.994712,10.400614,-0.719199,1.898235,0.449321,0.258957,0.566612,-0.954605,-0.004831,0.009836,0.104033,0.999984,0.001295,0.002833,-0.004773,0.341618,0.042370,-0.133374,-0.929362,16.073846,-0.708863,-139.734851
15848,-0.698116,3.549214,10.262340,0.963907,0.084001,1.025352,0.243216,0.461844,-1.057396,-0.006557,0.035403,0.102682,0.999983,0.001216,0.002309,-0.005287,0.337020,0.045600,-0.133460,-0.930874,16.213045,-0.290009,-140.236029
15849,-1.023790,4.932129,9.492599,2.123825,-0.937856,0.679815,0.199659,0.403550,-1.017269,-0.009796,0.049277,0.094995,0.999985,0.000998,0.002018,-0.005086,0.332569,0.048458,-0.133449,-0.932331,16.324034,0.091393,-140.723502
15850,-1.189113,6.605955,9.288175,3.230124,-2.168977,0.966180,0.165017,0.402516,-0.783082,-0.011446,0.066028,0.092960,0.999990,0.000825,0.002013,-0.003915,0.329209,0.051096,-0.133330,-0.933399,16.412496,0.435357,-141.081776
15851,-1.083652,7.436429,8.926228,3.648235,-2.976973,0.863451,0.088403,0.420192,-0.416336,-0.010494,0.074347,0.089317,0.999996,0.000442,0.002101,-0.002082,0.327588,0.053445,-0.132918,-0.933897,16.457334,0.729902,-141.235209
15852,-0.921848,6.896758,8.860296,3.165117,-2.717547,0.652336,0.054771,0.480095,-0.026242,-0.008997,0.068944,0.088644,0.999997,0.000274,0.002400,-0.000131,0.327835,0.055760,-0.132354,-0.933755,16.485604,0.994250,-141.164337
15853,-0.918554,5.735751,9.360063,2.342473,-1.763564,0.805972,-0.014021,0.508746,0.284506,-0.009029,0.057351,0.093620,0.999996,-0.000070,0.002544,0.001423,0.329568,0.057889,-0.131507,-0.933134,16.478085,1.223648,-140.918026
15854,-1.230172,4.246638,9.874885,1.567319,-0.363486,0.886468,-0.050385,0.494537,0.471577,-0.012158,0.042462,0.098768,0.999994,-0.000252,0.002473,0.002358,0.332172,0.059770,-0.130569,-0.932224,16.453244,1.415140,-140.571160
15855,-1.453754,3.203291,10.319619,1.000013,0.631100,1.025700,-0.054631,0.421273,0.533624,-0.014406,0.032023,0.103218,0.999994,-0.000273,0.002106,0.002668,0.335015,0.061260,-0.129747,-0.931224,16.427255,1.556252,-140.202224
15856,-1.278942,2.265546,10.381679,0.264229,1.212501,0.817818,-0.075787,0.326335,0.485759,-0.012675,0.022664,0.103829,0.999996,-0.000379,0.001632,0.002429,0.337576,0.062305,-0.128973,-0.930337,16.389084,1.653410,-139.874923
15857,-1.236959,2.020626,10.371926,0.070551,1.351252,0.739988,-0.057948,0.234761,0.404222,-0.012289,0.020211,0.103728,0.999997,-0.000290,0.001174,0.002021,0.339691,0.063004,-0.128407,-0.929598,16.359488,1.713319,-139.607419
15858,-0.979709,2.068496,10.211304,-0.070624,1.108377,0.592876,-0.062811,0.151770,0.326549,-0.009753,0.020701,0.102114,0.999998,-0.000314,0.000759,0.001633,0.341391,0.063361,-0.127936,-0.929016,16.325904,1.740597,-139.395950
15859,-0.999145,1.860673,10.031705,-0.149699,1.232641,0.363446,-0.045441,0.082111,0.250671,-0.009974,0.018617,0.100317,0.999999,-0.000227,0.000411,0.001253,0.342688,0.063470,-0.127639,-0.928571,16.300427,1.741562,-139.237555
15860,-0.346115,1.907239,9.594981,-0.525886,0.684460,-0.061996,-0.022597,0.064193,0.201747,-0.003450,0.019080,0.095949,0.999999,-0.000113,0.000321,0.001009,0.343738,0.063569,-0.127464,-0.928200,16.287362,1.740958,-139.108871
15861,-0.174689,2.026688,9.593938,-0.581800,0.482471,-0.034632,0.002821,0.061727,0.139777,-0.001731,0.020264,0.095940,1.000000,0.000014,0.000309,0.000699,0.344491,0.063736,-0.127390,-0.927920,16.287590,1.748603,-139.014770
15862,0.165303,2.280132,9.310106,-0.623124,0.016615,-0.246296,-0.025091,0.062818,0.081260,0.001673,0.022814,0.093098,1.000000,-0.000125,0.000314,0.000406,0.344982,0.063901,-0.127166,-0.927757,16.271041,1.766622,-138.952617
15863,0.196772,2.353402,9.371152,-0.615996,-0.051531,-0.168331,-0.016287,0.092361,0.021622,0.002008,0.023542,0.093709,1.000000,-0.000081,0.000462,0.000108,0.345212,0.064252,-0.126914,-0.927682,16.258517,1.810114,-138.918618
15864,0.285849,2.817591,9.113113,-0.343518,-0.507574,-0.289363,-0.071027,0.110633,-0.030019,0.002913,0.028208,0.091120,1.000000,-0.000355,0.000553,-0.000150,0.345231,0.064630,-0.126359,-0.927724,16.213992,1.872278,-138.910068
15865,0.183521,2.592167,9.254938,-0.440518,-0.263251,-0.213546,-0.084003,0.150552,-0.050334,0.001911,0.025960,0.092537,1.000000,-0.000420,0.000753,-0.000252,0.345186,0.065180,-0.125668,-0.927796,16.161731,1.959328,-138.906440
15866,-0.248172,2.898015,9.793125,-0.042537,-0.117207,0.402488,-0.055403,0.148937,-0.041508,-0.002403,0.029008,0.097925,1.000000,-0.000277,0.000745,-0.000208,0.345171,0.065769,-0.125116,-0.927835,16.126172,2.044381,-138.898212
15867,-0.738334,2.589957,9.890723,0.108323,0.434694,0.428344,-0.053820,0.107361,-0.040936,-0.007325,0.025928,0.098904,1.000000,-0.000269,0.000537,-0.000205,0.345131,0.066165,-0.124642,-0.927885,16.091148,2.106168,-138.896398
15868,-0.428800,2.373490,9.495946,-0.180553,0.304305,-0.021615,-0.069337,0.087255,-0.067993,-0.004238,0.023769,0.094953,1.000000,-0.000347,0.000436,-0.000340,0.344959,0.066461,-0.124123,-0.927998,16.046706,2.161477,-138.912664
15869,-0.298504,2.843458,9.459803,0.019529,-0.143832,0.068666,-0.067991,0.088106,-0.098665,-0.002929,0.028468,0.094590,1.000000,-0.000340,0.000441,-0.000493,0.344644,0.066779,-0.123598,-0.928162,16.002229,2.221793,-138.945803
15870,-0.247382,2.429826,9.240779,-0.234376,0.072140,-0.257736,-0.070568,0.103837,-0.112908,-0.002412,0.024332,0.092400,1.000000,-0.000353,0.000519,-0.000565,0.344274,0.067177,-0.123029,-0.928346,15.956162,2.293293,-138.984299
15871,-0.119222,2.671837,9.397271,-0.218071,-0.175241,-0.046248,-0.071621,0.131856,-0.115603,-0.001115,0.026753,0.093964,1.000000,-0.000358,0.000659,-0.000578,0.343908,0.067702,-0.122406,-0.928526,15.909418,2.380324,-139.019991
15872,-0.165712,2.559954,9.321226,-0.243572,-0.093265,-0.148422,-0.079350,0.157154,-0.139859,-0.001566,0.025638,0.093203,0.999999,-0.000397,0.000786,-0.000699,0.343448,0.068348,-0.121695,-0.928742,15.857912,2.485353,-139.065111
15873,-0.311381,1.763002,9.197842,-0.611090,0.546438,-0.478162,-0.086759,0.185739,-0.179469,-0.003013,0.017673,0.091974,0.999999,-0.000434,0.000929,-0.000897,0.342823,0.069136,-0.120887,-0.929020,15.801164,2.612003,-139.127776
15874,0.016459,1.988288,9.328221,-0.757596,0.167865,-0.306528,-0.089786,0.217291,-0.270136,0.000293,0.019924,0.093273,0.999998,-0.000449,0.001086,-0.001351,0.341796,0.070123,-0.119980,-0.929442,15.740499,2.770378,-139.235658
15875,0.183496,1.300881,9.359520,-1.329592,0.547277,-0.471425,-0.098241,0.242835,-0.395262,0.001974,0.013051,0.093586,0.999997,-0.000491,0.001214,-0.001976,0.340205,0.071286,-0.118945,-0.930071,15.671295,2.961854,-139.408919
15876,-0.299113,1.028597,9.806524,-1.242483,1.114692,-0.090084,-0.062287,0.242779,-0.528722,-0.002845,0.010324,0.098066,0.999996,-0.000311,0.001214,-0.002644,0.337977,0.072591,-0.118028,-0.930898,15.618159,3.173971,-139.656135
15877,-0.627079,1.074467,10.149102,-1.054287,1.326541,0.270997,-0.043815,0.197777,-0.667557,-0.006134,0.010788,0.101495,0.999994,-0.000219,0.000989,-0.003338,0.335067,0.073797,-0.117222,-0.931957,15.569865,3.382183,-139.987305
15878,-0.802076,1.256093,9.713352,-0.731779,1.208651,-0.087775,0.037628,0.148116,-0.771808,-0.007900,0.012573,0.097142,0.999992,0.000188,0.000741,-0.003859,0.331608,0.074969,-0.116838,-0.933148,15.563021,3.579082,-140.383944
15879,-0.477259,2.140909,9.437517,-0.410539,0.271548,-0.136137,0.062980,0.154138,-0.816618,-0.004612,0.021398,0.094386,0.999991,0.000315,0.000771,-0.004083,0.327928,0.076235,-0.116545,-0.934382,15.567840,3.785961,-140.804527
15880,-0.676245,2.704283,9.447503,0.046929,-0.047681,0.037244,0.109285,0.185224,-0.802703,-0.006566,0.027018,0.094496,0.999991,0.000546,0.000926,-0.004014,0.324308,0.077715,-0.116418,-0.935538,15.598332,4.008209,-141.212678
15881,-0.810997,2.883728,9.409207,0.232568,-0.128769,0.058279,0.083537,0.205330,-0.762479,-0.007903,0.028828,0.094112,0.999992,0.000418,0.001027,-0.003812,0.320893,0.079220,-0.116154,-0.936622,15.614428,4.235292,-141.595468
15882,-0.794409,2.783271,9.291430,0.153468,-0.105071,-0.082651,0.093977,0.227634,-0.744933,-0.007735,0.027818,0.092936,0.999992,0.000470,0.001138,-0.003725,0.317563,0.080837,-0.115907,-0.937648,15.635833,4.472326,-141.965156
15883,-0.775591,2.737187,9.441497,0.043931,-0.080397,0.047690,0.068306,0.236774,-0.760891,-0.007540,0.027369,0.094433,0.999992,0.000342,0.001184,-0.003804,0.314170,0.082462,-0.115518,-0.938697,15.640505,4.716724,-142.342309
15884,-0.927887,3.012719,9.615701,0.247624,-0.199819,0.301547,0.049210,0.221600,-0.782818,-0.009054,0.030139,0.096175,0.999992,0.000246,0.001108,-0.003914,0.310669,0.083999,-0.115051,-0.939783,15.631296,4.956347,-142.734114
15885,-1.116348,3.200100,9.372346,0.525809,-0.302345,0.135161,0.022984,0.216543,-0.764178,-0.010940,0.032032,0.093739,0.999992,0.000115,0.001083,-0.003821,0.307258,0.085458,-0.114477,-0.940843,15.606391,5.189962,-143.116571
15886,-1.009949,3.375667,9.321479,0.519119,-0.543732,0.124102,0.003860,0.221266,-0.723339,-0.009874,0.033791,0.093226,0.999993,0.000019,0.001106,-0.003617,0.304045,0.086887,-0.113819,-0.941835,15.571032,5.419928,-143.475936
15887,-1.082801,3.102001,9.551968,0.341233,-0.278465,0.278934,0.007199,0.233151,-0.674196,-0.010612,0.031053,0.095533,0.999994,0.000036,0.001166,-0.003371,0.301066,0.088346,-0.113180,-0.942732,15.539026,5.648461,-143.806475
15888,-1.174580,3.306061,9.438555,0.523797,-0.435317,0.233804,-0.015341,0.221856,-0.628176,-0.011537,0.033104,0.094396,0.999994,-0.000077,0.001109,-0.003141,0.298303,0.089693,-0.112470,-0.943568,15.495132,5.863723,-144.113497
15889,-1.475051,3.460930,9.309511,0.852833,-0.435816,0.182482,-0.026746,0.228973,-0.580563,-0.014543,0.034664,0.093107,0.999995,-0.000134,0.001145,-0.002903,0.295772,0.091027,-0.111717,-0.944326,15.446457,6.075154,-144.393284
15890,-1.514238,3.794544,9.214606,1.060808,-0.728865,0.184499,-0.076109,0.237950,-0.502596,-0.014937,0.038018,0.092149,0.999996,-0.000381,0.001190,-0.002513,0.293633,0.092288,-0.110752,-0.944985,15.373249,6.279631,-144.628693
15891,-1.305843,3.834578,9.063905,0.926123,-0.939761,0.027159,-0.118056,0.256327,-0.418084,-0.012862,0.038426,0.090633,0.999997,-0.000590,0.001282,-0.002090,0.291921,0.093525,-0.109600,-0.945528,15.280682,6.480871,-144.814719
15892,-1.181599,3.063041,9.322275,0.331053,-0.384407,0.057759,-0.113529,0.288269,-0.343829,-0.011629,0.030703,0.093222,0.999997,-0.000568,0.001441,-0.001719,0.290574,0.094880,-0.108457,-0.945939,15.195362,6.688574,-144.954925
15893,-1.084690,2.593001,9.584964,-0.081731,-0.053632,0.175409,-0.115334,0.297439,-0.318764,-0.010663,0.026002,0.095851,0.999997,-0.000577,0.001487,-0.001594,0.289351,0.096260,-0.107304,-0.946307,15.110209,6.897113,-145.080205
15894,-1.325816,2.488043,9.707329,0.008772,0.152937,0.294576,-0.127477,0.281866,-0.343730,-0.013078,0.024965,0.097076,0.999997,-0.000637,0.001409,-0.001719,0.288005,0.097564,-0.106103,-0.946719,15.015702,7.100829,-145.222068
15895,-1.515931,2.471756,9.667585,0.146747,0.233467,0.276597,-0.142157,0.255888,-0.372014,-0.014990,0.024814,0.096677,0.999997,-0.000711,0.001279,-0.001860,0.286517,0.098736,-0.104855,-0.947188,14.909704,7.293831,-145.384058
15896,-1.724039,2.801893,9.925701,0.409107,0.083085,0.635665,-0.150167,0.231063,-0.373355,-0.017073,0.028125,0.099256,0.999997,-0.000751,0.001155,-0.001867,0.285012,0.099782,-0.103604,-0.947670,14.798038,7.473258,-145.550860
15897,-1.785124,2.916339,9.854023,0.523178,-0.020220,0.604570,-0.143405,0.180004,-0.337295,-0.017713,0.029264,0.098535,0.999998,-0.000717,0.000900,-0.001686,0.283646,0.100573,-0.102476,-0.948118,14.691315,7.618538,-145.705475
15898,-1.315155,2.718674,9.867236,0.021455,-0.148895,0.505281,-0.124140,0.183616,-0.271712,-0.013024,0.027266,0.098667,0.999998,-0.000621,0.000918,-0.001359,0.282583,0.101378,-0.101466,-0.948459,14.600272,7.756360,-145.823122
15899,-1.855037,3.270969,10.747331,0.516929,-0.207032,1.559884,-0.076650,0.165245,-0.170658,-0.018434,0.032767,0.107476,0.999999,-0.000383,0.000826,-0.000853,0.281965,0.102109,-0.100758,-0.948640,14.543397,7.868971,-145.887152
15900,-2.368329,5.180275,10.745894,1.915269,-1.505849,2.102959,-0.091059,0.055210,0.010353,-0.023656,0.051850,0.107442,1.000000,-0.000455,0.000276,0.000052,0.282158,0.102209,-0.100230,-0.948628,14.489985,7.894805,-145.865833
15901,-0.957962,5.703341,8.616065,1.572300,-3.009369,-0.006877,-0.171291,0.046475,0.257966,-0.009633,0.057095,0.086114,0.999999,-0.000856,0.000232,0.001290,0.283561,0.102027,-0.099459,-0.948310,14.409362,7.880102,-145.707173
15902,-0.556785,6.030603,7.892252,1.616550,-3.602046,-0.681543,-0.247359,0.184970,0.498958,-0.005645,0.060390,0.078853,0.999996,-0.001237,0.000925,0.002495,0.286213,0.102277,-0.098256,-0.947611,14.306736,7.908605,-145.393446
15903,-0.636821,5.058247,8.880371,0.950247,-2.649382,0.032622,-0.319500,0.336055,0.673087,-0.006390,0.050703,0.088733,0.999992,-0.001597,0.001680,0.003365,0.289797,0.103049,-0.096581,-0.946610,14.179292,7.996769,-144.960717
15904,0.108040,4.690479,9.598045,-0.003847,-2.712984,0.520476,-0.425401,0.378114,0.771046,0.001080,0.047113,0.095878,0.999989,-0.002127,0.001891,0.003855,0.293915,0.103821,-0.094395,-0.945476,14.000872,8.096055,-144.467023
15905,1.584548,3.684673,9.396946,-1.655663,-2.822926,-0.133862,-0.540817,0.493688,0.682693,0.015951,0.037155,0.093830,0.999987,-0.002704,0.002468,0.003413,0.297721,0.105006,-0.091442,-0.944444,13.752194,8.273319,-144.007342
15906,1.689522,4.004328,10.589555,-1.846746,-3.086880,1.054134,-0.627152,0.567578,0.465771,0.017102,0.040415,0.105721,0.999988,-0.003136,0.002838,0.002329,0.300576,0.106510,-0.087860,-0.943711,13.439895,8.523293,-143.660117
15907,2.171046,3.877632,11.245362,-2.450564,-3.297973,1.559416,-0.733118,0.566330,0.176619,0.021994,0.039207,0.112248,0.999989,-0.003666,0.002832,0.000883,0.302114,0.107971,-0.083620,-0.943439,13.043080,8.812519,-143.477744
15908,2.400930,4.409311,11.985133,-2.516998,-3.904275,2.322797,-0.778823,0.529709,-0.144600,0.024358,0.044542,0.119614,0.999989,-0.003894,0.002649,-0.000723,0.302141,0.109322,-0.079050,-0.943669,12.592340,9.123329,-143.483538
15909,4.736346,4.823336,13.110423,-4.420745,-5.629095,3.084983,-0.740514,0.375594,-0.379162,0.047701,0.048628,0.130835,0.999990,-0.003703,0.001878,-0.001896,0.300971,0.110094,-0.074757,-0.944302,12.137972,9.376721,-143.644235
15910,6.714225,5.866510,11.504909,-5.025402,-7.819317,1.388338,-0.337749,0.165643,-0.610899,0.067417,0.058654,0.114894,0.999994,-0.001689,0.000828,-0.003054,0.298404,0.110564,-0.072561,-0.945233,11.888520,9.538653,-143.963376
15911,8.455154,9.015890,11.419178,-4.719221,-11.422330,1.607998,-0.292036,0.169690,-0.730211,0.084977,0.090016,0.113988,0.999992,-0.001460,0.000848,-0.003651,0.295243,0.111165,-0.070500,-0.946310,11.652110,9.715922,-144.351039
15912,7.928580,7.889686,11.773746,-5.063180,-10.188349,1.775756,-0.063085,-0.016863,-0.637427,0.079527,0.078681,0.117719,0.999995,-0.000315,-0.000084,-0.003187,0.292327,0.111181,-0.069861,-0.947261,11.552358,9.775633,-144.707994
15913,10.165762,7.150724,10.562104,-7.004781,-10.921375,0.071139,-0.027858,-0.155059,-0.470990,0.101744,0.071282,0.105690,0.999997,-0.000139,-0.000775,-0.002355,0.290127,0.110541,-0.069670,-0.948026,11.484922,9.739242,-144.986626
15914,10.807500,6.289390,11.013706,-8.130010,-10.508484,0.243882,0.151125,-0.236779,-0.316262,0.108044,0.062640,0.110312,0.999998,0.000756,-0.001184,-0.001581,0.288535,0.109708,-0.070548,-0.948544,11.535082,9.637530,-145.186135
15915,11.985913,5.659450,11.463931,-9.541000,-10.564685,0.408325,0.187584,-0.552548,-0.133830,0.119579,0.056407,0.115023,0.999996,0.000938,-0.002763,-0.000669,0.287671,0.107376,-0.072138,-0.948953,11.616397,9.339537,-145.319041
15916,12.729548,4.910479,10.660299,-10.322776,-10.350390,-0.533474,0.286465,-0.868119,0.034514,0.126823,0.048973,0.107224,0.999990,0.001432,-0.004341,0.000173,0.287438,0.103609,-0.074761,-0.949239,11.766162,8.842685,-145.393444
15917,11.578625,4.917333,10.685770,-9.342445,-9.616558,-0.186279,0.410688,-1.098270,0.190338,0.115150,0.049063,0.107592,0.999982,0.002053,-0.005491,0.000952,0.287783,0.098884,-0.078362,-0.949348,11.994928,8.201179,-145.408902
15918,9.873040,4.742582,10.549536,-7.940672,-8.419107,0.052506,0.505469,-1.312551,0.386900,0.097943,0.047348,0.106260,0.999973,0.002527,-0.006563,0.001934,0.288922,0.093175,-0.082839,-0.949200,12.291212,7.412666,-145.341877
15919,7.423768,4.335855,10.816066,-6.122483,-6.555206,0.696341,0.602486,-1.393388,0.612773,0.073348,0.043257,0.108804,0.999967,0.003012,-0.006967,0.003064,0.291031,0.087145,-0.087969,-0.948666,12.653955,6.553979,-145.162658
15920,4.671064,4.086837,11.011604,-3.941249,-4.627472,1.269988,0.679562,-1.421859,0.824540,0.045758,0.040683,0.110582,0.999960,0.003398,-0.007109,0.004123,0.294083,0.080965,-0.093619,-0.947732,13.071679,5.647200,-144.874042
15921,2.695594,2.623910,10.962136,-3.003918,-2.173968,1.167614,0.626027,-1.343701,0.965257,0.026092,0.026023,0.109880,0.999961,0.003130,-0.006718,0.004826,0.297831,0.075032,-0.098923,-0.946510,13.459760,4.767496,-144.503426
15922,0.424869,2.461685,11.636321,-1.281592,-0.484747,2.009497,0.604214,-1.271638,1.002713,0.003386,0.024284,0.116460,0.999963,0.003021,-0.006358,0.005014,0.301783,0.069353,-0.104050,-0.945141,13.833553,3.916129,-144.108251
15923,-0.217349,1.693698,11.408104,-1.045594,0.611286,1.658646,0.422113,-1.237153,0.950724,-0.002959,0.016683,0.114100,0.999967,0.002111,-0.006186,0.004754,0.305543,0.063615,-0.108212,-0.943868,14.093514,3.093248,-143.742571
15924,-1.593116,1.262299,12.306014,-0.248157,2.049604,2.487901,0.363524,-1.216669,0.880493,-0.016734,0.012327,0.122983,0.999970,0.001818,-0.006083,0.004402,0.308987,0.057887,-0.112064,-0.942665,14.314669,2.285748,-143.416661
15925,-2.321249,1.817336,12.188116,0.782950,2.176825,2.511519,0.375036,-1.429133,0.867920,-0.024161,0.017842,0.121744,0.999963,0.001875,-0.007146,0.004340,0.312224,0.051209,-0.116260,-0.941476,14.534386,1.365247,-143.131501
15926,-1.155488,1.617926,10.223115,0.181524,1.410330,0.504318,0.325874,-1.444025,0.859425,-0.012362,0.015961,0.102170,0.999963,0.001629,-0.007220,0.004297,0.315406,0.044355,-0.120263,-0.940260,14.722843,0.432461,-142.856526
15927,-2.516396,2.534250,10.586165,1.848873,1.733837,1.068221,0.365659,-1.420519,0.893689,-0.026028,0.025034,0.105725,0.999963,0.001828,-0.007103,0.004468,0.318726,0.037681,-0.124388,-0.938894,14.927959,-0.489019,-142.562422
15928,-2.453411,2.111348,9.588998,1.801944,1.951954,-0.047120,0.357879,-1.461770,0.935397,-0.025332,0.020825,0.095744,0.999961,0.001789,-0.007309,0.004677,0.322198,0.030742,-0.128566,-0.937398,15.125154,-1.444682,-142.254542
15929,-2.638574,1.881161,8.871506,1.998520,2.210649,-0.850463,0.409162,-1.342307,0.927270,-0.027067,0.018506,0.088573,0.999965,0.002046,-0.006711,0.004636,0.325672,0.024479,-0.132756,-0.935796,15.344866,-2.330060,-141.936520
15930,-3.720424,1.300787,8.930608,2.557290,3.450525,-1.046747,0.468805,-1.217841,0.884477,-0.037804,0.012633,0.089107,0.999969,0.002344,-0.006089,0.004422,0.329003,0.018893,-0.137032,-0.934143,15.595926,-3.145419,-141.626586
15931,-4.612839,0.953735,9.214389,3.055920,4.452574,-0.985060,0.512257,-1.109771,0.830464,-0.046677,0.009109,0.091910,0.999973,0.002561,-0.005549,0.004152,0.332128,0.013947,-0.141296,-0.932487,15.867174,-3.890237,-141.333131
15932,-5.927934,0.728860,9.384190,3.959950,5.601626,-1.056360,0.483688,-1.096802,0.746658,-0.059819,0.006839,0.093532,0.999975,0.002418,-0.005484,0.003733,0.334860,0.009047,-0.145414,-0.930936,16.123180,-4.619676,-141.087141
15933,-5.509986,-0.501656,8.143959,3.046439,6.015419,-2.638541,0.407345,-1.052466,0.601235,-0.055512,-0.005348,0.081138,0.999980,0.002037,-0.005262,0.003006,0.336931,0.004357,-0.149067,-0.929644,16.337616,-5.298782,-140.917025
15934,-6.151299,-0.464473,8.156760,3.590881,6.474415,-2.757660,0.428234,-0.923620,0.440752,-0.061878,-0.004955,0.081272,0.999985,0.002141,-0.004618,0.002204,0.338343,0.000397,-0.152610,-0.928565,16.570181,-5.884946,-140.817062
15935,-5.985374,-0.502197,7.940963,3.487119,6.403301,-3.032364,0.332040,-0.839383,0.314585,-0.060178,-0.005248,0.079149,0.999989,0.001660,-0.004197,0.001573,0.339222,-0.003215,-0.155541,-0.927753,16.751652,-6.401255,-140.774787
15936,-5.901706,-0.753823,7.524252,3.328453,6.463619,-3.555267,0.308015,-0.679186,0.239052,-0.059263,-0.007725,0.075030,0.999992,0.001540,-0.003396,0.001195,0.339870,-0.006085,-0.158103,-0.927068,16.921929,-6.820113,-140.749082
15937,-6.196641,-0.131545,8.494406,3.872877,6.535198,-2.542047,0.267768,-0.557495,0.209756,-0.062201,-0.001494,0.084769,0.999995,0.001339,-0.002787,0.001049,0.340470,-0.008417,-0.160255,-0.926460,17.067567,-7.164646,-140.720075
15938,-5.709547,0.028128,8.471126,3.619692,6.150009,-2.502789,0.194170,-0.510918,0.210967,-0.057312,0.000139,0.084565,0.999996,0.000971,-0.002555,0.001055,0.341109,-0.010677,-0.161998,-0.925898,17.170698,-7.486307,-140.683289
15939,-5.222851,0.354656,8.556357,3.460642,5.673222,-2.299131,0.161746,-0.381368,0.221446,-0.052395,0.003419,0.085467,0.999997,0.000809,-0.001907,0.001107,0.341896,-0.012383,-0.163355,-0.925348,17.250602,-7.736534,-140.618973
15940,-5.574531,0.811363,9.145958,3.979546,5.786134,-1.684592,0.130591,-0.342123,0.259940,-0.055912,0.007981,0.091369,0.999997,0.000653,-0.001711,0.001300,0.342890,-0.014007,-0.164508,-0.924753,17.309267,-7.973870,-140.526992
15941,-4.759140,1.042304,8.448997,3.572613,4.920239,-2.187141,0.074426,-0.242528,0.297524,-0.047709,0.010321,0.084436,0.999998,0.000372,-0.001213,0.001488,0.344133,-0.015283,-0.165216,-0.924144,17.329436,-8.161251,-140.397138
15942,-4.487554,1.189381,8.562222,3.451484,4.703293,-2.013286,0.051488,-0.077172,0.319867,-0.044927,0.011800,0.085608,0.999999,0.000257,-0.000386,0.001599,0.345614,-0.015864,-0.165541,-0.923524,17.330848,-8.263580,-140.226466
15943,-4.019568,1.621423,9.082440,3.324036,4.283052,-1.334309,0.007892,0.026212,0.366396,-0.040213,0.016137,0.090830,0.999998,0.000039,0.000131,0.001832,0.347389,-0.016070,-0.165472,-0.922866,17.300219,-8.315698,-140.012144
15944,-3.400706,1.603070,8.643304,2.872003,3.773497,-1.666913,-0.026000,0.121995,0.383585,-0.033985,0.015977,0.086452,0.999998,-0.000130,0.000610,0.001918,0.349320,-0.015916,-0.165086,-0.922209,17.246757,-8.319388,-139.771834
15945,-2.543656,1.120730,8.353414,1.922353,3.471094,-1.953821,-0.067353,0.291973,0.325590,-0.025333,0.011194,0.083567,0.999998,-0.000337,0.001460,0.001628,0.351118,-0.014994,-0.164209,-0.921698,17.169777,-8.218739,-139.534471
15946,-2.947238,0.891892,8.978752,2.000427,4.072380,-1.475206,-0.067223,0.401818,0.196230,-0.029301,0.008920,0.089844,0.999997,-0.000336,0.002009,0.000981,0.352409,-0.013466,-0.163154,-0.921416,17.101314,-8.036755,-139.350163
15947,-1.449943,0.294069,7.345186,0.606865,2.993145,-2.970669,-0.121735,0.541507,-0.015900,-0.014300,0.002987,0.073489,0.999996,-0.000609,0.002708,-0.000079,0.352830,-0.011210,-0.161609,-0.921557,17.014909,-7.741413,-139.259789
15948,-1.901509,-0.386998,8.298526,0.374022,4.017903,-2.306209,0.034810,0.819861,-0.206334,-0.018679,-0.003865,0.083062,0.999991,0.000174,0.004099,-0.001032,0.352603,-0.007247,-0.160307,-0.921911,17.026674,-7.262310,-139.227857
15949,-3.722111,1.256673,9.338334,2.657583,4.323978,-1.044685,0.155366,0.668579,-0.261095,-0.036892,0.012542,0.093517,0.999993,0.000777,0.003343,-0.001305,0.352001,-0.003720,-0.159824,-0.922246,17.114333,-6.856148,-139.251378
15950,-0.389777,-1.054660,6.031817,-1.047609,2.772734,-4.440411,0.056643,0.794579,-0.337026,-0.003676,-0.010557,0.060330,0.999991,0.000283,0.003973,-0.001685,0.351142,0.000272,-0.158664,-0.922781,17.147650,-6.368650,-139.294908
15951,-3.748451,-0.232623,7.907063,1.751016,4.890591,-2.766979,0.321903,1.045072,-0.330397,-0.037075,-0.002392,0.079261,0.999984,0.001610,0.005225,-0.001652,0.350503,0.005884,-0.158282,-0.923071,17.327430,-5.744630,-139.291044
15952,-4.131211,-0.742760,4.705051,2.042784,4.547583,-5.952347,0.353825,1.175265,-0.522699,-0.041054,-0.007404,0.047279,0.999978,0.001769,0.005876,-0.002613,0.349066,0.012301,-0.157809,-0.923633,17.533080,-5.016771,-139.368245
15953,0.480354,9.344665,9.464281,4.201382,-4.310215,2.056813,0.841557,2.195047,-1.573092,0.006577,0.093000,0.094969,0.999900,0.004208,0.010975,-0.007865,0.343510,0.025109,-0.157723,-0.925469,18.045992,-3.547895,-139.836348
15954,-21.473573,11.134618,36.622206,17.519833,15.528644,27.310223,-0.422310,1.732379,-1.651924,-0.210621,0.113873,0.367820,0.999926,-0.002112,0.008662,-0.008259,0.337324,0.033663,-0.152548,-0.928336,17.829919,-2.316265,-140.424725
15955,16.738508,-0.949176,1.278913,-13.719380,-9.587998,-8.212035,-1.076438,-0.117822,-0.715124,0.167342,-0.010021,0.012941,0.999979,-0.005382,-0.000589,-0.003576,0.334153,0.031809,-0.147600,-0.930346,17.225053,-2.261241,-140.828906
15956,-2.905071,-0.861560,6.312302,0.649588,4.057799,-4.143726,1.356623,2.085027,-0.340043,-0.028406,-0.008996,0.063361,0.999921,0.006783,0.010425,-0.001700,0.333933,0.043986,-0.150333,-0.929491,17.992793,-1.067618,-140.645959
15957,-3.762257,7.700437,13.105449,5.170770,-0.073116,4.967644,-0.698244,0.884333,-0.737034,-0.036758,0.077598,0.130948,0.999977,-0.003491,0.004422,-0.003685,0.331383,0.047447,-0.145420,-0.931014,17.591675,-0.460164,-140.886080
15958,-1.289917,0.223306,8.322449,-0.449119,2.620576,-1.818509,0.382543,1.171108,-0.559915,-0.012406,0.002109,0.083302,0.999977,0.001913,0.005855,-0.002800,0.329595,0.053905,-0.145097,-0.931348,17.806766,0.272845,-140.980518
15959,-0.901807,5.321489,10.696954,1.737231,-0.907272,2.007367,-0.054371,1.073093,-0.361245,-0.008348,0.053259,0.107001,0.999984,-0.000272,0.005365,-0.001806,0.328766,0.059038,-0.142949,-0.931661,17.771342,0.917487,-140.982595
15960,-0.268984,3.816799,9.380159,0.527032,-0.567157,0.288167,-0.014946,1.023853,-0.353542,-0.002142,0.038179,0.093811,0.999985,-0.000075,0.005119,-0.001768,0.327916,0.064001,-0.141064,-0.931921,17.758369,1.534242,-140.989334
15961,-2.461539,2.788468,9.867665,1.430925,1.615267,0.509510,-0.001260,1.072846,-0.310140,-0.024042,0.027923,0.098806,0.999984,-0.000006,0.005364,-0.001551,0.327288,0.069180,-0.139172,-0.932056,17.754218,2.169818,-140.963923
15962,-2.841070,3.863667,10.507237,2.131821,1.118288,1.483566,0.006315,0.963584,-0.213516,-0.027863,0.038663,0.105209,0.999988,0.000032,0.004818,-0.001068,0.327024,0.073797,-0.137523,-0.932039,17.756110,2.729285,-140.904828
15963,-2.943107,3.880973,10.530121,2.127129,1.118568,1.537665,0.133509,0.928044,-0.007900,-0.028940,0.038741,0.105462,0.999989,0.000668,0.004640,-0.000039,0.327638,0.078310,-0.136598,-0.931591,17.836967,3.232920,-140.739233
15964,-3.134163,4.666080,10.850556,2.580627,0.680051,2.112379,0.097410,0.745635,0.153121,-0.030972,0.046584,0.108644,0.999993,0.000487,0.003728,0.000766,0.328886,0.081806,-0.135864,-0.930958,17.901815,3.609104,-140.517051
15965,-0.905780,2.860613,9.324800,0.104948,0.283254,-0.021677,0.122262,0.676677,0.189346,-0.008769,0.028541,0.093295,0.999994,0.000611,0.003383,0.000947,0.330242,0.084993,-0.135373,-0.930264,17.982777,3.940483,-140.286749
15966,-1.786039,3.523678,10.846130,0.738491,0.623379,1.689940,0.136680,0.623228,0.140328,-0.017547,0.035150,0.108540,0.999995,0.000683,0.003116,0.000702,0.331322,0.087992,-0.135013,-0.929653,18.070803,4.251714,-140.092096
15967,-1.642296,3.291123,10.478071,0.534830,0.610309,1.262506,0.033359,0.439056,0.085390,-0.016207,0.032887,0.104822,0.999997,0.000167,0.002195,0.000427,0.332067,0.089995,-0.134455,-0.929276,18.095714,4.471593,-139.959977
15968,-1.037323,2.993681,9.815576,0.030716,0.297956,0.497203,0.080358,0.409541,0.083788,-0.010185,0.029893,0.098189,0.999998,0.000402,0.002048,0.000419,0.332761,0.091945,-0.134161,-0.928880,18.147628,4.676268,-139.833772
15969,-2.510630,3.434565,10.671690,1.157548,1.067222,1.567360,0.106171,0.325822,0.129975,-0.024955,0.034273,0.106776,0.999998,0.000531,0.001629,0.000650,0.333600,0.093513,-0.134148,-0.928424,18.215524,4.826311,-139.697163
15970,-1.896351,2.873504,9.945719,0.520223,0.949500,0.656232,0.114062,0.215084,0.181625,-0.018883,0.028661,0.099494,0.999999,0.000570,0.001075,0.000908,0.334600,0.094550,-0.134379,-0.927925,18.288992,4.907384,-139.552032
15971,-1.068928,2.729541,9.547379,-0.110196,0.451884,0.163737,0.190786,0.210657,0.228063,-0.010620,0.027192,0.095511,0.999998,0.000954,0.001053,0.001140,0.335776,0.095658,-0.134996,-0.927297,18.408680,4.976707,-139.382253
15972,-1.036556,2.927681,9.776338,-0.103017,0.337797,0.439032,0.246417,0.191279,0.236697,-0.010307,0.029144,0.097809,0.999998,0.001232,0.000956,0.001183,0.336950,0.096770,-0.135905,-0.926623,18.560584,5.034288,-139.211071
15973,-0.789935,2.563579,9.579318,-0.478351,0.422110,0.114659,0.245392,0.159986,0.218466,-0.007851,0.025510,0.095831,0.999998,0.001227,0.000800,0.001092,0.338018,0.097741,-0.136856,-0.925992,18.710645,5.077009,-139.055461
15974,-0.538926,2.684680,9.527075,-0.604573,0.174277,0.080095,0.281110,0.141248,0.170771,-0.005345,0.026708,0.095312,0.999998,0.001406,0.000706,0.000854,0.338834,0.098723,-0.137977,-0.925423,18.878690,5.118697,-138.929131
15975,-0.440718,2.673994,9.406199,-0.673194,0.107388,-0.047632,0.196674,0.124566,0.086154,-0.004360,0.026646,0.094091,0.999999,0.000983,0.000623,0.000431,0.339288,0.099538,-0.138696,-0.925062,18.994049,5.166010,-138.851885
15976,-0.466592,3.141162,9.233839,-0.344802,-0.242196,-0.057135,0.188380,0.120641,0.013090,-0.004612,0.031324,0.092371,0.999999,0.000942,0.000603,0.000065,0.339404,0.100376,-0.139344,-0.924831,19.101050,5.225437,-138.814986
15977,-0.785290,3.460055,9.027420,0.125107,-0.300700,-0.118520,0.138309,0.122791,-0.016015,-0.007795,0.034539,0.090303,1.000000,0.000692,0.000614,-0.000080,0.339412,0.101154,-0.139745,-0.924683,19.178020,5.290709,-138.793429
15978,-1.000292,3.711172,9.439609,0.303024,-0.262530,0.371557,0.136474,0.132637,-0.001710,-0.009940,0.037047,0.094428,1.000000,0.000682,0.000663,-0.000009,0.339494,0.101970,-0.140125,-0.924506,19.254854,5.359289,-138.762117
15979,-1.592889,4.305791,9.682768,1.021968,-0.259188,0.851342,0.057494,0.044381,0.015023,-0.015911,0.043029,0.096844,1.000000,0.000287,0.000222,0.000075,0.339632,0.102227,-0.140301,-0.924400,19.285760,5.376234,-138.738438
15980,-1.123603,3.917005,8.823640,0.679174,-0.447035,-0.127600,-0.024238,0.034342,0.012935,-0.011223,0.039180,0.088234,1.000000,-0.000121,0.000172,0.000065,0.339794,0.102305,-0.140113,-0.924360,19.269587,5.388867,-138.717759
15981,-0.921794,4.674066,9.040078,0.924198,-1.098693,0.304542,-0.130230,0.038426,-0.006101,-0.009199,0.046800,0.090372,1.000000,-0.000651,0.000192,-0.000031,0.339926,0.102230,-0.139420,-0.924425,19.191760,5.406594,-138.706698
15982,-1.375950,4.783522,9.300446,1.270338,-0.848397,0.624745,-0.294077,-0.022756,-0.025038,-0.013764,0.047974,0.092932,0.999999,-0.001470,-0.000114,-0.000125,0.340010,0.101613,-0.138063,-0.924666,19.018096,5.395498,-138.717440
15983,-0.773650,4.293033,8.638354,0.740550,-1.036334,-0.219605,-0.488212,-0.065120,-0.051361,-0.007754,0.043143,0.086276,0.999997,-0.002441,-0.000326,-0.000257,0.340042,0.100481,-0.135868,-0.925103,18.731029,5.365545,-138.750414
15984,-0.076857,3.283735,8.609746,-0.347779,-0.796152,-0.638727,-0.527173,0.008811,-0.089269,-0.000750,0.033064,0.086011,0.999996,-0.002636,0.000044,-0.000446,0.339965,0.099657,-0.133346,-0.925587,18.421171,5.383224,-138.790272
15985,-0.054403,2.489159,9.033516,-0.929372,-0.196764,-0.490640,-0.612955,0.065610,-0.161248,-0.000494,0.025169,0.090258,0.999995,-0.003065,0.000328,-0.000806,0.339633,0.098990,-0.130294,-0.926215,18.059198,5.443755,-138.859427
15986,-0.468440,1.255845,9.220902,-1.384560,0.962203,-0.648710,-0.621781,0.110540,-0.263496,-0.004617,0.012851,0.092172,0.999994,-0.003109,0.000553,-0.001317,0.338857,0.098588,-0.127072,-0.926989,17.687604,5.547003,-138.976977
15987,-0.586334,0.334786,9.536391,-1.911068,1.720585,-0.604769,-0.545350,0.138465,-0.385806,-0.005791,0.003619,0.095358,0.999994,-0.002727,0.000692,-0.001929,0.337490,0.098516,-0.124097,-0.927898,17.353217,5.685204,-139.157572
15988,-0.591944,-0.140825,10.222706,-2.355923,2.144085,-0.079943,-0.397195,0.122089,-0.539191,-0.005860,-0.001189,0.102233,0.999994,-0.001986,0.000610,-0.002696,0.335325,0.098717,-0.121757,-0.928971,17.094469,5.840185,-139.426052
15989,-0.500550,-0.189389,10.069982,-2.398829,2.062911,-0.237673,-0.256959,0.092955,-0.696095,-0.004965,-0.001747,0.100704,0.999993,-0.001285,0.000465,-0.003480,0.332340,0.099107,-0.120041,-0.930225,16.905793,6.003792,-139.786590
15990,-0.665509,0.053984,9.812178,-2.054228,1.922329,-0.388812,-0.103336,0.107067,-0.845120,-0.006600,0.000619,0.098125,0.999991,-0.000517,0.000535,-0.004226,0.328588,0.099910,-0.118936,-0.931613,16.795305,6.199570,-140.227525
15991,-1.004885,1.470183,9.706199,-0.939195,1.031469,-0.043580,0.017882,0.092703,-0.953712,-0.009934,0.014741,0.097068,0.999989,0.000089,0.000464,-0.004769,0.324256,0.100903,-0.118367,-0.933095,16.746012,6.404192,-140.731203
15992,-0.839475,2.929694,9.081238,-0.072304,-0.306483,-0.238899,0.024911,0.119083,-0.989212,-0.008196,0.029326,0.090821,0.999988,0.000125,0.000595,-0.004946,0.319761,0.102053,-0.117762,-0.934596,16.696793,6.629307,-141.250564
15993,-0.932253,4.713862,8.663676,1.099716,-1.718426,-0.118038,0.025628,0.182710,-0.916512,-0.009027,0.047169,0.086651,0.999989,0.000128,0.000914,-0.004583,0.315637,0.103453,-0.117098,-0.935927,16.652076,6.876374,-141.719580
15994,-1.211845,5.521183,8.553321,1.762709,-2.231245,0.037460,-0.023520,0.254278,-0.728386,-0.011808,0.055265,0.085542,0.999993,-0.000118,0.001271,-0.003642,0.312454,0.105002,-0.116183,-0.936936,16.590986,7.132044,-142.073243
15995,-1.648462,5.396467,8.660042,1.966971,-1.894425,0.156141,-0.029265,0.326788,-0.462399,-0.016218,0.054015,0.086619,0.999996,-0.000146,0.001634,-0.002312,0.310560,0.106722,-0.115269,-0.937484,16.545351,7.383175,-142.268099
15996,-1.779503,4.811725,8.716634,1.694766,-1.386351,0.061757,-0.046012,0.383283,-0.245359,-0.017569,0.048159,0.087189,0.999997,-0.000230,0.001916,-0.001227,0.309722,0.108560,-0.114302,-0.937668,16.506093,7.630407,-142.333711
15997,-1.496355,3.923031,8.742461,0.943080,-0.894213,-0.201720,-0.138503,0.437281,-0.139344,-0.014745,0.039301,0.087430,0.999997,-0.000693,0.002186,-0.000697,0.309461,0.110442,-0.112877,-0.937707,16.422717,7.889438,-142.331995
15998,-1.531991,2.408485,9.530983,-0.116664,0.388175,0.128285,-0.122553,0.472049,-0.114521,-0.015081,0.024152,0.095331,0.999997,-0.000613,0.002360,-0.000573,0.309325,0.112502,-0.111484,-0.937674,16.351191,8.164175,-142.311134
15999,-1.647091,1.663067,10.125027,-0.635612,1.086108,0.502885,-0.119755,0.419941,-0.181592,-0.016243,0.016706,0.101275,0.999997,-0.000599,0.002100,-0.000908,0.308843,0.114353,-0.110148,-0.937767,16.274680,8.420474,-142.336405
16000,-1.295524,0.894492,9.846831,-1.284155,1.402696,-0.023825,-0.093519,0.371839,-0.314890,-0.012758,0.009011,0.098488,0.999997,-0.000468,0.001859,-0.001574,0.307692,0.116098,-0.108931,-0.938073,16.200844,8.672245,-142.443953
16001,-1.376954,1.698165,9.791656,-0.785989,0.778251,0.158907,-0.057022,0.338733,-0.453205,-0.013565,0.017040,0.097935,0.999996,-0.000285,0.001694,-0.002266,0.305851,0.117813,-0.107857,-0.938585,16.134806,8.927126,-142.634272
16002,-1.081497,2.134664,9.232710,-0.644050,0.149703,-0.297857,-0.062374,0.323412,-0.551469,-0.010607,0.021405,0.092338,0.999995,-0.000312,0.001617,-0.002757,0.303541,0.119504,-0.106719,-0.939251,16.055655,9.189538,-142.882306
16003,-0.995230,2.989380,8.948407,-0.193416,-0.653058,-0.350302,-0.082677,0.372508,-0.580752,-0.009699,0.029959,0.089490,0.999994,-0.000413,0.001863,-0.002904,0.301129,0.121405,-0.105396,-0.939933,15.962325,9.482652,-143.139405
16004,-2.106473,3.404880,9.530992,0.705340,-0.299541,0.496663,-0.114138,0.398368,-0.558717,-0.020780,0.034162,0.095332,0.999994,-0.000571,0.001992,-0.002794,0.298849,0.123371,-0.103896,-0.940571,15.852151,9.786666,-143.380836
16005,-2.430342,3.226755,9.400445,0.874372,-0.032755,0.381479,-0.138924,0.361807,-0.507411,-0.024051,0.032394,0.094026,0.999995,-0.000695,0.001809,-0.002537,0.296804,0.125096,-0.102366,-0.941159,15.730503,10.061478,-143.600156
16006,-1.610706,3.010644,8.817598,0.256002,-0.454723,-0.371509,-0.164570,0.377382,-0.487477,-0.015867,0.030218,0.088181,0.999995,-0.000823,0.001887,-0.002437,0.294873,0.126849,-0.100702,-0.941710,15.595296,10.341906,-143.806670
16007,-1.599405,2.965349,9.108049,0.109062,-0.439526,-0.112039,-0.182974,0.427049,-0.485693,-0.015727,0.029775,0.091087,0.999994,-0.000915,0.002135,-0.002428,0.292985,0.128803,-0.098880,-0.942227,15.450022,10.648390,-144.005324
16008,-2.573757,2.560886,9.859478,0.416302,0.482325,0.674707,-0.159650,0.406697,-0.476335,-0.025476,0.025748,0.098626,0.999995,-0.000798,0.002033,-0.002382,0.291112,0.130693,-0.097202,-0.942722,15.317245,10.942314,-144.202811
16009,-2.284919,1.942351,9.668544,-0.104139,0.748196,0.282037,-0.176208,0.356172,-0.488450,-0.022629,0.019564,0.096709,0.999995,-0.000881,0.001781,-0.002442,0.289167,0.132321,-0.095511,-0.943266,15.171118,11.209080,-144.415798
16010,-1.513088,0.942188,10.423831,-1.493499,1.155792,0.592447,-0.124790,0.374272,-0.532599,-0.014911,0.009527,0.104260,0.999995,-0.000624,0.001871,-0.002663,0.286984,0.134133,-0.094005,-0.943828,15.048830,11.492568,-144.651779
16011,-2.466525,3.409820,12.162514,-0.024952,-0.182947,3.055997,0.073045,0.303398,-0.455464,-0.024403,0.034110,0.121675,0.999996,0.000365,0.001517,-0.002277,0.284997,0.135852,-0.093587,-0.944226,15.045441,11.724506,-144.855480
16012,-0.659731,5.352014,9.037763,0.466003,-3.137055,0.222354,-0.201095,0.172992,-0.286233,-0.006442,0.053620,0.090329,0.999998,-0.001005,0.000865,-0.001431,0.283932,0.136489,-0.092172,-0.944594,14.899628,11.859535,-144.983682
16013,0.034274,6.509048,7.531176,0.953926,-4.655668,-1.066137,-0.146661,0.435278,-0.051502,0.000523,0.065146,0.075263,0.999997,-0.000733,0.002176,-0.000258,0.284059,0.138330,-0.090805,-0.944421,14.820430,12.104496,-144.939930
16014,-0.908841,6.600855,8.133335,1.553315,-4.186586,-0.293872,-0.406976,0.584889,0.084552,-0.008879,0.066170,0.081225,0.999994,-0.002035,0.002924,0.000423,0.285073,0.140448,-0.088088,-0.944059,14.613359,12.413145,-144.797262
16015,-0.597088,4.991118,9.259648,0.108627,-3.005948,0.284875,-0.511912,0.747540,0.096391,-0.005649,0.050145,0.092490,0.999990,-0.002560,0.003738,0.000482,0.286284,0.143173,-0.084652,-0.943598,14.353387,12.810418,-144.625131
16016,-0.566446,5.021706,11.283126,-0.570377,-2.988485,2.170201,-0.648604,0.906867,0.044655,-0.005165,0.050581,0.112692,0.999984,-0.003243,0.004534,0.000223,0.287409,0.146476,-0.080305,-0.943129,14.014811,13.304718,-144.461226
16017,0.086411,5.432813,12.345934,-1.248317,-3.763435,3.079979,-0.834629,1.000787,-0.081141,0.001503,0.054842,0.123225,0.999979,-0.004173,0.005004,-0.000406,0.288104,0.149995,-0.074849,-0.942812,13.556255,13.869164,-144.359465
16018,0.520510,6.882665,13.568721,-1.270034,-5.314917,4.396003,-0.934542,1.066382,-0.290940,0.006028,0.069451,0.135333,0.999974,-0.004673,0.005332,-0.001455,0.287896,0.153754,-0.068670,-0.942741,13.013358,14.498870,-144.374094
16019,2.795008,7.593838,14.597234,-3.068292,-7.346941,4.855673,-0.949968,1.014327,-0.434109,0.028854,0.076568,0.145465,0.999974,-0.004750,0.005072,-0.002171,0.286992,0.157284,-0.062377,-0.942871,12.436494,15.117163,-144.484883
16020,5.929564,7.693365,13.848637,-5.277439,-9.384052,3.234049,-0.653887,0.876477,-0.444402,0.060072,0.077252,0.137972,0.999983,-0.003269,0.004382,-0.002222,0.285752,0.160586,-0.057672,-0.942991,12.021147,15.658449,-144.624552
16021,9.897323,11.597231,13.643334,-6.358419,-14.955583,2.616768,-0.319841,0.761972,-0.433399,0.099743,0.115974,0.135869,0.999989,-0.001599,0.003810,-0.002167,0.284254,0.163816,-0.054707,-0.943065,11.792243,16.133590,-144.775693
16022,11.041041,8.395860,13.091880,-8.778827,-13.009574,1.025863,-0.332253,0.569729,-0.174472,0.110856,0.084079,0.130464,0.999994,-0.001661,0.002849,-0.000872,0.283932,0.166046,-0.052179,-0.942915,11.591682,16.469417,-144.800421
16023,13.953042,8.950968,12.664153,-10.643521,-15.127503,-0.165826,0.042334,0.252080,0.028680,0.139677,0.089503,0.126484,0.999999,0.000212,0.001260,0.000143,0.284170,0.167259,-0.052025,-0.942638,11.627339,16.604349,-144.745428
16024,14.400618,6.976974,12.223462,-11.862932,-13.740663,-1.098677,0.139455,-0.004697,0.177350,0.143941,0.069812,0.122287,0.999999,0.000697,-0.000023,0.000887,0.284964,0.167350,-0.052835,-0.942336,11.736239,16.576062,-144.633678
16025,13.082079,6.216646,12.693275,-11.368961,-12.357278,-0.381335,0.327400,-0.355373,0.296731,0.130503,0.062152,0.127267,0.999996,0.001637,-0.001777,0.001484,0.286065,0.166035,-0.055113,-0.942105,11.958607,16.338611,-144.495900
16026,11.805411,5.451321,12.322992,-10.601911,-10.964754,-0.415215,0.369120,-0.722444,0.395250,0.117500,0.054518,0.123756,0.999990,0.001846,-0.003612,0.001976,0.287496,0.163003,-0.058214,-0.942012,12.208704,15.880263,-144.347107
16027,11.097411,4.907126,11.603256,-10.026489,-10.062096,-0.863456,0.400319,-0.980498,0.478927,0.110286,0.049103,0.116673,0.999983,0.002002,-0.004902,0.002395,0.289207,0.158789,-0.061879,-0.941975,12.477162,15.269472,-144.185692
16028,9.768976,4.765386,11.650549,-8.998565,-9.113069,-0.333696,0.442338,-1.135970,0.597442,0.096883,0.047685,0.117163,0.999977,0.002212,-0.005680,0.002987,0.291390,0.153836,-0.066084,-0.941838,12.781287,14.552365,-143.978890
16029,8.315491,4.541567,11.421832,-7.804431,-8.016431,-0.063076,0.466034,-1.296159,0.797173,0.082231,0.045478,0.114859,0.999968,0.002330,-0.006481,0.003986,0.294419,0.148114,-0.070758,-0.941474,13.116149,13.722843,-143.683753
16030,8.035203,4.051270,10.053118,-7.295039,-7.426982,-1.230095,0.504531,-1.321088,1.004383,0.079481,0.040659,0.101161,0.999962,0.002523,-0.006605,0.005022,0.298373,0.142216,-0.075826,-0.940744,13.495778,12.845818,-143.279078
16031,7.223884,3.762288,9.737148,-6.605680,-6.662588,-1.261475,0.499774,-1.164014,1.160724,0.071451,0.037795,0.097883,0.999963,0.002499,-0.005820,0.005804,0.303096,0.137011,-0.080715,-0.939599,13.887253,12.036910,-142.771438
16032,4.980216,3.505714,10.824744,-5.221293,-4.973694,0.299960,0.478080,-1.056652,1.250896,0.049010,0.035106,0.108592,0.999964,0.002390,-0.005283,0.006254,0.308286,0.132195,-0.085426,-0.938183,14.273374,11.266629,-142.203924
16033,2.932696,3.151987,11.928239,-4.047475,-3.270106,1.751917,0.387818,-1.169455,1.280026,0.028427,0.031472,0.119511,0.999961,0.001939,-0.005847,0.006400,0.313592,0.126724,-0.089869,-0.936763,14.596857,10.431294,-141.643304
16034,1.200841,2.138570,12.960782,-3.461038,-1.184216,2.860614,0.411724,-1.370193,1.264267,0.010986,0.021190,0.129729,0.999954,0.002059,-0.006851,0.006321,0.318700,0.120307,-0.094752,-0.935403,14.919489,9.478433,-141.127238
16035,-1.430627,3.095061,13.616733,-0.933930,-0.034290,4.193064,0.548679,-1.727597,1.291921,-0.015680,0.030479,0.136120,0.999938,0.002743,-0.008638,0.006459,0.323643,0.112450,-0.100821,-0.934048,15.302292,8.326153,-140.657662
16036,-1.062745,2.329027,11.539136,-0.920330,0.306976,1.966885,0.302215,-2.005554,1.255859,-0.011929,0.023044,0.115311,0.999929,0.001511,-0.010028,0.006279,0.328381,0.102859,-0.106184,-0.932905,15.526163,7.017751,-140.258179
16037,-1.860875,2.035772,10.554969,-0.066698,1.106426,1.040008,0.441000,-1.977871,1.188105,-0.019771,0.020010,0.105402,0.999931,0.002205,-0.009889,0.005940,0.332691,0.093686,-0.112070,-0.931655,15.814470,5.738997,-139.899313
16038,-3.838809,3.138480,10.744325,2.199999,1.779911,1.676994,0.430411,-1.974559,1.177035,-0.039630,0.030923,0.107123,0.999932,0.002152,-0.009873,0.005885,0.336918,0.084464,-0.117909,-0.930296,16.089123,4.456444,-139.552910
16039,-3.932341,3.002188,9.536428,2.615505,1.952990,0.422537,0.375756,-1.945171,1.208541,-0.040428,0.029601,0.095031,0.999933,0.001879,-0.009726,0.006043,0.341278,0.075296,-0.123412,-0.928778,16.324307,3.189130,-139.190974
16040,-4.516022,2.318663,8.951033,2.883037,2.920293,-0.376182,0.422821,-1.755254,1.230276,-0.046084,0.022716,0.089157,0.999940,0.002114,-0.008776,0.006151,0.345802,0.067029,-0.128830,-0.927001,16.581886,2.015673,-138.791931
16041,-5.793172,1.845563,9.316613,3.556235,4.357244,-0.214275,0.523825,-1.635570,1.219623,-0.058801,0.017856,0.092735,0.999945,0.002619,-0.008178,0.006098,0.350272,0.059529,-0.134463,-0.925033,16.888172,0.913130,-138.385208
16042,-5.916568,1.369699,9.040287,3.473526,4.900932,-0.728615,0.499891,-1.570990,1.137725,-0.059949,0.013132,0.089967,0.999950,0.002499,-0.007855,0.005689,0.354383,0.052298,-0.139859,-0.923102,17.174128,-0.147501,-138.018205
16043,-6.033511,0.230262,8.179900,3.054473,5.743461,-1.999401,0.418056,-1.416875,0.940593,-0.060922,0.001847,0.081373,0.999962,0.002090,-0.007084,0.004703,0.357675,0.045803,-0.144514,-0.921459,17.406392,-1.086774,-137.737705
16044,-6.421188,-0.414022,8.255016,2.953775,6.582892,-2.230634,0.303871,-1.161284,0.653438,-0.064675,-0.004476,0.082169,0.999977,0.001519,-0.005806,0.003267,0.359839,0.040452,-0.148136,-0.920291,17.573213,-1.842637,-137.573263
16045,-8.351862,-1.729194,9.172578,3.393817,9.112078,-1.917736,0.352533,-1.006928,0.419453,-0.083942,-0.017629,0.091273,0.999984,0.001763,-0.005035,0.002097,0.361010,0.036105,-0.151626,-0.919444,17.768655,-2.469315,-137.512184
16046,-8.290107,-1.220654,8.753199,3.796676,8.684558,-2.263068,0.290124,-0.977683,0.173360,-0.083317,-0.012405,0.087107,0.999987,0.001451,-0.004888,0.000867,0.361078,0.031933,-0.154748,-0.919052,17.934925,-3.041255,-137.582240
16047,-8.041652,-2.213163,8.836696,3.005321,9.274630,-2.559970,0.168274,-0.800970,-0.091634,-0.080780,-0.022169,0.088025,0.999992,0.000841,-0.004005,-0.000458,0.360070,0.028590,-0.156924,-0.919188,18.037578,-3.465598,-137.767033
16048,-9.879026,-1.656289,9.089145,4.749692,10.224392,-2.339258,0.286766,-0.813721,-0.226313,-0.099178,-0.016581,0.090465,0.999990,0.001434,-0.004069,-0.001132,0.358415,0.025478,-0.159663,-0.919455,18.215054,-3.876118,-138.028704
16049,-8.443288,-0.247361,7.598274,4.913321,7.895609,-3.285664,0.000235,-0.733594,-0.397396,-0.084716,-0.002306,0.075672,0.999991,0.000001,-0.003668,-0.001987,0.356062,0.022385,-0.160900,-0.920233,18.235009,-4.208232,-138.370142
16050,-6.991151,-1.062803,6.287794,3.576534,7.119995,-4.708204,-0.215421,-0.448014,-0.605501,-0.070084,-0.010348,0.062732,0.999992,-0.001077,-0.002240,-0.003027,0.353004,0.020366,-0.160623,-0.921506,18.137936,-4.350981,-138.773856
16051,-7.446980,-1.170179,6.974606,3.805689,7.659699,-4.127852,-0.116463,-0.148726,-0.705843,-0.074562,-0.011398,0.069697,0.999993,-0.000582,-0.000744,-0.003529,0.349705,0.020004,-0.160248,-0.922836,18.097532,-4.310285,-139.178735
16052,-9.647924,-0.190288,9.825986,5.710016,9.181860,-1.282875,0.254816,-0.083382,-0.611441,-0.096526,-0.001733,0.098217,0.999994,0.001274,-0.000417,-0.003057,0.346856,0.020498,-0.161490,-0.923684,18.265097,-4.253027,-139.520321
16053,-9.443031,2.159895,9.565727,7.122265,7.299501,-0.794402,0.226430,-0.456081,-0.503455,-0.094594,0.021729,0.095466,0.999994,0.001132,-0.002280,-0.002517,0.344200,0.019153,-0.163246,-0.924397,18.417025,-4.414403,-139.870228
16054,-5.879772,-0.102460,6.927652,3.408858,5.845674,-3.747848,0.105007,-0.233043,-0.527038,-0.058881,-0.000906,0.069207,0.999996,0.000525,-0.001165,-0.002635,0.341628,0.018634,-0.164061,-0.925217,18.498073,-4.451505,-140.192810
16055,-9.280288,1.911391,9.816427,6.873457,7.405360,-0.644504,0.218070,-0.083287,-0.523684,-0.092793,0.019250,0.098147,0.999996,0.001090,-0.000416,-0.002618,0.339179,0.019013,-0.165135,-0.925919,18.641424,-4.405321,-140.486200
16056,-7.257236,1.405874,8.632395,5.201397,6.115107,-1.768248,0.027942,-0.197975,-0.521252,-0.072621,0.014236,0.086254,0.999996,0.000140,-0.000990,-0.002606,0.336663,0.018525,-0.165526,-0.926777,18.677381,-4.422796,-140.799297
16057,-6.427330,1.115986,8.371461,4.438401,5.700539,-2.038259,0.115905,0.054995,-0.549139,-0.064219,0.011288,0.083739,0.999996,0.000580,0.000275,-0.002746,0.334216,0.019392,-0.165891,-0.927580,18.760946,-4.296130,-141.080891
16058,-7.592461,2.388798,9.352928,5.980764,5.775044,-0.773424,0.144918,0.118376,-0.520975,-0.075807,0.024018,0.093592,0.999996,0.000725,0.000592,-0.002605,0.331947,0.020570,-0.166289,-0.928297,18.858446,-4.140793,-141.335196
16059,-5.818563,2.435660,8.350212,4.774196,4.306275,-1.555748,-0.050038,0.171793,-0.506129,-0.058052,0.024525,0.083546,0.999996,-0.000250,0.000859,-0.002531,0.329808,0.021668,-0.165691,-0.929141,18.842203,-3.958115,-141.571330
16060,-5.074242,1.912641,7.680624,3.967239,3.988813,-2.279544,-0.040196,0.397953,-0.547116,-0.050537,0.019280,0.076903,0.999994,-0.000201,0.001990,-0.002736,0.327663,0.023862,-0.164760,-0.930012,18.829253,-3.645760,-141.787802
16061,-5.821599,3.051026,8.092764,5.145917,3.692802,-1.531697,0.100032,0.607181,-0.575949,-0.057882,0.030637,0.081119,0.999991,0.000500,0.003036,-0.002880,0.325534,0.027287,-0.164133,-0.930776,18.893870,-3.214040,-141.980867
16062,-6.047227,3.615297,7.002773,5.789570,3.044765,-2.336889,-0.006282,0.753302,-0.753341,-0.060071,0.036382,0.070253,0.999986,-0.000031,0.003766,-0.003767,0.322707,0.031362,-0.162744,-0.931875,18.899424,-2.670189,-142.242719
16063,-6.135635,4.043950,4.160190,6.533344,1.895963,-4.810111,-0.053123,1.219270,-1.168886,-0.060863,0.040807,0.041963,0.999964,-0.000266,0.006096,-0.005844,0.318314,0.037870,-0.160313,-0.933564,18.880354,-1.796570,-142.643416
16064,-6.011659,8.898029,12.307162,7.698385,0.232988,4.590276,-0.355184,2.182215,-1.586599,-0.058061,0.089665,0.123554,0.999907,-0.001776,0.010911,-0.007933,0.312760,0.048725,-0.154839,-0.935859,18.681004,-0.324026,-143.094488
16065,-12.797499,5.070868,20.902216,9.112919,9.081635,11.654788,-0.630624,1.446469,-1.052010,-0.126188,0.052036,0.209776,0.999955,-0.003153,0.007232,-0.005260,0.309162,0.055284,-0.149336,-0.937583,18.314570,0.649034,-143.396045
16066,5.368722,5.554751,9.529952,-3.061435,-5.171731,0.882039,-0.868095,0.915767,-0.271737,0.054198,0.055886,0.094810,0.999979,-0.004340,0.004579,-0.001359,0.308871,0.058409,-0.143745,-0.938363,17.813427,1.192946,-143.374172
16067,0.414004,3.216959,7.253296,-0.000127,-1.054194,-1.937515,-0.014205,1.519311,0.258429,0.004649,0.032181,0.072497,0.999970,-0.000071,0.007596,0.001292,0.311236,0.065292,-0.141377,-0.937487,17.812491,1.972384,-142.959587
16068,-1.182792,6.343479,9.670205,2.465531,-2.026484,1.366090,-0.477693,1.376284,0.486318,-0.011317,0.063638,0.096629,0.999971,-0.002388,0.006881,0.002432,0.314701,0.070626,-0.137126,-0.936574,17.555394,2.635689,-142.446929
