PacketCounter,Acc_X,Acc_Y,Acc_Z,FreeAcc_E,FreeAcc_N,FreeAcc_U,Gyr_X,Gyr_Y,Gyr_Z,VelInc_X,VelInc_Y,VelInc_Z,OriInc_q0,OriInc_q1,OriInc_q2,OriInc_q3,Quat_q0,Quat_q1,Quat_q2,Quat_q3,Roll,Pitch,Yaw
60626,-4.561403,1.011028,8.735723,-0.039964,-0.014970,0.093856,-0.015487,0.007511,-0.015843,-0.045610,0.010121,0.087358,1.000000,-0.000077,0.000038,-0.000079,-0.171961,0.226099,-0.092630,-0.954321,6.416893,27.606749,161.148851
60627,-4.533293,0.979565,8.746258,-0.057415,0.022419,0.086985,-0.021848,0.005690,-0.020394,-0.045329,0.009810,0.087463,1.000000,-0.000109,0.000028,-0.000102,-0.171995,0.226142,-0.092483,-0.954319,6.396735,27.609070,161.140005
60628,-4.528218,0.948520,8.765101,-0.059110,0.054575,0.098163,-0.022117,0.009632,-0.019083,-0.045277,0.009499,0.087652,1.000000,-0.000111,0.000048,-0.000095,-0.172020,0.226195,-0.092337,-0.954316,6.376895,27.612618,161.132325
60629,-4.593338,0.931862,8.732569,0.013137,0.040627,0.098067,-0.017165,0.007735,-0.017011,-0.045929,0.009330,0.087327,1.000000,-0.000086,0.000039,-0.000085,-0.172043,0.226242,-0.092218,-0.954312,6.360495,27.615883,161.125798
60630,-4.542224,0.900389,8.734690,-0.019794,0.083125,0.073162,-0.006076,0.005163,-0.013305,-0.045419,0.009010,0.087348,1.000000,-0.000030,0.000026,-0.000067,-0.172061,0.226257,-0.092151,-0.954312,6.351415,27.616522,161.121506
60631,-4.546654,0.951671,8.719189,-0.029563,0.029489,0.066597,-0.002119,0.006154,-0.014451,-0.045463,0.009521,0.087193,1.000000,-0.000011,0.000031,-0.000072,-0.172088,0.226282,-0.092105,-0.954305,6.344344,27.618723,161.116509
60632,-4.564171,0.923134,8.746321,-0.015655,0.056478,0.095821,-0.006295,0.002670,-0.016219,-0.045640,0.009238,0.087464,1.000000,-0.000031,0.000013,-0.000081,-0.172121,0.226288,-0.092032,-0.954305,6.334181,27.618128,161.110157
60633,-4.545352,0.973962,8.722636,-0.041031,0.008007,0.071212,0.003822,0.001366,-0.009167,-0.045452,0.009740,0.087227,1.000000,0.000019,0.000007,-0.000046,-0.172133,0.226282,-0.092016,-0.954306,6.331931,27.617268,161.108214
60634,-4.518896,0.920936,8.729429,-0.046203,0.065992,0.059748,0.005123,0.003841,-0.008140,-0.045187,0.009209,0.087295,1.000000,0.000026,0.000019,-0.000041,-0.172139,0.226280,-0.092008,-0.954306,6.330755,27.616834,161.107138
60635,-4.560767,0.970583,8.753316,-0.039008,0.013950,0.105047,0.005399,-0.000098,-0.009448,-0.045607,0.009706,0.087533,1.000000,0.000027,-0.000000,-0.000047,-0.172155,0.226266,-0.091998,-0.954307,6.329275,27.615157,161.104910
60636,-4.543927,0.998034,8.725953,-0.052069,-0.013921,0.075826,0.002744,0.001386,-0.007276,-0.045438,0.009981,0.087260,1.000000,0.000014,0.000007,-0.000036,-0.172156,0.226253,-0.091977,-0.954312,6.326910,27.613273,161.104216
60637,-4.552885,0.966298,8.775875,-0.052604,0.025053,0.120845,0.002050,-0.001286,-0.005237,-0.045529,0.009663,0.087759,1.000000,0.000010,-0.000006,-0.000026,-0.172148,0.226235,-0.091955,-0.954320,6.324726,27.610654,161.104610
60638,-4.537881,0.969495,8.745001,-0.053513,0.017849,0.087017,-0.000936,-0.003544,-0.007438,-0.045380,0.009697,0.087449,1.000000,-0.000005,-0.000018,-0.000037,-0.172148,0.226202,-0.091912,-0.954332,6.320046,27.605976,161.103449
60639,-4.533790,0.917253,8.760413,-0.043234,0.070728,0.093602,0.006998,-0.003184,-0.003169,-0.045339,0.009170,0.087604,1.000000,0.000035,-0.000016,-0.000016,-0.172136,0.226169,-0.091914,-0.954342,6.321251,27.602145,161.105037
60640,-4.543831,0.897703,8.734131,-0.016376,0.079034,0.073201,0.004816,-0.001522,-0.005951,-0.045439,0.008976,0.087341,1.000000,0.000024,-0.000008,-0.000030,-0.172135,0.226140,-0.091903,-0.954350,6.320372,27.598527,161.104986
60641,-4.533585,0.918413,8.760397,-0.042549,0.069904,0.093610,0.019474,-0.000406,-0.003541,-0.045336,0.009176,0.087605,1.000000,0.000097,-0.000002,-0.000018,-0.172138,0.226110,-0.091966,-0.954350,6.328706,27.596302,161.106532
60642,-4.516559,0.947386,8.732962,-0.055610,0.042033,0.064388,0.018286,-0.001633,-0.003108,-0.045166,0.009467,0.087330,1.000000,0.000091,-0.000008,-0.000016,-0.172138,0.226068,-0.092022,-0.954355,6.336380,27.592445,161.108291
60643,-4.514387,0.972929,8.736498,-0.067480,0.020977,0.068997,0.019478,-0.000404,-0.003539,-0.045144,0.009722,0.087366,1.000000,0.000097,-0.000002,-0.000018,-0.172141,0.226038,-0.092085,-0.954356,6.344716,27.590220,161.109838
60644,-4.545449,0.979078,8.722012,-0.037137,0.003457,0.071230,0.013339,0.000265,-0.005175,-0.045454,0.009786,0.087221,1.000000,0.000067,0.000001,-0.000026,-0.172145,0.226010,-0.092116,-0.954359,6.349002,27.587573,161.110395
60645,-4.506527,0.970916,8.758797,-0.081086,0.032062,0.084806,0.012953,0.002958,-0.005325,-0.045064,0.009705,0.087589,1.000000,0.000065,0.000015,-0.000027,-0.172148,0.226003,-0.092150,-0.954357,6.353180,27.587376,161.111035
60646,-4.523094,0.980410,8.713149,-0.052074,0.007794,0.053203,0.018709,0.004983,-0.003837,-0.045229,0.009797,0.087134,1.000000,0.000094,0.000025,-0.000019,-0.172148,0.225992,-0.092212,-0.954353,6.361096,27.587333,161.112817
60647,-4.546250,0.982309,8.721232,-0.036168,0.002253,0.071234,0.012152,-0.000961,-0.004740,-0.045463,0.009819,0.087213,1.000000,0.000061,-0.000005,-0.000024,-0.172149,0.225966,-0.092239,-0.954356,6.364858,27.584867,161.113551
60648,-4.513258,1.002219,8.739057,-0.077813,-0.001801,0.073616,0.010188,0.003195,-0.004610,-0.045131,0.010019,0.087392,1.000000,0.000051,0.000016,-0.000023,-0.172145,0.225954,-0.092258,-0.954358,6.367608,27.583857,161.114664
60649,-4.519623,1.030696,8.719816,-0.075370,-0.034772,0.062414,0.003442,0.004056,-0.009314,-0.045194,0.010308,0.087199,1.000000,0.000017,0.000020,-0.000047,-0.172156,0.225962,-0.092243,-0.954356,6.365186,27.584539,161.112819
60650,-4.520080,1.030471,8.719606,-0.074948,-0.035215,0.062416,0.000674,0.004292,-0.008601,-0.045198,0.010306,0.087197,1.000000,0.000003,0.000021,-0.000043,-0.172160,0.225966,-0.092213,-0.954357,6.361338,27.584409,161.111467
60651,-4.514488,1.001666,8.738485,-0.076842,-0.003014,0.073624,-0.003999,0.002246,-0.011977,-0.045143,0.010021,0.087385,1.000000,-0.000020,0.000011,-0.000060,-0.172176,0.225973,-0.092157,-0.954358,6.353800,27.584228,161.107782
60652,-4.527066,0.956922,8.708463,-0.037873,0.026011,0.048613,-0.003393,0.002051,-0.008912,-0.045269,0.009573,0.087085,1.000000,-0.000017,0.000010,-0.000045,-0.172177,0.225969,-0.092106,-0.954363,6.347455,27.582847,161.106139
60653,-4.511285,0.947914,8.753659,-0.066201,0.049427,0.080237,-0.002698,0.004723,-0.010951,-0.045110,0.009483,0.087538,1.000000,-0.000013,0.000024,-0.000055,-0.172188,0.225986,-0.092060,-0.954362,6.341049,27.584011,161.103290
60654,-4.499097,0.926590,8.718806,-0.055004,0.062931,0.041806,-0.001507,0.005952,-0.011382,-0.044988,0.009269,0.087189,1.000000,-0.000008,0.000030,-0.000057,-0.172201,0.226001,-0.092018,-0.954360,6.335183,27.585005,161.100277
60655,-4.520571,0.950727,8.730523,-0.051214,0.036706,0.064433,-0.001506,0.005953,-0.011382,-0.045203,0.009510,0.087307,1.000000,-0.000008,0.000030,-0.000057,-0.172216,0.226023,-0.091978,-0.954356,6.329373,27.586897,161.097239
60656,-4.550036,0.979371,8.719588,-0.032973,-0.001471,0.071245,0.006213,0.003826,-0.010022,-0.045498,0.009793,0.087197,1.000000,0.000031,0.000019,-0.000050,-0.172233,0.226021,-0.091973,-0.954354,6.328264,27.586596,161.094928
60657,-4.544613,0.951149,8.738303,-0.034884,0.030730,0.082461,0.005223,0.006715,-0.013236,-0.045443,0.009512,0.087385,1.000000,0.000026,0.000034,-0.000066,-0.172263,0.226041,-0.091964,-0.954345,6.325782,27.589038,161.090752
60658,-4.545229,0.950819,8.738018,-0.034468,0.030290,0.082464,0.001157,0.004472,-0.013548,-0.045450,0.009511,0.087381,1.000000,0.000006,0.000022,-0.000068,-0.172291,0.226048,-0.091931,-0.954341,6.320745,27.589328,161.086207
60659,-4.560693,0.947174,8.768707,-0.032853,0.036642,0.116303,0.006911,0.006502,-0.012058,-0.045604,0.009471,0.087689,1.000000,0.000035,0.000033,-0.000060,-0.172317,0.226065,-0.091931,-0.954332,6.319573,27.591574,161.082772
60660,-4.529564,0.978107,8.710047,-0.047235,0.002043,0.053230,0.005829,0.006521,-0.010170,-0.045292,0.009781,0.087102,1.000000,0.000029,0.000033,-0.000051,-0.172333,0.226076,-0.091926,-0.954327,6.318287,27.592829,161.080594
60661,-4.555304,0.954755,8.714336,-0.019205,0.017205,0.066652,0.003168,0.008002,-0.008002,-0.045549,0.009548,0.087145,1.000000,0.000016,0.000040,-0.000040,-0.172335,0.226102,-0.091914,-0.954322,6.316228,27.595673,161.079872
60662,-4.550010,0.926546,8.732986,-0.020988,0.049346,0.077876,0.004747,0.006540,-0.008282,-0.045497,0.009265,0.087332,1.000000,0.000024,0.000033,-0.000041,-0.172341,0.226113,-0.091906,-0.954319,6.314884,27.596822,161.078880
60663,-4.575501,0.903335,8.737387,0.007037,0.064512,0.091299,0.007798,0.002368,-0.010297,-0.045754,0.009032,0.087375,1.000000,0.000039,0.000012,-0.000051,-0.172362,0.226110,-0.091909,-0.954316,6.314608,27.596602,161.076283
60664,-4.560817,0.907318,8.706257,0.006101,0.057348,0.057463,0.013351,0.000282,-0.005161,-0.045608,0.009069,0.087063,1.000000,0.000067,0.000001,-0.000026,-0.172365,0.226082,-0.091940,-0.954319,6.318909,27.593993,161.076872
60665,-4.517886,0.947452,8.750305,-0.062093,0.044473,0.080288,0.015346,0.005434,-0.006173,-0.045176,0.009469,0.087505,1.000000,0.000077,0.000027,-0.000031,-0.172374,0.226085,-0.091986,-0.954312,6.324286,27.595260,161.077143
60666,-4.565383,0.961872,8.690291,-0.003114,0.003257,0.050835,0.020687,0.000853,-0.003947,-0.045653,0.009611,0.086904,1.000000,0.000103,0.000004,-0.000020,-0.172379,0.226053,-0.092054,-0.954312,6.333160,27.592903,161.078581
60667,-4.532486,0.982552,8.708026,-0.044897,-0.000801,0.053241,0.017423,0.002530,-0.004843,-0.045324,0.009819,0.087082,1.000000,0.000087,0.000013,-0.000024,-0.172385,0.226039,-0.092109,-0.954309,6.340028,27.592432,161.079500
60668,-4.533482,0.948138,8.780462,-0.059652,0.049926,0.114139,0.016234,0.001301,-0.004411,-0.045334,0.009475,0.087806,1.000000,0.000081,0.000007,-0.000022,-0.172388,0.226013,-0.092156,-0.954310,6.346234,27.590360,161.080581
60669,-4.522875,0.904852,8.742015,-0.036541,0.084230,0.071115,0.021776,0.000838,-0.005828,-0.045228,0.009040,0.087421,1.000000,0.000109,0.000004,-0.000029,-0.172404,0.225989,-0.092229,-0.954306,6.355247,27.588988,161.080745
60670,-4.539832,0.979316,8.760907,-0.056756,0.016525,0.102913,0.020199,0.002302,-0.005548,-0.045397,0.009786,0.087611,1.000000,0.000101,0.000012,-0.000028,-0.172416,0.225965,-0.092294,-0.954303,6.363411,27.587569,161.081276
60671,-4.548085,0.985092,8.737954,-0.042173,0.004275,0.087087,0.023468,0.000629,-0.004647,-0.045480,0.009842,0.087381,1.000000,0.000117,0.000003,-0.000023,-0.172428,0.225937,-0.092376,-0.954300,6.373737,27.586002,161.082184
60672,-4.544171,1.034679,8.744898,-0.065936,-0.037582,0.096275,0.015745,0.002748,-0.006014,-0.045440,0.010341,0.087450,1.000000,0.000079,0.000014,-0.000030,-0.172438,0.225919,-0.092420,-0.954298,6.379235,27.584862,161.082329
60673,-4.498472,1.034159,8.728084,-0.096977,-0.027675,0.060256,0.010591,0.000519,-0.004442,-0.044984,0.010338,0.087282,1.000000,0.000053,0.000003,-0.000022,-0.172435,0.225902,-0.092441,-0.954300,6.382240,27.583219,161.083360
60674,-4.531737,1.015148,8.709981,-0.054508,-0.024414,0.057843,-0.000991,0.002885,-0.003217,-0.045316,0.010153,0.087100,1.000000,-0.000005,0.000014,-0.000016,-0.172411,0.225898,-0.092408,-0.954309,6.378987,27.581983,161.085394
60675,-4.523971,1.010735,8.732535,-0.068540,-0.012938,0.073677,-0.001593,0.003078,-0.006280,-0.045238,0.010109,0.087326,1.000000,-0.000008,0.000015,-0.000031,-0.172402,0.225904,-0.092371,-0.954312,6.374551,27.581915,161.085428
60676,-4.526252,0.986173,8.728870,-0.056046,0.007334,0.069088,-0.002890,0.000599,-0.007303,-0.045262,0.009865,0.087289,1.000000,-0.000014,0.000003,-0.000037,-0.172397,0.225893,-0.092323,-0.954321,6.368929,27.579645,161.084664
60677,-4.532453,1.013330,8.709821,-0.053541,-0.025617,0.057846,-0.010722,0.001466,-0.010126,-0.045323,0.010140,0.087098,1.000000,-0.000054,0.000007,-0.000051,-0.172397,0.225901,-0.092237,-0.954327,6.358064,27.578903,161.082112
60678,-4.507786,0.934955,8.713423,-0.046871,0.053085,0.041906,-0.012891,0.001504,-0.006354,-0.045077,0.009357,0.087134,1.000000,-0.000064,0.000008,-0.000032,-0.172376,0.225902,-0.092143,-0.954340,6.347023,27.577085,161.082027
60679,-4.538811,0.938300,8.699204,-0.016624,0.035711,0.044077,-0.009458,-0.003740,-0.014766,-0.045389,0.009390,0.086991,1.000000,-0.000047,-0.000019,-0.000074,-0.172402,0.225887,-0.092052,-0.954348,6.335330,27.573671,161.076123
60680,-4.510558,0.972845,8.774561,-0.083298,0.029387,0.100772,-0.007842,0.002487,-0.009377,-0.045104,0.009734,0.087746,1.000000,-0.000039,0.000012,-0.000047,-0.172400,0.225890,-0.091980,-0.954354,6.326311,27.572609,161.074176
60681,-4.489981,0.946881,8.762609,-0.086621,0.054861,0.078183,-0.008442,0.002682,-0.012439,-0.044898,0.009475,0.087626,1.000000,-0.000042,0.000013,-0.000062,-0.172413,0.225903,-0.091903,-0.954356,6.316105,27.572703,161.070225
60682,-4.525466,0.902501,8.740916,-0.032092,0.078873,0.071174,-0.002792,0.003471,-0.012401,-0.045253,0.009029,0.087410,1.000000,-0.000014,0.000017,-0.000062,-0.172432,0.225907,-0.091852,-0.954357,6.309118,27.572383,161.066292
60683,-4.515841,0.922050,8.767000,-0.058205,0.069614,0.091607,0.004648,0.005296,-0.009732,-0.045156,0.009221,0.087671,1.000000,0.000023,0.000026,-0.000049,-0.172445,0.225920,-0.091843,-0.954352,6.307304,27.573795,161.064266
60684,-4.539473,0.922693,8.774951,-0.042128,0.064033,0.109614,0.005345,0.007971,-0.011769,-0.045391,0.009227,0.087752,1.000000,0.000027,0.000040,-0.000059,-0.172467,0.225939,-0.091835,-0.954344,6.305305,27.576007,161.061181
60685,-4.540315,0.922877,8.774495,-0.041857,0.063650,0.109617,0.010995,0.008761,-0.011730,-0.045399,0.009227,0.087747,1.000000,0.000055,0.000044,-0.000059,-0.172496,0.225964,-0.091856,-0.954331,6.306646,27.579518,161.058118
60686,-4.553231,0.979891,8.735859,-0.036948,-0.001916,0.087108,0.014968,0.008144,-0.006313,-0.045528,0.009794,0.087361,1.000000,0.000075,0.000041,-0.000032,-0.172503,0.225973,-0.091901,-0.954323,6.311787,27.581483,161.058497
60687,-4.563864,0.960527,8.709222,-0.010298,0.006592,0.066678,0.007814,0.002376,-0.010284,-0.045637,0.009604,0.087093,1.000000,0.000039,0.000012,-0.000051,-0.172524,0.225970,-0.091904,-0.954320,6.311526,27.581267,161.055909
60688,-4.540083,0.948828,8.776976,-0.052834,0.041658,0.114216,0.012588,0.005683,-0.005451,-0.045398,0.009484,0.087772,1.000000,0.000063,0.000028,-0.000027,-0.172525,0.225969,-0.091936,-0.954317,6.315477,27.581787,161.056727
60689,-4.533839,0.957049,8.722949,-0.039608,0.022746,0.064528,0.011989,0.005878,-0.008511,-0.045335,0.009567,0.087231,1.000000,0.000060,0.000029,-0.000043,-0.172541,0.225978,-0.091963,-0.954309,6.318250,27.583453,161.055526
60690,-4.526144,0.953581,8.745369,-0.053516,0.034137,0.080379,0.011084,0.000706,-0.009381,-0.045261,0.009533,0.087454,1.000000,0.000055,0.000004,-0.000047,-0.172561,0.225956,-0.091979,-0.954309,6.319999,27.581382,161.053467
60691,-4.551457,0.931006,8.749794,-0.025513,0.049348,0.093793,0.015363,0.005457,-0.006155,-0.045512,0.009305,0.087500,1.000000,0.000077,0.000027,-0.000031,-0.172569,0.225959,-0.092025,-0.954303,6.325393,27.582660,161.053751
60692,-4.547903,0.980261,8.756614,-0.049210,0.007446,0.102965,0.016946,0.003998,-0.006431,-0.045477,0.009797,0.087568,1.000000,0.000085,0.000020,-0.000032,-0.172581,0.225947,-0.092075,-0.954299,6.331491,27.582284,161.053812
60693,-4.533339,0.984646,8.725365,-0.050299,0.000372,0.069121,0.013965,0.001728,-0.008631,-0.045332,0.009842,0.087255,1.000000,0.000070,0.000009,-0.000043,-0.172601,0.225934,-0.092109,-0.954295,6.335224,27.581595,161.052240
60694,-4.533772,0.985628,8.725028,-0.049891,-0.000067,0.069123,0.015472,0.006709,-0.004699,-0.045335,0.009851,0.087253,1.000000,0.000077,0.000034,-0.000023,-0.172602,0.225935,-0.092156,-0.954290,6.341089,27.582660,161.053565
60695,-4.534101,0.986421,8.724768,-0.049617,-0.000449,0.069125,0.008810,-0.000507,-0.007063,-0.045341,0.009862,0.087248,1.000000,0.000044,-0.000003,-0.000035,-0.172610,0.225915,-0.092165,-0.954292,6.342261,27.580599,161.052841
60696,-4.557175,0.987287,8.732969,-0.033524,-0.006021,0.087119,0.003856,0.001373,-0.009142,-0.045571,0.009873,0.087330,1.000000,0.000019,0.000007,-0.000046,-0.172622,0.225903,-0.092148,-0.954295,6.339976,27.578901,161.050873
60697,-4.487151,0.973836,8.784409,-0.107574,0.039316,0.098700,0.007021,-0.001546,-0.009693,-0.044872,0.009737,0.087844,1.000000,0.000035,-0.000008,-0.000048,-0.172641,0.225881,-0.092144,-0.954297,6.339307,27.576416,161.048385
60698,-4.559450,0.963391,8.729228,-0.020799,0.013897,0.082539,0.005153,0.003855,-0.008118,-0.045592,0.009634,0.087293,1.000000,0.000026,0.000019,-0.000041,-0.172647,0.225879,-0.092136,-0.954297,6.338145,27.576064,161.047300
60699,-4.536797,0.962711,8.720788,-0.036212,0.018648,0.064550,0.002770,0.001391,-0.007258,-0.045367,0.009628,0.087208,1.000000,0.000014,0.000007,-0.000036,-0.172649,0.225874,-0.092117,-0.954300,6.335861,27.575097,161.046586
60700,-4.538950,0.938860,8.717107,-0.023769,0.038950,0.059972,0.008917,0.000745,-0.005607,-0.045389,0.009386,0.087172,1.000000,0.000045,0.000004,-0.000028,-0.172649,0.225853,-0.092127,-0.954304,6.337499,27.572817,161.046866
60701,-4.551858,0.960008,8.751594,-0.034164,0.024508,0.098401,0.007622,-0.001737,-0.006630,-0.045519,0.009598,0.087516,1.000000,0.000038,-0.000009,-0.000033,-0.172655,0.225828,-0.092129,-0.954308,6.338078,27.570028,161.046332
60702,-4.527073,0.983965,8.746737,-0.061481,0.008456,0.084996,0.010317,0.004477,-0.003130,-0.045269,0.009836,0.087469,1.000000,0.000052,0.000022,-0.000016,-0.172643,0.225822,-0.092152,-0.954310,6.341379,27.569731,161.048536
60703,-4.527215,0.984286,8.746627,-0.061207,0.008071,0.084998,0.003058,-0.002550,-0.008555,-0.045273,0.009843,0.087466,1.000000,0.000015,-0.000013,-0.000043,-0.172652,0.225799,-0.092130,-0.954316,6.338745,27.566601,161.046708
60704,-4.502373,1.007755,8.741853,-0.088522,-0.007985,0.071594,0.004664,0.003681,-0.003173,-0.045022,0.010076,0.087420,1.000000,0.000023,0.000018,-0.000016,-0.172635,0.225794,-0.092125,-0.954320,6.338770,27.565855,161.048841
60705,-4.535811,0.988367,8.723659,-0.046205,-0.004556,0.069140,0.002871,0.004258,-0.012355,-0.045356,0.009885,0.087238,1.000000,0.000014,0.000021,-0.000062,-0.172659,0.225805,-0.092103,-0.954315,6.335124,27.566843,161.045057
60706,-4.505050,0.983185,8.737986,-0.075815,0.011935,0.067021,-0.002985,-0.000656,-0.008752,-0.045050,0.009835,0.087380,1.000000,-0.000015,-0.000003,-0.000044,-0.172662,0.225789,-0.092052,-0.954324,6.328967,27.563975,161.043249
60707,-4.536276,0.987248,8.723544,-0.045523,-0.005377,0.069143,-0.002184,0.003269,-0.009337,-0.045361,0.009876,0.087236,1.000000,-0.000011,0.000016,-0.000047,-0.172666,0.225798,-0.092009,-0.954325,6.323290,27.564209,161.041334
60708,-4.524504,0.930334,8.761656,-0.049721,0.059283,0.091721,-0.003869,0.003479,-0.010514,-0.045243,0.009307,0.087617,1.000000,-0.000019,0.000017,-0.000053,-0.172674,0.225803,-0.091955,-0.954328,6.316243,27.563815,161.038731
60709,-4.536904,0.885609,8.731698,-0.011088,0.088606,0.066704,-0.000497,0.003061,-0.008158,-0.045367,0.008858,0.087318,1.000000,-0.000002,0.000015,-0.000041,-0.172675,0.225809,-0.091921,-0.954329,6.311875,27.563855,161.037558
60710,-4.527147,0.905416,8.757833,-0.037032,0.079213,0.087152,0.006040,0.001344,-0.012902,-0.045270,0.009054,0.087579,1.000000,0.000030,0.000007,-0.000065,-0.172707,0.225797,-0.091909,-0.954328,6.309722,27.562397,161.033254
60711,-4.535562,0.909810,8.734924,-0.022439,0.067038,0.071288,0.013586,0.004434,-0.008774,-0.045353,0.009094,0.087351,1.000000,0.000068,0.000022,-0.000044,-0.172726,0.225797,-0.091943,-0.954321,6.313284,27.563258,161.031782
60712,-4.533987,0.934838,8.738182,-0.034055,0.045847,0.075868,0.017946,0.002751,-0.009752,-0.045338,0.009343,0.087383,1.000000,0.000090,0.000014,-0.000049,-0.172755,0.225780,-0.091993,-0.954315,6.318930,27.562406,161.029599
60713,-4.565408,0.940913,8.723409,-0.003757,0.028553,0.077980,0.021525,0.004834,-0.004489,-0.045652,0.009401,0.087236,1.000000,0.000108,0.000024,-0.000022,-0.172763,0.225774,-0.092070,-0.954307,6.328329,27.563225,161.030909
60714,-4.509783,0.961117,8.732780,-0.061097,0.029393,0.062470,0.018445,0.001311,-0.008141,-0.045097,0.009605,0.087329,1.000000,0.000092,0.000007,-0.000041,-0.172786,0.225748,-0.092123,-0.954304,6.334690,27.561452,161.029613
60715,-4.535126,0.939002,8.737144,-0.033113,0.044646,0.075876,0.019349,0.006487,-0.007272,-0.045348,0.009383,0.087374,1.000000,0.000097,0.000032,-0.000036,-0.172804,0.225753,-0.092188,-0.954293,6.342070,27.563387,161.029253
60716,-4.556783,0.965338,8.748445,-0.029016,0.018325,0.098431,0.023917,0.007307,-0.005343,-0.045564,0.009644,0.087487,1.000000,0.000120,0.000037,-0.000027,-0.172817,0.225750,-0.092275,-0.954283,6.352591,27.564858,161.030229
60717,-4.544377,0.946326,8.713471,-0.018116,0.032044,0.060008,0.021432,0.003591,-0.005933,-0.045442,0.009455,0.087137,1.000000,0.000107,0.000018,-0.000030,-0.172832,0.225739,-0.092349,-0.954276,6.361466,27.565059,161.030523
60718,-4.552735,0.951971,8.690438,-0.003389,0.019830,0.044135,0.021929,0.002151,-0.004323,-0.045526,0.009511,0.086906,1.000000,0.000110,0.000011,-0.000022,-0.172840,0.225712,-0.092424,-0.954274,6.370986,27.563532,161.031736
60719,-4.520000,0.973462,8.708042,-0.045153,0.015587,0.046610,0.029275,0.002749,-0.003094,-0.045199,0.009723,0.087082,1.000000,0.000146,0.000014,-0.000015,-0.172851,0.225689,-0.092537,-0.954266,6.385172,27.563074,161.033793
60720,-4.513969,0.947995,8.726896,-0.047083,0.047688,0.057917,0.031853,-0.001587,-0.000145,-0.045140,0.009466,0.087270,1.000000,0.000159,-0.000008,-0.000001,-0.172852,0.225634,-0.092661,-0.954267,6.401485,27.559155,161.037496
60721,-4.524782,0.995041,8.764743,-0.069426,0.012429,0.100915,0.022126,-0.003038,-0.007061,-0.045249,0.009942,0.087648,1.000000,0.000111,-0.000015,-0.000035,-0.172876,0.225591,-0.092731,-0.954266,6.410201,27.555654,161.036588
60722,-4.501888,0.996200,8.756233,-0.084735,0.017106,0.082946,0.025912,0.003169,-0.005446,-0.045017,0.009952,0.087564,1.000000,0.000130,0.000016,-0.000027,-0.172893,0.225567,-0.092824,-0.954259,6.421698,27.554784,161.037208
60723,-4.481237,0.973271,8.744074,-0.088179,0.042606,0.060406,0.021448,0.003599,-0.005922,-0.044811,0.009725,0.087443,1.000000,0.000107,0.000018,-0.000030,-0.172908,0.225556,-0.092898,-0.954252,6.430586,27.554990,161.037510
60724,-4.527661,0.976195,8.760172,-0.056353,0.031928,0.096354,0.022149,0.006275,-0.007959,-0.045273,0.009754,0.087604,1.000000,0.000111,0.000031,-0.000040,-0.172933,0.225551,-0.092973,-0.954242,6.439287,27.556041,161.036662
60725,-4.532294,0.929793,8.752615,-0.032100,0.073083,0.087217,0.026227,0.008541,-0.007636,-0.045319,0.009288,0.087529,1.000000,0.000131,0.000043,-0.000038,-0.172959,0.225559,-0.093072,-0.954225,6.450570,27.559170,161.036222
60726,-4.524294,0.963143,8.701790,-0.030744,0.033459,0.042055,0.027919,0.008338,-0.006452,-0.045239,0.009621,0.087021,1.000000,0.000140,0.000042,-0.000032,-0.172982,0.225559,-0.093179,-0.954211,6.463089,27.561300,161.036490
60727,-4.521093,1.013273,8.708169,-0.054444,-0.008467,0.051195,0.024940,0.006058,-0.008650,-0.045208,0.010124,0.087084,1.000000,0.000125,0.000030,-0.000043,-0.173013,0.225557,-0.093268,-0.954197,6.473250,27.563081,161.035219
60728,-4.532794,1.059797,8.745545,-0.076625,-0.043809,0.094187,0.020575,0.007739,-0.007680,-0.045324,0.010591,0.087458,1.000000,0.000103,0.000039,-0.000038,-0.173033,0.225560,-0.093337,-0.954186,6.481176,27.564954,161.034696
60729,-4.522958,1.116171,8.698208,-0.087364,-0.104149,0.053585,0.011246,0.011283,-0.008803,-0.045224,0.011159,0.086985,1.000000,0.000056,0.000056,-0.000044,-0.173046,0.225596,-0.093366,-0.954172,6.483622,27.569720,161.033709
60730,-4.536640,1.136742,8.732310,-0.097548,-0.118723,0.092004,-0.006748,0.002424,-0.011274,-0.045365,0.011373,0.087323,1.000000,-0.000034,0.000012,-0.000056,-0.173055,0.225599,-0.093296,-0.954177,6.474655,27.568804,161.030539
60731,-4.518034,1.086025,8.717103,-0.089024,-0.072443,0.064903,-0.023428,0.005361,-0.013632,-0.045177,0.010874,0.087171,1.000000,-0.000117,0.000027,-0.000068,-0.173055,0.225638,-0.093149,-0.954182,6.455599,27.570510,161.026018
60732,-4.576532,1.040119,8.703970,-0.018886,-0.053307,0.075811,-0.030674,0.006011,-0.013413,-0.045762,0.010418,0.087039,1.000000,-0.000153,0.000030,-0.000067,-0.173046,0.225681,-0.092966,-0.954191,6.432418,27.571770,161.021737
60733,-4.534199,1.076103,8.748244,-0.086946,-0.066630,0.098757,-0.038117,0.004158,-0.016091,-0.045339,0.010781,0.087481,1.000000,-0.000191,0.000021,-0.000080,-0.173042,0.225728,-0.092744,-0.954202,6.404173,27.572945,161.015547
60734,-4.554644,1.031503,8.696101,-0.033922,-0.049008,0.057844,-0.044862,0.003370,-0.014257,-0.045544,0.010338,0.086959,1.000000,-0.000224,0.000017,-0.000071,-0.173021,0.225770,-0.092490,-0.954221,6.372536,27.572758,161.010532
60735,-4.563765,0.995062,8.746687,-0.034617,-0.010223,0.103024,-0.056269,0.000509,-0.015800,-0.045637,0.009979,0.087464,1.000000,-0.000281,0.000003,-0.000079,-0.172997,0.225816,-0.092179,-0.954244,6.333856,27.571830,161.004267
60736,-4.564171,0.989241,8.747135,-0.034214,-0.010656,0.103025,-0.058825,0.004858,-0.018731,-0.045639,0.009922,0.087470,1.000000,-0.000294,0.000024,-0.000094,-0.172982,0.225879,-0.091855,-0.954263,6.292945,27.572769,160.996410
60737,-4.545332,0.934899,8.732279,-0.025729,0.035641,0.075935,-0.053467,-0.001311,-0.009931,-0.045453,0.009375,0.087320,1.000000,-0.000267,-0.000007,-0.000050,-0.172934,0.225911,-0.091563,-0.954293,6.257557,27.570429,160.993789
60738,-4.545153,0.929768,8.732921,-0.025332,0.035210,0.075938,-0.052067,-0.005259,-0.013095,-0.045453,0.009323,0.087326,1.000000,-0.000260,-0.000026,-0.000065,-0.172903,0.225918,-0.091269,-0.954325,6.221862,27.565257,160.988942
60739,-4.521784,0.924088,8.725415,-0.040790,0.039939,0.057980,-0.050468,-0.006707,-0.013358,-0.045220,0.009266,0.087250,1.000000,-0.000252,-0.000034,-0.000067,-0.172877,0.225922,-0.090982,-0.954356,6.187001,27.560054,160.983745
60740,-4.523239,0.895011,8.722602,-0.028435,0.060296,0.053420,-0.049363,-0.006712,-0.015228,-0.045235,0.008975,0.087222,1.000000,-0.000247,-0.000034,-0.000076,-0.172860,0.225921,-0.090696,-0.954386,6.152171,27.554185,160.977504
60741,-4.547586,0.866693,8.728039,-0.000477,0.075596,0.066819,-0.046083,-0.008370,-0.014316,-0.045479,0.008690,0.087276,1.000000,-0.000230,-0.000042,-0.000072,-0.172844,0.225915,-0.090428,-0.954416,6.119489,27.548087,160.971585
60742,-4.485006,0.853306,8.757592,-0.060226,0.108855,0.062704,-0.033683,-0.006765,-0.016099,-0.044852,0.008551,0.087573,1.000000,-0.000168,-0.000034,-0.000080,-0.172849,0.225900,-0.090217,-0.954439,6.093385,27.542238,160.964730
60743,-4.519276,0.806134,8.736591,-0.005980,0.133214,0.055644,-0.030006,-0.009490,-0.021582,-0.045196,0.008079,0.087363,1.000000,-0.000150,-0.000047,-0.000108,-0.172886,0.225877,-0.090016,-0.954456,6.067725,27.535938,160.954072
60744,-4.494047,0.827033,8.732369,-0.033283,0.117098,0.042255,-0.010982,-0.002290,-0.014466,-0.044941,0.008278,0.087323,1.000000,-0.000055,-0.000011,-0.000072,-0.172908,0.225863,-0.089918,-0.954465,6.055247,27.532521,160.948436
60745,-4.512706,0.774293,8.756218,-0.007720,0.164929,0.066995,-0.001870,-0.000654,-0.010619,-0.045127,0.007746,0.087562,1.000000,-0.000009,-0.000003,-0.000053,-0.172921,0.225854,-0.089872,-0.954469,6.049245,27.530588,160.945428
60746,-4.508534,0.722318,8.771610,0.002222,0.217814,0.073784,0.016756,0.001556,-0.009315,-0.045084,0.007218,0.087717,1.000000,0.000084,0.000008,-0.000047,-0.172947,0.225832,-0.089916,-0.954466,6.054291,27.529061,160.943519
60747,-4.517345,0.828618,8.740364,-0.016641,0.110799,0.060226,0.035879,0.002325,-0.006403,-0.045172,0.008272,0.087406,1.000000,0.000179,0.000012,-0.000032,-0.172981,0.225802,-0.090057,-0.954453,6.071264,27.528571,160.943424
60748,-4.544932,0.884582,8.732645,-0.010073,0.051941,0.071400,0.043316,0.004176,-0.003726,-0.045447,0.008828,0.087329,1.000000,0.000217,0.000021,-0.000019,-0.173011,0.225767,-0.090236,-0.954439,6.093270,27.528192,160.945057
60749,-4.512402,0.907797,8.750083,-0.051830,0.047590,0.073914,0.045008,0.003974,-0.002542,-0.045122,0.009059,0.087504,1.000000,0.000225,0.000020,-0.000013,-0.173036,0.225735,-0.090426,-0.954424,6.116672,27.528405,160.947555
60750,-4.533956,0.936455,8.761255,-0.047644,0.021248,0.096428,0.049083,0.006245,-0.002213,-0.045337,0.009344,0.087616,1.000000,0.000245,0.000031,-0.000011,-0.173064,0.225704,-0.090637,-0.954406,6.142489,27.529118,160.950401
60751,-4.532553,0.964555,8.764136,-0.059315,0.000064,0.100988,0.046121,0.003974,-0.004404,-0.045324,0.009626,0.087644,1.000000,0.000231,0.000020,-0.000022,-0.173099,0.225673,-0.090830,-0.954389,6.165976,27.529445,160.951703
60752,-4.493360,0.995322,8.727755,-0.088003,-0.022691,0.053740,0.046927,0.007909,-0.004979,-0.044930,0.009934,0.087282,1.000000,0.000235,0.000040,-0.000025,-0.173135,0.225653,-0.091028,-0.954368,6.189790,27.531282,160.953005
60753,-4.530812,0.930973,8.701899,-0.021830,0.022515,0.042110,0.035231,0.008982,-0.005224,-0.045304,0.009296,0.087023,1.000000,0.000176,0.000045,-0.000026,-0.173160,0.225655,-0.091173,-0.954349,6.206955,27.534511,160.954129
60754,-4.502341,0.905506,8.712132,-0.039591,0.059701,0.035517,0.041782,0.005665,-0.003407,-0.045021,0.009038,0.087124,1.000000,0.000209,0.000028,-0.000017,-0.173185,0.225628,-0.091347,-0.954335,6.228229,27.534978,160.956186
60755,-4.542728,0.882426,8.747103,-0.010243,0.081636,0.082770,0.049735,0.007709,-0.005654,-0.045424,0.008804,0.087475,1.000000,0.000249,0.000039,-0.000028,-0.173229,0.225612,-0.091560,-0.954310,6.253537,27.537507,160.956948
60756,-4.518676,0.910407,8.741496,-0.037534,0.065495,0.069383,0.057190,0.009578,-0.002963,-0.045182,0.009080,0.087420,1.000000,0.000286,0.000048,-0.000015,-0.173268,0.225590,-0.091811,-0.954284,6.283894,27.540167,160.959493
60757,-4.548536,0.944201,8.729610,-0.019106,0.027497,0.075976,0.063755,0.006272,-0.001131,-0.045483,0.009414,0.087301,1.000000,0.000319,0.000031,-0.000006,-0.173306,0.225553,-0.092094,-0.954259,6.318532,27.541594,160.963061
60758,-4.553568,1.001716,8.712879,-0.028227,-0.026265,0.069174,0.060692,0.010444,0.000871,-0.045531,0.009991,0.087134,1.000000,0.000303,0.000052,0.000004,-0.173330,0.225531,-0.092367,-0.954233,6.352050,27.544501,160.968196
60759,-4.548130,0.978488,8.731200,-0.030369,0.005867,0.080534,0.049187,0.006314,-0.002125,-0.045478,0.009764,0.087316,1.000000,0.000246,0.000032,-0.000011,-0.173357,0.225506,-0.092580,-0.954214,6.378048,27.546011,160.971131
60760,-4.546297,0.906867,8.742748,-0.008545,0.079564,0.082789,0.056551,0.006939,-0.000877,-0.045460,0.009044,0.087432,1.000000,0.000283,0.000035,-0.000004,-0.173385,0.225472,-0.092827,-0.954192,6.408559,27.547031,160.974923
60761,-4.550455,0.864200,8.735085,0.015569,0.120807,0.073685,0.067088,0.003051,0.006386,-0.045503,0.008611,0.087354,1.000000,0.000335,0.000015,0.000032,-0.173393,0.225412,-0.093132,-0.954175,6.447233,27.546135,160.983089
60762,-4.518033,0.890403,8.752098,-0.026069,0.116355,0.076218,0.077558,0.008838,0.004752,-0.045177,0.008869,0.087526,1.000000,0.000388,0.000044,0.000024,-0.173417,0.225366,-0.093488,-0.954147,6.491518,27.547890,160.990709
60763,-4.498043,0.973801,8.730229,-0.062967,0.046928,0.056021,0.094885,0.005776,0.010223,-0.044978,0.009694,0.087308,1.000000,0.000474,0.000029,0.000051,-0.173437,0.225294,-0.093932,-0.954117,6.547351,27.548284,161.001537
60764,-4.494804,1.030288,8.735789,-0.086415,0.004855,0.065130,0.085478,0.008066,0.007661,-0.044945,0.010264,0.087364,1.000000,0.000427,0.000040,0.000038,-0.173456,0.225236,-0.094329,-0.954088,6.597008,27.549396,161.010971
60765,-4.497505,1.013807,8.731106,-0.074223,0.025285,0.060581,0.081833,0.012429,0.006602,-0.044970,0.010101,0.087318,1.000000,0.000409,0.000062,0.000033,-0.173475,0.225208,-0.094712,-0.954053,6.644518,27.553798,161.019971
60766,-4.525229,0.973543,8.731297,-0.034246,0.061380,0.069422,0.080076,0.011390,0.003996,-0.045248,0.009700,0.087319,1.000000,0.000400,0.000057,0.000020,-0.173505,0.225172,-0.095081,-0.954020,6.690098,27.557008,161.027232
60767,-4.567784,0.930879,8.762511,0.007016,0.104136,0.112124,0.096938,0.009789,0.007887,-0.045674,0.009265,0.087632,1.000000,0.000485,0.000049,0.000039,-0.173536,0.225118,-0.095536,-0.953981,6.746556,27.559808,161.036866
60768,-4.538807,0.946188,8.699106,0.004585,0.090507,0.044405,0.103963,0.013143,0.009013,-0.045383,0.009415,0.086999,1.000000,0.000520,0.000066,0.000045,-0.173568,0.225067,-0.096027,-0.953938,6.807385,27.563677,161.047453
60769,-4.467844,0.967860,8.752615,-0.081618,0.114550,0.060856,0.111972,0.012054,0.019928,-0.044674,0.009625,0.087534,1.000000,0.000560,0.000060,0.000100,-0.173557,0.225005,-0.096568,-0.953900,6.876118,27.566926,161.064996
60770,-4.519252,1.032481,8.750879,-0.059177,0.050589,0.089911,0.124416,0.020208,0.022420,-0.045185,0.010265,0.087520,1.000000,0.000622,0.000101,0.000112,-0.173544,0.224963,-0.097178,-0.953850,6.952906,27.573883,161.084828
60771,-4.576977,1.125204,8.729274,-0.034392,-0.045820,0.107582,0.114291,0.018248,0.028447,-0.045763,0.011196,0.087303,1.000000,0.000571,0.000091,0.000142,-0.173492,0.224924,-0.097745,-0.953811,7.025732,27.580020,161.108335
60772,-4.592664,1.267751,8.674834,-0.050453,-0.185434,0.082541,0.106355,0.016238,0.030719,-0.045922,0.012624,0.086759,1.000000,0.000532,0.000081,0.000154,-0.173421,0.224876,-0.098274,-0.953781,7.094494,27.584081,161.133212
60773,-4.554918,1.369117,8.700248,-0.127874,-0.252356,0.098722,0.075627,0.012446,0.026090,-0.045546,0.013652,0.087010,1.000000,0.000378,0.000062,0.000130,-0.173340,0.224844,-0.098650,-0.953765,7.144263,27.587039,161.154760
60774,-4.520583,1.418923,8.719950,-0.181365,-0.277693,0.105807,0.037266,0.005459,0.017268,-0.045205,0.014169,0.087203,1.000000,0.000186,0.000027,0.000086,-0.173261,0.224810,-0.098825,-0.953769,7.169082,27.585890,161.170020
60775,-4.525108,1.373130,8.712901,-0.157264,-0.236435,0.096707,0.004513,0.015086,0.011697,-0.045245,0.013727,0.087133,1.000000,0.000023,0.000075,0.000058,-0.173167,0.224859,-0.098847,-0.953772,7.173932,27.591361,161.182553
60776,-4.505019,1.347554,8.701164,-0.160713,-0.210962,0.074224,-0.024865,0.008847,-0.002677,-0.045046,0.013487,0.087012,1.000000,-0.000124,0.000044,-0.000013,-0.173113,0.224905,-0.098707,-0.953785,7.157389,27.593561,161.185264
60777,-4.509733,1.195594,8.704933,-0.103404,-0.074702,0.062875,-0.048207,0.016550,-0.013596,-0.045089,0.011980,0.087050,1.000000,-0.000241,0.000083,-0.000068,-0.173080,0.225019,-0.098451,-0.953791,7.124571,27.601671,161.181687
60778,-4.591894,1.147876,8.700379,-0.017555,-0.060412,0.091643,-0.058193,0.010911,-0.016890,-0.045913,0.011508,0.087003,1.000000,-0.000291,0.000055,-0.000084,-0.173053,0.225110,-0.098138,-0.953806,7.084793,27.606060,161.175556
60779,-4.569865,1.141045,8.692492,-0.033036,-0.055709,0.073711,-0.061372,0.006087,-0.021969,-0.045695,0.011442,0.086923,1.000000,-0.000307,0.000030,-0.000110,-0.173050,0.225190,-0.097801,-0.953823,7.041550,27.608807,161.165762
60780,-4.587728,1.207103,8.710895,-0.052524,-0.123730,0.105274,-0.075834,0.000863,-0.025766,-0.045875,0.012110,0.087105,1.000000,-0.000379,0.000004,-0.000129,-0.173051,0.225254,-0.097384,-0.953850,6.988664,27.608105,161.153161
60781,-4.533513,1.093439,8.728269,-0.064938,-0.007274,0.083108,-0.087482,-0.004566,-0.030234,-0.045335,0.010979,0.087277,1.000000,-0.000437,-0.000023,-0.000151,-0.173063,0.225309,-0.096904,-0.953884,6.927614,27.605351,161.137222
60782,-4.529414,1.032423,8.745630,-0.055123,0.045628,0.089959,-0.088327,-0.000418,-0.031991,-0.045293,0.010370,0.087452,1.000000,-0.000442,-0.000002,-0.000160,-0.173080,0.225380,-0.096420,-0.953913,6.865674,27.604327,161.120585
60783,-4.537565,1.026735,8.723884,-0.040492,0.033581,0.074024,-0.091375,-0.003956,-0.035607,-0.045376,0.010315,0.087233,1.000000,-0.000457,-0.000020,-0.000178,-0.173113,0.225445,-0.095915,-0.953943,6.800821,27.602256,161.101250
60784,-4.537986,1.117709,8.715383,-0.073262,-0.061863,0.076261,-0.085767,-0.005943,-0.030393,-0.045381,0.011221,0.087148,1.000000,-0.000429,-0.000030,-0.000152,-0.173129,0.225486,-0.095441,-0.953978,6.740639,27.597939,161.085034
60785,-4.562674,1.084397,8.721609,-0.045323,-0.046494,0.089643,-0.104437,-0.006621,-0.038314,-0.045628,0.010898,0.087209,1.000000,-0.000522,-0.000033,-0.000192,-0.173161,0.225550,-0.094868,-0.954014,6.667410,27.594494,161.063768
60786,-4.546650,0.976343,8.701681,-0.013195,0.041526,0.053549,-0.107579,-0.012992,-0.036817,-0.045470,0.009819,0.087009,1.000000,-0.000538,-0.000065,-0.000184,-0.173184,0.225580,-0.094276,-0.954061,6.592584,27.586584,161.043210
60787,-4.576194,0.869885,8.698069,0.050356,0.119431,0.053307,-0.100767,-0.013741,-0.032028,-0.045767,0.008750,0.086973,1.000000,-0.000504,-0.000069,-0.000160,-0.173194,0.225604,-0.093722,-0.954108,6.523093,27.578626,161.025467
60788,-4.512544,0.751445,8.737851,0.023603,0.247506,0.047127,-0.081713,-0.015371,-0.031883,-0.045131,0.007557,0.087372,1.000000,-0.000409,-0.000077,-0.000159,-0.173225,0.225597,-0.093257,-0.954150,6.464486,27.568991,161.007767
60789,-4.478589,0.763778,8.756993,-0.018150,0.243016,0.049698,-0.057428,-0.015099,-0.025315,-0.044792,0.007669,0.087564,1.000000,-0.000287,-0.000075,-0.000127,-0.173252,0.225574,-0.092916,-0.954184,6.421790,27.559797,160.994257
60790,-4.536023,0.816009,8.735626,0.018758,0.167438,0.062744,-0.029483,-0.009868,-0.018601,-0.045364,0.008177,0.087353,1.000000,-0.000147,-0.000049,-0.000093,-0.173276,0.225542,-0.092719,-0.954206,6.397234,27.552424,160.985455
60791,-4.495285,0.929014,8.767820,-0.070458,0.079552,0.083476,-0.021513,-0.007812,-0.020833,-0.044955,0.009304,0.087675,1.000000,-0.000108,-0.000039,-0.000104,-0.173319,0.225521,-0.092561,-0.954219,6.376698,27.547081,160.975360
60792,-4.516794,1.051065,8.770890,-0.099262,-0.041848,0.108153,-0.020899,-0.006384,-0.024312,-0.045169,0.010525,0.087706,1.000000,-0.000104,-0.000032,-0.000122,-0.173379,0.225501,-0.092402,-0.954228,6.355474,27.542048,160.963112
60793,-4.465581,1.118814,8.765049,-0.166142,-0.094625,0.085933,-0.033629,0.005236,-0.022187,-0.044652,0.011208,0.087650,1.000000,-0.000168,0.000026,-0.000111,-0.173408,0.225552,-0.092196,-0.954230,6.328029,27.544215,160.953084
60794,-4.501071,1.069951,8.743859,-0.111876,-0.070085,0.078828,-0.053263,0.007450,-0.033300,-0.045006,0.010730,0.087437,1.000000,-0.000266,0.000037,-0.000167,-0.173468,0.225631,-0.091885,-0.954231,6.286058,27.547613,160.936085
60795,-4.526225,0.939682,8.757729,-0.050870,0.040344,0.090005,-0.059703,0.012018,-0.033666,-0.045255,0.009431,0.087577,1.000000,-0.000299,0.000060,-0.000168,-0.173520,0.225742,-0.091547,-0.954228,6.240481,27.554348,160.919158
60796,-4.548078,0.768700,8.710756,0.046883,0.174247,0.042292,-0.046275,0.010795,-0.032188,-0.045475,0.007714,0.087108,1.000000,-0.000231,0.000054,-0.000161,-0.173580,0.225830,-0.091273,-0.954222,6.202955,27.559564,160.903122
60797,-4.634865,0.738443,8.762654,0.107788,0.186051,0.125379,-0.022235,0.008541,-0.028564,-0.046344,0.007401,0.087628,1.000000,-0.000111,0.000043,-0.000143,-0.173651,0.225890,-0.091117,-0.954210,6.180243,27.563984,160.889220
60798,-4.520558,0.733924,8.721471,0.029215,0.211014,0.035803,0.003268,0.001961,-0.020130,-0.045204,0.007342,0.087215,1.000000,0.000016,0.000010,-0.000101,-0.173713,0.225888,-0.091084,-0.954202,6.174363,27.563418,160.880438
60799,-4.592529,0.811850,8.733578,0.055642,0.121209,0.087212,0.021237,0.001568,-0.016734,-0.045924,0.008113,0.087337,1.000000,0.000106,0.000008,-0.000084,-0.173780,0.225872,-0.091143,-0.954188,6.179849,27.563133,160.873651
60800,-4.536205,0.956971,8.737670,-0.046670,0.005787,0.078603,0.026966,0.002031,-0.008691,-0.045361,0.009560,0.087378,1.000000,0.000135,0.000010,-0.000043,-0.173813,0.225843,-0.091237,-0.954180,6.190923,27.561901,160.872267
60801,-4.606340,1.060337,8.753086,-0.032055,-0.104884,0.134532,0.020632,0.000140,-0.013250,-0.046063,0.010597,0.087532,1.000000,0.000103,0.000001,-0.000066,-0.173864,0.225819,-0.091295,-0.954171,6.197053,27.560590,160.867618
60802,-4.563089,1.136010,8.724252,-0.084422,-0.169376,0.096352,0.000919,-0.002513,-0.004766,-0.045632,0.011361,0.087242,1.000000,0.000005,-0.000013,-0.000024,-0.173854,0.225790,-0.091265,-0.954183,6.194251,27.556517,160.868131
60803,-4.587460,1.111337,8.729337,-0.056496,-0.153976,0.109726,-0.021243,-0.007280,-0.003408,-0.045878,0.011123,0.087291,1.000000,-0.000106,-0.000036,-0.000017,-0.173813,0.225762,-0.091129,-0.954209,6.179075,27.550370,160.869290
60804,-4.597409,1.188401,8.695073,-0.062900,-0.240242,0.091407,-0.044500,-0.012034,-0.000171,-0.045979,0.011903,0.086945,1.000000,-0.000223,-0.000060,-0.000001,-0.173733,0.225725,-0.090879,-0.954257,6.151317,27.540602,160.872274
60805,-4.594276,1.207272,8.699989,-0.074449,-0.261490,0.095933,-0.074166,-0.019918,-0.002927,-0.045951,0.012106,0.086991,1.000000,-0.000371,-0.000100,-0.000015,-0.173636,0.225683,-0.090480,-0.954322,6.105561,27.527228,160.872876
60806,-4.636711,1.135509,8.654339,0.006002,-0.227635,0.068315,-0.102945,-0.024223,0.001738,-0.046378,0.011399,0.086532,1.000000,-0.000515,-0.000121,0.000009,-0.173488,0.225638,-0.089943,-0.954411,6.044550,27.510415,160.876093
60807,-4.622043,0.945375,8.700623,0.046061,-0.047104,0.084459,-0.122503,-0.042211,-0.000974,-0.046239,0.009507,0.086991,1.000000,-0.000613,-0.000211,-0.000005,-0.173337,0.225530,-0.089296,-0.954524,5.970997,27.484222,160.876475
60808,-4.496356,0.769016,8.763185,-0.017559,0.156042,0.065438,-0.109099,-0.052341,-0.006565,-0.044986,0.007739,0.087616,1.000000,-0.000545,-0.000262,-0.000033,-0.173233,0.225359,-0.088696,-0.954640,5.903159,27.451904,160.872683
60809,-4.439283,0.854837,8.763927,-0.096238,0.082333,0.047756,-0.100105,-0.042185,-0.012978,-0.044411,0.008595,0.087626,1.000000,-0.000501,-0.000211,-0.000065,-0.173165,0.225238,-0.088142,-0.954732,5.838919,27.426430,160.865428
60810,-4.454475,0.794280,8.790169,-0.070768,0.130184,0.072571,-0.089471,-0.033879,-0.011701,-0.044559,0.007985,0.087891,1.000000,-0.000447,-0.000169,-0.000059,-0.173098,0.225140,-0.087646,-0.954813,5.781393,27.404931,160.859660
60811,-4.436943,0.789643,8.761298,-0.071947,0.123260,0.038707,-0.082487,-0.028907,-0.017129,-0.044381,0.007936,0.087603,1.000000,-0.000412,-0.000145,-0.000086,-0.173064,0.225068,-0.087183,-0.954878,5.726449,27.387251,160.850660
60812,-4.343619,0.744734,8.802543,-0.150259,0.193732,0.028365,-0.070092,-0.017938,-0.019776,-0.043443,0.007482,0.088019,1.000000,-0.000350,-0.000090,-0.000099,-0.173051,0.225034,-0.086784,-0.954925,5.678110,27.375266,160.840726
60813,-4.385321,0.787448,8.827274,-0.142054,0.141461,0.073247,-0.051288,-0.002227,-0.022970,-0.043853,0.007902,0.088270,1.000000,-0.000256,-0.000011,-0.000115,-0.173068,0.225065,-0.086486,-0.954942,5.640117,27.373115,160.829708
60814,-4.394038,0.786103,8.804766,-0.127318,0.129421,0.057290,-0.046551,0.012054,-0.025539,-0.043934,0.007887,0.088048,1.000000,-0.000233,0.000060,-0.000128,-0.173097,0.225155,-0.086219,-0.954939,5.604454,27.378533,160.817838
60815,-4.385945,0.712327,8.762479,-0.093032,0.185123,0.009839,-0.043964,0.018679,-0.030004,-0.043850,0.007149,0.087627,1.000000,-0.000220,0.000093,-0.000150,-0.173147,0.225282,-0.085967,-0.954923,5.569183,27.388684,160.803619
60816,-4.472257,0.617040,8.748993,0.016400,0.241394,0.029474,-0.023617,0.031285,-0.026956,-0.044708,0.006187,0.087496,1.000000,-0.000118,0.000156,-0.000135,-0.173199,0.225446,-0.085824,-0.954888,5.546767,27.405147,160.792209
60817,-4.576918,0.596965,8.754234,0.106065,0.230033,0.080593,0.011776,0.033104,-0.020479,-0.045754,0.005969,0.087550,1.000000,0.000059,0.000166,-0.000102,-0.173260,0.225590,-0.085861,-0.954839,5.546654,27.422987,160.784997
60818,-4.553017,0.645876,8.751957,0.066976,0.192923,0.071753,0.034061,0.021692,-0.017281,-0.045520,0.006448,0.087526,1.000000,0.000170,0.000108,-0.000086,-0.173334,0.225653,-0.085996,-0.954799,5.559847,27.433453,160.779260
60819,-4.559713,0.701276,8.735304,0.057965,0.139198,0.064841,0.051628,0.023548,-0.006132,-0.045587,0.006992,0.087360,1.000000,0.000258,0.000118,-0.000031,-0.173375,0.225711,-0.086230,-0.954757,5.586538,27.445049,160.780674
60820,-4.573210,0.750838,8.772088,0.036142,0.103541,0.107772,0.067261,0.021892,-0.000495,-0.045722,0.007479,0.087728,1.000000,0.000336,0.000109,-0.000002,-0.173408,0.225739,-0.086543,-0.954716,5.623723,27.454689,160.785579
60821,-4.577571,0.957710,8.754269,-0.029351,-0.087071,0.112037,0.073506,0.022527,0.002617,-0.045766,0.009544,0.087551,1.000000,0.000368,0.000113,0.000013,-0.173433,0.225769,-0.086891,-0.954672,5.665521,27.465209,160.792567
60822,-4.584991,1.115690,8.729191,-0.071084,-0.235980,0.107239,0.050079,0.014061,0.001573,-0.045844,0.011135,0.087298,1.000000,0.000250,0.000070,0.000008,-0.173440,0.225773,-0.087118,-0.954649,5.693250,27.470266,160.798343
60823,-4.563341,1.118288,8.719885,-0.086611,-0.231301,0.089334,0.016693,0.016980,0.002019,-0.045626,0.011175,0.087204,1.000000,0.000083,0.000085,0.000010,-0.173406,0.225826,-0.087189,-0.954636,5.702162,27.477652,160.804603
60824,-4.583252,0.942707,8.747578,-0.016505,-0.067431,0.107504,-0.004071,0.007042,-0.001197,-0.045829,0.009429,0.087477,1.000000,-0.000020,0.000035,-0.000006,-0.173367,0.225846,-0.087148,-0.954643,5.697853,27.478879,160.808302
60825,-4.613570,0.846475,8.741105,0.046801,0.010673,0.107300,-0.003091,0.004147,0.002000,-0.046134,0.008466,0.087412,1.000000,-0.000015,0.000021,0.000010,-0.173316,0.225855,-0.087114,-0.954653,5.695045,27.478949,160.813727
60826,-4.601306,0.926223,8.698465,0.024695,-0.070519,0.071018,0.000016,-0.009319,0.000873,-0.046017,0.009262,0.086983,1.000000,0.000000,-0.000047,0.000004,-0.173277,0.225792,-0.087079,-0.954678,5.693189,27.470734,160.817905
60827,-4.538261,0.917164,8.727974,-0.035414,-0.037612,0.067184,-0.009105,-0.012624,0.003549,-0.045388,0.009175,0.087276,1.000000,-0.000046,-0.000063,0.000018,-0.173219,0.225726,-0.087004,-0.954711,5.686897,27.461154,160.823251
60828,-4.524275,0.860040,8.766914,-0.040191,0.026898,0.090099,-0.013913,-0.017188,-0.002719,-0.045250,0.008607,0.087665,1.000000,-0.000070,-0.000086,-0.000014,-0.173187,0.225639,-0.086893,-0.954748,5.675797,27.448671,160.824428
60829,-4.495347,0.806274,8.774935,-0.046527,0.084934,0.079144,-0.010348,-0.013462,-0.003993,-0.044959,0.008068,0.087746,1.000000,-0.000052,-0.000067,-0.000020,-0.173164,0.225573,-0.086802,-0.954776,5.666535,27.439042,160.824877
60830,-4.520628,0.757989,8.776542,-0.006750,0.121232,0.087998,0.004729,-0.013268,-0.007924,-0.045212,0.007580,0.087763,1.000000,0.000024,-0.000066,-0.000040,-0.173177,0.225491,-0.086778,-0.954795,5.664692,27.429075,160.822808
60831,-4.480133,0.874572,8.809526,-0.095654,0.033017,0.108703,0.017815,-0.008929,-0.011729,-0.044805,0.008741,0.088094,1.000000,0.000089,-0.000045,-0.000059,-0.173221,0.225425,-0.086817,-0.954799,5.669410,27.422469,160.818579
60832,-4.450053,0.971206,8.815831,-0.158268,-0.045938,0.108902,0.007264,0.001023,-0.006750,-0.044500,0.009710,0.088159,1.000000,0.000036,0.000005,-0.000034,-0.173226,0.225408,-0.086818,-0.954802,5.669781,27.420579,160.818132
60833,-4.408520,0.797823,8.796468,-0.121497,0.121623,0.057463,-0.000079,0.009719,-0.008844,-0.044081,0.007980,0.087967,1.000000,-0.000000,0.000049,-0.000044,-0.173228,0.225446,-0.086791,-0.954795,5.665648,27.424442,160.816944
60834,-4.473994,0.658352,8.767896,-0.004385,0.224889,0.050144,0.017062,0.016338,-0.012325,-0.044732,0.006579,0.087683,1.000000,0.000085,0.000082,-0.000062,-0.173263,0.225496,-0.086846,-0.954772,5.670439,27.431603,160.813919
60835,-4.508410,0.640906,8.748785,0.037851,0.228789,0.047535,0.045872,0.020279,-0.009035,-0.045075,0.006391,0.087494,1.000000,0.000229,0.000101,-0.000045,-0.173313,0.225545,-0.087048,-0.954733,5.692889,27.441498,160.813284
60836,-4.552688,0.694698,8.771183,0.046290,0.176455,0.092359,0.070435,0.017819,-0.002430,-0.045519,0.006917,0.087718,1.000000,0.000352,0.000089,-0.000012,-0.173360,0.225552,-0.087370,-0.954693,5.731205,27.448941,160.816785
60837,-4.557162,0.777812,8.757864,0.025576,0.101818,0.089932,0.082883,0.017454,0.010310,-0.045564,0.007739,0.087586,1.000000,0.000414,0.000087,0.000052,-0.173360,0.225546,-0.087767,-0.954658,5.780511,27.456114,160.828409
60838,-4.561084,0.986677,8.739390,-0.039542,-0.088945,0.094102,0.092507,0.017703,0.015792,-0.045604,0.009823,0.087402,1.000000,0.000463,0.000089,0.000079,-0.173344,0.225525,-0.088214,-0.954625,5.836851,27.462426,160.843699
60839,-4.536190,0.917819,8.741878,-0.034141,-0.010008,0.078651,0.069053,0.009213,0.014732,-0.045359,0.009145,0.087424,1.000000,0.000345,0.000046,0.000074,-0.173312,0.225490,-0.088544,-0.954608,5.879302,27.464625,160.857636
60840,-4.517522,0.876298,8.725415,-0.026046,0.036420,0.051731,0.076189,0.015049,0.018726,-0.045169,0.008726,0.087261,1.000000,0.000381,0.000075,0.000094,-0.173266,0.225470,-0.088915,-0.954587,5.927108,27.469238,160.874544
60841,-4.573925,0.864530,8.714479,0.032037,0.035286,0.066993,0.077824,0.004300,0.019373,-0.045738,0.008607,0.087149,1.000000,0.000389,0.000021,0.000097,-0.173223,0.225401,-0.089286,-0.954576,5.975811,27.468341,160.891137
60842,-4.547572,0.920181,8.712416,-0.006970,-0.001901,0.058142,0.082724,0.001221,0.020040,-0.045476,0.009161,0.087128,1.000000,0.000414,0.000006,0.000100,-0.173185,0.225308,-0.089678,-0.954568,6.027330,27.464974,160.907870
60843,-4.532959,0.896487,8.753703,-0.023690,0.041729,0.085616,0.079759,-0.002677,0.024393,-0.045332,0.008924,0.087540,1.000000,0.000399,-0.000013,0.000122,-0.173124,0.225203,-0.090059,-0.954569,6.078407,27.459773,160.927209
60844,-4.554704,0.940240,8.688420,0.008055,-0.014258,0.042147,0.082890,-0.006806,0.022442,-0.045551,0.009361,0.086887,1.000000,0.000414,-0.000034,0.000112,-0.173078,0.225070,-0.090448,-0.954571,6.130472,27.451660,160.944878
60845,-4.499747,0.943576,8.694362,-0.037727,0.007012,0.022379,0.082654,-0.010538,0.018134,-0.045003,0.009396,0.086945,1.000000,0.000413,-0.000053,0.000091,-0.173053,0.224927,-0.090828,-0.954573,6.181094,27.442334,160.959642
60846,-4.491439,1.047603,8.707851,-0.084414,-0.077061,0.040439,0.076567,-0.017616,0.010871,-0.044923,0.010440,0.087079,1.000000,0.000383,-0.000088,0.000054,-0.173060,0.224754,-0.091164,-0.954581,6.225754,27.428758,160.969163
60847,-4.462088,1.126099,8.709583,-0.135263,-0.135133,0.036100,0.064932,-0.006019,0.011125,-0.044624,0.011230,0.087098,1.000000,0.000325,-0.000030,0.000056,-0.173047,0.224651,-0.091456,-0.954580,6.264282,27.422423,160.979727
60848,-4.475682,1.252105,8.734369,-0.177844,-0.245184,0.076547,0.039501,-0.007552,0.005029,-0.044760,0.012503,0.087344,1.000000,0.000198,-0.000038,0.000025,-0.173036,0.224560,-0.091617,-0.954588,6.286308,27.414933,160.986169
60849,-4.446004,1.314817,8.812638,-0.255978,-0.273702,0.138084,0.000952,-0.000908,-0.011290,-0.044460,0.013150,0.088126,1.000000,0.000005,-0.000005,-0.000056,-0.173055,0.224548,-0.091583,-0.954590,6.281719,27.412908,160.982708
60850,-4.401592,1.187320,8.801961,-0.242851,-0.147942,0.095763,-0.033469,0.016981,-0.020226,-0.044007,0.011892,0.088021,1.000000,-0.000167,0.000085,-0.000101,-0.173071,0.224648,-0.091389,-0.954582,6.255298,27.420959,160.974650
60851,-4.495474,1.005741,8.700022,-0.059301,-0.037252,0.031412,-0.049647,0.020012,-0.027537,-0.044945,0.010085,0.087002,1.000000,-0.000248,0.000100,-0.000138,-0.173102,0.224787,-0.091114,-0.954571,6.217592,27.431858,160.962232
60852,-4.587708,0.936859,8.668551,0.052637,-0.013136,0.039500,-0.048526,0.020012,-0.029394,-0.045867,0.009396,0.086688,1.000000,-0.000243,0.000100,-0.000147,-0.173142,0.224919,-0.090840,-0.954558,6.179923,27.442201,160.948710
60853,-4.604144,0.928037,8.699306,0.054369,-0.007024,0.073379,-0.049202,0.008024,-0.026435,-0.046037,0.009308,0.086993,1.000000,-0.000246,0.000040,-0.000132,-0.173173,0.224999,-0.090557,-0.954560,6.142403,27.446189,160.936150
60854,-4.557854,0.910804,8.759485,-0.004251,0.032195,0.103517,-0.049311,0.005163,-0.021341,-0.045575,0.009135,0.087594,1.000000,-0.000247,0.000026,-0.000107,-0.173183,0.225058,-0.090276,-0.954571,6.106200,27.447565,160.926464
60855,-4.551339,0.912595,8.706148,0.008943,0.013801,0.053631,-0.051282,-0.000006,-0.020318,-0.045512,0.009153,0.087059,1.000000,-0.000256,-0.000000,-0.000102,-0.173187,0.225099,-0.089984,-0.954589,6.069042,27.446592,160.917275
60856,-4.559598,1.000444,8.751346,-0.036209,-0.063824,0.105553,-0.049095,-0.001636,-0.017522,-0.045596,0.010030,0.087511,1.000000,-0.000245,-0.000008,-0.000088,-0.173179,0.225123,-0.089702,-0.954611,6.033869,27.443872,160.909858
60857,-4.588215,1.147318,8.735617,-0.061780,-0.217841,0.118465,-0.067962,-0.008071,-0.015242,-0.045885,0.011506,0.087350,1.000000,-0.000340,-0.000040,-0.000076,-0.173143,0.225138,-0.089328,-0.954649,5.988406,27.437989,160.903386
60858,-4.539341,1.287011,8.718779,-0.149156,-0.345246,0.093759,-0.097426,-0.013487,-0.015097,-0.045398,0.012916,0.087178,1.000000,-0.000487,-0.000067,-0.000075,-0.173077,0.225146,-0.088808,-0.954708,5.925935,27.428370,160.896525
60859,-4.548670,1.220228,8.767580,-0.138299,-0.285786,0.134624,-0.143919,-0.013316,-0.017431,-0.045491,0.012269,0.087664,1.000000,-0.000720,-0.000067,-0.000087,-0.172968,0.225202,-0.088065,-0.954783,5.836154,27.419612,160.888315
60860,-4.549617,1.056761,8.771693,-0.081855,-0.149134,0.123579,-0.176098,-0.018065,-0.024462,-0.045503,0.010650,0.087703,1.000000,-0.000880,-0.000090,-0.000122,-0.172857,0.225261,-0.087155,-0.954873,5.725731,27.407916,160.875428
60861,-4.523842,0.938976,8.774640,-0.064864,-0.049251,0.103687,-0.183012,-0.022140,-0.034825,-0.045246,0.009478,0.087733,1.000000,-0.000915,-0.000111,-0.000174,-0.172791,0.225316,-0.086198,-0.954959,5.608173,27.395084,160.855525
60862,-4.532214,0.776699,8.755596,0.005924,0.075902,0.076644,-0.185716,-0.023073,-0.035438,-0.045331,0.007856,0.087543,1.000000,-0.000929,-0.000115,-0.000177,-0.172724,0.225364,-0.085225,-0.955047,5.488883,27.381080,160.835325
60863,-4.555214,0.611552,8.766957,0.078049,0.207579,0.083489,-0.169463,-0.026078,-0.028091,-0.045563,0.006196,0.087658,1.000000,-0.000847,-0.000130,-0.000140,-0.172642,0.225385,-0.084337,-0.955135,5.381003,27.365565,160.819570
60864,-4.559651,0.500604,8.754273,0.125328,0.290896,0.065469,-0.138111,-0.027671,-0.023283,-0.045608,0.005072,0.087533,1.000000,-0.000691,-0.000138,-0.000116,-0.172574,0.225364,-0.083601,-0.955217,5.292481,27.348221,160.806788
60865,-4.519733,0.456373,8.789575,0.092663,0.339523,0.075134,-0.105805,-0.030542,-0.021856,-0.045210,0.004615,0.087886,1.000000,-0.000529,-0.000153,-0.000109,-0.172536,0.225306,-0.083020,-0.955289,5.222828,27.329789,160.794832
60866,-4.495799,0.423923,8.779327,0.088870,0.365088,0.052773,-0.056662,-0.030971,-0.020371,-0.044971,0.004269,0.087785,1.000000,-0.000283,-0.000155,-0.000102,-0.172547,0.225197,-0.082673,-0.955342,5.181755,27.310399,160.783739
60867,-4.429512,0.435085,8.813393,0.016880,0.376875,0.053592,-0.017949,-0.027893,-0.018108,-0.044307,0.004363,0.088127,1.000000,-0.000090,-0.000139,-0.000091,-0.172589,0.225074,-0.082518,-0.955377,5.163637,27.293268,160.774380
60868,-4.373404,0.554018,8.816717,-0.073134,0.281851,0.040398,0.015580,-0.017779,-0.015149,-0.043741,0.005537,0.088164,1.000000,0.000078,-0.000089,-0.000076,-0.172648,0.224965,-0.082533,-0.955391,5.165800,27.281142,160.767766
60869,-4.375595,0.631948,8.805716,-0.093672,0.207156,0.037904,0.035776,-0.006407,-0.013565,-0.043758,0.006307,0.088057,1.000000,0.000179,-0.000032,-0.000068,-0.172720,0.224896,-0.082658,-0.955383,5.180378,27.276038,160.762574
60870,-4.393471,0.707543,8.825092,-0.112630,0.138874,0.069290,0.047900,0.000422,-0.012610,-0.043934,0.007057,0.088253,1.000000,0.000240,0.000002,-0.000063,-0.172797,0.224845,-0.082846,-0.955365,5.202277,27.274142,160.758452
60871,-4.441358,0.723948,8.764735,-0.053342,0.098953,0.039099,0.050291,0.011802,-0.006346,-0.044408,0.007219,0.087652,1.000000,0.000251,0.000059,-0.000032,-0.172843,0.224848,-0.083064,-0.955337,5.227782,27.279055,160.758957
60872,-4.496627,0.733021,8.757593,-0.006874,0.076960,0.058809,0.057203,0.015121,-0.005276,-0.044959,0.007306,0.087581,1.000000,0.000286,0.000076,-0.000026,-0.172891,0.224855,-0.083318,-0.955305,5.257581,27.285180,160.760274
60873,-4.551745,0.742850,8.750441,0.039502,0.055018,0.078513,0.064733,0.008914,-0.000302,-0.045514,0.007400,0.087509,1.000000,0.000324,0.000045,-0.000002,-0.172925,0.224829,-0.083610,-0.955279,5.293065,27.288126,160.764493
60874,-4.516659,0.816599,8.774992,-0.025540,0.008296,0.090181,0.068796,0.011206,0.000033,-0.045162,0.008136,0.087755,1.000000,0.000344,0.000056,0.000000,-0.172961,0.224805,-0.083921,-0.955251,5.330952,27.291739,160.769133
60875,-4.471667,0.822025,8.757434,-0.057009,0.017982,0.054461,0.065517,0.011213,0.005671,-0.044712,0.008190,0.087580,1.000000,0.000328,0.000056,0.000028,-0.172967,0.224787,-0.084225,-0.955227,5.368709,27.295672,160.777330
60876,-4.506958,0.784391,8.734598,-0.002972,0.042917,0.047297,0.068974,0.012056,0.009476,-0.045065,0.007812,0.087351,1.000000,0.000345,0.000060,0.000047,-0.172957,0.224764,-0.084548,-0.955206,5.409489,27.299248,160.788134
60877,-4.487019,0.855365,8.789719,-0.066624,0.002679,0.092852,0.075332,0.015597,0.007518,-0.044864,0.008519,0.087904,1.000000,0.000377,0.000078,0.000038,-0.172963,0.224757,-0.084905,-0.955175,5.453540,27.305572,160.797790
60878,-4.469149,0.902431,8.840894,-0.118460,-0.016671,0.133908,0.073969,0.021203,0.004199,-0.044682,0.008991,0.088417,1.000000,0.000370,0.000106,0.000021,-0.172984,0.224775,-0.085255,-0.955136,5.495927,27.314633,160.805350
60879,-4.485795,0.941037,8.797352,-0.101106,-0.060979,0.106353,0.070488,0.028051,0.006070,-0.044846,0.009378,0.087983,1.000000,0.000352,0.000140,0.000030,-0.172986,0.224833,-0.085598,-0.955091,5.537139,27.328126,160.814862
60880,-4.499692,0.778221,8.770316,-0.018824,0.085228,0.074864,0.059258,0.028043,-0.000520,-0.044985,0.007756,0.087712,1.000000,0.000296,0.000140,-0.000003,-0.173006,0.224898,-0.085878,-0.955047,5.569881,27.341341,160.820246
60881,-4.558081,0.640382,8.763406,0.083377,0.200493,0.083591,0.076882,0.031614,0.004141,-0.045567,0.006369,0.087644,1.000000,0.000384,0.000158,0.000021,-0.173024,0.224968,-0.086252,-0.954994,5.614305,27.356962,160.828765
60882,-4.552005,0.556019,8.716425,0.129042,0.277427,0.031719,0.110554,0.021972,0.007546,-0.045511,0.005510,0.087172,1.000000,0.000553,0.000110,0.000038,-0.173067,0.224956,-0.086780,-0.954941,5.678654,27.366249,160.838835
60883,-4.567000,0.588322,8.749241,0.119064,0.262557,0.070111,0.144697,0.018595,0.018230,-0.045662,0.005816,0.087501,1.000000,0.000723,0.000093,0.000091,-0.173098,0.224899,-0.087483,-0.954884,5.765728,27.373626,160.855604
60884,-4.504083,0.654212,8.707180,0.062793,0.223833,0.009516,0.172144,0.014425,0.030786,-0.045036,0.006460,0.087081,1.000000,0.000861,0.000072,0.000154,-0.173103,0.224787,-0.088325,-0.954832,5.871983,27.377231,160.880100
60885,-4.477363,0.743647,8.707348,0.012089,0.165624,0.005158,0.194498,0.018966,0.037523,-0.044767,0.007343,0.087085,1.000000,0.000972,0.000095,0.000188,-0.173098,0.224680,-0.089287,-0.954769,5.993315,27.383623,160.909307
60886,-4.483737,0.904216,8.756300,-0.056231,0.045901,0.066027,0.206511,0.019344,0.039417,-0.044831,0.008943,0.087577,0.999999,0.001033,0.000097,0.000197,-0.173097,0.224558,-0.090306,-0.954702,6.121968,27.389445,160.939771
60887,-4.444454,1.064535,8.787994,-0.156373,-0.063731,0.091185,0.203902,0.028995,0.039354,-0.044434,0.010547,0.087897,0.999999,0.001020,0.000145,0.000197,-0.173089,0.224490,-0.091324,-0.954623,6.249572,27.401322,160.970886
60888,-4.446592,1.083214,8.784629,-0.155998,-0.064179,0.091188,0.179953,0.029662,0.042351,-0.044455,0.010744,0.087863,1.000000,0.000900,0.000148,0.000212,-0.173041,0.224438,-0.092229,-0.954556,6.364256,27.412697,161.003772
60889,-4.467223,0.959436,8.738868,-0.071208,0.049718,0.048187,0.171087,0.038261,0.047069,-0.044658,0.009509,0.087405,1.000000,0.000855,0.000191,0.000235,-0.172955,0.224438,-0.093107,-0.954487,6.475685,27.429242,161.040566
60890,-4.555862,0.861500,8.720924,0.049614,0.127545,0.063233,0.183417,0.044013,0.046770,-0.045541,0.008524,0.087227,1.000000,0.000917,0.000220,0.000234,-0.172882,0.224450,-0.094046,-0.954405,6.594195,27.448396,161.077530
60891,-4.568640,0.860112,8.691430,0.075961,0.136666,0.042704,0.203537,0.036861,0.055431,-0.045673,0.008500,0.086931,0.999999,0.001018,0.000184,0.000277,-0.172793,0.224411,-0.095086,-0.954328,6.726703,27.463451,161.119671
60892,-4.595226,0.981760,8.685852,0.059887,0.035897,0.062486,0.218141,0.031731,0.058958,-0.045941,0.009709,0.086876,0.999999,0.001091,0.000159,0.000295,-0.172705,0.224327,-0.096193,-0.954252,6.868315,27.474626,161.163679
60893,-4.494915,1.235974,8.734265,-0.133067,-0.136134,0.085949,0.211960,0.028350,0.061099,-0.044941,0.012253,0.087362,0.999999,0.001060,0.000142,0.000305,-0.172602,0.224237,-0.097272,-0.954183,7.007076,27.484267,161.208880
60894,-4.393696,1.388436,8.792558,-0.293590,-0.212935,0.107486,0.181569,0.037917,0.051868,-0.043924,0.013793,0.087946,1.000000,0.000908,0.000190,0.000259,-0.172506,0.224217,-0.098203,-0.954109,7.125930,27.499261,161.248655
60895,-4.426202,1.433529,8.776494,-0.274676,-0.250787,0.113780,0.153704,0.052457,0.044585,-0.044242,0.014258,0.087788,1.000000,0.000769,0.000262,0.000223,-0.172404,0.224300,-0.099006,-0.954025,7.227371,27.523620,161.285275
60896,-4.510687,1.537523,8.683122,-0.205507,-0.381464,0.082721,0.118276,0.049756,0.015383,-0.045086,0.015320,0.086852,1.000000,0.000591,0.000249,0.000077,-0.172402,0.224410,-0.099603,-0.953938,7.299669,27.547892,161.303177
60897,-4.321993,1.445841,8.572486,-0.287092,-0.264255,-0.111897,0.058801,0.033938,-0.003506,-0.043205,0.014434,0.085736,1.000000,0.000294,0.000170,-0.000018,-0.172432,0.224510,-0.099884,-0.953879,7.331832,27.565157,161.307529
60898,-4.213262,0.939692,8.639313,-0.217699,0.254934,-0.160747,0.037294,0.045680,-0.025007,-0.042112,0.009386,0.086405,1.000000,0.000186,0.000228,-0.000125,-0.172536,0.224690,-0.100047,-0.953801,7.345693,27.590035,161.298914
60899,-4.889420,0.366968,8.914535,0.451330,0.669514,0.329210,0.073091,0.081135,-0.018254,-0.048858,0.003642,0.089167,1.000000,0.000365,0.000406,-0.000091,-0.172629,0.225010,-0.100420,-0.953670,7.383486,27.635199,161.297738
60900,-5.208752,0.328527,8.907170,0.734956,0.626005,0.465670,0.207857,0.054961,0.014325,-0.052063,0.003189,0.089089,0.999999,0.001039,0.000275,0.000072,-0.172729,0.225067,-0.101447,-0.953529,7.507071,27.662464,161.315545
60901,-4.440428,0.670190,8.865036,-0.017310,0.541738,0.110094,0.283368,0.046713,0.053213,-0.044385,0.006564,0.088670,0.999999,0.001417,0.000234,0.000266,-0.172734,0.225005,-0.102873,-0.953390,7.685355,27.682669,161.357461
60902,-4.342586,0.975389,8.758473,-0.167090,0.289893,0.006082,0.319910,0.089078,0.105829,-0.043392,0.009591,0.087619,0.999998,0.001600,0.000445,0.000529,-0.172507,0.225080,-0.104567,-0.953229,7.901874,27.722109,161.436942
60903,-4.674727,1.337962,8.673024,0.013633,-0.125388,0.129572,0.339547,0.089741,0.138489,-0.046718,0.013200,0.086774,0.999998,0.001698,0.000449,0.000692,-0.172147,0.225129,-0.106393,-0.953081,8.139735,27.759633,161.537604
60904,-4.867769,1.563370,8.623996,0.115714,-0.364984,0.205591,0.298604,0.080965,0.152916,-0.048655,0.015468,0.086283,0.999999,0.001493,0.000405,0.000765,-0.171673,0.225159,-0.108030,-0.952975,8.358031,27.790058,161.647074
60905,-4.627055,1.646118,8.644115,-0.119606,-0.337402,0.122697,0.247047,0.056334,0.139413,-0.046258,0.016322,0.086474,0.999999,0.001235,0.000282,0.000697,-0.171221,0.225126,-0.109388,-0.952909,8.541949,27.807903,161.745517
60906,-4.489470,1.690332,8.592516,-0.226222,-0.328734,0.020145,0.213585,0.056841,0.123502,-0.044881,0.016784,0.085956,0.999999,0.001068,0.000284,0.000618,-0.170806,0.225128,-0.110566,-0.952847,8.701892,27.826561,161.833850
60907,-4.486120,1.692228,8.530822,-0.201329,-0.326008,-0.034293,0.171640,0.038346,0.089110,-0.044852,0.016829,0.085331,1.000000,0.000858,0.000192,0.000446,-0.170518,0.225102,-0.111492,-0.952797,8.826853,27.838134,161.898445
60908,-4.499143,1.754711,8.562495,-0.222718,-0.362000,0.008563,0.126568,0.026676,0.051289,-0.044984,0.017481,0.085642,1.000000,0.000633,0.000133,0.000256,-0.170367,0.225074,-0.112149,-0.952754,8.914047,27.845717,161.937530
60909,-4.577029,1.771417,8.560586,-0.160281,-0.388875,0.046006,0.084455,0.009274,0.018121,-0.045768,0.017674,0.085615,1.000000,0.000422,0.000046,0.000091,-0.170335,0.225022,-0.112555,-0.952724,8.966498,27.846980,161.953805
60910,-4.627279,1.830145,8.556900,-0.136936,-0.452738,0.074576,0.032541,-0.000957,-0.007296,-0.046273,0.018289,0.085572,1.000000,0.000163,-0.000005,-0.000036,-0.170372,0.224976,-0.112674,-0.952714,8.981050,27.844120,161.952758
60911,-4.700041,1.877021,8.639319,-0.125094,-0.492305,0.186984,-0.021984,-0.008581,-0.021234,-0.047002,0.018785,0.086389,1.000000,-0.000110,-0.000043,-0.000106,-0.170417,0.224952,-0.112513,-0.952730,8.959908,27.838787,161.942040
60912,-4.622890,1.749975,8.807028,-0.209251,-0.312390,0.279680,-0.086978,-0.001968,-0.042385,-0.046226,0.017548,0.088062,1.000000,-0.000435,-0.000010,-0.000212,-0.170487,0.225022,-0.112024,-0.952759,8.895489,27.838486,161.918469
60913,-4.806879,1.388578,8.774182,0.089935,-0.050919,0.287304,-0.102474,0.012419,-0.037230,-0.048061,0.013940,0.087738,1.000000,-0.000512,0.000062,-0.000186,-0.170506,0.225176,-0.111479,-0.952783,8.824431,27.846435,161.899617
60914,-4.685045,1.178452,8.708352,0.088031,0.146626,0.144448,-0.088083,0.004713,-0.036389,-0.046846,0.011831,0.087079,1.000000,-0.000440,0.000024,-0.000182,-0.170542,0.225275,-0.110996,-0.952810,8.761465,27.849319,161.880556
60915,-4.672574,1.048381,8.688814,0.130604,0.256200,0.104209,-0.065089,0.011936,-0.018433,-0.046720,0.010516,0.086888,1.000000,-0.000325,0.000060,-0.000092,-0.170515,0.225384,-0.110651,-0.952829,8.717417,27.855322,161.873675
60916,-4.735113,1.059856,8.581976,0.218936,0.193688,0.041726,-0.026502,0.004424,0.010372,-0.047350,0.010607,0.085819,1.000000,-0.000133,0.000022,0.000052,-0.170397,0.225404,-0.110514,-0.952861,8.703706,27.853988,161.884548
60917,-4.568154,1.023078,8.547231,0.105090,0.260797,-0.071496,-0.047310,0.008455,0.019495,-0.045679,0.010247,0.085472,1.000000,-0.000237,0.000042,0.000097,-0.170210,0.225460,-0.110293,-0.952907,8.681034,27.854731,161.901618
60918,-4.936066,1.056688,8.520837,0.414642,0.121773,0.081717,0.050799,-0.038014,0.042195,-0.049379,0.010535,0.085202,1.000000,0.000254,-0.000190,0.000211,-0.170052,0.225195,-0.110524,-0.952971,8.719168,27.826620,161.928670
60919,-4.304121,1.656021,8.465396,-0.312504,-0.269963,-0.181475,-0.015081,-0.063574,0.041006,-0.043072,0.016558,0.084639,1.000000,-0.000075,-0.000318,0.000205,-0.169839,0.224868,-0.110419,-0.953098,8.718072,27.784695,161.952433
60920,-4.571401,1.816220,8.555318,-0.176527,-0.467878,0.043262,-0.034579,-0.055158,0.028567,-0.045740,0.018170,0.085537,1.000000,-0.000173,-0.000276,0.000143,-0.169659,0.224601,-0.110213,-0.953217,8.702407,27.748069,161.969084
60921,-4.295726,2.076427,8.632503,-0.530965,-0.618115,0.016907,-0.126998,-0.074201,0.007254,-0.042990,0.020818,0.086296,1.000000,-0.000635,-0.000371,0.000036,-0.169487,0.224338,-0.109528,-0.953389,8.626640,27.703058,161.970240
60922,-4.348663,1.819076,8.652202,-0.396869,-0.407212,0.023834,-0.199088,-0.041391,-0.019596,-0.043503,0.018281,0.086495,0.999999,-0.000995,-0.000207,-0.000098,-0.169344,0.224302,-0.108496,-0.953541,8.503092,27.678368,161.957491
60923,-4.481863,1.429012,8.759325,-0.184369,-0.077080,0.127884,-0.250520,-0.041934,-0.045693,-0.044834,0.014410,0.087566,0.999999,-0.001253,-0.000210,-0.000228,-0.169268,0.224325,-0.107190,-0.953697,8.342337,27.656094,161.928036
60924,-4.429331,0.960665,8.739231,-0.051368,0.338296,0.025955,-0.229910,-0.033363,-0.071930,-0.044304,0.009723,0.087374,0.999999,-0.001150,-0.000167,-0.000360,-0.169335,0.224381,-0.105959,-0.953809,8.186031,27.640184,161.882682
60925,-4.510021,0.864040,8.812198,0.018594,0.403689,0.115975,-0.187141,-0.019133,-0.076891,-0.045105,0.008740,0.088110,0.999999,-0.000936,-0.000096,-0.000384,-0.169466,0.224475,-0.104939,-0.953876,8.053369,27.633230,161.835475
60926,-4.582705,0.809573,8.756120,0.117261,0.401065,0.094462,-0.136157,-0.010089,-0.064176,-0.045829,0.008170,0.087553,1.000000,-0.000681,-0.000050,-0.000321,-0.169588,0.224558,-0.104183,-0.953918,7.954071,27.629726,161.797320
60927,-4.597950,0.703707,8.723484,0.178397,0.473301,0.060493,-0.088158,-0.002416,-0.044336,-0.045979,0.007086,0.087231,1.000000,-0.000441,-0.000012,-0.000222,-0.169666,0.224631,-0.103685,-0.953941,7.888503,27.629543,161.772486
60928,-4.590569,0.702458,8.670223,0.191653,0.455107,0.010534,-0.028360,-0.003548,-0.029622,-0.045906,0.007044,0.086700,1.000000,-0.000142,-0.000018,-0.000148,-0.169742,0.224635,-0.103488,-0.953948,7.861480,27.626973,161.756974
60929,-4.510377,0.943464,8.650984,0.042451,0.248310,-0.014234,0.018305,-0.004989,-0.014986,-0.045105,0.009430,0.086510,1.000000,0.000092,-0.000025,-0.000075,-0.169801,0.224590,-0.103529,-0.953944,7.865526,27.623006,161.750715
60930,-4.470497,1.253225,8.732189,-0.136941,-0.002399,0.076109,0.034243,0.002914,-0.010034,-0.044703,0.012520,0.087325,1.000000,0.000171,0.000015,-0.000050,-0.169850,0.224563,-0.103657,-0.953928,7.880426,27.622570,161.748319
60931,-4.420356,1.525310,8.699863,-0.267343,-0.246646,0.057542,0.011355,0.010262,-0.018171,-0.044198,0.015252,0.087002,1.000000,0.000057,0.000051,-0.000091,-0.169909,0.224598,-0.103675,-0.953907,7.880170,27.627511,161.741372
60932,-4.449098,1.575646,8.690006,-0.259812,-0.305497,0.068229,-0.037643,0.018286,-0.024983,-0.044481,0.015778,0.086901,1.000000,-0.000188,0.000091,-0.000125,-0.169940,0.224712,-0.103456,-0.953898,7.850083,27.636963,161.730798
60933,-4.510306,1.401989,8.686730,-0.146420,-0.168840,0.072542,-0.071617,0.021203,-0.033186,-0.045092,0.014058,0.086867,1.000000,-0.000358,0.000106,-0.000166,-0.169971,0.224878,-0.103070,-0.953895,7.798265,27.649280,161.715186
60934,-4.573209,1.201154,8.680913,-0.021356,-0.011191,0.072386,-0.093776,0.014111,-0.047870,-0.045723,0.012063,0.086807,1.000000,-0.000469,0.000071,-0.000239,-0.170050,0.225032,-0.102555,-0.953900,7.729050,27.658117,161.689605
60935,-4.620549,1.093012,8.709054,0.042773,0.073853,0.106208,-0.081853,0.013195,-0.047359,-0.046197,0.010977,0.087089,1.000000,-0.000409,0.000066,-0.000237,-0.170142,0.225175,-0.102097,-0.953899,7.666807,27.666945,161.664180
60936,-4.633002,0.938971,8.692470,0.112741,0.199510,0.079374,-0.073982,0.011230,-0.045788,-0.046323,0.009432,0.086924,1.000000,-0.000370,0.000056,-0.000229,-0.170235,0.225297,-0.101677,-0.953899,7.609416,27.673931,161.639572
60937,-4.664454,0.836429,8.689240,0.175330,0.278192,0.079305,-0.038283,0.007893,-0.028392,-0.046640,0.008388,0.086893,1.000000,-0.000191,0.000039,-0.000142,-0.170288,0.225369,-0.101444,-0.953897,7.577561,27.678270,161.625836
60938,-4.629690,0.778012,8.721465,0.154111,0.347567,0.084723,0.001247,-0.004759,-0.020519,-0.046298,0.007784,0.087214,1.000000,0.000006,-0.000024,-0.000103,-0.170354,0.225337,-0.101396,-0.953898,7.570145,27.674261,161.616043
60939,-4.591170,0.871841,8.747812,0.077654,0.279507,0.100890,0.039161,-0.008167,-0.006863,-0.045915,0.008703,0.087478,1.000000,0.000196,-0.000041,-0.000034,-0.170400,0.225255,-0.101543,-0.953894,7.588438,27.667849,161.614742
60940,-4.541539,1.022812,8.725693,-0.008980,0.151605,0.076012,0.061490,-0.006048,-0.002822,-0.045418,0.010202,0.087259,1.000000,0.000307,-0.000030,-0.000014,-0.170449,0.225158,-0.101802,-0.953880,7.620723,27.661782,161.616290
60941,-4.566603,1.105234,8.718714,-0.013118,0.071799,0.091152,0.074694,-0.004453,-0.001322,-0.045668,0.011020,0.087190,1.000000,0.000373,-0.000022,-0.000007,-0.170506,0.225061,-0.102128,-0.953858,7.661169,27.657057,161.618853
60942,-4.576794,1.281629,8.745515,-0.077922,-0.080762,0.140255,0.070288,-0.002790,-0.000426,-0.045769,0.012786,0.087459,1.000000,0.000351,-0.000014,-0.000002,-0.170552,0.224970,-0.102433,-0.953839,7.699320,27.652648,161.622193
60943,-4.576713,1.287091,8.744755,-0.077623,-0.081154,0.140254,0.054091,0.001080,0.001424,-0.045767,0.012847,0.087451,1.000000,0.000270,0.000005,0.000007,-0.170570,0.224915,-0.102669,-0.953823,7.728997,27.650851,161.626990
60944,-4.520886,1.219795,8.688895,-0.075869,-0.014910,0.057329,0.044598,0.002992,0.006667,-0.045208,0.012177,0.086892,1.000000,0.000223,0.000015,0.000033,-0.170551,0.224870,-0.102865,-0.953816,7.754773,27.649153,161.635300
60945,-4.553116,1.103934,8.682480,-0.001733,0.084820,0.052797,0.049681,0.002739,0.002315,-0.045530,0.011017,0.086828,1.000000,0.000248,0.000014,0.000012,-0.170559,0.224826,-0.103082,-0.953801,7.782255,27.648225,161.640812
60946,-4.576527,1.118298,8.613171,0.041898,0.050304,0.004523,0.058412,-0.003338,0.005708,-0.045767,0.011157,0.086134,1.000000,0.000292,-0.000017,0.000029,-0.170561,0.224740,-0.103337,-0.953794,7.815402,27.643029,161.648143
60947,-4.580437,1.266415,8.659940,-0.025765,-0.069855,0.065228,0.057600,-0.007268,0.006342,-0.045808,0.012638,0.086601,1.000000,0.000288,-0.000036,0.000032,-0.170564,0.224640,-0.103587,-0.953790,7.848208,27.636101,161.655351
60948,-4.506573,1.308499,8.717744,-0.123676,-0.068274,0.086832,0.045721,-0.006332,0.005865,-0.045069,0.013064,0.087179,1.000000,0.000229,-0.000032,0.000029,-0.170555,0.224550,-0.103780,-0.953792,7.874011,27.629184,161.662355
60949,-4.519909,1.342273,8.674386,-0.106108,-0.112411,0.059108,0.027012,-0.004740,0.000536,-0.045201,0.013411,0.086745,1.000000,0.000135,-0.000024,0.000003,-0.170549,0.224490,-0.103881,-0.953795,7.887666,27.624141,161.666061
60950,-4.499735,1.286294,8.737617,-0.125842,-0.036721,0.098465,0.016879,-0.002466,-0.005298,-0.044998,0.012857,0.087377,1.000000,0.000084,-0.000012,-0.000026,-0.170559,0.224449,-0.103927,-0.953798,7.893804,27.620293,161.666212
60951,-4.517468,1.269445,8.688808,-0.085130,-0.038795,0.061807,0.014098,0.007056,-0.005680,-0.045171,0.012690,0.086891,1.000000,0.000070,0.000035,-0.000028,-0.170563,0.224461,-0.103968,-0.953790,7.898698,27.622433,161.666982
60952,-4.511916,1.242485,8.708738,-0.087601,-0.006844,0.073442,0.003430,0.001415,-0.012124,-0.045118,0.012426,0.087088,1.000000,0.000017,0.000007,-0.000061,-0.170588,0.224453,-0.103946,-0.953790,7.895264,27.621320,161.663128
60953,-4.560173,1.128636,8.657199,0.015316,0.070232,0.036725,0.009078,0.008833,-0.007881,-0.045597,0.011284,0.086575,1.000000,0.000045,0.000044,-0.000039,-0.170596,0.224478,-0.103963,-0.953781,7.896702,27.624641,161.662647
60954,-4.597621,1.152100,8.698166,0.021593,0.050146,0.092895,0.017178,0.010935,-0.010011,-0.045971,0.011516,0.086985,1.000000,0.000086,0.000055,-0.000050,-0.170622,0.224503,-0.104017,-0.953765,7.902160,27.628759,161.660942
60955,-4.606679,1.247707,8.739089,-0.022847,-0.028015,0.144653,0.016541,0.009556,-0.006520,-0.046062,0.012471,0.087394,1.000000,0.000083,0.000048,-0.000033,-0.170631,0.224524,-0.104071,-0.953752,7.908308,27.632384,161.661397
60956,-4.547889,1.225059,8.689016,-0.044319,-0.003789,0.070687,0.012304,0.005946,-0.008319,-0.045476,0.012247,0.086892,1.000000,0.000062,0.000030,-0.000042,-0.170646,0.224529,-0.104100,-0.953745,7.911282,27.633551,161.660306
60957,-4.548651,1.225634,8.688537,-0.044026,-0.004178,0.070688,0.011334,0.008771,-0.011587,-0.045482,0.012254,0.086888,1.000000,0.000057,0.000044,-0.000058,-0.170674,0.224554,-0.104123,-0.953732,7.912909,27.637130,161.657446
60958,-4.535888,1.204115,8.654555,-0.033613,0.010081,0.032325,0.011538,0.003519,-0.014248,-0.045356,0.012039,0.086547,1.000000,0.000058,0.000018,-0.000071,-0.170718,0.224550,-0.104139,-0.953723,7.913595,27.637395,161.652291
60959,-4.551846,1.202381,8.685001,-0.031798,0.016048,0.066229,0.013136,0.009890,-0.008940,-0.045514,0.012020,0.086853,1.000000,0.000066,0.000049,-0.000045,-0.170735,0.224578,-0.104175,-0.953710,7.917088,27.641400,161.651226
60960,-4.573852,1.227945,8.695181,-0.027024,-0.010404,0.088490,0.011542,0.003521,-0.014245,-0.045736,0.012278,0.086953,1.000000,0.000058,0.000018,-0.000071,-0.170777,0.224574,-0.104191,-0.953701,7.917755,27.641670,161.646308
60961,-4.551144,1.227274,8.686999,-0.042682,-0.005807,0.070693,0.004019,0.001284,-0.009051,-0.045510,0.012273,0.086871,1.000000,0.000020,0.000006,-0.000045,-0.170789,0.224569,-0.104176,-0.953702,7.915635,27.640800,161.644405
60962,-4.568497,1.200712,8.715075,-0.029225,0.021155,0.100138,0.003628,0.003977,-0.009253,-0.045683,0.012008,0.087152,1.000000,0.000018,0.000020,-0.000046,-0.170798,0.224571,-0.104160,-0.953701,7.913268,27.640919,161.642667
60963,-4.595381,1.153100,8.717595,0.010118,0.057868,0.109015,0.006759,-0.000191,-0.011123,-0.045953,0.011531,0.087176,1.000000,0.000034,-0.000001,-0.000056,-0.170824,0.224557,-0.104154,-0.953701,7.912041,27.639375,161.639306
60964,-4.549519,1.151786,8.701469,-0.021418,0.067408,0.073429,0.010998,0.003425,-0.009322,-0.045493,0.011515,0.087016,1.000000,0.000055,0.000017,-0.000047,-0.170842,0.224551,-0.104172,-0.953697,7.913845,27.639191,161.637513
60965,-4.569411,1.201953,8.714425,-0.028263,0.019948,0.100143,0.018947,0.002742,-0.006323,-0.045693,0.012013,0.087146,1.000000,0.000095,0.000014,-0.000032,-0.170856,0.224538,-0.104233,-0.953691,7.921149,27.638933,161.637488
60966,-4.538823,1.199530,8.729022,-0.058272,0.035827,0.098464,0.019527,0.002613,-0.003255,-0.045387,0.011988,0.087292,1.000000,0.000098,0.000013,-0.000016,-0.170856,0.224518,-0.104298,-0.953689,7.929610,27.637817,161.639548
60967,-4.574590,1.256133,8.695942,-0.036246,-0.034289,0.092950,0.013722,0.009766,-0.005868,-0.045741,0.012557,0.086963,1.000000,0.000069,0.000049,-0.000029,-0.170858,0.224543,-0.104340,-0.953678,7.934346,27.641510,161.640442
60968,-4.545958,1.229094,8.707855,-0.054715,0.002638,0.086815,0.014257,0.000311,-0.001769,-0.045459,0.012285,0.087079,1.000000,0.000071,0.000002,-0.000009,-0.170847,0.224515,-0.104380,-0.953682,7.940158,27.638978,161.643053
60969,-4.553999,1.232887,8.684708,-0.039992,-0.009073,0.070702,0.007044,0.003652,-0.006825,-0.045538,0.012327,0.086848,1.000000,0.000035,0.000018,-0.000034,-0.170850,0.224517,-0.104384,-0.953680,7.940530,27.639277,161.642788
60970,-4.562129,1.236408,8.661551,-0.025184,-0.020818,0.054588,0.009235,0.002079,-0.003976,-0.045620,0.012361,0.086617,1.000000,0.000046,0.000010,-0.000020,-0.170843,0.224504,-0.104399,-0.953683,7.942880,27.637922,161.644195
60971,-4.562349,1.236570,8.661412,-0.024890,-0.021204,0.054588,0.000065,0.001509,-0.006554,-0.045622,0.012367,0.086614,1.000000,0.000000,0.000008,-0.000033,-0.170838,0.224501,-0.104369,-0.953688,7.939245,27.636983,161.643912
60972,-4.562448,1.236190,8.661414,-0.024511,-0.021629,0.054588,-0.002376,-0.000989,-0.005711,-0.045625,0.012364,0.086614,1.000000,-0.000012,-0.000005,-0.000029,-0.170827,0.224484,-0.104324,-0.953699,7.934290,27.634021,161.643986
60973,-4.552847,1.256635,8.687090,-0.050178,-0.031756,0.075161,-0.005880,-0.001946,-0.009568,-0.045529,0.012571,0.086870,1.000000,-0.000029,-0.000010,-0.000048,-0.170831,0.224471,-0.104258,-0.953708,7.926211,27.631359,161.641464
60974,-4.583690,1.259224,8.672336,-0.019402,-0.048473,0.076829,-0.014378,-0.001366,-0.007648,-0.045837,0.012600,0.086722,1.000000,-0.000072,-0.000007,-0.000038,-0.170816,0.224463,-0.104153,-0.953724,7.913793,27.628348,161.640314
60975,-4.546755,1.226183,8.707850,-0.052409,-0.000206,0.086828,-0.020620,-0.000847,-0.009433,-0.045467,0.012273,0.087077,1.000000,-0.000103,-0.000004,-0.000047,-0.170803,0.224469,-0.104019,-0.953740,7.897354,27.626298,161.637978
60976,-4.525443,1.198927,8.697551,-0.056475,0.025403,0.064591,-0.019582,-0.002157,-0.012715,-0.045255,0.012001,0.086974,1.000000,-0.000098,-0.000011,-0.000064,-0.170808,0.224464,-0.103884,-0.953755,7.880441,27.623234,161.633260
60977,-4.525502,1.196722,8.697824,-0.056185,0.025014,0.064593,-0.019395,0.000405,-0.009850,-0.045254,0.011978,0.086977,1.000000,-0.000097,0.000002,-0.000049,-0.170797,0.224474,-0.103755,-0.953769,7.864633,27.621927,161.630769
60978,-4.558025,1.165798,8.757102,-0.041217,0.058305,0.127958,-0.017530,0.003038,-0.013757,-0.045578,0.011669,0.087571,1.000000,-0.000088,0.000015,-0.000069,-0.170806,0.224493,-0.103632,-0.953776,7.848783,27.621890,161.626075
60979,-4.575804,1.145793,8.708647,-0.000544,0.056370,0.091261,-0.012992,0.002683,-0.013184,-0.045756,0.011467,0.087086,1.000000,-0.000065,0.000013,-0.000066,-0.170817,0.224511,-0.103533,-0.953781,7.835747,27.622135,161.621650
60980,-4.577711,1.120251,8.706074,0.011351,0.077007,0.086811,-0.004745,-0.001969,-0.011417,-0.045777,0.011207,0.087060,1.000000,-0.000024,-0.000010,-0.000057,-0.170834,0.224493,-0.103470,-0.953789,7.827713,27.619037,161.617638
60981,-4.518655,1.187295,8.721113,-0.069286,0.034682,0.080731,-0.004009,0.000694,-0.013471,-0.045185,0.011878,0.087211,1.000000,-0.000020,0.000003,-0.000067,-0.170858,0.224494,-0.103411,-0.953791,7.819657,27.618173,161.612854
60982,-4.549733,1.190280,8.706176,-0.038501,0.017980,0.082389,-0.003432,0.000561,-0.010406,-0.045496,0.011907,0.087062,1.000000,-0.000017,0.000003,-0.000052,-0.170869,0.224487,-0.103358,-0.953796,7.812766,27.616436,161.609826
60983,-4.495984,1.184799,8.713175,-0.084594,0.038833,0.062958,-0.004008,0.000695,-0.013469,-0.044959,0.011853,0.087132,1.000000,-0.000020,0.000003,-0.000067,-0.170893,0.224487,-0.103299,-0.953798,7.804712,27.615572,161.605043
60984,-4.551906,1.164382,8.703510,-0.026330,0.038233,0.077943,-0.002212,0.001812,-0.010826,-0.045518,0.011647,0.087035,1.000000,-0.000011,0.000009,-0.000054,-0.170904,0.224486,-0.103252,-0.953801,7.798461,27.614625,161.602139
60985,-4.538777,1.141890,8.669828,-0.016075,0.052593,0.039587,0.000227,0.004313,-0.011668,-0.045385,0.011421,0.086699,1.000000,0.000001,0.000022,-0.000058,-0.170923,0.224499,-0.103218,-0.953799,7.793516,27.615675,161.598829
60986,-4.550965,1.187603,8.705897,-0.037175,0.016353,0.082397,0.002325,0.001458,-0.010254,-0.045508,0.011877,0.087059,1.000000,0.000012,0.000007,-0.000051,-0.170938,0.224492,-0.103193,-0.953800,7.790016,27.614462,161.596068
60987,-4.529925,1.162308,8.695151,-0.041359,0.042005,0.060173,0.000713,0.002901,-0.010034,-0.045297,0.011625,0.086952,1.000000,0.000004,0.000015,-0.000050,-0.170950,0.224497,-0.103163,-0.953800,7.785777,27.614582,161.593681
60988,-4.553359,1.162671,8.702978,-0.025012,0.036606,0.077952,0.000713,0.002901,-0.010034,-0.045532,0.011629,0.087030,1.000000,0.000004,0.000015,-0.000050,-0.170958,0.224498,-0.103130,-0.953802,7.781447,27.614188,161.591670
60989,-4.578523,1.139286,8.708072,0.002756,0.052322,0.091283,0.011005,0.003445,-0.009312,-0.045783,0.011390,0.087082,1.000000,0.000055,0.000017,-0.000047,-0.170978,0.224497,-0.103150,-0.953797,7.783341,27.614561,161.589793
60990,-4.540425,1.141460,8.669022,-0.014402,0.050554,0.039600,0.011884,-0.000660,-0.007476,-0.045404,0.011411,0.086691,1.000000,0.000059,-0.000003,-0.000037,-0.170990,0.224470,-0.103171,-0.953798,7.786047,27.611953,161.588913
60991,-4.569236,1.161954,8.733327,-0.022523,0.041720,0.111869,0.017551,-0.001041,-0.008756,-0.045692,0.011614,0.087334,1.000000,0.000088,-0.000005,-0.000044,-0.171016,0.224441,-0.103219,-0.953795,7.791676,27.609736,161.586999
60992,-4.535494,1.216238,8.676592,-0.048231,-0.013485,0.052944,0.018952,0.002770,-0.006314,-0.045353,0.012156,0.086768,1.000000,0.000095,0.000014,-0.000032,-0.171028,0.224424,-0.103277,-0.953791,7.798881,27.608956,161.587285
60993,-4.557188,1.242233,8.686885,-0.043447,-0.039916,0.075163,0.010454,0.003343,-0.004394,-0.045570,0.012419,0.086870,1.000000,0.000052,0.000017,-0.000022,-0.171023,0.224421,-0.103300,-0.953790,7.801916,27.608889,161.588549
60994,-4.560780,1.194511,8.681399,-0.020087,0.001811,0.066273,0.011889,-0.000658,-0.007473,-0.045608,0.011942,0.086815,1.000000,0.000059,-0.000003,-0.000037,-0.171037,0.224393,-0.103322,-0.953792,7.804627,27.606255,161.587370
60995,-4.553114,1.192132,8.704155,-0.034235,0.012698,0.082413,0.011495,0.002035,-0.007675,-0.045530,0.011918,0.087043,1.000000,0.000057,0.000010,-0.000038,-0.171050,0.224384,-0.103345,-0.953789,7.807232,27.605701,161.586418
60996,-4.551657,1.216748,8.706612,-0.045349,-0.008804,0.086859,0.006868,0.001107,-0.009677,-0.045516,0.012167,0.087067,1.000000,0.000034,0.000006,-0.000048,-0.171070,0.224371,-0.103342,-0.953789,7.806509,27.604262,161.583838
60997,-4.522644,1.189098,8.718799,-0.064000,0.028123,0.080787,0.009147,0.000814,-0.005401,-0.045226,0.011888,0.087189,1.000000,0.000046,0.000004,-0.000027,-0.171070,0.224356,-0.103355,-0.953791,7.808393,27.602838,161.584235
60998,-4.547502,1.166158,8.724006,-0.036155,0.043809,0.094116,0.010188,-0.000495,-0.008682,-0.045475,0.011659,0.087241,1.000000,0.000051,-0.000002,-0.000043,-0.171087,0.224332,-0.103367,-0.953792,7.809769,27.600397,161.582408
60999,-4.561485,1.197150,8.680665,-0.018467,-0.000194,0.066276,0.014728,-0.000844,-0.008107,-0.045615,0.011967,0.086807,1.000000,0.000074,-0.000004,-0.000041,-0.171107,0.224307,-0.103403,-0.953791,7.813980,27.598243,161.580926
61000,-4.521326,1.215169,8.720981,-0.074449,0.005791,0.085240,0.009310,0.003610,-0.010517,-0.045211,0.012150,0.087211,1.000000,0.000047,0.000018,-0.000053,-0.171130,0.224304,-0.103412,-0.953786,7.814496,27.598300,161.578321
61001,-4.581997,1.247042,8.693350,-0.024768,-0.048135,0.092928,0.005508,0.006624,-0.013144,-0.045816,0.012471,0.086935,1.000000,0.000028,0.000033,-0.000066,-0.171160,0.224324,-0.103404,-0.953777,7.812233,27.600777,161.574269
61002,-4.551601,1.243070,8.708092,-0.054822,-0.032346,0.091307,0.001203,0.001486,-0.008397,-0.045515,0.012432,0.087081,1.000000,0.000006,0.000007,-0.000042,-0.171164,0.224317,-0.103375,-0.953781,7.808602,27.599417,161.572950
61003,-4.574346,1.151775,8.651596,0.020252,0.029096,0.041250,-0.001469,0.004471,-0.012876,-0.045741,0.011521,0.086517,1.000000,-0.000007,0.000022,-0.000064,-0.171186,0.224333,-0.103332,-0.953778,7.802334,27.600650,161.568881
61004,-4.549693,1.166364,8.722836,-0.034178,0.041362,0.094134,0.002982,0.002842,-0.013730,-0.045495,0.011665,0.087229,1.000000,0.000015,0.000014,-0.000069,-0.171218,0.224334,-0.103308,-0.953775,7.798251,27.600519,161.564000
61005,-4.534862,1.168641,8.691729,-0.035443,0.034679,0.060224,0.009314,0.003615,-0.010513,-0.045346,0.011685,0.086919,1.000000,0.000047,0.000018,-0.000053,-0.171241,0.224335,-0.103318,-0.953769,7.798828,27.601082,161.561368
61006,-4.558396,1.169502,8.699426,-0.019078,0.029299,0.077990,0.005908,0.003935,-0.012937,-0.045581,0.011695,0.086996,1.000000,0.000030,0.000020,-0.000065,-0.171274,0.224338,-0.103310,-0.953764,7.796711,27.601518,161.557006
61007,-4.547777,1.214866,8.727327,-0.056166,-0.002019,0.103020,0.004865,0.005244,-0.009657,-0.045475,0.012149,0.087275,1.000000,0.000024,0.000026,-0.000048,-0.171287,0.224351,-0.103301,-0.953759,7.795059,27.602939,161.555065
61008,-4.562189,1.244785,8.683894,-0.038372,-0.046036,0.075158,0.000063,0.001751,-0.014519,-0.045620,0.012451,0.086839,1.000000,0.000000,0.000009,-0.000073,-0.171320,0.224349,-0.103261,-0.953758,7.789023,27.602255,161.549594
61009,-4.579450,1.217399,8.712106,-0.025057,-0.019041,0.104632,-0.005607,0.002127,-0.013243,-0.045793,0.012179,0.087121,1.000000,-0.000028,0.000011,-0.000066,-0.171341,0.224358,-0.103196,-0.953759,7.780180,27.602185,161.545083
61010,-4.525823,1.211832,8.719113,-0.071133,0.001694,0.085266,-0.007870,0.002182,-0.009543,-0.045257,0.012124,0.087191,1.000000,-0.000039,0.000011,-0.000048,-0.171339,0.224363,-0.103123,-0.953766,7.771070,27.601356,161.543131
61011,-4.540639,1.116812,8.685649,-0.010560,0.074443,0.051365,-0.008353,0.003595,-0.011175,-0.045404,0.011174,0.086857,1.000000,-0.000042,0.000018,-0.000056,-0.171345,0.224379,-0.103049,-0.953769,7.761326,27.601958,161.540073
61012,-4.525473,1.110003,8.731374,-0.039087,0.096506,0.083679,0.001944,0.004155,-0.010446,-0.045252,0.011102,0.087315,1.000000,0.000010,0.000021,-0.000052,-0.171359,0.224386,-0.103024,-0.953768,7.757662,27.602318,161.537554
61013,-4.592047,1.168699,8.683603,0.013631,0.010288,0.079604,0.003957,0.000024,-0.010459,-0.045920,0.011688,0.086836,1.000000,0.000020,0.000000,-0.000052,-0.171378,0.224375,-0.103006,-0.953769,7.755040,27.600837,161.534643
61014,-4.519638,1.214853,8.664959,-0.056924,-0.017463,0.035204,0.001693,0.000078,-0.006760,-0.045196,0.012149,0.086650,1.000000,0.000008,0.000000,-0.000034,-0.171377,0.224360,-0.102980,-0.953775,7.752171,27.598605,161.534006
61015,-4.540801,1.231176,8.752269,-0.079411,-0.015150,0.123627,-0.000010,0.000238,-0.007972,-0.045407,0.012314,0.087523,1.000000,-0.000000,0.000001,-0.000040,-0.171379,0.224352,-0.102947,-0.953781,7.748023,27.597052,161.532708
61016,-4.551994,1.185148,8.724126,-0.041693,0.015390,0.098601,-0.004635,-0.000696,-0.009975,-0.045520,0.011856,0.087241,1.000000,-0.000023,-0.000003,-0.000050,-0.171386,0.224340,-0.102886,-0.953789,7.740539,27.594632,161.530079
61017,-4.552175,1.184159,8.724166,-0.041404,0.015000,0.098603,-0.007866,0.002183,-0.009541,-0.045520,0.011847,0.087242,1.000000,-0.000039,0.000011,-0.000048,-0.171386,0.224349,-0.102815,-0.953794,7.731503,27.594305,161.527945
61018,-4.555670,1.134874,8.718916,-0.018144,0.056783,0.089737,-0.002844,0.000425,-0.007334,-0.045556,0.011352,0.087189,1.000000,-0.000014,0.000002,-0.000037,-0.171381,0.224340,-0.102767,-0.953802,7.725871,27.592319,161.527190
61019,-4.540593,1.136770,8.687991,-0.019420,0.050119,0.055824,0.002344,0.001466,-0.010240,-0.045405,0.011369,0.086880,1.000000,0.000012,0.000007,-0.000051,-0.171396,0.224337,-0.102743,-0.953803,7.722448,27.591638,161.524546
61020,-4.525180,1.130791,8.733739,-0.047952,0.072152,0.088153,0.008585,0.000962,-0.008453,-0.045251,0.011306,0.087338,1.000000,0.000043,0.000005,-0.000042,-0.171409,0.224322,-0.102749,-0.953804,7.723046,27.590031,161.523073
61021,-4.542662,1.113110,8.685067,-0.007329,0.070418,0.051397,0.011508,0.002056,-0.007661,-0.045425,0.011128,0.086852,1.000000,0.000058,0.000010,-0.000038,-0.171422,0.224312,-0.102772,-0.953801,7.725664,27.589487,161.522133
61022,-4.550792,1.117370,8.661806,0.007482,0.058774,0.035236,0.023596,0.003743,-0.004289,-0.045506,0.011164,0.086620,1.000000,0.000118,0.000019,-0.000021,-0.171432,0.224295,-0.102857,-0.953794,7.736220,27.589140,161.523423
61023,-4.516804,1.163908,8.681702,-0.045571,0.032345,0.042516,0.023824,-0.001507,-0.006940,-0.045168,0.011630,0.086818,1.000000,0.000119,-0.000008,-0.000035,-0.171457,0.224258,-0.102936,-0.953790,7.745964,27.586517,161.522634
61024,-4.565866,1.242523,8.682285,-0.033034,-0.052533,0.075145,0.017106,0.000171,-0.002389,-0.045658,0.012418,0.086824,1.000000,0.000086,0.000001,-0.000012,-0.171448,0.224228,-0.102988,-0.953793,7.753188,27.584011,161.525273
61025,-4.511982,1.239309,8.689115,-0.079222,-0.031804,0.055813,0.013700,0.000488,-0.004813,-0.045119,0.012388,0.086892,1.000000,0.000069,0.000002,-0.000024,-0.171451,0.224208,-0.103023,-0.953793,7.757843,27.582357,161.526020
61026,-4.529243,1.213413,8.717117,-0.065850,-0.004856,0.085301,0.006662,0.006373,-0.007010,-0.045289,0.012133,0.087173,1.000000,0.000033,0.000032,-0.000035,-0.171452,0.224219,-0.103026,-0.953790,7.757960,27.583690,161.525976
61027,-4.537529,1.216650,8.693898,-0.051108,-0.016462,0.069134,0.006974,0.002401,-0.008233,-0.045374,0.012165,0.086940,1.000000,0.000035,0.000012,-0.000041,-0.171462,0.224215,-0.103027,-0.953789,7.757824,27.583386,161.524699
61028,-4.577799,1.191065,8.729937,-0.021723,0.005547,0.116370,0.006975,0.002402,-0.008232,-0.045776,0.011909,0.087300,1.000000,0.000035,0.000012,-0.000041,-0.171472,0.224208,-0.103027,-0.953789,7.757631,27.582585,161.523436
61029,-4.538037,1.216920,8.693595,-0.050446,-0.017276,0.069136,0.001698,0.000078,-0.006756,-0.045380,0.012170,0.086936,1.000000,0.000008,0.000000,-0.000034,-0.171471,0.224197,-0.103003,-0.953795,7.754816,27.580848,161.522902
61030,-4.562783,1.193202,8.698944,-0.022629,-0.001528,0.082454,0.002747,-0.001228,-0.010032,-0.045628,0.011933,0.086989,1.000000,0.000014,-0.000006,-0.000050,-0.171488,0.224177,-0.102978,-0.953799,7.751533,27.578117,161.519928
61031,-4.562852,1.192801,8.698963,-0.022338,-0.001915,0.082455,-0.002842,0.000420,-0.007333,-0.045628,0.011931,0.086990,1.000000,-0.000014,0.000002,-0.000037,-0.171484,0.224172,-0.102931,-0.953806,7.745960,27.576619,161.519055
61032,-4.524470,1.185715,8.736786,-0.066893,0.025017,0.097060,0.003086,0.004131,-0.012288,-0.045242,0.011859,0.087369,1.000000,0.000015,0.000021,-0.000061,-0.171511,0.224177,-0.102910,-0.953802,7.742406,27.577086,161.515023
61033,-4.554143,1.213008,8.724266,-0.047545,-0.012644,0.103058,-0.005028,0.001990,-0.010177,-0.045540,0.012135,0.087243,1.000000,-0.000025,0.000010,-0.000051,-0.171517,0.224183,-0.102851,-0.953806,7.734801,27.576698,161.512465
61034,-4.544111,1.141820,8.685489,-0.014498,0.044029,0.055862,-0.003722,0.004525,-0.009169,-0.045439,0.011422,0.086856,1.000000,-0.000019,0.000023,-0.000046,-0.171515,0.224196,-0.102800,-0.953809,7.728238,27.577164,161.511194
61035,-4.533603,1.186558,8.713452,-0.051495,0.012598,0.080892,-0.001453,0.004474,-0.012864,-0.045333,0.011869,0.087135,1.000000,-0.000007,0.000022,-0.000064,-0.171537,0.224212,-0.102757,-0.953806,7.721984,27.578393,161.507131
61036,-4.557093,1.186539,8.721275,-0.035103,0.007233,0.098636,-0.002188,0.001808,-0.010811,-0.045569,0.011869,0.087213,1.000000,-0.000011,0.000009,-0.000054,-0.171550,0.224211,-0.102710,-0.953809,7.715764,27.577477,161.504142
61037,-4.593199,1.117053,8.698324,0.029902,0.054080,0.086924,-0.000231,0.005491,-0.005316,-0.045929,0.011172,0.086984,1.000000,-0.000001,0.000027,-0.000027,-0.171536,0.224226,-0.102683,-0.953810,7.712489,27.578702,161.505002
61038,-4.547509,1.115835,8.682180,-0.001789,0.063549,0.051447,0.009901,0.003505,-0.007436,-0.045473,0.011156,0.086823,1.000000,0.000050,0.000018,-0.000037,-0.171549,0.224221,-0.102699,-0.953808,7.714281,27.578461,161.503871
61039,-4.512272,1.185421,8.704667,-0.066212,0.015917,0.063162,0.011121,0.004760,-0.007855,-0.045120,0.011851,0.087048,1.000000,0.000056,0.000024,-0.000039,-0.171561,0.224225,-0.102723,-0.953802,7.716728,27.579466,161.503041
61040,-4.537282,1.162352,8.709771,-0.038412,0.031682,0.076480,0.007463,0.000996,-0.006595,-0.045372,0.011622,0.087098,1.000000,0.000037,0.000005,-0.000033,-0.171565,0.224209,-0.102726,-0.953805,7.717253,27.577763,161.502681
61041,-4.568558,1.166517,8.694495,-0.007636,0.015164,0.078037,0.012343,0.006016,-0.008273,-0.045682,0.011662,0.086947,1.000000,0.000062,0.000030,-0.000041,-0.171579,0.224219,-0.102755,-0.953797,7.720326,27.579513,161.501692
61042,-4.567319,1.191683,8.696771,-0.018671,-0.006392,0.082460,0.016547,0.000319,-0.005437,-0.045673,0.011911,0.086969,1.000000,0.000083,0.000002,-0.000027,-0.171587,0.224191,-0.102802,-0.953797,7.726336,27.577305,161.502101
61043,-4.542778,1.216008,8.691246,-0.045814,-0.022972,0.069147,0.007465,0.000997,-0.006594,-0.045427,0.012158,0.086913,1.000000,0.000037,0.000005,-0.000033,-0.171591,0.224180,-0.102806,-0.953798,7.726912,27.576077,161.501752
61044,-4.538457,1.164715,8.708843,-0.037113,0.030054,0.076490,0.002525,0.004028,-0.007377,-0.045382,0.011648,0.087089,1.000000,0.000013,0.000020,-0.000037,-0.171588,0.224184,-0.102786,-0.953800,7.724483,27.576180,161.501535
61045,-4.571290,1.144168,8.691057,0.005065,0.034680,0.073620,0.005847,0.002435,-0.006379,-0.045711,0.011441,0.086911,1.000000,0.000029,0.000012,-0.000032,-0.171588,0.224181,-0.102784,-0.953801,7.724253,27.575751,161.501449
61046,-4.517743,1.140531,8.697826,-0.041107,0.055313,0.054341,0.014616,0.005732,-0.003998,-0.045175,0.011400,0.086980,1.000000,0.000073,0.000029,-0.000020,-0.171583,0.224181,-0.102827,-0.953797,7.729813,27.576542,161.503416
61047,-4.555221,1.172405,8.662113,-0.007260,0.006497,0.044121,0.014933,0.001760,-0.005219,-0.045551,0.011719,0.086622,1.000000,0.000075,0.000009,-0.000026,-0.171588,0.224166,-0.102869,-0.953795,7.735105,27.575641,161.504014
61048,-4.545962,1.194898,8.687399,-0.032751,-0.003886,0.064730,0.017120,0.000193,-0.002373,-0.045459,0.011942,0.086875,1.000000,0.000086,0.000001,-0.000012,-0.171578,0.224137,-0.102921,-0.953798,7.742346,27.573179,161.506875
61049,-4.542891,1.244434,8.692341,-0.055237,-0.046550,0.073569,0.013148,0.000636,-0.007857,-0.045428,0.012440,0.086924,1.000000,0.000066,0.000003,-0.000039,-0.171594,0.224120,-0.102950,-0.953796,7.745788,27.571844,161.505685
61050,-4.529014,1.214992,8.735492,-0.072403,-0.003487,0.101532,0.009173,0.000843,-0.005377,-0.045289,0.012147,0.087356,1.000000,0.000046,0.000004,-0.000027,-0.171593,0.224102,-0.102962,-0.953799,7.747653,27.569979,161.506166
61051,-4.501865,1.171274,8.668448,-0.052507,0.025928,0.024854,0.002444,0.002746,-0.008803,-0.045017,0.011714,0.086685,1.000000,0.000012,0.000014,-0.000044,-0.171601,0.224104,-0.102941,-0.953799,7.744766,27.569915,161.504554
61052,-4.529539,1.215169,8.735196,-0.071744,-0.004306,0.101536,0.006904,0.001130,-0.009648,-0.045294,0.012151,0.087353,1.000000,0.000035,0.000006,-0.000048,-0.171619,0.224091,-0.102938,-0.953800,7.744063,27.568516,161.502250
61053,-4.553252,1.223875,8.666212,-0.028071,-0.038200,0.052957,0.001878,0.002877,-0.011861,-0.045531,0.012241,0.086663,1.000000,0.000009,0.000014,-0.000059,-0.171640,0.224096,-0.102911,-0.953797,7.739951,27.568762,161.498691
61054,-4.551840,1.239424,8.745368,-0.066423,-0.031199,0.123685,-0.004772,0.005825,-0.005897,-0.045515,0.012398,0.087455,1.000000,-0.000024,0.000029,-0.000029,-0.171623,0.224115,-0.102861,-0.953802,7.733869,27.569765,161.499324
61055,-4.546556,1.219421,8.688792,-0.041875,-0.027842,0.069152,-0.009881,0.006291,-0.009536,-0.045462,0.012201,0.086889,1.000000,-0.000049,0.000031,-0.000048,-0.171619,0.224145,-0.102783,-0.953804,7.723847,27.571769,161.497551
61056,-4.588886,1.176089,8.645617,0.026211,-0.013223,0.045654,-0.011265,0.002474,-0.011969,-0.045887,0.011769,0.086456,1.000000,-0.000056,0.000012,-0.000060,-0.171626,0.224155,-0.102692,-0.953810,7.712119,27.571334,161.493885
61057,-4.556656,1.195211,8.663298,-0.015382,-0.018662,0.048540,-0.013139,-0.000168,-0.008071,-0.045566,0.011960,0.086632,1.000000,-0.000066,-0.000001,-0.000040,-0.171615,0.224157,-0.102595,-0.953822,7.700404,27.569558,161.492489
61058,-4.502498,1.180980,8.747340,-0.088918,0.030481,0.095608,-0.018245,0.000300,-0.011708,-0.045024,0.011820,0.087472,1.000000,-0.000091,0.000001,-0.000059,-0.171613,0.224163,-0.102469,-0.953834,7.684651,27.567864,161.488970
61059,-4.519989,1.160538,8.698981,-0.048335,0.028925,0.058799,-0.018560,0.004273,-0.010485,-0.045197,0.011616,0.086990,1.000000,-0.000093,0.000021,-0.000052,-0.171604,0.224192,-0.102347,-0.953842,7.669292,27.568794,161.486412
61060,-4.534194,1.180466,8.732455,-0.057754,0.013570,0.097140,-0.016856,0.004119,-0.009271,-0.045340,0.011814,0.087324,1.000000,-0.000084,0.000021,-0.000046,-0.171587,0.224214,-0.102233,-0.953852,7.655168,27.569060,161.485139
61061,-4.567072,1.157915,8.714877,-0.015583,0.018251,0.094250,-0.014662,0.002793,-0.014387,-0.045669,0.011589,0.087149,1.000000,-0.000073,0.000014,-0.000072,-0.171602,0.224234,-0.102124,-0.953857,7.640827,27.569445,161.479955
61062,-4.544432,1.155487,8.706957,-0.031270,0.022761,0.076530,-0.012876,0.003918,-0.011747,-0.045442,0.011563,0.087070,1.000000,-0.000064,0.000020,-0.000059,-0.171609,0.224252,-0.102027,-0.953861,7.628310,27.569781,161.476180
61063,-4.561867,1.127145,8.735155,-0.018030,0.049749,0.106044,-0.016114,0.006791,-0.011316,-0.045615,0.011281,0.087352,1.000000,-0.000081,0.000034,-0.000057,-0.171606,0.224291,-0.101919,-0.953864,7.614206,27.572202,161.473305
61064,-4.597971,1.056695,8.712208,0.046927,0.096725,0.094328,-0.007124,0.004597,-0.003625,-0.045978,0.010571,0.087123,1.000000,-0.000036,0.000023,-0.000018,-0.171578,0.224304,-0.101859,-0.953873,7.607421,27.572354,161.475124
61065,-4.527405,1.078448,8.690988,-0.012318,0.089965,0.045582,0.001066,-0.001059,-0.011232,-0.045274,0.010787,0.086910,1.000000,0.000005,-0.000005,-0.000056,-0.171598,0.224291,-0.101825,-0.953876,7.602874,27.570309,161.471631
61066,-4.601600,1.131906,8.696863,0.027966,0.021316,0.091359,0.010555,0.004668,-0.002940,-0.046014,0.011315,0.086970,1.000000,0.000053,0.000023,-0.000015,-0.171590,0.224287,-0.101852,-0.953875,7.606422,27.570390,161.473346
61067,-4.495373,1.099966,8.708296,-0.053554,0.084073,0.048489,0.008436,-0.001817,-0.003326,-0.044954,0.010997,0.087083,1.000000,0.000042,-0.000009,-0.000017,-0.171581,0.224260,-0.101861,-0.953882,7.608412,27.567315,161.474853
61068,-4.558457,1.199527,8.742339,-0.050435,-0.015762,0.119286,0.014852,0.000495,-0.006640,-0.045584,0.011990,0.087424,1.000000,0.000074,0.000002,-0.000033,-0.171591,0.224236,-0.101898,-0.953882,7.613104,27.565329,161.474711
61069,-4.529613,1.180667,8.677811,-0.041979,-0.007422,0.047026,0.007554,0.002289,-0.005160,-0.045295,0.011805,0.086779,1.000000,0.000038,0.000011,-0.000026,-0.171587,0.224230,-0.101905,-0.953884,7.614207,27.564726,161.475395
61070,-4.538809,1.151515,8.728906,-0.043141,0.030670,0.092754,0.007392,-0.000270,-0.008012,-0.045388,0.011514,0.087289,1.000000,0.000037,-0.000001,-0.000040,-0.171599,0.224210,-0.101906,-0.953886,7.614227,27.562427,161.473969
61071,-4.540611,1.127830,8.726110,-0.031507,0.051444,0.088348,0.011695,0.004648,-0.004784,-0.045404,0.011274,0.087263,1.000000,0.000058,0.000023,-0.000024,-0.171597,0.224211,-0.101935,-0.953883,7.617908,27.563134,161.475096
61072,-4.547169,1.155906,8.705472,-0.028031,0.018718,0.076548,0.015994,0.000476,-0.008481,-0.045471,0.011554,0.087056,1.000000,0.000080,0.000002,-0.000042,-0.171613,0.224188,-0.101974,-0.953882,7.622682,27.561297,161.474227
61073,-4.564118,1.130240,8.733579,-0.014804,0.045705,0.106068,0.010878,0.000700,-0.004159,-0.045641,0.011299,0.087337,1.000000,0.000054,0.000004,-0.000021,-0.171609,0.224171,-0.101997,-0.953884,7.625924,27.559715,161.475415
61074,-4.545909,1.182030,8.707654,-0.038728,-0.003260,0.080958,0.016641,0.001625,-0.003997,-0.045458,0.011814,0.087078,1.000000,0.000083,0.000008,-0.000020,-0.171606,0.224150,-0.102046,-0.953884,7.632464,27.558193,161.477234
61075,-4.518403,1.255020,8.707239,-0.088523,-0.062230,0.076465,0.010317,0.000833,-0.007215,-0.045183,0.012547,0.087073,1.000000,0.000052,0.000004,-0.000036,-0.171616,0.224135,-0.102062,-0.953884,7.634484,27.556919,161.476476
61076,-4.530897,1.185677,8.676458,-0.039671,-0.010280,0.047033,0.006257,-0.000246,-0.006164,-0.045309,0.011855,0.086765,1.000000,0.000031,-0.000001,-0.000031,-0.171616,0.224115,-0.102059,-0.953889,7.634372,27.554467,161.476395
61077,-4.568004,1.208186,8.717686,-0.033052,-0.030550,0.103077,0.000832,0.004190,-0.008581,-0.045678,0.012083,0.087178,1.000000,0.000004,0.000021,-0.000043,-0.171620,0.224126,-0.102032,-0.953889,7.630685,27.555203,161.475050
61078,-4.554664,1.185802,8.684087,-0.022952,-0.016009,0.064745,-0.002089,0.003088,-0.009375,-0.045545,0.011861,0.086841,1.000000,-0.000010,0.000015,-0.000047,-0.171623,0.224130,-0.101987,-0.953892,7.624969,27.554910,161.473360
61079,-4.541060,1.155286,8.727237,-0.040271,0.027015,0.092777,-0.000226,0.005494,-0.005311,-0.045408,0.011554,0.087274,1.000000,-0.000001,0.000027,-0.000027,-0.171610,0.224146,-0.101960,-0.953894,7.621697,27.556137,161.474222
61080,-4.566322,1.131041,8.732323,-0.012510,0.042845,0.106084,-0.005812,0.007370,-0.010579,-0.045659,0.011315,0.087325,1.000000,-0.000029,0.000037,-0.000053,-0.171612,0.224175,-0.101899,-0.953893,7.613662,27.558363,161.472167
61081,-4.522279,1.104941,8.713686,-0.033039,0.073463,0.066267,0.000834,0.004192,-0.008580,-0.045220,0.011051,0.087138,1.000000,0.000004,0.000021,-0.000043,-0.171616,0.224185,-0.101872,-0.953893,7.609976,27.559100,161.470823
61082,-4.584631,1.112012,8.683297,0.028395,0.040984,0.069244,0.006757,0.007679,-0.005565,-0.045843,0.011118,0.086835,1.000000,0.000034,0.000038,-0.000028,-0.171604,0.224203,-0.101877,-0.953890,7.610636,27.561175,161.472431
61083,-4.528245,1.156922,8.695168,-0.040588,0.019190,0.058858,0.013981,0.004611,-0.008465,-0.045280,0.011565,0.086954,1.000000,0.000070,0.000023,-0.000042,-0.171622,0.224204,-0.101913,-0.953883,7.614534,27.562141,161.471197
61084,-4.558112,1.185398,8.682333,-0.021013,-0.018429,0.064745,0.011141,0.004789,-0.007833,-0.045579,0.011851,0.086825,1.000000,0.000056,0.000024,-0.000039,-0.171630,0.224206,-0.101935,-0.953879,7.616943,27.562757,161.470807
61085,-4.557028,1.210291,8.684582,-0.032044,-0.039993,0.069147,0.010483,0.003399,-0.004358,-0.045569,0.012099,0.086847,1.000000,0.000052,0.000017,-0.000022,-0.171626,0.224202,-0.101958,-0.953878,7.620006,27.562723,161.472100
61086,-4.552537,1.159234,8.702223,-0.023517,0.013046,0.076569,0.002939,0.001345,-0.007160,-0.045524,0.011593,0.087023,1.000000,0.000015,0.000007,-0.000036,-0.171623,0.224193,-0.101938,-0.953882,7.617747,27.561273,161.471831
61087,-4.547981,1.108246,8.719895,-0.015069,0.066124,0.083994,0.012105,0.001966,-0.004570,-0.045479,0.011078,0.087200,1.000000,0.000061,0.000010,-0.000023,-0.171622,0.224181,-0.101967,-0.953882,7.621620,27.560441,161.472865
61088,-4.559057,1.063688,8.691555,0.022388,0.096965,0.058972,0.016168,0.003049,-0.005617,-0.045589,0.010631,0.086917,1.000000,0.000081,0.000015,-0.000028,-0.171628,0.224168,-0.102014,-0.953879,7.627492,27.559852,161.473433
61089,-4.554619,1.137801,8.698996,-0.011269,0.033034,0.072173,0.022658,-0.002686,-0.006463,-0.045547,0.011370,0.086991,1.000000,0.000113,-0.000013,-0.000032,-0.171650,0.224126,-0.102087,-0.953877,7.636665,27.556522,161.472855
61090,-4.546736,1.136967,8.721734,-0.025388,0.043709,0.088403,0.029066,-0.000604,-0.001814,-0.045468,0.011357,0.087219,1.000000,0.000145,-0.000003,-0.000009,-0.171653,0.224082,-0.102196,-0.953875,7.650884,27.553567,161.475796
61091,-4.517671,1.235587,8.723663,-0.086420,-0.036509,0.088298,0.025746,0.000985,-0.002813,-0.045176,0.012345,0.087238,1.000000,0.000129,0.000005,-0.000014,-0.171659,0.224053,-0.102292,-0.953871,7.663053,27.552043,161.477869
61092,-4.547200,1.265008,8.710824,-0.066810,-0.074122,0.094168,0.016657,0.001642,-0.003980,-0.045471,0.012644,0.087110,1.000000,0.000083,0.000008,-0.000020,-0.171660,0.224032,-0.102342,-0.953870,7.669650,27.550566,161.479349
61093,-4.525770,1.241072,8.700172,-0.071293,-0.048417,0.072070,0.008049,0.000886,-0.003518,-0.045257,0.012408,0.087002,1.000000,0.000040,0.000004,-0.000018,-0.171649,0.224018,-0.102352,-0.953874,7.671467,27.549040,161.480962
61094,-4.549075,1.241840,8.707944,-0.054837,-0.053749,0.089769,0.000178,0.002799,-0.005106,-0.045489,0.012419,0.087080,1.000000,0.000001,0.000014,-0.000026,-0.171641,0.224016,-0.102324,-0.953879,7.668339,27.548229,161.481265
61095,-4.563078,1.147376,8.674806,0.005140,0.019529,0.055950,-0.002824,0.000412,-0.007326,-0.045630,0.011477,0.086748,1.000000,-0.000014,0.000002,-0.000037,-0.171637,0.224011,-0.102278,-0.953886,7.662780,27.546724,161.480399
61096,-4.563369,1.146927,8.674712,0.005496,0.019112,0.055951,0.000838,0.004188,-0.008579,-0.045631,0.011471,0.086748,1.000000,0.000004,0.000021,-0.000043,-0.171638,0.224018,-0.102249,-0.953887,7.659036,27.547022,161.479313
61097,-4.554412,1.167974,8.700074,-0.019993,0.008622,0.076581,-0.001042,0.001541,-0.004687,-0.045543,0.011681,0.087001,1.000000,-0.000005,0.000008,-0.000023,-0.171623,0.224016,-0.102215,-0.953894,7.655324,27.545956,161.480234
61098,-4.555997,1.143471,8.697531,-0.008337,0.029400,0.072187,0.001644,-0.001196,-0.008164,-0.045560,0.011436,0.086975,1.000000,0.000008,-0.000006,-0.000041,-0.171631,0.223996,-0.102188,-0.953901,7.651988,27.543162,161.478430
61099,-4.549672,1.116449,8.717966,-0.011234,0.061290,0.084031,0.009033,-0.001696,-0.008207,-0.045497,0.011162,0.087180,1.000000,0.000045,-0.000008,-0.000041,-0.171646,0.223971,-0.102195,-0.953903,7.652877,27.540528,161.476819
61100,-4.532793,1.143581,8.689592,-0.023784,0.033506,0.054496,0.012438,-0.002000,-0.005779,-0.045328,0.011432,0.086896,1.000000,0.000062,-0.000010,-0.000029,-0.171656,0.223937,-0.102221,-0.953906,7.656409,27.537100,161.476350
61101,-4.546641,1.166247,8.722872,-0.033176,0.018098,0.092823,0.011476,0.000823,-0.009042,-0.045466,0.011660,0.087230,1.000000,0.000057,0.000004,-0.000045,-0.171676,0.223922,-0.102241,-0.953904,7.658551,27.535960,161.474421
61102,-4.517458,1.139386,8.735187,-0.052103,0.054864,0.086979,0.016102,0.001779,-0.007031,-0.045173,0.011388,0.087353,1.000000,0.000081,0.000009,-0.000035,-0.171694,0.223903,-0.102287,-0.953900,7.663974,27.534796,161.473474
61103,-4.533280,1.146097,8.689006,-0.022859,0.032324,0.054502,0.014402,0.001932,-0.008244,-0.045331,0.011457,0.086891,1.000000,0.000072,0.000010,-0.000041,-0.171713,0.223891,-0.102323,-0.953896,7.668073,27.534224,161.472151
61104,-4.562880,1.174621,8.676245,-0.003210,-0.005269,0.060347,0.013182,0.000673,-0.007825,-0.045628,0.011742,0.086763,1.000000,0.000066,0.000003,-0.000039,-0.171732,0.223870,-0.102352,-0.953894,7.671507,27.532438,161.470568
61105,-4.522911,1.193143,8.716604,-0.059259,0.000190,0.079531,0.009778,0.000976,-0.010252,-0.045228,0.011929,0.087167,1.000000,0.000049,0.000005,-0.000051,-0.171756,0.223858,-0.102363,-0.953892,7.672324,27.531478,161.467877
61106,-4.546193,1.194334,8.724327,-0.042801,-0.005129,0.097223,0.014327,0.000653,-0.009665,-0.045461,0.011939,0.087244,1.000000,0.000072,0.000003,-0.000048,-0.171786,0.223837,-0.102396,-0.953888,7.675891,27.529840,161.465027
61107,-4.531115,1.197218,8.693256,-0.044127,-0.011686,0.063291,0.008716,0.002281,-0.006986,-0.045310,0.011970,0.086934,1.000000,0.000044,0.000011,-0.000035,-0.171793,0.223830,-0.102407,-0.953887,7.677118,27.529371,161.464539
61108,-4.554588,1.197987,8.700936,-0.027672,-0.017011,0.080981,0.004830,0.003992,-0.011046,-0.045543,0.011980,0.087011,1.000000,0.000024,0.000020,-0.000055,-0.171810,0.223835,-0.102394,-0.953884,7.674906,27.529745,161.461972
61109,-4.525661,1.170233,8.713256,-0.046685,0.019769,0.075149,0.004830,0.003993,-0.011045,-0.045254,0.011703,0.087134,1.000000,0.000024,0.000020,-0.000055,-0.171830,0.223842,-0.102383,-0.953880,7.672774,27.530558,161.459033
61110,-4.524677,1.194176,8.715546,-0.057602,-0.001867,0.079541,-0.000860,0.004337,-0.009791,-0.045244,0.011944,0.087156,1.000000,-0.000004,0.000022,-0.000049,-0.171834,0.223852,-0.102344,-0.953881,7.667663,27.531012,161.457415
61111,-4.548360,1.194088,8.723231,-0.041211,-0.007156,0.097229,-0.001900,0.005877,-0.014477,-0.045480,0.011945,0.087234,1.000000,-0.000009,0.000029,-0.000072,-0.171862,0.223876,-0.102299,-0.953875,7.660734,27.533156,161.452441
61112,-4.527334,1.168494,8.712620,-0.045675,0.018524,0.075156,-0.002561,0.004488,-0.011004,-0.045271,0.011689,0.087127,1.000000,-0.000013,0.000022,-0.000055,-0.171875,0.223888,-0.102252,-0.953875,7.654335,27.533755,161.449365
61113,-4.555952,1.219556,8.702329,-0.037339,-0.040237,0.085369,-0.003523,0.007310,-0.014267,-0.045555,0.012200,0.087025,1.000000,-0.000018,0.000037,-0.000071,-0.171900,0.223920,-0.102201,-0.953869,7.646595,27.536697,161.444648
61114,-4.542335,1.188319,8.745681,-0.054678,0.002664,0.113482,-0.011404,-0.000122,-0.014815,-0.045423,0.011892,0.087456,1.000000,-0.000057,-0.000001,-0.000074,-0.171923,0.223920,-0.102104,-0.953875,7.633839,27.535026,161.438923
61115,-4.504262,1.188262,8.706989,-0.072114,0.001011,0.061866,-0.014576,0.004024,-0.012973,-0.045040,0.011892,0.087070,1.000000,-0.000073,0.000020,-0.000065,-0.171931,0.223945,-0.101998,-0.953879,7.620018,27.536001,161.434751
61116,-4.544635,1.160455,8.743218,-0.042762,0.023058,0.109100,-0.013430,0.004004,-0.014812,-0.045444,0.011614,0.087432,1.000000,-0.000067,0.000020,-0.000074,-0.171948,0.223966,-0.101895,-0.953882,7.606245,27.536639,161.429414
61117,-4.531278,1.136648,8.709822,-0.032836,0.037726,0.070781,-0.014572,0.004026,-0.012970,-0.045310,0.011376,0.087098,1.000000,-0.000073,0.000020,-0.000065,-0.171956,0.223991,-0.101789,-0.953886,7.592427,27.537614,161.425244
61118,-4.580894,1.087673,8.720500,0.022247,0.069949,0.097376,-0.008803,0.004966,-0.012799,-0.045806,0.010884,0.087206,1.000000,-0.000044,0.000025,-0.000064,-0.171966,0.224013,-0.101710,-0.953887,7.581953,27.538703,161.421604
61119,-4.527380,1.082841,8.727550,-0.024173,0.090397,0.078272,-0.000374,0.002933,-0.008154,-0.045272,0.010830,0.087276,1.000000,-0.000002,0.000015,-0.000041,-0.171968,0.224018,-0.101677,-0.953889,7.577652,27.538691,161.420425
61120,-4.557264,1.109935,8.714832,-0.004486,0.052821,0.084085,-0.000266,0.004456,-0.014678,-0.045570,0.011103,0.087149,1.000000,-0.000001,0.000022,-0.000073,-0.171995,0.224031,-0.101636,-0.953886,7.571460,27.539607,161.415653
61121,-4.534616,1.109400,8.706705,-0.020313,0.057327,0.066408,0.010496,0.003423,-0.004344,-0.045344,0.011090,0.087068,1.000000,0.000052,0.000017,-0.000022,-0.171991,0.224027,-0.101659,-0.953885,7.574536,27.539585,161.416957
61122,-4.555165,1.159127,8.719373,-0.026355,0.009575,0.092856,0.012711,0.002103,-0.009445,-0.045550,0.011588,0.087195,1.000000,0.000064,0.000011,-0.000047,-0.172009,0.224015,-0.101683,-0.953882,7.577228,27.538768,161.415350
61123,-4.547670,1.156957,8.742103,-0.040554,0.020225,0.109115,0.011567,0.002124,-0.007605,-0.045475,0.011566,0.087422,1.000000,0.000058,0.000011,-0.000038,-0.172022,0.224006,-0.101706,-0.953879,7.579899,27.538255,161.414453
61124,-4.555849,1.160445,8.718840,-0.025709,0.008765,0.092858,0.012308,0.004797,-0.009651,-0.045556,0.011601,0.087190,1.000000,0.000062,0.000024,-0.000048,-0.172044,0.224006,-0.101732,-0.953872,7.582433,27.538966,161.412435
61125,-4.539607,1.187705,8.690130,-0.038294,-0.018990,0.063304,0.012865,0.004667,-0.006597,-0.045394,0.011873,0.086903,1.000000,0.000064,0.000023,-0.000033,-0.172051,0.224008,-0.101765,-0.953867,7.586248,27.539821,161.412401
61126,-4.579732,1.162267,8.726147,-0.008952,0.003070,0.110536,0.007428,-0.000248,-0.007983,-0.045797,0.011621,0.087262,1.000000,0.000037,-0.000001,-0.000040,-0.172062,0.223988,-0.101766,-0.953870,7.586301,27.537581,161.411080
61127,-4.538613,1.213065,8.692256,-0.048892,-0.041019,0.067686,0.012126,0.001996,-0.004549,-0.045385,0.012126,0.086924,1.000000,0.000061,0.000010,-0.000023,-0.172061,0.223976,-0.101795,-0.953870,7.590193,27.536764,161.412131
61128,-4.563337,1.189854,8.697467,-0.021174,-0.025106,0.080980,0.004657,0.001203,-0.005934,-0.045632,0.011898,0.086975,1.000000,0.000023,0.000006,-0.000030,-0.172056,0.223964,-0.101785,-0.953874,7.589293,27.535158,161.412407
61129,-4.533875,1.162018,8.710085,-0.040253,0.011648,0.075190,-0.001336,-0.003584,-0.010372,-0.045340,0.011623,0.087100,1.000000,-0.000007,-0.000018,-0.000052,-0.172071,0.223940,-0.101739,-0.953882,7.583527,27.531613,161.409252
61130,-4.543074,1.140270,8.684656,-0.014176,0.021441,0.054548,0.002957,0.001353,-0.007147,-0.045430,0.011403,0.086847,1.000000,0.000015,0.000007,-0.000036,-0.172075,0.223931,-0.101721,-0.953886,7.581379,27.530238,161.408149
61131,-4.532573,1.185689,8.712601,-0.050849,-0.010378,0.079573,-0.000040,-0.001041,-0.009366,-0.045326,0.011859,0.087126,1.000000,-0.000000,-0.000005,-0.000047,-0.172085,0.223918,-0.101685,-0.953891,7.576755,27.528061,161.405855
61132,-4.563487,1.188405,8.697586,-0.019878,-0.026702,0.080978,-0.004587,-0.000723,-0.009955,-0.045635,0.011888,0.086975,1.000000,-0.000023,-0.000004,-0.000050,-0.172096,0.223906,-0.101626,-0.953898,7.569348,27.525671,161.402748
61133,-4.520205,1.138028,8.676874,-0.029371,0.025143,0.036881,-0.005658,0.000577,-0.006693,-0.045201,0.011384,0.086769,1.000000,-0.000028,0.000003,-0.000033,-0.172085,0.223904,-0.101567,-0.953907,7.562361,27.524211,161.402304
61134,-4.537024,1.110669,8.705289,-0.016159,0.052092,0.066445,-0.004586,-0.000722,-0.009954,-0.045370,0.011111,0.087052,1.000000,-0.000023,-0.000004,-0.000050,-0.172091,0.223893,-0.101507,-0.953915,7.554920,27.521848,161.399847
61135,-4.528005,1.131777,8.730714,-0.041595,0.041489,0.087093,0.005879,0.002467,-0.006349,-0.045279,0.011317,0.087308,1.000000,0.000029,0.000012,-0.000032,-0.172091,0.223890,-0.101505,-0.953915,7.554718,27.521435,161.399784
61136,-4.528001,1.131894,8.730700,-0.041239,0.041073,0.087097,0.002624,-0.004011,-0.004891,-0.045281,0.011319,0.087306,1.000000,0.000013,-0.000020,-0.000024,-0.172088,0.223854,-0.101484,-0.953927,7.552810,27.516794,161.399528
61137,-4.526654,1.156189,8.733165,-0.052178,0.019449,0.091475,0.004253,0.003898,-0.006141,-0.045264,0.011561,0.087333,1.000000,0.000021,0.000019,-0.000031,-0.172085,0.223859,-0.101475,-0.953927,7.551795,27.517179,161.399721
61138,-4.527008,1.156239,8.732975,-0.051825,0.019024,0.091478,0.003032,0.002636,-0.005724,-0.045269,0.011562,0.087331,1.000000,0.000015,0.000013,-0.000029,-0.172076,0.223855,-0.101459,-0.953931,7.550083,27.516385,161.400382
61139,-4.558201,1.159601,8.717723,-0.020917,0.002743,0.092873,0.005325,0.002599,-0.009400,-0.045580,0.011596,0.087178,1.000000,0.000027,0.000013,-0.000047,-0.172090,0.223855,-0.101451,-0.953930,7.548667,27.516276,161.398377
61140,-4.546002,1.113432,8.681699,0.000229,0.038675,0.050186,0.004179,0.002617,-0.007562,-0.045458,0.011134,0.086818,1.000000,0.000021,0.000013,-0.000038,-0.172088,0.223852,-0.101437,-0.953932,7.547074,27.515662,161.398144
61141,-4.535844,1.159318,8.709419,-0.036413,0.006817,0.075210,0.008322,0.004994,-0.007181,-0.045356,0.011591,0.087096,1.000000,0.000042,0.000025,-0.000036,-0.172094,0.223859,-0.101448,-0.953928,7.548125,27.516747,161.397764
61142,-4.565741,1.187104,8.696581,-0.016643,-0.030721,0.080973,0.004180,0.002618,-0.007561,-0.045656,0.011871,0.086967,1.000000,0.000021,0.000013,-0.000038,-0.172103,0.223854,-0.101437,-0.953929,7.546588,27.516062,161.396230
61143,-4.528787,1.156841,8.731972,-0.050260,0.017016,0.091490,0.005881,0.002470,-0.006347,-0.045286,0.011567,0.087321,1.000000,0.000029,0.000012,-0.000032,-0.172103,0.223851,-0.101435,-0.953930,7.546388,27.515651,161.396169
61144,-4.547487,1.114249,8.680816,0.001499,0.037084,0.050192,0.009396,0.003696,-0.010439,-0.045473,0.011141,0.086810,1.000000,0.000047,0.000018,-0.000052,-0.172124,0.223850,-0.101445,-0.953925,7.547001,27.515851,161.393799
61145,-4.534332,1.208912,8.713591,-0.057547,-0.037277,0.083959,0.010764,-0.001817,-0.006969,-0.045344,0.012086,0.087136,1.000000,0.000054,-0.000009,-0.000035,-0.172135,0.223822,-0.101462,-0.953928,7.549247,27.513052,161.392976
61146,-4.542240,1.212044,8.690504,-0.042701,-0.048684,0.067680,0.005329,0.002600,-0.009398,-0.045421,0.012120,0.086906,1.000000,0.000027,0.000013,-0.000047,-0.172150,0.223818,-0.101454,-0.953927,7.547836,27.512575,161.390800
61147,-4.556485,1.233674,8.723732,-0.051975,-0.064201,0.105991,-0.003287,0.001818,-0.008947,-0.045564,0.012340,0.087238,1.000000,-0.000016,0.000009,-0.000045,-0.172153,0.223821,-0.101405,-0.953931,7.541589,27.511989,161.389019
61148,-4.536405,1.183517,8.710902,-0.045351,-0.017249,0.079590,-0.012457,0.001166,-0.011547,-0.045363,0.011843,0.087109,1.000000,-0.000062,0.000006,-0.000058,-0.172155,0.223827,-0.101307,-0.953940,7.529248,27.510850,161.385873
61149,-4.507265,1.154330,8.723538,-0.064495,0.019476,0.073844,-0.012863,0.003859,-0.011754,-0.045070,0.011552,0.087236,1.000000,-0.000064,0.000019,-0.000059,-0.172159,0.223850,-0.101211,-0.953944,7.516764,27.511633,161.382467
61150,-4.532349,1.129369,8.728771,-0.036804,0.035423,0.087136,-0.004100,0.007204,-0.009362,-0.045320,0.011298,0.087289,1.000000,-0.000020,0.000036,-0.000047,-0.172156,0.223876,-0.101160,-0.953944,7.510056,27.513703,161.381300
61151,-4.558799,1.080264,8.731489,0.002016,0.072660,0.096058,-0.010012,0.003694,-0.012377,-0.045586,0.010810,0.087315,1.000000,-0.000050,0.000018,-0.000062,-0.172166,0.223895,-0.101076,-0.953946,7.499014,27.514439,161.377481
61152,-4.534147,0.978865,8.736347,0.016515,0.173099,0.077216,-0.001062,0.009846,-0.015080,-0.045336,0.009793,0.087366,1.000000,-0.000005,0.000049,-0.000075,-0.172196,0.223934,-0.101036,-0.953936,7.492452,27.518396,161.372492
61153,-4.593836,1.034381,8.710738,0.055680,0.098497,0.088698,0.024193,0.002747,-0.010501,-0.045937,0.010336,0.087109,1.000000,0.000121,0.000014,-0.000053,-0.172236,0.223918,-0.101117,-0.953924,7.501526,27.518453,161.369794
61154,-4.515275,1.204572,8.704144,-0.070746,-0.036067,0.066306,0.029296,0.002306,-0.006858,-0.045151,0.012035,0.087044,1.000000,0.000146,0.000012,-0.000034,-0.172268,0.223891,-0.101226,-0.953913,7.514556,27.517563,161.369000
