// General information: 
//  MT Manager version: 2022.0.0 
//  XDA version: 2022.0.0 build 7085 rev 119802 built on 2022-11-08
// Device information: 
//  DeviceId: 00B4737C
//  ProductCode: MTW2-3A7G6
//  Firmware Version: 4.14.0
//  Hardware Version: 2.0.0
// Device settings: 
//  Filter Profile: human(46.1)
//  Option Flags: Orientation Smoother Disabled, Position/Velocity Smoother Disabled, Continuous Zero Rotation Update Disabled, AHS Disabled, ICC Disabled
// Coordinate system: ENU
PacketCounter,Acc_X,Acc_Y,Acc_Z,FreeAcc_E,FreeAcc_N,FreeAcc_U,Gyr_X,Gyr_Y,Gyr_Z,VelInc_X,VelInc_Y,VelInc_Z,OriInc_q0,OriInc_q1,OriInc_q2,OriInc_q3,Quat_q0,Quat_q1,Quat_q2,Quat_q3,Roll,Pitch,Yaw
35192,0.708325,3.799289,8.724644,0.260213,0.359763,-0.280715,0.233612,0.164869,-0.259271,0.007204,0.037882,0.087285,0.999998,0.001168,0.000824,-0.001296,-0.580975,-0.068508,0.193795,0.787540,22.800237,-6.734836,-108.526490
35193,0.555135,3.933813,8.966364,0.320767,0.507669,-0.024019,0.176023,0.207361,-0.217517,0.005687,0.039253,0.089692,0.999998,0.000880,0.001037,-0.001088,-0.580306,-0.069999,0.193797,0.787901,22.904275,-6.581589,-108.589829
35194,0.738893,3.971275,8.988380,0.268911,0.308593,0.033141,0.066004,0.236756,-0.162723,0.007528,0.039677,0.089888,0.999999,0.000330,0.001184,-0.000814,-0.579919,-0.071235,0.193298,0.788198,22.940988,-6.424862,-108.617232
35195,0.742099,3.769414,8.956744,0.089011,0.323694,-0.072580,-0.016326,0.292947,-0.086720,0.007569,0.037698,0.089553,0.999999,-0.000082,0.001465,-0.000434,-0.579914,-0.072379,0.192339,0.788332,22.924648,-6.255567,-108.591646
35196,0.788735,3.991407,8.852651,0.303745,0.171055,-0.076093,-0.103786,0.325441,-0.017158,0.008035,0.039959,0.088493,0.999999,-0.000519,0.001627,-0.000086,-0.580244,-0.073331,0.190965,0.788335,22.853493,-6.084444,-108.521959
35197,1.062615,3.793675,8.712779,0.095385,-0.101167,-0.251610,-0.200689,0.386670,0.040956,0.010787,0.038026,0.087069,0.999998,-0.001003,0.001933,0.000205,-0.580895,-0.074187,0.189053,0.788236,22.722466,-5.893911,-108.408094
35198,0.907771,3.767368,8.921785,0.061823,0.057496,-0.086018,-0.217068,0.433129,0.105789,0.009251,0.037775,0.089157,0.999997,-0.001085,0.002166,0.000529,-0.581849,-0.075117,0.186963,0.787943,22.577952,-5.692677,-108.249948
35199,0.976575,3.835173,9.080862,0.063299,-0.031151,0.092825,-0.276666,0.412909,0.158518,0.009923,0.038485,0.090735,0.999997,-0.001383,0.002065,0.000793,-0.583010,-0.075744,0.184717,0.787554,22.397594,-5.513426,-108.068853
35200,1.299103,3.386627,8.948733,-0.370575,-0.289456,-0.168235,-0.291614,0.421528,0.178968,0.013149,0.034008,0.089410,0.999996,-0.001458,0.002108,0.000895,-0.584261,-0.076343,0.182393,0.787111,22.208074,-5.333301,-107.875603
35201,1.055693,3.475206,9.211724,-0.285458,-0.068296,0.084843,-0.241014,0.424169,0.188978,0.010719,0.034873,0.092053,0.999997,-0.001205,0.002121,0.000945,-0.585530,-0.077089,0.180263,0.786586,22.047680,-5.153519,-107.677075
35202,0.814953,3.601363,9.505671,-0.180468,0.148445,0.382264,-0.234240,0.375247,0.184749,0.008294,0.036133,0.094999,0.999997,-0.001171,0.001876,0.000924,-0.586732,-0.077667,0.178300,0.786081,21.892883,-4.998142,-107.491859
35203,1.027041,3.415288,9.425068,-0.366779,-0.055457,0.257726,-0.215586,0.331177,0.161113,0.010399,0.034263,0.094197,0.999998,-0.001078,0.001656,0.000806,-0.587791,-0.078146,0.176529,0.785641,21.751220,-4.860836,-107.329150
35204,1.016409,3.417165,9.411997,-0.344163,-0.079093,0.245693,-0.155377,0.328169,0.128034,0.010297,0.034251,0.094077,0.999998,-0.000777,0.001641,0.000640,-0.588692,-0.078819,0.174990,0.785244,21.645936,-4.717639,-107.185057
35205,0.442235,4.030496,9.856408,0.237230,0.368300,0.836127,-0.128350,0.303837,0.094698,0.004553,0.040370,0.098531,0.999999,-0.000642,0.001519,0.000473,-0.589428,-0.079506,0.173615,0.784927,21.558444,-4.580266,-107.064227
35206,0.566583,4.182032,9.963158,0.313642,0.205288,1.000931,-0.196316,0.227796,0.085633,0.005761,0.041921,0.099584,0.999999,-0.000982,0.001139,0.000428,-0.590088,-0.079701,0.172193,0.784725,21.433847,-4.481158,-106.964507
35207,0.993802,3.584798,9.667231,-0.234782,-0.130905,0.542093,-0.169280,0.199334,0.071386,0.010022,0.035933,0.096632,0.999999,-0.000846,0.000997,0.000357,-0.590656,-0.079876,0.170956,0.784551,21.326051,-4.394205,-106.878617
35208,1.006722,3.769802,9.642347,-0.052358,-0.213016,0.586909,-0.119521,0.191960,0.042695,0.010152,0.037758,0.096391,0.999999,-0.000598,0.000960,0.000213,-0.591083,-0.080194,0.169923,0.784421,21.248113,-4.304930,-106.809749
35209,0.880359,3.738975,9.604702,-0.023879,-0.110364,0.531030,-0.091609,0.179442,0.015655,0.008887,0.037434,0.096022,0.999999,-0.000458,0.000897,0.000078,-0.591382,-0.080568,0.169026,0.784351,21.187628,-4.216803,-106.758111
35210,1.137867,3.853992,9.573962,0.021051,-0.407993,0.562370,-0.081735,0.177137,-0.003655,0.011464,0.038579,0.095714,1.000000,-0.000409,0.000886,-0.000018,-0.591599,-0.080979,0.168166,0.784330,21.133600,-4.125730,-106.717366
35211,1.150431,3.763651,9.733699,-0.113252,-0.389179,0.678697,-0.038729,0.177480,0.000203,0.011591,0.037655,0.097319,1.000000,-0.000194,0.000887,0.000001,-0.591814,-0.081514,0.167476,0.784260,21.104206,-4.035374,-106.674579
35212,1.080340,3.905534,9.940700,-0.032812,-0.337930,0.916831,-0.017507,0.143260,0.005417,0.010874,0.039064,0.099396,1.000000,-0.000088,0.000716,0.000027,-0.592011,-0.081974,0.166972,0.784171,21.087266,-3.964280,-106.636094
35213,1.409709,3.759425,9.865221,-0.234022,-0.641718,0.816356,-0.017055,0.110957,0.006539,0.014151,0.037603,0.098641,1.000000,-0.000085,0.000555,0.000033,-0.592185,-0.082308,0.166566,0.784091,21.071111,-3.910764,-106.603722
35214,1.295621,3.824583,10.014021,-0.192002,-0.533023,0.969970,0.010190,0.088408,0.015686,0.012997,0.038242,0.100136,1.000000,0.000051,0.000442,0.000078,-0.592365,-0.082626,0.166338,0.783970,21.070512,-3.871154,-106.571101
35215,1.273094,3.940783,10.246090,-0.156707,-0.506483,1.225964,-0.006310,0.032533,0.029280,0.012742,0.039413,0.102458,1.000000,-0.000032,0.000163,0.000146,-0.592558,-0.082664,0.166216,0.783846,21.060825,-3.864244,-106.542746
35216,1.484724,3.631432,10.028149,-0.421864,-0.668826,0.926501,-0.011053,-0.012238,0.045898,0.014833,0.036323,0.100280,1.000000,-0.000055,-0.000061,0.000229,-0.592781,-0.082499,0.166214,0.783694,21.048372,-3.884721,-106.514717
35217,1.359895,3.520305,9.937367,-0.454928,-0.533375,0.793993,0.021328,-0.025860,0.045351,0.013578,0.035196,0.099379,1.000000,0.000107,-0.000129,0.000227,-0.592978,-0.082378,0.166381,0.783523,21.054738,-3.912335,-106.489794
35218,1.117114,3.474171,10.032024,-0.458735,-0.267820,0.849261,0.038505,-0.058790,0.032634,0.011136,0.034724,0.100330,1.000000,0.000193,-0.000294,0.000163,-0.593090,-0.082187,0.166706,0.783389,21.071771,-3.955053,-106.478487
35219,1.107205,3.424475,9.911196,-0.462992,-0.255905,0.718451,0.062971,-0.096638,0.012550,0.011022,0.034214,0.099128,1.000000,0.000315,-0.000483,0.000063,-0.593081,-0.081939,0.167232,0.783310,21.104198,-4.013758,-106.485784
35220,1.109115,3.449078,9.784734,-0.403412,-0.272162,0.609907,0.075909,-0.106968,-0.012685,0.011041,0.034453,0.097866,1.000000,0.000380,-0.000535,-0.000063,-0.592960,-0.081709,0.167828,0.783298,21.145018,-4.072920,-106.508774
35221,1.025195,3.440279,9.697455,-0.363494,-0.191428,0.519708,0.083855,-0.113441,-0.016208,0.010200,0.034361,0.096995,1.000000,0.000419,-0.000567,-0.000081,-0.592816,-0.081481,0.168473,0.783293,21.190784,-4.134643,-106.535044
35222,0.828731,3.479557,9.707071,-0.280330,0.002205,0.528625,0.088227,-0.123178,-0.020803,0.008231,0.034752,0.097091,1.000000,0.000441,-0.000616,-0.000104,-0.592643,-0.081229,0.169162,0.783301,21.239247,-4.200780,-106.565848
35223,0.659368,3.419394,9.642883,-0.270093,0.182128,0.434560,0.087172,-0.133171,-0.022482,0.006533,0.034151,0.096448,1.000000,0.000436,-0.000666,-0.000112,-0.592456,-0.080939,0.169876,0.783318,21.287533,-4.271691,-106.599695
35224,0.740798,3.442582,9.514816,-0.234843,0.092674,0.329705,0.091844,-0.153752,-0.020713,0.007338,0.034381,0.095170,1.000000,0.000459,-0.000769,-0.000104,-0.592256,-0.080578,0.170670,0.783334,21.338601,-4.354111,-106.636949
35225,0.853677,3.471552,9.413957,-0.212570,-0.023549,0.254947,0.091893,-0.142324,-0.031469,0.008475,0.034671,0.094162,1.000000,0.000459,-0.000712,-0.000157,-0.592023,-0.080274,0.171425,0.783376,21.390209,-4.427971,-106.677654
35226,0.844709,3.510885,9.449403,-0.190882,-0.003044,0.301392,0.087120,-0.142000,-0.024138,0.008384,0.035067,0.094515,1.000000,0.000436,-0.000710,-0.000121,-0.591820,-0.079948,0.172164,0.783401,21.438608,-4.503342,-106.714424
35227,0.791727,3.575117,9.531078,-0.147942,0.061754,0.396329,0.064122,-0.148596,-0.022023,0.007850,0.035720,0.095328,1.000000,0.000321,-0.000743,-0.000110,-0.591629,-0.079529,0.172833,0.783441,21.474126,-4.582460,-106.751522
35228,0.933186,3.553900,9.407434,-0.168500,-0.074697,0.285177,0.056859,-0.148025,-0.015541,0.009265,0.035512,0.094091,1.000000,0.000284,-0.000740,-0.000078,-0.591467,-0.079082,0.173473,0.783467,21.505010,-4.662801,-106.785067
35229,0.872826,3.702808,9.328409,0.009001,-0.052346,0.261487,0.027736,-0.144717,-0.012295,0.008663,0.037015,0.093296,1.000000,0.000139,-0.000724,-0.000061,-0.591330,-0.078561,0.173992,0.783507,21.519297,-4.741860,-106.816230
35230,0.825617,3.606238,9.220882,-0.026400,0.010048,0.122626,0.010726,-0.134628,0.001697,0.008194,0.036057,0.092216,1.000000,0.000054,-0.000673,0.000008,-0.591265,-0.078015,0.174419,0.783516,21.522837,-4.818673,-106.837779
35231,0.780979,3.753571,9.210699,0.126560,0.027588,0.163254,-0.011639,-0.121152,0.012611,0.007752,0.037542,0.092110,1.000000,-0.000058,-0.000606,0.000063,-0.591261,-0.077449,0.174723,0.783507,21.513100,-4.890402,-106.850664
35232,0.751006,3.726499,9.133131,0.142744,0.059454,0.078771,-0.035786,-0.113258,0.025497,0.007454,0.037282,0.091329,1.000000,-0.000179,-0.000566,0.000127,-0.591325,-0.076829,0.174914,0.783478,21.488570,-4.960824,-106.854952
35233,0.672620,3.792344,9.136870,0.232442,0.129438,0.099219,-0.063565,-0.111537,0.050323,0.006666,0.037954,0.091360,1.000000,-0.000318,-0.000558,0.000252,-0.591498,-0.076114,0.175001,0.783398,21.447173,-5.035344,-106.845568
35234,0.772807,3.854679,9.131334,0.273209,0.028691,0.125197,-0.083028,-0.119929,0.066045,0.007661,0.038587,0.091302,1.000000,-0.000415,-0.000600,0.000330,-0.591732,-0.075292,0.175041,0.783291,21.393799,-5.117797,-106.829448
35235,0.776834,3.827176,9.083525,0.276432,0.033798,0.070814,-0.095300,-0.124673,0.076411,0.007697,0.038318,0.090822,1.000000,-0.000476,-0.000623,0.000382,-0.592006,-0.074409,0.175052,0.783166,21.333170,-5.204755,-106.808701
35236,0.938792,3.759545,8.924674,0.235190,-0.122729,-0.086696,-0.106882,-0.122324,0.092599,0.009316,0.037647,0.089232,1.000000,-0.000534,-0.000612,0.000463,-0.592350,-0.073484,0.175016,0.783001,21.264838,-5.293965,-106.778669
35237,0.873472,3.771149,8.840392,0.306419,-0.068177,-0.167041,-0.097243,-0.107487,0.097607,0.008669,0.037759,0.088390,1.000000,-0.000486,-0.000537,0.000488,-0.592722,-0.072643,0.174976,0.782807,21.201624,-5.376096,-106.742767
35238,0.860740,3.722179,8.815534,0.288015,-0.039035,-0.209321,-0.097650,-0.099648,0.104323,0.008544,0.037269,0.088141,1.000000,-0.000488,-0.000498,0.000522,-0.593127,-0.071825,0.174914,0.782590,21.137468,-5.455549,-106.701525
35239,0.838291,3.726330,8.701789,0.347922,-0.030978,-0.315984,-0.088671,-0.081789,0.098998,0.008329,0.037306,0.087005,1.000000,-0.000443,-0.000409,0.000495,-0.593522,-0.071109,0.174831,0.782374,21.078470,-5.524152,-106.659359
35240,0.676569,3.790109,8.783863,0.437886,0.131804,-0.233032,-0.085080,-0.072787,0.094620,0.006716,0.037942,0.087825,1.000000,-0.000425,-0.000364,0.000473,-0.593907,-0.070441,0.174734,0.782164,21.021402,-5.587151,-106.617605
35241,0.601356,3.748482,8.828087,0.419077,0.229326,-0.214789,-0.074685,-0.070926,0.093871,0.005965,0.037521,0.088269,1.000000,-0.000373,-0.000355,0.000469,-0.594287,-0.069813,0.174672,0.781945,20.970360,-5.648809,-106.575810
35242,0.621806,3.814209,8.825220,0.483987,0.201855,-0.192690,-0.061765,-0.074949,0.078919,0.006170,0.038172,0.088243,1.000000,-0.000309,-0.000375,0.000395,-0.594600,-0.069220,0.174668,0.781761,20.927470,-5.709641,-106.542828
35243,0.704093,3.910267,8.786676,0.569286,0.101711,-0.186829,-0.057466,-0.073935,0.076805,0.006993,0.039131,0.087858,1.000000,-0.000287,-0.000370,0.000384,-0.594903,-0.068647,0.174676,0.781579,20.887174,-5.769355,-106.510727
35244,0.851470,3.877359,8.805152,0.500444,-0.020195,-0.167027,-0.043417,-0.060817,0.071995,0.008474,0.038796,0.088046,1.000000,-0.000217,-0.000304,0.000360,-0.595195,-0.068170,0.174698,0.781394,20.854855,-5.821130,-106.478486
35245,0.939270,4.062077,8.851055,0.635988,-0.130952,-0.050401,-0.036549,-0.046420,0.080655,0.009356,0.040641,0.088505,1.000000,-0.000183,-0.000232,0.000403,-0.595530,-0.067764,0.174708,0.781172,20.825693,-5.866858,-106.438599
35246,0.950631,3.952635,8.889578,0.528535,-0.102979,-0.052480,-0.037607,-0.038502,0.090005,0.009471,0.039547,0.088890,1.000000,-0.000188,-0.000193,0.000450,-0.595908,-0.067376,0.174693,0.780920,20.795245,-5.910303,-106.392045
35247,1.064674,3.829557,8.828397,0.410145,-0.189980,-0.141322,-0.020292,-0.023503,0.083757,0.010620,0.038309,0.088281,1.000000,-0.000101,-0.000118,0.000419,-0.596269,-0.067104,0.174698,0.780667,20.774679,-5.944348,-106.345752
35248,0.886781,3.774360,8.969210,0.369956,0.024322,-0.048394,-0.005188,-0.019828,0.076099,0.008845,0.037749,0.089692,1.000000,-0.000026,-0.000099,0.000380,-0.596599,-0.066898,0.174750,0.780421,20.763179,-5.974931,-106.302846
35249,0.977637,3.667751,8.930079,0.262208,-0.040524,-0.112992,0.020258,-0.029373,0.064056,0.009752,0.036672,0.089306,1.000000,0.000101,-0.000147,0.000320,-0.596864,-0.066742,0.174924,0.780192,20.767026,-6.008103,-106.268348
35250,0.895044,3.619273,8.953548,0.233295,0.059110,-0.116897,0.045836,-0.018613,0.042948,0.008934,0.036174,0.089545,1.000000,0.000229,-0.000093,0.000215,-0.597048,-0.066722,0.175161,0.780001,20.786596,-6.031293,-106.243055
35251,0.797782,3.623600,8.960823,0.258912,0.157207,-0.118796,0.064514,-0.018820,0.027760,0.007964,0.036208,0.089621,1.000000,0.000323,-0.000094,0.000139,-0.597166,-0.066771,0.175464,0.779838,20.817602,-6.051449,-106.225965
35252,0.781350,3.574888,8.946505,0.218104,0.185984,-0.151004,0.095457,-0.009592,0.030752,0.007804,0.035707,0.089482,1.000000,0.000477,-0.000048,0.000154,-0.597293,-0.066946,0.175863,0.779636,20.866107,-6.067332,-106.205417
35253,0.631087,3.766566,8.979297,0.415826,0.297260,-0.068367,0.103100,0.006903,0.037198,0.006307,0.037621,0.089812,1.000000,0.000516,0.000035,0.000186,-0.597457,-0.067201,0.176243,0.779402,20.918119,-6.075674,-106.177992
35254,0.505473,3.645038,9.085661,0.299671,0.468641,-0.025880,0.076536,0.009500,0.034543,0.005053,0.036416,0.090870,1.000000,0.000383,0.000047,0.000173,-0.597622,-0.067391,0.176512,0.779198,20.955172,-6.082115,-106.151499
35255,0.473416,3.452182,9.115625,0.118662,0.550827,-0.070059,0.063238,0.007984,0.025697,0.004733,0.034494,0.091167,1.000000,0.000316,0.000040,0.000128,-0.597756,-0.067542,0.176730,0.779033,20.984971,-6.087558,-106.130049
35256,0.553827,3.543003,9.088762,0.181811,0.450462,-0.054142,0.074808,0.019167,0.019500,0.005544,0.035397,0.090900,1.000000,0.000374,0.000096,0.000097,-0.597871,-0.067777,0.176958,0.778872,21.021683,-6.085709,-106.109654
35257,0.506445,3.453505,9.048268,0.121424,0.507721,-0.128586,0.044102,0.041055,0.009863,0.005081,0.034515,0.090489,1.000000,0.000221,0.000205,0.000049,-0.597979,-0.068014,0.176997,0.778760,21.040699,-6.070233,-106.089888
35258,0.556837,3.412761,9.123103,0.042882,0.480560,-0.068189,0.035977,0.057824,0.000034,0.005595,0.034111,0.091236,1.000000,0.000180,0.000289,0.000000,-0.598065,-0.068302,0.176951,0.778679,21.055433,-6.043669,-106.071955
35259,0.467311,3.401032,9.180999,0.033999,0.575945,-0.027839,0.047546,0.069652,0.000876,0.004705,0.033989,0.091816,1.000000,0.000238,0.000348,0.000004,-0.598162,-0.068668,0.176915,0.778581,21.076325,-6.011064,-106.051091
35260,0.610369,3.448005,9.191853,0.029337,0.426000,0.014271,0.030352,0.074971,-0.001923,0.006138,0.034466,0.091921,1.000000,0.000152,0.000375,-0.000010,-0.598258,-0.069008,0.176795,0.778504,21.087580,-5.974884,-106.030634
35261,0.525866,3.365255,9.322111,-0.067881,0.544452,0.097015,0.030033,0.079381,-0.009841,0.005297,0.033638,0.093224,1.000000,0.000150,0.000397,-0.000049,-0.598327,-0.069369,0.176658,0.778450,21.098851,-5.934878,-106.013501
35262,0.576901,3.255114,9.363164,-0.198843,0.523205,0.101148,0.035911,0.044975,-0.023404,0.005794,0.032534,0.093636,1.000000,0.000180,0.000225,-0.000117,-0.598311,-0.069628,0.176641,0.778443,21.115131,-5.910260,-106.010788
35263,0.673276,3.068792,9.233571,-0.357620,0.444254,-0.075935,0.052818,0.039223,-0.057064,0.006760,0.030662,0.092342,1.000000,0.000264,0.000196,-0.000285,-0.598153,-0.069942,0.176696,0.778524,21.142934,-5.881974,-106.027341
35264,0.727342,3.032914,9.235160,-0.412388,0.397491,-0.081927,0.071897,0.036118,-0.091277,0.007304,0.030293,0.092361,1.000000,0.000359,0.000181,-0.000456,-0.597852,-0.070334,0.176822,0.778691,21.183700,-5.848010,-106.062889
35265,0.696086,3.124187,9.290237,-0.348295,0.414263,-0.001437,0.101359,0.036184,-0.112213,0.006995,0.031191,0.092917,1.000000,0.000507,0.000181,-0.000561,-0.597459,-0.070831,0.177056,0.778895,21.242363,-5.809890,-106.109642
35266,0.608127,3.204749,9.503397,-0.330470,0.518679,0.216098,0.097271,0.012044,-0.119955,0.006106,0.031998,0.095049,1.000000,0.000486,0.000060,-0.000600,-0.597016,-0.071230,0.177342,0.779133,21.299627,-5.782723,-106.165531
35267,0.535656,3.113690,9.647510,-0.449919,0.636753,0.309000,0.111738,-0.034127,-0.127097,0.005360,0.031080,0.096493,1.000000,0.000559,-0.000171,-0.000635,-0.596499,-0.071497,0.177820,0.779396,21.366478,-5.778928,-106.234913
35268,0.507010,3.084939,9.689096,-0.492286,0.685174,0.333281,0.131131,-0.106763,-0.138359,0.005040,0.030782,0.096914,0.999999,0.000656,-0.000534,-0.000692,-0.595865,-0.071551,0.178585,0.779700,21.446593,-5.811111,-106.325562
35269,0.918057,3.120761,9.485340,-0.519607,0.256468,0.198200,0.127762,-0.136103,-0.156567,0.009140,0.031140,0.094880,0.999999,0.000639,-0.000681,-0.000783,-0.595135,-0.071494,0.179419,0.780071,21.526478,-5.855313,-106.432247
35270,0.625340,3.305753,9.715350,-0.355801,0.550923,0.447768,0.132701,-0.141799,-0.162589,0.006211,0.032988,0.097180,0.999999,0.000664,-0.000709,-0.000813,-0.594374,-0.071437,0.180285,0.780457,21.609655,-5.900775,-106.543383
35271,0.614311,3.643953,9.935968,-0.125953,0.543584,0.773523,0.066083,-0.222914,-0.134193,0.006057,0.036403,0.099378,0.999999,0.000330,-0.001115,-0.000671,-0.593673,-0.070838,0.181144,0.780846,21.655097,-5.995668,-106.656657
35272,0.943957,3.322532,9.897348,-0.498144,0.317506,0.653389,0.060598,-0.259446,-0.091066,0.009326,0.033191,0.098996,0.999999,0.000303,-0.001297,-0.000455,-0.593109,-0.070043,0.182102,0.781124,21.695878,-6.118653,-106.754643
35273,0.360562,3.549612,10.321124,-0.265900,0.940257,1.063911,0.149138,-0.378106,0.041174,0.003403,0.035420,0.103244,0.999998,0.000746,-0.001891,0.000206,-0.592920,-0.068924,0.183806,0.780968,21.782890,-6.333146,-106.807398
35274,0.998849,3.976596,9.929725,0.059943,0.209492,0.928011,0.209985,-0.519099,0.246642,0.009682,0.039674,0.099364,0.999995,0.001050,-0.002595,0.001233,-0.593379,-0.067248,0.186232,0.780190,21.895849,-6.665875,-106.780738
35275,2.352555,4.057732,8.640378,0.166241,-1.302333,-0.069393,0.209273,-0.515609,0.418904,0.023218,0.040536,0.086506,0.999994,0.001046,-0.002578,0.002095,-0.594507,-0.065420,0.188704,0.778892,21.997411,-7.034137,-106.661813
35276,2.539729,3.844296,8.413232,-0.001712,-1.423763,-0.326698,0.237763,-0.334543,0.512410,0.025158,0.038408,0.084220,0.999995,0.001189,-0.001673,0.002562,-0.596153,-0.064295,0.190774,0.777221,22.103373,-7.326176,-106.454100
35277,1.499562,3.965718,9.127477,0.162376,-0.249270,0.247018,0.342145,-0.279217,0.632925,0.014743,0.039548,0.091363,0.999993,0.001711,-0.001396,0.003165,-0.598279,-0.063579,0.193124,0.775063,22.258366,-7.615795,-106.170438
35278,1.968610,4.492710,9.047703,0.526502,-0.762722,0.437263,0.367428,-0.277985,0.753625,0.019391,0.044834,0.090587,0.999990,0.001837,-0.001390,0.003768,-0.600856,-0.062826,0.195601,0.772506,22.417557,-7.931505,-105.822492
35279,1.386676,4.434328,9.821261,0.363302,0.048776,1.045879,0.416650,-0.273718,0.879103,0.013538,0.044199,0.098323,0.999987,0.002083,-0.001369,0.004395,-0.603892,-0.062113,0.198293,0.769504,22.593591,-8.273792,-105.407226
35280,0.480947,4.294393,9.854958,0.438246,1.040853,0.888561,0.642858,-0.510096,1.128217,0.004317,0.042652,0.098698,0.999976,0.003214,-0.002550,0.005641,-0.607559,-0.060925,0.202637,0.765570,22.884319,-8.797547,-104.912697
35281,3.334013,5.460217,8.454310,1.226332,-2.105172,0.505645,0.640326,-0.540485,1.266164,0.032766,0.054540,0.084807,0.999971,0.003202,-0.002702,0.006331,-0.611692,-0.059468,0.207096,0.761188,23.158726,-9.370927,-104.353329
35282,3.046157,4.216789,8.191140,0.260480,-1.580391,-0.242474,0.598190,-0.332209,1.299725,0.030051,0.042119,0.082088,0.999973,0.002991,-0.001661,0.006499,-0.616146,-0.058640,0.210756,0.756642,23.393323,-9.844485,-103.729952
35283,2.338010,4.346494,8.458083,0.439509,-0.765682,-0.059878,0.740708,-0.274699,1.329522,0.022976,0.043305,0.084773,0.999970,0.003704,-0.001373,0.006648,-0.620696,-0.058431,0.214775,0.751794,23.699681,-10.297800,-103.078727
35284,2.661185,4.789330,8.639980,0.683437,-0.999899,0.346115,0.710141,-0.199406,1.273566,0.026221,0.047754,0.086596,0.999973,0.003551,-0.000997,0.006368,-0.625090,-0.058468,0.218417,0.747087,23.986336,-10.701878,-102.441118
35285,1.929099,4.208644,8.455959,0.350550,-0.188963,-0.180545,0.730413,-0.187013,1.210541,0.018958,0.041893,0.084731,0.999975,0.003652,-0.000935,0.006053,-0.629222,-0.058679,0.222066,0.742511,24.286185,-11.088045,-101.835376
35286,2.586990,4.464234,8.077541,0.556874,-0.870362,-0.283763,0.772656,-0.143963,1.110702,0.025564,0.044472,0.080966,0.999977,0.003863,-0.000720,0.005553,-0.632989,-0.059293,0.225696,0.738154,24.615262,-11.431263,-101.273778
35287,2.027026,4.369629,8.184086,0.498711,-0.227387,-0.332138,0.850062,-0.059472,1.038513,0.020020,0.043452,0.082032,0.999977,0.004250,-0.000297,0.005193,-0.636532,-0.060540,0.229313,0.733878,24.989311,-11.716634,-100.731271
35288,2.128024,4.710464,8.010325,0.802660,-0.332327,-0.319169,0.971923,-0.045142,1.065041,0.021012,0.046827,0.080336,0.999974,0.004860,-0.000226,0.005325,-0.640121,-0.062196,0.233329,0.729338,25.427478,-12.004786,-100.172727
35289,3.093190,4.723418,7.160303,0.926184,-1.417515,-0.852737,1.076592,0.058842,1.145519,0.030683,0.047024,0.071847,0.999969,0.005383,0.000294,0.005728,-0.644056,-0.064468,0.237404,0.724345,25.908640,-12.263613,-99.547022
35290,3.629519,4.828030,6.662891,1.085397,-2.011228,-1.114767,1.247231,0.318752,1.263984,0.036097,0.048092,0.066872,0.999959,0.006236,0.001594,0.006320,-0.648626,-0.068086,0.241285,0.718631,26.458409,-12.424306,-98.793726
35291,3.489517,5.204140,6.527777,1.449201,-1.874097,-1.080063,1.454045,0.601317,1.466227,0.034712,0.051820,0.065551,0.999942,0.007270,0.003007,0.007331,-0.654130,-0.073138,0.245034,0.711845,27.086106,-12.500146,-97.861072
35292,3.586368,6.064312,6.321711,2.237073,-1.983890,-0.831543,1.614621,0.917354,1.705288,0.035639,0.060436,0.063542,0.999921,0.008073,0.004587,0.008526,-0.660722,-0.079538,0.248379,0.703866,27.760592,-12.488945,-96.719479
35293,3.254922,6.384987,6.237490,2.540803,-1.624272,-0.803008,1.610028,1.259165,1.923470,0.032330,0.063658,0.062684,0.999902,0.008050,0.006296,0.009617,-0.668392,-0.086840,0.250617,0.694912,28.388536,-12.376181,-95.370591
35294,3.639826,5.602629,5.274144,2.214006,-2.188987,-1.890520,1.618554,1.616843,2.079873,0.036243,0.055976,0.052901,0.999881,0.008092,0.008084,0.010399,-0.676902,-0.095199,0.251710,0.685116,28.987650,-12.141217,-93.840596
35295,4.223353,5.349004,4.542414,2.294508,-2.899234,-2.504355,1.684319,2.143676,2.135736,0.042149,0.053558,0.045423,0.999850,0.008421,0.010718,0.010678,-0.686054,-0.105487,0.251196,0.674613,29.595716,-11.673947,-92.130432
35296,3.473118,5.008734,4.573241,2.015690,-2.182673,-2.795751,1.719385,2.680808,2.070480,0.034826,0.050055,0.045696,0.999820,0.008596,0.013403,0.010352,-0.695413,-0.117756,0.248852,0.663783,30.217990,-10.939994,-90.295856
35297,2.427822,4.405136,4.701283,1.417833,-1.230824,-3.188790,1.789165,3.120611,1.950787,0.024583,0.043870,0.047024,0.999791,0.008945,0.015602,0.009753,-0.704612,-0.131828,0.245032,0.652766,30.892682,-9.973807,-88.387622
35298,2.257252,3.849400,4.505627,1.007843,-1.230932,-3.674126,1.849072,3.468639,1.684096,0.023031,0.038270,0.045014,0.999771,0.009245,0.017342,0.008420,-0.713016,-0.147517,0.239911,0.642098,31.641768,-8.782254,-86.501496
35299,2.383569,2.782944,4.050253,0.340512,-1.654101,-4.618735,1.744609,3.881893,1.204733,0.024452,0.027624,0.040273,0.999755,0.008722,0.019408,0.006023,-0.720120,-0.164665,0.232501,0.632658,32.387845,-7.267693,-84.714696
35300,2.164422,1.246516,3.960609,-0.909999,-1.817801,-5.594928,1.806326,4.333233,0.597337,0.022460,0.012176,0.039236,0.999720,0.009031,0.021664,0.002986,-0.725398,-0.184081,0.223055,0.624627,33.238440,-5.373235,-83.067144
35301,0.987902,1.850952,4.837027,-1.055577,-0.759640,-4.703641,1.993007,4.736958,0.001912,0.011023,0.018028,0.048299,0.999670,0.009964,0.023682,0.000010,-0.728655,-0.205987,0.212029,0.617798,34.263954,-3.122757,-81.549466
35302,-0.987812,3.444822,5.987875,-0.772712,1.103525,-2.966374,1.951074,4.955754,-0.489138,-0.008302,0.033882,0.060430,0.999642,0.009754,0.024776,-0.002445,-0.730170,-0.228793,0.199441,0.612151,35.332982,-0.638220,-80.154071
35303,-1.968601,5.783852,6.687924,0.418987,1.972976,-0.982532,1.806647,5.061663,-0.830427,-0.017738,0.057305,0.067864,0.999630,0.009032,0.025305,-0.004152,-0.730383,-0.251573,0.185474,0.607332,36.379674,1.985253,-78.836382
35304,-2.597785,6.439147,6.539748,0.784901,2.277556,-0.584539,1.439616,5.093195,-0.893098,-0.024007,0.064026,0.066487,0.999640,0.007197,0.025463,-0.004465,-0.730364,-0.272982,0.170077,0.602597,37.278958,4.620715,-77.490241
35305,-2.252099,5.783873,5.373265,0.920704,1.690465,-1.832746,1.422580,5.177347,-0.773085,-0.020890,0.057535,0.054698,0.999632,0.007112,0.025884,-0.003865,-0.730273,-0.294283,0.154349,0.596889,38.242757,7.231270,-76.011727
35306,-2.138074,6.557271,4.270913,2.097463,1.594486,-2.140815,1.519370,5.441107,-0.687544,-0.019975,0.065313,0.043762,0.999595,0.007596,0.027202,-0.003437,-0.729934,-0.316432,0.137966,0.589943,39.358972,9.900695,-74.342520
35307,-2.657856,8.492423,4.030640,3.510425,2.008041,-0.920962,1.151324,5.851667,-0.877445,-0.025003,0.084799,0.041542,0.999546,0.005756,0.029254,-0.004387,-0.729276,-0.338307,0.118568,0.582791,40.369373,12.790496,-72.540179
35308,-5.188319,8.694003,4.996280,2.316687,3.599196,0.633452,0.420032,6.090461,-1.145535,-0.049828,0.087122,0.051684,0.999518,0.002100,0.030447,-0.005727,-0.728534,-0.358058,0.095619,0.576098,41.062535,15.856580,-70.700157
35309,-7.821230,6.662958,5.778251,-0.555620,4.962519,0.863672,-0.061400,6.039544,-1.281788,-0.075992,0.067140,0.060079,0.999524,-0.000307,0.030193,-0.006408,-0.727540,-0.375629,0.071120,0.569676,41.567545,18.934551,-68.880145
35310,-8.877724,4.179434,6.065677,-3.012697,4.997295,0.136537,-0.276815,5.855447,-1.454660,-0.086645,0.042516,0.063156,0.999544,-0.001384,0.029273,-0.007272,-0.725715,-0.391609,0.046297,0.563769,42.010083,21.984642,-67.152774
35311,-9.583287,3.462147,6.899649,-4.215668,4.500909,0.834229,-0.298271,5.572671,-2.064836,-0.093497,0.035700,0.071571,0.999557,-0.001491,0.027859,-0.010323,-0.721498,-0.406499,0.021192,0.560134,42.389958,25.138519,-65.764979
35312,-12.055828,1.540221,8.055442,-7.096971,5.139867,1.839134,-0.426115,4.949304,-2.615751,-0.118300,0.017135,0.083466,0.999606,-0.002130,0.024743,-0.013077,-0.715328,-0.418909,-0.003154,0.559295,42.551741,28.235750,-64.854423
35313,-12.921077,0.707794,8.745170,-8.223259,4.735388,2.590475,-0.078450,4.166561,-2.932756,-0.127229,0.008988,0.090113,0.999675,-0.000392,0.020831,-0.014662,-0.707045,-0.430062,-0.024397,0.560838,42.721935,31.123840,-64.411647
35314,-12.128966,0.527807,8.844334,-7.908992,3.489939,2.469353,0.339724,3.378786,-3.091482,-0.119673,0.006984,0.090485,0.999736,0.001698,0.016892,-0.015456,-0.697097,-0.440220,-0.042012,0.564356,42.926344,33.742036,-64.386684
35315,-10.988555,0.349774,7.998503,-7.063842,2.744652,1.474238,0.778004,2.816474,-3.431330,-0.108667,0.005054,0.081539,0.999746,0.003890,0.014081,-0.017155,-0.684987,-0.450013,-0.057155,0.570100,43.135453,36.256887,-64.792060
35316,-10.695377,3.524921,8.074735,-4.125254,1.883508,3.280402,0.984106,2.294667,-3.702616,-0.105345,0.036808,0.082141,0.999751,0.004920,0.011472,-0.018512,-0.671443,-0.458727,-0.070515,0.577721,43.201814,38.662113,-65.603038
35317,-10.096257,6.926478,7.861916,-0.719047,0.849651,4.694431,0.612617,1.893064,-3.473053,-0.098991,0.070752,0.079778,0.999800,0.003063,0.009465,-0.017364,-0.659259,-0.464906,-0.083032,0.585103,42.959492,40.807193,-66.524612
35318,-7.918422,7.393809,7.313779,0.855911,-0.752003,3.208208,-0.133879,1.692603,-3.385544,-0.077295,0.075306,0.073747,0.999821,-0.000669,0.008463,-0.016927,-0.648896,-0.467902,-0.096850,0.592133,42.190809,42.828943,-67.555591
35319,-8.727808,5.822699,7.964201,-0.678790,-0.803369,3.316749,-0.857434,1.536722,-3.211354,-0.085711,0.059954,0.080050,0.999832,-0.004287,0.007683,-0.016056,-0.640598,-0.468009,-0.111851,0.598407,40.940016,44.702301,-68.647373
35320,-9.493974,3.564100,8.500845,-2.733964,-0.625350,3.118787,-0.973412,1.235835,-2.782750,-0.093901,0.037367,0.085412,0.999872,-0.004867,0.006179,-0.013913,-0.633829,-0.466949,-0.125212,0.603773,39.610217,46.268531,-69.723671
35321,-9.687348,3.237394,9.751267,-3.248175,-1.601924,3.835858,-1.039208,0.856587,-2.614572,-0.096017,0.034140,0.097751,0.999892,-0.005196,0.004283,-0.013072,-0.627815,-0.464529,-0.137136,0.609307,38.096628,47.584505,-70.974758
35322,-11.242283,1.146038,11.118928,-5.618810,-1.447762,4.940197,-1.264472,0.352090,-2.857468,-0.112041,0.013766,0.111305,0.999876,-0.006322,0.001760,-0.014287,-0.621781,-0.459591,-0.148707,0.616483,36.048895,48.727968,-72.744425
35323,-14.108462,-2.209233,12.885475,-9.378327,-0.434615,6.973741,-1.265226,-0.527397,-3.555373,-0.141777,-0.018762,0.128607,0.999819,-0.006326,-0.002637,-0.017776,-0.614067,-0.451282,-0.159093,0.627659,33.185362,49.631038,-75.564500
35324,-17.152563,-3.856122,14.726442,-11.305908,0.553535,10.130233,-1.007878,-1.799559,-4.684520,-0.173671,-0.033772,0.145886,0.999673,-0.005039,-0.008997,-0.023420,-0.602925,-0.438638,-0.167248,0.645063,29.247416,50.136543,-79.950684
35325,-18.334387,-3.862184,14.677005,-10.396741,1.800033,11.517650,-0.433046,-3.333592,-5.468439,-0.186715,-0.033233,0.143752,0.999485,-0.002165,-0.016665,-0.027338,-0.588777,-0.421763,-0.170487,0.668126,24.640118,49.848214,-85.634338
35326,-15.231107,0.093653,12.888331,-4.814776,0.751602,9.532283,0.183778,-4.518002,-5.840438,-0.155058,0.005322,0.125404,0.999318,0.000919,-0.022585,-0.029196,-0.572387,-0.401914,-0.168784,0.694515,20.000789,48.719578,-91.882922
35327,-11.380390,3.681540,10.752572,0.153043,-0.819387,6.247244,0.248203,-5.011629,-5.813802,-0.115319,0.040022,0.104697,0.999263,0.001241,-0.025052,-0.029062,-0.555572,-0.380002,-0.165129,0.720882,15.666061,47.000102,-97.911851
35328,-8.299580,5.488125,8.057624,3.201382,-1.413098,2.502051,0.261583,-5.076206,-5.259511,-0.083527,0.056970,0.078534,0.999331,0.001308,-0.025375,-0.026292,-0.539997,-0.357802,-0.159985,0.744839,12.066878,44.893613,-103.116445
35329,-4.408453,8.822193,5.517018,6.939847,-3.650306,-1.675797,0.123350,-4.809433,-4.487836,-0.043401,0.089167,0.054176,0.999459,0.000617,-0.024043,-0.022435,-0.526683,-0.336421,-0.154479,0.765220,9.229342,42.656037,-107.312363
35330,0.142573,7.539374,3.637441,5.541972,-5.285560,-6.430161,-0.377465,-3.882836,-3.551661,0.002060,0.075429,0.036268,0.999652,-0.001887,-0.019412,-0.017756,-0.516605,-0.317675,-0.151635,0.780518,6.937109,40.735909,-110.422705
35331,2.149343,5.281596,1.113882,3.771053,-4.418639,-9.907015,0.170772,-2.530819,-2.552602,0.022021,0.052527,0.011460,0.999838,0.000854,-0.012653,-0.012762,-0.508271,-0.306231,-0.148461,0.791102,5.678430,39.452353,-112.522248
35332,-1.802415,8.004445,3.549310,6.502663,-4.209047,-5.349951,0.542287,-1.367784,-1.740844,-0.017570,0.080102,0.035589,0.999935,0.002711,-0.006839,-0.008704,-0.501598,-0.300850,-0.145508,0.797945,5.120730,38.762709,-113.889610
35333,-8.917422,8.517073,7.776811,7.823486,-1.673589,2.374643,0.327278,-1.036427,-1.167107,-0.089078,0.085564,0.077446,0.999968,0.001636,-0.005182,-0.005835,-0.497251,-0.296654,-0.143356,0.802613,4.739177,38.225901,-114.797172
35334,-14.733176,5.764039,11.437311,6.252657,1.912657,8.581340,0.094385,-1.755361,-0.937400,-0.148056,0.058280,0.113103,0.999950,0.000472,-0.008777,-0.004687,-0.494645,-0.289124,-0.140004,0.807547,4.316979,37.262496,-115.566740
35335,-16.734516,2.278312,12.596398,3.846118,4.706974,10.359551,0.057459,-3.110067,-1.170752,-0.169140,0.023734,0.123350,0.999862,0.000287,-0.015550,-0.005853,-0.492007,-0.275827,-0.133756,0.814836,3.765015,35.529689,-116.545318
35336,-11.362923,-1.447595,9.906183,-0.064901,4.358535,4.689256,0.386694,-4.162465,-1.597846,-0.115769,-0.013745,0.096640,0.999750,0.001933,-0.020811,-0.007989,-0.487687,-0.258655,-0.124121,0.824532,3.261231,33.202709,-117.821319
35337,-8.446414,-0.388273,8.487288,0.531697,2.783937,1.826366,1.156122,-4.586225,-1.829098,-0.086414,-0.003581,0.082885,0.999679,0.005780,-0.022929,-0.009145,-0.481404,-0.241325,-0.110504,0.835345,3.180100,30.635471,-119.219603
35338,-8.242345,3.171897,8.749116,3.728703,1.126357,1.991954,1.428455,-4.941263,-1.768260,-0.084274,0.031842,0.085651,0.999630,0.007141,-0.024703,-0.008840,-0.474910,-0.223033,-0.094754,0.846013,3.340530,27.864222,-120.555737
35339,-6.592742,2.473018,8.363336,2.779803,0.800218,0.729479,1.353287,-5.137752,-1.555750,-0.067857,0.024694,0.082074,0.999617,0.006766,-0.025685,-0.007778,-0.469135,-0.203667,-0.078539,0.855724,3.584871,24.977177,-121.739842
35340,-5.325879,2.329879,8.029795,2.387459,0.414188,-0.201133,1.462967,-5.216600,-1.445125,-0.055164,0.023112,0.079045,0.999607,0.007314,-0.026080,-0.007225,-0.463389,-0.184107,-0.061505,0.864634,3.976012,22.047276,-122.848227
35341,-4.956872,1.636260,7.785503,1.911265,0.974699,-0.688963,1.539336,-5.166914,-1.397683,-0.051447,0.016125,0.076667,0.999612,0.007696,-0.025831,-0.006988,-0.457401,-0.164809,-0.044155,0.872739,4.474412,19.151294,-123.926855
35342,-7.987700,2.431276,8.923586,4.116344,3.064559,1.276911,1.932434,-5.384665,-1.151727,-0.082106,0.023932,0.087278,0.999574,0.009661,-0.026920,-0.005758,-0.451839,-0.145383,-0.024362,0.879836,5.286612,16.131402,-124.884921
35343,-8.962547,5.642568,9.490389,7.365264,2.360351,2.119458,2.182971,-5.937589,-0.657692,-0.092218,0.055705,0.092802,0.999494,0.010913,-0.029683,-0.003288,-0.447914,-0.124013,-0.001829,0.885432,6.349737,12.782421,-125.620968
35344,-7.318625,6.982447,7.204329,8.225130,1.062683,-0.571139,2.388640,-6.530092,0.250777,-0.075590,0.068883,0.070428,0.999395,0.011941,-0.032644,0.001254,-0.447392,-0.100361,0.023498,0.888378,7.655139,9.049742,-125.933187
35345,-0.166044,8.823642,3.669163,6.382521,-5.158013,-4.914675,2.493340,-6.525180,1.294362,-0.003449,0.087752,0.037695,0.999369,0.012464,-0.032619,0.006470,-0.450899,-0.076711,0.049781,0.887878,9.104613,5.239977,-125.736086
35346,3.218079,7.588634,3.445746,3.591277,-6.844520,-5.334921,2.319522,-5.632887,2.186785,0.030348,0.075812,0.036209,0.999476,0.011596,-0.028160,0.010932,-0.458133,-0.056331,0.073564,0.884041,10.473176,1.844832,-125.042148
35347,0.239855,4.917699,5.106491,3.002362,-2.395005,-3.850144,2.531693,-4.846324,2.878219,0.000449,0.048541,0.051709,0.999523,0.012656,-0.024228,0.014389,-0.468195,-0.039588,0.096607,0.877435,11.926035,-1.202710,-123.957303
35348,-1.108007,6.484326,6.984697,4.830254,-1.394068,-1.642145,2.474494,-4.513952,3.232831,-0.013701,0.063767,0.070351,0.999538,0.012371,-0.022566,0.016162,-0.479542,-0.023975,0.118604,0.869136,13.282829,-4.133236,-122.706427
35349,4.915316,2.989368,4.709780,-0.820027,-4.668850,-4.085907,1.765654,-3.939365,3.177300,0.047731,0.030237,0.048313,0.999641,0.008827,-0.019694,0.015885,-0.490681,-0.009158,0.136037,0.860606,14.172324,-6.761587,-121.461636
35350,3.515166,-1.292774,5.972867,-3.784503,-0.937380,-3.939052,2.110886,-2.885036,2.813978,0.034470,-0.013073,0.060092,0.999741,0.010554,-0.014424,0.014069,-0.500651,0.000021,0.152275,0.852151,15.222850,-8.772366,-120.304865
35351,-1.926571,0.821993,8.999115,0.250004,3.774906,-1.383726,2.360713,-2.787668,2.256012,-0.020601,0.006932,0.089797,0.999770,0.011803,-0.013937,0.011279,-0.508075,0.007749,0.169253,0.844484,16.431948,-10.665456,-119.478778
35352,4.015865,-0.326727,5.838713,-3.146773,-1.485638,-3.631108,2.032944,-2.784733,1.511396,0.039367,-0.003565,0.058904,0.999823,0.010164,-0.013923,0.007557,-0.512135,0.015651,0.184805,0.838642,17.518556,-12.447300,-119.102847
35353,4.313484,1.030047,5.173407,-2.020970,-2.327069,-3.735774,2.379767,-2.077428,0.838849,0.042552,0.009860,0.052297,0.999866,0.011898,-0.010387,0.004194,-0.513899,0.019086,0.199990,0.833995,18.856744,-13.732250,-119.009174
35354,2.973144,3.772168,5.708103,0.837755,-1.890682,-2.645332,2.228648,-1.754338,0.523913,0.029129,0.037157,0.057754,0.999896,0.011143,-0.008771,0.002619,-0.514533,0.021234,0.213703,0.830142,20.142486,-14.783559,-119.057506
35355,4.928502,3.611833,4.599401,-0.073372,-3.724914,-3.133863,2.434454,-1.234529,0.716339,0.048870,0.035728,0.046733,0.999900,0.012172,-0.006172,0.003582,-0.516442,0.020905,0.226863,0.825460,21.495672,-15.594993,-118.914318
35356,3.166654,5.880428,4.790331,2.601556,-2.805920,-2.538894,2.889152,-0.798285,1.290243,0.031096,0.058305,0.048873,0.999867,0.014445,-0.003991,0.006451,-0.521138,0.018239,0.240669,0.818634,23.000521,-16.302368,-118.377235
35357,5.865041,6.270254,3.850205,1.886258,-5.405995,-2.345988,2.847147,-0.258564,1.892052,0.058007,0.062696,0.039470,0.999853,0.014235,-0.001293,0.009460,-0.528800,0.014202,0.252767,0.810110,24.347931,-16.878053,-117.397405
35358,5.035472,4.344229,3.879197,0.595192,-3.923589,-3.215291,3.326726,0.443799,2.641230,0.049868,0.043451,0.039404,0.999772,0.016632,0.002219,0.013205,-0.540214,0.006986,0.264813,0.798745,25.795568,-17.293799,-115.845565
35359,5.626591,5.990776,3.609081,1.891754,-4.830986,-2.488001,3.882232,1.053217,3.485098,0.055412,0.060166,0.036964,0.999646,0.019409,0.005265,0.017423,-0.555515,-0.003043,0.277236,0.783922,27.367122,-17.652671,-113.684724
35360,5.832517,7.560868,4.020071,3.131929,-4.942984,-1.263151,4.138585,1.868432,4.309738,0.057072,0.076001,0.041234,0.999510,0.020690,0.009341,0.021545,-0.574697,-0.015838,0.288194,0.765779,28.875492,-17.878022,-110.863468
35361,2.656608,10.574908,6.411851,5.969922,-1.235984,1.269175,3.982468,2.479147,4.934523,0.024777,0.105075,0.065901,0.999421,0.019908,0.012393,0.024668,-0.596553,-0.029599,0.296524,0.745199,30.127511,-18.039342,-107.536115
35362,1.746890,7.180537,8.265538,2.391438,1.068683,0.960640,2.801822,2.680511,4.939874,0.016822,0.071061,0.083426,0.999507,0.014007,0.013400,0.024695,-0.618256,-0.040555,0.299559,0.725520,30.678102,-18.153329,-104.146047
35363,1.403605,1.043440,8.172183,-3.007787,1.708902,-2.205347,2.680786,2.765673,4.535836,0.014940,0.009672,0.081652,0.999557,0.013402,0.013826,0.022676,-0.638073,-0.052008,0.301508,0.706577,31.210916,-18.136008,-100.937717
35364,0.124539,2.166149,10.425464,-3.057551,3.542938,-0.247758,2.570721,2.669623,3.927066,0.002231,0.020357,0.104497,0.999636,0.012852,0.013346,0.019633,-0.655102,-0.063650,0.302993,0.689191,31.793642,-18.013991,-98.074759
35365,-1.464447,1.691159,11.673126,-4.161321,5.254066,0.002243,2.175331,2.308742,3.321359,-0.013559,0.015408,0.117065,0.999736,0.010876,0.011543,0.016605,-0.669218,-0.073627,0.303895,0.674073,32.283912,-17.907673,-95.636072
35366,-1.109235,1.888550,11.737278,-4.339492,4.774229,0.233655,1.790086,1.824698,2.671791,-0.010262,0.017693,0.117631,0.999829,0.008950,0.009123,0.013358,-0.680256,-0.081643,0.304761,0.661594,32.707964,-17.854563,-93.684833
35367,-1.093021,1.037293,11.587976,-5.189769,4.463682,-0.342232,1.258550,1.439812,1.884642,-0.010188,0.009545,0.116017,0.999910,0.006293,0.007199,0.009423,-0.688148,-0.087752,0.304762,0.652589,32.988320,-17.752790,-92.256920
35368,-0.752387,1.171083,10.795729,-4.803454,3.809776,-0.818481,0.999932,1.038886,1.164177,-0.007029,0.011129,0.108051,0.999957,0.005000,0.005194,0.005821,-0.693096,-0.092753,0.304951,0.646545,33.274896,-17.624802,-91.324528
35369,0.530724,2.383651,10.620470,-3.809798,2.627821,0.053258,0.747003,0.821751,0.594838,0.005674,0.023456,0.106270,0.999980,0.003735,0.004109,0.002974,-0.695950,-0.097034,0.304782,0.642920,33.525518,-17.424965,-90.749269
35370,-0.272562,5.034883,10.728157,-1.729437,3.778568,1.289034,0.847711,0.494527,0.511478,-0.002588,0.049887,0.107500,0.999985,0.004239,0.002473,0.002557,-0.697962,-0.100741,0.306029,0.639568,33.880695,-17.357484,-90.324253
35371,2.580476,7.474038,9.402387,0.960350,1.112039,2.384280,0.282300,0.248466,0.534922,0.025722,0.074676,0.094097,0.999995,0.001411,0.001242,0.002675,-0.699945,-0.101646,0.306328,0.637110,33.932263,-17.415965,-89.969462
35372,3.811668,2.992915,7.440143,-1.660247,-1.296363,-1.186850,0.047721,0.350627,0.458887,0.038178,0.029999,0.074342,0.999996,0.000239,0.001753,0.002294,-0.701952,-0.102176,0.305483,0.635219,33.851087,-17.401195,-89.618523
35373,4.192299,4.591416,7.649018,-0.436801,-1.349365,-0.058082,0.257428,0.509219,0.424359,0.042020,0.045905,0.076442,0.999994,0.001287,0.002546,0.002122,-0.703980,-0.103992,0.304724,0.633042,33.879049,-17.300076,-89.231646
35374,6.687946,3.905804,5.777079,0.106397,-4.331600,-1.176480,0.058423,0.874645,0.424682,0.067048,0.039183,0.057489,0.999988,0.000292,0.004373,0.002123,-0.706654,-0.106266,0.302046,0.630964,33.758884,-17.024687,-88.723315
35375,5.011886,3.868672,6.289813,-0.201427,-2.676397,-1.301340,0.404830,1.458730,0.591765,0.050462,0.038709,0.062609,0.999967,0.002024,0.007294,0.002959,-0.710523,-0.111346,0.298470,0.627435,33.760257,-16.523889,-87.938783
35376,4.532927,5.837129,6.705901,1.208432,-1.832455,-0.077707,0.516573,1.743545,0.860543,0.045661,0.058394,0.066813,0.999949,0.002583,0.008718,0.004303,-0.715537,-0.117307,0.294362,0.622572,33.769943,-15.973368,-86.928728
35377,4.659857,5.387565,5.981125,1.302384,-2.261187,-0.884978,0.613306,2.172049,1.108912,0.046947,0.053953,0.059468,0.999921,0.003066,0.010860,0.005544,-0.721808,-0.124565,0.289125,0.616347,33.774404,-15.297692,-85.656913
35378,2.151051,5.051268,7.167946,0.191725,0.196119,-0.787974,0.773214,2.422726,1.243127,0.022065,0.050372,0.071609,0.999900,0.003866,0.012113,0.006215,-0.728623,-0.132957,0.283515,0.609139,33.849082,-14.546854,-84.240365
35379,1.166712,4.973108,7.894171,-0.413719,1.112799,-0.485324,1.030788,2.460402,1.333846,0.012309,0.049405,0.079048,0.999889,0.005154,0.012302,0.006669,-0.735445,-0.142245,0.278545,0.601083,34.075226,-13.810200,-82.769388
35380,1.563201,5.766757,6.874133,0.811619,0.677987,-0.766506,1.231092,2.431684,1.441276,0.016055,0.057358,0.068902,0.999881,0.006155,0.012158,0.007206,-0.742236,-0.152002,0.274302,0.592233,34.424623,-13.129464,-81.256532
35381,2.781467,5.298042,5.474183,1.410230,-0.837318,-1.870264,1.258185,2.742752,1.423282,0.028189,0.052836,0.054690,0.999861,0.006291,0.013713,0.007116,-0.749190,-0.162765,0.268894,0.583025,34.787429,-12.304821,-79.648688
35382,0.874174,4.677051,5.632323,0.469485,0.741006,-2.492092,1.231499,2.984898,1.201760,0.009304,0.046478,0.056474,0.999852,0.006157,0.014924,0.006009,-0.755628,-0.174386,0.262250,0.574317,35.165822,-11.304456,-78.066226
35383,3.104893,1.702002,3.061625,0.155271,-2.432268,-5.816510,1.064147,3.287946,0.753744,0.031484,0.016977,0.030191,0.999844,0.005320,0.016439,0.003769,-0.761096,-0.186778,0.253504,0.567083,35.499046,-10.023057,-76.594400
35384,5.256042,-0.543566,-0.067545,0.891150,-5.187988,-9.351783,1.353142,4.134405,0.065707,0.052533,-0.005409,-0.001798,0.999763,0.006765,0.020670,0.000329,-0.765115,-0.203468,0.241622,0.561087,36.044115,-8.129525,-75.156812
35385,4.656863,0.604128,-0.247464,1.848822,-4.264182,-9.100948,1.793723,5.263210,-0.562763,0.046500,0.005940,-0.003645,0.999610,0.008967,0.026313,-0.002813,-0.767810,-0.225641,0.225861,0.555465,36.883900,-5.518404,-73.608549
35386,0.992836,3.938523,1.270820,2.468866,-0.021597,-6.346320,2.416095,6.154438,-0.776616,0.010475,0.039190,0.012866,0.999446,0.012078,0.030767,-0.003882,-0.769491,-0.252702,0.207966,0.548430,38.139693,-2.457413,-71.805977
35387,-1.459791,9.513092,3.693264,4.288686,3.180119,-0.995293,2.472469,6.691988,-0.635282,-0.013024,0.094704,0.038559,0.999359,0.012360,0.033453,-0.003176,-0.771130,-0.281007,0.188076,0.539463,39.521048,0.751933,-69.681204
35388,-3.400124,10.653138,5.355280,3.293462,4.470153,1.272003,1.828295,6.945706,-0.299429,-0.031933,0.106078,0.055657,0.999354,0.009140,0.034721,-0.001497,-0.773827,-0.306837,0.165716,0.528754,40.664768,3.899799,-67.243782
35389,-4.735392,6.215618,5.436915,-0.597216,4.045316,-1.217952,1.373369,6.938698,-0.169763,-0.045368,0.061813,0.056392,0.999374,0.006865,0.034686,-0.000849,-0.776578,-0.330391,0.142154,0.517263,41.689915,6.950422,-64.684314
35390,-6.451923,3.397097,6.366735,-3.975172,3.996238,-1.945387,1.573314,6.726040,-0.433117,-0.062251,0.033594,0.066052,0.999401,0.007865,0.033623,-0.002165,-0.777216,-0.353959,0.119339,0.506366,42.947864,9.960100,-62.243055
35391,-7.977563,2.707538,6.537495,-5.382774,4.466522,-1.766262,2.005277,6.308635,-0.874882,-0.077538,0.026744,0.068114,0.999443,0.010025,0.031537,-0.004374,-0.774826,-0.378001,0.098307,0.497087,44.526180,12.912180,-60.059448
35392,-8.732566,6.070632,7.347321,-3.964943,4.743746,1.536883,2.217986,5.870930,-1.287512,-0.084717,0.060419,0.076657,0.999487,0.011088,0.029350,-0.006436,-0.769966,-0.401582,0.078619,0.489594,46.275500,15.792626,-58.118161
35393,-9.336257,9.451765,7.983797,-2.340919,4.756811,4.749928,1.735127,5.432764,-1.557585,-0.090398,0.094518,0.083141,0.999563,0.008674,0.027160,-0.007787,-0.764514,-0.421954,0.058814,0.483750,47.782930,18.560931,-56.367576
35394,-9.966741,10.964745,8.752932,-1.968734,4.239149,6.748363,0.751391,4.954812,-1.707491,-0.096513,0.110145,0.090360,0.999650,0.003757,0.024771,-0.008536,-0.760031,-0.437131,0.038094,0.479394,48.741754,21.174567,-54.803962
35395,-10.235653,8.244488,9.093295,-3.989633,3.070807,5.354336,-0.265107,4.360987,-1.722522,-0.099628,0.083433,0.093015,0.999724,-0.001325,0.021803,-0.008612,-0.757149,-0.446745,0.017136,0.476289,49.095149,23.553847,-53.465309
35396,-9.495772,2.453274,8.312973,-7.103857,1.634587,0.776558,-0.456117,3.779450,-1.915370,-0.093123,0.025623,0.084844,0.999773,-0.002280,0.018896,-0.009576,-0.753801,-0.454053,-0.002519,0.474988,49.255257,25.794003,-52.447676
35397,-9.333133,0.553057,8.327041,-8.186450,0.827140,-0.377018,0.039690,3.240532,-2.531524,-0.091886,0.006683,0.084768,0.999789,0.000198,0.016202,-0.012657,-0.747546,-0.461735,-0.020359,0.477034,49.511905,28.096992,-51.922424
35398,-11.180915,2.786952,9.898576,-7.946464,0.863273,3.104124,0.255063,2.565597,-3.200813,-0.110063,0.029513,0.100442,0.999789,0.001275,0.012827,-0.016003,-0.738947,-0.468356,-0.036710,0.482962,49.616336,30.440895,-51.999535
35399,-11.660058,3.947479,11.156378,-7.467582,0.007815,5.026828,0.018746,1.731196,-3.686968,-0.114875,0.041593,0.112567,0.999793,0.000094,0.008655,-0.018434,-0.729578,-0.471799,-0.051661,0.492395,49.243634,32.683962,-52.724006
35400,-11.891652,2.258307,11.485571,-8.562642,-0.454209,4.500831,-0.217344,0.853721,-4.281315,-0.117903,0.025240,0.115334,0.999761,-0.001087,0.004268,-0.021405,-0.719201,-0.471859,-0.065389,0.505790,48.281201,34.846407,-54.222803
35401,-12.641406,1.455410,11.619599,-9.092953,-0.176840,4.822530,-0.169514,-0.133922,-5.005358,-0.126073,0.017811,0.116097,0.999686,-0.000847,-0.000670,-0.025024,-0.706813,-0.469096,-0.077100,0.523851,46.740119,36.903083,-56.679054
35402,-13.098452,0.608575,11.428874,-9.327378,0.337400,4.863825,0.030155,-1.064145,-5.502072,-0.131357,0.009679,0.113592,0.999607,0.000151,-0.005320,-0.027507,-0.692512,-0.464077,-0.086134,0.545565,44.706390,38.731010,-60.014057
35403,-12.660322,0.903799,10.368868,-7.888912,1.007661,4.516279,0.593941,-1.836989,-5.860567,-0.127217,0.012455,0.102556,0.999524,0.002969,-0.009183,-0.029298,-0.675665,-0.458350,-0.091689,0.570075,42.440898,40.277397,-64.102573
35404,-11.753231,3.796257,9.664229,-4.198137,0.861872,5.271766,0.886392,-2.373869,-6.196727,-0.117427,0.041178,0.095426,0.999440,0.004431,-0.011867,-0.030978,-0.656733,-0.451442,-0.095301,0.596507,39.848424,41.586543,-68.823286
35405,-10.372981,6.293938,9.016638,-0.703066,0.087840,5.285920,0.549653,-2.634643,-6.692883,-0.102729,0.066143,0.088987,0.999350,0.002748,-0.013170,-0.033457,-0.636419,-0.441881,-0.100037,0.624263,36.585356,42.767892,-74.143857
35406,-9.979048,7.909938,9.154874,1.534388,-0.681835,5.778155,-0.354987,-2.683371,-7.412505,-0.097979,0.082915,0.090081,0.999222,-0.001774,-0.013413,-0.037053,-0.614970,-0.428285,-0.108917,0.653085,32.249107,43.897855,-80.152860
35407,-10.949995,7.060541,10.525396,1.051924,-0.901113,6.876109,-1.395837,-2.727415,-7.832028,-0.108022,0.075581,0.103258,0.999116,-0.006977,-0.013633,-0.039149,-0.593392,-0.410422,-0.121747,0.681629,26.880989,44.748630,-86.680776
35408,-11.801647,3.879630,10.733801,-0.834779,0.293044,6.577857,-1.628955,-2.734161,-7.792235,-0.117813,0.044254,0.105380,0.999115,-0.008142,-0.013667,-0.038950,-0.571377,-0.391127,-0.135082,0.708732,21.233553,45.135208,-93.339770
35409,-11.429899,3.981864,10.338606,0.477258,0.192505,6.094450,-0.993603,-2.999708,-7.149740,-0.114297,0.044413,0.101458,0.999236,-0.004967,-0.014995,-0.035740,-0.549641,-0.372511,-0.143901,0.733773,16.234724,44.818662,-99.597177
35410,-6.090497,11.247213,8.828149,7.761375,-5.332855,2.549523,-0.270128,-3.287369,-5.841640,-0.059022,0.114333,0.087147,0.999437,-0.001350,-0.016434,-0.029203,-0.530827,-0.355256,-0.146678,0.755315,12.452390,43.818935,-104.776975
35411,-1.526838,14.716404,8.535652,10.449091,-9.926980,-0.646727,-1.275008,-2.899076,-4.141255,-0.013436,0.147994,0.084211,0.999660,-0.006374,-0.014494,-0.020704,-0.519462,-0.337744,-0.151100,0.770232,9.239067,42.630220,-108.395105
35412,-1.794137,7.334454,6.434389,4.786808,-5.549950,-3.127273,-1.598632,-2.248238,-2.742357,-0.017646,0.074098,0.063554,0.999811,-0.007993,-0.011240,-0.013711,-0.513261,-0.322759,-0.156032,0.779771,6.753428,41.569481,-110.726719
35413,-6.814508,2.371940,8.162341,1.276967,-0.887177,0.969839,-0.914716,-2.002003,-1.953582,-0.068718,0.024760,0.080826,0.999892,-0.004573,-0.010010,-0.009768,-0.508690,-0.311025,-0.157596,0.787186,5.157740,40.541913,-112.351765
35414,-13.604309,3.084256,12.259216,2.873239,1.445829,8.476956,-0.104750,-2.587502,-1.683300,-0.137347,0.032059,0.120804,0.999881,-0.000524,-0.012937,-0.008416,-0.504267,-0.299173,-0.154037,0.795288,4.193693,39.139352,-113.753589
35415,-17.092061,3.927382,13.546121,4.828039,3.261599,11.566013,0.037605,-3.947134,-1.821872,-0.173182,0.040820,0.132066,0.999764,0.000188,-0.019734,-0.009109,-0.499951,-0.282077,-0.146626,0.805594,3.285877,36.948079,-115.254579
35416,-13.931514,2.640032,11.962244,3.743364,2.983787,8.108278,0.041399,-5.143288,-2.038698,-0.142051,0.027815,0.115998,0.999617,0.000207,-0.025713,-0.010192,-0.495322,-0.259829,-0.136436,0.817637,2.372038,34.059297,-116.858661
35417,-11.547344,2.820578,9.375268,4.351847,3.002576,4.371041,0.718092,-5.954193,-1.957627,-0.117916,0.029024,0.090369,0.999503,0.003590,-0.029766,-0.009787,-0.490265,-0.235781,-0.121236,0.830271,1.990726,30.690462,-118.330958
35418,-7.405133,6.532542,7.799751,6.736262,-0.752306,0.788165,1.076190,-6.255601,-1.668472,-0.075903,0.065541,0.075995,0.999462,0.005380,-0.031272,-0.008341,-0.485660,-0.211284,-0.103356,0.841909,2.008631,27.139337,-119.557672
35419,-5.949822,6.473067,7.061959,6.500168,-1.158100,-0.671538,1.066742,-6.179979,-1.177206,-0.061268,0.064717,0.069090,0.999491,0.005333,-0.030895,-0.005885,-0.482586,-0.187122,-0.085062,0.851387,2.237083,23.623539,-120.440930
35420,-7.625995,5.032240,7.449442,6.199275,1.235668,0.136449,1.332118,-6.250134,-0.551728,-0.078406,0.050050,0.072400,0.999486,0.006659,-0.031245,-0.002758,-0.481462,-0.163374,-0.064803,0.858664,2.808704,20.057738,-120.943508
35421,-6.977648,4.265858,7.306490,5.500849,1.678815,-0.476751,1.600756,-6.509722,0.010141,-0.072114,0.042081,0.071081,0.999438,0.008002,-0.032543,0.000051,-0.482097,-0.139167,-0.042231,0.863962,3.657089,16.331163,-121.151390
35422,-5.465257,2.767879,6.143079,3.885251,1.997725,-2.318967,2.252721,-6.665074,0.747726,-0.056767,0.026789,0.059867,0.999374,0.011261,-0.033318,0.003738,-0.484924,-0.115855,-0.015911,0.866702,4.981649,12.489198,-121.000102
35423,-3.258670,4.979775,4.878502,4.964765,-0.366978,-3.946141,2.935639,-6.700707,1.500476,-0.034581,0.048831,0.048370,0.999303,0.014675,-0.033496,0.007501,-0.489978,-0.093947,0.013915,0.866546,6.747547,8.579601,-120.522335
35424,-0.497619,5.491496,4.126325,4.194872,-2.513969,-4.965162,3.084500,-6.287384,2.196583,-0.006885,0.054203,0.041907,0.999327,0.015419,-0.031430,0.010980,-0.497333,-0.074026,0.043679,0.863291,8.602594,4.839620,-119.744156
35425,1.604914,4.823245,1.952916,3.010516,-3.691005,-7.175178,3.337676,-5.659244,2.692584,0.014825,0.048098,0.020764,0.999370,0.016685,-0.028290,0.013460,-0.506225,-0.057231,0.073103,0.857390,10.565125,1.382407,-118.754833
35426,4.467007,7.640439,2.425510,4.063127,-7.241680,-5.909296,3.218278,-4.578474,2.861614,0.042985,0.076613,0.026484,0.999506,0.016089,-0.022889,0.014306,-0.515698,-0.044650,0.099251,0.849830,12.404991,-1.517201,-117.664016
35427,2.960687,7.399693,5.306035,4.143414,-5.087232,-2.840740,2.408051,-3.487860,2.733142,0.027656,0.073734,0.054443,0.999682,0.012039,-0.017437,0.013664,-0.524931,-0.034629,0.119034,0.842068,13.730406,-3.821515,-116.582864
35428,-0.985622,2.603024,7.020275,1.413231,1.103093,-2.477298,2.198438,-3.033722,2.693259,-0.011265,0.025112,0.070318,0.999734,0.010991,-0.015167,0.013465,-0.533992,-0.025985,0.136678,0.833964,14.896732,-5.890546,-115.507467
35429,-0.828325,3.569631,7.472773,2.072039,1.026294,-1.818178,2.279670,-3.096051,2.521989,-0.009885,0.034725,0.074982,0.999736,0.011397,-0.015479,0.012609,-0.542004,-0.017389,0.154720,0.825827,16.086288,-7.989817,-114.575676
35430,2.898460,1.407562,7.261780,-1.362323,-1.275407,-2.090809,1.762818,-2.781656,2.029440,0.027829,0.013719,0.073132,0.999813,0.008814,-0.013907,0.010147,-0.548022,-0.009077,0.169676,0.819023,16.989452,-9.851997,-113.900705
35431,-0.308436,-1.402031,7.477246,-2.663273,2.858876,-3.278216,1.972844,-2.588716,1.523673,-0.003940,-0.014784,0.074582,0.999839,0.009864,-0.012943,0.007618,-0.551936,-0.002543,0.184870,0.813132,18.041651,-11.533254,-113.501467
35432,2.953813,1.381990,7.010002,-1.395813,-0.895555,-2.261526,1.912229,-2.483957,0.979525,0.028597,0.013288,0.070588,0.999865,0.009561,-0.012419,0.004897,-0.553567,0.003218,0.199476,0.808556,19.116427,-13.064691,-113.415309
35433,3.307963,1.615275,6.071720,-1.162544,-1.386832,-2.946831,1.646361,-2.017305,0.587435,0.032417,0.015746,0.061177,0.999911,0.008232,-0.010086,0.002937,-0.553954,0.007449,0.211668,0.805156,20.071277,-14.270749,-113.481661
35434,2.724155,2.574784,6.936751,-0.318729,-0.680219,-1.963983,1.545662,-1.604788,0.461372,0.026624,0.025272,0.069779,0.999935,0.007728,-0.008024,0.002307,-0.554176,0.010154,0.222294,0.802104,20.972468,-15.228555,-113.553322
35435,2.208681,3.179705,6.274412,0.517263,-0.478780,-2.473895,1.720955,-1.413191,0.789006,0.021517,0.031340,0.063168,0.999930,0.008605,-0.007066,0.003945,-0.555864,0.011978,0.233036,0.797851,21.917667,-16.151960,-113.417626
35436,6.475550,5.411952,3.658151,1.490866,-5.704118,-2.752843,1.807702,-0.899438,1.344900,0.064224,0.054217,0.037361,0.999926,0.009038,-0.004497,0.006724,-0.560290,0.012148,0.242640,0.791867,22.795801,-16.925947,-112.873230
35437,6.739866,5.570089,2.731514,1.830490,-6.203941,-3.326544,2.220170,0.124537,2.335921,0.066762,0.056176,0.027895,0.999870,0.011100,0.000623,0.011679,-0.569795,0.008317,0.250888,0.782508,23.673535,-17.393058,-111.550635
35438,4.500802,7.577830,4.638895,3.979084,-3.708528,-1.469561,2.493568,0.872641,3.439548,0.043907,0.075955,0.047142,0.999765,0.012467,0.004363,0.017196,-0.584354,0.002156,0.257953,0.769406,24.464288,-17.745490,-109.444275
35439,4.814412,5.294091,4.572678,1.929408,-3.390711,-2.269972,2.690109,1.475657,4.355900,0.047324,0.053359,0.046091,0.999645,0.013449,0.007377,0.021777,-0.602877,-0.005712,0.263833,0.752927,25.154090,-18.030121,-106.685143
35440,4.552308,5.531991,4.415922,2.372145,-3.069793,-2.344613,3.068933,2.100972,4.995046,0.044601,0.055760,0.044541,0.999515,0.015342,0.010503,0.024971,-0.624105,-0.016232,0.269073,0.733368,25.895311,-18.182975,-103.417564
35441,1.581543,7.837936,7.531118,3.976005,0.885746,0.387901,2.812143,2.758609,5.086810,0.014880,0.077698,0.076197,0.999483,0.014058,0.013791,0.025430,-0.645955,-0.028216,0.271035,0.713082,26.416775,-18.053964,-99.926176
35442,-2.443839,3.557882,10.393774,-0.604076,5.833630,-0.207721,1.806977,2.619336,4.641416,-0.023874,0.034077,0.104565,0.999604,0.009034,0.013095,0.023204,-0.665573,-0.037041,0.269579,0.694959,26.459706,-17.900481,-96.715722
35443,-0.858394,-1.515581,9.484435,-5.266431,3.715470,-2.640585,1.674609,2.273865,3.769891,-0.007208,-0.016094,0.094799,0.999723,0.008372,0.011368,0.018848,-0.681280,-0.045369,0.268443,0.679512,26.605854,-17.704721,-94.069029
35444,-2.431734,0.086953,10.907431,-4.544254,5.519434,-1.223749,1.590093,1.949842,2.746277,-0.023253,-0.000323,0.109305,0.999827,0.007950,0.009749,0.013731,-0.692782,-0.053668,0.267790,0.667429,26.909568,-17.421579,-92.062990
35445,0.120248,0.074163,8.939353,-3.947574,2.349754,-2.142971,1.301225,1.599523,1.912330,0.001914,0.000176,0.089382,0.999901,0.006506,0.007997,0.009561,-0.700926,-0.060894,0.267070,0.658535,27.216439,-17.109004,-90.598915
35446,-0.665508,3.192483,9.025766,-1.336945,3.396918,-0.937449,1.613170,1.517103,1.595322,-0.006219,0.031144,0.090559,0.999907,0.008066,0.007585,0.007976,-0.707682,-0.069358,0.267531,0.650233,27.767561,-16.765539,-89.326882
35447,1.324306,4.997340,7.749328,0.745793,1.378759,-0.630029,1.361117,1.293141,1.505387,0.013371,0.049545,0.077745,0.999928,0.006805,0.006466,0.007527,-0.713821,-0.076306,0.267877,0.642557,28.210053,-16.521194,-88.163440
35448,3.296253,3.696868,5.950737,0.468902,-1.177401,-2.174817,1.297952,1.474001,1.382102,0.033146,0.036811,0.059503,0.999928,0.006490,0.007370,0.006910,-0.719722,-0.083770,0.267300,0.635243,28.627665,-16.160790,-87.013872
35449,4.775267,3.733609,4.634610,1.215090,-2.919695,-2.868528,1.464878,1.831886,1.260234,0.047941,0.037299,0.046181,0.999911,0.007324,0.009159,0.006301,-0.725534,-0.093114,0.265859,0.627893,29.137296,-15.595724,-85.823997
35450,4.430283,4.448082,5.258448,1.496009,-2.385742,-2.122839,1.676857,2.363285,1.266492,0.044642,0.044323,0.052430,0.999875,0.008384,0.011816,0.006332,-0.731813,-0.104873,0.263117,0.619855,29.742072,-14.779094,-84.474779
35451,1.812624,5.982053,7.452196,1.365355,0.737101,-0.210824,1.919342,2.605506,1.444329,0.018671,0.059237,0.074851,0.999843,0.009596,0.013027,0.007221,-0.738634,-0.118000,0.260245,0.610548,30.461832,-13.907919,-82.957706
35452,2.002060,6.197109,7.655720,1.344116,0.518463,0.134417,1.865676,2.628294,1.668688,0.020515,0.061425,0.076864,0.999835,0.009328,0.013141,0.008343,-0.745958,-0.130674,0.257190,0.600270,31.144789,-13.110322,-81.315418
35453,2.004774,4.359404,7.526269,-0.195966,-0.083836,-0.889664,1.708711,2.827849,1.635547,0.020759,0.043118,0.075342,0.999830,0.008543,0.014138,0.008177,-0.753298,-0.143355,0.252796,0.589988,31.748929,-12.222345,-79.624512
35454,0.800954,2.133525,7.499051,-2.274864,0.299859,-2.318686,1.690545,2.952454,1.309657,0.008980,0.020758,0.075040,0.999834,0.008452,0.014761,0.006548,-0.759589,-0.156704,0.247577,0.580667,32.396395,-11.193801,-78.053323
35455,1.923042,1.635000,6.467757,-1.913607,-1.179209,-3.244059,1.769929,3.170682,0.886596,0.020183,0.015867,0.064504,0.999825,0.008849,0.015852,0.004433,-0.764606,-0.171453,0.241328,0.572488,33.142289,-9.946710,-76.613602
35456,2.500740,2.398002,5.150833,-0.438430,-1.732034,-3.867954,1.783402,3.588553,0.526213,0.025866,0.023589,0.051261,0.999796,0.008916,0.017942,0.002631,-0.768792,-0.187823,0.233135,0.565093,33.936677,-8.406189,-75.203863
35457,5.219982,1.242115,2.397671,0.979931,-4.740623,-6.480758,1.750901,4.306849,0.211256,0.052688,0.012273,0.022953,0.999729,0.008754,0.021532,0.001056,-0.772595,-0.206371,0.221668,0.558007,34.740807,-6.442500,-73.694643
35458,5.099702,1.185849,0.877998,1.903629,-4.594700,-7.956989,2.245589,5.399461,-0.037726,0.051214,0.011760,0.007532,0.999573,0.011226,0.026993,-0.000189,-0.775863,-0.230009,0.206968,0.549815,35.864096,-3.912472,-71.913041
35459,2.267654,4.924212,1.735625,3.440702,-1.012441,-5.392549,2.778927,6.443722,-0.164183,0.023275,0.048983,0.017295,0.999384,0.013892,0.032212,-0.000821,-0.778446,-0.258476,0.189306,0.539792,37.363146,-0.898535,-69.780503
35460,-0.548177,9.389307,2.992569,4.990131,2.440839,-1.655211,2.697646,7.211137,0.013950,-0.004375,0.093476,0.031360,0.999259,0.013485,0.036047,0.000070,-0.781285,-0.288176,0.168435,0.527426,38.938939,2.337832,-67.217999
35461,-3.280046,9.074953,3.498226,3.222578,4.398279,-1.118005,2.422501,7.665233,0.433491,-0.031596,0.090238,0.037304,0.999190,0.012109,0.038316,0.002167,-0.784800,-0.317199,0.145387,0.512187,40.530584,5.550995,-64.208711
35462,-5.951314,6.323759,4.159615,-0.531683,5.352268,-1.828937,2.486977,7.806721,0.567429,-0.057988,0.062529,0.044661,0.999157,0.012431,0.039023,0.002836,-0.787363,-0.346221,0.121945,0.495299,42.354766,8.681112,-60.976052
35463,-7.629583,4.644796,5.169932,-3.344679,5.306737,-1.620780,2.760901,7.690846,0.262595,-0.074277,0.045603,0.055216,0.999165,0.013801,0.038444,0.001313,-0.787307,-0.375634,0.098882,0.478821,44.500424,11.772235,-57.783524
35464,-9.644921,6.447742,6.660252,-4.226574,5.887050,1.427593,2.874491,7.396670,-0.402285,-0.093748,0.063668,0.071023,0.999211,0.014369,0.036974,-0.002011,-0.784023,-0.404518,0.075858,0.464671,46.827215,14.891355,-54.830407
35465,-12.343654,11.018941,9.470327,-4.292301,6.445155,7.604523,2.270479,6.816799,-0.940502,-0.119570,0.109642,0.100070,0.999344,0.011350,0.034077,-0.004701,-0.779361,-0.429301,0.052485,0.453368,48.871443,17.905776,-52.185845
35466,-13.751978,11.592605,11.493292,-5.742638,5.160218,10.083817,1.055647,5.873443,-1.017222,-0.133465,0.115989,0.119505,0.999542,0.005277,0.029363,-0.005085,-0.776014,-0.446769,0.029821,0.444196,50.236375,20.525382,-49.870485
35467,-13.574315,9.048545,12.101632,-7.463663,3.079791,8.823992,0.097554,4.664775,-0.931611,-0.132448,0.091047,0.124176,0.999717,0.000488,0.023322,-0.004658,-0.774248,-0.457482,0.009876,0.437211,50.972238,22.627569,-48.010622
35468,-12.307264,4.134539,11.652072,-9.583531,0.825630,4.739826,-0.151158,3.481969,-0.894826,-0.120833,0.041978,0.118606,0.999838,-0.000756,0.017409,-0.004474,-0.772723,-0.464453,-0.005954,0.432604,51.419395,24.270856,-46.662368
35469,-11.060968,0.193294,10.468152,-10.848392,-0.371997,0.870321,0.438446,2.426173,-1.053430,-0.109318,0.002280,0.106018,0.999910,0.002192,0.012131,-0.005267,-0.769329,-0.471287,-0.016798,0.430974,52.001186,25.599112,-45.868474
35470,-8.515055,0.563473,9.842204,-8.667514,-1.775802,-0.251903,0.993012,1.736748,-1.608663,-0.084245,0.005824,0.099185,0.999918,0.004965,0.008684,-0.008043,-0.763354,-0.478647,-0.025110,0.433079,52.678696,26.931185,-45.614580
35471,-7.013605,1.714631,8.801661,-6.442193,-1.957187,-0.633201,0.954106,1.393198,-2.738975,-0.069281,0.017677,0.088585,0.999871,0.004770,0.006966,-0.013694,-0.754912,-0.484866,-0.034885,0.440223,53.058770,28.657270,-45.962968
35472,-8.740006,6.610550,9.723226,-4.157253,-1.095801,4.191790,0.311100,1.008730,-3.866228,-0.085610,0.067620,0.097771,0.999799,0.001555,0.005043,-0.019330,-0.745363,-0.487456,-0.047362,0.452303,52.734103,30.767700,-46.967880
35473,-9.683358,6.433797,9.657960,-4.363247,-0.683297,4.640919,-0.552710,0.459638,-4.191873,-0.095231,0.066612,0.096618,0.999774,-0.002763,0.002298,-0.020958,-0.737001,-0.485301,-0.060503,0.466532,51.630928,32.819739,-48.452389
35474,-8.960203,2.561094,8.557594,-6.003441,-0.742404,1.298958,-0.489074,0.028792,-4.221118,-0.089020,0.027703,0.085523,0.999774,-0.002445,0.000144,-0.021104,-0.728211,-0.482144,-0.071971,0.481732,50.337541,34.704808,-50.265464
35475,-8.886102,0.308885,8.406935,-7.292021,-0.817760,-0.020956,0.060098,-0.343607,-4.730988,-0.088899,0.005166,0.083918,0.999719,0.000300,-0.001718,-0.023653,-0.716641,-0.479668,-0.081934,0.499631,49.002763,36.637374,-52.605828
35476,-11.024219,1.934185,9.505634,-7.018143,-0.170869,3.083784,0.403413,-0.907595,-5.632103,-0.110073,0.022252,0.094599,0.999591,0.002017,-0.004537,-0.028157,-0.701731,-0.476303,-0.091148,0.521921,47.267510,38.690060,-55.813002
35477,-13.768044,3.619210,10.235625,-6.452711,1.143129,6.448261,0.345551,-1.743490,-6.344109,-0.137330,0.040377,0.101225,0.999457,0.001727,-0.008716,-0.031715,-0.684822,-0.469789,-0.099163,0.548164,44.775749,40.606584,-60.020301
35478,-14.714132,3.591552,9.689805,-5.739527,2.347454,7.061970,0.349013,-2.602818,-6.848823,-0.147045,0.040786,0.095052,0.999328,0.001745,-0.013011,-0.034236,-0.666113,-0.460095,-0.105324,0.577506,41.544879,42.200720,-65.194878
35479,-14.225353,3.048385,7.863371,-4.321664,3.630158,5.728421,0.480319,-3.253535,-7.500470,-0.142237,0.035634,0.076401,0.999162,0.002401,-0.016263,-0.037492,-0.644567,-0.447941,-0.110246,0.609695,37.642789,43.498607,-71.327822
35480,-13.721729,5.810132,6.874997,-0.236306,3.705377,6.168820,0.552763,-3.729956,-7.941157,-0.136024,0.063334,0.066375,0.999034,0.002763,-0.018644,-0.039693,-0.620611,-0.433497,-0.114238,0.643328,33.181337,44.391468,-78.197672
35481,-12.151294,8.198530,6.571012,3.369562,2.252221,5.728431,0.392032,-3.953566,-7.615033,-0.119548,0.086437,0.063500,0.999078,0.001960,-0.019762,-0.038063,-0.597019,-0.417226,-0.117094,0.675115,28.574101,44.681510,-85.076942
35482,-8.063276,11.190171,5.496767,7.606950,-0.977225,2.898515,0.125635,-3.720391,-6.710884,-0.077824,0.114511,0.053574,0.999264,0.000628,-0.018597,-0.033546,-0.575899,-0.400763,-0.119502,0.702459,24.308952,44.481679,-91.241567
35483,-3.827449,14.345638,4.502675,11.270557,-4.743833,-0.265812,-0.699143,-2.945808,-5.725931,-0.034797,0.144641,0.043993,0.999476,-0.003495,-0.014726,-0.028625,-0.558711,-0.384749,-0.124876,0.724028,20.318146,44.160997,-96.372211
35484,-2.069416,11.548710,4.964211,8.666652,-5.643239,-2.375171,-1.938975,-2.084979,-4.676740,-0.018487,0.116409,0.048316,0.999625,-0.009694,-0.010424,-0.023381,-0.546660,-0.368680,-0.135038,0.739596,16.382120,43.867172,-100.426732
35485,-2.648896,4.638450,4.540508,2.837928,-2.578396,-3.943900,-1.543249,-1.474596,-3.114094,-0.026091,0.047140,0.044850,0.999822,-0.007716,-0.007373,-0.015570,-0.538950,-0.356817,-0.142425,0.749620,13.644251,43.509442,-103.103911
35486,-4.394302,5.619374,7.736783,2.981920,-3.668915,-0.411173,-1.082879,-1.029695,-2.199254,-0.043715,0.057092,0.076835,0.999912,-0.005414,-0.005148,-0.010996,-0.533383,-0.348404,-0.147632,0.756520,11.738793,43.207136,-104.966358
35487,-8.540172,1.298121,9.856803,-0.698895,-0.350535,3.270001,-1.108612,-1.070092,-2.039928,-0.085785,0.014399,0.098033,0.999918,-0.005543,-0.005350,-0.010199,-0.528407,-0.339842,-0.152510,0.762912,9.927005,42.821251,-106.684907
35488,-10.596129,-0.554107,10.706675,-1.926104,1.394687,5.071913,-0.374014,-1.697892,-2.103578,-0.106914,-0.004221,0.106170,0.999907,-0.001870,-0.008489,-0.010518,-0.522323,-0.330704,-0.153022,0.770972,8.481298,42.050088,-108.500766
35489,-11.000168,2.665453,11.652212,1.101616,0.000844,6.393929,0.135968,-2.481493,-2.089013,-0.111150,0.027733,0.115166,0.999868,0.000680,-0.012407,-0.010445,-0.515939,-0.319829,-0.149449,0.780501,7.342052,40.803465,-110.333827
35490,-9.522515,3.775376,11.426898,2.150377,-1.130805,5.339355,-0.091409,-3.212445,-2.084309,-0.096643,0.038808,0.112707,0.999817,-0.000457,-0.016061,-0.010421,-0.510317,-0.305402,-0.144839,0.790777,6.113493,39.111923,-112.155352
35491,-8.747366,2.300016,10.158248,1.389151,-0.041465,3.716725,0.053434,-3.705414,-1.870832,-0.089115,0.023802,0.099948,0.999785,0.000267,-0.018526,-0.009353,-0.505475,-0.289445,-0.138000,0.801045,5.145252,37.101392,-113.766861
35492,-9.230901,2.990170,10.430227,2.426598,0.240991,4.221842,0.264641,-4.191550,-1.647244,-0.094218,0.030536,0.102381,0.999746,0.001323,-0.020956,-0.008236,-0.501319,-0.272079,-0.128710,0.811225,4.467206,34.783965,-115.169838
35493,-10.129718,2.831771,10.339264,3.002799,1.491082,4.548888,0.492624,-4.729316,-1.411095,-0.103503,0.028792,0.101033,0.999693,0.002463,-0.023644,-0.007055,-0.497878,-0.253116,-0.116742,0.821231,4.083445,32.139421,-116.369951
35494,-9.460024,3.504762,9.711569,3.913244,1.457392,3.552017,0.550499,-5.241989,-1.313591,-0.096872,0.035416,0.094693,0.999631,0.002752,-0.026207,-0.006567,-0.494724,-0.232069,-0.103070,0.831125,3.828597,29.192070,-117.476478
35495,-8.413300,1.706811,8.613356,2.608043,2.482385,1.801424,0.646709,-5.557403,-1.227111,-0.086378,0.017320,0.083810,0.999590,0.003233,-0.027783,-0.006135,-0.491598,-0.209823,-0.088027,0.840569,3.721724,26.058538,-118.496912
35496,-6.090068,2.312809,6.732196,2.927718,1.470281,-1.037315,1.238937,-5.795399,-0.985336,-0.062706,0.023024,0.065665,0.999549,0.006194,-0.028973,-0.004926,-0.488547,-0.187953,-0.069592,0.849207,4.070881,22.781605,-119.356077
35497,-2.444470,4.745520,6.314334,3.622319,-2.212397,-2.717584,1.665844,-5.541599,-0.513805,-0.026067,0.046997,0.062829,0.999578,0.008328,-0.027704,-0.002569,-0.486583,-0.168209,-0.049449,0.855861,4.814736,19.636286,-119.927185
35498,-6.449014,6.039700,8.297131,6.224722,0.330351,0.580908,2.151598,-5.491548,0.424112,-0.066874,0.059373,0.081799,0.999563,0.010756,-0.027454,0.002120,-0.487793,-0.149945,-0.026526,0.859576,6.026839,16.478640,-119.978344
35499,-7.519535,7.647415,8.833419,8.072856,0.930835,1.455362,2.421388,-5.946250,1.541723,-0.078376,0.074820,0.086948,0.999455,0.012105,-0.029726,0.007707,-0.493185,-0.130390,-0.000465,0.860097,7.537173,12.988423,-119.480378
35500,-4.451711,7.079679,8.316544,6.332487,-0.567201,0.118885,2.198169,-6.139803,2.352633,-0.047878,0.069337,0.082497,0.999399,0.010989,-0.030693,0.011761,-0.501642,-0.109312,0.025639,0.857758,8.957805,9.311556,-118.628266
35501,-4.397172,4.138518,8.073120,3.935673,1.569342,-0.666959,2.038030,-6.154111,2.791243,-0.047000,0.039927,0.079728,0.999377,0.010188,-0.030764,0.013953,-0.511453,-0.087574,0.051304,0.853297,10.251774,5.564880,-117.624792
35502,0.561353,2.492135,5.701764,0.782803,-1.473578,-3.793055,2.116610,-6.018832,2.823685,0.003543,0.024375,0.057405,0.999392,0.010581,-0.030088,0.014116,-0.520769,-0.066511,0.076909,0.847621,11.522941,1.870945,-116.678940
35503,3.401856,2.537338,6.066134,-0.435454,-3.603999,-3.361909,2.244311,-5.303363,2.819425,0.032034,0.025145,0.061811,0.999486,0.011220,-0.026512,0.014095,-0.529717,-0.048725,0.101107,0.840716,12.808592,-1.443339,-115.733757
35504,3.716046,3.404439,5.646759,0.361456,-3.923795,-3.351796,2.050917,-4.651486,2.568694,0.035392,0.033919,0.057653,0.999595,0.010253,-0.023254,0.012842,-0.537497,-0.033260,0.122614,0.833640,13.939042,-4.379156,-114.911020
35505,4.453100,1.958595,6.066545,-1.227943,-3.623719,-3.043670,1.725085,-3.937259,2.326091,0.043096,0.019564,0.061692,0.999701,0.008625,-0.019684,0.011629,-0.544382,-0.020008,0.140716,0.826709,14.850720,-6.899283,-114.171003
35506,0.698133,0.762887,6.854691,-0.889012,0.677350,-2.971639,2.136701,-3.501202,2.306929,0.005696,0.006966,0.068731,0.999723,0.010683,-0.017504,0.011534,-0.551136,-0.009689,0.159256,0.819019,15.966601,-9.187850,-113.416292
35507,2.314255,4.117674,6.337512,1.588742,-1.744611,-2.269697,2.133251,-3.366682,2.208379,0.021615,0.040739,0.064184,0.999740,0.010665,-0.016832,0.011041,-0.557300,0.000023,0.177314,0.811157,17.062974,-11.400874,-112.734322
35508,3.599601,2.825200,5.145150,0.185058,-2.548200,-3.419066,1.901160,-2.829632,2.026540,0.034975,0.028116,0.052219,0.999803,0.009505,-0.014147,0.010132,-0.562945,0.008036,0.192862,0.803637,18.012795,-13.300425,-112.095134
35509,2.840694,4.089174,5.304466,1.585753,-1.941722,-2.983480,1.980795,-2.320109,1.822688,0.027415,0.040614,0.053770,0.999842,0.009903,-0.011600,0.009113,-0.568068,0.013586,0.207227,0.796348,18.999329,-14.896658,-111.502804
35510,1.007901,4.262142,6.778223,2.049263,0.417262,-2.018659,1.904773,-1.960995,1.824810,0.009026,0.042058,0.068277,0.999865,0.009523,-0.009805,0.009124,-0.573396,0.017913,0.220221,0.788922,19.915844,-16.308646,-110.862160
35511,3.010026,5.080270,5.142720,2.452715,-1.940033,-2.634054,1.777290,-1.757359,1.854596,0.029174,0.050615,0.052137,0.999879,0.008886,-0.008786,0.009273,-0.578911,0.021837,0.232058,0.781367,20.730887,-17.626295,-110.179741
35512,3.243358,3.521907,4.746302,1.041511,-1.766653,-3.390637,1.726214,-1.114999,1.943023,0.031826,0.035118,0.047945,0.999900,0.008631,-0.005575,0.009715,-0.585377,0.023489,0.241789,0.773512,21.451291,-18.627488,-109.323297
35513,2.558782,4.052971,5.171216,1.624979,-0.934901,-3.015728,1.930510,-0.650188,2.196113,0.024975,0.040304,0.052184,0.999888,0.009652,-0.003251,0.010980,-0.593288,0.023056,0.250854,0.764559,22.195983,-19.445633,-108.227924
35514,2.410420,4.180119,5.079584,1.780397,-0.710469,-3.074049,2.031588,-0.182392,2.458516,0.023546,0.041574,0.051241,0.999872,0.010158,-0.000912,0.012292,-0.602652,0.020849,0.258844,0.754570,22.903229,-20.087261,-106.882984
35515,2.511835,3.858235,4.603595,1.562988,-0.825867,-3.546727,2.004802,0.251611,2.583399,0.024679,0.038439,0.046391,0.999866,0.010024,0.001258,0.012916,-0.612893,0.017251,0.265328,0.744087,23.520990,-20.542855,-105.365681
35516,3.372446,3.092604,3.756056,0.890058,-1.783022,-4.238302,2.252208,0.789850,2.722057,0.033452,0.030958,0.037777,0.999836,0.011260,0.003949,0.013610,-0.624195,0.011062,0.271011,0.732674,24.201383,-20.765129,-103.640870
35517,2.816020,4.493982,3.801681,2.280148,-1.271396,-3.832565,2.657425,1.294848,3.037412,0.027726,0.044854,0.038433,0.999775,0.013286,0.006474,0.015186,-0.637123,0.002192,0.276460,0.719472,24.999649,-20.819863,-101.611936
35518,4.940300,5.687823,2.186810,3.577958,-3.760281,-3.930942,3.027805,1.913826,3.539733,0.048602,0.057408,0.022267,0.999683,0.015137,0.009568,0.017697,-0.652363,-0.009401,0.281138,0.703772,25.858600,-20.706205,-99.144981
35519,3.252523,7.754421,3.156972,5.391094,-1.582513,-2.805457,3.303559,2.677823,4.069993,0.031376,0.077660,0.032427,0.999567,0.016515,0.013387,0.020347,-0.670048,-0.023818,0.284083,0.685394,26.707581,-20.368050,-96.180946
35520,1.836160,6.913894,4.622010,4.106918,0.445336,-2.365057,3.020246,3.119734,4.248888,0.017626,0.068813,0.046982,0.999539,0.015099,0.015596,0.021241,-0.688397,-0.038534,0.284378,0.666149,27.343588,-19.888502,-93.002165
35521,0.311179,4.613391,6.628893,1.069961,2.366063,-2.159239,2.914015,3.301389,4.051274,0.003290,0.045228,0.066899,0.999552,0.014568,0.016504,0.020253,-0.705750,-0.053726,0.283364,0.647097,27.963009,-19.295306,-89.882255
35522,-0.938390,3.367520,8.596706,-1.204854,3.838171,-1.450130,2.608934,3.114173,3.495572,-0.008613,0.032394,0.086533,0.999641,0.013043,0.015569,0.017476,-0.720543,-0.067991,0.281681,0.629961,28.558578,-18.678834,-87.119312
35523,-0.723556,1.043161,8.734775,-3.522907,3.013274,-2.302094,2.336200,2.829266,2.790628,-0.006133,0.009319,0.087553,0.999734,0.011680,0.014145,0.013952,-0.732367,-0.081315,0.279715,0.615456,29.166983,-18.036111,-84.813968
35524,0.078994,1.128497,8.667554,-3.518818,2.020403,-2.070857,2.094271,2.612906,2.010956,0.001816,0.010391,0.086768,0.999809,0.010471,0.013064,0.010054,-0.741245,-0.094153,0.277381,0.603946,29.810561,-17.306780,-82.983829
35525,0.843981,0.495550,8.059612,-3.757592,0.786686,-2.659237,1.874334,2.566324,1.302997,0.009444,0.004260,0.080521,0.999853,0.009371,0.012831,0.006515,-0.747784,-0.106973,0.274099,0.595186,30.459383,-16.415216,-81.532452
35526,1.836524,1.912902,7.312610,-2.117177,-0.114434,-2.328921,2.028139,2.666178,1.000722,0.019246,0.018483,0.073063,0.999847,0.010140,0.013330,0.005003,-0.753246,-0.121057,0.270682,0.587110,31.255175,-15.404530,-80.201633
35527,3.953115,4.529579,5.106884,1.539149,-1.851795,-2.301033,2.104959,3.050821,1.055629,0.040071,0.044970,0.050935,0.999814,0.010524,0.015253,0.005278,-0.759096,-0.136434,0.265959,0.578295,32.076765,-14.239714,-78.714769
35528,5.086865,3.958060,3.098105,2.450835,-3.403897,-4.020806,1.879527,3.796623,0.998113,0.051252,0.039548,0.030382,0.999763,0.009397,0.018982,0.004990,-0.765598,-0.153138,0.257628,0.569241,32.755951,-12.716937,-77.014996
35529,5.150697,1.736091,2.010722,1.429986,-4.292105,-6.191165,1.878718,4.711824,0.691636,0.051904,0.017358,0.019051,0.999672,0.009393,0.023557,0.003458,-0.771983,-0.172743,0.245388,0.560345,33.453344,-10.677366,-75.165394
35530,5.504362,1.043774,1.088278,1.666028,-4.920441,-7.450906,2.154046,5.719995,0.344739,0.055309,0.010426,0.009416,0.999532,0.010769,0.028596,0.001723,-0.777777,-0.196527,0.229564,0.551127,34.356643,-8.075469,-73.142360
35531,3.971012,2.605437,1.419648,2.383478,-3.057793,-6.724424,2.626141,6.793895,0.106948,0.040155,0.025898,0.013178,0.999337,0.013128,0.033962,0.000535,-0.782810,-0.225150,0.210344,0.540621,35.597102,-4.926466,-70.841593
35532,-0.033073,5.232914,3.213329,2.044267,1.132719,-4.134638,2.910364,7.637767,0.046713,0.000903,0.051854,0.032872,0.999165,0.014548,0.038178,0.000234,-0.787075,-0.256890,0.188245,0.528284,37.118387,-1.427096,-68.218102
35533,-3.303525,7.302923,5.259135,1.039416,3.977469,-1.154282,2.977742,8.061428,0.164247,-0.030911,0.072197,0.054945,0.999077,0.014884,0.040295,0.000821,-0.790584,-0.289451,0.164441,0.513960,38.839716,2.150397,-65.297742
35534,-6.841928,6.778068,6.445348,-1.758224,6.037494,-0.082178,2.825866,8.135577,0.303442,-0.065799,0.066734,0.068114,0.999072,0.014125,0.040665,0.001517,-0.793268,-0.320956,0.139889,0.498141,40.670045,5.613866,-62.172416
35535,-8.389746,4.187346,6.251965,-4.514350,5.921235,-1.357294,2.980057,7.896430,0.148468,-0.081358,0.040842,0.066380,0.999109,0.014896,0.039470,0.000742,-0.793713,-0.351998,0.116128,0.482319,42.767180,8.928743,-59.069709
35536,-9.539914,4.874839,7.044976,-5.349497,5.869083,0.249563,3.214755,7.609402,-0.404776,-0.092511,0.047759,0.074780,0.999145,0.016069,0.038036,-0.002023,-0.790860,-0.382996,0.092923,0.468208,45.143024,12.219978,-56.157540
35537,-11.166047,7.024069,8.091721,-5.581929,6.196841,3.218517,3.048275,7.177037,-1.058077,-0.108268,0.069535,0.085907,0.999226,0.015237,0.035876,-0.005289,-0.785312,-0.411997,0.069608,0.456834,47.517692,15.491822,-53.521972
35538,-12.311344,9.500398,9.941941,-5.635607,5.428849,6.899429,2.267602,6.591399,-1.551844,-0.118990,0.094773,0.104462,0.999363,0.011336,0.032950,-0.007758,-0.778932,-0.436201,0.045708,0.448224,49.504601,18.652355,-51.175167
35539,-12.317263,9.448892,10.377988,-5.803422,3.975030,7.482042,1.154758,5.851999,-1.957737,-0.119128,0.095053,0.107853,0.999507,0.005773,0.029255,-0.009787,-0.773024,-0.454005,0.021240,0.442563,50.845019,21.654732,-49.194401
35540,-11.968142,7.603154,10.938378,-6.790503,1.997790,6.634486,0.246534,4.964155,-2.406018,-0.115992,0.077305,0.112388,0.999619,0.001233,0.024818,-0.012029,-0.767413,-0.466000,-0.002839,0.440355,51.562008,24.504775,-47.719899
35541,-13.407578,5.850700,12.320638,-9.028620,0.846958,7.024475,-0.059490,3.997697,-2.585168,-0.130807,0.060249,0.125825,0.999717,-0.000297,0.019987,-0.012925,-0.761631,-0.474369,-0.024304,0.440795,51.951470,27.079127,-46.737155
35542,-13.868017,3.485932,13.644032,-11.028495,-0.862978,6.564621,-0.255807,2.822690,-2.640940,-0.136259,0.036845,0.138329,0.999812,-0.001279,0.014113,-0.013204,-0.755971,-0.479182,-0.041857,0.444004,51.986155,29.261994,-46.345894
35543,-13.014564,1.119655,13.123300,-11.625533,-1.736956,4.493394,0.119162,1.487748,-3.030278,-0.128976,0.013078,0.132203,0.999857,0.000596,0.007438,-0.015151,-0.748586,-0.482200,-0.054443,0.451815,51.818791,31.147421,-46.805957
35544,-11.889565,2.585531,12.419106,-9.316079,-1.871292,4.746750,0.377444,0.354354,-3.442987,-0.118209,0.027660,0.124452,0.999848,0.001887,0.001772,-0.017214,-0.739730,-0.483370,-0.063206,0.463852,51.365435,32.815444,-48.060339
35545,-9.439645,3.027662,10.642471,-6.675528,-2.024060,2.949282,0.475622,-0.384882,-3.813573,-0.094004,0.031819,0.106318,0.999814,0.002378,-0.001924,-0.019067,-0.729768,-0.482910,-0.069858,0.478911,50.608252,34.367720,-49.913707
35546,-8.222859,4.419677,8.924068,-4.051555,-1.371954,2.372648,0.565300,-0.830948,-4.147257,-0.081662,0.045642,0.089028,0.999772,0.002826,-0.004154,-0.020735,-0.718641,-0.481382,-0.075477,0.496114,49.597394,35.882331,-52.221791
35547,-7.082830,6.669644,7.339609,-0.829113,-0.848259,2.315979,0.630317,-0.999135,-4.213085,-0.069772,0.067943,0.073259,0.999761,0.003151,-0.004995,-0.021064,-0.706930,-0.479434,-0.080421,0.513737,48.459891,37.323128,-54.727854
35548,-7.001339,8.799642,7.052230,1.363900,-0.785684,3.366688,0.314075,-1.012134,-4.093524,-0.068551,0.089299,0.070312,0.999777,0.001570,-0.005060,-0.020466,-0.695958,-0.476144,-0.085841,0.530623,47.066454,38.666768,-57.271701
35549,-7.534224,6.756315,6.637436,0.001308,-0.206611,2.287366,-0.196626,-1.077125,-4.254535,-0.074237,0.069215,0.065905,0.999759,-0.000983,-0.005385,-0.021271,-0.685486,-0.470633,-0.092700,0.547741,45.203564,39.990362,-60.026241
35550,-9.437501,3.898682,6.613961,-2.657107,1.152063,2.002563,-0.427284,-1.172294,-4.963761,-0.093752,0.041459,0.065502,0.999673,-0.002136,-0.005861,-0.024816,-0.673266,-0.463455,-0.101512,0.567114,42.788239,41.479557,-63.340377
35551,-12.720719,3.227593,8.076585,-4.263935,2.347416,4.806470,-0.537412,-1.671015,-5.710868,-0.126881,0.036117,0.079611,0.999554,-0.002687,-0.008354,-0.028550,-0.658922,-0.453776,-0.110578,0.589645,39.675631,42.910735,-67.508492
35552,-13.838838,1.420116,7.930042,-5.292517,3.540120,4.877536,-0.259206,-2.370295,-5.973788,-0.138806,0.018445,0.077635,0.999483,-0.001296,-0.011849,-0.029864,-0.642919,-0.442348,-0.117047,0.614234,36.173234,43.940756,-72.374251
35553,-12.306638,2.561874,6.596241,-2.601260,3.447448,3.708517,0.422000,-2.880889,-6.032497,-0.123155,0.029196,0.064248,0.999439,0.002110,-0.014402,-0.030157,-0.624845,-0.431054,-0.119750,0.639860,32.729345,44.529731,-77.649755
35554,-10.714330,6.093044,6.800390,1.498699,1.575410,4.093960,0.344060,-3.068909,-6.199972,-0.106216,0.064118,0.066478,0.999400,0.001720,-0.015341,-0.030994,-0.605781,-0.418289,-0.122382,0.665647,29.008575,44.840773,-83.206794
35555,-10.482273,5.713675,7.134828,1.753609,1.245279,3.926359,0.031897,-3.189064,-5.966513,-0.104176,0.060240,0.069693,0.999428,0.000159,-0.015942,-0.029827,-0.587525,-0.403858,-0.125012,0.689989,25.176819,44.765867,-88.662377
35556,-7.958651,6.895403,6.221976,3.826352,-0.330818,1.798963,0.324332,-3.243996,-5.094081,-0.078794,0.070868,0.061051,0.999543,0.001621,-0.016218,-0.025467,-0.571106,-0.390200,-0.124627,0.711372,21.995148,44.227164,-93.453326
35557,-5.360992,10.629375,6.303188,7.423721,-3.539524,0.855145,0.089486,-3.011999,-4.216305,-0.052296,0.107378,0.062286,0.999664,0.000447,-0.015058,-0.021079,-0.557683,-0.376960,-0.123883,0.729071,19.291638,43.459108,-97.423375
35558,-4.947498,8.042575,6.648650,5.150862,-3.247989,-0.000611,-0.634051,-2.736976,-3.520772,-0.048948,0.081499,0.065557,0.999746,-0.003170,-0.013684,-0.017602,-0.547651,-0.362891,-0.125195,0.743448,16.679963,42.586908,-100.706339
35559,-7.974315,5.130303,7.922786,2.714785,-0.698408,2.221087,-0.395150,-2.759695,-2.803709,-0.080094,0.052579,0.078021,0.999805,-0.001976,-0.013798,-0.014018,-0.539629,-0.349701,-0.124165,0.755707,14.674914,41.494512,-103.355751
35560,-10.596294,5.581057,10.594825,2.924758,-0.308874,5.903776,-0.440953,-3.251879,-2.549556,-0.106941,0.057401,0.104089,0.999784,-0.002205,-0.016258,-0.012747,-0.532725,-0.334520,-0.121512,0.767812,12.813175,40.027983,-105.808412
35561,-13.579618,3.170082,11.223197,1.707022,2.852638,7.774501,-0.480352,-4.209108,-2.568342,-0.137692,0.033726,0.109268,0.999693,-0.002402,-0.021043,-0.012840,-0.526125,-0.315395,-0.116401,0.781133,10.970333,37.967496,-108.292171
35562,-11.347520,2.316583,10.251509,1.403126,2.508193,5.383049,-0.291435,-5.131824,-2.647275,-0.115733,0.024834,0.099529,0.999582,-0.001457,-0.025656,-0.013235,-0.519069,-0.292873,-0.108192,0.795667,9.302946,35.336543,-110.792421
35563,-10.668029,2.099357,8.934010,2.083924,3.223581,3.724026,0.154609,-5.738433,-2.493889,-0.108912,0.022275,0.086253,0.999510,0.000773,-0.028687,-0.012467,-0.511835,-0.268930,-0.096287,0.810204,8.111865,32.299328,-113.083240
35564,-7.429715,3.991937,7.118112,3.768721,1.077190,0.502974,0.497624,-6.130118,-2.206235,-0.075989,0.040578,0.068969,0.999466,0.002488,-0.030645,-0.011029,-0.504964,-0.244130,-0.081533,0.823871,7.370016,28.986667,-115.082794
35565,-3.995095,4.677721,5.585905,3.865564,-1.061298,-2.534889,0.723582,-5.970746,-1.718574,-0.041195,0.046928,0.054811,0.999511,0.003617,-0.029849,-0.008591,-0.499251,-0.220517,-0.065544,0.835359,7.056404,25.713268,-116.658321
35566,-3.620450,6.059793,5.950919,4.965282,-1.904248,-2.265870,0.825169,-5.624567,-1.252207,-0.037484,0.060587,0.058717,0.999576,0.004125,-0.028119,-0.006260,-0.494802,-0.198548,-0.049446,0.844574,7.028285,22.600806,-117.865263
35567,-4.039395,4.992431,7.652554,3.923494,-1.194828,-0.704038,0.574813,-5.301460,-0.890270,-0.042183,0.049891,0.075567,0.999635,0.002874,-0.026504,-0.004451,-0.491662,-0.177263,-0.034779,0.851843,7.017051,19.645499,-118.798678
35568,-6.799528,3.494533,8.897073,3.808493,1.973418,1.104128,0.783461,-5.385827,-0.519521,-0.070270,0.034782,0.087235,0.999626,0.003917,-0.026926,-0.002597,-0.489566,-0.156063,-0.018682,0.857683,7.239934,16.618504,-119.505673
35569,-6.381150,3.956516,9.247671,4.178598,1.823871,1.190633,0.982276,-5.695879,-0.070038,-0.066400,0.039139,0.090803,0.999582,0.004911,-0.028475,-0.000350,-0.488887,-0.133941,-0.000589,0.862003,7.676341,13.384885,-119.978298
35570,-4.266952,3.886326,6.985231,3.820317,0.868807,-1.643581,1.347109,-5.888869,0.514288,-0.044805,0.038284,0.068813,0.999541,0.006735,-0.029440,0.002571,-0.490050,-0.111771,0.019921,0.864269,8.406945,10.001591,-120.155597
35571,0.290875,4.693986,5.223118,2.740243,-2.904800,-4.029918,1.756176,-5.660908,1.227021,0.001135,0.046489,0.052690,0.999542,0.008780,-0.028300,0.006134,-0.493640,-0.091407,0.042038,0.863827,9.438356,6.685272,-119.955307
35572,0.120864,5.157871,6.156394,3.107536,-2.629303,-2.889325,2.106539,-5.065103,1.908219,-0.000848,0.050925,0.062099,0.999578,0.010531,-0.025322,0.009540,-0.499700,-0.074268,0.064460,0.860598,10.692905,3.635539,-119.377084
35573,0.854230,5.756576,6.841112,3.210659,-3.096714,-2.018414,1.919803,-4.706567,2.276691,0.006270,0.056984,0.069125,0.999612,0.009598,-0.023530,0.011382,-0.507127,-0.058015,0.085280,0.855677,11.817940,0.732758,-118.617001
35574,2.612944,3.407083,7.348893,0.358012,-3.069860,-1.883300,1.580161,-4.116912,2.306756,0.024215,0.033773,0.074268,0.999690,0.007900,-0.020582,0.011533,-0.514676,-0.043384,0.103097,0.850057,12.711960,-1.854735,-117.820077
35575,-0.317900,1.035960,7.729935,-0.328898,0.998815,-2.078986,1.643398,-3.883434,2.258326,-0.004792,0.009676,0.077298,0.999714,0.008216,-0.019415,0.011291,-0.521821,-0.029892,0.120515,0.843970,13.608569,-4.319543,-117.059192
35576,4.006812,2.742652,6.507893,-0.531580,-3.453781,-2.484114,1.651591,-3.635523,2.010070,0.038599,0.027277,0.066015,0.999750,0.008257,-0.018176,0.010050,-0.527784,-0.017615,0.137217,0.838036,14.492258,-6.621984,-116.438517
35577,2.057836,1.313761,7.376630,-1.029640,-0.664320,-2.140185,1.669606,-3.097412,1.888603,0.019310,0.012706,0.074179,0.999801,0.008347,-0.015486,0.009442,-0.533370,-0.007701,0.152505,0.831985,15.365235,-8.619325,-115.838501
35578,1.120314,3.527668,6.514965,1.501481,-0.604683,-2.497172,1.798282,-3.095001,1.813452,0.009873,0.034782,0.065624,0.999799,0.008991,-0.015474,0.009067,-0.538425,0.001795,0.168258,0.825703,16.303768,-10.611731,-115.309171
35579,4.569986,3.228745,5.870097,-0.069498,-3.475352,-2.486098,1.423828,-2.605749,1.633777,0.044664,0.032233,0.059517,0.999856,0.007119,-0.013028,0.008168,-0.542961,0.010138,0.181091,0.819937,17.019142,-12.314406,-114.824543
35580,0.682882,3.129307,6.587782,1.326583,0.454259,-2.623282,1.472803,-2.202130,1.536688,0.005863,0.030854,0.066174,0.999883,0.007364,-0.011010,0.007683,-0.547323,0.016594,0.192992,0.814197,17.751164,-13.785015,-114.342951
35581,3.704680,3.703695,5.846880,0.778060,-2.448467,-2.394852,1.225256,-1.882647,1.444876,0.036226,0.036940,0.059039,0.999911,0.006126,-0.009413,0.007224,-0.551487,0.022344,0.202974,0.808804,18.330897,-15.071179,-113.868758
35582,2.643831,3.575254,5.879410,1.084766,-1.282391,-2.635213,1.406193,-1.393033,1.568912,0.025747,0.035541,0.059225,0.999920,0.007031,-0.006965,0.007844,-0.556574,0.025728,0.212297,0.802804,18.965713,-16.118588,-113.243557
35583,4.137988,4.264075,4.958302,1.337168,-2.982935,-2.798284,1.426883,-1.032618,1.814735,0.040735,0.042656,0.050099,0.999920,0.007134,-0.005163,0.009073,-0.562946,0.027874,0.220626,0.796014,19.543274,-17.024290,-112.416651
35584,4.549472,3.954635,4.989768,0.932342,-3.113472,-2.694396,1.720484,-0.388809,2.200010,0.044962,0.039611,0.050326,0.999901,0.008602,-0.001944,0.011000,-0.571497,0.027042,0.228232,0.787762,20.178364,-17.666338,-111.248295
35585,3.287761,5.818222,5.932079,2.880768,-1.921523,-1.575182,1.944376,0.023217,2.649256,0.032115,0.058031,0.059882,0.999865,0.009721,0.000116,0.013246,-0.582188,0.024463,0.235415,0.777842,20.824862,-18.189921,-109.742808
35586,3.900554,4.769680,5.876043,1.750488,-2.112640,-1.752717,1.731042,0.401084,2.890338,0.038434,0.047744,0.059096,0.999856,0.008655,0.002005,0.014451,-0.594066,0.021304,0.240592,0.767299,21.272218,-18.575184,-108.021903
35587,3.230221,3.041644,6.231997,0.270890,-0.967512,-2.228892,1.914151,0.770078,3.017321,0.032085,0.030304,0.062487,0.999833,0.009570,0.003850,0.015086,-0.606715,0.016341,0.245268,0.755959,21.764047,-18.803349,-106.147019
35588,2.187271,4.126628,7.658796,1.110855,0.451844,-0.922744,1.961483,0.944422,2.991506,0.021622,0.040838,0.076887,0.999829,0.009807,0.004722,0.014957,-0.619271,0.010531,0.249537,0.744395,22.272119,-18.949787,-104.248247
35589,3.505768,2.235049,6.682197,-0.714995,-0.887030,-2.025549,1.820263,1.037243,2.877058,0.035084,0.022247,0.066843,0.999842,0.009101,0.005186,0.014385,-0.631312,0.004673,0.252892,0.733123,22.706465,-19.035836,-102.390931
35590,4.276050,2.644151,6.028182,-0.301741,-1.876362,-2.196696,2.219885,1.345366,2.938241,0.042778,0.026401,0.060287,0.999808,0.011099,0.006726,0.014690,-0.643748,-0.003505,0.256674,0.720899,23.337504,-18.990600,-100.428289
35591,4.030477,4.206213,6.054176,1.161531,-1.678443,-1.662629,2.481029,1.670385,3.188265,0.040142,0.041950,0.060727,0.999761,0.012404,0.008351,0.015940,-0.657225,-0.013366,0.260220,0.707221,24.047736,-18.852953,-98.247404
35592,5.321826,5.327640,4.899042,2.450679,-3.226680,-1.794708,2.605670,2.093376,3.471951,0.052804,0.053556,0.049133,0.999710,0.013027,0.010466,0.017358,-0.671893,-0.024760,0.262727,0.692041,24.755929,-18.589098,-95.806630
35593,4.676506,5.549065,4.931116,2.744353,-2.510490,-1.866432,2.870083,2.739934,3.846657,0.046372,0.055676,0.049472,0.999618,0.014349,0.013698,0.019231,-0.688228,-0.038765,0.263817,0.674715,25.511591,-18.108747,-92.996132
35594,2.766093,6.876389,6.355009,3.417163,-0.057086,-0.667192,2.784086,3.131077,4.048723,0.027274,0.068429,0.064075,0.999576,0.013918,0.015653,0.020241,-0.705214,-0.053497,0.263135,0.656180,26.182560,-17.513201,-89.977399
35595,2.162244,4.841869,6.825824,1.276543,0.406012,-1.273645,2.721352,3.437127,4.032810,0.021829,0.047926,0.068539,0.999556,0.013605,0.017183,0.020161,-0.721962,-0.068984,0.260898,0.637138,26.826777,-16.786854,-86.887992
35596,-1.040712,4.981545,9.804326,-0.361775,4.085461,0.443590,2.468444,3.419567,3.660760,-0.009617,0.048418,0.098816,0.999610,0.012341,0.017096,0.018301,-0.736979,-0.083932,0.257614,0.619235,27.427138,-16.007538,-84.006585
35597,-1.431282,1.463483,9.971378,-3.800650,3.490602,-1.038946,1.987118,3.054587,2.926815,-0.012989,0.013445,0.100056,0.999727,0.009935,0.015272,0.014633,-0.748976,-0.096865,0.253664,0.604406,27.917439,-15.241373,-81.614944
35598,0.400212,-0.327388,8.850934,-4.666248,0.822003,-2.319404,1.847537,2.825099,2.107518,0.005291,-0.004040,0.088406,0.999802,0.009237,0.014125,0.010537,-0.757915,-0.109579,0.249668,0.592641,28.489780,-14.393055,-79.718366
35599,1.750321,1.802539,7.759449,-2.155069,-0.282508,-1.951844,2.078076,2.953129,1.610013,0.018507,0.017366,0.077509,0.999805,0.010390,0.014765,0.008050,-0.765122,-0.124119,0.245467,0.582176,29.273579,-13.362210,-78.039141
35600,1.259178,4.487079,7.866726,-0.165589,0.759333,-0.702458,1.990303,3.110677,1.446335,0.013497,0.044182,0.078904,0.999803,0.009951,0.015552,0.007231,-0.771796,-0.138934,0.240236,0.572114,30.046891,-12.231069,-76.391558
35601,2.951533,2.753812,6.013815,-0.251243,-1.686674,-2.773507,1.630501,3.324028,1.138531,0.030356,0.027221,0.059861,0.999812,0.008152,0.016619,0.005692,-0.777805,-0.153287,0.232821,0.563309,30.663482,-10.922581,-74.829314
35602,4.616997,-1.069392,3.165515,-1.308647,-4.705620,-6.876572,1.530390,3.857110,0.512366,0.046795,-0.010812,0.030674,0.999781,0.007651,0.019284,0.002562,-0.782429,-0.169418,0.222503,0.556413,31.290901,-9.186775,-73.413852
35603,6.227993,-0.665120,1.820677,0.323724,-6.182692,-7.761887,1.835943,4.792956,-0.309692,0.062681,-0.006906,0.016645,0.999670,0.009179,0.023962,-0.001548,-0.785123,-0.190169,0.208530,0.551301,32.156974,-6.763013,-72.103205
35604,3.397864,1.519172,2.898196,0.711821,-3.014543,-6.255543,2.114587,5.727031,-0.775535,0.034851,0.014757,0.028150,0.999527,0.010571,0.028631,-0.003877,-0.786614,-0.214908,0.191082,0.546389,33.236428,-3.770989,-70.694171
35605,0.422998,3.675611,3.883623,0.909970,0.090682,-4.528017,2.429015,6.291498,-0.910948,0.005624,0.036259,0.039116,0.999421,0.012143,0.031451,-0.004554,-0.787110,-0.242340,0.171894,0.540538,34.565534,-0.493446,-69.111148
35606,-1.107015,6.462863,4.821688,1.965377,1.794266,-2.122288,2.494488,6.755225,-1.023023,-0.009087,0.064068,0.049348,0.999339,0.012470,0.033769,-0.005114,-0.786654,-0.271064,0.150747,0.533831,36.030614,2.994120,-67.348464
35607,-4.654501,8.309398,6.708294,0.916622,4.524014,0.881145,2.123987,6.992560,-0.938587,-0.043754,0.082574,0.069524,0.999321,0.010618,0.034955,-0.004692,-0.786048,-0.298553,0.127555,0.526046,37.407849,6.521508,-65.373126
35608,-6.424750,4.483823,6.026144,-2.445753,4.684559,-1.462236,1.699125,6.852608,-0.944712,-0.061914,0.044608,0.062789,0.999366,0.008494,0.034256,-0.004723,-0.784946,-0.323611,0.103653,0.518066,38.667992,9.937798,-63.355271
35609,-5.933246,2.491239,5.269250,-3.410930,3.474466,-3.071915,1.883769,6.835326,-1.541216,-0.057289,0.024849,0.054908,0.999342,0.009417,0.034169,-0.007704,-0.780976,-0.349246,0.079165,0.511700,40.118946,13.518969,-61.509768
35610,-8.906169,3.993194,6.070235,-4.097421,5.352362,-0.505869,2.038827,6.727741,-2.238306,-0.086495,0.040268,0.064051,0.999320,0.010192,0.033631,-0.011189,-0.773871,-0.375018,0.054193,0.507492,41.713961,17.263173,-59.892264
35611,-11.051673,6.040115,6.945787,-4.000112,6.257664,2.500671,1.820325,6.389405,-2.669747,-0.107398,0.061192,0.073477,0.999359,0.009100,0.031940,-0.013346,-0.764966,-0.398713,0.029072,0.504985,43.220591,20.990266,-58.466581
35612,-11.942491,7.210587,8.676784,-4.200547,5.198584,5.191564,1.200616,5.946410,-3.129815,-0.115625,0.073399,0.090682,0.999418,0.006002,0.029726,-0.015646,-0.755138,-0.418504,0.003136,0.504590,44.354843,24.683750,-57.308931
35613,-14.148553,5.652883,10.647868,-6.959250,4.423476,6.842532,0.216422,5.139261,-3.959372,-0.137533,0.059160,0.110110,0.999473,0.001082,0.025692,-0.019793,-0.744428,-0.432090,-0.023983,0.508477,44.700055,28.367384,-56.804650
35614,-17.055001,2.742340,13.540406,-11.141749,3.424337,8.781117,-0.758715,3.704912,-5.022533,-0.167236,0.032173,0.138407,0.999506,-0.003793,0.018522,-0.025109,-0.732533,-0.437840,-0.050524,0.518786,43.928935,31.891443,-57.466205
35615,-19.620097,-2.635199,14.905679,-16.270829,3.371136,8.567156,-0.892282,1.753156,-5.844076,-0.195529,-0.019961,0.150871,0.999525,-0.004461,0.008764,-0.029216,-0.718589,-0.437403,-0.072005,0.535839,42.255762,34.906549,-59.568284
35616,-20.211136,-4.851511,14.684817,-17.341022,3.884976,8.400820,0.339707,-0.301089,-6.293063,-0.203730,-0.042370,0.146467,0.999502,0.001698,-0.001505,-0.031460,-0.700781,-0.435295,-0.083755,0.558936,40.392487,37.156379,-63.054365
35617,-18.336758,-3.446523,12.493057,-13.765318,4.562732,7.327166,1.841050,-2.042885,-6.574317,-0.185654,-0.029524,0.122755,0.999365,0.009203,-0.010212,-0.032865,-0.678870,-0.432979,-0.085688,0.586790,38.603156,38.643882,-67.676359
35618,-14.450592,2.552388,10.125280,-5.651626,3.466037,6.735490,2.719167,-3.241430,-6.931103,-0.145157,0.029189,0.099284,0.999176,0.013592,-0.016203,-0.034646,-0.653522,-0.429315,-0.081695,0.617999,36.669919,39.599105,-73.192196
35619,-10.790425,9.664738,6.687648,3.586809,2.094864,5.590674,2.476432,-3.709393,-7.081884,-0.105643,0.099594,0.066124,0.999125,0.012379,-0.018542,-0.035399,-0.627331,-0.422650,-0.077038,0.649529,34.291329,40.218437,-79.102784
35620,-3.759964,16.045678,4.365919,11.728528,-3.550793,2.037276,1.272424,-3.392745,-6.659301,-0.032983,0.161327,0.044098,0.999282,0.006361,-0.016960,-0.033289,-0.603916,-0.412695,-0.076341,0.677598,31.377276,40.654045,-84.700928
35621,1.617913,18.604639,3.665224,14.819113,-8.578581,-1.511867,-0.716822,-2.040845,-5.705216,0.021108,0.185621,0.036185,0.999535,-0.003584,-0.010203,-0.028522,-0.586626,-0.401220,-0.084331,0.698413,27.998466,41.252275,-89.221387
35622,2.424606,13.201215,2.583359,10.584264,-7.396270,-5.334053,-2.208850,-0.346972,-4.459173,0.027142,0.131703,0.024423,0.999689,-0.011043,-0.001735,-0.022294,-0.575500,-0.391477,-0.099976,0.711021,24.604661,42.203687,-92.405616
35623,-1.937223,6.217187,3.656018,4.105176,-2.771516,-4.224098,-2.236629,0.840081,-2.918482,-0.018307,0.062848,0.035938,0.999822,-0.011182,0.004200,-0.014592,-0.569041,-0.386472,-0.116030,0.716498,22.081060,43.303592,-94.228907
35624,-6.901697,3.256649,5.953240,0.889337,0.249430,-0.178264,-1.299516,1.144873,-1.852194,-0.068368,0.033589,0.059709,0.999920,-0.006497,0.005724,-0.009261,-0.564262,-0.385729,-0.127525,0.718720,20.614668,44.297007,-95.262259
35625,-10.573478,3.588596,10.196172,-0.089824,-0.090943,5.307160,-1.296938,0.946385,-1.971591,-0.104887,0.037585,0.102219,0.999919,-0.006485,0.004732,-0.009858,-0.559091,-0.384158,-0.138640,0.721540,19.002184,45.185682,-96.491343
35626,-13.755715,-2.956406,10.709310,-5.703525,3.826256,6.480424,-1.056739,0.029885,-2.055765,-0.137831,-0.027582,0.107263,0.999933,-0.005284,0.000149,-0.010279,-0.553701,-0.379822,-0.146488,0.726424,17.265604,45.564928,-98.071525
35627,-10.783501,0.030348,10.462513,-2.852695,0.860468,4.913622,-0.124920,-0.938621,-2.125299,-0.108313,0.001518,0.104117,0.999932,-0.000625,-0.004693,-0.010626,-0.546931,-0.374461,-0.148362,0.733917,15.853422,45.392509,-99.945865
35628,-8.742449,0.434586,9.708507,-2.173768,-0.154783,3.076021,-0.162748,-1.414840,-2.226234,-0.088052,0.005402,0.096460,0.999913,-0.000814,-0.007074,-0.011131,-0.540121,-0.367096,-0.149270,0.742447,14.305084,44.938473,-101.987166
35629,-8.441294,0.331678,10.157805,-2.239041,-0.479538,3.198708,0.195477,-1.824114,-2.144946,-0.085293,0.004130,0.100807,0.999900,0.000977,-0.009120,-0.010724,-0.533170,-0.359192,-0.147535,0.751627,12.999522,44.209189,-104.000918
35630,-9.549835,1.648831,12.037636,-1.316789,-1.163243,5.540648,0.357940,-2.282419,-2.140882,-0.096682,0.017305,0.119308,0.999876,0.001790,-0.011412,-0.010704,-0.526153,-0.349896,-0.143960,0.761585,11.786380,43.191695,-106.041975
35631,-11.629385,1.143060,12.639912,-1.246514,0.449220,7.349350,0.393627,-3.101689,-2.228840,-0.118100,0.012494,0.124601,0.999816,0.001968,-0.015507,-0.011144,-0.519176,-0.337429,-0.138171,0.772985,10.553117,41.692019,-108.197213
35632,-12.443892,2.253354,12.864732,0.306950,0.882689,8.201529,0.535764,-4.130190,-2.293249,-0.126794,0.023638,0.126107,0.999717,0.002679,-0.020649,-0.011465,-0.512171,-0.321125,-0.129241,0.786039,9.391854,39.584878,-110.438240
35633,-10.022332,2.367709,11.807913,0.643239,0.187300,5.839335,0.441725,-4.932822,-2.255801,-0.102822,0.024570,0.115618,0.999630,0.002208,-0.024661,-0.011278,-0.505657,-0.301271,-0.118448,0.799698,8.294734,36.987407,-112.610108
35634,-13.819201,2.829882,11.440065,2.912735,3.602335,7.746026,0.845956,-5.818613,-2.049500,-0.141147,0.029263,0.110445,0.999515,0.004229,-0.029088,-0.010246,-0.499446,-0.278733,-0.103422,0.813736,7.618244,33.844214,-114.598431
35635,-9.995454,5.476100,10.020872,4.990183,0.749472,4.497809,0.450989,-6.597165,-2.085310,-0.102612,0.055601,0.096978,0.999399,0.002254,-0.032979,-0.010424,-0.493508,-0.251751,-0.087963,0.827849,6.836890,30.241369,-116.549434
35636,-3.465725,1.069340,5.059678,0.707879,0.300268,-3.635976,0.408347,-6.481020,-2.018193,-0.036163,0.010952,0.049463,0.999422,0.002041,-0.032399,-0.010089,-0.487263,-0.224857,-0.072811,0.840662,6.213551,26.680465,-118.330433
35637,-0.621750,4.175025,4.339454,2.508184,-3.063481,-5.233426,1.154577,-5.810396,-1.809339,-0.007103,0.041561,0.043437,0.999520,0.005772,-0.029047,-0.009045,-0.480305,-0.202456,-0.055812,0.851589,6.223046,23.480256,-119.858636
35638,-3.938024,6.209798,7.985025,4.777954,-2.331118,-0.349234,1.008366,-5.121818,-1.390485,-0.040982,0.061979,0.079127,0.999635,0.005041,-0.025606,-0.006952,-0.474676,-0.182563,-0.040645,0.860059,6.344138,20.647381,-121.053589
35639,-10.692873,6.095967,10.182491,7.624986,3.016961,3.894822,0.815123,-5.397930,-0.989670,-0.109327,0.061089,0.099144,0.999615,0.004075,-0.026986,-0.004948,-0.470652,-0.160986,-0.025229,0.867141,6.493847,17.634504,-122.008668
35640,-4.306325,4.863418,8.543745,4.154642,-0.696405,0.057755,0.153611,-5.675725,-0.830848,-0.045262,0.048754,0.084211,0.999588,0.000768,-0.028375,-0.004154,-0.467507,-0.136537,-0.011901,0.873300,6.336718,14.453986,-122.872309
35641,-2.547445,0.830534,7.161032,0.503634,0.709347,-2.217353,0.370847,-5.412474,-0.616015,-0.027374,0.008256,0.070902,0.999627,0.001854,-0.027059,-0.003080,-0.464772,-0.113654,0.001938,0.878104,6.387190,11.408235,-123.577653
35642,-3.307145,2.733602,8.341776,2.444672,0.504748,-0.771379,1.018344,-5.319144,-0.113574,-0.035261,0.026934,0.082637,0.999633,0.005091,-0.026592,-0.000568,-0.463531,-0.092597,0.018668,0.881032,6.893322,8.386822,-123.994236
35643,-3.163834,5.163427,8.906589,4.440918,-0.564813,-0.018169,1.280557,-5.466084,0.605686,-0.034217,0.050965,0.088482,0.999601,0.006402,-0.027327,0.003028,-0.464968,-0.071362,0.037230,0.881661,7.617742,5.233347,-124.038999
35644,-1.055414,3.360575,7.213018,2.245631,-0.814408,-2.150377,1.425404,-5.544590,1.422339,-0.012788,0.033006,0.072033,0.999565,0.007126,-0.027719,0.007111,-0.469551,-0.049916,0.056860,0.879658,8.452979,1.972506,-123.668688
35645,3.737791,2.643123,4.957626,-0.544910,-4.163147,-4.531235,1.928779,-5.149840,1.913285,0.035829,0.026293,0.050766,0.999576,0.009643,-0.025746,0.009565,-0.475876,-0.031195,0.077864,0.875503,9.558895,-1.116460,-123.041187
35646,2.260941,1.872256,6.146070,-0.436185,-2.076126,-3.341196,2.336293,-4.418441,2.211402,0.021038,0.018238,0.062152,0.999627,0.011680,-0.022089,0.011056,-0.483346,-0.016512,0.098890,0.869669,10.858678,-3.834580,-122.235556
35647,1.703885,3.324575,6.675592,1.075881,-1.909714,-2.484550,2.491479,-4.108029,2.226687,0.015292,0.032585,0.067491,0.999650,0.012456,-0.020538,0.011132,-0.490674,-0.003526,0.119777,0.863064,12.211902,-6.399274,-121.446556
35648,3.074347,3.538244,7.016913,0.571941,-2.733477,-1.850505,2.048728,-3.662228,2.077097,0.029083,0.034965,0.071071,0.999726,0.010243,-0.018309,0.010385,-0.497324,0.008529,0.137581,0.856544,13.288671,-8.711328,-120.736342
35649,2.207516,1.518084,5.898357,-0.520250,-1.020430,-3.436880,1.934282,-3.294888,1.920502,0.020955,0.014812,0.059479,0.999771,0.009671,-0.016473,0.009602,-0.503301,0.019190,0.153921,0.850075,14.285340,-10.810656,-120.101983
35650,4.830699,2.772189,5.397776,-0.627279,-3.709700,-3.030706,2.000856,-2.705491,1.691250,0.047335,0.027579,0.054899,0.999823,0.010004,-0.013527,0.008456,-0.508558,0.026991,0.169024,0.843843,15.315143,-12.560481,-119.543314
35651,0.145944,2.814733,7.948544,1.354202,1.297095,-1.590707,1.832794,-2.251752,1.548091,0.000348,0.027423,0.079747,0.999865,0.009164,-0.011258,0.007740,-0.513413,0.033180,0.182227,0.837913,16.240779,-14.047090,-119.020212
35652,2.649757,2.460925,5.990532,0.117932,-1.115070,-2.905940,1.614847,-2.199655,1.367924,0.025668,0.024300,0.060388,0.999884,0.008074,-0.010998,0.006839,-0.517394,0.039534,0.194375,0.832441,17.058484,-15.483216,-118.610914
35653,3.650733,2.152992,5.046501,-0.481465,-2.015717,-3.557000,1.748552,-1.583304,1.215158,0.035975,0.021306,0.050938,0.999912,0.008743,-0.007916,0.006076,-0.521260,0.042824,0.205467,0.827186,17.942076,-16.561828,-118.197447
35654,1.811115,3.454815,5.622127,1.395176,-0.572063,-3.138254,1.942204,-1.232068,1.303277,0.017540,0.034115,0.056663,0.999913,0.009711,-0.006160,0.006516,-0.525799,0.044239,0.216401,0.821431,18.901480,-17.472321,-117.683820
35655,3.664317,4.956144,4.633494,2.032032,-2.896553,-2.961581,2.226561,-0.819358,1.700272,0.036031,0.049348,0.047034,0.999894,0.011132,-0.004097,0.008501,-0.532378,0.043632,0.227277,0.814258,19.925386,-18.243168,-116.876106
35656,3.353936,5.305546,4.410497,2.512635,-2.663698,-3.071883,2.401444,-0.320379,2.219295,0.032880,0.052888,0.044794,0.999865,0.012007,-0.001602,0.011096,-0.541542,0.041107,0.237386,0.805413,20.918676,-18.864176,-115.681094
35657,4.781244,4.223712,3.225122,1.222448,-3.903107,-3.950057,2.906910,0.180439,2.894419,0.047229,0.042449,0.032824,0.999789,0.014534,0.000902,0.014471,-0.553939,0.035985,0.247936,0.793968,22.029919,-19.379592,-114.001464
35658,6.404870,6.414293,1.850887,2.995502,-6.288355,-3.724576,3.820995,0.925547,3.825397,0.062900,0.064988,0.019452,0.999624,0.019103,0.004627,0.019125,-0.570788,0.026509,0.259764,0.778474,23.424984,-19.743676,-111.633642
35659,5.640704,9.565136,2.414685,6.162267,-5.697493,-2.152321,4.176126,1.797443,4.761936,0.054343,0.096436,0.025661,0.999458,0.020877,0.008986,0.023805,-0.591940,0.013817,0.270096,0.759252,24.761914,-19.922132,-108.533107
35660,5.765040,9.263523,2.064635,6.185536,-5.439458,-2.367118,4.197607,2.612158,5.475579,0.055374,0.093722,0.021873,0.999320,0.020983,0.013058,0.027372,-0.616169,-0.001079,0.277766,0.737008,25.906320,-19.920219,-104.831973
35661,3.814487,9.049868,3.986933,5.946779,-2.391072,-1.371957,4.260818,3.402464,5.869434,0.036178,0.090712,0.041174,0.999198,0.021298,0.017008,0.029339,-0.642040,-0.018534,0.282776,0.712376,26.945491,-19.675988,-100.703515
35662,1.054602,8.610979,6.795132,4.826508,1.630955,-0.042077,3.786070,3.732018,5.754774,0.009374,0.085086,0.069387,0.999233,0.018926,0.018655,0.028767,-0.666991,-0.035769,0.284650,0.687617,27.731562,-19.300775,-96.551698
35663,-1.276302,4.979987,8.932144,0.563315,4.513640,-0.565670,3.272834,3.697392,5.205876,-0.012364,0.048001,0.090348,0.999357,0.016361,0.018483,0.026024,-0.689171,-0.051906,0.284309,0.664468,28.346683,-18.838067,-92.706979
35664,-4.649499,4.347349,12.512760,-2.005970,8.621016,1.082620,2.682126,3.121832,4.241339,-0.045413,0.040813,0.126401,0.999563,0.013409,0.015607,0.021204,-0.706724,-0.065416,0.283496,0.644896,28.875812,-18.441382,-89.548406
35665,-4.705166,-0.554740,13.881850,-7.439406,7.997717,-0.023774,1.755987,2.147881,2.916448,-0.045458,-0.007439,0.139253,0.999797,0.008779,0.010739,0.014581,-0.718492,-0.074344,0.282458,0.631237,29.194887,-18.181628,-87.374812
35666,-3.616547,-1.545139,13.676935,-8.452180,6.437319,-0.344989,1.656794,1.183194,1.608042,-0.035224,-0.016871,0.136844,0.999916,0.008284,0.005916,0.008040,-0.724588,-0.081710,0.284046,0.622586,29.771515,-18.052584,-86.176035
35667,-1.055430,0.830947,12.074638,-5.633741,3.977270,0.189346,1.422531,0.453456,0.704504,-0.010308,0.007414,0.120825,0.999966,0.007113,0.002267,0.003522,-0.726856,-0.087217,0.287105,0.617774,30.424516,-18.035558,-85.666289
35668,2.488956,3.103729,9.309827,-2.135531,0.437455,0.074065,1.313335,0.203968,0.362399,0.024929,0.030470,0.093274,0.999976,0.006567,0.001020,0.001812,-0.727709,-0.092052,0.290584,0.614432,31.095943,-18.047231,-85.411192
35669,6.363813,4.953255,6.008511,1.399065,-3.564953,-0.513843,1.259108,0.441664,0.453449,0.063659,0.049298,0.060255,0.999975,0.006295,0.002208,0.002267,-0.729183,-0.097274,0.293043,0.610701,31.696607,-17.972022,-85.034079
35670,8.463848,6.161819,3.589687,3.886231,-5.790003,-1.218294,1.388182,1.200526,0.864143,0.084587,0.061735,0.035817,0.999949,0.006941,0.006003,0.004321,-0.732899,-0.104680,0.293325,0.604865,32.236372,-17.657160,-84.205869
35671,8.961490,7.529117,3.042959,5.434603,-6.008273,-0.833820,1.518879,2.195955,1.386091,0.089422,0.075682,0.030021,0.999887,0.007594,0.010979,0.006930,-0.739470,-0.114787,0.290561,0.596307,32.680830,-17.027262,-82.791278
35672,5.005162,7.677839,5.607968,3.693374,-1.754162,0.123707,1.549102,2.960431,1.843291,0.050172,0.076807,0.055932,0.999818,0.007745,0.014801,0.009216,-0.748272,-0.126586,0.285277,0.585390,33.027234,-16.184196,-80.901242
35673,2.206750,5.966115,7.765209,0.647873,0.646676,0.183468,1.350569,3.176369,1.977042,0.022713,0.059359,0.077696,0.999802,0.006752,0.015881,0.009885,-0.757622,-0.138034,0.278542,0.573908,33.248018,-15.284997,-78.877155
35674,-1.372673,3.822645,10.952231,-3.657447,3.518748,0.707774,1.431812,3.108984,1.859147,-0.012369,0.037321,0.109991,0.999810,0.007159,0.015544,0.009295,-0.766183,-0.149710,0.272150,0.562570,33.571370,-14.394041,-76.938755
35675,-3.898831,4.676100,13.215162,-5.050331,6.049651,2.418066,1.324043,2.442524,1.584263,-0.037732,0.045580,0.132922,0.999872,0.006620,0.012212,0.007921,-0.772909,-0.159422,0.267671,0.552764,33.940695,-13.740503,-75.354130
35676,-2.034267,2.486738,12.655175,-6.087057,3.261274,1.268030,0.709634,1.894148,1.090420,-0.019276,0.024311,0.126825,0.999934,0.003548,0.009471,0.005452,-0.777871,-0.165880,0.263194,0.546012,34.075096,-13.198070,-74.193169
35677,-1.984002,1.094226,11.876273,-6.731629,2.493511,-0.084184,0.708117,1.473867,0.657519,-0.018999,0.010458,0.118942,0.999961,0.003541,0.007369,0.003288,-0.781024,-0.171731,0.259934,0.541243,34.294691,-12.716855,-73.381621
35678,0.314272,2.539213,10.600977,-4.276277,0.680594,0.196100,0.574878,1.208434,0.328218,0.003742,0.025093,0.106061,0.999976,0.002874,0.006042,0.001641,-0.783005,-0.176762,0.257058,0.538126,34.498433,-12.258047,-72.817351
35679,1.729821,1.743507,8.606624,-3.285323,-1.045683,-1.553252,0.404790,1.211572,0.059061,0.017814,0.017266,0.085994,0.999980,0.002024,0.006058,0.000295,-0.784383,-0.181474,0.253456,0.536256,34.635677,-11.711330,-72.381396
35680,4.961735,-0.904804,4.159677,-1.652788,-5.041764,-5.993209,0.515780,1.465030,-0.293932,0.049907,-0.009228,0.041208,0.999969,0.002579,0.007325,-0.001470,-0.784997,-0.187732,0.248822,0.535373,34.857255,-10.931590,-72.029654
35681,7.837799,0.825559,1.449094,2.166839,-7.096230,-6.786561,0.977769,2.446105,-0.761692,0.078578,0.007889,0.013570,0.999906,0.004889,0.012230,-0.003808,-0.785046,-0.198993,0.241107,0.534764,35.331478,-9.539713,-71.568971
35682,8.072763,1.952481,-0.075231,4.066033,-6.881071,-7.554659,1.134817,3.672987,-1.054609,0.080798,0.019108,-0.002127,0.999801,0.005674,0.018364,-0.005273,-0.785412,-0.214426,0.228643,0.533734,35.865707,-7.484872,-70.822294
35683,5.240834,4.075692,0.480529,4.485048,-3.606008,-6.468172,1.683521,4.953118,-1.093801,0.052733,0.040434,0.003843,0.999643,0.008417,0.024763,-0.005468,-0.786107,-0.235375,0.212440,0.530568,36.699124,-4.832121,-69.636815
35684,0.913051,6.644315,1.934310,4.059508,0.941230,-4.213265,1.848710,5.754373,-0.936743,0.010004,0.066217,0.019676,0.999532,0.009242,0.028767,-0.004683,-0.787238,-0.258711,0.193565,0.525221,37.661590,-1.891210,-68.065033
35685,-0.902441,7.803355,1.910992,4.197393,2.789363,-3.491796,1.914148,6.317703,-0.759839,-0.008103,0.077876,0.020122,0.999448,0.009569,0.031583,-0.003798,-0.788486,-0.283375,0.172649,0.517862,38.743334,1.216795,-66.164395
35686,-4.000225,7.468468,2.741215,2.123406,5.021288,-2.773243,1.878425,6.667310,-0.572130,-0.038830,0.074527,0.029420,0.999396,0.009390,0.033330,-0.002860,-0.789669,-0.308299,0.150364,0.508690,39.922464,4.369103,-63.990233
35687,-5.987862,5.627877,2.973390,-0.358686,5.819799,-3.305544,2.097732,6.698249,-0.527198,-0.058677,0.056105,0.032302,0.999381,0.010486,0.033484,-0.002635,-0.789682,-0.333772,0.128366,0.498519,41.356621,7.472224,-61.703904
35688,-7.161040,4.283458,3.251410,-2.203862,5.923999,-3.471009,2.370670,6.595918,-0.723293,-0.070321,0.042683,0.035354,0.999379,0.011851,0.032973,-0.003616,-0.787711,-0.359779,0.106993,0.488490,43.067342,10.540874,-59.440020
35689,-7.684594,5.682670,3.417679,-1.773037,6.145489,-1.934044,2.671501,6.494037,-1.284561,-0.075301,0.056828,0.037398,0.999363,0.013355,0.032463,-0.006421,-0.782784,-0.386571,0.085586,0.480090,45.037738,13.720636,-57.331350
35690,-10.293643,8.872725,5.559679,-2.180450,7.218614,2.783032,2.253117,6.175743,-1.786301,-0.100340,0.088974,0.059724,0.999420,0.011263,0.030873,-0.008930,-0.776372,-0.410719,0.063358,0.473859,46.829404,16.909892,-55.429418
35691,-11.992610,9.243495,7.023845,-3.598030,6.916939,4.942873,1.460489,5.523755,-2.083197,-0.116946,0.093131,0.074175,0.999538,0.007301,0.027615,-0.010414,-0.769874,-0.429903,0.041094,0.469882,48.171988,19.921588,-53.816622
35692,-12.305695,8.423785,8.116622,-4.745496,5.476171,5.539797,0.781161,4.611333,-2.185387,-0.120210,0.085237,0.084292,0.999667,0.003905,0.023054,-0.010926,-0.763785,-0.444033,0.020487,0.468024,49.068932,22.602870,-52.573154
35693,-11.076563,5.000702,7.884849,-6.159695,3.491682,2.824642,0.344431,3.681118,-2.205280,-0.108729,0.051075,0.080950,0.999768,0.001722,0.018404,-0.011026,-0.758106,-0.454049,0.002360,0.468091,49.605529,24.928961,-51.721281
35694,-10.070740,2.231946,7.449959,-7.195666,2.203171,0.446710,0.762568,2.851438,-2.404057,-0.099355,0.023231,0.076010,0.999819,0.003813,0.014256,-0.012020,-0.750673,-0.463549,-0.012123,0.470601,50.218979,27.032323,-51.313114
35695,-9.913735,4.110061,8.324417,-5.968468,1.345715,2.312598,1.181899,2.144622,-2.590738,-0.097696,0.041875,0.084543,0.999841,0.005909,0.010723,-0.012953,-0.741637,-0.472766,-0.023368,0.475312,50.896787,28.952493,-51.303045
35696,-9.121099,6.753123,8.384320,-3.471065,0.670891,3.846914,1.214386,1.477286,-2.589366,-0.089706,0.068186,0.084922,0.999870,0.006072,0.007386,-0.012946,-0.732370,-0.480401,-0.032097,0.481476,51.435602,30.638339,-51.611481
35697,-7.466305,7.488532,8.319260,-1.852032,-0.653896,3.497747,0.875461,1.006456,-2.456441,-0.073318,0.075425,0.083893,0.999902,0.004377,0.005032,-0.012282,-0.724169,-0.485556,-0.039547,0.488109,51.676692,32.092359,-52.104012
35698,-5.964636,4.526424,7.102662,-2.620344,-1.129801,0.105310,0.593958,0.807825,-2.515122,-0.058785,0.045795,0.071401,0.999908,0.002970,0.004039,-0.012575,-0.716389,-0.489118,-0.047150,0.495305,51.672359,33.509890,-52.731846
35699,-6.388499,3.868880,7.202100,-3.219795,-1.107961,-0.012079,0.615962,0.768000,-3.038327,-0.063012,0.039428,0.072385,0.999872,0.003080,0.003840,-0.015191,-0.707136,-0.492416,-0.055775,0.504355,51.520121,35.140629,-53.620262
35700,-8.637063,4.535131,8.674273,-4.179937,-0.908665,2.520228,0.300852,0.562519,-3.616807,-0.085289,0.046769,0.087053,0.999831,0.001504,0.002812,-0.018083,-0.697028,-0.493780,-0.065931,0.515739,50.926531,36.958361,-54.912144
35701,-11.124733,3.065453,10.174349,-6.732631,-0.534367,4.009006,-0.065869,0.049260,-4.279930,-0.110532,0.033059,0.101760,0.999771,-0.000329,0.000246,-0.021398,-0.686031,-0.492124,-0.076799,0.530356,49.684067,38.856701,-56.865826
35702,-12.892516,1.416194,10.665947,-8.512481,0.284397,4.658195,-0.099446,-0.675764,-4.923978,-0.128883,0.017388,0.106216,0.999691,-0.000497,-0.003378,-0.024617,-0.673296,-0.487910,-0.086879,0.548697,47.828270,40.724277,-59.664287
35703,-14.004198,1.107530,10.572487,-8.551493,1.195746,5.501269,0.310522,-1.486594,-5.319601,-0.140465,0.014645,0.104703,0.999617,0.001552,-0.007432,-0.026595,-0.658389,-0.482352,-0.093943,0.570118,45.603681,42.353140,-63.280043
35704,-13.221597,3.489480,10.045487,-5.422724,0.940338,6.236315,0.812505,-2.258488,-5.308449,-0.132359,0.038002,0.099111,0.999576,0.004062,-0.011291,-0.026538,-0.642109,-0.475835,-0.097020,0.593181,43.190530,43.559485,-67.488687
35705,-11.291936,6.286395,9.415258,-1.624178,-0.236025,6.091810,0.897852,-2.758838,-5.209745,-0.112525,0.065380,0.092888,0.999556,0.004489,-0.013792,-0.026045,-0.625634,-0.467771,-0.097832,0.616605,40.542043,44.368733,-72.037713
35706,-9.832537,8.234245,10.208212,0.620735,-2.171365,6.421698,0.155983,-2.948791,-5.725204,-0.097408,0.085061,0.100707,0.999481,0.000780,-0.014741,-0.028621,-0.608769,-0.456058,-0.101540,0.641172,37.032733,45.109109,-77.132040
35707,-11.240543,6.346712,11.732331,-1.182497,-1.788644,7.496601,-0.939316,-3.166291,-6.229135,-0.112180,0.067508,0.115235,0.999379,-0.004696,-0.015828,-0.031139,-0.592233,-0.439579,-0.109037,0.666439,32.473233,45.647871,-82.773370
35708,-12.540168,2.112055,12.092755,-4.241930,0.179643,7.211636,-1.045204,-3.509573,-6.445457,-0.126715,0.025815,0.118585,0.999313,-0.005225,-0.017544,-0.032220,-0.574597,-0.420899,-0.116291,0.692212,27.547790,45.753458,-88.797991
35709,-12.440993,1.684810,12.513943,-3.810918,0.247187,7.494537,-0.407087,-3.995007,-6.258374,-0.126261,0.021032,0.122589,0.999309,-0.002035,-0.019970,-0.031285,-0.555785,-0.401952,-0.119300,0.717848,23.021540,45.209819,-94.810053
35710,-11.439935,6.495207,10.844385,2.060025,-0.880514,7.086615,0.291044,-4.644068,-5.668123,-0.114978,0.068050,0.105876,0.999328,0.001455,-0.023215,-0.028334,-0.537293,-0.382352,-0.116745,0.742627,19.241206,43.895225,-100.413222
35711,-6.594009,14.815194,11.602851,9.104746,-7.991714,6.024214,-0.405504,-4.800580,-4.917729,-0.065022,0.149991,0.114157,0.999408,-0.002027,-0.023998,-0.024584,-0.522357,-0.360319,-0.114681,0.764304,15.731415,42.113085,-105.210197
35712,-7.377799,9.876822,10.648786,5.865665,-4.724793,4.630709,-1.546025,-4.780881,-3.640586,-0.074459,0.100930,0.103938,0.999519,-0.007729,-0.023901,-0.018200,-0.513767,-0.335662,-0.114670,0.781169,12.488558,39.959468,-108.778771
35713,-8.896981,6.844688,10.155989,4.409244,-1.737708,4.562357,-1.362694,-5.170356,-2.739107,-0.090592,0.070360,0.098757,0.999549,-0.006812,-0.025848,-0.013693,-0.508152,-0.310224,-0.111255,0.795716,10.014490,37.356289,-111.481472
35714,-6.482334,3.060362,10.010139,1.041534,-1.344618,2.379875,-1.465918,-5.327328,-2.468077,-0.067064,0.032146,0.098103,0.999542,-0.007328,-0.026633,-0.012339,-0.503391,-0.283707,-0.107380,0.809060,7.807224,34.553801,-113.789258
35715,-8.056447,0.182759,8.822455,0.006809,2.155958,1.938332,-0.630100,-5.504100,-2.360866,-0.082920,0.003070,0.085956,0.999547,-0.003150,-0.027516,-0.011803,-0.497525,-0.258437,-0.099380,0.822072,6.319402,31.587204,-115.845576
35716,-4.409022,3.172569,8.220089,1.870962,-1.443060,-0.248499,0.027545,-5.523063,-2.233139,-0.045980,0.032221,0.080953,0.999556,0.000138,-0.027611,-0.011164,-0.490889,-0.234496,-0.088424,0.834399,5.400521,28.563951,-117.686452
35717,-4.027639,4.672653,8.338277,3.248962,-2.201992,-0.212480,0.337314,-5.277386,-1.807069,-0.042035,0.046962,0.082368,0.999610,0.001686,-0.026383,-0.009034,-0.485159,-0.212392,-0.076156,0.844814,4.926023,25.642849,-119.142583
35718,-5.473616,6.974309,9.261654,5.837917,-2.209509,1.385455,0.552513,-5.202832,-1.240022,-0.056691,0.069837,0.091351,0.999639,0.002762,-0.026011,-0.006199,-0.481198,-0.191124,-0.062540,0.853235,4.802140,22.726672,-120.191094
35719,-7.168242,6.742175,10.987390,6.285589,-0.789352,3.506345,0.215327,-5.314011,-0.741927,-0.074318,0.067577,0.107995,0.999640,0.001077,-0.026567,-0.003709,-0.479376,-0.168645,-0.049534,0.859828,4.661925,19.724768,-120.907487
35720,-8.360176,4.254648,10.847470,5.212531,2.083271,3.382095,0.029623,-5.755428,-0.559214,-0.086557,0.042770,0.106018,0.999582,0.000148,-0.028773,-0.002796,-0.478232,-0.143695,-0.036100,0.865646,4.481747,16.457675,-121.514071
