// General information: 
//  MT Manager version: 2022.0.0 
//  XDA version: 2022.0.0 build 7085 rev 119802 built on 2022-11-08
// Device information: 
//  DeviceId: 00B4737C
//  ProductCode: MTW2-3A7G6
//  Firmware Version: 4.14.0
//  Hardware Version: 2.0.0
// Device settings: 
//  Filter Profile: human(46.1)
//  Option Flags: Orientation Smoother Disabled, Position/Velocity Smoother Disabled, Continuous Zero Rotation Update Disabled, AHS Disabled, ICC Disabled
// Coordinate system: ENU
PacketCounter,Acc_X,Acc_Y,Acc_Z,FreeAcc_E,FreeAcc_N,FreeAcc_U,Gyr_X,Gyr_Y,Gyr_Z,VelInc_X,VelInc_Y,VelInc_Z,OriInc_q0,OriInc_q1,OriInc_q2,OriInc_q3,Quat_q0,Quat_q1,Quat_q2,Quat_q3,Roll,Pitch,Yaw
36904,-4.308523,2.544670,8.602555,-0.141133,-0.234593,0.135564,-0.173788,0.060916,0.018134,-0.043061,0.025518,0.086017,1.000000,-0.000869,0.000305,0.000091,0.706396,-0.053620,0.241086,0.663331,15.535962,24.314131,89.764878
36905,-3.702828,2.814406,8.440273,-0.458724,0.289682,-0.191063,-0.207136,0.079292,-0.010823,-0.036993,0.028233,0.084388,0.999999,-0.001036,0.000396,-0.000054,0.706251,-0.054632,0.240642,0.663564,15.417859,24.356338,89.776790
36906,-3.914444,2.561271,8.793691,-0.141728,0.218223,0.144432,-0.252408,0.134639,-0.036662,-0.039081,0.025731,0.087931,0.999999,-0.001262,0.000673,-0.000183,0.706108,-0.056009,0.240241,0.663746,15.272452,24.432647,89.782757
36907,-4.657942,2.169324,9.093876,0.294634,-0.371782,0.621675,-0.142053,0.094332,-0.026602,-0.046534,0.021764,0.090945,1.000000,-0.000710,0.000472,-0.000133,0.706014,-0.056860,0.240061,0.663839,15.188646,24.485590,89.787385
36908,-4.656321,1.529037,9.174990,0.924167,-0.404586,0.540184,-0.050848,0.005591,-0.019523,-0.046559,0.015318,0.091747,1.000000,-0.000254,0.000028,-0.000098,0.706025,-0.057077,0.239877,0.663875,15.154106,24.487983,89.782291
36909,-4.838083,1.188840,9.254648,1.278080,-0.580684,0.603559,0.193248,-0.075627,0.000519,-0.048416,0.011799,0.092540,0.999999,0.000966,-0.000378,0.000003,0.706139,-0.056148,0.240218,0.663710,15.257606,24.442882,89.775307
36910,-4.428940,1.722525,9.001703,0.722993,-0.262583,0.337262,0.377378,-0.159930,0.021550,-0.044363,0.017051,0.090014,0.999998,0.001887,-0.000800,0.000108,0.706332,-0.054255,0.240881,0.663421,15.467155,24.347680,89.767445
36911,-3.658350,2.297692,8.482791,0.067189,0.283284,-0.297660,0.410899,-0.130666,0.048811,-0.036645,0.022794,0.084851,0.999998,0.002054,-0.000653,0.000244,0.706408,-0.052316,0.241762,0.663176,15.703456,24.264812,89.780090
36912,-3.716114,2.981979,8.531172,-0.541536,0.318079,-0.061378,0.383107,-0.040325,0.092362,-0.037192,0.029639,0.085361,0.999998,0.001916,-0.000202,0.000462,0.706218,-0.050715,0.242883,0.663093,15.941883,24.224555,89.834667
36913,-4.004444,2.922389,8.703109,-0.407622,0.110326,0.194393,0.205046,-0.007691,0.118523,-0.040065,0.029111,0.087059,0.999999,0.001025,-0.000038,0.000593,0.705857,-0.049826,0.243531,0.663307,16.085942,24.198310,89.910030
36914,-4.011002,2.259647,8.611079,0.224488,-0.013324,-0.050812,0.168134,-0.019733,0.113597,-0.040131,0.022501,0.086126,0.999999,0.000841,-0.000099,0.000568,0.705514,-0.049025,0.244018,0.663553,16.207826,24.165690,89.980760
36915,-4.293817,2.129992,8.853610,0.437574,-0.196738,0.243649,0.209027,-0.025944,0.115744,-0.042962,0.021183,0.088553,0.999999,0.001045,-0.000130,0.000579,0.705183,-0.048065,0.244614,0.663755,16.352018,24.129534,90.051062
36916,-4.050970,2.287883,8.664317,0.258129,-0.039435,0.018229,0.269458,-0.063673,0.114531,-0.040550,0.022739,0.086661,0.999999,0.001347,-0.000318,0.000573,0.704913,-0.046760,0.245280,0.663889,16.528753,24.072308,90.114286
36917,-3.930506,2.575541,8.545277,-0.024416,0.047839,-0.060708,0.268307,-0.050023,0.105988,-0.039340,0.025620,0.085477,0.999999,0.001342,-0.000250,0.000530,0.704656,-0.045522,0.245985,0.663987,16.702532,24.024154,90.174115
36918,-3.822910,2.855846,8.403671,-0.308738,0.115609,-0.154352,0.228200,-0.033974,0.089647,-0.038256,0.028445,0.084063,0.999999,0.001141,-0.000170,0.000448,0.704420,-0.044492,0.246612,0.664075,16.851439,23.987020,90.227349
36919,-3.595274,3.134201,8.533272,-0.519138,0.401517,-0.058960,0.162139,-0.005845,0.059825,-0.035965,0.031262,0.085357,1.000000,0.000811,-0.000029,0.000299,0.704236,-0.043832,0.247109,0.664130,16.956218,23.970501,90.267239
36920,-4.343765,2.823523,8.760227,-0.138794,-0.231957,0.361254,0.108823,-0.005389,0.044080,-0.043446,0.028178,0.087616,1.000000,0.000544,-0.000027,0.000220,0.704088,-0.043373,0.247430,0.664197,17.027699,23.956419,90.298275
36921,-4.219585,2.498227,8.647386,0.148851,-0.204850,0.125078,0.093824,-0.073423,0.023744,-0.042231,0.024937,0.086470,1.000000,0.000469,-0.000367,0.000119,0.704091,-0.042774,0.247454,0.664223,17.079470,23.908851,90.304057
36922,-3.737481,2.645782,8.437311,-0.047227,0.163432,-0.214345,0.117640,-0.072398,-0.013876,-0.037404,0.026411,0.084375,1.000000,0.000588,-0.000362,-0.000069,0.704221,-0.042133,0.247556,0.664089,17.136889,23.867819,90.287941
36923,-3.852024,3.152394,8.485575,-0.509517,0.129652,0.010970,0.095508,-0.061430,-0.038542,-0.038540,0.031491,0.084859,1.000000,0.000478,-0.000307,-0.000193,0.704416,-0.041644,0.247614,0.663891,17.175398,23.837334,90.258559
36924,-3.543512,3.332595,8.419335,-0.701825,0.403042,-0.122854,-0.021975,-0.049156,-0.068114,-0.035444,0.033347,0.084181,1.000000,-0.000110,-0.000246,-0.000341,0.704667,-0.041639,0.247324,0.663733,17.141481,23.818205,90.214242
36925,-4.317648,2.826914,9.077120,-0.030484,-0.110472,0.628313,-0.071215,-0.015758,-0.067348,-0.043174,0.028316,0.090758,1.000000,-0.000356,-0.000079,-0.000337,0.704866,-0.041925,0.246983,0.663630,17.080931,23.817565,90.176067
36926,-4.909311,2.200458,9.407722,0.661536,-0.605295,0.987524,0.028499,-0.167786,-0.023207,-0.049169,0.021997,0.094039,1.000000,0.000142,-0.000839,-0.000116,0.705125,-0.041293,0.246451,0.663593,17.078062,23.725821,90.136925
36927,-4.714278,1.887038,9.354362,0.952214,-0.504870,0.776352,0.192234,-0.225708,0.006201,-0.047249,0.018779,0.093508,0.999999,0.000961,-0.001129,0.000031,0.705392,-0.039863,0.246259,0.663467,17.170696,23.597821,90.104094
36928,-5.279008,2.097753,9.491225,0.811870,-0.978910,1.175226,0.300365,-0.373930,0.021949,-0.052970,0.020829,0.094845,0.999997,0.001502,-0.001870,0.000110,0.705807,-0.037533,0.245910,0.663292,17.319088,23.385798,90.053412
36929,-3.956875,2.272290,8.535427,0.381050,-0.152174,-0.142883,0.289217,-0.505898,-0.027555,-0.039781,0.022605,0.085287,0.999996,0.001446,-0.002529,-0.000138,0.706543,-0.034872,0.245043,0.662974,17.438775,23.110501,89.947787
36930,-3.336116,2.980581,8.428231,-0.307083,0.421963,-0.285037,0.324232,-0.420696,-0.138819,-0.033518,0.029692,0.084260,0.999996,0.001621,-0.002103,-0.000694,0.707542,-0.032501,0.244575,0.662201,17.560101,22.900919,89.791998
36931,-3.511947,3.127510,8.410571,-0.441296,0.239101,-0.189756,0.173105,-0.408739,-0.208104,-0.035259,0.031239,0.084061,0.999997,0.000866,-0.002044,-0.001041,0.708729,-0.030794,0.243633,0.661361,17.579358,22.710245,89.596971
36932,-3.271439,3.423326,8.572225,-0.671616,0.528986,-0.056993,0.104924,-0.367624,-0.259895,-0.032827,0.034231,0.085680,0.999997,0.000525,-0.001838,-0.001299,0.710020,-0.029521,0.242606,0.660411,17.552325,22.550721,89.379685
36933,-4.084417,3.443290,9.280367,-0.491622,0.011364,0.884135,-0.008821,-0.356392,-0.248336,-0.040967,0.034488,0.092729,0.999998,-0.000044,-0.001782,-0.001242,0.711241,-0.028681,0.241239,0.659635,17.463295,22.395391,89.171326
36934,-5.638598,3.649044,9.916849,-0.541936,-1.208609,2.091029,-0.210015,-0.489737,-0.167216,-0.056598,0.036642,0.098992,0.999996,-0.001050,-0.002449,-0.000836,0.712319,-0.028012,0.238749,0.659405,17.269791,22.152509,88.987423
36935,-5.375506,3.480504,9.515581,-0.562419,-1.189349,1.581361,-0.626164,-0.735783,-0.197389,-0.054070,0.035156,0.094848,0.999988,-0.003131,-0.003679,-0.000987,0.713724,-0.028056,0.233998,0.659588,16.815109,21.779236,88.742582
36936,-4.344119,2.750353,9.129398,-0.052586,-0.532966,0.651232,-0.790997,-0.842463,-0.301842,-0.043783,0.027930,0.091000,0.999982,-0.003955,-0.004212,-0.001509,0.715551,-0.028452,0.228307,0.659586,16.240667,21.362255,88.422059
36937,-4.171815,2.740470,9.165433,-0.132614,-0.435901,0.613738,-0.821443,-0.897313,-0.410044,-0.042072,0.027866,0.091352,0.999979,-0.004107,-0.004487,-0.002050,0.717767,-0.028905,0.222289,0.659213,15.625522,20.929108,88.033534
36938,-3.655116,2.639389,8.971328,-0.187787,-0.105392,0.225388,-0.970411,-0.931749,-0.500927,-0.036901,0.026920,0.089412,0.999974,-0.004852,-0.004659,-0.002505,0.720265,-0.029872,0.215639,0.658655,14.910246,20.486430,87.592674
36939,-3.395794,2.174004,9.009413,0.157578,0.019791,0.056475,-1.041595,-0.875589,-0.526341,-0.034293,0.022298,0.089829,0.999973,-0.005208,-0.004378,-0.002632,0.722739,-0.031313,0.208936,0.658038,14.156490,20.073331,87.152325
36940,-4.164734,2.679659,9.844196,-0.276320,-0.435062,1.194870,-0.973262,-0.835402,-0.493401,-0.041991,0.027378,0.098135,0.999976,-0.004866,-0.004177,-0.002467,0.725035,-0.032596,0.202604,0.657430,13.456807,19.672871,86.744420
36941,-6.067343,3.413334,11.248214,-0.897950,-1.765759,3.266217,-1.240961,-0.934441,-0.501996,-0.061110,0.034982,0.111982,0.999967,-0.006205,-0.004672,-0.002510,0.727376,-0.034538,0.195014,0.657040,12.601634,19.213077,86.324389
36942,-8.236341,3.177674,12.359525,-0.759308,-3.620129,4.918354,-1.337180,-1.279693,-0.610831,-0.083052,0.032853,0.122848,0.999953,-0.006686,-0.006398,-0.003054,0.730334,-0.035793,0.185824,0.656354,11.664133,18.567009,85.805370
36943,-9.311550,1.213742,12.154503,0.765357,-5.152193,4.636127,-1.309927,-1.843907,-0.690658,-0.094186,0.013253,0.120596,0.999930,-0.006549,-0.009219,-0.003453,0.733999,-0.035173,0.174621,0.655375,10.717117,17.604540,85.186510
36944,-7.427012,1.142951,10.028413,0.300900,-4.202786,1.988723,-0.864448,-2.308419,-0.818817,-0.075372,0.012167,0.099367,0.999916,-0.004322,-0.011542,-0.004094,0.738453,-0.031500,0.163134,0.653515,10.006271,16.385812,84.460528
36945,-1.207635,1.105882,7.354293,0.220023,0.840222,-2.328738,-1.172478,-2.324855,-0.776123,-0.012885,0.011538,0.073330,0.999908,-0.005862,-0.011624,-0.003880,0.742603,-0.028872,0.150546,0.651953,9.145190,15.143564,83.779879
36946,0.997222,0.203003,6.895615,1.164121,2.582027,-3.443880,-0.633832,-1.801963,-0.462644,0.009355,0.002227,0.069035,0.999952,-0.003169,-0.009010,-0.002313,0.745311,-0.025708,0.141692,0.650980,8.669682,14.162929,83.349182
36947,-4.491656,2.259042,11.497066,-0.693259,-1.516842,2.624200,-0.087213,-1.589723,-0.096882,-0.045817,0.022663,0.114599,0.999968,-0.000436,-0.007949,-0.000484,0.746688,-0.020938,0.135431,0.650905,8.569901,13.268045,83.157377
36948,-7.158540,3.117816,12.176112,-1.799561,-4.054006,3.954734,-0.327113,-2.132953,-0.097271,-0.072863,0.031412,0.120937,0.999942,-0.001636,-0.010665,-0.000486,0.748342,-0.015293,0.126361,0.650987,8.327435,12.065690,82.922018
36949,-1.422354,-1.456814,8.836436,2.699802,-0.042204,-1.156285,-0.780165,-2.304562,-0.142660,-0.015251,-0.014213,0.088248,0.999926,-0.003901,-0.011523,-0.000713,0.750117,-0.010811,0.115143,0.651114,7.823308,10.767251,82.655419
36950,-1.478999,-2.194282,7.439994,3.149429,-0.618581,-2.597976,0.547491,-2.002802,-0.163833,-0.015552,-0.022134,0.074186,0.999946,0.002737,-0.010014,-0.000819,0.751764,-0.002346,0.109374,0.650294,8.089045,9.642359,82.404599
36951,1.407256,1.841565,7.353386,-0.424400,2.668987,-2.591959,0.289648,-1.821759,-0.354876,0.013434,0.018285,0.073685,0.999956,0.001448,-0.009109,-0.001774,0.753855,0.004460,0.103423,0.648834,8.195329,8.635280,82.056149
36952,3.459182,0.865661,6.379436,0.660695,4.297946,-3.938773,-0.200331,-1.414645,-0.632321,0.034167,0.008612,0.064028,0.999969,-0.001002,-0.007073,-0.003162,0.756592,0.007952,0.097425,0.646540,8.008902,7.882312,81.583261
36953,2.065276,1.419543,7.591909,0.108930,3.085389,-2.438031,-0.130693,-1.126327,-0.745095,0.020278,0.014169,0.076025,0.999977,-0.000653,-0.005632,-0.003725,0.759508,0.010722,0.092732,0.643765,7.862145,7.299502,81.071957
36954,1.682286,2.715538,8.017393,-1.155309,2.912680,-1.771287,-0.171608,-0.938776,-0.721988,0.016544,0.027164,0.080229,0.999982,-0.000858,-0.004694,-0.003610,0.762235,0.012744,0.088621,0.641078,7.700937,6.820539,80.590674
36955,-0.174602,2.275058,9.557780,-0.814301,1.103028,-0.082457,-0.189421,-0.815041,-0.550881,-0.002073,0.022846,0.095548,0.999987,-0.000947,-0.004075,-0.002754,0.764336,0.014376,0.084904,0.639042,7.545243,6.396993,80.218515
36956,-1.542137,2.331369,9.208858,-1.172463,-0.323635,-0.266134,0.101941,-0.873311,-0.321259,-0.015786,0.023292,0.092032,0.999989,0.000510,-0.004367,-0.001606,0.765689,0.017409,0.081884,0.637740,7.573832,5.922927,79.973941
36957,0.801651,2.466100,8.526627,-1.017203,1.879997,-1.160620,-0.216211,-0.750699,-0.226639,0.007724,0.024744,0.085269,0.999992,-0.001081,-0.003753,-0.001133,0.766704,0.018867,0.078302,0.636929,7.427623,5.510892,79.793262
36958,-0.687726,1.328690,9.283769,-0.089301,0.207525,-0.411867,-0.137122,-0.622955,-0.200787,-0.007153,0.013358,0.092807,0.999994,-0.000686,-0.003115,-0.001004,0.767567,0.020236,0.075465,0.636189,7.331164,5.169381,79.637822
36959,-0.736751,1.414246,10.126406,-0.098616,0.177738,0.436471,-0.339322,-0.628080,-0.217532,-0.007670,0.014322,0.101216,0.999993,-0.001697,-0.003140,-0.001088,0.768497,0.020835,0.071959,0.635452,7.118094,4.825526,79.473416
36960,-1.550149,1.278786,9.732963,-0.210802,-0.722848,0.096981,-0.200138,-0.652028,-0.260292,-0.015802,0.012906,0.097266,0.999993,-0.001001,-0.003260,-0.001301,0.769546,0.022033,0.068813,0.634490,6.984662,4.470768,79.284102
36961,0.608572,1.135638,8.975497,0.186703,1.273358,-0.837001,-0.412076,-0.622817,-0.291674,0.005823,0.011533,0.089750,0.999992,-0.002060,-0.003114,-0.001458,0.770697,0.022307,0.065104,0.633475,6.728927,4.133935,79.080140
36962,-0.500371,0.923334,9.646611,0.244622,0.132128,-0.113072,0.050944,-0.506549,-0.252275,-0.005236,0.009215,0.096455,0.999996,0.000255,-0.002533,-0.001261,0.771624,0.024015,0.063310,0.632465,6.742648,3.860351,78.907323
36963,0.300007,2.405966,9.163164,-1.119235,1.146233,-0.470549,-0.124554,-0.539754,-0.264002,0.002785,0.024113,0.091624,0.999995,-0.000623,-0.002699,-0.001320,0.772613,0.025142,0.060827,0.631456,6.655192,3.568376,78.725782
36964,0.808005,0.778041,8.394292,0.447394,1.252569,-1.448886,-0.171955,-0.381487,-0.190836,0.007927,0.007845,0.083951,0.999997,-0.000860,-0.001907,-0.000954,0.773323,0.025614,0.058803,0.630760,6.545528,3.361453,78.597018
36965,-0.382431,1.847341,9.574398,-0.691460,0.318992,-0.083963,0.067559,-0.278604,-0.109740,-0.003948,0.018443,0.095745,0.999999,0.000338,-0.001393,-0.000549,0.773713,0.026705,0.057915,0.630318,6.575570,3.207591,78.521341
36966,0.346034,1.128417,9.183418,0.096688,0.848563,-0.593210,-0.109014,-0.276360,-0.051028,0.003336,0.011333,0.091833,0.999999,-0.000545,-0.001382,-0.000255,0.773939,0.027130,0.056477,0.630152,6.507488,3.051156,78.479429
36967,-0.034921,1.010711,9.347180,0.147435,0.436498,-0.422255,0.045579,-0.178131,0.016335,-0.000433,0.010086,0.093474,1.000000,0.000228,-0.000891,0.000082,0.773904,0.027856,0.055892,0.630216,6.529422,2.946232,78.482298
36968,-0.035863,1.475974,9.483347,-0.296735,0.518245,-0.233701,-0.133219,-0.176241,0.020049,-0.000444,0.014823,0.094823,0.999999,-0.000666,-0.000881,0.000100,0.773880,0.027892,0.054754,0.630345,6.450017,2.842068,78.487561
36969,0.060508,1.109746,9.202182,0.028449,0.519630,-0.558256,-0.147354,-0.101565,0.085829,0.000554,0.011166,0.092014,1.000000,-0.000737,-0.000508,0.000429,0.773629,0.027649,0.053847,0.630741,6.363591,2.776302,78.535150
36970,-0.464426,1.801298,9.636830,-0.709931,0.150300,-0.024824,-0.084101,-0.040514,0.166788,-0.004679,0.018050,0.096360,1.000000,-0.000421,-0.000203,0.000834,0.773097,0.027487,0.053369,0.631441,6.316790,2.740094,78.632956
36971,0.315141,1.457918,9.558359,-0.245505,0.839392,-0.178260,-0.173634,-0.009824,0.218024,0.003131,0.014666,0.095571,0.999999,-0.000868,-0.000049,0.001090,0.772406,0.026889,0.052715,0.632366,6.219110,2.718424,78.761822
36972,-0.551015,0.986422,9.794274,0.064295,-0.098620,0.045841,0.019109,0.014630,0.271912,-0.005516,0.009847,0.097944,0.999999,0.000096,0.000073,0.001360,0.771510,0.026980,0.052762,0.633451,6.234433,2.707231,78.923087
36973,0.011270,1.313650,9.228954,-0.213574,0.501159,-0.506634,-0.047672,0.024466,0.252690,0.000107,0.013159,0.092286,0.999999,-0.000238,0.000122,0.001263,0.770681,0.026769,0.052634,0.634479,6.209904,2.703041,79.073867
36974,0.246173,0.655577,9.519490,0.501872,0.616872,-0.300660,-0.042835,0.126927,0.220390,0.002515,0.006579,0.095192,0.999999,-0.000214,0.000635,0.001102,0.769925,0.026251,0.052924,0.635394,6.188722,2.759050,79.212720
36975,-0.782176,0.676958,10.321627,0.378249,-0.356742,0.547608,-0.039426,0.091269,0.164217,-0.007780,0.006784,0.103218,1.000000,-0.000197,0.000456,0.000821,0.769356,0.025837,0.053091,0.636086,6.166866,2.798486,79.317180
36976,-0.258062,-0.657255,9.905418,1.725943,-0.098715,-0.033768,-0.070874,0.063343,0.059371,-0.002547,-0.006538,0.099057,1.000000,-0.000354,0.000317,0.000297,0.769130,0.025370,0.053068,0.636380,6.125053,2.828251,79.360252
36977,-0.089317,-0.442004,9.799711,1.538399,0.110582,-0.124614,0.133374,0.075700,-0.081547,-0.000858,-0.004485,0.097994,1.000000,0.000667,0.000379,-0.000408,0.769324,0.025604,0.053756,0.636078,6.195316,2.873960,79.323575
36978,0.107535,-0.254882,9.396422,1.359837,0.333313,-0.517043,0.147674,0.115649,-0.199096,0.001127,-0.002619,0.093962,0.999999,0.000738,0.000578,-0.000995,0.769877,0.025742,0.054661,0.635326,6.271260,2.949494,79.222544
36979,0.123782,0.698588,9.178898,0.430162,0.536036,-0.632107,0.303711,0.204117,-0.194814,0.001338,0.006845,0.091798,0.999998,0.001519,0.001021,-0.000974,0.770372,0.026193,0.056399,0.634556,6.436057,3.075634,79.129583
36980,0.238584,1.288681,8.567060,-0.163397,0.761615,-1.181046,0.368852,0.322809,-0.096899,0.002530,0.012728,0.085690,0.999997,0.001844,0.001614,-0.000484,0.770508,0.026553,0.058789,0.634158,6.642155,3.262888,79.100749
36981,0.969629,1.494722,6.995882,-0.382456,1.491729,-2.759675,0.506782,0.542332,-0.027918,0.009888,0.014769,0.069970,0.999993,0.002534,0.002712,-0.000140,0.770337,0.026761,0.062451,0.634007,6.929740,3.570850,79.126769
36982,3.124103,1.461884,2.871030,-0.452256,3.467224,-6.999569,0.590018,0.987778,0.028200,0.031380,0.014539,0.028599,0.999983,0.002950,0.004939,0.000141,0.769818,0.025902,0.068084,0.634093,7.270347,4.127463,79.218291
36983,6.887316,2.811072,-0.320979,-1.505723,7.273211,-10.334292,0.418960,2.043602,0.050408,0.068829,0.028136,-0.003854,0.999946,0.002095,0.010218,0.000252,0.768839,0.021036,0.077230,0.634413,7.521254,5.282364,79.403388
36984,6.229017,4.985121,-0.196639,-3.755588,7.037704,-10.042149,-0.277542,3.451171,0.101355,0.062218,0.049879,-0.003110,0.999850,-0.001388,0.017255,0.000507,0.767069,0.009056,0.089554,0.635219,7.393896,7.231788,79.725067
36985,-1.009657,4.458805,1.791051,-4.257386,0.089047,-7.368422,-1.563878,4.773933,0.315337,-0.009741,0.044712,0.017797,0.999683,-0.007819,0.023867,0.001577,0.763730,-0.011979,0.102816,0.637183,6.571347,9.922289,80.247849
36986,-13.827335,-0.394059,13.074543,-0.034844,-11.103717,5.643698,-2.150164,5.662604,0.834370,-0.134484,-0.003073,0.134625,0.999533,-0.010749,0.028309,0.004171,0.757644,-0.037787,0.117551,0.640882,5.503664,13.094499,81.087170
36987,-31.646969,-9.323238,19.414367,7.218431,-27.523734,15.790054,-0.594902,3.781434,1.618153,-0.311956,-0.095179,0.200352,0.999784,-0.002974,0.018906,0.008090,0.749930,-0.051210,0.130215,0.646549,5.444087,15.160486,82.257276
36988,-15.890117,-0.548583,12.721407,0.351515,-12.030927,6.610972,1.145056,2.004715,1.630440,-0.157560,-0.007508,0.128759,0.999900,0.005725,0.010023,0.008152,0.743543,-0.052342,0.141813,0.651378,6.392191,16.205108,83.350748
36989,-4.147923,-0.722837,6.742978,1.199737,-2.197549,-2.267910,-1.531262,2.235193,1.127048,-0.040682,-0.006940,0.067941,0.999892,-0.007656,0.011176,0.005635,0.737776,-0.064520,0.145381,0.656040,5.746888,17.407912,84.168364
36990,-6.646370,-8.971764,5.629697,8.969627,-5.718938,-3.240893,-1.062923,2.779853,0.924974,-0.065253,-0.089717,0.057686,0.999879,-0.005314,0.013899,0.004625,0.732258,-0.076895,0.152409,0.659285,5.359550,18.941225,84.890927
36991,-7.392145,1.029590,13.599277,0.140445,-2.375645,5.515774,1.044993,2.832898,0.693446,-0.072018,0.009330,0.137072,0.999880,0.005225,0.014164,0.003467,0.728096,-0.081880,0.166441,0.659901,6.156020,20.513924,85.489363
36992,-6.732711,5.399937,18.459934,-3.431051,0.725377,10.260972,-1.127005,1.441040,0.405875,-0.066107,0.054905,0.184771,0.999956,-0.005635,0.007205,0.002029,0.725034,-0.090417,0.168108,0.661732,5.628647,21.311075,85.832670
36993,1.997988,-2.483029,10.228887,3.754747,5.234558,-1.252061,-2.149498,0.106187,0.274260,0.020067,-0.023702,0.102537,0.999941,-0.010747,0.000531,0.001371,0.722991,-0.098333,0.161462,0.664488,4.458002,21.355540,86.012051
36994,7.293296,-1.922374,7.004352,3.085630,9.098728,-6.119384,-0.283387,0.389673,0.135064,0.073082,-0.019075,0.069928,0.999997,-0.001417,0.001948,0.000675,0.722055,-0.100562,0.161974,0.665048,4.330384,21.571692,86.118481
36995,1.733810,1.810506,9.501411,-0.740728,5.223922,-1.522773,-0.078840,0.405349,0.079293,0.017523,0.018149,0.094972,0.999998,-0.000394,0.002027,0.000396,0.721389,-0.102139,0.163183,0.665234,4.307935,21.797599,86.191699
36996,0.424106,1.545566,9.127713,-0.611359,3.866057,-1.412474,-0.237125,0.035352,0.139693,0.004246,0.015567,0.091258,0.999999,-0.001186,0.000177,0.000698,0.720742,-0.103011,0.162565,0.665952,4.202243,21.810412,86.284666
36997,-1.420057,-0.538057,10.034066,1.437838,2.293300,-0.031998,0.252582,-0.066678,0.251166,-0.014227,-0.005525,0.100329,0.999998,0.001263,-0.000333,0.001256,0.720056,-0.101684,0.163263,0.666727,4.400934,21.759263,86.441765
36998,-1.770416,1.580226,11.773297,-0.410829,2.760887,1.868400,1.509911,-0.392309,0.168915,-0.017948,0.014898,0.117813,0.999969,0.007549,-0.001962,0.000845,0.720527,-0.094811,0.166935,0.666322,5.294364,21.525212,86.530528
36999,0.247960,9.825147,12.977803,-8.103167,5.832712,3.045266,2.071746,-0.416991,-0.437921,0.002421,0.096895,0.130792,0.999942,0.010359,-0.002085,-0.002190,0.723242,-0.086326,0.172085,0.663216,6.371658,21.310636,86.241889
37000,-6.710899,16.014740,18.513361,-13.745632,2.123085,11.419280,0.530438,0.127796,-1.464148,-0.065818,0.160141,0.185601,0.999969,0.002652,0.000639,-0.007321,0.728162,-0.086094,0.173638,0.657433,6.350301,21.473806,85.360918
37001,-0.573499,0.552305,15.764276,1.262762,5.051748,5.086594,-4.334607,-1.318019,-0.960377,-0.006735,0.008968,0.157431,0.999732,-0.021671,-0.006590,-0.004801,0.730370,-0.098362,0.154100,0.658132,3.627283,20.767074,84.708519
37002,5.106757,-7.863831,1.065803,8.345567,4.215845,-11.090524,0.220213,-0.372564,-0.177360,0.050978,-0.078695,0.010666,0.999997,0.001101,-0.001863,-0.000887,0.731313,-0.096467,0.153348,0.657541,3.709058,20.557879,84.591776
37003,-10.039183,9.476232,12.888175,-8.860467,-3.773431,6.433196,2.113628,0.709314,0.234046,-0.100041,0.093274,0.130228,0.999937,0.010568,0.003546,0.001170,0.730941,-0.090895,0.162962,0.656435,4.980076,20.950691,84.773293
37004,-8.799239,6.953228,9.899610,-6.521853,-3.981540,3.047488,-1.696637,-0.725995,0.598738,-0.088559,0.070102,0.098082,0.999953,-0.008483,-0.003630,0.002994,0.728728,-0.094219,0.154976,0.660349,4.123901,20.506038,85.109846
37005,-2.697636,-0.810863,5.439570,1.119751,-0.748709,-3.836978,-1.143777,-0.298606,0.783121,-0.027026,-0.007903,0.054401,0.999975,-0.005719,-0.001493,0.003916,0.725784,-0.096801,0.150445,0.664254,3.628411,20.302789,85.580754
37006,-3.367144,0.140438,8.974999,0.428622,-0.081804,-0.235758,-0.255495,-0.015006,1.013116,-0.033685,0.001348,0.089746,0.999986,-0.001277,-0.000075,0.005066,0.722263,-0.096913,0.150005,0.668164,3.695155,20.254744,86.203979
37007,-1.956896,-1.800298,9.925537,2.514457,1.394857,0.052328,-0.581761,-0.092049,0.912755,-0.019533,-0.017803,0.099298,0.999985,-0.002909,-0.000460,0.004564,0.718957,-0.098030,0.148137,0.671972,3.550355,20.166868,86.762213
37008,-0.142537,-4.574199,8.458925,5.220275,2.403967,-2.101232,-0.334888,-0.009920,0.619304,-0.001288,-0.045604,0.084666,0.999994,-0.001674,-0.000050,0.003097,0.716680,-0.098740,0.147253,0.674490,3.487390,20.136917,87.145298
37009,-3.007472,-2.986853,9.725748,3.602602,0.293263,0.161854,0.132951,0.267547,0.268922,-0.029904,-0.029973,0.097278,0.999998,0.000665,0.001338,0.001345,0.715607,-0.098977,0.148760,0.675264,3.621278,20.278174,87.324915
37010,-5.658302,-2.184484,10.734678,2.775217,-1.769268,2.069632,-0.056576,0.077929,-0.024442,-0.056544,-0.021808,0.107375,1.000000,-0.000283,0.000390,-0.000122,0.715569,-0.099462,0.148805,0.675223,3.583220,20.320908,87.319059
37011,-4.060634,-1.189768,9.694922,1.775596,-0.561029,0.600204,0.199594,-0.047585,-0.147188,-0.040638,-0.011965,0.096928,0.999999,0.000998,-0.000238,-0.000736,0.716167,-0.098706,0.149202,0.674612,3.663413,20.296832,87.233099
37012,-4.046821,0.197962,9.392651,0.393538,-0.561496,0.393565,0.432233,-0.038950,-0.135079,-0.040485,0.001804,0.093923,0.999997,0.002161,-0.000195,-0.000675,0.716829,-0.097131,0.150422,0.673866,3.880143,20.277070,87.155103
37013,-4.070978,1.437239,9.311779,-0.812516,-0.528675,0.405334,0.431902,-0.083241,-0.079347,-0.040743,0.014187,0.093132,0.999998,0.002160,-0.000416,-0.000397,0.717334,-0.095371,0.151508,0.673336,4.107253,20.230428,87.108824
37014,-3.889690,1.976406,8.858013,-1.340330,-0.481195,-0.041707,0.491111,-0.071071,0.025470,-0.038931,0.019542,0.088614,0.999997,0.002456,-0.000355,0.000127,0.717500,-0.093355,0.152886,0.673130,4.391058,20.186183,87.126983
37015,-4.032841,3.127964,9.274266,-2.404941,-0.395386,0.488751,0.471884,-0.050522,0.213700,-0.040385,0.031018,0.092806,0.999997,0.002359,-0.000253,0.001068,0.717005,-0.091337,0.154360,0.673598,4.703002,20.145340,87.260140
37016,-4.459274,2.949641,9.849339,-2.139524,-0.631354,1.169961,0.315506,-0.101158,0.423553,-0.044705,0.029246,0.098517,0.999996,0.001578,-0.000506,0.002118,0.715764,-0.089541,0.155223,0.674959,4.968893,20.064586,87.518339
37017,-4.001845,2.659477,9.413261,-1.825808,-0.400170,0.589380,0.341197,-0.195190,0.567074,-0.040185,0.026320,0.094139,0.999994,0.001706,-0.000976,0.002835,0.714118,-0.087229,0.155896,0.676848,5.276059,19.921853,87.857623
37018,-2.340588,1.809266,8.724779,-0.954104,0.839483,-0.688084,0.161191,-0.174928,0.632081,-0.023539,0.017948,0.087242,0.999994,0.000806,-0.000875,0.003160,0.712147,-0.085570,0.156064,0.679094,5.493816,19.785555,88.236886
37019,-2.442735,0.483593,8.746879,0.394718,0.648149,-0.749978,0.243973,-0.055715,0.652236,-0.024467,0.004649,0.087468,0.999994,0.001220,-0.000279,0.003261,0.710043,-0.084011,0.156938,0.681287,5.763539,19.714754,88.634220
37020,-3.440055,-1.061555,9.871814,2.069937,-0.010512,0.489190,0.228066,-0.040311,0.634877,-0.034386,-0.010837,0.098699,0.999994,0.001140,-0.000202,0.003174,0.707969,-0.082566,0.157809,0.683417,6.021409,19.651759,89.021914
37021,-4.298038,-3.280878,10.355232,4.364496,-0.777219,0.995408,0.358442,-0.127075,0.493594,-0.042965,-0.033100,0.103466,0.999995,0.001792,-0.000635,0.002468,0.706495,-0.080482,0.158754,0.684971,6.321620,19.546541,89.317552
37022,-3.484534,-3.771686,9.674511,4.842181,-0.278345,0.007654,0.621186,-0.254036,0.172592,-0.034935,-0.038047,0.096583,0.999994,0.003106,-0.001270,0.000863,0.706317,-0.077283,0.160021,0.685227,6.704565,19.388017,89.409982
37023,-1.827836,-3.277688,8.499091,4.289250,0.889139,-1.619396,0.850853,-0.203962,-0.184587,-0.018395,-0.033121,0.084832,0.999990,0.004254,-0.001020,-0.000923,0.707402,-0.073734,0.162109,0.684007,7.147756,19.282266,89.289225
37024,-1.271405,-0.519259,8.304579,1.611358,1.472570,-1.683326,1.158321,-0.074547,-0.449426,-0.012757,-0.005645,0.083009,0.999981,0.005792,-0.000373,-0.002247,0.709380,-0.069751,0.165603,0.681535,7.717695,19.270404,89.018378
37025,-0.665586,1.631686,7.633255,-0.514767,1.957905,-2.244798,1.164326,0.084651,-0.543431,-0.006580,0.015890,0.076429,0.999979,0.005822,0.000423,-0.002717,0.711522,-0.066366,0.169644,0.678641,8.276557,19.359160,88.704196
37026,0.075432,2.963425,6.435700,-1.908065,2.388596,-3.420591,1.303944,0.336455,-0.485886,0.000934,0.029212,0.064547,0.999974,0.006520,0.001682,-0.002429,0.713268,-0.063285,0.175063,0.675720,8.933970,19.588282,88.448333
37027,0.717171,3.496872,6.278530,-2.349146,3.035131,-3.694623,1.422684,0.758572,-0.364796,0.007474,0.034508,0.063004,0.999966,0.007113,0.003793,-0.001824,0.714231,-0.061099,0.182419,0.672952,9.697618,20.048302,88.309222
37028,-3.718865,6.688548,8.551308,-5.076985,0.010570,0.478621,1.653033,1.163947,-0.306476,-0.036586,0.066231,0.086276,0.999948,0.008265,0.005820,-0.001532,0.714636,-0.059390,0.191997,0.670004,10.622022,20.732110,88.255967
37029,-5.079273,6.534016,8.688328,-4.853637,-1.104677,1.105210,0.116584,0.799365,-0.267461,-0.050357,0.065357,0.087123,0.999991,0.000583,0.003997,-0.001337,0.714762,-0.061915,0.195129,0.668735,10.661084,21.207711,88.190566
37030,1.663619,2.289142,5.060178,-1.204956,3.567809,-5.404551,-0.151212,1.099974,-0.268703,0.016945,0.022907,0.050492,0.999984,-0.000756,0.005500,-0.001344,0.714496,-0.066392,0.198435,0.667616,10.559084,21.851983,88.158508
37031,-2.844160,3.509936,8.618290,-1.845692,0.886986,-0.300135,0.004428,1.473236,-0.437518,-0.027729,0.035159,0.086390,0.999970,0.000022,0.007366,-0.002188,0.714445,-0.071733,0.203528,0.665582,10.521599,22.724884,88.064406
37032,-3.798204,1.083721,8.420342,0.432923,-0.180217,-0.523912,-0.647333,1.286478,-0.564679,-0.037408,0.011216,0.084409,0.999970,-0.003237,0.006432,-0.002823,0.714728,-0.078894,0.205727,0.663789,10.070001,23.504169,87.867665
37033,-2.529614,1.500245,8.661752,0.058061,1.257756,-0.752429,-0.477420,1.512534,-0.689671,-0.024588,0.015295,0.086769,0.999963,-0.002387,0.007563,-0.003448,0.715215,-0.086333,0.209235,0.661237,9.687397,24.422975,87.609829
37034,-10.538595,5.376609,12.785320,-3.365378,-3.759362,6.859751,-0.482276,1.229995,-0.690248,-0.104410,0.054437,0.128367,0.999972,-0.002411,0.006150,-0.003451,0.715949,-0.092838,0.211703,0.658771,9.283606,25.179503,87.314349
37035,-8.753816,5.400636,10.289763,-3.917896,-3.027274,3.867857,-1.540355,0.355802,-0.451185,-0.087232,0.054995,0.102632,0.999966,-0.007702,0.001779,-0.002256,0.716288,-0.100005,0.207654,0.658643,8.293069,25.417802,87.071812
37036,-5.141945,1.272752,8.828680,-0.119022,-0.790784,0.451941,-1.944141,0.353333,-0.285344,-0.051244,0.013659,0.088248,0.999950,-0.009721,0.001767,-0.001427,0.715819,-0.108417,0.202337,0.659476,7.114461,25.637199,86.928841
37037,-5.684748,-1.148002,9.934722,2.228790,-1.022863,1.426365,-1.655726,0.212306,-0.332662,-0.056760,-0.010562,0.099497,0.999964,-0.008279,0.001062,-0.001663,0.715745,-0.115383,0.197419,0.659865,6.079523,25.777465,86.739929
37038,-4.339627,-0.716076,10.050642,1.732785,0.318136,1.015762,-1.145984,0.132902,-0.384008,-0.043342,-0.006501,0.100574,0.999982,-0.005730,0.000665,-0.001920,0.716172,-0.120296,0.193862,0.659579,5.320261,25.872251,86.511622
37039,-6.608725,-0.149131,11.022745,1.026682,-1.220843,2.940827,-1.156223,0.062002,-0.251399,-0.066054,-0.000771,0.110254,0.999982,-0.005781,0.000310,-0.001257,0.716201,-0.124889,0.190085,0.659793,4.587820,25.917764,86.361314
37040,-6.166040,-1.864335,8.925381,2.403236,-1.885311,0.762152,-1.135746,-0.220186,-0.136397,-0.061771,-0.018094,0.089290,0.999983,-0.005679,-0.001101,-0.000682,0.716104,-0.128356,0.185435,0.660556,3.894258,25.795084,86.270822
37041,-4.107480,-1.575337,8.741064,2.138108,-0.091896,-0.263913,-0.574717,-0.108164,-0.043044,-0.041125,-0.015493,0.087433,0.999996,-0.002874,-0.000541,-0.000215,0.715941,-0.130103,0.183091,0.661044,3.549361,25.732637,86.244876
37042,-4.551077,-0.505166,9.299243,1.056708,-0.154959,0.497632,-0.337074,-0.049675,0.008806,-0.045534,-0.004897,0.092989,0.999999,-0.001685,-0.000248,0.000044,0.715703,-0.131139,0.181777,0.661460,3.356968,25.701455,86.254898
37043,-4.430211,-0.758671,9.085941,1.269497,-0.162622,0.243085,-0.293378,-0.055490,0.059212,-0.044325,-0.007467,0.090858,0.999999,-0.001467,-0.000277,0.000296,0.715331,-0.131959,0.180616,0.662017,3.202498,25.665608,86.296326
37044,-4.990042,-0.334411,9.245720,0.813044,-0.562284,0.652420,-0.115458,-0.024342,0.100087,-0.049910,-0.003316,0.092453,1.000000,-0.000577,-0.000122,0.000500,0.714911,-0.132203,0.180184,0.662539,3.162442,25.646067,86.365255
37045,-5.159772,-0.203105,8.947726,0.645434,-0.836022,0.464023,-0.051178,-0.077788,0.120876,-0.051631,-0.002039,0.089458,1.000000,-0.000256,-0.000389,0.000604,0.714513,-0.132027,0.179786,0.663111,3.163307,25.595591,86.445083
37046,-4.825936,-0.174913,8.893428,0.639694,-0.564947,0.271207,0.111971,-0.074559,0.129421,-0.048291,-0.001830,0.088915,1.000000,0.000560,-0.000373,0.000647,0.714190,-0.131266,0.179948,0.663566,3.260587,25.546429,86.530696
37047,-4.695834,0.450228,9.030855,0.057256,-0.346902,0.369955,0.254797,-0.097379,0.111101,-0.047005,0.004361,0.090291,0.999999,0.001274,-0.000487,0.000556,0.714043,-0.129941,0.180488,0.663839,3.433541,25.484843,86.603352
37048,-4.359791,1.052932,9.282685,-0.478066,0.101062,0.485170,0.211544,-0.109278,0.094678,-0.043654,0.010410,0.092814,0.999999,0.001058,-0.000546,0.000473,0.713930,-0.128741,0.180833,0.664100,3.577462,25.416702,86.665207
37049,-5.008637,0.643881,9.288434,-0.087577,-0.531594,0.745993,0.102483,-0.146564,0.080023,-0.050157,0.006371,0.092851,1.000000,0.000512,-0.000733,0.000400,0.713829,-0.127824,0.180671,0.664430,3.653538,25.327808,86.715823
37050,-4.541407,0.185636,8.865141,0.370930,-0.348932,0.136692,0.219504,-0.237125,0.052131,-0.045520,0.001747,0.088599,0.999999,0.001098,-0.001186,0.000261,0.713975,-0.126209,0.180559,0.664612,3.787980,25.187973,86.745145
37051,-3.663283,0.485937,8.938733,0.144594,0.476653,-0.153053,0.253103,-0.215173,0.031488,-0.036730,0.004741,0.089354,0.999999,0.001266,-0.001076,0.000157,0.714190,-0.124570,0.180621,0.664673,3.935681,25.061535,86.761666
37052,-3.864159,0.746131,9.324633,-0.067272,0.456017,0.297934,0.246831,-0.205862,0.003948,-0.038738,0.007345,0.093216,0.999999,0.001234,-0.001029,0.000020,0.714482,-0.123004,0.180680,0.664635,4.073014,24.941360,86.761141
37053,-3.931076,1.036209,8.866752,-0.381490,0.206638,-0.068044,0.267372,-0.241614,-0.016722,-0.039417,0.010247,0.088634,0.999998,0.001337,-0.001208,-0.000084,0.714886,-0.121269,0.180663,0.664524,4.215242,24.801735,86.745368
37054,-3.685390,2.122819,8.668324,-1.447294,0.420223,-0.275551,0.274941,-0.217015,-0.042705,-0.036943,0.021117,0.086672,0.999998,0.001375,-0.001085,-0.000214,0.715356,-0.119607,0.180746,0.664297,4.355936,24.677153,86.714340
37055,-3.710099,2.351159,8.544542,-1.678844,0.348522,-0.359541,0.011583,-0.198161,-0.048256,-0.037180,0.023516,0.085410,0.999999,0.000058,-0.000991,-0.000241,0.715669,-0.118958,0.180016,0.664275,4.344064,24.563777,86.680307
37056,-3.579503,1.721340,8.358619,-1.073043,0.318833,-0.626324,-0.128427,-0.161420,-0.050513,-0.035858,0.017276,0.083546,0.999999,-0.000642,-0.000807,-0.000253,0.715871,-0.118929,0.178954,0.664349,4.253024,24.471267,86.647115
37057,-3.217143,1.723312,8.453442,-1.064413,0.676075,-0.691810,-0.209623,-0.099017,-0.086956,-0.032206,0.017336,0.084500,0.999999,-0.001048,-0.000495,-0.000435,0.716091,-0.119436,0.177820,0.664326,4.106509,24.416069,86.593756
37058,-3.094377,1.637453,8.510158,-0.994244,0.799053,-0.699394,-0.332941,-0.027139,-0.124113,-0.030945,0.016535,0.085070,0.999998,-0.001665,-0.000136,-0.000621,0.716293,-0.120650,0.176515,0.664237,3.882062,24.403038,86.520890
37059,-3.582913,1.282146,8.931643,-0.669386,0.497925,-0.140087,-0.469417,0.028119,-0.155557,-0.035806,0.013059,0.089291,0.999997,-0.002347,0.000141,-0.000778,0.716466,-0.122569,0.174931,0.664118,3.571272,24.422702,86.430151
37060,-4.268062,0.304867,8.983828,0.217216,-0.184198,0.134026,-0.522956,0.002892,-0.175561,-0.042676,0.003321,0.089830,0.999996,-0.002615,0.000014,-0.000878,0.716689,-0.124606,0.173069,0.663986,3.225201,24.427833,86.326292
37061,-4.092041,-0.208099,8.771022,0.670912,-0.152157,-0.156317,-0.419745,-0.005967,-0.175576,-0.040925,-0.001861,0.087713,0.999997,-0.002099,-0.000030,-0.000878,0.716980,-0.126250,0.171514,0.663765,2.937068,24.427680,86.221572
37062,-3.866891,-0.021828,8.834843,0.465481,0.098085,-0.180378,-0.299177,0.013415,-0.178596,-0.038663,-0.000052,0.088351,0.999998,-0.001496,0.000067,-0.000893,0.717337,-0.127521,0.170429,0.663416,2.718454,24.437995,86.116039
37063,-4.099268,-0.317497,9.160759,0.738541,-0.000752,0.201243,-0.247744,0.033672,-0.167951,-0.040980,-0.003027,0.091618,0.999999,-0.001239,0.000168,-0.000840,0.717673,-0.128673,0.169590,0.663044,2.531287,24.459570,86.017243
37064,-4.492756,-0.963906,9.860915,1.383745,-0.123238,0.977199,-0.136994,0.029289,-0.132489,-0.044919,-0.009542,0.098622,1.000000,-0.000685,0.000146,-0.000662,0.717965,-0.129375,0.169127,0.662710,2.417599,24.477231,85.941006
37065,-6.668629,-1.876329,10.176130,2.164898,-2.056089,2.130115,0.076222,-0.119207,-0.077522,-0.066754,-0.018776,0.101714,1.000000,0.000381,-0.000596,-0.000388,0.718338,-0.128781,0.168871,0.662487,2.437870,24.408787,85.894920
37066,-4.558492,-1.482120,9.084887,1.843126,-0.577750,0.275952,0.319976,-0.322328,-0.072651,-0.045737,-0.014950,0.090751,0.999997,0.001600,-0.001612,-0.000363,0.719021,-0.126628,0.168698,0.662205,2.597463,24.223846,85.846526
37067,-3.380113,-0.387821,8.740021,0.836742,0.421024,-0.480702,0.521940,-0.237516,-0.118562,-0.033907,-0.004086,0.087350,0.999996,0.002610,-0.001188,-0.000593,0.719908,-0.124074,0.169466,0.661528,2.861222,24.089035,85.770871
37068,-3.533576,0.611452,8.962647,-0.108575,0.441710,-0.169971,0.551052,-0.171080,-0.125359,-0.035409,0.005890,0.089613,0.999996,0.002755,-0.000855,-0.000627,0.720772,-0.121635,0.170565,0.660757,3.141162,23.992596,85.692747
37069,-3.833677,1.174266,9.052358,-0.640613,0.241804,0.064163,0.484090,-0.150701,-0.123732,-0.038398,0.011547,0.090523,0.999997,0.002420,-0.000754,-0.000619,0.721569,-0.119506,0.171514,0.660030,3.382921,23.908262,85.615706
37070,-4.085775,1.020503,8.985394,-0.482514,-0.044313,0.098794,0.296924,-0.128961,-0.124279,-0.040909,0.010097,0.089843,0.999998,0.001485,-0.000645,-0.000621,0.722232,-0.118120,0.171925,0.659447,3.518140,23.836405,85.539154
37071,-4.196780,1.022481,8.917030,-0.481983,-0.186084,0.082003,0.240216,-0.150347,-0.155255,-0.042027,0.010150,0.089151,0.999999,0.001201,-0.000752,-0.000776,0.722982,-0.116898,0.172051,0.658810,3.612257,23.753770,85.442031
37072,-3.320715,1.310059,8.676345,-0.717886,0.535689,-0.473521,0.137809,-0.136221,-0.201321,-0.033253,0.013074,0.086750,0.999999,0.000689,-0.000681,-0.001007,0.723808,-0.116129,0.171865,0.658086,3.637028,23.680787,85.316944
37073,-3.189241,1.530715,8.510022,-0.941747,0.607183,-0.665050,0.074654,-0.064153,-0.221325,-0.031903,0.015311,0.085096,0.999999,0.000373,-0.000321,-0.001107,0.724602,-0.115846,0.171719,0.657301,3.621299,23.649934,85.181982
37074,-3.096149,2.137610,8.443984,-1.543963,0.732513,-0.727756,0.049323,0.001916,-0.144805,-0.030945,0.021378,0.084445,1.000000,0.000247,0.000010,-0.000724,0.725071,-0.115802,0.171775,0.656776,3.611981,23.653825,85.097760
37075,-3.536854,2.730037,8.892606,-2.125271,0.578587,-0.107569,-0.041912,0.093494,-0.043176,-0.035321,0.027327,0.088937,1.000000,-0.000210,0.000467,-0.000216,0.725076,-0.116306,0.171920,0.656644,3.576593,23.706645,85.080224
37076,-4.071075,0.352990,9.150884,0.194994,-0.059428,0.207056,-0.412414,0.080697,-0.027133,-0.040673,0.003724,0.091518,0.999998,-0.002062,0.000403,-0.000136,0.724820,-0.118091,0.170814,0.656896,3.333608,23.751256,85.072538
37077,-4.635853,-1.659516,9.141313,2.121806,-0.789497,0.320592,-0.113938,0.040783,-0.060670,-0.046345,-0.016529,0.091432,1.000000,-0.000570,0.000204,-0.000303,0.724884,-0.118699,0.170521,0.656792,3.251633,23.774415,85.041857
37078,-4.127757,-0.592700,9.096917,1.099438,-0.226131,0.131339,0.194385,0.000839,-0.086461,-0.041280,-0.005998,0.090964,0.999999,0.000972,0.000004,-0.000432,0.725249,-0.118074,0.171082,0.656356,3.339986,23.775321,84.993997
37079,-3.664494,0.735301,8.891402,-0.182618,0.260356,-0.172925,0.281537,0.016774,-0.064605,-0.036635,0.007240,0.088927,0.999999,0.001408,0.000084,-0.000323,0.725579,-0.117172,0.171998,0.655913,3.483260,23.784941,84.960011
37080,-3.502134,1.791690,9.028852,-1.184299,0.584210,-0.053007,0.209763,0.063731,-0.055632,-0.034988,0.017832,0.090318,0.999999,0.001049,0.000319,-0.000278,0.725796,-0.116671,0.172855,0.655537,3.589093,23.820905,84.933822
37081,-3.811987,1.261602,8.783781,-0.698986,0.151365,-0.181166,0.012198,0.071758,-0.052047,-0.038085,0.012621,0.087852,1.000000,0.000061,0.000359,-0.000260,0.725879,-0.116915,0.173094,0.655339,3.582064,23.861611,84.909858
37082,-3.761439,0.921895,8.939949,-0.342987,0.229888,-0.078700,0.010197,0.113887,-0.064280,-0.037561,0.009226,0.089421,1.000000,0.000051,0.000569,-0.000321,0.725963,-0.117309,0.173475,0.655074,3.572242,23.926552,84.880289
37083,-4.304804,0.685278,9.077164,-0.142052,-0.225969,0.253325,-0.032274,0.105887,-0.075382,-0.042997,0.006884,0.090793,1.000000,-0.000161,0.000529,-0.000377,0.726067,-0.117847,0.173678,0.654809,3.534280,23.987591,84.843002
37084,-4.356445,0.524887,9.052547,0.005676,-0.291508,0.243043,-0.021379,0.076598,-0.072461,-0.043528,0.005274,0.090542,1.000000,-0.000107,0.000383,-0.000362,0.726191,-0.118241,0.173815,0.654564,3.503627,24.031473,84.806785
37085,-4.285298,0.554288,9.199770,-0.008521,-0.157143,0.350088,-0.045264,0.061498,-0.057037,-0.042823,0.005576,0.092010,1.000000,-0.000226,0.000307,-0.000285,0.726265,-0.118665,0.173825,0.654402,3.462115,24.066446,84.779186
37086,-4.111913,0.502763,9.048607,0.035492,-0.060337,0.138844,-0.062545,0.037811,-0.053379,-0.041101,0.005067,0.090492,1.000000,-0.000313,0.000189,-0.000267,0.726336,-0.119065,0.173698,0.654285,3.412073,24.087469,84.753371
37087,-3.914228,0.528092,8.963036,0.011163,0.092820,-0.018438,-0.058361,0.045916,-0.056314,-0.039120,0.005318,0.089638,1.000000,-0.000292,0.000230,-0.000282,0.726413,-0.119484,0.173610,0.654146,3.362953,24.113463,84.725572
37088,-4.193378,0.423150,9.200826,0.106199,-0.072092,0.306709,-0.087933,0.053641,-0.051565,-0.041908,0.004283,0.092018,1.000000,-0.000440,0.000268,-0.000258,0.726449,-0.120027,0.173458,0.654048,3.299013,24.143440,84.701401
37089,-4.310496,0.273410,9.104642,0.226590,-0.230232,0.259317,-0.064439,0.014141,-0.055208,-0.043098,0.002775,0.091049,1.000000,-0.000322,0.000071,-0.000276,0.726546,-0.120363,0.173234,0.653937,3.246180,24.151170,84.673089
37090,-3.883616,0.512218,8.882245,-0.001067,0.097776,-0.105496,-0.017465,0.013484,-0.055228,-0.038829,0.005141,0.088825,1.000000,-0.000087,0.000067,-0.000276,0.726670,-0.120522,0.173165,0.653788,3.221027,24.158273,84.645133
37091,-3.684825,0.985565,8.932190,-0.452395,0.356444,-0.117246,-0.004022,0.039979,-0.077208,-0.036827,0.009872,0.089329,1.000000,-0.000020,0.000200,-0.000386,0.726853,-0.120743,0.173219,0.653529,3.197518,24.181461,84.603921
37092,-3.907511,1.164711,8.951728,-0.655022,0.188405,0.000266,-0.105597,0.051622,-0.086214,-0.039047,0.011711,0.089521,1.000000,-0.000528,0.000258,-0.000431,0.726992,-0.121372,0.172982,0.653321,3.114443,24.211303,84.557843
37093,-4.228354,0.475807,9.141862,0.002176,-0.099975,0.270416,-0.183509,0.054227,-0.075478,-0.042257,0.004858,0.091426,0.999999,-0.000918,0.000271,-0.000377,0.727048,-0.122290,0.172503,0.653215,2.988663,24.242487,84.518104
37094,-4.451807,-0.346019,9.205400,0.786249,-0.368154,0.381622,-0.140698,0.010990,-0.061891,-0.044514,-0.003382,0.092059,1.000000,-0.000703,0.000055,-0.000309,0.727120,-0.122894,0.172017,0.653149,2.891149,24.248207,84.485854
37095,-4.117754,-0.293257,8.909508,0.729057,-0.177290,-0.021963,0.037675,-0.003124,-0.059225,-0.041180,-0.002937,0.089094,1.000000,0.000188,-0.000016,-0.000296,0.727307,-0.122806,0.172062,0.652946,2.895486,24.246003,84.454395
37096,-3.923720,0.558164,8.966904,-0.089589,0.121374,-0.010150,0.100663,0.008919,-0.053598,-0.039232,0.005547,0.089674,1.000000,0.000503,0.000045,-0.000268,0.727502,-0.122519,0.172362,0.652703,2.938261,24.250310,84.427229
37097,-4.006284,0.597843,9.034767,-0.125545,0.079505,0.087447,0.047163,0.021281,-0.044643,-0.040052,0.005966,0.090353,1.000000,0.000236,0.000106,-0.000223,0.727626,-0.122464,0.172535,0.652529,2.952112,24.261667,84.405706
37098,-3.986728,0.456740,8.976620,0.013728,0.058979,0.019842,0.052688,0.026283,-0.038847,-0.039855,0.004551,0.089773,1.000000,0.000263,0.000131,-0.000194,0.727729,-0.122395,0.172750,0.652371,2.971437,24.275484,84.388365
37099,-3.944018,0.541006,9.083460,-0.052044,0.153436,0.103509,0.073839,0.036980,-0.039991,-0.039422,0.005384,0.090844,1.000000,0.000369,0.000185,-0.000200,0.727840,-0.122290,0.173071,0.652182,3.001975,24.295700,84.370281
37100,-4.444204,0.631964,9.231433,-0.170581,-0.226761,0.448364,0.016458,0.028838,-0.035505,-0.044428,0.006320,0.092321,1.000000,0.000082,0.000144,-0.000178,0.727907,-0.122358,0.173179,0.652065,3.001431,24.310882,84.355126
37101,-4.234557,0.520493,9.015088,-0.062705,-0.136699,0.159854,-0.014306,-0.014972,-0.026084,-0.042352,0.005217,0.090147,1.000000,-0.000072,-0.000075,-0.000130,0.727964,-0.122393,0.173031,0.652035,2.984352,24.300957,84.344067
37102,-4.041155,0.748959,8.978075,-0.277890,0.050188,0.057366,-0.012778,-0.003658,-0.025095,-0.040412,0.007500,0.089780,1.000000,-0.000064,-0.000018,-0.000125,0.728007,-0.122452,0.172933,0.652001,2.969312,24.297253,84.334387
37103,-4.105280,0.586045,8.913728,-0.133016,-0.053592,0.017407,-0.066981,-0.003825,-0.027422,-0.041054,0.005896,0.089135,1.000000,-0.000335,-0.000019,-0.000137,0.728026,-0.122716,0.172653,0.652004,2.921861,24.293737,84.322859
37104,-4.016063,0.519023,8.954221,-0.062039,0.035651,0.014372,-0.066893,-0.004884,-0.023040,-0.040162,0.005225,0.089539,1.000000,-0.000334,-0.000024,-0.000115,0.728031,-0.122967,0.172375,0.652025,2.876353,24.289265,84.314437
37105,-3.953009,0.523126,8.919568,-0.070932,0.080057,-0.042980,-0.067215,0.009482,-0.032662,-0.039525,0.005268,0.089196,1.000000,-0.000336,0.000047,-0.000163,0.728055,-0.123279,0.172140,0.652001,2.827589,24.293497,84.300041
37106,-3.874568,0.628557,8.895995,-0.177969,0.156151,-0.092089,-0.066206,0.018364,-0.043279,-0.038736,0.006323,0.088961,1.000000,-0.000331,0.000092,-0.000216,0.728106,-0.123621,0.171936,0.651934,2.777548,24.302876,84.279622
37107,-3.858878,0.698546,8.851924,-0.258058,0.164435,-0.135817,-0.077014,0.039658,-0.052238,-0.038569,0.007030,0.088524,1.000000,-0.000385,0.000198,-0.000261,0.728162,-0.124084,0.171766,0.651828,2.718472,24.324892,84.253831
37108,-3.630751,0.876894,8.823164,-0.426407,0.386678,-0.248789,-0.103729,0.061798,-0.061937,-0.036278,0.008826,0.088238,1.000000,-0.000519,0.000309,-0.000310,0.728212,-0.124719,0.171587,0.651698,2.642620,24.359580,84.222974
37109,-3.582706,0.944860,8.951288,-0.490928,0.500309,-0.150247,-0.139635,0.119852,-0.082384,-0.035770,0.009526,0.089528,0.999999,-0.000698,0.000599,-0.000412,0.728258,-0.125698,0.171486,0.651485,2.540716,24.428213,84.180436
37110,-3.967441,0.786399,9.045344,-0.378508,0.185837,0.086777,-0.200272,0.144487,-0.097250,-0.039605,0.007974,0.090474,0.999999,-0.001001,0.000722,-0.000486,0.728290,-0.126983,0.171271,0.651256,2.401203,24.510954,84.129481
37111,-4.201858,0.605691,8.892230,-0.254752,-0.094005,0.037208,-0.200027,0.142003,-0.114882,-0.041952,0.006170,0.088946,0.999999,-0.001000,0.000710,-0.000574,0.728383,-0.128281,0.171033,0.650961,2.256161,24.592846,84.066657
37112,-4.135674,0.747259,8.779321,-0.420131,-0.047397,-0.088499,-0.218499,0.136834,-0.123577,-0.041292,0.007594,0.087813,0.999999,-0.001092,0.000684,-0.000618,0.728493,-0.129630,0.170713,0.650654,2.098900,24.671540,83.998396
37113,-3.896807,0.935471,8.849503,-0.604425,0.236507,-0.119775,-0.285044,0.147425,-0.131401,-0.038897,0.009506,0.088510,0.999998,-0.001425,0.000737,-0.000657,0.728576,-0.131269,0.170207,0.650365,1.900431,24.756538,83.924680
37114,-3.830735,0.783966,9.060030,-0.465304,0.383297,0.036663,-0.396408,0.157267,-0.126763,-0.038231,0.008043,0.090615,0.999998,-0.001982,0.000786,-0.000634,0.728558,-0.133334,0.169380,0.650181,1.640129,24.846552,83.854129
37115,-4.349394,0.099068,9.247067,0.135685,-0.067903,0.405535,-0.450520,0.165427,-0.125928,-0.043417,0.001226,0.092504,0.999997,-0.002253,0.000827,-0.000630,0.728492,-0.135628,0.168404,0.650034,1.347828,24.941185,83.783234
37116,-4.613064,-0.656089,9.135870,0.809494,-0.422797,0.402044,-0.384537,0.097630,-0.128282,-0.046090,-0.006356,0.091394,0.999998,-0.001923,0.000488,-0.000641,0.728530,-0.137456,0.167395,0.649868,1.092983,24.996411,83.709930
37117,-4.362680,-0.661047,8.938913,0.793393,-0.267037,0.120755,-0.247660,0.084692,-0.116676,-0.043593,-0.006474,0.089416,0.999999,-0.001238,0.000423,-0.000583,0.728634,-0.138740,0.166789,0.649635,0.918458,25.044149,83.643028
37118,-4.494473,-0.359263,8.928041,0.457309,-0.345010,0.172856,-0.172041,0.063912,-0.094018,-0.044918,-0.003495,0.089298,0.999999,-0.000860,0.000320,-0.000470,0.728732,-0.139656,0.166370,0.649436,0.793972,25.079367,83.590602
37119,-4.411031,-0.189048,8.952685,0.280272,-0.232279,0.162831,-0.160997,0.044842,-0.065576,-0.044091,-0.001804,0.089538,1.000000,-0.000805,0.000224,-0.000328,0.728762,-0.140452,0.165935,0.649342,0.682476,25.103613,83.555418
37120,-4.307287,-0.307219,8.900403,0.389654,-0.169591,0.070818,-0.136349,0.028199,-0.048953,-0.043061,-0.003001,0.089012,1.000000,-0.000682,0.000141,-0.000245,0.728767,-0.141084,0.165534,0.649301,0.590303,25.117940,83.530913
37121,-4.115321,-0.161856,8.956448,0.256515,0.047135,0.041854,-0.083142,0.018798,-0.040436,-0.041145,-0.001573,0.089569,1.000000,-0.000416,0.000094,-0.000202,0.728791,-0.141490,0.165274,0.649252,0.530045,25.127025,83.511383
37122,-4.201248,-0.011953,8.964456,0.091231,-0.007038,0.086995,-0.064786,0.013857,-0.031228,-0.042006,-0.000084,0.089647,1.000000,-0.000324,0.000069,-0.000156,0.728801,-0.141801,0.165065,0.649227,0.483509,25.132982,83.498052
37123,-4.005584,0.173723,8.826682,-0.087289,0.133453,-0.119403,-0.044936,-0.006538,-0.031154,-0.040058,0.001763,0.088265,1.000000,-0.000225,-0.000033,-0.000156,0.728842,-0.141978,0.164843,0.649198,0.447570,25.127479,83.484248
37124,-3.687755,0.373566,8.927059,-0.250639,0.486295,-0.162186,-0.000596,0.033466,-0.025581,-0.036862,0.003741,0.089277,1.000000,-0.000003,0.000167,-0.000128,0.728863,-0.142114,0.164918,0.649126,0.439350,25.144658,83.474592
37125,-4.416638,0.281755,9.056861,-0.228363,-0.121916,0.264306,0.001817,0.037067,-0.037080,-0.044149,0.002825,0.090577,1.000000,0.000009,0.000185,-0.000185,0.728921,-0.142268,0.165003,0.649006,0.428688,25.164157,83.457248
37126,-4.554128,-0.015680,8.947163,0.042525,-0.324570,0.221499,-0.061716,0.000733,-0.033054,-0.045541,-0.000122,0.089472,1.000000,-0.000309,0.000004,-0.000165,0.728949,-0.142526,0.164754,0.648981,0.383399,25.162566,83.442712
37127,-4.512271,-0.240852,8.991281,0.265695,-0.294987,0.242367,-0.062416,-0.017211,-0.024847,-0.045131,-0.002375,0.089910,1.000000,-0.000312,-0.000086,-0.000124,0.728966,-0.142727,0.164442,0.648997,0.339122,25.150901,83.432867
37128,-4.423197,-0.179312,8.971495,0.206958,-0.217678,0.187029,-0.032217,-0.022063,-0.026493,-0.044242,-0.001773,0.089710,1.000000,-0.000161,-0.000110,-0.000132,0.729013,-0.142799,0.164211,0.648986,0.312463,25.136264,83.422275
37129,-3.702620,0.118767,8.643743,-0.033770,0.323898,-0.414190,0.026497,-0.042013,-0.008888,-0.037044,0.001178,0.086430,1.000000,0.000132,-0.000210,-0.000044,0.729062,-0.142582,0.164108,0.649005,0.323391,25.110332,83.422454
37130,-3.538727,0.713760,9.301914,-0.571228,0.817709,0.115187,0.005543,0.042984,-0.014806,-0.035367,0.007138,0.093027,1.000000,0.000028,0.000215,-0.000074,0.729044,-0.142718,0.164244,0.648961,0.321566,25.132912,83.419600
37131,-3.930777,0.773171,9.497906,-0.667876,0.559462,0.458629,-0.143833,0.042873,-0.046135,-0.039286,0.007809,0.094982,1.000000,-0.000719,0.000214,-0.000231,0.729023,-0.143428,0.163871,0.648923,0.225003,25.155717,83.396483
37132,-4.455577,0.006189,9.056355,-0.004911,-0.182173,0.278719,-0.266361,0.036350,-0.061577,-0.044539,0.000196,0.090571,0.999999,-0.001332,0.000182,-0.000308,0.728966,-0.144571,0.163068,0.648935,0.054826,25.174508,83.364000
37133,-4.642322,-0.412217,8.808712,0.354781,-0.497540,0.134223,-0.209353,0.025213,-0.065685,-0.046413,-0.004015,0.088097,0.999999,-0.001047,0.000126,-0.000328,0.728974,-0.145479,0.162403,0.648890,-0.084612,25.187086,83.328375
37134,-4.549175,-0.099130,8.965152,0.042069,-0.307796,0.236305,-0.155446,0.009351,-0.066179,-0.045488,-0.000907,0.089654,1.000000,-0.000777,0.000047,-0.000331,0.729034,-0.146133,0.161858,0.648812,-0.192504,25.190252,83.292698
37135,-4.437372,-0.176919,9.046942,0.115337,-0.179561,0.263183,-0.215211,-0.006793,-0.057075,-0.044377,-0.001659,0.090470,0.999999,-0.001076,-0.000034,-0.000285,0.729033,-0.146951,0.161064,0.648826,-0.332969,25.184376,83.262555
37136,-4.198472,-0.401448,9.041157,0.342346,0.008951,0.157946,-0.200697,0.003482,-0.048212,-0.041984,-0.003914,0.090416,0.999999,-0.001003,0.000017,-0.000241,0.729005,-0.147736,0.160363,0.648853,-0.461980,25.184163,83.238340
37137,-3.993002,-0.335318,9.149597,0.286971,0.251287,0.168601,-0.112709,0.046972,-0.049128,-0.039909,-0.003292,0.091507,1.000000,-0.000564,0.000235,-0.000246,0.729009,-0.148348,0.160103,0.648772,-0.541694,25.209016,83.212956
37138,-4.230206,-0.884374,9.118534,0.797523,-0.029586,0.246512,-0.036674,0.103819,-0.052231,-0.042257,-0.008816,0.091209,1.000000,-0.000183,0.000519,-0.000261,0.729033,-0.148865,0.160296,0.648580,-0.578216,25.266134,83.185819
37139,-4.453091,-0.947036,8.785234,0.830105,-0.367090,0.040401,0.237431,0.164022,-0.042273,-0.044461,-0.009565,0.087878,0.999999,0.001187,0.000820,-0.000211,0.729181,-0.148575,0.161603,0.648156,-0.455803,25.358079,83.164079
37140,-4.373580,-0.299374,9.393513,0.242485,0.051733,0.550438,0.222222,0.167829,-0.025141,-0.043657,-0.003093,0.093968,0.999999,0.001111,0.000839,-0.000126,0.729257,-0.148334,0.162889,0.647803,-0.336770,25.452148,83.153599
37141,-4.450075,-1.721758,9.908031,1.685463,0.057818,1.054350,0.053796,0.261863,0.019164,-0.044369,-0.017248,0.099134,0.999999,0.000269,0.001309,0.000096,0.728988,-0.148979,0.164002,0.647677,-0.302851,25.600414,83.170833
37142,-5.579664,-2.386821,9.526102,2.233056,-1.170640,1.197265,0.395742,0.276275,0.037709,-0.055660,-0.024067,0.095290,0.999997,0.001979,0.001381,0.000189,0.728898,-0.148405,0.166290,0.647326,-0.067182,25.756704,83.200473
37143,-5.034953,-1.303553,8.547024,1.220684,-0.973082,0.069836,0.779529,0.006958,0.018688,-0.050345,-0.013373,0.085420,0.999992,0.003898,0.000035,0.000093,0.729371,-0.145579,0.168822,0.646779,0.382899,25.758787,83.218362
37144,-4.897472,-0.310117,9.421316,0.383959,-0.365226,0.796785,1.048064,0.018317,0.079026,-0.048965,-0.003614,0.094200,0.999986,0.005240,0.000092,0.000395,0.729819,-0.141755,0.172304,0.646205,1.003801,25.766642,83.274932
37145,-6.199574,-0.859410,9.920545,0.937334,-1.418660,1.793250,1.204208,-0.327557,0.146761,-0.062151,-0.009236,0.099049,0.999980,0.006021,-0.001638,0.000734,0.730434,-0.136182,0.175071,0.645965,1.730257,25.575027,83.369173
37146,-4.220692,-0.470151,9.690002,0.873139,0.240496,0.728137,1.514948,-0.491413,0.194973,-0.042440,-0.005476,0.096756,0.999968,0.007575,-0.002457,0.000975,0.731209,-0.128895,0.178267,0.645709,2.644567,25.287331,83.486871
37147,-6.340241,-0.729312,12.500920,1.360239,-0.605414,4.143743,1.647569,-0.438362,0.409237,-0.063660,-0.008452,0.124803,0.999962,0.008238,-0.002192,0.002046,0.731280,-0.121095,0.182210,0.646038,3.690132,25.021445,83.736024
37148,-12.749349,-1.805552,12.756062,2.099555,-6.582301,6.943583,2.262346,-1.039317,0.701435,-0.128086,-0.019940,0.126678,0.999916,0.011311,-0.005196,0.003507,0.731238,-0.108826,0.186097,0.647159,5.147775,24.394572,84.132297
37149,-9.681438,1.834518,10.689729,-1.151964,-4.398164,3.995943,2.681453,-2.013816,0.748384,-0.097950,0.016554,0.106145,0.999852,0.013407,-0.010069,0.003742,0.732010,-0.091802,0.187760,0.648444,6.817180,23.199954,84.472589
37150,-3.839405,3.093901,10.179689,-1.721402,0.646951,1.347513,1.561912,-2.142908,0.582410,-0.039572,0.030031,0.101614,0.999908,0.007809,-0.010714,0.002912,0.732752,-0.078598,0.185204,0.650074,7.782461,21.938186,84.667377
37151,-6.139906,0.032453,9.676621,1.129576,-2.354185,1.345770,1.193088,-2.199013,0.573222,-0.062458,-0.000428,0.096082,0.999918,0.005965,-0.010995,0.002866,0.733303,-0.066551,0.181203,0.651922,8.520804,20.641806,84.830015
37152,-6.596159,1.262135,9.141178,-0.085282,-3.049701,1.111940,1.798196,-2.251186,0.372908,-0.067008,0.011679,0.090769,0.999894,0.008991,-0.011256,0.001864,0.734619,-0.052288,0.178885,0.652381,9.551607,19.332441,84.844108
37153,-3.085525,3.914667,8.841673,-2.318708,0.285343,0.064401,1.277677,-2.415785,0.311792,-0.031983,0.038533,0.088282,0.999905,0.006388,-0.012079,0.001559,0.735998,-0.039440,0.174210,0.652995,10.260102,17.935451,84.783814
37154,-1.089820,0.393426,7.194411,1.028000,0.995553,-2.667655,1.080036,-2.158017,0.455503,-0.011682,0.003520,0.071841,0.999925,0.005400,-0.010790,0.002277,0.736519,-0.028034,0.169843,0.654146,10.885453,16.670115,84.819837
37155,-5.556390,2.241198,9.770779,-0.465188,-2.534147,1.354973,2.232750,-1.993724,0.737578,-0.056615,0.021116,0.097387,0.999881,0.011163,-0.009968,0.003688,0.735996,-0.012670,0.169851,0.655209,12.215232,15.463432,85.017797
37156,-5.784863,5.223850,9.022612,-3.347275,-2.784107,1.286665,1.908629,-2.364287,0.835317,-0.059129,0.051134,0.090024,0.999876,0.009543,-0.011821,0.004176,0.735270,0.002795,0.167405,0.656769,13.349785,14.034387,85.195220
37157,-0.371352,2.204310,7.761425,-0.195291,1.520677,-1.882838,0.748465,-2.286517,0.794870,-0.004688,0.021735,0.077646,0.999920,0.003742,-0.011432,0.003974,0.734476,0.013711,0.161395,0.659021,13.807503,12.650930,85.339027
37158,-2.845001,-1.679098,9.425142,3.862058,-1.274368,-0.691190,1.509303,-2.013378,0.997686,-0.029309,-0.017645,0.093828,0.999908,0.007546,-0.010067,0.004988,0.732617,0.026678,0.158861,0.661305,14.726634,11.389906,85.619364
37159,-5.592875,3.897044,10.020174,-1.350223,-3.419695,1.734636,2.392561,-2.265858,0.937832,-0.057241,0.037507,0.100013,0.999853,0.011962,-0.011329,0.004689,0.730861,0.043665,0.158286,0.662481,16.126692,9.992308,85.799838
37160,0.559166,2.726192,8.271177,-0.163971,1.974091,-1.313902,0.300589,-2.394180,0.576383,0.004522,0.027152,0.082811,0.999923,0.001503,-0.011971,0.002882,0.730701,0.053131,0.150364,0.663810,16.284665,8.580804,85.737566
37161,3.548520,-3.350013,5.045399,4.936503,3.694450,-6.458320,0.755572,-1.968981,0.393107,0.035053,-0.033622,0.050674,0.999942,0.003778,-0.009845,0.001965,0.730607,0.062709,0.145525,0.664157,16.699244,7.431821,85.636946
37162,1.038670,3.462020,7.598939,-0.886152,2.115717,-1.716834,2.104113,-1.473455,0.279132,0.009777,0.033832,0.076422,0.999917,0.010520,-0.007367,0.001396,0.730007,0.075470,0.146994,0.663164,17.888808,6.575723,85.542258
37163,2.475490,4.631150,7.131233,-1.916746,3.504824,-1.908848,0.722824,-1.495945,0.167109,0.024181,0.046073,0.071661,0.999965,0.003614,-0.007480,0.000836,0.730228,0.083179,0.143822,0.662694,18.280256,5.727788,85.370779
37164,3.367201,2.221693,5.632726,0.004708,3.936634,-4.111485,0.894772,-1.050560,0.180555,0.033355,0.021994,0.056602,0.999976,0.004474,-0.005253,0.000903,0.729972,0.090041,0.142835,0.662293,18.780162,5.121283,85.281503
37165,1.546432,5.118567,7.709403,-2.116980,2.488775,-1.017852,1.103268,-0.740782,0.230519,0.015119,0.050777,0.077431,0.999977,0.005516,-0.003704,0.001153,0.729199,0.096673,0.143637,0.662036,19.407144,4.673472,85.271933
37166,0.826608,3.531817,8.392233,-0.387540,1.569262,-0.814176,0.600353,-0.654198,0.310138,0.007937,0.035078,0.084054,0.999989,0.003002,-0.003271,0.001551,0.728319,0.101239,0.143048,0.662450,19.750537,4.257433,85.318284
37167,1.132589,2.819591,7.107837,-0.084060,1.684203,-2.268812,0.838393,-0.530246,0.474736,0.011071,0.027924,0.071225,0.999985,0.004192,-0.002651,0.002374,0.726665,0.106376,0.143610,0.663338,20.237675,3.875340,85.474845
37168,1.970994,3.704984,6.972606,-0.834495,2.552376,-2.130402,0.913094,-0.188359,0.581573,0.019537,0.036788,0.069913,0.999985,0.004565,-0.000942,0.002908,0.724350,0.110726,0.145602,0.664723,20.775018,3.653940,85.754140
37169,2.036965,3.515106,7.621296,-0.348456,2.590297,-1.581187,1.237571,0.111672,0.781368,0.020276,0.034758,0.076418,0.999973,0.006188,0.000558,0.003907,0.720942,0.115393,0.149641,0.666734,21.507774,3.548467,86.200017
37170,1.546770,4.100057,7.638353,-0.816470,2.130357,-1.307325,1.552176,0.407260,1.040712,0.015412,0.040487,0.076668,0.999954,0.007761,0.002036,0.005203,0.716214,0.120397,0.155634,0.669567,22.432947,3.537801,86.845928
37171,1.982619,4.194864,6.975504,-1.028092,2.535408,-1.894404,1.576348,0.706568,1.231460,0.019817,0.041520,0.070013,0.999944,0.007882,0.003533,0.006157,0.710528,0.124619,0.162649,0.673176,23.382671,3.632249,87.659269
37172,0.735473,6.298978,8.069304,-2.446961,1.466069,0.045952,1.624467,1.105122,1.359563,0.007377,0.062382,0.081161,0.999929,0.008122,0.005525,0.006798,0.703964,0.127764,0.171140,0.677364,24.373429,3.891551,88.634331
37173,-3.812294,7.742800,11.803210,-2.152487,-2.798106,4.376551,0.957849,0.954504,1.281190,-0.038050,0.076617,0.118582,0.999957,0.004789,0.004772,0.006406,0.698142,0.128986,0.176875,0.681672,24.980578,4.078082,89.535994
37174,-4.279958,3.982376,10.647821,0.891867,-3.470073,1.794046,0.122747,0.435090,1.137571,-0.042793,0.039515,0.106596,0.999981,0.000614,0.002175,0.005688,0.693761,0.128934,0.178033,0.685840,25.096743,4.023699,90.238049
37175,-2.754227,4.072288,9.816161,0.516450,-2.005169,0.968710,0.396816,0.235980,0.801323,-0.027589,0.040417,0.098275,0.999989,0.001984,0.001180,0.004007,0.690515,0.130206,0.179651,0.688448,25.353007,3.946363,90.716261
37176,-0.925736,3.699136,9.431572,0.696236,-0.228685,0.334139,-0.076146,-0.057770,0.359798,-0.009351,0.037011,0.094299,0.999998,-0.000381,-0.000289,0.001799,0.689351,0.130462,0.178913,0.689757,25.317516,3.824114,90.892963
37177,0.049682,3.973220,8.772927,0.153152,0.688003,-0.207670,0.079706,-0.142384,0.001234,0.000434,0.039697,0.087745,1.000000,0.000399,-0.000712,0.000006,0.689397,0.131223,0.178653,0.689634,25.356857,3.746088,90.862708
37178,-0.129576,5.021747,8.619864,-0.859396,0.502626,0.114325,-0.104761,-0.202665,-0.165651,-0.001341,0.050264,0.086171,0.999999,-0.000524,-0.001013,-0.000828,0.690192,0.131409,0.177660,0.689060,25.284427,3.677575,90.731123
37179,-0.543625,5.204769,8.553127,-1.061938,0.079333,0.157624,-0.144856,-0.178464,-0.169995,-0.005468,0.052114,0.085489,0.999999,-0.000724,-0.000892,-0.000850,0.691006,0.131367,0.176614,0.688521,25.188960,3.622626,90.603254
37180,-0.192814,5.178010,8.272335,-1.183864,0.403026,-0.131962,-0.302245,-0.146199,-0.071493,-0.001970,0.051906,0.082644,0.999999,-0.001511,-0.000731,-0.000357,0.691553,0.130760,0.175073,0.688481,25.007703,3.559989,90.534667
37181,-0.773915,4.684175,9.679569,-0.167235,-0.110700,0.966654,-0.281623,-0.075837,0.028480,-0.007783,0.046977,0.096727,0.999999,-0.001408,-0.000379,0.000142,0.691680,0.130065,0.173780,0.688813,24.842052,3.509747,90.535266
37182,-3.523419,3.972922,11.248813,1.144300,-2.798230,2.253577,-0.068724,-0.257592,0.214706,-0.035422,0.039730,0.112429,0.999999,-0.000344,-0.001288,0.001074,0.691182,0.130899,0.172471,0.689483,24.802173,3.319999,90.589253
37183,-2.552969,3.430391,10.099043,1.143922,-1.950924,0.918620,-0.000496,-0.441115,0.322859,-0.025808,0.034263,0.100934,0.999996,-0.000002,-0.002206,0.001614,0.690422,0.132689,0.170690,0.690345,24.801209,3.009021,90.655378
37184,0.192438,2.742503,8.631691,1.127629,0.654174,-0.848047,0.085513,-0.434564,0.286388,0.001698,0.027391,0.086332,0.999997,0.000428,-0.002173,0.001432,0.689720,0.134724,0.169254,0.691006,24.848787,2.710257,90.703927
37185,0.271891,4.185639,8.905659,-0.048405,0.716020,0.005103,0.329622,-0.352576,0.223188,0.002515,0.041712,0.089130,0.999996,0.001648,-0.001763,0.001116,0.688998,0.137261,0.168982,0.691293,25.034894,2.469198,90.738837
37186,0.200900,4.819747,8.812771,-0.636893,0.604706,0.195499,0.170793,-0.333679,0.210432,0.001811,0.048124,0.088172,0.999998,0.000854,-0.001668,0.001052,0.688408,0.139176,0.168237,0.691679,25.130175,2.240945,90.771119
37187,-1.673981,5.336515,9.999114,-0.549662,-1.263537,1.561137,0.308729,-0.362190,0.289511,-0.016998,0.053186,0.100043,0.999996,0.001544,-0.001811,0.001448,0.687470,0.141727,0.167812,0.692198,25.305156,1.978547,90.836909
37188,-2.656786,6.067209,9.698287,-1.293237,-2.320583,1.627076,0.195223,-0.552506,0.378516,-0.026950,0.060527,0.096968,0.999994,0.000976,-0.002763,0.001893,0.686456,0.144623,0.166278,0.692975,25.415179,1.595630,90.901395
37189,-0.474340,4.172393,8.242953,-0.237228,-0.253219,-0.568264,-0.226031,-0.600691,0.368054,-0.005068,0.041808,0.082367,0.999993,-0.001130,-0.003003,0.001840,0.685814,0.146227,0.163122,0.694023,25.282493,1.190323,90.948718
37190,0.239669,4.251349,9.172120,0.067709,0.422191,0.290584,0.030985,-0.476361,0.320336,0.002110,0.042503,0.091733,0.999996,0.000155,-0.002382,0.001602,0.685041,0.148242,0.161321,0.694780,25.297440,0.861307,91.002091
37191,-1.333667,4.548813,10.783362,0.520714,-1.190349,1.894686,0.069189,-0.615983,0.363084,-0.013751,0.045426,0.107807,0.999994,0.000346,-0.003080,0.001815,0.684196,0.150904,0.159137,0.695542,25.333224,0.449324,91.043319
37192,-2.001933,5.023263,9.978749,-0.208502,-1.970697,1.362645,0.440375,-0.782827,0.527111,-0.020542,0.049959,0.099818,0.999986,0.002202,-0.003914,0.002636,0.682620,0.155545,0.157551,0.696429,25.582008,-0.089274,91.127193
37193,-0.085457,6.486397,8.129961,-2.321263,-0.200400,0.323754,0.297421,-0.785443,0.663600,-0.001389,0.064739,0.081391,0.999986,0.001487,-0.003927,0.003318,0.680662,0.159809,0.155342,0.697875,25.747092,-0.663588,91.279054
37194,2.168285,5.753491,6.697032,-2.323858,1.977020,-1.248527,-0.045822,-0.598178,0.723850,0.021274,0.057628,0.067021,0.999989,-0.000229,-0.002991,0.003619,0.678606,0.162296,0.152527,0.699921,25.713540,-1.156103,91.507808
37195,2.925237,5.873111,6.796415,-2.425513,2.653430,-1.076701,-0.123823,-0.374920,0.695305,0.028920,0.058874,0.067982,0.999992,-0.000619,-0.001875,0.003477,0.676529,0.163709,0.150211,0.702100,25.631941,-1.526316,91.777931
37196,3.845333,5.121585,6.977434,-1.734726,3.542790,-1.202183,-0.402451,-0.228892,0.559759,0.038230,0.051463,0.069715,0.999993,-0.002012,-0.001144,0.002799,0.675036,0.163569,0.147525,0.704136,25.391077,-1.786769,92.014976
37197,3.813412,4.677191,8.125402,-0.888582,3.478300,-0.349497,-0.422735,-0.120281,0.331541,0.038007,0.047007,0.081178,0.999996,-0.002114,-0.000601,0.001658,0.674276,0.162802,0.145314,0.705501,25.139780,-1.934155,92.161514
37198,3.367260,4.792985,9.890615,-0.273764,2.974048,1.287549,-0.468738,-0.231965,0.021895,0.033553,0.048165,0.098832,0.999997,-0.002344,-0.001160,0.000109,0.674719,0.162057,0.142819,0.705758,24.869332,-2.064218,92.120815
37199,2.771924,4.722441,11.334728,0.373630,2.322361,2.553710,-0.478768,-0.490330,-0.284337,0.027509,0.047456,0.113301,0.999993,-0.002394,-0.002452,-0.001422,0.676431,0.161960,0.139660,0.704773,24.600545,-2.255162,91.859237
37200,1.393778,4.219816,10.941198,0.666412,0.922224,1.941638,-0.470786,-0.778273,-0.512991,0.013621,0.042420,0.109366,0.999986,-0.002354,-0.003891,-0.002565,0.679127,0.162752,0.135740,0.702761,24.346259,-2.543796,91.410864
37201,2.739691,3.878050,12.352868,1.486848,2.153666,3.159919,-0.510199,-0.992318,-0.600666,0.026901,0.039014,0.123564,0.999980,-0.002551,-0.004962,-0.003003,0.682287,0.164088,0.131018,0.700281,24.075532,-2.925118,90.867360
37202,6.264471,5.817928,8.395724,-1.916469,5.673413,0.566021,0.403388,-1.397979,-0.641738,0.062241,0.057809,0.084510,0.999968,0.002017,-0.006990,-0.003209,0.685070,0.169935,0.128140,0.696694,24.340308,-3.509562,90.206860
37203,9.359877,7.980412,8.264050,-3.840826,8.640590,1.596754,-0.168038,-1.403983,-0.879946,0.093366,0.079463,0.083230,0.999965,-0.000840,-0.007020,-0.004400,0.689129,0.173671,0.123443,0.692605,24.291584,-4.038947,89.418625
37204,7.501733,4.614321,7.742591,-0.887699,6.819533,-0.314306,0.147075,-1.575167,-0.963212,0.074625,0.045726,0.078048,0.999957,0.000735,-0.007876,-0.004816,0.693249,0.179038,0.119310,0.687834,24.438834,-4.638799,88.545609
37205,7.704654,6.822523,7.211181,-2.970476,6.967671,0.213989,0.483100,-1.608582,-0.946690,0.076784,0.067686,0.072894,0.999954,0.002415,-0.008043,-0.004733,0.696976,0.185662,0.116192,0.682827,24.786857,-5.254754,87.669500
37206,6.962634,4.942675,6.006777,-1.651482,6.289012,-1.645153,0.401340,-1.469298,-0.839998,0.069389,0.049014,0.060677,0.999962,0.002007,-0.007346,-0.004200,0.700266,0.191593,0.113168,0.678316,25.090322,-5.821293,86.879138
37207,5.012185,5.136319,7.762581,-1.088492,4.079473,-0.120784,0.539149,-1.281457,-0.556255,0.049765,0.051014,0.078083,0.999972,0.002696,-0.006407,-0.002781,0.702319,0.197497,0.110993,0.674851,25.458637,-6.353144,86.278160
37208,3.372847,4.238600,8.839556,0.164602,2.209724,0.314895,0.746712,-1.199019,-0.169074,0.033233,0.042027,0.088753,0.999975,0.003734,-0.005995,-0.000845,0.702766,0.204081,0.109415,0.672681,25.928266,-6.936861,85.895219
37209,3.315098,4.344543,8.627219,0.054600,2.066527,0.188239,0.698020,-1.276892,0.091582,0.032579,0.043158,0.086632,0.999973,0.003490,-0.006384,0.000458,0.702403,0.210862,0.107134,0.671334,26.358521,-7.620787,85.621789
37210,4.351713,2.105074,7.178414,1.574167,3.180085,-1.919243,0.480092,-1.141009,0.152028,0.043091,0.020911,0.072081,0.999981,0.002400,-0.005705,0.000760,0.701949,0.216471,0.104523,0.670435,26.660267,-8.251581,85.410663
37211,3.482330,2.836276,8.608944,1.529145,1.996514,-0.434016,0.688246,-1.010674,0.149947,0.034366,0.028092,0.086361,0.999981,0.003441,-0.005053,0.000750,0.701195,0.222338,0.103071,0.669528,27.077443,-8.811066,85.227539
37212,2.515702,1.995059,8.712880,2.302135,0.922039,-0.864374,0.559618,-1.032315,0.230856,0.024684,0.019735,0.087312,0.999982,0.002798,-0.005162,0.001154,0.700284,0.227886,0.101011,0.668930,27.419297,-9.404666,85.077205
37213,1.838115,1.422321,8.124154,2.535014,0.270383,-1.756424,0.551035,-0.974435,0.236898,0.017968,0.014021,0.081369,0.999984,0.002755,-0.004872,0.001184,0.699323,0.233180,0.099124,0.668393,27.753614,-9.966507,84.940943
37214,0.578080,0.504177,8.020925,3.228357,-1.019186,-2.500907,0.432359,-0.783849,0.131055,0.005463,0.004872,0.080242,0.999990,0.002162,-0.003919,0.000655,0.698727,0.237388,0.097616,0.667756,28.023498,-10.405882,84.799776
37215,-0.661945,0.671793,8.436149,3.178234,-2.374335,-2.308075,0.272959,-0.587004,0.047971,-0.006869,0.006601,0.084351,0.999995,0.001365,-0.002935,0.000240,0.698505,0.240312,0.096372,0.667123,28.199868,-10.719668,84.667182
37216,-1.253245,0.682558,9.647249,3.668770,-3.249347,-1.381339,-0.026174,-0.454568,-0.009061,-0.012751,0.006839,0.096443,0.999997,-0.000131,-0.002273,-0.000045,0.698750,0.241743,0.094648,0.666596,28.205253,-10.953887,84.542024
37217,-2.525884,0.685399,11.079721,4.192103,-4.847406,-0.403191,0.092186,-0.578924,0.034597,-0.025581,0.006799,0.110727,0.999996,0.000461,-0.002895,0.000173,0.698774,0.243999,0.092843,0.666003,28.280367,-11.259671,84.403810
37218,-1.571735,2.162374,9.366838,2.197152,-3.616403,-1.039000,0.152331,-0.698990,0.167282,-0.016063,0.021539,0.093629,0.999993,0.000762,-0.003495,0.000836,0.698319,0.246940,0.090644,0.665699,28.384527,-11.664416,84.300711
37219,-0.279683,1.718488,7.805646,2.002465,-2.058723,-2.348697,-0.042811,-0.544426,0.173954,-0.003024,0.017199,0.078045,0.999996,-0.000214,-0.002722,0.000870,0.698016,0.248669,0.088337,0.665683,28.367540,-11.990439,84.242792
37220,-1.389273,2.824089,9.922584,1.875753,-3.680949,-0.257836,0.124212,-0.428361,0.179085,-0.014130,0.028167,0.099213,0.999997,0.000621,-0.002142,0.000895,0.697422,0.250609,0.086974,0.665758,28.439549,-12.261586,84.220400
37221,-1.504593,3.210658,9.225057,1.202950,-3.684001,-0.721231,-0.036437,-0.530281,0.214348,-0.015325,0.032107,0.092204,0.999996,-0.000182,-0.002651,0.001072,0.696961,0.252328,0.084686,0.665886,28.421566,-12.591447,84.186825
37222,-1.692720,2.359987,7.306774,1.058909,-3.435459,-2.819829,-0.017814,-0.319925,0.157526,-0.017063,0.023593,0.073038,0.999998,-0.000089,-0.001600,0.000788,0.696565,0.253396,0.083255,0.666075,28.408031,-12.801680,84.183401
37223,-2.756937,3.228083,7.095149,0.084248,-4.446318,-2.842356,-0.068925,-0.055549,0.109802,-0.027607,0.032290,0.070933,1.000000,-0.000345,-0.000278,0.000549,0.696289,0.253375,0.082644,0.666447,28.354167,-12.863788,84.228617
37224,-3.072189,2.430762,5.789900,0.163297,-4.417422,-4.397010,-0.237078,0.350616,0.066801,-0.030628,0.024366,0.057924,0.999998,-0.001185,0.001753,0.000334,0.696194,0.251404,0.082934,0.667257,28.183875,-12.710621,84.365247
37225,-7.439754,3.512639,6.899495,-0.710675,-8.907888,-3.859928,-0.017734,0.837302,-0.277365,-0.074059,0.035235,0.069302,0.999990,-0.000089,0.004186,-0.001387,0.696767,0.248420,0.086088,0.667377,28.149439,-12.216866,84.457662
37226,-9.152871,13.762152,12.260814,-7.406239,-11.830005,5.309524,1.718047,0.986185,-1.238665,-0.090069,0.137120,0.124234,0.999932,0.008590,0.004931,-0.006193,0.698271,0.250557,0.096737,0.663536,29.202096,-11.385536,84.102763
37227,-3.208049,20.454790,21.758723,-8.121611,-8.026633,17.967590,-0.061833,0.025595,-0.432966,-0.031610,0.204684,0.217528,0.999998,-0.000309,0.000128,-0.002165,0.699751,0.250035,0.097115,0.662118,29.203495,-11.255957,83.893103
37228,6.327569,2.245382,1.226659,-0.796737,5.889073,-6.455985,-2.424750,0.026006,1.110787,0.063151,0.022951,0.011982,0.999911,-0.012123,0.000130,0.005554,0.699010,0.241974,0.087739,0.667184,27.695477,-11.549857,84.474829
37229,-1.194815,5.121039,6.701422,-1.590956,-2.682882,-1.886180,2.102587,1.039449,0.772841,-0.011794,0.050456,0.067609,0.999924,0.010513,0.005197,0.003864,0.693359,0.246164,0.097397,0.670202,28.759681,-11.238752,85.164109
37230,1.361032,8.191180,11.756879,-1.712436,-1.303693,4.418904,-0.949679,0.379303,0.616367,0.013579,0.082511,0.117152,0.999982,-0.004748,0.001897,0.003082,0.692244,0.241889,0.094726,0.673286,28.129074,-11.219863,85.589904
37231,5.495517,-0.973578,6.033008,3.999377,4.168356,-3.966751,-0.756650,0.607899,0.395077,0.055157,-0.009399,0.060199,0.999986,-0.003783,0.003039,0.001975,0.691511,0.237397,0.093756,0.675770,27.619102,-11.021972,85.963767
37232,4.085486,1.900498,12.182492,4.064149,1.529332,2.429026,-0.246835,0.527737,-0.106583,0.041186,0.019133,0.121693,0.999996,-0.001234,0.002639,-0.000533,0.691892,0.234703,0.094829,0.676172,27.456838,-10.729722,86.054815
37233,4.000145,-2.777271,9.900058,7.162652,2.043923,-1.673646,-0.880271,0.230060,-0.625703,0.040029,-0.027462,0.099076,0.999985,-0.004401,0.001150,-0.003128,0.694899,0.230569,0.093334,0.674716,26.995741,-10.452619,85.795879
37234,2.268462,-0.115980,10.388496,4.856369,0.215682,-0.354923,-0.037947,0.187555,-1.110356,0.022775,-0.001266,0.103864,0.999984,-0.000190,0.000938,-0.005552,0.698568,0.229273,0.095088,0.671115,27.062829,-10.072069,85.273667
37235,1.828898,4.187765,9.794326,0.720989,-0.089019,0.970774,-0.208240,0.041763,-1.245991,0.018570,0.041864,0.097896,0.999980,-0.001041,0.000209,-0.006230,0.702933,0.227798,0.095914,0.666929,27.047569,-9.730150,84.643349
37236,2.111902,5.590424,7.573963,-1.482410,0.689708,-0.304576,-0.352320,0.063985,-1.183320,0.021474,0.055911,0.075634,0.999981,-0.001762,0.000320,-0.005917,0.707214,0.225763,0.096260,0.663033,26.939499,-9.394064,84.051713
37237,1.564887,6.978908,7.508147,-2.813489,0.273981,0.164026,-0.275519,0.199679,-1.067556,0.016096,0.069807,0.074969,0.999984,-0.001378,0.000998,-0.005338,0.710936,0.223598,0.097210,0.659640,26.856690,-9.019412,83.555564
37238,0.582677,6.840187,8.753580,-2.271199,-0.848331,1.044308,-0.287555,0.180770,-0.794288,0.006178,0.068504,0.087432,0.999991,-0.001438,0.000904,-0.003971,0.713761,0.221582,0.097743,0.657186,26.743167,-8.726101,83.195804
37239,0.658936,5.957591,8.152972,-1.750685,-0.632491,0.133812,-0.261438,0.231153,-0.498379,0.006832,0.059666,0.081444,0.999995,-0.001307,0.001156,-0.002492,0.715551,0.219633,0.098214,0.655822,26.618050,-8.483630,83.001933
37240,0.861779,4.995023,8.256601,-0.835704,-0.446706,-0.170786,-0.197117,0.315249,-0.337761,0.008832,0.050017,0.082503,0.999997,-0.000986,0.001576,-0.001689,0.716696,0.217718,0.099020,0.655089,26.514025,-8.239736,82.912680
37241,1.448638,4.702501,8.547577,-0.389196,0.105811,0.041770,-0.147396,0.365700,-0.188281,0.014687,0.047074,0.085414,0.999998,-0.000737,0.001828,-0.000941,0.717269,0.215887,0.100005,0.654917,26.425125,-8.008158,82.913517
37242,1.393662,3.974997,8.353879,0.165222,0.093247,-0.458863,-0.107742,0.451872,-0.121928,0.014150,0.039786,0.083486,0.999997,-0.000539,0.002259,-0.000610,0.717535,0.213950,0.101359,0.655054,26.351569,-7.749352,82.970548
37243,2.048235,4.078493,8.768642,0.323621,0.716498,0.041253,-0.062433,0.492026,-0.135635,0.020726,0.040798,0.087623,0.999997,-0.000312,0.002460,-0.000678,0.717773,0.212033,0.103018,0.655157,26.303535,-7.466279,83.030465
37244,0.278892,4.998587,10.206730,-0.093652,-1.172577,1.494702,0.134328,0.460285,-0.065826,0.003040,0.049916,0.102094,0.999997,0.000672,0.002301,-0.000329,0.717585,0.210964,0.105134,0.655372,26.365233,-7.217404,83.118404
37245,-0.266736,4.897457,9.644433,-0.299534,-1.585819,0.886225,-0.046912,0.288090,0.021489,-0.002534,0.048997,0.096437,0.999999,-0.000235,0.001440,0.000107,0.717391,0.209851,0.105945,0.655811,26.322951,-7.079009,83.207390
37246,0.664992,4.938248,8.865826,-0.556514,-0.516351,0.329059,0.074572,0.268995,0.048911,0.006757,0.049351,0.088668,0.999999,0.000373,0.001345,0.000245,0.716987,0.209253,0.107058,0.656263,26.349646,-6.957382,83.305592
37247,1.017808,5.212559,8.585425,-0.879466,-0.091441,0.243871,-0.030632,0.244198,0.078420,0.010262,0.052143,0.085834,0.999999,-0.000153,0.001221,0.000392,0.716610,0.208372,0.107705,0.656850,26.314883,-6.855977,83.412715
37248,0.846116,5.268555,8.742086,-0.880823,-0.266783,0.387832,0.073370,0.266963,0.135372,0.008542,0.052659,0.087429,0.999999,0.000367,0.001335,0.000677,0.715922,0.207822,0.108717,0.657606,26.336086,-6.757306,83.555024
37249,0.444852,5.442170,9.106889,-0.920785,-0.698071,0.742661,0.024148,0.259775,0.227002,0.004505,0.054416,0.091070,0.999999,0.000121,0.001299,0.001135,0.714987,0.207166,0.109444,0.658709,26.323601,-6.685656,83.742914
37250,0.800638,5.210505,9.210009,-0.635531,-0.366665,0.773922,-0.080874,0.201192,0.314618,0.008017,0.052155,0.092071,0.999998,-0.000404,0.001006,0.001573,0.713902,0.206377,0.109527,0.660119,26.248025,-6.666097,83.960991
37251,0.809580,4.058345,9.274196,0.419061,-0.415731,0.325747,0.008381,0.172694,0.370874,0.008101,0.040595,0.092737,0.999998,0.000042,0.000863,0.001854,0.712551,0.206028,0.109742,0.661649,26.220619,-6.675329,84.200981
37252,1.098637,3.958209,8.948792,0.394023,-0.087052,0.025629,-0.002417,0.126236,0.361023,0.010971,0.039603,0.089481,0.999998,-0.000012,0.000631,0.001805,0.711267,0.205791,0.109769,0.663099,26.189374,-6.705702,84.423944
37253,1.595421,3.473237,8.557036,0.705694,0.444714,-0.478029,0.044765,0.176420,0.304126,0.015977,0.034738,0.085564,0.999998,0.000224,0.000882,0.001521,0.710093,0.205521,0.110185,0.664370,26.186607,-6.695948,84.630352
37254,1.686527,4.186489,8.402483,0.007904,0.585265,-0.292699,0.107906,0.226406,0.313688,0.016895,0.041846,0.084028,0.999998,0.000540,0.001132,0.001568,0.708792,0.205316,0.110982,0.665689,26.218440,-6.662868,84.854343
37255,1.847052,4.548293,7.940927,-0.498010,0.826407,-0.526896,0.141122,0.309933,0.387154,0.018506,0.045463,0.079413,0.999997,0.000706,0.001550,0.001936,0.707163,0.204988,0.112105,0.667333,26.262226,-6.605721,85.137738
37256,2.498814,5.105436,7.524864,-1.124255,1.552144,-0.579053,0.107450,0.454994,0.473846,0.025038,0.051073,0.075219,0.999994,0.000537,0.002275,0.002369,0.705190,0.204106,0.113543,0.669444,26.278222,-6.496150,85.502910
37257,2.035153,4.777682,8.640273,-0.391546,0.951924,0.215417,0.020790,0.564858,0.527323,0.020469,0.047822,0.086350,0.999993,0.000104,0.002824,0.002637,0.703056,0.202576,0.115019,0.671897,26.238752,-6.343634,85.923708
37258,-0.266517,4.072240,10.191377,0.762523,-1.520168,1.032858,0.265037,0.466648,0.594640,-0.002548,0.040580,0.101974,0.999992,0.001325,0.002333,0.002973,0.700493,0.202274,0.116902,0.674336,26.339541,-6.258979,86.354178
37259,0.031474,3.596673,9.394825,0.885901,-1.112318,0.146112,0.196589,0.370429,0.590260,0.000383,0.035875,0.093983,0.999993,0.000983,0.001852,0.002951,0.698060,0.202047,0.118218,0.676693,26.403965,-6.223114,86.757855
37260,1.430201,3.168246,8.720255,1.069902,0.371714,-0.493717,0.241140,0.374422,0.459304,0.014393,0.031610,0.087214,0.999995,0.001206,0.001872,0.002297,0.696015,0.201885,0.119832,0.678561,26.501875,-6.152326,87.094931
37261,1.599194,3.418908,8.829243,0.916502,0.545528,-0.269928,0.245780,0.401503,0.370935,0.016106,0.034110,0.088302,0.999996,0.001229,0.002008,0.001855,0.694243,0.201590,0.121642,0.680141,26.606637,-6.045636,87.393570
37262,1.127025,3.834923,8.865786,0.559752,0.092549,-0.104084,0.334616,0.450462,0.377626,0.011398,0.038222,0.088696,0.999994,0.001673,0.002252,0.001888,0.692320,0.201440,0.123917,0.681732,26.761526,-5.916313,87.708465
37263,0.657304,4.462271,9.253147,0.179517,-0.401301,0.471829,0.294510,0.438561,0.414123,0.006684,0.044500,0.092582,0.999994,0.001473,0.002193,0.002071,0.690314,0.201211,0.125975,0.683455,26.892161,-5.803257,88.039310
37264,0.600570,4.501391,8.640652,-0.106847,-0.374330,-0.059101,0.286403,0.429262,0.388793,0.006104,0.044902,0.086458,0.999995,0.001432,0.002146,0.001944,0.688400,0.200969,0.127999,0.685079,27.020600,-5.689140,88.354887
37265,1.312623,4.419233,8.608205,-0.013587,0.361519,-0.054468,0.091863,0.419436,0.186981,0.013265,0.044165,0.086075,0.999997,0.000459,0.002097,0.000935,0.687375,0.199959,0.129522,0.686117,27.048417,-5.527885,88.564511
37266,0.738201,4.073930,9.456248,0.664810,-0.253727,0.485663,-0.011761,0.345015,-0.080741,0.007562,0.040742,0.094547,0.999998,-0.000059,0.001725,-0.000404,0.687416,0.198676,0.130703,0.686225,27.032619,-5.334920,88.617348
37267,-0.175232,4.155892,9.386975,0.538697,-1.126284,0.378420,0.025234,0.213794,-0.221577,-0.001606,0.041549,0.093877,0.999999,0.000126,0.001069,-0.001108,0.687988,0.197875,0.131698,0.685692,27.047660,-5.172211,88.563697
37268,0.936791,4.308194,8.765748,0.149827,0.061223,-0.001968,-0.028140,0.176161,-0.213930,0.009491,0.043084,0.087643,0.999999,-0.000141,0.000881,-0.001070,0.688610,0.197026,0.132374,0.685182,27.032712,-5.030655,88.504090
37269,1.375289,4.458961,8.455158,-0.112208,0.548956,-0.171658,0.046676,0.243859,-0.159219,0.013891,0.044559,0.084545,0.999999,0.000233,0.001219,-0.000796,0.688924,0.196237,0.133484,0.684877,27.056317,-4.868844,88.490280
37270,1.443652,4.335062,8.597617,0.064444,0.636038,-0.097384,-0.049897,0.305029,-0.140188,0.014598,0.043362,0.085943,0.999999,-0.000249,0.001525,-0.000701,0.689226,0.194919,0.134456,0.684759,27.022613,-4.680762,88.502161
37271,0.231419,4.518693,9.508129,0.281784,-0.618943,0.695122,0.062284,0.275899,-0.160057,0.002482,0.045155,0.095092,0.999999,0.000311,0.001379,-0.000800,0.689504,0.194073,0.135730,0.684468,27.054439,-4.502383,88.496284
37272,0.152036,4.716663,8.917825,-0.164268,-0.624702,0.256093,-0.070240,0.157746,-0.189752,0.001635,0.047196,0.089160,0.999999,-0.000351,0.000789,-0.000949,0.690091,0.193154,0.136172,0.684049,27.014073,-4.376561,88.444304
37273,0.446307,4.650392,8.762515,-0.170946,-0.294305,0.111581,-0.002827,0.184680,-0.213693,0.004594,0.046500,0.087620,0.999999,-0.000014,0.000923,-0.001068,0.690676,0.192359,0.136960,0.683525,27.012417,-4.230789,88.387089
37274,1.111044,5.030104,8.419472,-0.653514,0.417458,0.027152,-0.172106,0.161612,-0.233680,0.011237,0.050360,0.084142,0.999999,-0.000861,0.000808,-0.001168,0.691506,0.191044,0.137110,0.683025,26.915017,-4.091596,88.313469
37275,0.987252,4.728966,8.577152,-0.330972,0.311761,0.020852,-0.129804,0.237631,-0.224430,0.010027,0.047334,0.085729,0.999998,-0.000649,0.001188,-0.001122,0.692210,0.189621,0.137656,0.682598,26.839757,-3.916118,88.264178
37276,-0.370161,4.802027,9.934811,0.156970,-1.113898,1.170548,-0.182448,0.191117,-0.196855,-0.003559,0.048114,0.099308,0.999999,-0.000912,0.000956,-0.000984,0.692899,0.188194,0.137837,0.682257,26.734325,-3.771606,88.216679
37277,-0.199366,4.085445,9.338715,0.515264,-0.878179,0.331545,-0.193496,0.057813,-0.200241,-0.001926,0.040947,0.093348,0.999999,-0.000967,0.000289,-0.001001,0.693701,0.187180,0.137520,0.681785,26.624587,-3.694580,88.132848
37278,0.300741,4.431552,9.013589,0.062290,-0.340851,0.229911,-0.093955,0.060912,-0.256202,0.003092,0.044354,0.090114,0.999999,-0.000470,0.000305,-0.001281,0.694597,0.186462,0.137606,0.681052,26.573754,-3.601604,88.020916
37279,0.550973,5.602291,8.417059,-1.254601,-0.029844,0.235256,-0.165059,0.017368,-0.231272,0.005582,0.056086,0.084124,0.999999,-0.000825,0.000087,-0.001156,0.695503,0.185662,0.137274,0.680412,26.481722,-3.537593,87.910588
37280,1.175484,5.518832,7.576964,-1.544531,0.667957,-0.516566,-0.154033,0.123943,-0.124426,0.011836,0.055239,0.075720,0.999999,-0.000770,0.000620,-0.000622,0.695961,0.184611,0.137253,0.680234,26.391129,-3.446190,87.882238
37281,1.022273,5.679010,7.963789,-1.540491,0.504942,-0.112688,-0.211132,0.214884,0.031178,0.010299,0.056876,0.079567,0.999999,-0.001056,0.001074,0.000156,0.695879,0.183158,0.137208,0.680720,26.261399,-3.347823,87.956996
37282,1.026547,3.429454,8.841841,0.847242,0.454243,-0.322224,-0.096126,0.332534,0.216090,0.010375,0.034348,0.088385,0.999998,-0.000481,0.001663,0.001080,0.694979,0.181833,0.137797,0.681875,26.190958,-3.235588,88.156531
37283,0.397084,3.593101,10.618308,1.460396,-0.266185,1.305444,0.122421,0.340991,0.355635,0.004088,0.035873,0.106198,0.999997,0.000612,0.001705,0.001778,0.693395,0.181331,0.139030,0.683369,26.241524,-3.154379,88.430089
37284,0.948991,3.445974,9.183570,0.982575,0.391276,-0.014999,0.066433,0.253596,0.238019,0.009565,0.034441,0.091835,0.999998,0.000332,0.001268,0.001190,0.692321,0.180853,0.139877,0.684411,26.265171,-3.088376,88.620912
37285,0.518723,5.170194,9.288375,-0.527092,-0.032046,0.817224,0.002348,0.202113,0.002600,0.005280,0.051701,0.092879,0.999999,0.000012,0.001011,0.000013,0.692145,0.180163,0.140537,0.684636,26.259181,-2.989243,88.677586
37286,0.446505,5.761353,8.136248,-1.578434,-0.022533,0.041198,-0.216779,0.107686,-0.142060,0.004550,0.057698,0.081298,0.999999,-0.001084,0.000538,-0.000710,0.692727,0.178937,0.140251,0.684427,26.133078,-2.901949,88.635709
37287,0.978663,5.910149,8.102409,-1.743309,0.530971,0.097684,-0.381949,0.139781,-0.206016,0.009904,0.059246,0.080904,0.999997,-0.001910,0.000699,-0.001030,0.693651,0.176982,0.139567,0.684140,25.913228,-2.782232,88.568728
37288,1.540329,6.028957,8.175490,-1.851161,1.113843,0.231803,-0.588537,0.166870,-0.212229,0.015536,0.060513,0.081564,0.999995,-0.002943,0.000834,-0.001061,0.694754,0.174215,0.138277,0.683992,25.575172,-2.647286,88.504656
37289,2.109904,5.234979,8.130411,-1.207142,1.715215,-0.140021,-0.862059,0.237165,-0.325851,0.021281,0.052665,0.081052,0.999989,-0.004310,0.001186,-0.001629,0.696424,0.170174,0.136389,0.683690,25.081659,-2.448583,88.398016
37290,0.815235,5.280955,9.800694,-0.661678,0.380128,1.323900,-0.814935,0.182354,-0.482494,0.008370,0.053188,0.097783,0.999988,-0.004075,0.000912,-0.002412,0.698610,0.166377,0.134605,0.682748,24.619316,-2.241662,88.195008
37291,2.712751,6.336857,8.943888,-2.009358,2.378347,1.041473,-1.064309,0.018848,-0.725205,0.027367,0.063744,0.089098,0.999979,-0.005322,0.000094,-0.003626,0.701920,0.162095,0.131593,0.680968,24.019092,-2.064623,87.824708
37292,3.832871,5.543278,8.698933,-1.433199,3.548858,0.504326,-1.215641,0.017326,-0.996899,0.038614,0.055768,0.086648,0.999969,-0.006078,0.000087,-0.004984,0.706241,0.157105,0.128277,0.678297,23.336496,-1.830254,87.309532
37293,3.413100,6.880704,9.633923,-2.395332,3.194819,1.843221,-1.023325,-0.046482,-1.121503,0.034496,0.069106,0.095994,0.999971,-0.005117,-0.000232,-0.005607,0.710834,0.152916,0.125475,0.674973,22.763765,-1.606993,86.711805
37294,3.492172,6.544172,8.981176,-2.419308,3.365938,1.073039,-1.254733,-0.067339,-1.114106,0.035257,0.065808,0.089412,0.999965,-0.006274,-0.000337,-0.005570,0.715543,0.147978,0.121807,0.671761,22.057257,-1.403624,86.111199
37295,3.078739,6.082472,9.460032,-1.935955,2.981899,1.292550,-1.143076,0.104632,-1.022776,0.031149,0.061205,0.094235,0.999970,-0.005715,0.000523,-0.005114,0.719716,0.142900,0.119051,0.668892,21.409459,-1.134671,85.593248
37296,6.408016,5.936824,9.216039,-1.665428,6.361589,1.050103,-0.320149,-0.166102,-0.962185,0.064289,0.059207,0.092119,0.999987,-0.001601,-0.000831,-0.004811,0.723224,0.141730,0.118027,0.665530,21.233161,-1.027399,85.049603
37297,11.159154,13.235633,8.690218,-8.128243,11.720153,3.294381,0.223122,-0.498621,-1.074473,0.112083,0.131658,0.087328,0.999982,0.001116,-0.002493,-0.005372,0.726898,0.143548,0.117682,0.661184,21.369013,-1.073627,84.376492
37298,10.853700,9.343461,7.680360,-4.786626,11.187037,0.958975,-0.473731,-0.908028,-0.981226,0.108645,0.093084,0.077076,0.999975,-0.002369,-0.004540,-0.004906,0.730967,0.144257,0.113474,0.657268,21.110095,-1.360226,83.668769
37299,11.149679,10.962236,6.813159,-6.425042,11.687855,0.818086,0.720848,-1.010090,-0.776350,0.111573,0.108941,0.069088,0.999973,0.003604,-0.005050,-0.003882,0.733528,0.149755,0.112665,0.653312,21.535583,-1.741302,83.048088
37300,8.867194,9.340360,5.871423,-5.382588,9.303793,-0.603565,0.522453,-1.093860,-0.547237,0.088603,0.093006,0.059442,0.999978,0.002612,-0.005469,-0.002736,0.735490,0.154951,0.110722,0.650220,21.851040,-2.214155,82.530027
37301,6.482356,8.507411,6.756739,-4.475792,6.733025,-0.082237,1.003825,-0.905019,-0.326014,0.064654,0.084627,0.068286,0.999976,0.005019,-0.004525,-0.001630,0.736232,0.161389,0.110863,0.647785,22.437261,-2.627792,82.165532
37302,4.109252,7.888624,7.994309,-3.647984,4.128536,0.801951,1.077747,-0.837021,-0.017350,0.040763,0.078450,0.080538,0.999977,0.005389,-0.004185,-0.000087,0.735828,0.168079,0.111238,0.646477,23.063065,-3.073375,81.976055
37303,4.231670,6.908986,7.933398,-2.654946,4.055318,0.438342,1.039358,-0.833855,0.263214,0.041894,0.068731,0.079867,0.999977,0.005197,-0.004169,0.001316,0.734528,0.174729,0.111262,0.646188,23.656964,-3.575621,81.929207
37304,4.384633,6.197512,8.744130,-1.581076,3.929864,0.964527,1.008566,-0.796676,0.485825,0.043347,0.061638,0.087926,0.999976,0.005043,-0.003983,0.002429,0.732464,0.181303,0.111121,0.646744,24.229083,-4.113352,82.003888
37305,3.845762,5.099642,9.471064,-0.289638,3.069862,1.186717,1.004798,-0.994492,0.690873,0.037810,0.050650,0.095155,0.999969,0.005024,-0.004972,0.003454,0.729827,0.188565,0.110053,0.647831,24.790496,-4.799953,82.132205
37306,4.578152,4.329847,7.786525,-0.104193,3.805427,-0.547551,1.074717,-1.084881,0.818354,0.045181,0.043064,0.078343,0.999962,0.005374,-0.005424,0.004092,0.726691,0.196476,0.108751,0.649223,25.390569,-5.569708,82.299241
37307,3.522361,3.778411,7.830966,0.336659,2.583259,-0.800523,1.140209,-0.976430,0.879978,0.034675,0.037490,0.078694,0.999962,0.005701,-0.004882,0.004400,0.723197,0.204248,0.107990,0.650851,26.017123,-6.296493,82.516112
37308,2.804292,3.371531,8.266535,0.861834,1.654987,-0.642985,1.079570,-0.956763,0.940041,0.027489,0.033398,0.082979,0.999963,0.005398,-0.004784,0.004700,0.719483,0.211799,0.107028,0.652710,26.606449,-7.035017,82.762829
37309,2.547794,2.589389,8.579477,1.731413,1.188613,-0.735702,1.043515,-0.872976,0.920916,0.024985,0.025561,0.086038,0.999966,0.005218,-0.004365,0.004605,0.715794,0.218876,0.106268,0.654553,27.167848,-7.723844,83.013284
37310,1.155346,1.859174,10.625982,3.188954,-0.692796,0.533873,1.028331,-0.999103,0.870217,0.010943,0.018093,0.106409,0.999965,0.005142,-0.004995,0.004351,0.712284,0.226314,0.105048,0.656048,27.730180,-8.470302,83.198863
37311,1.873890,1.224481,9.776525,3.538227,0.018873,-0.428126,1.018375,-1.109605,0.718954,0.018153,0.011812,0.097928,0.999965,0.005092,-0.005548,0.003595,0.709310,0.233939,0.103573,0.656829,28.298609,-9.229223,83.268639
37312,0.595465,0.563294,10.205952,4.245571,-1.458891,-0.610610,0.953006,-1.111019,0.423604,0.005376,0.005158,0.102116,0.999971,0.004765,-0.005555,0.002118,0.707317,0.241211,0.102208,0.656562,28.858141,-9.913018,83.181071
37313,-0.085718,0.487442,10.561683,4.465828,-2.323351,-0.514811,0.840412,-1.203259,0.101787,-0.001495,0.004430,0.105628,0.999973,0.004202,-0.006016,0.000509,0.706545,0.248167,0.100538,0.655057,29.386009,-10.547917,82.895776
37314,-0.926034,0.252256,10.411260,4.551267,-3.240964,-0.975502,0.681820,-1.233655,-0.142383,-0.009901,0.002175,0.104061,0.999975,0.003409,-0.006168,-0.000712,0.706726,0.254566,0.098530,0.652707,29.854718,-11.130621,82.472861
37315,-1.008480,1.151319,10.337774,3.755990,-3.409560,-0.676055,0.565609,-1.218660,-0.250643,-0.010700,0.011234,0.103346,0.999977,0.002828,-0.006093,-0.001253,0.707389,0.260401,0.096338,0.650009,30.269288,-11.667316,81.993075
37316,-1.245043,1.200924,9.772960,3.430627,-3.612568,-1.228854,0.350867,-1.131672,-0.221900,-0.012990,0.011852,0.097678,0.999982,0.001754,-0.005658,-0.001109,0.708147,0.265230,0.093704,0.647612,30.559861,-12.170393,81.550396
37317,-1.838659,1.620005,9.468354,2.840392,-4.192696,-1.445633,0.268148,-0.938757,-0.127494,-0.018821,0.016085,0.094618,0.999988,0.001341,-0.004694,-0.000637,0.708616,0.269144,0.091368,0.645815,30.782406,-12.600111,81.208943
37318,-2.725414,2.085812,9.701038,2.413809,-5.170233,-1.249366,0.151060,-0.668689,0.001040,-0.027578,0.020785,0.096934,0.999994,0.000755,-0.003343,0.000005,0.708674,0.271855,0.089426,0.644887,30.910074,-12.937257,81.012788
37319,-4.214760,2.189030,10.846597,2.639771,-6.965227,-0.608251,0.062985,-0.471097,0.197670,-0.042425,0.021814,0.108373,0.999997,0.000315,-0.002355,0.000988,0.708141,0.273673,0.087642,0.644949,30.950643,-13.231376,80.973866
37320,-3.855012,2.400041,9.657746,1.949898,-6.333404,-1.447340,0.118393,-0.317103,0.475191,-0.038760,0.023851,0.096530,0.999996,0.000592,-0.001586,0.002376,0.706549,0.275334,0.086193,0.646182,30.981491,-13.534579,81.122329
37321,-3.975045,2.246569,9.011166,1.773170,-6.296399,-2.114614,-0.022773,0.046684,0.681022,-0.039806,0.022340,0.090118,0.999994,-0.000114,0.000233,0.003405,0.704337,0.275382,0.085297,0.648690,30.878756,-13.716564,81.484658
37322,-4.415423,2.009769,9.337724,2.095913,-6.813189,-2.072160,-0.117917,0.322075,0.826840,-0.044087,0.019970,0.093436,0.999990,-0.000590,0.001610,0.004134,0.701642,0.274279,0.084854,0.652126,30.684340,-13.807180,82.005351
37323,-3.630398,2.024260,8.795654,1.952173,-5.892688,-2.322286,-0.323679,0.544994,0.899155,-0.036155,0.020222,0.088022,0.999985,-0.001618,0.002725,0.004496,0.698893,0.271732,0.084427,0.656187,30.345621,-13.804104,82.629464
37324,-3.041198,2.086140,8.850525,2.002257,-5.306965,-2.082260,-0.499553,0.751951,0.860963,-0.030169,0.020952,0.088567,0.999981,-0.002498,0.003760,0.004305,0.696388,0.267879,0.084190,0.660451,29.897746,-13.685066,83.295629
37325,-3.446561,1.494693,9.559107,2.791722,-5.825337,-1.827662,-0.758556,0.772140,0.769774,-0.034154,0.015178,0.095666,0.999978,-0.003793,0.003861,0.003849,0.694502,0.262995,0.083292,0.664502,29.312188,-13.522586,83.918913
37326,-2.883632,1.334457,8.132637,2.302531,-4.863498,-2.936622,-0.690361,0.765093,0.657726,-0.028569,0.013531,0.081390,0.999981,-0.003452,0.003825,0.003289,0.692867,0.258322,0.082735,0.668102,28.782451,-13.327799,84.480714
37327,-4.231884,1.029582,7.446424,2.114971,-5.941216,-3.926565,-0.707122,0.934761,0.489897,-0.041996,0.010456,0.074624,0.999980,-0.003536,0.004674,0.002449,0.691723,0.252936,0.082928,0.671317,28.254596,-12.995431,85.000563
37328,-7.272375,1.860330,6.958619,0.913052,-8.743650,-4.570132,-0.227364,1.217251,0.098805,-0.072308,0.018647,0.070006,0.999981,-0.001137,0.006086,0.000494,0.691137,0.248094,0.086197,0.673313,28.033906,-12.412050,85.393168
37329,-9.912043,15.978305,13.307627,-8.715753,-12.998454,7.089488,2.257509,1.668646,-1.196590,-0.097043,0.158846,0.135688,0.999884,0.011287,0.008343,-0.005983,0.691545,0.249722,0.100989,0.670229,29.352098,-11.248469,85.251624
37330,-2.209310,20.655841,26.683601,-5.862790,-8.174832,22.472584,-1.471819,0.427405,0.157315,-0.021688,0.208498,0.265353,0.999970,-0.007359,0.002137,0.000787,0.692600,0.243263,0.097292,0.672059,28.465288,-11.081497,85.456331
37331,10.176037,-2.625348,-2.909364,1.734820,10.623491,-11.556114,-3.395264,0.554266,1.882404,0.101924,-0.025787,-0.028936,0.999808,-0.016975,0.002771,0.009411,0.689980,0.230501,0.085447,0.680806,26.296414,-11.299658,86.585444
37332,-2.317240,2.711616,8.854059,1.416860,-4.092352,-1.306721,3.141688,1.771773,1.386952,-0.022565,0.025561,0.089152,0.999813,0.015707,0.008858,0.006934,0.680731,0.235850,0.100596,0.686192,27.864161,-10.761393,87.780834
37333,3.178299,5.721425,14.974116,1.829926,0.108614,6.426007,-1.098478,0.986791,1.509223,0.032083,0.058276,0.149265,0.999944,-0.005492,0.004934,0.007546,0.676292,0.229462,0.098352,0.693039,27.035221,-10.662405,88.831058
37334,5.069582,-7.230245,6.628637,9.497658,4.382782,-6.277343,-0.395420,1.042153,1.297148,0.051508,-0.071839,0.066162,0.999963,-0.001977,0.005211,0.006486,0.671693,0.225134,0.098972,0.698819,26.630174,-10.468704,89.783586
37335,2.165882,1.264515,11.660905,4.178350,0.187109,1.357315,1.700216,1.149787,0.636112,0.022291,0.011724,0.116584,0.999942,0.008501,0.005749,0.003180,0.666926,0.227119,0.108004,0.701399,27.486294,-10.051939,90.421996
37336,1.935743,0.991753,10.188394,3.808109,0.315228,-0.120812,-0.184928,0.757939,-0.005425,0.019744,0.010011,0.101800,0.999992,-0.000925,0.003790,-0.000027,0.666719,0.223829,0.109841,0.702368,27.340927,-9.668926,90.626074
37337,0.486475,1.782881,9.727968,2.926055,-1.038094,-0.410112,0.640151,0.705977,-0.406385,0.005244,0.017507,0.097318,0.999987,0.003201,0.003530,-0.002032,0.667011,0.223249,0.114848,0.701474,27.705978,-9.206758,90.610221
37338,0.104001,7.679225,9.460455,-2.351071,-1.790386,2.008798,0.506651,0.577186,-0.457061,0.001489,0.076549,0.094795,0.999990,0.002533,0.002886,-0.002285,0.667689,0.222637,0.119010,0.700329,28.003062,-8.795928,90.536199
37339,0.257188,7.718018,8.251242,-2.923946,-1.412368,1.011933,0.059932,0.478819,-0.250215,0.002866,0.077152,0.082529,0.999996,0.000300,0.002394,-0.001251,0.668188,0.221003,0.121048,0.700021,28.032128,-8.490573,90.542472
37340,0.355590,8.699160,8.180713,-3.816085,-1.331864,1.429614,0.102352,0.488628,-0.063091,0.003783,0.086949,0.081843,0.999997,0.000512,0.002443,-0.000315,0.667978,0.219584,0.123062,0.700317,28.071021,-8.230270,90.647111
37341,0.142477,6.334974,8.886625,-1.411700,-1.406261,0.918277,-0.357182,0.403797,0.004911,0.001602,0.063508,0.088750,0.999996,-0.001786,0.002019,0.000025,0.668079,0.216971,0.123106,0.701027,27.845632,-8.031408,90.763126
37342,0.240907,4.189456,9.241593,0.616200,-1.153784,0.252380,-0.225345,0.299829,-0.043288,0.002557,0.041998,0.092365,0.999998,-0.001127,0.001499,-0.000216,0.668269,0.215130,0.123321,0.701376,27.703605,-7.871476,90.825516
37343,0.819906,3.405362,9.498317,1.392359,-0.523557,0.200995,-0.328978,0.202224,-0.201463,0.008329,0.034201,0.094919,0.999998,-0.001645,0.001011,-0.001007,0.669180,0.213189,0.123011,0.701154,27.516899,-7.719459,90.780434
37344,0.948573,3.087716,9.351962,1.575907,-0.332286,-0.050568,-0.251833,0.141028,-0.355234,0.009607,0.030978,0.093474,0.999997,-0.001259,0.000705,-0.001776,0.670585,0.211621,0.122935,0.700299,27.386957,-7.557445,90.639513
37345,1.534296,3.911064,9.141284,0.718384,0.238343,0.219290,-0.281776,0.101530,-0.448399,0.015477,0.039205,0.091350,0.999996,-0.001409,0.000508,-0.002242,0.672365,0.210036,0.122715,0.699107,27.247110,-7.391989,90.440195
37346,1.689526,4.612885,8.830177,-0.070055,0.407719,0.283549,-0.234837,0.082334,-0.456393,0.017037,0.046194,0.088241,0.999997,-0.001174,0.000412,-0.002282,0.674134,0.208666,0.122605,0.697832,27.134663,-7.234039,90.231192
37347,1.850335,5.279770,8.211478,-0.967056,0.625624,0.056524,-0.293832,0.117999,-0.457581,0.018673,0.052876,0.082026,0.999996,-0.001469,0.000590,-0.002288,0.675940,0.206974,0.122407,0.696623,26.986899,-7.058673,90.030882
37348,1.524716,5.172004,8.530497,-0.760159,0.309879,0.245623,-0.507603,0.135298,-0.516159,0.015439,0.051897,0.085163,0.999993,-0.002538,0.000676,-0.002581,0.678155,0.204458,0.121585,0.695356,26.719087,-6.859461,89.804152
37349,1.418397,3.969225,8.423594,0.224057,0.313144,-0.401256,-0.476412,0.142921,-0.567761,0.014357,0.039852,0.084131,0.999993,-0.002382,0.000715,-0.002839,0.680501,0.201990,0.120946,0.693895,26.471418,-6.644685,89.552176
37350,0.932687,4.238375,8.898236,0.153266,-0.195025,0.084310,-0.400856,0.165037,-0.591543,0.009526,0.042534,0.088889,0.999993,-0.002004,0.000825,-0.002958,0.682833,0.199683,0.120669,0.692318,26.266831,-6.412964,89.292642
37351,0.617696,4.132793,9.030390,0.268231,-0.480499,0.122425,-0.355038,0.136742,-0.562874,0.006355,0.041470,0.090226,0.999994,-0.001775,0.000684,-0.002814,0.685026,0.197647,0.120422,0.690777,26.086811,-6.204434,89.040274
37352,1.177361,4.722686,8.790866,-0.388022,0.118312,0.227458,-0.325075,0.161117,-0.494938,0.011961,0.047340,0.087822,0.999995,-0.001625,0.000806,-0.002475,0.686936,0.195666,0.120295,0.689465,25.918622,-6.000621,88.828504
37353,0.743428,4.238039,9.200656,0.184097,-0.306452,0.338062,-0.409241,0.158333,-0.446132,0.007602,0.042552,0.091914,0.999995,-0.002046,0.000792,-0.002231,0.688753,0.193436,0.119818,0.688364,25.699115,-5.811691,88.640937
37354,0.780848,3.802681,9.082813,0.491317,-0.216037,0.050343,-0.350825,0.130215,-0.451060,0.007954,0.038168,0.090756,0.999996,-0.001754,0.000651,-0.002255,0.690543,0.191496,0.119451,0.687176,25.513409,-5.636166,88.442994
37355,1.002372,4.252002,8.851609,-0.037400,0.048925,0.058043,-0.323584,0.103017,-0.476301,0.010171,0.042639,0.088442,0.999996,-0.001618,0.000515,-0.002382,0.692402,0.189730,0.119104,0.685855,25.344780,-5.469677,88.224931
37356,1.017612,4.605885,8.666834,-0.460746,0.108920,0.043247,-0.265115,0.136720,-0.433206,0.010335,0.046151,0.086600,0.999997,-0.001326,0.000684,-0.002166,0.694034,0.188072,0.119035,0.684673,25.206048,-5.296287,88.036981
37357,1.129029,4.931031,8.528924,-0.835238,0.262590,0.064842,-0.319544,0.181347,-0.316876,0.011446,0.049428,0.085200,0.999997,-0.001598,0.000907,-0.001584,0.695286,0.186143,0.118822,0.683966,25.029233,-5.129118,87.920314
37358,1.734268,3.997348,8.385842,-0.058346,0.917289,-0.407168,-0.405993,0.273431,-0.297058,0.017517,0.040118,0.083753,0.999996,-0.002030,0.001367,-0.001485,0.696493,0.183607,0.118617,0.683458,24.799641,-4.918750,87.835524
37359,1.373321,1.953886,9.517738,2.214014,0.491830,-0.265596,-0.566638,0.284715,-0.478632,0.013916,0.019775,0.095102,0.999992,-0.002833,0.001424,-0.002393,0.698452,0.180366,0.118065,0.682418,24.485490,-4.660075,87.657793
37360,0.304015,0.999466,10.150006,3.259344,-0.601205,-0.162348,-0.351446,0.199325,-0.767665,0.003180,0.010161,0.101479,0.999991,-0.001757,0.000997,-0.003838,0.701242,0.177990,0.118209,0.680151,24.307240,-4.377851,87.307292
37361,-0.717405,2.351282,10.601259,2.126840,-1.614192,0.737223,-0.325845,0.043503,-1.042805,-0.007028,0.023722,0.105976,0.999985,-0.001629,0.000218,-0.005214,0.705019,0.176071,0.118134,0.676751,24.155594,-4.113811,86.775381
37362,-0.057206,3.357614,9.287164,0.678771,-0.787844,0.008039,-0.294352,-0.093435,-1.157216,-0.000421,0.033715,0.092822,0.999982,-0.001472,-0.000467,-0.005786,0.709216,0.174647,0.117781,0.672785,24.025786,-3.895390,86.150719
37363,0.661098,5.381804,8.649023,-1.396974,0.094745,0.298974,-0.186362,-0.041533,-1.054122,0.006877,0.053863,0.086441,0.999986,-0.000932,-0.000208,-0.005271,0.712916,0.173492,0.117881,0.669146,23.951552,-3.675478,85.592203
37364,1.019353,6.047854,8.281440,-2.138420,0.567134,0.252258,-0.284981,0.035961,-0.811178,0.010454,0.060554,0.082726,0.999991,-0.001425,0.000180,-0.004056,0.715829,0.171860,0.117714,0.666481,23.809286,-3.471794,85.178752
37365,1.020575,4.868831,8.008541,-1.187548,0.578219,-0.477858,-0.277542,0.152635,-0.578384,0.010408,0.048769,0.080010,0.999995,-0.001388,0.000763,-0.002892,0.717878,0.170006,0.117787,0.664737,23.661466,-3.262225,84.914331
37366,0.912002,4.103255,8.374186,-0.368379,0.436829,-0.460215,-0.205743,0.293353,-0.469623,0.009339,0.041097,0.083686,0.999996,-0.001029,0.001467,-0.002348,0.719417,0.168000,0.118511,0.663453,23.548590,-3.003803,84.738824
37367,0.835965,3.482600,9.032301,0.437251,0.313208,-0.111126,-0.219180,0.350536,-0.464096,0.008599,0.034905,0.090270,0.999995,-0.001096,0.001753,-0.002320,0.720907,0.165762,0.119390,0.662241,23.426655,-2.717482,84.579004
37368,0.464526,3.377856,9.497406,0.666098,-0.051275,0.256070,-0.185493,0.334439,-0.517600,0.004892,0.033854,0.094935,0.999995,-0.000927,0.001672,-0.002588,0.722550,0.163661,0.120366,0.660794,23.324423,-2.427291,84.386655
37369,0.017535,3.840260,9.492598,0.183662,-0.410855,0.417393,-0.178626,0.305556,-0.554152,0.000427,0.038486,0.094891,0.999995,-0.000893,0.001528,-0.002771,0.724316,0.161661,0.121288,0.659182,23.226461,-2.144848,84.168219
37370,-0.259320,4.286193,9.462472,-0.284744,-0.597939,0.557375,-0.285582,0.254899,-0.556056,-0.002353,0.043004,0.094566,0.999994,-0.001428,0.001274,-0.002780,0.726200,0.159433,0.121676,0.657578,23.066357,-1.888657,83.936585
37371,-0.239798,4.438091,9.369326,-0.489186,-0.508919,0.533317,-0.382377,0.227582,-0.569748,-0.002165,0.044566,0.093611,0.999993,-0.001912,0.001138,-0.002849,0.728212,0.156938,0.121654,0.655955,22.850513,-1.645077,83.690992
37372,-0.203913,4.702386,9.058120,-0.885199,-0.378911,0.349796,-0.430541,0.186696,-0.568816,-0.001821,0.047224,0.090481,0.999993,-0.002153,0.000933,-0.002844,0.730276,0.154395,0.121325,0.654323,22.606069,-1.423747,83.435681
37373,0.275438,4.656982,8.669458,-0.976950,0.166672,-0.017775,-0.480117,0.210320,-0.543933,0.002972,0.046770,0.086579,0.999993,-0.002401,0.001052,-0.002720,0.732271,0.151612,0.120898,0.652822,22.332088,-1.197066,83.197961
37374,0.252431,5.093231,8.816312,-1.366412,0.227080,0.277561,-0.453528,0.223574,-0.471807,0.002743,0.051126,0.088044,0.999994,-0.002268,0.001118,-0.002359,0.733994,0.148920,0.120552,0.651569,22.071483,-0.979514,83.000118
37375,0.369243,5.178506,8.542252,-1.573304,0.415648,0.050120,-0.477004,0.262034,-0.345322,0.003894,0.051982,0.085294,0.999995,-0.002385,0.001310,-0.001727,0.735290,0.146095,0.120172,0.650818,21.795729,-0.770084,82.876963
37376,0.571940,5.056485,8.575581,-1.464506,0.645590,0.029766,-0.456712,0.340921,-0.181745,0.005911,0.050755,0.085630,0.999996,-0.002284,0.001705,-0.000909,0.735985,0.143182,0.120031,0.650705,21.529927,-0.553282,82.856396
37377,0.289805,4.972146,8.974802,-1.318125,0.376292,0.359527,-0.450053,0.397661,-0.001503,0.003077,0.049923,0.089630,0.999995,-0.002250,0.001988,-0.000008,0.736047,0.140219,0.119988,0.651288,21.267056,-0.344533,82.943073
37378,0.065561,4.739343,9.188722,-1.100051,0.156904,0.466574,-0.529278,0.432958,0.132540,0.000823,0.047637,0.091760,0.999994,-0.002646,0.002165,0.000663,0.735700,0.136927,0.119724,0.652428,20.958884,-0.143643,83.107422
37379,-0.001297,4.302536,9.238006,-0.740955,0.078416,0.350825,-0.620608,0.437580,0.207611,0.000144,0.043312,0.092246,0.999992,-0.003103,0.002188,0.001038,0.735157,0.133328,0.119123,0.653895,20.598795,0.044910,83.311968
37380,0.323480,4.476099,9.048743,-0.995230,0.466856,0.227774,-0.716113,0.445896,0.169849,0.003398,0.045087,0.090319,0.999991,-0.003581,0.002229,0.000849,0.734784,0.129325,0.118268,0.655271,20.184838,0.247350,83.496399
37381,-0.081865,4.674745,9.292375,-1.218218,0.118817,0.517332,-0.824731,0.415033,0.081531,-0.000645,0.047130,0.092731,0.999989,-0.004124,0.002075,0.000408,0.734773,0.124970,0.116994,0.656357,19.708761,0.451353,83.625877
37382,0.683960,4.882541,8.589791,-1.646206,0.965896,-0.094261,-0.887153,0.388287,0.004616,0.007005,0.049206,0.085667,0.999988,-0.004436,0.001941,0.000023,0.735053,0.120426,0.115467,0.657162,19.197231,0.657175,83.706724
37383,1.573975,4.384090,8.600413,-1.168905,1.843946,-0.278686,-1.077030,0.433184,-0.121189,0.015952,0.044293,0.085732,0.999983,-0.005385,0.002166,-0.000606,0.735812,0.114960,0.113548,0.657625,18.576070,0.910975,83.725874
37384,1.747926,4.235852,8.804536,-1.044085,2.055269,-0.158564,-1.099238,0.476839,-0.289879,0.017751,0.042816,0.087769,0.999981,-0.005496,0.002384,-0.001449,0.737089,0.109171,0.111815,0.657480,17.941132,1.219364,83.658117
37385,2.327725,4.670668,9.212477,-1.371136,2.747488,0.320068,-1.257549,0.517807,-0.488402,0.023630,0.047227,0.091768,0.999974,-0.006288,0.002589,-0.002442,0.739047,0.102546,0.109811,0.656685,17.212054,1.583293,83.485474
37386,3.466105,5.605042,9.393718,-2.183848,4.076789,0.688781,-1.249923,0.558098,-0.667983,0.035111,0.056519,0.093487,0.999971,-0.006250,0.002790,-0.003340,0.741528,0.095716,0.108072,0.655206,16.483765,1.997052,83.216288
37387,3.772266,6.441677,10.219972,-2.820451,4.591993,1.638464,-1.332441,0.542564,-0.777373,0.038251,0.064947,0.101665,0.999967,-0.006662,0.002713,-0.003887,0.744369,0.088563,0.106045,0.653320,15.703008,2.415917,82.878938
37388,3.501990,6.476023,10.750989,-2.863337,4.446433,2.095896,-1.301378,0.470427,-0.750615,0.035516,0.065325,0.107003,0.999969,-0.006507,0.002352,-0.003753,0.747097,0.081777,0.103837,0.651442,14.938540,2.786042,82.539845
37389,3.541906,5.720559,11.089252,-2.171829,4.494510,2.159005,-1.270516,0.490068,-0.647333,0.035876,0.057792,0.110439,0.999972,-0.006353,0.002450,-0.003237,0.749423,0.075084,0.101750,0.649903,14.191555,3.147918,82.255861
37390,4.639759,2.206689,11.029185,1.249602,5.148996,1.140203,-0.577390,0.267269,-0.598087,0.046611,0.022246,0.110166,0.999990,-0.002887,0.001336,-0.002990,0.751412,0.071745,0.101062,0.648089,13.841036,3.375745,81.965080
37391,10.057362,11.898262,8.787178,-7.731791,11.962368,1.006181,1.465350,0.067858,-0.813598,0.101085,0.117924,0.088704,0.999965,0.007327,0.000339,-0.004068,0.753436,0.076604,0.106313,0.644332,14.649917,3.525007,81.526809
37392,9.934250,11.880097,11.164062,-6.991702,11.959030,3.323493,-0.618239,-0.098071,-0.704382,0.099706,0.118795,0.111322,0.999989,-0.003091,-0.000490,-0.003522,0.755955,0.074220,0.104181,0.642005,14.268200,3.566830,81.126610
37393,11.822840,8.441276,8.863486,-3.933312,13.229837,0.141930,0.532412,-0.571504,-0.569391,0.118213,0.083839,0.089196,0.999988,0.002662,-0.002858,-0.002847,0.757848,0.077757,0.103900,0.639394,14.545267,3.327702,80.733217
37394,11.405084,10.659604,9.805402,-5.726110,13.169108,1.747203,0.721066,-0.922612,-0.468895,0.113845,0.105973,0.098962,0.999980,0.003605,-0.004613,-0.002344,0.759497,0.083208,0.102847,0.636917,14.935320,2.879187,80.344190
37395,9.077642,6.522194,8.781220,-2.301262,10.071900,-0.050031,0.981602,-1.126280,-0.398602,0.090408,0.064608,0.088640,0.999970,0.004908,-0.005631,-0.001993,0.760889,0.090302,0.101818,0.634450,15.475960,2.313157,79.958878
37396,5.923224,7.132836,9.990610,-2.935002,6.949023,1.539178,1.524315,-1.289661,-0.280525,0.058683,0.070480,0.100825,0.999949,0.007621,-0.006448,-0.001403,0.761671,0.100068,0.101823,0.632041,16.335806,1.639840,79.607780
37397,4.206729,5.733976,9.206343,-1.980184,4.884314,0.557941,1.394846,-1.360628,-0.162206,0.041484,0.056661,0.092744,0.999952,0.006974,-0.006803,-0.000811,0.762117,0.109579,0.101085,0.630041,17.123786,0.916675,79.298929
37398,2.692488,4.961266,9.514800,-1.308246,3.098454,0.726746,1.371148,-1.276777,-0.078428,0.026335,0.048948,0.095654,0.999956,0.006856,-0.006384,-0.000392,0.762186,0.118810,0.100530,0.628372,17.905813,0.225244,79.042141
37399,1.279753,4.292136,9.925521,-0.708493,1.420430,0.960136,1.206176,-1.230665,0.049151,0.012175,0.042324,0.099588,0.999963,0.006031,-0.006153,0.000246,0.761882,0.127280,0.099555,0.627236,18.592963,-0.456683,78.852622
37400,0.421037,3.481819,10.063664,0.024315,0.268746,0.841047,1.169191,-1.256047,0.214691,0.003540,0.034233,0.100862,0.999963,0.005846,-0.006280,0.001073,0.761021,0.135805,0.098248,0.626699,19.263603,-1.184921,78.741656
37401,1.726314,2.901880,9.524438,0.734140,1.337137,0.176636,1.110951,-1.266923,0.339744,0.016610,0.028517,0.095510,0.999963,0.005555,-0.006335,0.001699,0.759773,0.144150,0.096632,0.626600,19.897321,-1.937632,78.686232
37402,1.918129,1.671711,9.687695,2.043733,1.146731,-0.074560,1.089512,-1.248950,0.380403,0.018544,0.016224,0.097083,0.999964,0.005447,-0.006245,0.001902,0.758332,0.152410,0.094973,0.626645,20.522207,-2.692202,78.649519
37403,2.631607,1.209879,9.805905,2.730776,1.604734,-0.091059,1.142364,-1.316043,0.320812,0.025651,0.011579,0.098296,0.999961,0.005712,-0.006580,0.001604,0.757029,0.160997,0.093271,0.626328,21.177375,-3.465941,78.557169
37404,2.050471,0.281311,9.889550,3.578573,0.719929,-0.391445,1.100942,-1.353666,0.259399,0.019831,0.002294,0.099045,0.999961,0.005505,-0.006768,0.001297,0.755892,0.169547,0.091331,0.625731,21.816606,-4.250016,78.416814
37405,1.369981,0.587364,10.310936,3.395307,-0.115888,0.035793,1.236296,-1.413963,0.186850,0.012965,0.005248,0.103236,0.999955,0.006181,-0.007070,0.000934,0.754850,0.178707,0.089648,0.624683,22.537084,-5.044394,78.213783
37406,0.092734,-0.065950,10.435758,3.859236,-1.649770,-0.257609,1.115139,-1.447919,0.167092,0.000173,-0.001241,0.104355,0.999958,0.005576,-0.007239,0.000835,0.753909,0.187532,0.087459,0.623542,23.196522,-5.854115,77.984363
37407,-1.342830,-0.475615,10.011474,3.854867,-3.192897,-1.026258,1.274433,-1.395071,0.170438,-0.014122,-0.005405,0.099985,0.999955,0.006372,-0.006975,0.000852,0.752738,0.196737,0.085965,0.622327,23.947113,-6.629649,77.757083
37408,-2.354880,0.108425,10.142923,3.236372,-4.260187,-0.879039,1.141669,-1.319908,0.112439,-0.024218,0.000492,0.101275,0.999962,0.005708,-0.006599,0.000562,0.751764,0.205204,0.084379,0.620985,24.629861,-7.353482,77.508462
37409,-2.588224,-0.463029,9.821514,3.628759,-4.634595,-1.522563,0.871550,-1.222367,-0.002831,-0.026482,-0.005057,0.098033,0.999972,0.004358,-0.006112,-0.000014,0.751353,0.212254,0.082446,0.619370,25.164265,-7.992037,77.213621
37410,-3.518906,-0.211167,9.970216,3.289596,-5.645196,-1.497572,0.815243,-1.108196,-0.098845,-0.035742,-0.002500,0.099495,0.999976,0.004076,-0.005541,-0.000494,0.751196,0.218721,0.080854,0.617518,25.675611,-8.548909,76.891911
37411,-3.975874,0.369437,10.022219,2.714281,-6.118148,-1.351686,0.716949,-1.007101,-0.136603,-0.040260,0.003363,0.100033,0.999981,0.003585,-0.005035,-0.000683,0.751207,0.224449,0.079387,0.615636,26.131325,-9.037805,76.569687
37412,-4.669817,1.348266,9.806145,1.617872,-6.686427,-1.300422,0.625215,-0.917564,-0.097230,-0.047141,0.013199,0.097887,0.999984,0.003126,-0.004588,-0.000486,0.751123,0.229592,0.077917,0.614028,26.532472,-9.491506,76.287969
37413,-4.618334,1.108300,8.713867,1.413353,-6.470161,-2.421626,0.370460,-0.749112,-0.084298,-0.046505,0.010941,0.086985,0.999991,0.001852,-0.003746,-0.000421,0.751223,0.233233,0.076291,0.612736,26.779906,-9.857515,76.052892
37414,-5.258759,1.376172,8.796601,1.057094,-7.115247,-2.384083,0.327266,-0.506505,-0.090086,-0.052804,0.013642,0.087855,0.999995,0.001636,-0.002533,-0.000450,0.751276,0.235986,0.075441,0.611722,26.995019,-10.099664,75.877777
37415,-4.837457,1.538302,8.756541,0.995495,-6.710587,-2.301275,0.082490,-0.311299,-0.062896,-0.048506,0.015362,0.087496,0.999999,0.000412,-0.001556,-0.000314,0.751469,0.237209,0.074552,0.611121,27.057545,-10.246284,75.766848
37416,-5.087012,1.453623,8.817006,1.029909,-6.991697,-2.343701,0.029953,-0.085566,0.026469,-0.050910,0.014516,0.088150,1.000000,0.000150,-0.000428,0.000132,0.751356,0.237595,0.074239,0.611147,27.072432,-10.302866,75.762543
37417,-4.824579,1.893639,8.618487,0.624726,-6.627467,-2.274310,-0.111016,0.113280,0.127662,-0.048209,0.018953,0.086202,0.999999,-0.000555,0.000566,0.000638,0.751037,0.236864,0.074127,0.611837,26.986587,-10.282404,75.862771
37418,-4.487936,1.933001,8.746144,0.728100,-6.322116,-2.074875,-0.124534,0.339280,0.282924,-0.044758,0.019321,0.087525,0.999997,-0.000623,0.001696,0.001415,0.750166,0.235460,0.074635,0.613383,26.869119,-10.187887,76.103518
37419,-3.531430,2.512798,8.917581,0.518778,-5.351299,-1.481854,-0.247052,0.466997,0.477988,-0.035166,0.025154,0.089227,0.999994,-0.001235,0.002335,0.002390,0.748793,0.233263,0.075019,0.615848,26.657296,-10.076398,76.478363
37420,-2.925125,2.320982,8.841945,0.803643,-4.745240,-1.508471,-0.321880,0.633809,0.638689,-0.029045,0.023259,0.088474,0.999989,-0.001609,0.003169,0.003193,0.746933,0.230337,0.075608,0.619128,26.382236,-9.919686,76.979755
37421,-2.898585,2.270883,8.900211,0.880460,-4.699940,-1.451611,-0.409756,0.728543,0.769875,-0.028749,0.022780,0.089060,0.999984,-0.002049,0.003643,0.003849,0.744715,0.226824,0.076126,0.623022,26.041897,-9.744075,77.572603
37422,-3.547936,1.803162,8.330230,0.945529,-5.196644,-2.240863,-0.388673,0.869726,0.875021,-0.035196,0.018039,0.083421,0.999979,-0.001943,0.004349,0.004375,0.742061,0.222986,0.077114,0.627436,25.701243,-9.518832,78.254859
37423,-5.433886,2.060024,7.586496,0.079845,-6.764189,-3.062545,-0.373899,1.160071,0.905277,-0.053991,0.020498,0.076140,0.999971,-0.001869,0.005800,0.004526,0.739150,0.218288,0.079188,0.632248,25.358013,-9.146600,79.023604
37424,-8.979252,5.941574,11.563124,-2.394053,-10.579863,1.674821,0.505079,1.889239,0.300167,-0.088783,0.058988,0.116622,0.999951,0.002525,0.009446,0.001501,0.736846,0.214278,0.087392,0.635221,25.547886,-8.246905,79.655279
37425,-7.852688,12.293566,28.167099,-1.082744,-12.014252,19.524261,-0.030206,1.430268,0.490001,-0.076811,0.122789,0.282206,0.999971,-0.000151,0.007151,0.002450,0.734655,0.209818,0.091992,0.638588,25.441145,-7.632058,80.271393
37426,13.528833,-1.498503,3.941633,5.042494,12.351939,-5.037485,-2.977906,0.175070,1.872946,0.135452,-0.013129,0.039503,0.999845,-0.014889,0.000875,0.009364,0.731589,0.199133,0.081111,0.646951,23.590687,-7.988711,81.302437
37427,2.133299,-1.538051,6.635409,4.264746,0.795477,-4.145108,1.870745,1.879697,1.219508,0.022050,-0.015866,0.066002,0.999894,0.009353,0.009398,0.006097,0.724920,0.200355,0.092769,0.652490,24.513203,-7.293898,82.393276
37428,-0.982597,5.280512,15.783751,1.337253,-3.231263,6.489027,0.032671,0.984863,1.023153,-0.009318,0.052731,0.157893,0.999975,0.000163,0.004924,0.005116,0.721054,0.197715,0.095376,0.657185,24.430693,-7.026479,83.170535
37429,1.764518,-4.913226,6.546993,7.266953,0.459874,-5.678049,-0.475083,0.884041,0.945533,0.018166,-0.048892,0.065507,0.999976,-0.002375,0.004420,0.004728,0.717956,0.193531,0.096019,0.661713,24.068593,-6.791069,83.881839
37430,0.781192,3.306326,10.735857,1.397231,-0.637662,1.342468,1.843523,1.267955,0.747008,0.008373,0.032103,0.107606,0.999930,0.009217,0.006340,0.003735,0.713023,0.196281,0.105897,0.664723,25.040294,-6.311398,84.581507
37431,0.974914,4.768074,10.147815,-0.040641,-0.232435,1.439298,0.212471,0.936476,0.809714,0.010031,0.047613,0.101482,0.999980,0.001062,0.004682,0.004049,0.709592,0.194340,0.109099,0.668438,25.087271,-6.025866,85.236952
37432,0.313418,3.253287,8.565779,0.668152,-0.672120,-0.693713,0.839055,1.091143,0.863294,0.003462,0.032188,0.085775,0.999967,0.004195,0.005456,0.004316,0.705253,0.194117,0.114887,0.672114,25.489636,-5.675155,85.958857
37433,-0.967931,6.538656,10.132120,-1.635090,-2.015272,2.003184,0.781553,1.018169,0.933278,-0.009466,0.064945,0.101624,0.999969,0.003908,0.005091,0.004666,0.700729,0.193971,0.120149,0.675957,25.861584,-5.385086,86.701057
37434,-0.825192,5.788459,9.466018,-1.151610,-1.782934,1.109182,0.496318,0.866333,1.009554,-0.008133,0.057608,0.094839,0.999975,0.002482,0.004332,0.005048,0.696279,0.193367,0.123836,0.680051,26.072593,-5.195269,87.445343
37435,-0.352504,5.454592,9.243568,-0.865857,-1.274437,0.814927,0.495817,0.775827,1.008855,-0.003440,0.054299,0.092584,0.999977,0.002479,0.003879,0.005044,0.691850,0.193066,0.127198,0.684025,26.287870,-5.055432,88.167102
37436,0.604973,5.108413,9.250014,-0.481980,-0.300009,0.756240,0.269702,0.659537,0.721086,0.006171,0.050981,0.092549,0.999987,0.001349,0.003298,0.003605,0.688676,0.192183,0.129662,0.687007,26.390587,-4.903136,88.710707
37437,0.192379,2.685014,10.027256,2.027577,-0.705155,0.345251,-0.166438,0.435974,0.220096,0.002113,0.026936,0.100246,0.999997,-0.000832,0.002180,0.001100,0.687772,0.190246,0.130334,0.688324,26.271678,-4.739257,88.939350
37438,0.469124,2.080281,9.759044,2.450222,-0.363454,-0.135351,0.043950,0.225720,-0.221847,0.004824,0.020776,0.097590,0.999999,0.000220,0.001129,-0.001109,0.688327,0.189459,0.131430,0.687777,26.296488,-4.570020,88.886107
37439,1.033259,3.884890,9.237365,0.613059,0.236028,0.240038,-0.062320,0.115017,-0.489941,0.010481,0.038852,0.092356,0.999997,-0.000312,0.000575,-0.002450,0.689970,0.188517,0.132029,0.686273,26.273572,-4.390683,88.666946
