// General information: 
//  MT Manager version: 2022.0.0 
//  XDA version: 2022.0.0 build 7085 rev 119802 built on 2022-11-08
// Device information: 
//  DeviceId: 00B4737C
//  ProductCode: MTW2-3A7G6
//  Firmware Version: 4.14.0
//  Hardware Version: 2.0.0
// Device settings: 
//  Filter Profile: human(46.1)
//  Option Flags: Orientation Smoother Disabled, Position/Velocity Smoother Disabled, Continuous Zero Rotation Update Disabled, AHS Disabled, ICC Disabled
// Coordinate system: ENU
PacketCounter,Acc_X,Acc_Y,Acc_Z,FreeAcc_E,FreeAcc_N,FreeAcc_U,Gyr_X,Gyr_Y,Gyr_Z,VelInc_X,VelInc_Y,VelInc_Z,OriInc_q0,OriInc_q1,OriInc_q2,OriInc_q3,Quat_q0,Quat_q1,Quat_q2,Quat_q3,Roll,Pitch,Yaw
39217,-5.095486,3.909703,9.042233,-1.607393,-0.460424,1.151608,0.238261,0.436356,-0.123672,-0.050733,0.039021,0.090580,0.999997,0.001191,0.002182,-0.000618,0.750771,-0.042367,0.238090,0.614704,14.544131,24.179033,81.750022
39218,-4.148383,2.927441,8.418403,-0.739273,-0.019865,-0.009554,-0.235912,0.421317,-0.046050,-0.041300,0.029383,0.084237,0.999997,-0.001180,0.002107,-0.000230,0.750332,-0.044610,0.238903,0.614766,14.422495,24.416229,81.793452
39219,-4.566677,2.257820,8.732782,-0.073103,-0.402993,0.289088,-0.087173,0.404402,-0.095371,-0.045479,0.022638,0.087410,0.999998,-0.000436,0.002022,-0.000477,0.750091,-0.046266,0.240096,0.614473,14.375670,24.648205,81.805083
39220,-4.868984,2.561973,8.662916,-0.405592,-0.589552,0.424723,0.303076,0.354197,-0.097903,-0.048524,0.025512,0.086754,0.999997,0.001515,0.001771,-0.000490,0.750008,-0.046342,0.242299,0.613704,14.545497,24.855597,81.806314
39221,-4.670111,2.979750,8.773276,-0.711679,-0.238607,0.536017,0.221298,0.295950,-0.090532,-0.046558,0.029721,0.087835,0.999998,0.001106,0.001480,-0.000453,0.749947,-0.046504,0.244032,0.613079,14.669875,25.026888,81.804623
39222,-4.669577,1.926769,10.038255,0.665528,0.001791,1.405193,-0.382335,0.215989,-0.067267,-0.046581,0.019475,0.100396,0.999998,-0.001912,0.001080,-0.000336,0.749772,-0.048689,0.243621,0.613287,14.445798,25.153220,81.803027
39223,-5.245674,0.080455,9.418807,2.110435,-1.172653,0.694851,-0.347677,0.035499,-0.020917,-0.052440,0.000974,0.094196,0.999998,-0.001738,0.000177,-0.000105,0.749677,-0.050100,0.242649,0.613674,14.244544,25.170108,81.802290
39224,-4.497339,1.471266,8.914202,0.738982,-0.347747,0.246467,0.272693,0.073438,0.042646,-0.044944,0.014582,0.089178,0.999999,0.001363,0.000367,0.000213,0.749497,-0.049259,0.243739,0.613530,14.414718,25.201712,81.845225
39225,-5.004055,3.250050,9.595485,-0.786201,-0.117382,1.458729,-0.093366,0.003100,0.069126,-0.050050,0.032528,0.095940,1.000000,-0.000467,0.000016,0.000346,0.749229,-0.049512,0.243446,0.613953,14.380015,25.187974,81.894432
39226,-4.621941,2.404124,8.860826,-0.208298,-0.258916,0.460840,-0.898121,-0.191261,0.035541,-0.046308,0.024430,0.088455,0.999989,-0.004491,-0.000956,0.000178,0.749095,-0.052252,0.239946,0.615266,13.860054,25.073635,81.891992
39227,-4.051738,1.766200,7.956339,0.132411,-0.244491,-0.715335,-0.623163,-0.138889,0.002966,-0.040573,0.017909,0.079480,0.999995,-0.003116,-0.000694,0.000015,0.749056,-0.054133,0.237474,0.616109,13.495635,24.990462,81.879435
39228,-3.858565,2.323329,8.323194,-0.294070,0.196700,-0.355586,-0.050731,0.048084,-0.008008,-0.038565,0.023256,0.083235,1.000000,-0.000254,0.000240,-0.000040,0.748983,-0.054488,0.237463,0.616171,13.465387,25.015278,81.886907
39229,-4.098317,2.364313,9.002676,-0.177628,0.250601,0.352940,-0.179076,0.041048,-0.027272,-0.040961,0.023729,0.090014,1.000000,-0.000895,0.000205,-0.000136,0.748939,-0.055296,0.237024,0.616321,13.358873,25.036391,81.882549
39230,-2.759060,2.641088,7.433064,-0.724419,0.940351,-1.540498,0.049836,0.233616,-0.031395,-0.027500,0.026397,0.074369,0.999999,0.000249,0.001168,-0.000157,0.748745,-0.055874,0.238011,0.616125,13.391652,25.167738,81.902736
39231,-4.986448,3.262847,9.300697,-1.051448,-0.180216,1.181660,0.050040,0.333485,-0.017480,-0.049706,0.032610,0.093098,0.999999,0.000250,0.001667,-0.000087,0.748385,-0.056711,0.239375,0.615957,13.437433,25.350415,81.947445
39232,-3.340454,1.733039,8.193723,0.273638,0.540960,-0.816497,-0.554401,0.170362,-0.047726,-0.033331,0.017565,0.081917,0.999996,-0.002772,0.000852,-0.000239,0.748140,-0.059374,0.238258,0.616436,13.115742,25.448669,81.948136
39233,-4.454691,1.815365,8.633296,0.159131,-0.241653,0.066068,0.002064,0.312033,-0.081462,-0.044405,0.018171,0.086402,0.999999,0.000010,0.001560,-0.000407,0.747989,-0.060402,0.239375,0.616087,13.115513,25.627893,81.949263
39234,-4.522569,2.652634,8.756225,-0.615645,-0.030549,0.374636,-0.181957,0.234704,-0.076028,-0.045113,0.026623,0.087591,0.999999,-0.000910,0.001174,-0.000380,0.747859,-0.061903,0.239636,0.615994,13.003448,25.765724,81.941256
39235,-5.163277,1.840548,9.152620,0.174202,-0.615105,0.836667,-0.157792,0.162799,-0.057477,-0.051553,0.018493,0.091554,0.999999,-0.000789,0.000814,-0.000287,0.747761,-0.063040,0.239709,0.615969,12.908621,25.858614,81.935424
39236,-5.094175,1.447957,8.940036,0.496634,-0.716708,0.541593,0.146749,0.047759,-0.017992,-0.050919,0.014419,0.089423,1.000000,0.000734,0.000239,-0.000090,0.747778,-0.062667,0.240301,0.615756,12.988812,25.884592,81.936452
39237,-4.822649,1.586207,8.701157,0.352578,-0.535857,0.240800,0.302054,0.029414,0.010761,-0.048215,0.015728,0.087042,0.999999,0.001510,0.000147,0.000054,0.747773,-0.061594,0.241313,0.615475,13.167472,25.894402,81.953883
39238,-4.780910,2.062662,8.778490,-0.038728,-0.361129,0.387387,0.434048,0.009404,0.055294,-0.047811,0.020423,0.087832,0.999998,0.002170,0.000047,0.000276,0.747696,-0.059940,0.242668,0.615199,13.429731,25.889329,81.994891
39239,-4.721256,2.198837,8.745545,-0.129195,-0.296998,0.361037,0.413143,-0.010469,0.085162,-0.047226,0.021788,0.087498,0.999998,0.002066,-0.000052,0.000426,0.747539,-0.058240,0.243893,0.615069,13.689486,25.866945,82.052491
39240,-4.572577,1.672360,9.010553,0.499295,-0.197914,0.415058,0.268144,-0.066127,0.106737,-0.045764,0.016578,0.090113,0.999999,0.001341,-0.000331,0.000534,0.747341,-0.056911,0.244469,0.615205,13.865499,25.812514,82.113788
39241,-4.609309,1.045364,8.877339,1.082294,-0.446446,0.176048,0.405363,-0.079579,0.128633,-0.046135,0.010244,0.088776,0.999998,0.002027,-0.000398,0.000643,0.747127,-0.054975,0.245423,0.615262,14.127553,25.745376,82.187320
39242,-4.776115,1.670982,8.641592,0.455982,-0.557630,0.175364,0.802581,-0.065457,0.167019,-0.047803,0.016323,0.086466,0.999992,0.004013,-0.000327,0.000835,0.746880,-0.051577,0.247659,0.614959,14.625508,25.682167,82.285158
39243,-4.699832,2.903631,8.686843,-0.603362,-0.202852,0.462275,0.897606,-0.093247,0.202612,-0.047068,0.028598,0.086976,0.999989,0.004488,-0.000466,0.001013,0.746567,-0.047670,0.250088,0.614672,15.187301,25.595654,82.400525
39244,-4.883234,3.028001,9.022504,-0.568510,-0.238420,0.866264,0.461914,-0.167282,0.242527,-0.048944,0.030012,0.090254,0.999996,0.002310,-0.000836,0.001213,0.746111,-0.045135,0.250907,0.615082,15.501756,25.463254,82.526139
39245,-4.720107,2.324965,8.580657,0.006684,-0.461037,0.242152,0.201191,-0.265808,0.263476,-0.047346,0.023101,0.085767,0.999998,0.001006,-0.001329,0.001317,0.745649,-0.043219,0.250562,0.615921,15.666908,25.271015,82.647941
39246,-4.130029,2.410111,8.487634,-0.006807,0.017151,-0.070760,0.364253,-0.264018,0.250962,-0.041442,0.023895,0.084865,0.999997,0.001821,-0.001320,0.001255,0.745256,-0.040740,0.250719,0.616501,15.919160,25.083084,82.760512
39247,-4.398526,3.192094,8.543227,-0.715441,-0.055627,0.287215,0.436710,-0.251745,0.235984,-0.044130,0.031682,0.085446,0.999996,0.002184,-0.001259,0.001180,0.744901,-0.038023,0.251143,0.616931,16.211566,24.902109,82.865894
39248,-4.186839,3.838850,8.369548,-1.324314,0.185195,0.213650,0.223918,-0.321886,0.207729,-0.042043,0.038251,0.083671,0.999998,0.001120,-0.001609,0.001039,0.744678,-0.035942,0.250640,0.617529,16.366553,24.688425,82.939885
39249,-2.999518,3.671095,7.563038,-1.294672,0.889043,-1.025938,-0.067762,-0.320393,0.061030,-0.030127,0.036727,0.075570,0.999999,-0.000339,-0.001602,0.000305,0.744848,-0.035110,0.249219,0.617947,16.319885,24.497490,82.926089
39250,-2.757984,3.740133,7.627297,-1.326261,1.127883,-1.052574,-0.144311,-0.196252,-0.158412,-0.027625,0.037478,0.076219,0.999999,-0.000722,-0.000981,-0.000792,0.745530,-0.035245,0.247980,0.617615,16.181044,24.411664,82.800915
39251,-3.763615,4.281634,7.906578,-1.889394,0.442196,-0.260429,-0.333006,-0.184782,-0.338326,-0.037636,0.043012,0.078959,0.999997,-0.001665,-0.000924,-0.001692,0.746712,-0.036314,0.246174,0.616847,15.893353,24.358357,82.570506
39252,-4.616195,4.132744,8.453210,-1.743545,-0.167144,0.520604,-0.789401,-0.254989,-0.417961,-0.046183,0.041757,0.084309,0.999989,-0.003947,-0.001275,-0.002090,0.748137,-0.038996,0.242675,0.616343,15.316850,24.278844,82.279426
39253,-4.761811,3.145996,8.744202,-0.853400,-0.433440,0.585179,-1.112720,-0.368163,-0.425512,-0.047711,0.032047,0.087177,0.999981,-0.005564,-0.001841,-0.002128,0.749633,-0.042515,0.237755,0.616211,14.550311,24.132917,81.968034
39254,-4.361017,2.510840,8.699456,-0.347314,-0.248268,0.228209,-1.173947,-0.422594,-0.428234,-0.043739,0.025712,0.086752,0.999978,-0.005870,-0.002113,-0.002141,0.751162,-0.046129,0.232424,0.616123,13.742930,23.954999,81.647941
39255,-3.679003,2.251381,8.327132,-0.246345,0.162979,-0.439512,-1.147962,-0.406611,-0.447797,-0.036908,0.023074,0.083065,0.999979,-0.005740,-0.002033,-0.002239,0.752702,-0.049684,0.227229,0.615905,12.952402,23.782919,81.322722
39256,-2.904753,2.401519,8.059004,-0.473877,0.799083,-0.964620,-1.121201,-0.297599,-0.490655,-0.029107,0.024538,0.080410,0.999980,-0.005606,-0.001488,-0.002453,0.754230,-0.053552,0.222496,0.615438,12.170880,23.674664,80.987788
39257,-3.062460,3.192921,8.485850,-1.246784,1.003705,-0.377644,-1.077596,-0.137377,-0.558332,-0.030593,0.032471,0.084663,0.999981,-0.005388,-0.000687,-0.002792,0.755767,-0.057790,0.218485,0.614606,11.410744,23.658428,80.635001
39258,-4.547835,2.474506,9.672183,-0.612606,-0.067662,1.140624,-1.399172,-0.130039,-0.496846,-0.045478,0.025534,0.096515,0.999972,-0.006996,-0.000650,-0.002484,0.756983,-0.063227,0.213512,0.614322,10.478323,23.636495,80.319841
39259,-4.652461,0.779352,9.106157,0.699168,-0.754023,0.391018,-1.423584,-0.286636,-0.367148,-0.046640,0.008527,0.090936,0.999972,-0.007118,-0.001433,-0.001836,0.757914,-0.068100,0.207910,0.614575,9.561684,23.506949,80.069506
39260,-3.513058,0.231742,8.632482,1.173579,-0.018536,-0.564084,-0.957859,-0.170427,-0.274298,-0.035201,0.002779,0.086282,0.999987,-0.004789,-0.000852,-0.001371,0.758570,-0.071500,0.204192,0.614626,8.936547,23.433150,79.888763
39261,-4.030479,0.520294,9.227068,0.868128,-0.197981,0.230275,-0.584765,-0.056893,-0.174852,-0.040326,0.005508,0.092243,0.999995,-0.002924,-0.000284,-0.000874,0.758921,-0.073699,0.202093,0.614627,8.558004,23.411956,79.782234
39262,-4.292710,0.625596,9.466258,0.722120,-0.319258,0.570242,-0.449917,-0.080271,-0.057627,-0.042963,0.006481,0.094631,0.999997,-0.002250,-0.000401,-0.000288,0.758983,-0.075227,0.200351,0.614935,8.281031,23.368686,79.744825
39263,-4.502638,0.109737,9.473042,1.145985,-0.627525,0.594865,-0.375768,-0.101071,0.045007,-0.045075,0.001265,0.094705,0.999998,-0.001879,-0.000505,0.000225,0.758772,-0.076277,0.198805,0.615568,8.074453,23.303590,79.770356
39264,-4.453924,0.152274,9.277101,1.050606,-0.653814,0.404649,-0.091335,-0.163298,0.110471,-0.044616,0.001540,0.092734,0.999999,-0.000457,-0.000816,0.000552,0.758530,-0.076021,0.197914,0.616184,8.041256,23.199503,79.829817
39265,-3.655258,0.625598,8.967692,0.656764,0.048790,-0.130846,0.020799,-0.167174,0.101909,-0.036631,0.006228,0.089647,1.000000,0.000104,-0.000836,0.000510,0.758358,-0.075310,0.197358,0.616661,8.073003,23.092513,79.884646
39266,-3.314996,0.748728,8.833428,0.565856,0.321359,-0.370455,0.015832,-0.130085,0.061491,-0.033210,0.007470,0.088313,1.000000,0.000079,-0.000650,0.000307,0.758274,-0.074797,0.196904,0.616972,8.090280,23.011188,79.916684
39267,-3.675674,1.006704,8.986091,0.294202,0.095440,-0.056756,0.101206,-0.085625,0.010811,-0.036796,0.010020,0.089850,1.000000,0.000506,-0.000428,0.000054,0.758332,-0.074123,0.196869,0.616993,8.148560,22.957711,79.922289
39268,-4.054134,1.605358,9.180278,-0.296738,-0.052963,0.346044,0.120596,-0.092480,-0.015340,-0.040583,0.016001,0.091794,1.000000,0.000603,-0.000462,-0.000077,0.758486,-0.073406,0.196853,0.616895,8.208594,22.903926,79.910165
39269,-4.652325,1.834099,9.228274,-0.607264,-0.539053,0.652001,-0.107055,-0.157777,-0.027328,-0.046594,0.018397,0.092236,1.000000,-0.000535,-0.000789,-0.000137,0.758656,-0.073336,0.195887,0.617002,8.135886,22.812644,79.885842
39270,-4.492499,1.600950,9.067397,-0.412466,-0.520335,0.410928,-0.248091,-0.235421,-0.040984,-0.045028,0.016131,0.090601,0.999999,-0.001240,-0.001177,-0.000205,0.758892,-0.073601,0.194181,0.617219,7.973858,22.679803,79.845642
39271,-4.313057,1.501883,8.887726,-0.351864,-0.463162,0.162851,-0.202063,-0.254569,-0.039610,-0.043241,0.015117,0.088807,0.999999,-0.001010,-0.001273,-0.000198,0.759155,-0.073606,0.192551,0.617406,7.841006,22.534633,79.806004
39272,-4.014961,1.666262,8.842553,-0.492600,-0.190911,0.026414,-0.123982,-0.228069,-0.025096,-0.040248,0.016722,0.088369,0.999999,-0.000620,-0.001140,-0.000125,0.759377,-0.073406,0.191261,0.617557,7.754510,22.404565,79.776908
39273,-4.127822,2.379591,9.214020,-1.132817,-0.022894,0.498263,0.065497,-0.178206,0.036147,-0.041365,0.023758,0.092111,1.000000,0.000327,-0.000891,0.000181,0.759429,-0.072558,0.190776,0.617744,7.795469,22.296909,79.790604
39274,-3.103903,2.504738,8.623696,-1.210846,0.712439,-0.415758,-0.164112,-0.227284,0.111053,-0.031151,0.025101,0.086181,0.999999,-0.000821,-0.001136,0.000555,0.759213,-0.072383,0.189414,0.618448,7.717762,22.156739,79.845224
39275,-2.493799,2.139365,8.561770,-0.789044,1.149389,-0.748688,-0.253535,-0.092997,0.134512,-0.024992,0.021485,0.085579,0.999999,-0.001268,-0.000465,0.000673,0.758762,-0.072914,0.188302,0.619279,7.601610,22.089955,79.926526
39276,-3.402992,1.467946,8.666586,-0.287451,0.201421,-0.393468,-0.269410,-0.024723,0.132167,-0.034050,0.014774,0.086642,0.999999,-0.001347,-0.000124,0.000661,0.758248,-0.073745,0.187390,0.620086,7.474673,22.063448,80.011036
39277,-3.169844,1.262380,8.643366,-0.075079,0.361151,-0.527582,-0.264473,0.011458,0.107590,-0.031700,0.012721,0.086419,0.999999,-0.001322,0.000057,0.000538,0.757774,-0.074665,0.186630,0.620785,7.349340,22.058183,80.084473
39278,-3.662994,0.741279,9.132209,0.420505,-0.028264,0.045637,-0.338678,0.051057,0.081428,-0.036610,0.007553,0.091319,0.999998,-0.001693,0.000255,0.000407,0.757317,-0.076040,0.185770,0.621433,7.173287,22.078799,80.143919
39279,-3.856561,0.472979,9.026334,0.608705,-0.293676,-0.008878,-0.211891,0.005933,0.060783,-0.038564,0.004814,0.090259,0.999999,-0.001059,0.000030,0.000304,0.757010,-0.076787,0.185133,0.621905,7.067074,22.074018,80.188218
39280,-3.329484,0.864003,9.207153,0.332685,0.338089,0.004575,-0.115830,0.030904,0.010108,-0.033281,0.008692,0.092072,1.000000,-0.000579,0.000155,0.000051,0.756876,-0.077322,0.184862,0.622082,7.001659,22.088397,80.202288
39281,-3.691615,0.853290,9.246435,0.282513,0.023341,0.175922,-0.121253,0.031125,-0.039204,-0.036900,0.008596,0.092465,1.000000,-0.000606,0.000156,-0.000196,0.756891,-0.077898,0.184563,0.622081,6.924852,22.104988,80.187066
39282,-3.563537,1.295874,9.010892,-0.177270,0.157265,-0.039351,-0.010410,0.021705,-0.059492,-0.035622,0.012974,0.090112,1.000000,-0.000052,0.000109,-0.000297,0.757023,-0.078070,0.184557,0.621901,6.903491,22.118963,80.157691
39283,-3.721779,1.823487,9.187483,-0.686476,0.191464,0.241102,-0.059191,0.044009,-0.052819,-0.037193,0.018272,0.091878,1.000000,-0.000296,0.000220,-0.000264,0.757092,-0.078463,0.184494,0.621785,6.859385,22.143790,80.135017
39284,-4.105064,1.776808,9.044848,-0.741087,-0.213833,0.248272,-0.195250,-0.005861,-0.032902,-0.041050,0.017863,0.090430,1.000000,-0.000976,-0.000029,-0.000165,0.757094,-0.079224,0.183820,0.621887,6.737486,22.140223,80.119920
39285,-3.780661,1.425841,8.560249,-0.454912,-0.160526,-0.359035,-0.214206,-0.018558,-0.004496,-0.037814,0.014351,0.085584,0.999999,-0.001071,-0.000093,-0.000022,0.757008,-0.079965,0.183058,0.622121,6.614170,22.126201,80.122373
39286,-3.599601,2.099993,8.908720,-1.034325,0.272497,-0.035761,-0.144128,0.040985,0.034356,-0.035981,0.021058,0.089079,1.000000,-0.000721,0.000205,0.000172,0.756777,-0.080616,0.182746,0.622410,6.538392,22.144831,80.151938
39287,-3.723085,2.053348,8.989711,-1.012612,0.182516,0.078407,-0.320751,0.041200,0.081523,-0.037221,0.020662,0.089872,0.999999,-0.001604,0.000206,0.000408,0.756323,-0.081866,0.181914,0.623041,6.375719,22.159324,80.211521
39288,-3.816923,1.557278,9.002563,-0.568524,0.001967,0.072498,-0.341325,0.040915,0.149084,-0.038162,0.015698,0.090007,0.999998,-0.001707,0.000205,0.000745,0.755651,-0.083158,0.181034,0.623941,6.213550,22.170841,80.311540
39289,-3.881614,1.470294,9.160354,-0.488592,-0.015427,0.232300,-0.288998,0.052500,0.200459,-0.038807,0.014796,0.091592,0.999998,-0.001445,0.000263,0.001002,0.754825,-0.084214,0.180393,0.624984,6.097137,22.184767,80.445005
39290,-4.049737,1.099100,9.328700,-0.147563,-0.181775,0.413659,-0.378917,0.018955,0.221135,-0.040501,0.011123,0.093270,0.999998,-0.001895,0.000095,0.001106,0.753926,-0.085514,0.179341,0.626195,5.929641,22.179901,80.587887
39291,-4.009577,0.661010,9.148591,0.230221,-0.295440,0.190813,-0.371556,-0.022420,0.215374,-0.040113,0.006737,0.091469,0.999998,-0.001858,-0.000112,0.001077,0.753079,-0.086632,0.178164,0.627395,5.767572,22.150946,80.725709
39292,-3.715028,0.689987,9.212463,0.233508,0.003197,0.141831,-0.273392,0.001934,0.176654,-0.037156,0.006993,0.092115,0.999999,-0.001367,0.000010,0.000883,0.752374,-0.087520,0.177358,0.628346,5.649732,22.139615,80.840153
39293,-4.197860,0.589829,9.536325,0.292379,-0.341527,0.613686,-0.267943,0.000018,0.161439,-0.041983,0.005992,0.095355,0.999999,-0.001340,0.000000,0.000807,0.751716,-0.088367,0.176565,0.629236,5.534877,22.127064,80.946183
39294,-4.679832,0.308298,9.558661,0.484554,-0.829500,0.791133,-0.218363,-0.044410,0.192329,-0.046823,0.003142,0.095573,0.999999,-0.001092,-0.000222,0.000962,0.751023,-0.088889,0.175764,0.630214,5.451102,22.088841,81.067548
39295,-4.665384,0.932117,9.243404,-0.171697,-0.817902,0.549586,0.029668,-0.073748,0.233864,-0.046699,0.009253,0.092418,0.999999,0.000148,-0.000369,0.001169,0.750331,-0.088323,0.175663,0.631145,5.521550,22.030562,81.213689
39296,-4.399140,2.182866,9.260685,-1.339643,-0.345236,0.577874,0.105038,-0.033455,0.255882,-0.044035,0.021724,0.092611,0.999999,0.000525,-0.000167,0.001279,0.749569,-0.087609,0.175950,0.632070,5.637727,21.994876,81.374658
39297,-4.125467,3.314803,9.328359,-2.381192,0.125624,0.643879,0.060248,-0.038676,0.285960,-0.041320,0.033061,0.093286,0.999999,0.000301,-0.000193,0.001430,0.748692,-0.086993,0.176101,0.633151,5.738299,21.953331,81.554689
39298,-2.794841,4.010304,8.765401,-2.957210,1.256479,-0.304688,-0.022997,-0.051999,0.376457,-0.028047,0.040060,0.087642,0.999998,-0.000115,-0.000260,0.001882,0.747505,-0.086593,0.175965,0.634645,5.808045,21.899620,81.788371
39299,-1.509228,4.158790,8.559718,-2.976546,2.374464,-0.961468,-0.404795,0.088541,0.461435,-0.015151,0.041726,0.085520,0.999995,-0.002024,0.000443,0.002307,0.745751,-0.087960,0.175194,0.636731,5.685792,21.920270,82.084152
39300,-2.188378,3.301605,8.889154,-2.215275,1.715989,-0.493119,-0.684548,0.249073,0.487922,-0.021854,0.033267,0.088805,0.999990,-0.003423,0.001245,0.002440,0.743640,-0.090887,0.174124,0.639077,5.409182,22.032934,82.404672
39301,-2.600385,2.506133,9.083359,-1.509163,1.287719,-0.241166,-0.749331,0.316092,0.479871,-0.025921,0.025339,0.090780,0.999989,-0.003747,0.001580,0.002399,0.741449,-0.094237,0.173106,0.641410,5.100380,22.184340,82.725123
39302,-2.250998,2.249650,9.481170,-1.215507,1.737553,-0.039069,-0.690730,0.403882,0.448910,-0.022369,0.022774,0.094779,0.999989,-0.003454,0.002019,0.002245,0.739296,-0.097713,0.172566,0.643518,4.815640,22.390355,83.029299
39303,-3.132838,1.553257,9.723254,-0.647123,0.946045,0.456433,-0.693146,0.425131,0.448572,-0.031157,0.015800,0.097244,0.999989,-0.003466,0.002126,0.002243,0.737105,-0.101223,0.172109,0.645607,4.535794,22.608106,83.335261
39304,-2.815851,0.495056,10.376315,0.458489,1.363097,0.853773,-0.728221,0.303650,0.543176,-0.028015,0.005252,0.103787,0.999989,-0.003641,0.001518,0.002716,0.734682,-0.104428,0.171119,0.648117,4.251657,22.755485,83.691689
39305,-1.609288,0.125154,10.330866,0.903807,2.428133,0.317441,-0.278922,0.170370,0.483704,-0.016008,0.001357,0.103320,0.999996,-0.001395,0.000852,0.002419,0.732786,-0.105557,0.171075,0.650089,4.214003,22.828034,84.006563
39306,-0.352849,1.242486,11.053012,0.044463,4.016485,0.565283,0.921833,0.257623,0.292658,-0.003404,0.011910,0.110590,0.999987,0.004609,0.001288,0.001463,0.732060,-0.102775,0.175137,0.650271,4.815540,22.959726,84.206303
39307,-0.984774,1.509005,11.812079,-0.093669,3.766913,1.526325,0.622513,0.088635,0.126567,-0.009805,0.014716,0.118171,0.999995,0.003113,0.000443,0.000633,0.731854,-0.100636,0.177526,0.650190,5.207615,22.998753,84.296840
39308,-1.435884,1.037678,11.440438,0.357425,3.138791,1.324722,0.676610,-0.138959,-0.003492,-0.014438,0.009990,0.114429,0.999994,0.003383,-0.000695,-0.000017,0.732293,-0.097719,0.179183,0.649685,5.589127,22.917339,84.292180
39309,-1.672404,0.937882,10.942476,0.439573,2.688163,0.957380,0.689246,-0.314419,-0.087243,-0.016892,0.009009,0.109430,0.999993,0.003446,-0.001572,-0.000436,0.733157,-0.094210,0.180199,0.648948,5.958320,22.737019,84.225787
39310,-1.992550,0.622814,10.085605,0.656279,1.985928,0.272083,0.542222,-0.444427,-0.123926,-0.020146,0.005967,0.100828,0.999994,0.002711,-0.002222,-0.000620,0.734179,-0.090900,0.180237,0.648253,6.226138,22.488955,84.125621
39311,-2.788531,0.236514,9.483783,0.911058,0.925598,-0.010294,0.433516,-0.497328,-0.170680,-0.028119,0.002184,0.094773,0.999994,0.002168,-0.002487,-0.000853,0.735342,-0.087805,0.179706,0.647510,6.424294,22.209828,83.993715
39312,-3.938115,-0.583844,8.762787,1.521559,-0.569394,-0.326044,0.391632,-0.551725,-0.180535,-0.039628,-0.005974,0.087507,0.999994,0.001958,-0.002759,-0.000903,0.736558,-0.084750,0.178833,0.646775,6.590270,21.905034,83.849723
39313,-4.568105,-0.925409,8.013017,1.701623,-1.529007,-0.829446,0.550922,-0.579997,-0.176379,-0.045921,-0.009434,0.079971,0.999992,0.002755,-0.002900,-0.000882,0.737843,-0.080960,0.178367,0.645924,6.852581,21.580109,83.706736
39314,-4.830955,-0.648651,7.627774,1.368719,-1.922318,-1.073535,0.619815,-0.524199,-0.191954,-0.048516,-0.006676,0.076130,0.999991,0.003099,-0.002621,-0.000960,0.739144,-0.077160,0.178323,0.644913,7.148150,21.292927,83.555641
39315,-5.962081,-0.749264,7.079893,1.281822,-3.226401,-1.199924,0.538614,-0.493745,-0.199943,-0.059803,-0.007623,0.070631,0.999993,0.002693,-0.002469,-0.001000,0.740401,-0.073719,0.178122,0.643930,7.400532,21.020494,83.402075
39316,-6.280323,-0.530578,6.401119,0.932142,-3.760061,-1.707678,0.462461,-0.409961,-0.175896,-0.062939,-0.005398,0.063870,0.999995,0.002312,-0.002050,-0.000879,0.741468,-0.070852,0.177994,0.643057,7.613215,20.798257,83.267725
39317,-7.480629,-0.363699,6.137948,0.596484,-4.964839,-1.520460,0.156818,-0.236532,-0.088805,-0.074880,-0.003652,0.061288,0.999999,0.000784,-0.001183,-0.000444,0.741988,-0.069560,0.177558,0.642720,7.678283,20.665235,83.201002
39318,-9.254551,-0.599493,5.583499,0.525606,-6.849962,-1.447086,-0.189383,-0.128144,-0.028898,-0.092582,-0.005929,0.055781,0.999999,-0.000947,-0.000641,-0.000144,0.742098,-0.069886,0.176431,0.642867,7.557512,20.592120,83.178513
39319,-10.104214,-0.850016,4.996827,0.547830,-7.875822,-1.722130,-0.795465,-0.025555,-0.026994,-0.101050,-0.008288,0.049989,0.999992,-0.003977,-0.000128,-0.000135,0.741892,-0.072761,0.173743,0.643518,7.096029,20.575580,83.166440
39320,-8.651282,-0.392105,7.650185,0.621732,-5.564622,0.295289,-1.240240,-0.109075,-0.171103,-0.086558,-0.003373,0.076477,0.999980,-0.006201,-0.000545,-0.000856,0.742041,-0.077167,0.169249,0.644030,6.343772,20.522529,83.060138
39321,-5.689224,0.859786,10.195615,0.006898,-1.766238,1.760405,-0.849969,-0.207750,-0.288829,-0.056985,0.009113,0.101859,0.999989,-0.004250,-0.001039,-0.001444,0.742779,-0.079889,0.165612,0.643794,5.791002,20.419412,82.877225
39322,-1.895369,2.112396,11.385303,-0.712273,2.335952,1.664027,-0.711605,-0.381168,-0.229126,-0.019146,0.021551,0.113740,0.999991,-0.003558,-0.001906,-0.001146,0.743510,-0.081504,0.161780,0.643721,5.324657,20.212408,82.720870
39323,-0.659802,4.198035,10.894348,-2.735596,3.625211,0.963209,-0.076864,-0.263595,-0.017408,-0.006738,0.042023,0.108919,0.999999,-0.000384,-0.001318,-0.000087,0.743715,-0.080949,0.160529,0.643868,5.272252,20.060723,82.701624
39324,-2.587958,4.925935,9.907237,-3.825307,1.587686,0.768516,-0.094264,-0.230328,0.298387,-0.026067,0.049267,0.099019,0.999998,-0.000471,-0.001152,0.001492,0.742869,-0.080328,0.159457,0.645187,5.273298,19.911276,82.875397
39325,-2.055476,2.539182,8.189086,-1.705832,1.114380,-1.234780,-1.481694,-0.403311,0.662804,-0.020805,0.025929,0.081658,0.999965,-0.007408,-0.002017,0.003314,0.740398,-0.083984,0.153424,0.649013,4.554521,19.645782,83.262838
39326,-1.860257,-2.501280,8.362488,3.160102,0.625927,-1.490014,-2.447592,-0.314350,0.810360,-0.018636,-0.024063,0.083894,0.999916,-0.012238,-0.001572,0.004052,0.736888,-0.091407,0.144613,0.654009,3.309669,19.432058,83.746803
39327,-3.991032,-8.564047,10.905226,9.003469,-1.263847,1.391344,-1.926348,-0.264988,0.427224,-0.039874,-0.084670,0.109818,0.999950,-0.009632,-0.001325,0.002136,0.734732,-0.097309,0.137508,0.657108,2.290193,19.265647,84.004462
39328,-3.747472,-11.036652,11.165394,11.412526,-1.250836,1.532182,0.317943,-0.275107,-0.533396,-0.037923,-0.110443,0.111426,0.999994,0.001590,-0.001376,-0.002667,0.736792,-0.095614,0.137250,0.655101,2.361353,19.118497,83.679979
39329,-2.728632,-7.912662,8.670955,8.265299,-0.837488,-1.082196,1.475801,-0.190857,-1.241596,-0.027862,-0.079592,0.086097,0.999953,0.007379,-0.000954,-0.006208,0.741629,-0.090402,0.140749,0.649618,2.957707,19.039526,82.928511
39330,-3.719339,-1.498138,7.942900,1.844814,-1.198338,-1.191415,2.558552,0.231372,-1.519229,-0.037219,-0.015714,0.079274,0.999889,0.012792,0.001157,-0.007596,0.747444,-0.082737,0.149182,0.642049,4.122626,19.223419,82.023189
39331,-3.952433,6.054273,9.506538,-5.235417,0.343615,0.916432,2.974285,0.322991,-1.330910,-0.038972,0.059380,0.096017,0.999866,0.014871,0.001615,-0.006654,0.752576,-0.073651,0.159328,0.634681,5.562512,19.469338,81.239925
39332,-3.681267,11.799935,9.669660,-10.546394,1.827411,1.664139,2.161556,0.114560,-0.662865,-0.036368,0.117066,0.097986,0.999936,0.010808,0.000573,-0.003314,0.755306,-0.066415,0.166332,0.630425,6.667086,19.572654,80.852163
39333,-5.697657,12.561084,9.426193,-11.476974,0.080787,2.326873,0.621403,-0.079486,0.147534,-0.057107,0.125275,0.094629,0.999995,0.003107,-0.000397,0.000738,0.755079,-0.063693,0.168010,0.630532,7.050019,19.514357,80.941264
39334,-6.305420,8.408300,9.989918,-7.423111,-1.190024,2.586347,-0.781064,-0.390090,0.623484,-0.063511,0.084274,0.099447,0.999986,-0.003905,-0.001950,0.003117,0.753152,-0.064898,0.164238,0.633700,6.715304,19.247182,81.294267
39335,-5.421113,2.289460,9.712041,-1.471385,-1.699031,1.318350,-1.552399,-0.737484,0.710814,-0.054651,0.023453,0.096739,0.999957,-0.007762,-0.003687,0.003554,0.750937,-0.067806,0.156753,0.637906,5.950553,18.779810,81.679356
39336,-3.194932,-1.399139,8.698965,2.184707,-0.635634,-0.720965,-1.088271,-0.723459,0.485928,-0.032231,-0.013596,0.086948,0.999976,-0.005441,-0.003617,0.002430,0.749537,-0.069213,0.150694,0.640855,5.403665,18.337429,81.933812
39337,-2.424599,-2.016821,9.105766,2.893164,0.066560,-0.621048,-0.293734,-0.477376,0.235244,-0.024440,-0.020063,0.091029,0.999995,-0.001469,-0.002387,0.001176,0.749005,-0.068596,0.148032,0.642162,5.272140,18.050400,82.054447
39338,-3.137979,-0.509244,9.694990,1.381515,-0.221074,0.293818,0.005217,-0.420259,0.079177,-0.031581,-0.005107,0.096884,0.999998,0.000026,-0.002101,0.000396,0.749032,-0.067179,0.146469,0.642639,5.279922,17.804131,82.084115
39339,-2.274712,0.113717,9.553219,0.850347,0.612261,-0.047797,-0.173643,-0.464217,0.026794,-0.022969,0.001217,0.095478,0.999997,-0.000868,-0.002321,0.000134,0.749193,-0.066311,0.144165,0.643062,5.177972,17.535651,82.080723
39340,-3.511866,-0.311189,9.793421,1.122220,-0.600023,0.517926,0.005384,-0.409929,0.045903,-0.035319,-0.003123,0.097862,0.999998,0.000027,-0.002050,0.000230,0.749311,-0.064950,0.142629,0.643406,5.179915,17.297047,82.091405
39341,-3.724052,0.618158,9.708349,0.171275,-0.719471,0.577478,0.149138,-0.473820,0.045370,-0.037472,0.006101,0.096999,0.999997,0.000746,-0.002369,0.000227,0.749517,-0.062829,0.141330,0.643663,5.265781,17.022083,82.098545
39342,-2.309834,0.596748,8.973477,0.280186,0.364905,-0.538913,-0.041201,-0.500050,0.036935,-0.023324,0.005982,0.089675,0.999997,-0.000206,-0.002500,0.000185,0.749706,-0.061359,0.139301,0.644027,5.237849,16.732517,82.098593
39343,-2.611210,0.942967,9.333200,-0.053361,0.190167,-0.077335,0.161280,-0.388540,0.035750,-0.026295,0.009350,0.093289,0.999998,0.000806,-0.001943,0.000179,0.749878,-0.059473,0.138357,0.644207,5.330119,16.506742,82.104326
39344,-3.055173,1.810301,9.456190,-0.937682,-0.099100,0.244229,0.185544,-0.413793,0.037492,-0.030751,0.018010,0.094515,0.999997,0.000928,-0.002069,0.000187,0.750066,-0.057430,0.137380,0.644382,5.433366,16.266350,82.108852
39345,-2.619787,1.845473,8.970819,-0.974748,0.149659,-0.337881,0.017523,-0.437254,0.075984,-0.026401,0.018437,0.089652,0.999998,0.000088,-0.002186,0.000380,0.750094,-0.055898,0.135801,0.644820,5.448998,16.010593,82.135048
39346,-2.597895,1.626540,9.096475,-0.743422,0.127060,-0.243381,0.012250,-0.381284,0.114231,-0.026162,0.016245,0.090916,0.999998,0.000061,-0.001906,0.000571,0.749956,-0.054557,0.134408,0.645387,5.465795,15.784556,82.186584
39347,-2.514120,1.361087,9.009205,-0.486754,0.103939,-0.373869,-0.030396,-0.379308,0.140380,-0.025322,0.013607,0.090042,0.999998,-0.000152,-0.001897,0.000702,0.749717,-0.053346,0.132909,0.646076,5.465085,15.558314,82.254036
39348,-1.831173,0.526123,8.801262,0.386131,0.536397,-0.831858,-0.114874,-0.344410,0.128764,-0.018467,0.005300,0.087978,0.999998,-0.000574,-0.001722,0.000644,0.749467,-0.052590,0.131247,0.646767,5.411499,15.352536,82.316217
39349,-1.190927,0.084443,8.617043,0.873038,1.007219,-1.216052,0.027396,-0.231002,0.077642,-0.012009,0.000828,0.086157,0.999999,0.000137,-0.001155,0.000388,0.749343,-0.051683,0.130472,0.647140,5.435872,15.214252,82.354923
39350,-0.910121,0.441418,8.652657,0.568093,1.324898,-1.221207,0.150318,-0.103365,0.016882,-0.009146,0.004348,0.086525,1.000000,0.000752,-0.000517,0.000084,0.749365,-0.050786,0.130542,0.647173,5.520146,15.152031,82.364417
39351,-0.690278,0.816014,8.428139,0.214457,1.533508,-1.459351,0.233233,0.035141,-0.002229,-0.006888,0.008062,0.084292,0.999999,0.001166,0.000176,-0.000011,0.749377,-0.050020,0.131407,0.647043,5.653771,15.169568,82.370873
39352,-0.728527,1.322278,8.247231,-0.290683,1.539407,-1.576082,0.259228,0.207334,-0.002778,-0.007200,0.013116,0.082497,0.999999,0.001296,0.001037,-0.000014,0.749283,-0.049733,0.132987,0.646851,5.802165,15.285560,82.386885
39353,-1.019142,1.989283,8.405512,-0.942065,1.428166,-1.285010,0.138121,0.378877,-0.027179,-0.010029,0.019836,0.084088,0.999998,0.000691,0.001894,-0.000136,0.749121,-0.050450,0.134824,0.646603,5.882973,15.500101,82.399510
39354,-1.931214,1.920301,8.909840,-0.915332,0.707927,-0.568054,-0.088142,0.444053,-0.043058,-0.019110,0.019246,0.089133,0.999997,-0.000441,0.002220,-0.000215,0.748906,-0.052256,0.136157,0.646429,5.829977,15.753335,82.406354
39355,-2.445961,1.564291,9.006525,-0.621363,0.228870,-0.372954,-0.125864,0.498427,-0.013406,-0.024234,0.015701,0.090116,0.999997,-0.000629,0.002492,-0.000067,0.748544,-0.054335,0.137589,0.646373,5.764027,16.035024,82.434256
39356,-3.437740,1.069758,9.700897,-0.173653,-0.565474,0.517835,-0.173931,0.484044,0.002561,-0.034143,0.010782,0.097082,0.999997,-0.000870,0.002420,0.000013,0.748123,-0.056560,0.138805,0.646410,5.669970,16.308469,82.469933
39357,-2.889813,0.358164,9.363656,0.539714,-0.198612,-0.023589,-0.179712,0.425663,-0.021610,-0.028698,0.003669,0.093695,0.999997,-0.000899,0.002128,-0.000108,0.747813,-0.058610,0.139788,0.646374,5.570653,16.549267,82.487895
39358,-2.430660,0.285556,9.173852,0.636763,0.219719,-0.341927,-0.068132,0.468068,-0.098344,-0.024090,0.002899,0.091794,0.999997,-0.000341,0.002340,-0.000492,0.747752,-0.060458,0.141255,0.645956,5.519790,16.819290,82.461813
39359,-2.467353,0.844781,9.051803,0.066667,0.287121,-0.397299,-0.008411,0.512613,-0.170281,-0.024434,0.008472,0.090581,0.999996,-0.000042,0.002563,-0.000851,0.747903,-0.062254,0.143070,0.645210,5.494065,17.117875,82.395676
39360,-2.444477,1.194797,9.077017,-0.269324,0.423657,-0.349972,-0.022427,0.557612,-0.197783,-0.024180,0.011982,0.090836,0.999996,-0.000112,0.002788,-0.000989,0.748102,-0.064289,0.144987,0.644352,5.452877,17.444372,82.314886
39361,-2.863239,1.137902,9.347812,-0.227284,0.152424,0.025979,0.004026,0.598617,-0.186578,-0.028342,0.011404,0.093563,0.999995,0.000020,0.002993,-0.000933,0.748235,-0.066325,0.147156,0.643498,5.431922,17.792765,82.243347
39362,-3.443054,1.032217,9.424909,-0.184005,-0.329503,0.267306,-0.009645,0.582039,-0.172675,-0.034147,0.010356,0.094348,0.999995,-0.000048,0.002910,-0.000863,0.748326,-0.068372,0.149211,0.642705,5.402015,18.131760,82.178358
39363,-3.706126,0.667480,9.727155,0.182565,-0.488957,0.604881,-0.036738,0.552667,-0.190149,-0.036786,0.006728,0.097372,0.999996,-0.000184,0.002763,-0.000951,0.748477,-0.070415,0.151073,0.641872,5.355215,18.454101,82.101421
39364,-3.913891,0.510823,9.655519,0.303520,-0.675225,0.592130,0.082326,0.515496,-0.208467,-0.038885,0.005109,0.096658,0.999996,0.000412,0.002577,-0.001042,0.748753,-0.071930,0.153160,0.640888,5.369052,18.756994,82.010546
39365,-4.356025,1.222103,9.607086,-0.437968,-0.930864,0.756415,0.356221,0.531888,-0.247910,-0.043289,0.012104,0.096208,0.999994,0.001781,0.002659,-0.001240,0.749232,-0.072479,0.156181,0.639535,5.534878,19.070863,81.897742
39366,-4.804989,2.464763,9.923660,-1.631392,-0.986465,1.323156,0.484421,0.469098,-0.233572,-0.047788,0.024463,0.099408,0.999994,0.002422,0.002345,-0.001168,0.749754,-0.072357,0.159368,0.638150,5.772721,19.349153,81.790240
39367,-4.827240,3.628527,9.989394,-2.724353,-0.736558,1.513901,0.307905,0.345891,-0.131698,-0.048076,0.036163,0.100033,0.999997,0.001540,0.001729,-0.000658,0.749976,-0.072401,0.161580,0.637327,5.930257,19.551227,81.738159
39368,-4.346487,4.192032,9.838046,-3.209311,-0.203716,1.273835,0.109847,0.245459,0.011920,-0.043347,0.041864,0.098457,0.999999,0.000549,0.001227,0.000060,0.749749,-0.072772,0.162822,0.637236,5.998329,19.688005,81.766371
39369,-2.718852,3.662126,9.033069,-2.598560,0.980487,-0.082029,-0.389554,0.187183,0.245628,-0.027149,0.036764,0.090285,0.999997,-0.001948,0.000936,0.001228,0.748638,-0.074615,0.162358,0.638446,5.830486,19.777610,81.933059
39370,-1.503307,2.942132,8.680948,-1.819192,1.889398,-0.902274,-0.545456,0.323731,0.380908,-0.014949,0.029629,0.086753,0.999993,-0.002727,0.001619,0.001905,0.746920,-0.077391,0.161937,0.640232,5.600595,19.938071,82.189093
39371,-1.182564,2.248953,9.481143,-1.030030,2.359858,-0.340727,-0.654680,0.496972,0.408779,-0.011636,0.022776,0.094766,0.999989,-0.003273,0.002485,0.002044,0.744916,-0.081077,0.161841,0.642133,5.322310,20.196422,82.472569
39372,-1.247164,1.392695,9.910891,-0.198434,2.351688,-0.007062,-0.805208,0.574123,0.408615,-0.012216,0.014301,0.099087,0.999986,-0.004026,0.002871,0.002043,0.742771,-0.085598,0.161524,0.644107,4.955957,20.500762,82.758241
39373,-0.826444,0.876251,9.719431,0.277880,2.660362,-0.391284,-0.593776,0.693689,0.414010,-0.007946,0.009034,0.097196,0.999987,-0.002969,0.003468,0.002070,0.740582,-0.089679,0.162349,0.645863,4.719658,20.873501,83.053296
39374,0.092057,1.368024,10.019675,-0.097103,3.761669,-0.425801,-0.239872,0.879373,0.391711,0.001334,0.013803,0.100175,0.999988,-0.001199,0.004397,0.001959,0.738455,-0.093098,0.164972,0.647148,4.682217,21.354983,83.342930
39375,-0.168977,2.455624,10.365798,-1.159601,3.886840,0.038978,-0.039814,1.082208,0.311604,-0.001167,0.024575,0.103660,0.999984,-0.000199,0.005411,0.001558,0.736492,-0.096461,0.168962,0.647863,4.752428,21.954233,83.595978
39376,-1.232883,3.140004,9.995464,-1.989789,2.972482,0.111673,-0.186654,1.186722,0.187187,-0.011765,0.031482,0.099996,0.999982,-0.000933,0.005934,0.000936,0.734748,-0.100843,0.172783,0.648168,4.710079,22.620735,83.777742
39377,4.931792,4.000532,14.645786,-1.716875,10.578329,2.018385,-0.775093,0.849498,0.420823,0.049854,0.040676,0.146090,0.999981,-0.003875,0.004247,0.002104,0.732213,-0.106044,0.173579,0.649991,4.386230,23.082062,84.087490
39378,2.983125,2.476618,11.381531,-0.886457,7.429654,-0.400732,-0.736234,0.799598,0.320253,0.030246,0.025233,0.113603,0.999984,-0.003681,0.003998,0.001601,0.730045,-0.111067,0.174250,0.651411,4.055658,23.523219,84.329154
39379,6.539771,4.345607,11.805268,-2.389182,11.135685,-1.368458,0.528854,0.693655,0.280092,0.065746,0.043236,0.117940,0.999990,0.002644,0.003468,0.001400,0.728782,-0.111103,0.178627,0.651632,4.445168,23.900972,84.543550
39380,4.273519,4.782922,13.368822,-2.814361,9.811420,0.942733,0.041277,0.862011,0.166105,0.043271,0.047837,0.133512,0.999990,0.000206,0.004310,0.000831,0.727455,-0.113620,0.181962,0.651759,4.526662,24.383657,84.695585
39381,2.336776,3.378081,13.347612,-1.618466,7.938021,1.562653,-0.444568,0.509304,0.153311,0.023681,0.034095,0.133341,0.999994,-0.002223,0.002547,0.000767,0.726205,-0.116691,0.182412,0.652484,4.326325,24.658872,84.824513
39382,1.732252,2.426539,13.255134,-0.776157,7.278805,1.633002,-0.119655,0.290199,0.193633,0.017491,0.024362,0.132511,0.999998,-0.000598,0.001451,0.000968,0.725205,-0.117904,0.183157,0.653169,4.312579,24.814077,84.965868
39383,0.316047,1.961478,13.261369,-0.421911,5.957993,2.192954,0.221994,0.059269,0.309792,0.003170,0.019472,0.132634,0.999998,0.001110,0.000296,0.001549,0.724239,-0.116932,0.184231,0.654113,4.527362,24.823711,85.171898
39384,-0.845887,2.317147,13.009337,-0.845547,4.828152,2.487762,0.493097,-0.178317,0.407194,-0.008622,0.022833,0.130142,0.999994,0.002465,-0.000892,0.002036,0.723323,-0.114196,0.185404,0.655277,4.911328,24.700418,85.424445
39385,-1.658378,2.927177,12.635215,-1.484311,3.958031,2.560558,0.540597,-0.422949,0.435240,-0.016914,0.028894,0.126395,0.999992,0.002703,-0.002115,0.002176,0.722562,-0.110366,0.185838,0.656648,5.329286,24.425070,85.681949
39386,-1.199061,2.990716,11.785625,-1.562961,3.964548,1.638152,0.398075,-0.632972,0.420497,-0.012426,0.029647,0.117877,0.999991,0.001990,-0.003165,0.002102,0.721951,-0.106466,0.185057,0.658184,5.647692,24.038676,85.912592
39387,-1.581843,1.884920,10.846199,-0.576580,3.035149,0.871411,0.237262,-0.686267,0.409670,-0.016229,0.018688,0.108429,0.999991,0.001186,-0.003431,0.002048,0.721328,-0.102881,0.183519,0.659865,5.874048,23.611339,86.132889
39388,-2.434775,0.904098,10.013251,0.273185,1.745828,0.379832,0.504526,-0.658621,0.398954,-0.024695,0.008739,0.100074,0.999989,0.002523,-0.003293,0.001995,0.720836,-0.098529,0.182980,0.661216,6.242190,23.209563,86.342815
39389,-3.750070,1.386964,10.256433,-0.171721,0.607724,1.177354,0.916709,-0.577807,0.321390,-0.037819,0.013339,0.102517,0.999984,0.004584,-0.002889,0.001607,0.720711,-0.092927,0.184023,0.661873,6.833654,22.846625,86.508618
39390,-4.965583,1.732317,10.379879,-0.471081,-0.510244,1.802658,0.797660,-0.731618,0.246006,-0.050056,0.016848,0.103684,0.999985,0.003988,-0.003658,0.001230,0.720898,-0.087411,0.184105,0.662397,7.325249,22.410775,86.609735
39391,-4.828545,1.054402,9.780713,0.175510,-0.781865,1.116436,0.363385,-0.970225,0.173794,-0.048768,0.010324,0.097590,0.999986,0.001817,-0.004851,0.000869,0.721334,-0.082635,0.181824,0.663166,7.548629,21.833624,86.646409
39392,-4.391288,-0.328136,9.011461,1.465234,-0.910297,0.067646,0.159030,-1.056963,0.131540,-0.044386,-0.003382,0.089878,0.999986,0.000795,-0.005285,0.000658,0.721882,-0.078444,0.178558,0.663965,7.635328,21.220846,86.646188
39393,-4.244591,-0.722278,8.727459,1.844665,-1.018584,-0.311871,0.609861,-0.927735,0.059830,-0.042848,-0.007501,0.087054,0.999985,0.003049,-0.004639,0.000299,0.722708,-0.073020,0.177194,0.664051,7.973944,20.676794,86.612739
39394,-6.086217,-0.369079,9.074201,1.506286,-2.680545,0.678443,0.919443,-0.848471,0.011438,-0.061246,-0.004111,0.090464,0.999980,0.004597,-0.004242,0.000057,0.723713,-0.066877,0.177148,0.663616,8.474806,20.192130,86.550858
39395,-7.783347,0.572127,8.655748,0.481187,-4.412741,0.963417,1.038184,-0.971954,-0.106090,-0.078250,0.005315,0.086206,0.999975,0.005191,-0.004860,-0.000530,0.725222,-0.059905,0.176974,0.662680,9.020394,19.638635,86.404038
39396,-7.338723,1.783161,7.454224,-0.844702,-4.346667,-0.169353,1.030650,-1.092394,-0.301881,-0.073767,0.017560,0.074231,0.999971,0.005153,-0.005462,-0.001509,0.727446,-0.052822,0.176299,0.661023,9.513041,19.046080,86.121625
39397,-6.030944,2.063081,6.462332,-1.214808,-3.474282,-1.515500,0.191981,-1.059176,-0.410648,-0.060608,0.020693,0.064323,0.999983,0.000960,-0.005296,-0.002053,0.729743,-0.048908,0.172914,0.659684,9.513177,18.475169,85.777521
39398,-6.751111,0.728272,5.737122,-0.150795,-4.604702,-2.210357,-0.821094,-0.892465,-0.378957,-0.067752,0.007646,0.057038,0.999980,-0.004105,-0.004462,-0.001895,0.731519,-0.049296,0.166819,0.659258,8.942391,18.002581,85.470822
39399,-8.596632,-0.306964,6.131883,0.709180,-6.421959,-1.455003,-0.963970,-0.671938,-0.227100,-0.086175,-0.002677,0.061043,0.999982,-0.004820,-0.003360,-0.001135,0.732546,-0.050726,0.161076,0.659438,8.333162,17.631340,85.281715
39400,-8.786120,0.261393,5.587379,-0.044942,-6.726067,-1.860314,-1.051481,-0.532357,-0.231540,-0.088006,0.003009,0.055625,0.999982,-0.005257,-0.002662,-0.001158,0.733427,-0.053017,0.155563,0.659601,7.673196,17.345193,85.104780
39401,-8.653036,0.300958,5.645158,-0.176841,-6.599511,-1.859891,-1.831234,-0.312471,-0.369517,-0.086612,0.003685,0.056285,0.999955,-0.009156,-0.001562,-0.001848,0.734340,-0.058928,0.148232,0.659773,6.554533,17.185270,84.868161
39402,-8.609640,-3.259043,5.031798,3.087440,-7.165402,-2.799337,-3.501445,-0.483458,-0.284767,-0.086264,-0.031583,0.050668,0.999843,-0.017506,-0.002417,-0.001424,0.734459,-0.070400,0.134765,0.661402,4.487608,16.922917,84.675846
39403,-7.677026,-5.961781,3.629293,5.552485,-6.954092,-4.478056,-3.241946,-0.337842,-0.026459,-0.076840,-0.059010,0.037123,0.999867,-0.016209,-0.001689,-0.000132,0.733505,-0.081151,0.122743,0.663566,2.624132,16.724047,84.653996
39404,-10.779368,-5.010977,7.091762,4.502927,-8.782106,-0.107276,-1.284901,0.206456,0.276646,-0.107651,-0.049801,0.071349,0.999978,-0.006424,0.001032,0.001383,0.731890,-0.086388,0.119313,0.665311,1.934373,16.833887,84.829879
39405,-16.091989,-1.945970,11.100671,1.183074,-12.389981,5.387708,-0.818427,-0.373576,0.254057,-0.161102,-0.019211,0.110785,0.999989,-0.004092,-0.001868,0.001270,0.730875,-0.087960,0.115302,0.666926,1.508111,16.610730,84.981333
39406,-10.202389,-2.576244,9.251514,2.078891,-7.450829,1.869506,-2.359397,-1.712280,0.274400,-0.102778,-0.024816,0.091934,0.999893,-0.011797,-0.008561,0.001372,0.729798,-0.090716,0.101253,0.670010,0.194668,15.625542,85.135367
39407,-4.387321,-6.936581,3.127900,6.588066,-3.960355,-5.563138,-3.469853,-1.989255,0.350630,-0.044068,-0.068891,0.032039,0.999799,-0.017348,-0.009946,0.001753,0.727877,-0.096506,0.082489,0.673853,-1.735220,14.486131,85.365164
39408,-3.351691,-9.661305,-0.877626,9.381842,-4.151921,-9.517322,-0.856330,-0.979115,0.016787,-0.033467,-0.096653,-0.008526,0.999979,-0.004282,-0.004896,0.000084,0.727761,-0.096328,0.076014,0.674764,-2.221489,13.924156,85.400677
39409,-3.534190,-5.058780,-3.275629,4.787957,-4.602076,-11.982158,1.738306,0.298489,-0.741190,-0.035578,-0.050169,-0.033141,0.999954,0.008691,0.001492,-0.003706,0.730919,-0.091293,0.082578,0.671270,-1.334543,14.080229,84.963432
39410,-2.951526,6.974398,6.241235,-7.077933,-0.595834,-3.042754,4.587018,2.298209,-1.535977,-0.028254,0.068503,0.064323,0.999641,0.022932,0.011490,-0.007679,0.736924,-0.082858,0.105607,0.662514,1.058565,15.392970,84.055847
39411,-4.786443,10.034562,19.773171,-9.522264,1.886775,10.689334,0.304474,1.386011,-1.306633,-0.045836,0.100348,0.198207,0.999953,0.001522,0.006930,-0.006533,0.740580,-0.087021,0.111154,0.656973,1.023819,16.199228,83.298586
39412,-0.315731,7.103532,17.473755,-6.554296,5.385567,7.036110,-3.963667,-0.043532,-0.572384,-0.002985,0.074488,0.173283,0.999800,-0.019817,-0.000218,-0.002862,0.740578,-0.101867,0.097670,0.656984,-1.345136,16.171545,82.962811
39413,-5.106834,0.706616,9.231832,-1.260608,-2.198457,0.452899,-1.388988,0.098389,0.190963,-0.051030,0.007658,0.092292,0.999975,-0.006945,0.000492,0.000955,0.739145,-0.107231,0.093552,0.658342,-2.109312,16.229552,83.080917
39414,-4.273743,1.134496,7.019762,-1.574278,-1.951846,-1.904513,1.345009,0.728252,0.844790,-0.042527,0.010692,0.070426,0.999962,0.006725,0.003641,0.004224,0.736683,-0.104271,0.101089,0.660460,-1.202158,16.658938,83.578474
39415,-4.140799,2.492436,9.716346,-2.758679,-0.857556,0.647655,0.625060,0.860120,0.962234,-0.041108,0.024422,0.097418,0.999974,0.003125,0.004301,0.004811,0.733345,-0.104314,0.106810,0.663262,-0.678221,17.159443,84.152175
39416,-2.874019,-0.915204,11.336332,0.737092,0.549831,1.881783,-1.983969,0.273407,0.626076,-0.028559,-0.008116,0.113486,0.999945,-0.009920,0.001367,0.003130,0.730013,-0.112167,0.101522,0.666477,-1.707329,17.321799,84.529944
39417,-3.645974,-7.069598,9.526348,6.589909,-1.176708,0.637464,-2.386265,0.104591,0.311638,-0.036301,-0.069609,0.096117,0.999927,-0.011931,0.000523,0.001558,0.727497,-0.121051,0.094111,0.668758,-3.018652,17.387883,84.720362
39418,-3.491558,-8.794730,8.043140,8.267205,-1.532448,-0.672943,0.306664,0.636430,0.099943,-0.034616,-0.088088,0.080407,0.999994,0.001533,0.003182,0.000500,0.727010,-0.122029,0.097480,0.668628,-2.833336,17.753417,84.766567
39419,-2.758590,-2.257633,9.366648,1.901058,0.131614,0.026320,1.902325,1.039422,-0.027454,-0.027103,-0.023463,0.093588,0.999941,0.009511,0.005197,-0.000137,0.727679,-0.118599,0.107578,0.666966,-1.756956,18.346813,84.730878
39420,-3.784677,1.976409,10.794123,-2.235524,0.050145,1.577650,1.460385,0.938561,-0.118521,-0.037328,0.018997,0.108258,0.999962,0.007302,0.004693,-0.000593,0.728374,-0.116486,0.115758,0.665208,-0.949864,18.881100,84.651570
39421,-5.371674,3.086482,10.967099,-3.378013,-1.207007,2.261674,0.319635,0.526925,-0.019808,-0.053424,0.030695,0.109861,0.999995,0.001598,0.002635,-0.000099,0.728284,-0.117089,0.118711,0.664680,-0.772779,19.181613,84.640714
39422,-6.301824,1.958416,10.480888,-2.321313,-2.295250,2.134725,-0.033730,0.279926,0.149088,-0.062886,0.019555,0.104894,0.999999,-0.000169,0.001400,0.000745,0.727568,-0.118065,0.119674,0.665119,-0.765457,19.341365,84.734644
39423,-5.676425,1.085305,10.132355,-1.393179,-1.881579,1.614605,-0.034375,0.087692,0.256122,-0.056734,0.010798,0.101347,0.999999,-0.000172,0.000438,0.001281,0.726609,-0.118329,0.120019,0.666058,-0.733770,19.392730,84.895493
39424,-4.941057,0.097032,9.944745,-0.347824,-1.336760,1.206092,-0.179954,-0.052836,0.234656,-0.049438,0.001002,0.099434,0.999999,-0.000900,-0.000264,0.001173,0.725718,-0.118677,0.119335,0.667089,-0.791886,19.362483,85.044165
39425,-4.088627,-0.892531,9.519678,0.691802,-0.766776,0.534834,-0.188142,-0.151911,0.149686,-0.040952,-0.008866,0.095174,0.999999,-0.000941,-0.000760,0.000748,0.725163,-0.118766,0.118236,0.667873,-0.869012,19.276235,85.142364
39426,-3.746193,-1.170870,9.326296,0.987404,-0.543154,0.242893,-0.011703,-0.121324,0.057425,-0.037515,-0.011714,0.093241,1.000000,-0.000059,-0.000607,0.000287,0.725002,-0.118381,0.117760,0.668200,-0.866315,19.205471,85.184058
39427,-3.831227,-0.816817,9.781042,0.638332,-0.459485,0.694246,0.109663,-0.145474,-0.000202,-0.038383,-0.008222,0.097778,1.000000,0.000548,-0.000727,-0.000001,0.725118,-0.117502,0.117590,0.668258,-0.803179,19.121766,85.191151
39428,-3.153084,-0.672652,9.483855,0.552672,0.074583,0.188655,0.121334,-0.188197,-0.061398,-0.031622,-0.006774,0.094805,0.999999,0.000607,-0.000941,-0.000307,0.725471,-0.116480,0.117246,0.668115,-0.747781,19.011705,85.161204
39429,-3.676747,-1.248746,10.118286,1.095561,-0.278984,0.965969,0.017066,-0.184135,-0.146548,-0.036870,-0.012469,0.101148,0.999999,0.000085,-0.000921,-0.000733,0.726044,-0.115895,0.116540,0.667718,-0.766633,18.904749,85.079787
39430,-4.833033,-2.203576,10.221713,1.945978,-1.444434,1.448929,0.058922,-0.314582,-0.290566,-0.048523,-0.021995,0.102134,0.999998,0.000295,-0.001573,-0.001453,0.727196,-0.114811,0.115394,0.666850,-0.791244,18.720495,84.912231
39431,-3.517112,-1.840650,9.095431,1.675790,-0.577130,-0.048293,0.277501,-0.369581,-0.426660,-0.035378,-0.018457,0.090863,0.999995,0.001388,-0.001848,-0.002133,0.728953,-0.112824,0.114719,0.665385,-0.714323,18.505334,84.663025
39432,-2.635331,-0.518502,8.921510,0.449452,0.279568,-0.510707,0.455764,-0.274117,-0.462868,-0.026488,-0.005327,0.089167,0.999994,0.002279,-0.001371,-0.002314,0.730869,-0.110527,0.114943,0.663628,-0.543494,18.343595,84.391027
39433,-2.964097,0.878829,9.448125,-0.927236,0.241009,0.082122,0.588666,-0.218163,-0.404788,-0.029727,0.008570,0.094474,0.999993,0.002943,-0.001091,-0.002024,0.732624,-0.107895,0.115862,0.661964,-0.283526,18.216686,84.153444
39434,-3.270189,1.622842,9.299611,-1.662104,-0.040881,0.038511,0.520275,-0.239694,-0.283504,-0.032791,0.016033,0.092999,0.999995,0.002601,-0.001198,-0.001418,0.733945,-0.105371,0.116520,0.660791,-0.041112,18.077069,83.988592
39435,-3.210805,1.335516,9.145002,-1.348423,-0.085219,-0.122571,0.275432,-0.267972,-0.179435,-0.032219,0.013258,0.091425,0.999998,0.001377,-0.001340,-0.000897,0.734804,-0.103589,0.116341,0.660149,0.082490,17.923286,83.886140
39436,-2.683944,0.391448,9.016509,-0.350103,0.247289,-0.406815,0.134933,-0.276810,-0.152991,-0.026961,0.003874,0.090130,0.999999,0.000675,-0.001384,-0.000765,0.735506,-0.102280,0.115658,0.659692,0.128885,17.762999,83.799403
39437,-2.011677,-0.060186,8.635042,0.165647,0.695840,-0.975113,0.264740,-0.204732,-0.179105,-0.020206,-0.000698,0.086329,0.999998,0.001324,-0.001024,-0.000896,0.736316,-0.100743,0.115676,0.659021,0.247022,17.645723,83.696974
39438,-1.761160,0.140353,8.522967,0.010759,0.905928,-1.155814,0.387392,-0.091880,-0.188708,-0.017650,0.001255,0.085224,0.999998,0.001937,-0.000459,-0.000944,0.737152,-0.099134,0.116486,0.658187,0.431915,17.591851,83.588847
39439,-2.014004,0.648689,9.347045,-0.459325,0.965663,-0.288995,0.327951,0.015045,-0.170891,-0.020128,0.006351,0.093482,0.999998,0.001640,0.000075,-0.000854,0.737834,-0.098082,0.117524,0.657396,0.588078,17.600826,83.491901
39440,-3.958672,0.323649,10.143612,-0.292643,-0.678436,1.055742,0.172238,-0.042122,-0.154962,-0.039606,0.003180,0.101431,0.999999,0.000861,-0.000211,-0.000775,0.738419,-0.097411,0.117827,0.656784,0.655900,17.575760,83.404122
39441,-3.100374,-0.065515,9.112270,0.148342,-0.230032,-0.191090,0.138072,-0.148837,-0.168552,-0.031072,-0.000692,0.091099,0.999999,0.000690,-0.000744,-0.000843,0.739094,-0.096518,0.117636,0.656190,0.703515,17.491071,83.307474
39442,-2.044584,-0.323380,8.540601,0.501441,0.558052,-1.056895,0.154717,-0.055766,-0.178625,-0.020473,-0.003282,0.085398,0.999999,0.000774,-0.000279,-0.000893,0.739755,-0.095881,0.117819,0.655506,0.757166,17.458519,83.205383
39443,-2.140553,0.305607,8.859485,-0.099041,0.636799,-0.715960,0.377240,0.065762,-0.205714,-0.021373,0.002911,0.088607,0.999998,0.001886,0.000329,-0.001029,0.740537,-0.094829,0.119187,0.654528,0.935608,17.497306,83.088076
39444,-1.821990,1.075526,8.566588,-0.810571,0.953890,-1.077940,0.405850,0.118462,-0.155348,-0.018161,0.010596,0.085698,0.999997,0.002029,0.000592,-0.000777,0.741133,-0.093818,0.120847,0.653694,1.137771,17.564843,83.001650
39445,-1.506403,1.904182,8.812459,-1.542080,1.445441,-0.919596,0.496521,0.245684,-0.026692,-0.014953,0.018825,0.088190,0.999996,0.002483,0.001228,-0.000133,0.741270,-0.092803,0.123354,0.653216,1.417728,17.705088,82.994586
39446,-3.187257,1.573443,9.555902,-1.313409,0.054409,0.297768,0.492608,0.263223,0.160644,-0.031759,0.015473,0.095639,0.999996,0.002463,0.001316,0.000803,0.740776,-0.091749,0.125980,0.653423,1.728174,17.851334,83.101158
39447,-3.557679,0.872099,9.409981,-0.613177,-0.415187,0.257899,0.502908,0.193676,0.273105,-0.035497,0.008436,0.094156,0.999995,0.002515,0.000968,0.001366,0.739957,-0.090349,0.128452,0.654065,2.067686,17.956039,83.275097
39448,-2.658941,-0.106274,8.938542,0.470174,0.177842,-0.500009,0.317953,0.183796,0.235358,-0.026506,-0.001236,0.089408,0.999998,0.001590,0.000919,0.001177,0.739179,-0.089634,0.130246,0.654688,2.292348,18.054098,83.426588
39449,-2.172467,-0.592107,8.645606,1.017043,0.504106,-0.951080,0.326697,0.291792,0.061615,-0.021597,-0.006069,0.086478,0.999998,0.001633,0.001459,0.000308,0.738900,-0.089344,0.132408,0.654609,2.493037,18.218600,83.476768
39450,-2.301849,0.468606,8.868476,0.004528,0.614669,-0.659006,0.417896,0.456070,-0.150474,-0.022813,0.004518,0.088746,0.999995,0.002089,0.002280,-0.000752,0.739242,-0.089404,0.135360,0.653610,2.705256,18.481468,83.404094
39451,-3.012082,1.337535,9.069835,-0.888646,0.163455,-0.205039,0.192503,0.488589,-0.203633,-0.029886,0.013319,0.090784,0.999996,0.000963,0.002443,-0.001018,0.739628,-0.090429,0.137689,0.652545,2.780389,18.765445,83.300990
39452,-3.870358,1.422130,9.705766,-1.002025,-0.383139,0.677925,0.032578,0.484851,-0.149831,-0.038457,0.014234,0.097153,0.999997,0.000163,0.002424,-0.000749,0.739763,-0.092004,0.139488,0.651789,2.771771,19.044979,83.230171
39453,-5.187760,1.435130,10.300351,-1.100025,-1.379834,1.674501,0.114148,0.409242,-0.046495,-0.051663,0.014304,0.103118,0.999998,0.000571,0.002046,-0.000232,0.739648,-0.092949,0.141338,0.651387,2.831733,19.279285,83.219925
39454,-5.206633,1.582071,10.130468,-1.247138,-1.396960,1.533300,0.088999,0.246986,0.050656,-0.051945,0.015762,0.101376,0.999999,0.000445,0.001235,0.000253,0.739317,-0.093400,0.142533,0.651437,2.892904,19.417066,83.263743
39455,-4.304717,0.793798,9.726598,-0.399119,-0.769594,0.818202,-0.145862,0.119902,0.109704,-0.042993,0.007985,0.097286,0.999999,-0.000729,0.000600,0.000549,0.738774,-0.094253,0.142542,0.651929,2.832751,19.481627,83.339751
39456,-3.807003,0.274400,9.485673,0.146377,-0.439765,0.401603,-0.018725,0.102946,0.129576,-0.038023,0.002728,0.094876,1.000000,-0.000094,0.000515,0.000648,0.738237,-0.094576,0.142890,0.652414,2.846863,19.534756,83.427130
39457,-3.668777,0.509202,9.427370,-0.068679,-0.289665,0.311831,0.049565,0.103335,0.132737,-0.036642,0.005044,0.094294,1.000000,0.000248,0.000517,0.000664,0.737722,-0.094637,0.143486,0.652857,2.903346,19.589259,83.516674
39458,-3.521481,1.123513,9.247844,-0.666510,-0.123215,0.123423,0.061820,0.100759,0.134222,-0.035176,0.011183,0.092500,1.000000,0.000309,0.000504,0.000671,0.737208,-0.094653,0.144091,0.653302,2.964736,19.640865,83.606957
39459,-3.203507,2.043395,9.119206,-1.546256,0.257823,-0.058690,0.017192,0.118718,0.147365,-0.031996,0.020403,0.091213,1.000000,0.000086,0.000594,0.000737,0.736617,-0.094873,0.144645,0.653814,3.006093,19.703596,83.706050
39460,-3.363824,2.464385,9.128507,-1.978806,0.172406,0.024626,-0.146475,0.143271,0.187181,-0.033596,0.024679,0.091291,0.999999,-0.000732,0.000716,0.000936,0.735799,-0.095756,0.144750,0.654582,2.959693,19.777876,83.829992
39461,-3.530411,2.028371,9.143731,-1.575300,-0.023487,0.071833,-0.331922,0.151108,0.262107,-0.035262,0.020389,0.091430,0.999997,-0.001660,0.000756,0.001311,0.734639,-0.097281,0.144337,0.655751,2.825598,19.855942,83.999908
39462,-3.388428,1.574534,9.221509,-1.126626,0.092116,0.072604,-0.376636,0.188698,0.312842,-0.033822,0.015866,0.092217,0.999997,-0.001883,0.000943,0.001564,0.733259,-0.099068,0.143915,0.657119,2.674085,19.953240,84.201468
39463,-3.543838,0.709286,9.844170,-0.265119,0.071982,0.670342,-0.563805,0.192596,0.301064,-0.035354,0.007317,0.098455,0.999994,-0.002819,0.000963,0.001505,0.731815,-0.101549,0.142911,0.658567,2.416309,20.055016,84.395981
39464,-3.706786,-0.109230,9.880758,0.494646,-0.137967,0.728551,-0.502835,0.166546,0.256047,-0.036984,-0.000891,0.098841,0.999996,-0.002514,0.000833,0.001280,0.730562,-0.103764,0.141962,0.659817,2.180850,20.142426,84.561802
39465,-3.703789,0.148387,10.287771,0.242935,0.052512,1.119671,-0.218899,0.190884,0.228800,-0.036941,0.001554,0.102911,0.999998,-0.001094,0.000954,0.001144,0.729524,-0.105029,0.142050,0.660746,2.105834,20.246019,84.711671
39466,-4.365398,0.551688,10.061990,-0.223140,-0.584724,1.151479,0.128160,0.129329,0.308517,-0.043597,0.005385,0.100652,0.999998,0.000641,0.000647,0.001543,0.728446,-0.104780,0.143075,0.661753,2.243194,20.311317,84.908646
39467,-2.920402,1.432672,8.891175,-1.020760,0.461973,-0.411693,0.430969,0.144511,0.411797,-0.029169,0.014075,0.088963,0.999995,0.002155,0.000723,0.002059,0.727170,-0.103391,0.145236,0.662903,2.579532,20.383311,85.169704
39468,-1.457994,2.150427,8.755514,-1.585737,1.865798,-1.014211,0.310587,0.358456,0.431479,-0.014469,0.021337,0.087614,0.999995,0.001553,0.001792,0.002157,0.725604,-0.103147,0.147759,0.664099,2.850983,20.574658,85.449343
39469,-0.591134,1.897913,9.017114,-1.240421,2.771281,-1.092536,-0.239134,0.529832,0.337106,-0.005705,0.019077,0.090164,0.999994,-0.001196,0.002649,0.001686,0.723933,-0.105519,0.149053,0.665260,2.793599,20.867263,85.677580
39470,1.845821,2.060489,9.433273,-1.227362,5.249730,-1.592425,-0.420552,0.681790,0.100694,0.018769,0.020812,0.094225,0.999992,-0.002103,0.003409,0.000503,0.722829,-0.109243,0.150142,0.665614,2.579582,21.252677,85.764631
39471,4.494237,2.881355,10.920177,-1.790939,8.388292,-1.200006,-0.413582,0.991938,-0.201990,0.045512,0.028993,0.108917,0.999985,-0.002068,0.004960,-0.001010,0.722487,-0.114178,0.152229,0.664682,2.307932,21.823605,85.672610
39472,2.718941,3.766294,11.463399,-2.780688,7.134313,-0.099078,-0.267254,1.227273,-0.483665,0.027983,0.037749,0.114413,0.999977,-0.001336,0.006136,-0.002418,0.722958,-0.119597,0.155463,0.662464,2.050641,22.534769,85.408180
39473,3.384756,4.628792,13.448564,-3.474262,8.721746,1.394610,-0.395463,1.192454,-0.579689,0.034783,0.046454,0.134188,0.999976,-0.001977,0.005962,-0.002898,0.723665,-0.125401,0.158098,0.659991,1.695527,23.225288,85.078795
39474,4.422638,2.751892,17.757845,-1.378641,11.301319,4.776588,-1.426697,0.636931,-0.434303,0.044853,0.028687,0.177234,0.999967,-0.007133,0.003185,-0.002171,0.723643,-0.133013,0.155387,0.659168,0.771759,23.593539,84.822093
39475,4.202446,1.843320,13.031072,-0.797462,9.193886,0.468514,0.494197,0.057351,-0.500871,0.042107,0.018006,0.130343,0.999994,0.002471,0.000287,-0.002504,0.725542,-0.131766,0.156867,0.656977,0.932623,23.625746,84.516647
39476,3.975212,3.667642,13.512047,-2.466179,9.391836,1.028777,1.217551,0.269385,-0.615662,0.040045,0.035730,0.135286,0.999976,0.006088,0.001347,-0.003078,0.728105,-0.128723,0.161404,0.653638,1.474812,23.785516,84.140861
39477,2.316799,3.894399,12.663139,-2.757879,7.601630,0.934289,0.584960,-0.057598,-0.806422,0.023287,0.038480,0.126751,0.999988,0.002925,-0.000288,-0.004032,0.731124,-0.127005,0.162554,0.650311,1.609595,23.758346,83.642710
39478,1.637065,1.981152,11.502284,-0.955147,6.299050,0.102811,0.045033,-0.145406,-0.963984,0.016382,0.019707,0.115039,0.999988,0.000225,-0.000727,-0.004820,0.734364,-0.127159,0.161525,0.646877,1.389811,23.687539,83.043065
39479,1.170669,1.211411,10.446316,-0.278473,5.352000,-0.688999,0.496113,-0.135701,-1.041601,0.011698,0.011794,0.104501,0.999983,0.002481,-0.000679,-0.005208,0.738115,-0.125679,0.161931,0.642782,1.415971,23.616708,82.397473
39480,1.687880,2.656354,9.968772,-1.592148,5.843943,-1.292491,0.975061,-0.012160,-1.055743,0.017011,0.025988,0.099816,0.999974,0.004875,-0.000061,-0.005279,0.742080,-0.122903,0.164322,0.638130,1.708124,23.624248,81.743128
39481,1.895913,3.570247,9.233553,-2.416237,5.911806,-2.014556,0.917157,0.105036,-1.002387,0.019185,0.035183,0.092488,0.999977,0.004586,0.000525,-0.005012,0.745709,-0.120591,0.166979,0.633635,1.987440,23.694333,81.126597
39482,2.630044,4.074708,8.507981,-2.774860,6.420025,-2.957872,0.778201,0.326647,-0.885916,0.026619,0.040298,0.085194,0.999981,0.003891,0.001633,-0.004430,0.748667,-0.119472,0.170095,0.629517,2.210664,23.897920,80.585519
39483,2.766278,3.861258,8.261027,-2.483283,6.462847,-3.265153,0.552026,0.672769,-0.652264,0.028066,0.038293,0.082622,0.999985,0.002760,0.003364,-0.003261,0.750438,-0.120001,0.173918,0.626255,2.372180,24.288517,80.201795
39484,0.885063,2.819699,10.855174,-1.407671,5.694644,-0.212845,0.191082,1.073801,-0.317624,0.009478,0.028079,0.108529,0.999984,0.000955,0.005369,-0.001588,0.750570,-0.122931,0.178322,0.624286,2.408259,24.908752,80.035877
39485,-6.807803,0.587706,15.294071,0.126443,0.336389,6.934511,0.078006,1.005575,0.040305,-0.067309,0.005804,0.153283,0.999987,0.000390,0.005028,0.000202,0.749558,-0.125656,0.182317,0.623805,2.481447,25.472936,80.097475
39486,-11.423175,-1.285901,15.348120,1.369014,-4.052589,8.879727,1.064859,-0.124431,0.269316,-0.114309,-0.013830,0.153338,0.999985,0.005324,-0.000622,0.001347,0.749458,-0.121040,0.185309,0.623957,3.161364,25.392032,80.270104
39487,-6.448792,0.366758,12.884199,0.387129,-0.449381,4.587528,1.564619,-1.008096,0.389981,-0.065142,0.002535,0.128538,0.999955,0.007823,-0.005040,0.001950,0.750060,-0.111586,0.186596,0.624613,4.150682,24.791181,80.484374
39488,-4.261561,0.688258,11.128361,0.296707,0.688338,2.099909,0.993778,-1.290875,0.303658,-0.043343,0.006265,0.111038,0.999966,0.004969,-0.006454,0.001518,0.750814,-0.103550,0.184991,0.625567,4.770743,24.038024,80.617432
39489,-2.841093,-0.779020,9.314604,1.730805,0.822312,-0.233174,0.434508,-1.334215,0.213830,-0.029023,-0.008023,0.092937,0.999975,0.002173,-0.006671,0.001069,0.751555,-0.097467,0.181403,0.626704,5.049716,23.255624,80.687592
39490,-2.300751,-1.967085,7.956347,2.788786,0.456459,-1.782752,0.478873,-1.059794,0.082265,-0.023420,-0.019871,0.079393,0.999983,0.002394,-0.005299,0.000411,0.752449,-0.092280,0.178927,0.627128,5.318600,22.644314,80.684632
39491,-3.400594,-2.354903,8.100874,3.054773,-0.660256,-1.270705,0.704611,-0.767296,-0.093855,-0.034327,-0.023818,0.080794,0.999986,0.003523,-0.003836,-0.000469,0.753715,-0.087230,0.178155,0.626551,5.687325,22.201457,80.589142
39492,-3.968718,-2.076107,7.842212,2.690939,-1.295277,-1.289676,0.788660,-0.633995,-0.261042,-0.039963,-0.021018,0.078213,0.999986,0.003943,-0.003170,-0.001305,0.755401,-0.082514,0.178088,0.625176,6.061714,21.853040,80.394119
39493,-4.087282,-1.662294,7.298002,2.210094,-1.574767,-1.727814,0.764673,-0.453493,-0.422574,-0.041073,-0.016815,0.072823,0.999988,0.003823,-0.002267,-0.002113,0.757402,-0.078513,0.178538,0.623139,6.396419,21.610760,80.112429
39494,-4.436223,-1.735032,6.787636,2.154190,-2.128710,-2.093208,0.590942,-0.239571,-0.517970,-0.044489,-0.017436,0.067772,0.999992,0.002955,-0.001198,-0.002590,0.759426,-0.076001,0.179235,0.620782,6.610061,21.505555,79.784202
39495,-4.930401,-1.821458,7.305167,2.261969,-2.449104,-1.453419,0.621033,0.061663,-0.513687,-0.049328,-0.018315,0.073010,0.999992,0.003105,0.000308,-0.002568,0.761165,-0.074229,0.181148,0.618306,6.855414,21.565268,79.482028
39496,-8.475761,-2.341474,9.111094,2.523622,-5.205846,1.450679,0.774850,0.186773,-0.372229,-0.084716,-0.023610,0.091099,0.999990,0.003874,0.000934,-0.001861,0.762398,-0.072205,0.184083,0.616156,7.218329,21.695118,79.273942
39497,-12.432160,-2.255585,10.601464,2.100852,-8.332715,4.265255,1.236760,-0.218916,-0.281656,-0.124470,-0.023035,0.105737,0.999979,0.006184,-0.001095,-0.001408,0.763869,-0.067017,0.186903,0.614069,7.859569,21.582736,79.091509
39498,-12.517373,-0.704385,10.103722,0.558799,-8.320263,3.961342,1.448330,-0.932944,-0.315471,-0.125655,-0.007575,0.100398,0.999962,0.007242,-0.004665,-0.001577,0.766137,-0.058924,0.187641,0.611844,8.587339,21.076961,78.822827
39499,-9.587128,0.139159,7.760231,-0.206149,-6.335616,0.768828,0.952167,-1.419766,-0.466712,-0.096416,0.001249,0.076925,0.999961,0.004761,-0.007099,-0.002334,0.769117,-0.051324,0.184927,0.609612,8.988049,20.306158,78.414370
39500,-6.691443,-0.103860,5.289023,-0.020620,-4.605085,-2.632746,0.235077,-1.319858,-0.705547,-0.067265,-0.000864,0.052446,0.999971,0.001175,-0.006599,-0.003528,0.772499,-0.047059,0.180349,0.607047,8.932401,19.619464,77.869579
39501,-6.541276,-1.494008,3.878668,0.950266,-5.302622,-4.241081,-0.160792,-0.943579,-0.848242,-0.065657,-0.014631,0.038489,0.999980,-0.000804,-0.004718,-0.004241,0.775842,-0.045543,0.175975,0.604176,8.643771,19.152812,77.279390
39502,-7.532244,-2.142363,3.832278,1.274188,-6.438221,-4.073699,-0.002837,-0.497253,-0.818532,-0.075504,-0.021114,0.038136,0.999989,-0.000014,-0.002486,-0.004093,0.778715,-0.044783,0.173816,0.601154,8.464821,18.938215,76.749281
39503,-9.844228,-1.051606,5.198830,-0.035593,-7.909719,-1.908431,0.284759,-0.289179,-0.667145,-0.098552,-0.010261,0.051831,0.999992,0.001424,-0.001446,-0.003336,0.781001,-0.043357,0.173362,0.598417,8.491385,18.825221,76.330172
39504,-9.437954,0.530647,5.508654,-1.431753,-7.021106,-1.544932,0.130414,-0.317302,-0.468803,-0.094454,0.005492,0.054940,0.999996,0.000652,-0.001587,-0.002344,0.782677,-0.042316,0.172377,0.596584,8.464184,18.682393,76.026644
39505,-9.217820,0.736568,5.612013,-1.606144,-6.741212,-1.507179,-0.570297,-0.278382,-0.234913,-0.092247,0.007634,0.055970,0.999994,-0.002851,-0.001392,-0.001175,0.783464,-0.043901,0.169511,0.596257,8.085661,18.539896,75.867861
39506,-9.105106,0.256981,5.854830,-1.133925,-6.713448,-1.392977,-0.971464,-0.237659,0.006539,-0.091121,0.002851,0.058427,0.999987,-0.004857,-0.001188,0.000033,0.783396,-0.047004,0.165650,0.597194,7.521478,18.401927,75.857646
39507,-9.361220,-0.305339,6.355871,-0.610842,-6.977086,-0.920572,-1.154421,-0.239008,0.320604,-0.093683,-0.002837,0.063464,0.999981,-0.005772,-0.001195,0.001603,0.782323,-0.050535,0.161322,0.599493,6.915389,18.240324,76.037240
39508,-9.590979,-0.689505,6.287278,-0.342214,-7.323999,-0.967687,-1.248691,-0.281380,0.706622,-0.095974,-0.006842,0.062781,0.999973,-0.006243,-0.001407,0.003533,0.780068,-0.054017,0.156620,0.603363,6.322923,18.031064,76.446280
39509,-8.370270,-0.735917,6.130890,-0.063846,-6.265304,-1.510117,-1.346256,-0.304200,0.987912,-0.083760,-0.007360,0.061231,0.999964,-0.006731,-0.001521,0.004940,0.776906,-0.057572,0.151624,0.608369,5.728023,17.796999,77.024134
39510,-7.074024,-1.679808,6.625611,1.186419,-5.166103,-1.526194,-1.670787,-0.220797,1.077640,-0.070724,-0.016625,0.066317,0.999950,-0.008354,-0.001104,0.005388,0.773247,-0.062583,0.145954,0.613897,4.960524,17.611201,77.662530
39511,-7.689601,-3.079246,6.208032,2.336245,-6.167466,-1.834242,-1.344288,-0.185235,0.934453,-0.076810,-0.030734,0.062216,0.999966,-0.006721,-0.000926,0.004672,0.770038,-0.066533,0.141394,0.618564,4.356235,17.461661,78.218448
39512,-5.642527,-1.660117,7.283161,1.511094,-3.624106,-1.314396,-0.255728,-0.093961,0.712109,-0.056400,-0.016709,0.072826,0.999993,-0.001279,-0.000470,0.003561,0.767782,-0.066735,0.140445,0.621556,4.333375,17.374828,78.646046
39513,-5.871301,1.061261,8.506130,-0.978020,-2.917669,0.111175,0.421083,-0.096378,0.440793,-0.058777,0.010304,0.085055,0.999995,0.002105,-0.000482,0.002204,0.766588,-0.064522,0.141527,0.623016,4.651365,17.300471,78.910410
39514,-0.871866,4.308707,9.167879,-3.073096,2.622172,-0.482360,0.639009,-0.149469,0.163653,-0.008822,0.042787,0.091809,0.999994,0.003195,-0.000747,0.000818,0.766357,-0.061503,0.142964,0.623278,5.041540,17.204929,79.006125
39515,4.991701,6.316561,13.879003,-3.299466,9.834501,2.428150,-0.546270,0.167877,0.120638,0.049995,0.063574,0.138575,0.999996,-0.002731,0.000839,0.000603,0.765661,-0.064044,0.141941,0.624111,4.752301,17.295357,79.091951
39516,-1.881594,3.215129,15.075267,-1.527135,3.095603,5.327341,-1.771230,0.206187,0.527595,-0.018748,0.033435,0.150480,0.999957,-0.008856,0.001031,0.002638,0.763238,-0.071103,0.137333,0.627337,3.831645,17.388302,79.422490
39517,-6.475080,-2.825463,9.499568,2.707333,-3.970842,1.006414,-2.000390,-0.462294,0.921618,-0.064842,-0.027602,0.095124,0.999937,-0.010002,-0.002311,0.004608,0.759876,-0.076649,0.129609,0.632388,2.844796,17.092644,79.963702
39518,-1.814060,-6.435304,6.264437,6.614692,-1.119678,-3.572642,-1.290324,-0.116982,0.987629,-0.017861,-0.064036,0.063048,0.999967,-0.006452,-0.000585,0.004938,0.756279,-0.080552,0.125426,0.637042,2.275180,16.998333,80.557389
39519,-2.248633,-8.227003,7.865344,8.425379,-1.300980,-1.943556,-0.384155,0.527774,0.528353,-0.022061,-0.082177,0.078870,0.999991,-0.001921,0.002639,0.002642,0.754074,-0.083361,0.126403,0.639098,2.151544,17.288664,80.891522
39520,-2.688359,-6.058498,10.816912,6.491869,-0.431265,1.078022,0.388264,0.610846,-0.216331,-0.026619,-0.060766,0.108133,0.999993,0.001941,0.003054,-0.001082,0.754504,-0.083998,0.129823,0.637820,2.336681,17.641190,80.781618
39521,-4.785280,-3.480328,10.992880,3.688559,-1.873221,1.966124,0.533882,0.486557,-0.595007,-0.047689,-0.034955,0.109952,0.999989,0.002669,0.002433,-0.002975,0.756271,-0.083937,0.133094,0.635054,2.535290,17.933956,80.441656
39522,-6.123696,0.718234,10.145289,-0.641345,-2.593350,1.754670,1.671335,0.499630,-0.616211,-0.060962,0.006521,0.101662,0.999957,0.008357,0.002498,-0.003081,0.758534,-0.079623,0.139994,0.631417,3.379969,18.235942,80.091841
39523,-4.065288,5.564827,9.446780,-4.963083,0.091879,0.774599,1.997230,0.416020,-0.251559,-0.040386,0.054752,0.095102,0.999947,0.009986,0.002080,-0.001258,0.759762,-0.073554,0.147754,0.628904,4.479851,18.483560,79.962719
39524,-4.007796,8.246085,10.160645,-7.334331,0.919745,1.705113,0.714803,0.292634,0.292641,-0.040049,0.082038,0.101959,0.999991,0.003574,0.001463,0.001463,0.758852,-0.071554,0.151187,0.629417,4.947547,18.634606,80.159028
39525,-4.659012,5.487581,9.918427,-4.755785,-0.321732,1.477741,-0.692933,-0.003931,0.707844,-0.046787,0.055054,0.098993,0.999988,-0.003465,-0.000020,0.003539,0.756341,-0.073647,0.149234,0.632656,4.685619,18.598237,80.590496
39526,-3.547939,1.873359,8.694096,-1.252408,-0.363824,-0.326721,-0.789471,-0.076140,0.886937,-0.035596,0.018919,0.086853,0.999982,-0.003947,-0.000381,0.004435,0.753258,-0.075740,0.146740,0.636658,4.399582,18.512241,81.126720
39527,-3.352455,0.020829,8.843670,0.595280,-0.471362,-0.385421,-0.234063,0.099484,0.783376,-0.033481,0.000181,0.088453,0.999992,-0.001170,0.000497,0.003917,0.750566,-0.076373,0.146659,0.639772,4.416465,18.534630,81.608564
39528,-3.979912,-0.517997,9.454148,1.125276,-0.956386,0.351366,-0.050885,0.131677,0.530189,-0.039723,-0.005261,0.094569,0.999996,-0.000254,0.000658,0.002651,0.748721,-0.076607,0.147160,0.641788,4.488379,18.584014,81.939731
39529,-3.695661,-0.568509,9.635133,1.240445,-0.630717,0.428425,-0.189728,0.077449,0.243115,-0.036912,-0.005639,0.096371,0.999999,-0.000949,0.000387,0.001216,0.747780,-0.077398,0.146928,0.642842,4.426989,18.617532,82.095134
39530,-3.487975,-1.020963,9.432430,1.677467,-0.561640,0.139685,-0.182822,0.037242,0.071968,-0.034859,-0.010136,0.094340,1.000000,-0.000914,0.000186,0.000360,0.747420,-0.078160,0.146475,0.643273,4.334071,18.633413,82.145761
39531,-2.476535,-0.031764,9.023283,0.784377,0.429004,-0.498474,0.103030,0.098286,-0.014513,-0.024721,-0.000362,0.090245,1.000000,0.000515,0.000491,-0.000073,0.747405,-0.078114,0.147160,0.643140,4.390874,18.690344,82.146742
39532,-2.626429,0.567039,9.165764,0.199043,0.439404,-0.273391,0.028464,0.162960,-0.052881,-0.026188,0.005664,0.091680,1.000000,0.000142,0.000815,-0.000264,0.747435,-0.078582,0.147807,0.642899,4.396798,18.783514,82.127919
39533,-3.253843,0.294969,9.275423,0.403150,-0.141527,0.012046,0.050111,0.203257,-0.066932,-0.032443,0.002937,0.092788,0.999999,0.000251,0.001016,-0.000335,0.747489,-0.079111,0.148693,0.642567,4.414558,18.902602,82.102199
39534,-3.104339,0.512397,9.195372,0.206159,0.028294,-0.096156,0.096814,0.210172,-0.084580,-0.030945,0.005093,0.091989,0.999999,0.000484,0.001051,-0.000423,0.747611,-0.079498,0.149723,0.642137,4.454084,19.024159,82.066485
39535,-2.967527,0.828238,8.957161,-0.104541,0.154159,-0.342303,0.139388,0.232873,-0.099838,-0.029567,0.008235,0.089612,0.999999,0.000697,0.001164,-0.000499,0.747782,-0.079813,0.150992,0.641602,4.516812,19.161650,82.022412
39536,-2.662925,1.285665,8.797703,-0.521733,0.487662,-0.558845,0.120138,0.289116,-0.087560,-0.026496,0.012815,0.088023,0.999999,0.000601,0.001446,-0.000438,0.747861,-0.080368,0.152391,0.641110,4.570254,19.328495,81.988875
39537,-2.898928,1.413153,8.970816,-0.643847,0.372581,-0.308853,0.092755,0.360950,-0.034843,-0.028825,0.014095,0.089767,0.999998,0.000464,0.001805,-0.000174,0.747704,-0.081217,0.154014,0.640798,4.621297,19.536156,81.990606
39538,-3.527259,1.275093,9.629823,-0.499996,0.008424,0.509654,-0.034538,0.366123,-0.003233,-0.035096,0.012768,0.096360,0.999998,-0.000173,0.001831,-0.000016,0.747386,-0.082533,0.155238,0.640705,4.604396,19.743133,82.012103
39539,-5.070008,-0.193793,10.494679,0.845617,-1.358275,1.733772,-0.196392,0.262135,-0.001472,-0.050562,-0.001834,0.105015,0.999999,-0.000982,0.001311,-0.000007,0.747075,-0.084119,0.155579,0.640779,4.495071,19.892795,82.029172
39540,-5.058548,-0.380093,10.012253,0.965440,-1.517157,1.266336,0.090577,0.039081,-0.067729,-0.050567,-0.003829,0.100131,1.000000,0.000453,0.000195,-0.000339,0.747269,-0.083969,0.155954,0.640482,4.531153,19.915913,81.995461
39541,-2.523129,0.675708,9.085683,0.146838,0.718938,-0.387510,0.065064,0.003890,-0.166264,-0.025224,0.006748,0.090860,1.000000,0.000325,0.000019,-0.000831,0.747795,-0.083882,0.156098,0.639843,4.533077,19.925741,81.899882
39542,-2.454855,0.794390,8.657318,-0.015606,0.669356,-0.803901,0.016030,0.107229,-0.236380,-0.024493,0.007966,0.086587,0.999999,0.000080,0.000536,-0.001182,0.748443,-0.084360,0.156419,0.638944,4.492541,19.995388,81.766940
39543,-3.081129,1.413835,8.915921,-0.675239,0.292241,-0.302454,0.087910,0.183031,-0.222947,-0.030714,0.014133,0.089194,0.999999,0.000440,0.000915,-0.001115,0.749019,-0.084804,0.157281,0.637999,4.498419,20.109887,81.645397
39544,-3.304550,0.657443,8.946217,0.038148,-0.015012,-0.253119,-0.086825,0.189595,-0.162637,-0.032955,0.006640,0.089491,0.999999,-0.000434,0.000948,-0.000813,0.749320,-0.085873,0.157612,0.637419,4.415234,20.223177,81.560989
39545,-3.879620,-0.152197,9.371218,0.804910,-0.527702,0.285231,0.063772,0.209131,-0.158816,-0.038699,-0.001521,0.093752,0.999999,0.000319,0.001046,-0.000794,0.749658,-0.086438,0.158521,0.636720,4.420706,20.349564,81.479399
39546,-3.330068,-0.257610,9.047737,0.951759,-0.126026,-0.216048,0.199342,0.187957,-0.212613,-0.033218,-0.002631,0.090506,0.999998,0.000997,0.000940,-0.001063,0.750240,-0.086468,0.159736,0.635725,4.490456,20.464142,81.364321
39547,-2.980992,0.281143,8.898273,0.469616,0.261210,-0.439546,0.277107,0.252532,-0.279342,-0.029694,0.002730,0.089024,0.999997,0.001386,0.001263,-0.001397,0.751015,-0.086469,0.161432,0.634382,4.592622,20.620963,81.211449
39548,-3.330604,1.395842,9.146141,-0.616192,0.247718,-0.001878,0.358766,0.314811,-0.287895,-0.033142,0.013842,0.091539,0.999996,0.001794,0.001574,-0.001439,0.751795,-0.086363,0.163595,0.632915,4.739188,20.811885,81.056947
39549,-3.758379,2.607447,9.224844,-1.826359,0.135394,0.319827,0.313802,0.315709,-0.230189,-0.037408,0.025973,0.092348,0.999997,0.001569,0.001579,-0.001151,0.752369,-0.086384,0.165664,0.631692,4.873488,21.003015,80.937776
39550,-4.535497,2.288503,9.578796,-1.560845,-0.489075,0.905792,0.074773,0.258683,-0.089372,-0.045221,0.022869,0.095855,0.999999,0.000374,0.001293,-0.000447,0.752438,-0.087004,0.166803,0.631224,4.899203,21.152762,80.902212
39551,-5.406797,1.158071,10.284477,-0.478132,-1.241404,1.787974,-0.012908,0.126190,-0.007786,-0.054003,0.011589,0.102878,1.000000,-0.000065,0.000631,-0.000039,0.752322,-0.087470,0.167224,0.631187,4.891708,21.225052,80.909383
39552,-4.627927,-0.672484,9.427792,1.299332,-1.157158,0.566422,-0.154636,-0.069659,-0.033528,-0.046313,-0.006644,0.094267,1.000000,-0.000773,-0.000348,-0.000168,0.752388,-0.087870,0.166427,0.631263,4.792060,21.184618,80.890830
39553,-3.251456,0.010783,8.745588,0.739622,0.003036,-0.511596,0.292647,0.043502,-0.189824,-0.032495,0.000011,0.087463,0.999998,0.001463,0.000218,-0.000949,0.753048,-0.087078,0.167422,0.630321,4.917620,21.218700,80.782123
39554,-3.348017,0.152581,8.933849,0.610264,0.008392,-0.290419,-0.140667,0.003822,-0.390744,-0.033475,0.001654,0.089338,0.999998,-0.000703,0.000019,-0.001954,0.754184,-0.087957,0.166791,0.629008,4.748128,21.237458,80.548591
39555,-3.410753,1.450124,8.780877,-0.694480,0.159120,-0.308360,0.318390,0.101993,-0.432766,-0.034031,0.014435,0.087849,0.999996,0.001592,0.000510,-0.002164,0.755567,-0.087453,0.167977,0.627100,4.835192,21.316413,80.293925
39556,-3.481577,3.938560,9.208491,-3.057685,0.753627,0.312157,0.265253,0.143515,-0.314257,-0.034688,0.039318,0.092162,0.999998,0.001326,0.000718,-0.001571,0.756516,-0.087175,0.169181,0.625669,4.917428,21.411360,80.114385
39557,-4.162255,4.724458,9.335402,-3.912414,0.351170,0.740240,-0.137404,0.093755,-0.074428,-0.041561,0.047324,0.093341,1.000000,-0.000687,0.000469,-0.000372,0.756580,-0.088063,0.169065,0.625498,4.823104,21.468466,80.078941
39558,-4.872934,3.705198,9.920273,-2.983166,-0.297835,1.452191,-0.612504,0.005274,0.080004,-0.048742,0.037336,0.099090,0.999995,-0.003063,0.000026,0.000400,0.756022,-0.090339,0.167172,0.626357,4.487944,21.465487,80.133907
39559,-4.852212,1.222377,9.812603,-0.643284,-0.812266,1.153217,-0.943692,-0.156683,0.112463,-0.048606,0.012659,0.098029,0.999988,-0.004718,-0.000783,0.000562,0.755336,-0.093330,0.163669,0.627670,3.969763,21.371296,80.201201
39560,-4.211414,0.464036,9.947055,0.137571,-0.331120,0.993157,-0.723763,-0.163166,0.117119,-0.042198,0.004976,0.099419,0.999993,-0.003619,-0.000816,0.000586,0.754729,-0.095465,0.160803,0.628819,3.576523,21.271406,80.272116
39561,-4.256638,0.545783,10.339556,0.032744,-0.230613,1.379662,-0.644175,-0.199805,0.196014,-0.042675,0.005749,0.103335,0.999994,-0.003221,-0.000999,0.000980,0.753931,-0.097119,0.158113,0.630203,3.248203,21.150676,80.390437
39562,-4.093229,1.505525,9.946147,-0.974298,-0.054908,1.003717,-0.359151,-0.189538,0.306787,-0.041050,0.015171,0.099395,0.999997,-0.001796,-0.000948,0.001534,0.752906,-0.097644,0.156384,0.631777,3.105489,21.030370,80.577749
39563,-3.097916,2.324946,9.053904,-1.748819,0.680590,-0.145527,-0.299091,-0.139270,0.506517,-0.031101,0.023306,0.090483,0.999995,-0.001495,-0.000696,0.002533,0.751236,-0.097942,0.155158,0.634018,3.043573,20.935381,80.888917
39564,-1.770263,3.494655,8.308461,-2.788622,1.833272,-1.254672,-0.045123,0.091512,0.757611,-0.017797,0.034898,0.083085,0.999993,-0.000226,0.000458,0.003788,0.748704,-0.097824,0.155697,0.636891,3.182430,20.962034,81.361736
39565,0.416555,4.764243,9.045139,-3.659571,4.307793,-1.284118,-0.190649,0.383049,0.903008,0.004123,0.047747,0.090398,0.999988,-0.000953,0.001915,0.004515,0.745398,-0.099059,0.156961,0.640260,3.277241,21.152038,81.933971
39566,1.832132,4.288189,10.276594,-2.951044,5.975841,-0.705957,-1.119932,0.616042,0.827386,0.018458,0.043532,0.102467,0.999971,-0.005600,0.003080,0.004137,0.741658,-0.104563,0.156046,0.643941,2.825320,21.477148,82.467948
39567,2.738229,2.845221,11.828899,-1.441077,7.199478,0.267080,-1.789422,0.753171,0.512248,0.027752,0.029579,0.117924,0.999950,-0.008947,0.003766,0.002561,0.738417,-0.113215,0.153334,0.646847,1.924978,21.895411,82.808561
39568,3.607541,2.022962,13.087376,-0.643493,8.439698,0.991844,-1.700498,0.890993,0.032121,0.036654,0.021346,0.130533,0.999954,-0.008502,0.004455,0.000161,0.736601,-0.122355,0.151104,0.647778,0.961216,22.403307,82.848070
39569,6.731926,2.319293,16.106866,-0.587021,12.592931,2.483534,-1.348412,0.792101,-0.195398,0.067979,0.024211,0.160639,0.999969,-0.006742,0.003960,-0.000977,0.735757,-0.130017,0.149520,0.647612,0.145465,22.856356,82.737789
39570,8.016311,1.504070,15.037368,0.177747,13.340728,0.894220,-0.868067,0.481990,-0.523691,0.080565,0.015482,0.150113,0.999984,-0.004340,0.002410,-0.002618,0.736483,-0.135171,0.148109,0.646053,-0.481617,23.129812,82.416821
39571,10.919780,3.840175,14.285041,-1.762967,16.054392,-1.026585,0.764284,0.518492,-0.703359,0.109701,0.037471,0.142711,0.999983,0.003821,0.002592,-0.003517,0.738845,-0.134524,0.151988,0.642582,-0.215754,23.420587,81.983010
39572,10.120587,6.159817,14.768700,-3.904158,15.906224,-0.313908,1.284837,0.483500,-0.710942,0.101779,0.060288,0.147832,0.999970,0.006424,0.002417,-0.003555,0.741571,-0.131878,0.157390,0.638678,0.340940,23.696212,81.544842
39573,8.701216,6.697032,15.161333,-4.376422,14.917865,0.614628,0.768518,0.169934,-0.574535,0.087332,0.066137,0.151794,0.999988,0.003843,0.000850,-0.002873,0.743740,-0.129977,0.160061,0.635875,0.639897,23.790023,81.193696
39574,6.921791,4.700745,15.017727,-2.558591,12.952591,1.197493,0.088669,-0.254717,-0.420799,0.069125,0.046795,0.150286,0.999997,0.000443,-0.001274,-0.002104,0.745305,-0.129184,0.159092,0.634446,0.582120,23.644765,80.934532
39575,5.742171,2.259378,14.165885,-0.339953,11.115484,0.914812,0.246909,-0.571745,-0.332151,0.057054,0.022324,0.141850,0.999994,0.001235,-0.002859,-0.001661,0.746939,-0.126652,0.157487,0.633435,0.643413,23.310786,80.731367
39576,5.072842,1.604438,12.732249,0.179472,9.773856,-0.073308,0.871458,-0.692188,-0.335384,0.050313,0.015404,0.127565,0.999983,0.004357,-0.003461,-0.001677,0.749053,-0.121478,0.157417,0.631967,1.056158,22.915168,80.521892
39577,4.748483,2.279540,11.675780,-0.499618,9.117176,-0.829735,1.014697,-0.709009,-0.385115,0.047113,0.022111,0.117039,0.999979,0.005073,-0.003545,-0.001926,0.751399,-0.115666,0.157680,0.630204,1.545536,22.503977,80.281159
39578,4.227717,2.270728,10.686038,-0.555033,8.211012,-1.476546,0.727884,-0.613165,-0.427378,0.041997,0.022228,0.107071,0.999986,0.003639,-0.003066,-0.002137,0.753609,-0.111346,0.157390,0.628414,1.855614,22.158083,80.011045
39579,2.865640,2.246257,10.242629,-0.719041,6.759705,-1.329884,0.488139,-0.357154,-0.458351,0.028524,0.022147,0.102532,0.999993,0.002441,-0.001786,-0.002292,0.755567,-0.108664,0.157263,0.626562,2.030585,21.951111,79.729007
39580,0.595264,2.144894,10.586871,-0.920261,4.774077,-0.148423,0.191622,-0.156628,-0.486909,0.005922,0.021333,0.105894,0.999996,0.000958,-0.000783,-0.002435,0.757286,-0.107843,0.156976,0.624698,2.024765,21.869269,79.430808
39581,-0.931044,0.695896,11.122725,0.289819,3.279248,0.875090,-0.236628,-0.155911,-0.442766,-0.009382,0.007111,0.111212,0.999997,-0.001183,-0.000780,-0.002214,0.758631,-0.108514,0.155345,0.623355,1.791215,21.776351,79.163341
39582,-2.060289,-1.514920,10.894916,2.207557,1.712407,1.023975,-0.095770,-0.189276,-0.312891,-0.020730,-0.015065,0.108937,0.999998,-0.000479,-0.000946,-0.001564,0.759669,-0.108541,0.154128,0.622387,1.661431,21.671354,78.972671
39583,-2.857783,-2.719384,12.533343,3.451182,1.289725,2.799664,0.957278,-0.097161,-0.120359,-0.028655,-0.027776,0.125188,0.999988,0.004786,-0.000486,-0.000602,0.760600,-0.104608,0.156606,0.621305,2.186401,21.605666,78.905423
39584,-6.871691,-3.168514,13.629369,3.468038,-2.166818,5.230249,1.932563,-0.381023,0.127629,-0.068955,-0.033043,0.135848,0.999951,0.009663,-0.001905,0.000638,0.761445,-0.095982,0.161189,0.620490,3.316063,21.382006,78.978350
39585,-7.215337,-1.215643,13.313557,1.750771,-2.363285,5.091177,2.721069,-0.993251,0.217035,-0.072798,-0.014042,0.132593,0.999895,0.013605,-0.004966,0.001085,0.762766,-0.082275,0.165868,0.619602,4.910982,20.792983,79.076179
39586,-5.594789,0.124987,12.009466,0.826354,-1.259497,3.350318,2.368574,-1.463352,0.305907,-0.056825,-0.000256,0.119684,0.999902,0.011842,-0.007317,0.001529,0.763902,-0.068458,0.167703,0.619390,6.300037,19.939096,79.180410
39587,-4.621263,-0.782846,10.302825,1.769239,-1.334927,1.286844,1.469817,-1.638623,0.364439,-0.047039,-0.008669,0.102583,0.999938,0.007349,-0.008193,0.001822,0.764569,-0.057382,0.166042,0.620138,7.179636,18.969835,79.291655
39588,-5.607194,-1.798898,9.300704,2.499875,-2.976303,0.486240,1.288737,-1.517022,0.348870,-0.056742,-0.018685,0.092459,0.999949,0.006444,-0.007585,0.001744,0.765049,-0.047470,0.164297,0.620848,7.943484,18.079375,79.385381
39589,-6.287903,-1.304074,9.107147,1.948439,-3.738044,0.502620,1.135041,-1.440742,0.285944,-0.063513,-0.013646,0.090539,0.999957,0.005675,-0.007204,0.001430,0.765548,-0.038347,0.162300,0.621390,8.609940,17.226755,79.438578
39590,-7.791196,-1.413560,8.514027,1.720359,-5.492914,0.289549,0.641189,-1.380337,0.198523,-0.078483,-0.014485,0.084554,0.999971,0.003206,-0.006902,0.000993,0.766123,-0.031453,0.159008,0.621918,8.971949,16.425148,79.435009
39591,-8.642120,-1.742571,6.962554,1.579033,-6.890250,-1.081763,0.402111,-1.323177,0.082197,-0.086872,-0.017601,0.069017,0.999976,0.002011,-0.006616,0.000411,0.766930,-0.025667,0.155131,0.622168,9.182955,15.657644,79.366299
39592,-8.616568,-1.722094,5.949307,1.341878,-7.202498,-2.136276,0.212818,-1.113864,0.004811,-0.086495,-0.017286,0.058994,0.999984,0.001064,-0.005569,0.000024,0.767767,-0.021394,0.151486,0.622197,9.274599,15.024587,79.268195
39593,-10.679141,-2.781437,5.842306,1.944811,-9.501262,-1.947844,-0.030646,-0.880791,0.021596,-0.107044,-0.027817,0.057956,0.999990,-0.000153,-0.004404,0.000108,0.768322,-0.018700,0.147946,0.622449,9.239860,14.514224,79.203824
39594,-13.101754,-3.549992,5.281840,2.118154,-12.163950,-2.085674,0.319681,-0.769099,0.121666,-0.131198,-0.035664,0.052257,0.999991,0.001598,-0.003845,0.000608,0.768508,-0.015000,0.145962,0.622789,9.419291,14.065403,79.206269
39595,-14.915654,-3.104432,6.097807,1.544883,-13.698623,-0.910068,0.480232,-0.777081,0.246821,-0.149353,-0.031374,0.060323,0.999989,0.002401,-0.003885,0.001234,0.768302,-0.010514,0.144432,0.623491,9.710756,13.594259,79.280159
39596,-15.212700,-2.958520,4.278523,0.986017,-14.386794,-2.704239,0.266990,-1.075633,0.212853,-0.152322,-0.029804,0.041927,0.999984,0.001335,-0.005378,0.001064,0.768389,-0.005993,0.141106,0.624205,9.864211,12.963478,79.301131
39597,-10.844480,-2.733281,1.883622,1.048731,-10.654880,-6.071758,-0.509904,-0.988443,0.101670,-0.108522,-0.027341,0.018370,0.999984,-0.002550,-0.004942,0.000508,0.768712,-0.004771,0.135672,0.625022,9.562885,12.389031,79.267909
39598,-10.194141,-4.014931,0.583391,2.121972,-10.557757,-7.712326,-1.207619,-0.445221,-0.038645,-0.101962,-0.040094,0.005849,0.999979,-0.006038,-0.002226,-0.000193,0.769062,-0.008060,0.130147,0.625732,8.854099,12.138093,79.208909
39599,-10.923056,-4.171863,1.478720,2.298239,-11.128516,-6.685694,-1.123606,0.099652,-0.088859,-0.109242,-0.041586,0.015076,0.999984,-0.005618,0.000498,-0.000444,0.769189,-0.012738,0.126971,0.626151,8.200063,12.197453,79.171593
39600,-11.941522,-3.713291,3.822865,2.072656,-11.564282,-4.070420,-1.131112,0.298904,0.063395,-0.119346,-0.036953,0.038616,0.999983,-0.005656,0.001495,0.000317,0.768687,-0.017997,0.124546,0.627124,7.561694,12.359553,79.237650
39601,-12.051246,-3.250147,5.830432,1.925413,-11.166928,-1.978018,-1.154926,0.155822,0.290536,-0.120420,-0.032339,0.058585,0.999982,-0.005775,0.000779,0.001453,0.767534,-0.022745,0.121517,0.628974,6.936826,12.424281,79.423479
39602,-12.645547,-3.715047,8.171048,2.596376,-11.360770,0.418073,-1.603842,-0.092714,0.400225,-0.126420,-0.036747,0.081948,0.999966,-0.008019,-0.000464,0.002001,0.766094,-0.028378,0.116124,0.631514,6.063388,12.343105,79.655852
39603,-14.129250,-7.208363,6.156938,5.374350,-13.865322,-1.543918,-1.467099,-0.710776,0.042270,-0.141496,-0.071662,0.061593,0.999967,-0.007335,-0.003554,0.000211,0.766112,-0.031744,0.108748,0.632644,5.216767,11.934438,79.644479
39604,-6.575375,-4.964603,-1.978890,3.388089,-7.695553,-10.859917,0.984145,-0.665168,-1.031654,-0.065941,-0.049207,-0.020251,0.999969,0.004921,-0.003326,-0.005158,0.769840,-0.026444,0.109112,0.628284,5.647245,11.608649,79.011850
39605,5.984069,15.174723,7.810294,-12.162376,10.604184,-1.652322,6.200126,2.337603,-2.740472,0.062833,0.148397,0.082016,0.999357,0.030994,0.011686,-0.013699,0.777473,-0.011435,0.137130,0.613678,8.891893,13.136099,77.595562
39606,-5.224955,17.137403,27.352185,-11.976576,4.771141,20.235073,0.119047,2.009054,-1.788683,-0.047964,0.171653,0.274120,0.999909,0.000595,0.010045,-0.008943,0.781493,-0.018375,0.145155,0.606515,8.751885,14.428139,76.739804
39607,-7.931690,7.421438,10.085974,-7.110601,-3.461193,2.722298,-5.755849,-0.818508,-0.166384,-0.079659,0.077135,0.098342,0.999577,-0.028775,-0.004092,-0.000832,0.781708,-0.038507,0.124416,0.609894,5.414032,13.974152,76.587258
39608,0.589273,4.282506,2.476535,-3.648625,2.149330,-7.188209,-1.020235,0.672028,1.107958,0.005738,0.042983,0.024527,0.999966,-0.005101,0.003360,0.005540,0.777659,-0.043867,0.124107,0.614751,4.994460,14.297710,77.280570
39609,-2.371076,2.722456,8.133231,-1.977776,0.249300,-1.140396,-0.105433,1.682204,1.906223,-0.023284,0.027044,0.081515,0.999919,-0.000527,0.008411,0.009531,0.770645,-0.048269,0.130727,0.621842,5.242166,15.160280,78.498956
39610,-4.011081,-1.584258,11.653835,2.344315,-1.282436,2.322583,-2.145246,1.085289,1.614967,-0.039354,-0.014910,0.116917,0.999895,-0.010726,0.005426,0.008075,0.764286,-0.058862,0.128581,0.629181,4.278865,15.700892,79.514479
39611,-6.895210,-9.769308,11.826958,9.656369,-5.406911,2.850786,-2.921134,0.302817,0.484320,-0.068537,-0.096117,0.119785,0.999889,-0.014605,0.001514,0.002422,0.761597,-0.070667,0.120673,0.632783,2.686073,15.857320,79.818087
39612,-2.400810,-13.385798,7.564638,13.408350,-2.803726,-2.428881,-0.898421,0.482960,-0.144315,-0.023921,-0.133499,0.076304,0.999987,-0.004492,0.002415,-0.000722,0.761404,-0.075715,0.119584,0.632638,2.148161,16.135211,79.749806
39613,-2.266064,-6.441720,8.983858,6.805544,-0.940772,-0.860855,2.180963,1.499672,-0.463398,-0.022140,-0.065341,0.089297,0.999910,0.010904,0.007498,-0.002317,0.762702,-0.072450,0.131994,0.628979,3.328860,17.006600,79.520807
39614,-4.013750,1.563033,10.715438,-0.875865,-0.430711,1.694257,3.019540,1.621256,-0.503358,-0.039229,0.014107,0.107696,0.999850,0.015097,0.008106,-0.002517,0.764164,-0.066367,0.147437,0.624428,4.986914,17.951718,79.295355
39615,-4.852349,6.212643,11.699292,-5.137691,0.191999,3.324171,1.500746,1.134425,-0.251812,-0.047780,0.061305,0.117727,0.999955,0.007504,0.005672,-0.001259,0.764550,-0.064383,0.156351,0.621990,5.816950,18.612586,79.213324
39616,-7.058838,7.942486,10.491959,-7.243353,-1.720357,3.131946,0.696425,0.834977,0.073649,-0.070178,0.079032,0.105489,0.999985,0.003482,0.004175,0.000368,0.763852,-0.064270,0.161697,0.621493,6.244882,19.081516,79.316234
39617,-7.339885,6.238630,11.230446,-5.479659,-2.071504,3.774047,-0.527183,0.380906,0.243557,-0.073261,0.062593,0.112279,0.999994,-0.002636,0.001905,0.001218,0.762586,-0.067289,0.161583,0.622756,5.997652,19.284034,79.492546
39618,-5.755933,0.555623,10.305828,0.059787,-2.085511,1.818916,-1.763539,-0.193113,0.220297,-0.057666,0.006401,0.102949,0.999960,-0.008818,-0.000966,0.001101,0.761403,-0.073243,0.155390,0.625104,5.024788,19.159431,79.619838
39619,-3.821551,-2.949867,9.106755,3.499751,-1.371508,-0.215353,-1.086372,-0.187061,0.077341,-0.038289,-0.029018,0.091190,0.999985,-0.005432,-0.000935,0.000387,0.760870,-0.076752,0.151305,0.626333,4.413427,19.049852,79.661978
39620,-4.350051,-1.139740,9.445175,1.673577,-1.381242,0.420799,0.661660,0.199999,-0.004972,-0.043406,-0.011709,0.094457,0.999994,0.003308,0.001000,-0.000025,0.760954,-0.074876,0.154103,0.625776,4.792204,19.162037,79.674232
39621,-4.766376,2.529674,10.450203,-1.766771,-0.703031,1.793698,0.657160,0.073148,0.018058,-0.047628,0.024949,0.104602,0.999995,0.003286,0.000366,0.000090,0.761055,-0.072612,0.156438,0.625340,5.171963,19.203847,79.693678
39622,-3.991977,1.870601,10.005263,-1.045921,-0.269616,1.067269,-0.416571,-0.262574,0.091281,-0.040060,0.018896,0.099961,0.999997,-0.002083,-0.001313,0.000456,0.760792,-0.073316,0.154136,0.626149,4.944219,19.047071,79.740287
39623,-3.616144,-0.729553,9.270579,1.411117,-0.698688,0.039869,-0.328692,-0.269668,0.137843,-0.036281,-0.007168,0.092669,0.999998,-0.001643,-0.001348,0.000689,0.760418,-0.073638,0.152127,0.627056,4.777005,18.887468,79.814310
39624,-3.400693,-0.532528,9.373410,1.264699,-0.447223,0.082239,0.232005,-0.161974,0.119426,-0.034080,-0.005454,0.093700,0.999999,0.001160,-0.000810,0.000597,0.760222,-0.072168,0.152250,0.627435,4.927957,18.786921,79.883563
39625,-3.289552,0.193753,9.488036,0.607974,-0.183957,0.211183,0.168990,-0.199622,0.058384,-0.032991,0.001848,0.094849,0.999999,0.000845,-0.000998,0.000292,0.760224,-0.070878,0.152037,0.627631,5.031020,18.671115,79.912891
39626,-3.011314,0.246721,9.267135,0.584951,-0.003305,-0.083020,0.215542,-0.205712,-0.007998,-0.030208,0.002369,0.092643,0.999999,0.001078,-0.001029,-0.000040,0.760451,-0.069431,0.151896,0.627552,5.146873,18.551813,79.902534
39627,-2.981232,0.227232,9.316782,0.630635,0.013064,-0.048268,0.208597,-0.192918,-0.031841,-0.029902,0.002180,0.093141,0.999999,0.001043,-0.000965,-0.000159,0.760742,-0.068080,0.151800,0.627370,5.255132,18.444370,79.877412
39628,-3.416252,0.146442,9.296914,0.652978,-0.437879,0.061857,0.329439,-0.171718,-0.053493,-0.034242,0.001320,0.092942,0.999998,0.001647,-0.000859,-0.000267,0.761121,-0.066341,0.152129,0.627017,5.428081,18.346932,79.841073
39629,-2.454423,0.502500,8.983399,0.444302,0.420704,-0.506577,0.322589,-0.180231,-0.066554,-0.024624,0.004888,0.089820,0.999998,0.001613,-0.000901,-0.000333,0.761546,-0.064623,0.152424,0.626609,5.595107,18.248740,79.795226
39630,-1.729076,0.629934,8.515732,0.396907,0.972949,-1.163990,0.368717,-0.077305,-0.087181,-0.017321,0.006150,0.085162,0.999998,0.001844,-0.000387,-0.000436,0.761966,-0.063055,0.153224,0.626062,5.785919,18.207255,79.743724
39631,-1.953373,1.290066,8.649866,-0.227989,0.933612,-0.903346,0.498055,0.059894,-0.104150,-0.019501,0.012695,0.086536,0.999997,0.002490,0.000299,-0.000521,0.762374,-0.061448,0.154969,0.625295,6.050857,18.248289,79.689546
39632,-1.956459,2.025801,8.443460,-0.938859,1.030786,-1.021809,0.401787,0.143707,-0.119644,-0.019492,0.020100,0.084489,0.999998,0.002009,0.000719,-0.000598,0.762729,-0.060470,0.156703,0.624525,6.258821,18.335096,79.632495
39633,-2.340736,2.243084,8.851789,-1.121815,0.852110,-0.491743,0.199254,0.239381,-0.137197,-0.023286,0.022359,0.088568,0.999999,0.000996,0.001197,-0.000686,0.763003,-0.060587,0.158187,0.623805,6.350069,18.480603,79.570640
39634,-3.879588,1.909925,9.563720,-0.928676,-0.424165,0.633428,0.116092,0.253166,-0.119667,-0.038663,0.019067,0.095697,0.999999,0.000580,0.001266,-0.000598,0.763181,-0.061040,0.159446,0.623222,6.396508,18.629946,79.521181
39635,-4.789124,1.588430,9.995828,-0.694817,-1.193835,1.298900,0.014044,0.120226,-0.098582,-0.047823,0.015901,0.099988,1.000000,0.000070,0.000601,-0.000493,0.763370,-0.061461,0.159909,0.622831,6.386433,18.705197,79.474656
39636,-3.759617,0.310918,9.506127,0.629807,-0.647009,0.374684,-0.175370,-0.026081,-0.141511,-0.037606,0.003219,0.095054,0.999999,-0.000877,-0.000130,-0.000708,0.763748,-0.062173,0.159187,0.622481,6.255524,18.696850,79.393280
39637,-2.580314,-1.016865,9.022506,2.022236,0.023100,-0.592728,-0.163656,-0.006010,-0.262591,-0.025819,-0.010061,0.090233,0.999999,-0.000818,-0.000030,-0.001313,0.764492,-0.063010,0.158565,0.621642,6.109209,18.710262,79.239573
39638,-2.653828,-1.543187,9.192754,2.538814,-0.108374,-0.459953,0.150914,0.105061,-0.399360,-0.026521,-0.015448,0.091930,0.999998,0.000755,0.000525,-0.001997,0.765667,-0.063088,0.159276,0.620005,6.118031,18.792082,79.011526
39639,-2.832237,-0.455608,9.410756,1.506550,0.037377,-0.090532,0.488578,0.164200,-0.515042,-0.028257,-0.004713,0.094119,0.999993,0.002443,0.000821,-0.002575,0.767255,-0.062160,0.161246,0.617621,6.299102,18.918067,78.716889
39640,-3.068025,1.186525,9.212333,-0.122135,0.148306,-0.032575,0.600518,0.192906,-0.553256,-0.030559,0.011673,0.092188,0.999991,0.003003,0.000965,-0.002766,0.768959,-0.060909,0.163634,0.614992,6.536460,19.060904,78.402264
39641,-3.253824,2.558497,9.111435,-1.456395,0.292948,0.083999,0.571316,0.208122,-0.498455,-0.032380,0.025405,0.091221,0.999992,0.002857,0.001041,-0.002492,0.770464,-0.059784,0.166026,0.612574,6.767887,19.212870,78.121225
39642,-3.767970,3.335561,9.268196,-2.237364,0.079426,0.493173,0.428419,0.195071,-0.360018,-0.037529,0.033225,0.092790,0.999996,0.002142,0.000975,-0.001800,0.771501,-0.059041,0.167949,0.610814,6.943840,19.345993,77.923826
39643,-3.975403,2.878162,9.414104,-1.792202,-0.159283,0.650372,0.076684,0.103101,-0.220666,-0.039674,0.028789,0.094173,0.999999,0.000383,0.000516,-0.001103,0.772084,-0.059268,0.168505,0.609901,6.944148,19.420333,77.802949
39644,-4.409828,1.229478,9.675457,-0.249753,-0.880600,0.851965,-0.073853,0.026297,-0.176219,-0.044075,0.012369,0.096756,1.000000,-0.000369,0.000131,-0.000881,0.772549,-0.059793,0.168297,0.609318,6.864582,19.444955,77.704019
39645,-4.056702,0.267770,9.447226,0.686147,-0.860751,0.413108,-0.086193,-0.075610,-0.270864,-0.040599,0.002773,0.094456,0.999999,-0.000431,-0.000378,-0.001354,0.773386,-0.060146,0.167652,0.608399,6.757159,19.420849,77.539742
39646,-3.093618,-0.223601,8.828194,1.217137,-0.284147,-0.539324,-0.094856,-0.075667,-0.437535,-0.030974,-0.002126,0.088271,0.999997,-0.000474,-0.000378,-0.002188,0.774721,-0.060661,0.166906,0.606852,6.610761,19.404515,77.275844
39647,-2.623003,0.559544,8.946205,0.572837,0.386655,-0.498710,0.143051,0.029920,-0.539363,-0.026202,0.005602,0.089470,0.999996,0.000715,0.000150,-0.002697,0.776348,-0.060671,0.167282,0.604665,6.583069,19.457595,76.956966
39648,-3.119459,2.200682,9.038148,-1.082732,0.399089,-0.069458,0.278873,0.098846,-0.511657,-0.031094,0.021960,0.090428,0.999996,0.001394,0.000494,-0.002558,0.777865,-0.060327,0.168321,0.602457,6.639514,19.545159,76.660406
39649,-3.740115,2.974776,9.295626,-1.900660,0.133382,0.464281,0.137865,0.104603,-0.378434,-0.037296,0.029754,0.092996,0.999998,0.000689,0.000523,-0.001892,0.778932,-0.060447,0.169018,0.600870,6.642310,19.630233,76.443737
39650,-4.252784,2.603646,9.435119,-1.633525,-0.378894,0.726508,0.002032,0.037025,-0.217436,-0.042482,0.026082,0.094359,0.999999,0.000010,0.000185,-0.001087,0.779526,-0.060746,0.169070,0.600054,6.597666,19.663220,76.320391
39651,-3.800604,2.122178,9.351834,-1.097281,-0.112849,0.443445,-0.077300,0.002136,-0.120473,-0.037992,0.021281,0.093511,1.000000,-0.000387,0.000011,-0.000602,0.779837,-0.061177,0.168802,0.599682,6.527146,19.672850,76.252287
39652,-4.152612,1.625204,9.521351,-0.682804,-0.515728,0.666310,-0.124554,-0.011616,-0.111871,-0.041523,0.016335,0.095201,1.000000,-0.000623,-0.000058,-0.000559,0.780116,-0.061734,0.168317,0.599398,6.430248,19.671034,76.189319
39653,-4.088199,1.872852,9.424964,-0.938503,-0.415426,0.579497,-0.081472,-0.055994,-0.136331,-0.040896,0.018795,0.094231,1.000000,-0.000407,-0.000280,-0.000682,0.780521,-0.062020,0.167805,0.598985,6.352898,19.648433,76.107655
39654,-3.359540,2.185930,9.501614,-1.078861,0.359286,0.436819,-0.218185,-0.072729,-0.103762,-0.033619,0.021980,0.094980,0.999999,-0.001091,-0.000364,-0.000519,0.780796,-0.062753,0.166803,0.598829,6.202685,19.611096,76.045548
39655,-3.571825,1.952172,10.063901,-0.830559,0.268672,1.008075,-0.341271,-0.072174,-0.003573,-0.035754,0.019694,0.100593,0.999998,-0.001706,-0.000361,-0.000018,0.780734,-0.063892,0.165491,0.599154,6.003333,19.570815,76.043286
39656,-3.813924,1.817825,9.894321,-0.818923,-0.043559,0.914638,-0.258829,-0.089340,0.103273,-0.038193,0.018287,0.098903,0.999999,-0.001294,-0.000447,0.000516,0.780387,-0.064561,0.164368,0.599843,5.871541,19.511395,76.105603
39657,-3.240700,2.199915,9.267053,-1.188372,0.392579,0.169981,-0.211760,-0.045490,0.148093,-0.032444,0.022073,0.092640,0.999999,-0.001059,-0.000227,0.000740,0.779886,-0.065149,0.163597,0.600641,5.777746,19.477478,76.196922
39658,-2.305363,2.537048,8.782606,-1.407627,1.195099,-0.567378,-0.315565,0.055591,0.176897,-0.023052,0.025489,0.087792,0.999998,-0.001578,0.000278,0.000884,0.779177,-0.066414,0.162891,0.601614,5.631243,19.496732,76.312754
39659,-0.913695,2.962952,8.648774,-1.557011,2.557155,-1.126390,-0.430060,0.273502,0.195596,-0.009048,0.029807,0.086436,0.999996,-0.002150,0.001368,0.000978,0.778194,-0.068770,0.162722,0.602666,5.428681,19.642455,76.451800
39660,0.429159,3.229587,9.555506,-1.405574,4.169051,-0.726162,-0.644563,0.536987,0.132358,0.004526,0.032607,0.095438,0.999991,-0.003223,0.002685,0.000662,0.777101,-0.072800,0.162881,0.603559,5.094232,19.939550,76.567563
39661,1.957345,3.537291,10.759371,-1.241205,6.090763,-0.144804,-0.998767,0.764428,-0.114174,0.020004,0.035898,0.107339,0.999980,-0.004994,0.003822,-0.000571,0.776418,-0.079092,0.162786,0.603672,4.510742,20.381628,76.542042
39662,3.309643,3.739672,12.343843,-1.000358,7.996116,0.787631,-1.320783,0.993263,-0.467277,0.033797,0.038132,0.123022,0.999963,-0.006604,0.004966,-0.002336,0.776440,-0.087607,0.162433,0.602562,3.666163,20.966144,76.305587
39663,4.040667,4.071997,13.279561,-1.144408,9.210709,1.282466,-1.388163,1.141612,-0.811631,0.041330,0.041473,0.132275,0.999951,-0.006941,0.005708,-0.004058,0.777285,-0.097096,0.162309,0.600046,2.703664,21.644410,75.851560
39664,6.967402,6.530281,13.433076,-2.882705,12.712414,0.272719,-0.682303,1.230502,-1.008306,0.070827,0.065404,0.133674,0.999963,-0.003411,0.006152,-0.005041,0.778922,-0.104266,0.164518,0.596106,2.089144,22.370919,75.266507
39665,10.180445,6.463376,15.899804,-1.786760,16.627707,1.074735,-1.558105,1.201088,-0.959958,0.103067,0.065374,0.157874,0.999940,-0.007790,0.006005,-0.004800,0.779908,-0.114691,0.164026,0.593030,0.974528,23.071624,74.696433
39666,9.440018,3.972108,14.662316,0.129530,14.984563,-0.049777,-1.915024,0.664030,-0.702362,0.095027,0.040788,0.145921,0.999942,-0.009575,0.003320,-0.003512,0.780274,-0.124709,0.160496,0.591491,-0.296758,23.452584,74.266717
39667,10.023422,4.337133,14.387901,-0.137211,15.585853,-0.683027,0.397128,0.861703,-0.476072,0.100956,0.042846,0.143531,0.999986,0.001986,0.004308,-0.002380,0.781198,-0.126068,0.164707,0.588819,-0.188276,23.941284,73.973577
39668,6.672363,5.649529,17.380861,-1.724463,14.236337,3.335650,1.252654,0.626210,-0.295533,0.067350,0.055307,0.173947,0.999974,0.006263,0.003131,-0.001478,0.782292,-0.123272,0.170621,0.586269,0.452073,24.298612,73.794857
39669,6.102842,3.897323,16.362756,-0.160170,12.842195,2.646257,0.299214,-0.399052,-0.160099,0.060733,0.038680,0.163807,0.999997,0.001496,-0.001995,-0.000800,0.783255,-0.121033,0.169802,0.585688,0.583794,24.064917,73.699879
39670,6.774723,1.818699,13.975298,1.767616,11.835846,0.252085,0.643342,-0.779902,-0.162573,0.067216,0.017682,0.140073,0.999987,0.003217,-0.003899,-0.000813,0.784743,-0.116378,0.168502,0.585014,0.906709,23.617408,73.597560
39671,5.956615,2.053760,13.186969,1.357958,10.773491,-0.031169,1.475932,-0.839236,-0.220978,0.059034,0.019497,0.132265,0.999963,0.007380,-0.004196,-0.001105,0.786897,-0.108269,0.169345,0.583433,1.695593,23.131941,73.456109
39672,4.570725,2.762717,12.929457,0.458059,9.537028,0.411063,1.468601,-0.980953,-0.265594,0.045108,0.026616,0.129715,0.999960,0.007343,-0.004905,-0.001328,0.789237,-0.099862,0.169590,0.581697,2.462266,22.573758,73.274728
39673,3.338452,2.581045,12.146646,0.340579,7.975540,0.267920,1.335642,-1.092068,-0.268076,0.032754,0.024954,0.121815,0.999962,0.006678,-0.005460,-0.001340,0.791549,-0.091586,0.168970,0.580096,3.154974,21.947238,73.084489
39674,2.269411,2.535506,11.012289,0.053890,6.489887,-0.287767,1.539213,-1.057359,-0.211216,0.022137,0.024482,0.110432,0.999956,0.007696,-0.005287,-0.001056,0.793697,-0.082614,0.169115,0.578464,3.971756,21.347944,72.919694
39675,1.459458,3.408524,9.933104,-1.026960,5.570702,-0.850354,1.817931,-0.886151,-0.139617,0.014177,0.033170,0.099699,0.999949,0.009090,-0.004431,-0.000698,0.795528,-0.072892,0.170729,0.576778,4.970203,20.837873,72.800592
39676,1.137563,4.279092,9.196247,-1.920660,5.242092,-1.268428,1.684165,-0.652173,-0.115565,0.011099,0.042008,0.092355,0.999959,0.008421,-0.003261,-0.000578,0.796973,-0.064421,0.172912,0.575140,5.894599,20.469817,72.697890
39677,1.480819,3.777557,8.162581,-1.465875,5.012349,-2.341567,0.649794,-0.449869,-0.061300,0.014636,0.037506,0.081781,0.999992,0.003249,-0.002249,-0.000306,0.797708,-0.060526,0.172904,0.574545,6.247021,20.206380,72.640450
39678,1.539090,2.096944,7.358749,-0.023678,4.248709,-3.265547,-0.168135,-0.033158,0.027820,0.015376,0.021033,0.073572,1.000000,-0.000841,-0.000166,0.000139,0.797579,-0.061090,0.172265,0.574857,6.153320,20.183361,72.660643
39679,-0.153728,0.690747,8.259431,1.001455,2.552392,-1.989569,-0.100426,0.568475,0.206627,-0.001310,0.006948,0.082595,0.999995,-0.000502,0.002842,0.001033,0.796429,-0.062878,0.174240,0.575663,6.155743,20.483148,72.832489
39680,-4.357466,0.900121,10.702075,0.184644,-0.341347,1.770938,0.260149,0.956139,0.386296,-0.043079,0.008778,0.107239,0.999986,0.001301,0.004781,0.001931,0.794528,-0.064269,0.178883,0.576711,6.408433,21.001050,73.137349
39681,-10.218938,2.091897,16.182706,-1.280134,-3.402130,9.094123,0.073009,0.788391,0.436619,-0.101596,0.020638,0.162236,0.999990,0.000365,0.003942,0.002183,0.792546,-0.065793,0.182297,0.578195,6.569839,21.410084,73.467908
39682,-18.794049,0.385132,19.223710,-1.310721,-10.658700,14.836586,-0.668410,-0.661530,0.326273,-0.188582,0.004185,0.191600,0.999988,-0.003342,-0.003308,0.001631,0.791949,-0.066243,0.177817,0.580353,6.240214,21.010139,73.627348
39683,-13.757013,-3.165519,15.817928,2.456697,-8.626577,9.396789,-1.046973,-2.714994,0.307093,-0.139654,-0.031047,0.156456,0.999893,-0.005235,-0.013574,0.001535,0.793008,-0.062169,0.164051,0.583405,5.648405,19.434306,73.650836
39684,-6.419524,-5.899951,8.269988,5.368640,-5.387234,-0.508947,-0.514611,-3.354393,0.401715,-0.065453,-0.058919,0.081761,0.999854,-0.002573,-0.016771,0.002008,0.794284,-0.054099,0.149319,0.586422,5.365834,17.496817,73.703383
39685,-4.051751,-3.576501,5.071286,3.216510,-3.574733,-4.173870,2.266310,-2.424148,0.333097,-0.041065,-0.036401,0.049807,0.999861,0.011331,-0.012120,0.001665,0.795586,-0.037684,0.146346,0.586690,6.679322,16.086003,73.757332
39686,-6.259255,0.737591,6.173490,-1.144747,-4.199550,-2.139143,2.933719,-1.564840,0.164185,-0.063079,0.006423,0.061341,0.999861,0.014668,-0.007824,0.000821,0.796666,-0.021313,0.148705,0.585454,8.350628,15.182318,73.737711
39687,-10.304133,0.634037,6.896915,-1.911385,-7.991293,-0.505323,1.167379,-1.549073,-0.012025,-0.103571,0.005947,0.068204,0.999953,0.005837,-0.007745,-0.000060,0.797906,-0.012090,0.145885,0.584737,8.983533,14.296713,73.599782
39688,-10.425136,-1.843260,4.805439,-0.110102,-9.413570,-2.990458,0.104664,-1.652389,-0.146994,-0.104657,-0.018381,0.047181,0.999965,0.000523,-0.008262,-0.000735,0.799494,-0.006962,0.139550,0.584197,8.983512,13.372070,73.367044
39689,-9.397017,-3.058602,2.560967,0.779437,-9.314743,-5.708571,1.031179,-1.173235,-0.215420,-0.094151,-0.030614,0.024900,0.999969,0.005156,-0.005866,-0.001077,0.800921,0.000474,0.137808,0.582695,9.521675,12.720462,73.137855
39690,-9.030319,-1.825356,2.500199,-0.301469,-8.634669,-5.753063,1.594420,-0.598782,-0.228691,-0.090398,-0.018347,0.024585,0.999963,0.007972,-0.002994,-0.001143,0.801942,0.008432,0.140016,0.580701,10.390016,12.402465,72.949977
39691,-9.854404,-1.342617,3.143023,-0.840328,-9.177866,-4.928937,0.894826,-0.202924,-0.228456,-0.098591,-0.013454,0.031270,0.999989,0.004474,-0.001015,-0.001142,0.802671,0.012478,0.141763,0.579195,10.869950,12.305488,72.802598
39692,-12.045811,-2.322256,4.969822,-0.133325,-11.288661,-2.903136,0.113726,0.020601,-0.173551,-0.120473,-0.023146,0.049697,0.999999,0.000569,0.000103,-0.000868,0.803127,0.012737,0.142150,0.578462,10.911015,12.333043,72.709993
39693,-17.539896,-4.241419,7.754071,0.697353,-16.649341,0.583283,-0.321194,-0.175801,-0.058066,-0.175479,-0.042239,0.077454,0.999998,-0.001606,-0.000879,-0.000290,0.803411,0.011934,0.140480,0.578493,10.715473,12.234900,72.662990
39694,-17.297962,-4.542678,6.406674,0.670626,-16.763112,-0.899432,0.037864,-1.032292,-0.042844,-0.173317,-0.045402,0.063164,0.999987,0.000189,-0.005161,-0.000214,0.804222,0.015027,0.136409,0.578267,10.705521,11.655498,72.531045
39695,-9.801458,-2.987576,2.669594,0.494190,-9.807989,-5.853011,-0.275002,-1.146066,-0.055217,-0.098174,-0.029812,0.026175,0.999983,-0.001375,-0.005730,-0.000276,0.805146,0.017199,0.130979,0.578177,10.516298,11.012677,72.381008
39696,-7.237959,-2.966231,0.492522,0.707414,-7.692542,-8.488485,-0.870184,-0.447792,-0.026570,-0.072395,-0.029631,0.004892,0.999988,-0.004351,-0.002239,-0.000133,0.805557,0.014958,0.126626,0.578637,10.002669,10.760156,72.324285
39697,-8.717722,-3.270586,1.698102,0.817812,-9.021766,-7.070873,-1.002065,0.333868,0.135047,-0.087126,-0.032679,0.017290,0.999986,-0.005010,0.001669,0.000675,0.804995,0.010035,0.125037,0.579869,9.447635,10.933603,72.439480
39698,-12.725227,-2.343308,7.020572,-0.074947,-11.734646,-0.924389,-0.910785,0.776649,0.430741,-0.126928,-0.023385,0.070806,0.999980,-0.004554,0.003883,0.002154,0.803265,0.004371,0.125463,0.582241,8.984402,11.330642,72.765515
39699,-19.673567,-4.790626,9.319438,0.722763,-18.655520,2.365153,-0.888877,0.075855,0.689914,-0.196534,-0.048169,0.093483,0.999984,-0.004444,0.000379,0.003450,0.801194,0.000997,0.123148,0.585595,8.552533,11.312714,73.174957
39700,-8.079880,-2.674292,4.396512,1.106311,-7.818789,-4.389815,0.318997,-0.728403,0.546212,-0.080885,-0.027034,0.043628,0.999988,0.001595,-0.003642,0.002731,0.800007,0.004728,0.121125,0.587618,8.780237,10.850348,73.431282
39701,10.125018,9.435330,9.531607,-3.985526,13.779637,-1.059223,1.772070,1.082246,-0.636350,0.102065,0.093183,0.095594,0.999941,0.008860,0.005411,-0.003182,0.801113,0.008222,0.130661,0.584018,9.741356,11.522014,73.169869
39702,5.529440,8.974135,21.314649,-2.115975,11.283706,11.010195,-0.574833,2.430337,-0.789043,0.058232,0.090126,0.212192,0.999914,-0.002874,0.012151,-0.003945,0.801760,-0.001708,0.138703,0.581326,9.362123,12.967500,72.955245
39703,-9.692000,-0.784388,13.585261,0.645328,-6.945396,5.366784,-5.018786,-0.022634,0.066263,-0.096934,-0.004465,0.135982,0.999685,-0.025091,-0.000113,0.000331,0.801266,-0.021727,0.123970,0.584921,6.493092,12.948996,72.996284
39704,-4.344703,-2.721960,5.667542,2.301574,-3.854358,-3.627812,-1.322822,0.417437,0.791168,-0.043221,-0.027015,0.056945,0.999968,-0.006614,0.002087,0.003956,0.798497,-0.027771,0.121822,0.588889,5.842375,13.135675,73.490569
39705,-5.633683,-0.702209,8.328532,0.540898,-3.860339,-0.517648,1.043407,1.516632,0.787870,-0.055674,-0.007678,0.083670,0.999950,0.005217,0.007583,0.003939,0.795336,-0.027611,0.131043,0.591190,6.568914,13.951090,74.052984
39706,-2.234764,-0.294341,10.316552,1.447166,-0.065458,0.647312,-1.331491,0.721879,0.366785,-0.021970,-0.002297,0.103262,0.999970,-0.006657,0.003609,0.001834,0.793544,-0.034813,0.129991,0.593446,5.866920,14.337087,74.319946
39707,-0.343070,-4.642267,8.394703,5.636981,0.133508,-2.044657,-2.144921,0.560264,-0.167543,-0.003233,-0.045516,0.084448,0.999938,-0.010724,0.002801,-0.000838,0.793232,-0.045115,0.125804,0.594072,4.618709,14.666119,74.255725
39708,-0.786133,-5.620133,7.852145,6.303977,-0.582561,-2.479207,-0.212421,1.286784,-0.313125,-0.007444,-0.056106,0.078630,0.999978,-0.001062,0.006434,-0.001566,0.793259,-0.049990,0.130170,0.592703,4.461693,15.413020,74.136380
39709,-5.485652,-0.309583,11.381569,0.630584,-2.439212,2.571786,1.440389,1.722811,-0.224160,-0.053878,-0.003857,0.114257,0.999936,0.007202,0.008614,-0.001121,0.793087,-0.049552,0.141194,0.590442,5.271582,16.407862,74.094788
39710,-8.123824,3.522732,13.384563,-3.180519,-3.092745,5.610261,0.999287,1.124260,-0.140966,-0.080459,0.034613,0.134473,0.999971,0.004996,0.005621,-0.000705,0.792908,-0.049021,0.148530,0.588925,5.835933,17.054454,74.081357
39711,-5.975941,3.101023,11.292117,-2.514935,-1.675497,2.982139,-0.420309,0.414766,0.029182,-0.059530,0.031239,0.112979,0.999996,-0.002102,0.002074,0.000146,0.792384,-0.051914,0.148933,0.589281,5.604949,17.289962,74.127811
39712,-4.958962,0.763006,10.009503,-0.271404,-1.723730,1.247085,-0.230544,0.367193,0.113737,-0.049410,0.007717,0.100177,0.999997,-0.001153,0.001836,0.000569,0.791686,-0.053838,0.149705,0.589850,5.496832,17.490706,74.222537
39713,-5.127537,1.275655,10.382297,-0.721286,-1.591781,1.704987,0.183516,0.348543,0.137367,-0.051103,0.012626,0.103924,0.999998,0.000918,0.001743,0.000687,0.791044,-0.054064,0.151655,0.590192,5.630496,17.682803,74.329197
39714,-4.556638,0.663158,10.271034,-0.001518,-1.255701,1.373020,-0.240146,0.136579,0.088504,-0.045499,0.006735,0.102733,0.999999,-0.001201,0.000683,0.000443,0.790586,-0.055363,0.151477,0.590731,5.508773,17.753413,74.395595
39715,-4.049691,-0.314264,9.951440,0.990546,-1.149909,0.828103,-0.103189,0.070022,0.007930,-0.040462,-0.003093,0.099530,1.000000,-0.000516,0.000350,0.000040,0.790458,-0.056000,0.151445,0.590851,5.449899,17.794052,74.408485
39716,-4.349030,0.569265,10.350088,0.142257,-1.051530,1.378224,0.096116,0.017975,-0.077461,-0.043479,0.005660,0.103508,1.000000,0.000481,0.000090,-0.000387,0.790672,-0.055745,0.151746,0.590511,5.488429,17.806190,74.368564
39717,-4.110729,0.810633,10.227637,-0.055488,-0.799132,1.210834,-0.115906,-0.165312,-0.153670,-0.041186,0.008197,0.102238,0.999999,-0.000580,-0.000827,-0.000768,0.791195,-0.055861,0.150700,0.590067,5.388509,17.721470,74.271178
39718,-3.461977,0.502389,9.464651,0.254212,-0.513009,0.261510,-0.039961,-0.203379,-0.153978,-0.034712,0.005070,0.094610,0.999999,-0.000200,-0.001017,-0.000770,0.791764,-0.055548,0.149702,0.589588,5.331488,17.611359,74.173019
39719,-3.639926,1.432664,9.531315,-0.670754,-0.397783,0.460549,0.129766,-0.185505,-0.106132,-0.036480,0.014284,0.095289,0.999999,0.000649,-0.000928,-0.000531,0.792228,-0.054597,0.149314,0.589152,5.380912,17.512490,74.103157
39720,-3.084057,1.522255,9.437792,-0.632068,0.094236,0.211889,-0.046783,-0.242835,-0.040436,-0.030952,0.015251,0.094337,0.999999,-0.000234,-0.001214,-0.000202,0.792487,-0.054111,0.148171,0.589136,5.340070,17.373795,74.070797
39721,-2.859216,0.558014,9.175437,0.285865,-0.077581,-0.190455,-0.042171,-0.237745,0.005121,-0.028701,0.005599,0.091719,0.999999,-0.000211,-0.001189,0.000026,0.792613,-0.053604,0.147099,0.589281,5.310306,17.239180,74.064645
39722,-2.958507,0.069982,9.174918,0.715191,-0.334646,-0.204708,0.016040,-0.190275,-0.023081,-0.029672,0.000696,0.091721,1.000000,0.000080,-0.000951,-0.000115,0.792798,-0.053010,0.146354,0.589272,5.309573,17.129523,74.045738
39723,-2.954624,-0.298879,9.359442,1.090990,-0.411161,-0.062869,-0.002664,-0.184788,-0.090963,-0.029634,-0.002974,0.093567,0.999999,-0.000013,-0.000924,-0.000455,0.793177,-0.052573,0.145582,0.588992,5.286423,17.030172,73.985250
39724,-2.406314,-0.076520,9.113107,0.979025,0.079828,-0.438252,0.123182,-0.165359,-0.184987,-0.024139,-0.000799,0.091111,0.999999,0.000616,-0.000827,-0.000925,0.793846,-0.051746,0.145208,0.588256,5.319337,16.943300,73.871176
39725,-1.773412,0.457924,8.711606,0.575366,0.708245,-0.957514,0.151787,-0.105137,-0.252931,-0.017774,0.004536,0.087110,0.999999,0.000759,-0.000526,-0.001265,0.794682,-0.051049,0.145163,0.587198,5.357854,16.898008,73.718534
39726,-1.513555,0.951084,8.605741,0.168392,1.065683,-1.089721,0.191181,0.016594,-0.273549,-0.015115,0.009449,0.086068,0.999999,0.000956,0.000083,-0.001368,0.795494,-0.050550,0.145688,0.586011,5.417470,16.919853,73.561802
39727,-1.805248,1.376327,8.687442,-0.285374,0.955009,-0.889048,0.190566,0.111310,-0.271991,-0.017985,0.013705,0.086898,0.999998,0.000953,0.000557,-0.001360,0.796234,-0.050347,0.146611,0.584793,5.478311,16.999166,73.410028
39728,-1.909207,1.790827,8.723378,-0.685007,1.012171,-0.787408,0.151320,0.202102,-0.267964,-0.018980,0.017868,0.087267,0.999998,0.000757,0.001011,-0.001340,0.796879,-0.050546,0.147758,0.583607,5.518765,17.126794,73.267198
39729,-2.890593,1.439154,9.229937,-0.523669,0.155642,-0.049496,0.040507,0.247317,-0.258541,-0.028773,0.014410,0.092338,0.999998,0.000203,0.001237,-0.001293,0.797437,-0.051326,0.148786,0.582515,5.497757,17.282944,73.131212
39730,-3.374408,1.153850,9.534929,-0.329546,-0.272661,0.358343,0.056293,0.225552,-0.255537,-0.033622,0.011555,0.095391,0.999999,0.000281,0.001128,-0.001278,0.797999,-0.051962,0.149751,0.581439,5.485619,17.423249,72.996915
39731,-2.975140,1.375887,9.593229,-0.416078,0.203712,0.314498,-0.018022,0.207638,-0.296062,-0.029631,0.013811,0.095962,0.999998,-0.000090,0.001038,-0.001480,0.798676,-0.052888,0.150440,0.580248,5.422938,17.558681,72.835856
39732,-3.899324,0.939153,9.686325,-0.253235,-0.728291,0.642791,-0.044087,0.186110,-0.294313,-0.038889,0.009470,0.096897,0.999998,-0.000220,0.000931,-0.001472,0.799350,-0.053840,0.150945,0.579100,5.344852,17.678330,72.675653
39733,-3.834112,1.216098,9.475509,-0.538715,-0.612252,0.448866,0.016146,0.130087,-0.250819,-0.038264,0.012201,0.094781,0.999999,0.000081,0.000650,-0.001254,0.799959,-0.054370,0.151435,0.578081,5.307922,17.766786,72.536829
39734,-2.786121,0.973502,9.338907,-0.043456,0.242730,-0.021644,-0.125762,0.116086,-0.226573,-0.027796,0.009825,0.093399,0.999999,-0.000629,0.000580,-0.001133,0.800464,-0.055394,0.151442,0.577282,5.193636,17.842576,72.412906
39735,-3.479145,0.326047,9.768456,0.433971,-0.467226,0.542352,-0.017863,0.128265,-0.232223,-0.034725,0.003310,0.097707,0.999999,-0.000089,0.000641,-0.001161,0.801009,-0.056040,0.151830,0.576361,5.140141,17.928669,72.284748
39736,-2.783466,0.054292,9.208557,0.783393,-0.061428,-0.224640,-0.048911,0.065083,-0.277313,-0.027804,0.000604,0.092094,0.999999,-0.000245,0.000325,-0.001387,0.801717,-0.056647,0.151840,0.575313,5.059262,17.977625,72.127341
39737,-1.939025,-0.448395,8.758076,1.413053,0.429338,-0.953584,-0.051768,0.143332,-0.391618,-0.019336,-0.004423,0.087596,0.999998,-0.000259,0.000717,-0.001958,0.802696,-0.057594,0.152145,0.573772,4.956457,18.079931,71.903953
39738,-2.464250,0.059462,9.032911,0.832625,0.216474,-0.489095,0.190329,0.266873,-0.477596,-0.024521,0.000567,0.090362,0.999996,0.000952,0.001334,-0.002388,0.803888,-0.057973,0.153592,0.571676,4.977768,18.253659,71.636452
39739,-3.116031,0.977266,8.994379,-0.213978,-0.043610,-0.246300,0.237420,0.299688,-0.472130,-0.031002,0.009739,0.090002,0.999995,0.001187,0.001498,-0.002361,0.805049,-0.058267,0.155327,0.569539,5.026522,18.449090,71.372487
39740,-2.993453,1.540430,8.973370,-0.691423,0.286535,-0.257858,0.158659,0.326107,-0.408498,-0.029757,0.015394,0.089795,0.999996,0.000793,0.001631,-0.002042,0.805976,-0.058888,0.156940,0.567719,5.042097,18.653450,71.149345
39741,-3.569232,1.430382,9.628816,-0.629493,-0.051924,0.536245,0.110236,0.350507,-0.351544,-0.035498,0.014313,0.096358,0.999997,0.000551,0.001753,-0.001758,0.806706,-0.059743,0.158551,0.566143,5.040322,18.871955,70.960272
39742,-5.094706,1.173686,10.408526,-0.703497,-1.256341,1.745755,0.137930,0.254143,-0.326436,-0.050796,0.011748,0.104158,0.999998,0.000690,0.001271,-0.001632,0.807441,-0.060179,0.159837,0.564685,5.057226,19.031158,70.782337
39743,-4.607125,0.752328,10.077829,-0.225933,-1.040125,1.242687,-0.041378,0.030350,-0.342823,-0.046043,0.007623,0.100784,0.999998,-0.000207,0.000152,-0.001714,0.808349,-0.060735,0.159729,0.563356,4.963776,19.066472,70.581091
39744,-3.258379,0.030732,9.090069,0.663283,-0.361356,-0.185810,-0.086894,-0.002964,-0.386799,-0.032584,0.000410,0.090900,0.999998,-0.000434,-0.000015,-0.001934,0.809387,-0.061401,0.159323,0.561907,4.835054,19.081416,70.352815
39745,-3.592820,0.636053,9.211534,0.008863,-0.397493,0.087171,0.154191,0.077619,-0.437290,-0.035879,0.006368,0.092134,0.999997,0.000771,0.000388,-0.002186,0.810576,-0.061373,0.159927,0.560021,4.835394,19.147743,70.096686
39746,-3.617034,1.307390,9.227864,-0.621797,-0.157491,0.163997,0.037153,0.040662,-0.441098,-0.036123,0.013136,0.092288,0.999998,0.000186,0.000203,-0.002205,0.811762,-0.061703,0.160028,0.558235,4.767288,19.189830,69.837645
39747,-3.513730,1.523423,9.204513,-0.800815,0.021896,0.124534,0.011753,0.057315,-0.382851,-0.035082,0.015296,0.092056,0.999998,0.000059,0.000287,-0.001914,0.812764,-0.062151,0.160166,0.556685,4.696001,19.241568,69.613121
39748,-3.445501,1.947995,9.212956,-1.175415,0.257927,0.142038,0.015285,0.077823,-0.306861,-0.034389,0.019526,0.092144,0.999999,0.000076,0.000389,-0.001534,0.813534,-0.062566,0.160398,0.555446,4.642253,19.298050,69.436861
39749,-3.341062,2.090625,9.238725,-1.275912,0.427586,0.141037,-0.099522,0.069939,-0.250632,-0.033352,0.020994,0.092388,0.999999,-0.000498,0.000350,-0.001253,0.814120,-0.063395,0.160319,0.554516,4.533517,19.350404,69.292690
