// General information: 
//  MT Manager version: 2022.0.0 
//  XDA version: 2022.0.0 build 7085 rev 119802 built on 2022-11-08
// Device information: 
//  DeviceId: 00B472E6
//  ProductCode: MTW2-3A7G6
//  Firmware Version: 4.4.0
//  Hardware Version: 2.0.0
// Device settings: 
//  Filter Profile: human(46.1)
//  Option Flags: Orientation Smoother Disabled, Position/Velocity Smoother Disabled, Continuous Zero Rotation Update Disabled, AHS Disabled, ICC Disabled
// Coordinate system: ENU
PacketCounter,Acc_X,Acc_Y,Acc_Z,FreeAcc_E,FreeAcc_N,FreeAcc_U,Gyr_X,Gyr_Y,Gyr_Z,VelInc_X,VelInc_Y,VelInc_Z,OriInc_q0,OriInc_q1,OriInc_q2,OriInc_q3,Quat_q0,Quat_q1,Quat_q2,Quat_q3,Roll,Pitch,Yaw
28995,-4.499338,1.460487,9.203438,0.214751,-0.116975,0.532386,-0.045621,0.004202,-0.007585,-0.044991,0.014628,0.092032,1.000000,-0.000228,0.000021,-0.000038,0.440503,0.225663,0.046680,-0.867672,7.508430,25.640845,-124.456652
28996,-4.465213,1.689013,9.302246,0.346501,-0.311669,0.632669,-0.065849,0.008482,-0.002062,-0.044648,0.016921,0.093019,1.000000,-0.000329,0.000042,-0.000010,0.440539,0.225532,0.046950,-0.867673,7.472154,25.641713,-124.461214
28997,-4.103197,1.840664,9.351234,0.269918,-0.692408,0.537073,-0.113017,0.029079,-0.004540,-0.041018,0.018460,0.093508,1.000000,-0.000565,0.000145,-0.000023,0.440609,0.225396,0.047481,-0.867644,7.408476,25.656038,-124.465812
28998,-3.553336,2.056002,9.954318,-0.045908,-1.411571,0.861914,-0.114591,0.085358,-0.008219,-0.035490,0.020619,0.099547,1.000000,-0.000573,0.000427,-0.000041,0.440655,0.225489,0.048137,-0.867560,7.345377,25.701018,-124.467919
28999,-3.369731,2.237053,10.081393,-0.033639,-1.708165,0.914614,-0.184752,0.074882,0.007985,-0.033660,0.022462,0.100806,1.000000,-0.000924,0.000374,0.000040,0.440849,0.225397,0.049067,-0.867433,7.245609,25.740452,-124.460959
29000,-2.612380,2.019997,10.483718,-0.722751,-2.266801,0.918226,-0.115318,0.092597,0.059602,-0.026081,0.020253,0.104838,1.000000,-0.000577,0.000463,0.000298,0.441188,0.225536,0.049664,-0.867191,7.201006,25.784501,-124.419841
29001,-2.552808,2.264379,10.944043,-0.720810,-2.596444,1.329809,-0.003544,0.054803,0.138053,-0.025514,0.022628,0.109447,1.000000,-0.000018,0.000274,0.000690,0.441746,0.225787,0.049617,-0.866844,7.240078,25.803163,-124.332427
29002,-2.055777,2.743331,11.305407,-0.728218,-3.349293,1.492896,0.114640,-0.035634,0.227895,-0.020609,0.027345,0.113066,0.999999,0.000573,-0.000178,0.001139,0.442587,0.225918,0.048743,-0.866431,7.369063,25.761726,-124.195297
29003,-1.701092,3.185544,11.765105,-0.731787,-3.985087,1.808093,0.220830,-0.098337,0.308371,-0.017118,0.031699,0.117678,0.999998,0.001104,-0.000492,0.001542,0.443666,0.226043,0.047192,-0.865932,7.577720,25.680351,-124.013117
29004,-1.852506,3.735982,12.577342,-0.520114,-4.388482,2.679282,0.271380,-0.201091,0.382415,-0.018723,0.037153,0.125805,0.999997,0.001357,-0.001005,0.001912,0.445035,0.225836,0.045094,-0.865395,7.832048,25.531808,-123.793247
29005,-2.175983,3.912286,13.611471,-0.592329,-4.470876,3.787783,0.314997,-0.396751,0.462854,-0.022120,0.038858,0.136132,0.999994,0.001575,-0.001984,0.002314,0.446739,0.224912,0.042297,-0.864899,8.123538,25.267382,-123.541588
29006,-3.036637,4.048854,14.684111,-0.430913,-4.079388,5.167580,0.403619,-0.742335,0.605160,-0.031033,0.040099,0.146808,0.999986,0.002018,-0.003712,0.003026,0.449028,0.222698,0.038164,-0.864478,8.488770,24.790977,-123.234452
29007,-2.670556,3.940271,14.454598,-0.594892,-4.046281,4.845491,0.470351,-1.265681,0.806398,-0.027778,0.038952,0.144464,0.999969,0.002352,-0.006328,0.004032,0.452187,0.218419,0.032362,-0.864160,8.916995,24.001782,-122.857599
29008,-0.576271,4.150755,13.362882,-1.032306,-5.274266,3.119381,0.466800,-1.564280,0.949647,-0.007004,0.041164,0.133674,0.999955,0.002334,-0.007821,0.004748,0.455989,0.212828,0.025718,-0.863781,9.359009,23.024620,-122.430644
29009,0.923284,4.161639,12.491874,-1.392940,-6.021641,1.849782,0.375147,-1.575684,1.020679,0.008036,0.041425,0.125063,0.999954,0.001876,-0.007878,0.005103,0.460149,0.206988,0.019389,-0.863158,9.752502,22.034865,-121.972693
29010,1.275020,3.300748,11.963418,-2.002953,-5.495253,1.206869,0.329825,-1.446572,1.062876,0.011709,0.032874,0.119776,0.999958,0.001649,-0.007233,0.005314,0.464493,0.201563,0.013479,-0.862228,10.125137,21.106880,-121.485129
29011,0.628570,2.431893,11.755417,-2.260046,-4.271366,1.193837,0.439160,-1.348029,1.118820,0.005358,0.024092,0.117645,0.999959,0.002196,-0.006740,0.005594,0.468915,0.196828,0.007298,-0.861002,10.563956,20.229615,-120.963481
29012,-0.199421,2.312225,11.921595,-1.975345,-3.388912,1.681680,0.596326,-1.345879,1.184856,-0.002932,0.022751,0.119267,0.999955,0.002982,-0.006729,0.005924,0.473434,0.192427,0.000348,-0.859553,11.096523,19.337565,-120.412535
29013,-0.746668,2.412345,11.739604,-1.551320,-2.765677,1.769015,0.697272,-1.397287,1.243466,-0.008435,0.023664,0.117422,0.999950,0.003486,-0.006986,0.006217,0.478056,0.188056,-0.007182,-0.857931,11.682501,18.409774,-119.845625
29014,-1.088855,2.407303,11.229932,-1.212256,-2.185322,1.449774,0.725190,-1.439386,1.279082,-0.011849,0.023592,0.112302,0.999947,0.003626,-0.007197,0.006395,0.482761,0.183517,-0.014998,-0.856177,12.277719,17.443461,-119.275830
29015,-1.166807,2.423286,10.600832,-0.942612,-1.829460,0.928477,0.653622,-1.430523,1.255195,-0.012577,0.023809,0.105999,0.999949,0.003268,-0.007152,0.006276,0.487373,0.178858,-0.022430,-0.854386,12.813933,16.484985,-118.732152
29016,-0.917674,2.238614,9.403818,-0.797309,-1.602518,-0.269132,0.452608,-1.317089,1.137155,-0.009922,0.022118,0.094025,0.999960,0.002263,-0.006585,0.005686,0.491636,0.174157,-0.028653,-0.852727,13.210089,15.595391,-118.252254
29017,0.298806,1.976472,8.122906,-1.126596,-2.218278,-1.826044,0.268112,-1.001707,0.967488,0.002486,0.019669,0.081269,0.999975,0.001341,-0.005008,0.004837,0.495341,0.170393,-0.033131,-0.851179,13.476640,14.906878,-117.834603
29018,0.393580,1.658381,7.905274,-1.342944,-2.038434,-2.102985,0.181806,-0.536162,0.849429,0.003654,0.016528,0.079078,0.999987,0.000909,-0.002681,0.004247,0.498684,0.168374,-0.036020,-0.849510,13.689119,14.486145,-117.423995
29019,-1.249729,0.885268,8.209884,-1.356277,-0.226458,-1.575164,0.291221,-0.188775,0.842908,-0.012612,0.008680,0.082100,0.999990,0.001456,-0.000944,0.004215,0.501949,0.168137,-0.038468,-0.847524,13.971583,14.263568,-116.970691
29020,-2.422775,1.435481,8.612578,-0.543477,0.514864,-0.782397,0.482929,-0.019866,0.879924,-0.024299,0.014040,0.086158,0.999987,0.002415,-0.000099,0.004400,0.505240,0.169048,-0.041368,-0.845248,14.374187,14.121138,-116.473310
29021,-2.787070,2.717813,8.840623,0.565268,0.229046,-0.172226,0.476271,0.082633,0.875445,-0.027952,0.026845,0.088482,0.999987,0.002381,0.000413,0.004377,0.508518,0.170410,-0.043942,-0.842876,14.773878,14.038693,-115.964671
29022,-2.992258,3.198586,8.841397,1.009463,0.214604,0.000038,0.265851,0.209772,0.776372,-0.029953,0.031752,0.088488,0.999991,0.001329,0.001049,0.003882,0.511583,0.171752,-0.045254,-0.840676,15.044250,14.032577,-115.493719
29023,-3.745187,2.871186,8.985240,0.961955,1.028389,0.238265,0.035007,0.334602,0.641499,-0.037393,0.028576,0.089920,0.999993,0.000175,0.001673,0.003207,0.514291,0.173095,-0.045127,-0.838753,15.167867,14.119866,-115.080527
29024,-4.849425,1.734652,8.982485,0.421214,2.526270,0.219830,-0.030922,0.342039,0.532747,-0.048387,0.017231,0.089905,0.999995,-0.000155,0.001710,0.002664,0.516605,0.174285,-0.044641,-0.837109,15.240338,14.221308,-114.727738
29025,-5.748667,1.021157,8.898545,0.168377,3.651980,0.182739,0.138596,0.262522,0.458051,-0.057393,0.010018,0.089068,0.999996,0.000693,0.001313,0.002290,0.518428,0.175633,-0.044973,-0.835681,15.396209,14.295047,-114.429736
29026,-6.622225,1.219616,8.921441,0.628766,4.340757,0.468149,0.376399,0.113649,0.380537,-0.066194,0.011902,0.089275,0.999996,0.001882,0.000568,0.001903,0.519689,0.176956,-0.046645,-0.834527,15.672462,14.292214,-114.199037
29027,-7.362566,1.585295,8.845759,1.204459,4.868921,0.666361,0.546411,-0.093101,0.295356,-0.073690,0.015502,0.088466,0.999995,0.002732,-0.000466,0.001477,0.520383,0.177911,-0.049459,-0.833729,16.025194,14.192722,-114.050293
29028,-7.783654,2.014616,8.515653,1.802332,5.133044,0.558585,0.614805,-0.302695,0.210598,-0.077986,0.019802,0.085100,0.999994,0.003074,-0.001513,0.001053,0.520612,0.178159,-0.053052,-0.833311,16.396850,13.985993,-113.984881
29029,-7.918964,2.247252,8.084196,2.171537,5.252833,0.227533,0.598649,-0.484861,0.140793,-0.079401,0.022175,0.080716,0.999992,0.002993,-0.002424,0.000704,0.520502,0.177652,-0.056964,-0.833230,16.741443,13.694810,-113.991041
29030,-7.517729,2.373350,7.700849,2.239321,4.943020,-0.220836,0.539933,-0.616901,0.093144,-0.075425,0.023491,0.076840,0.999991,0.002700,-0.003084,0.000466,0.520206,0.176427,-0.060953,-0.833393,17.040857,13.335377,-114.048295
29031,-6.620474,2.761937,7.593202,2.247409,4.047633,-0.448871,0.432518,-0.692804,0.059219,-0.066476,0.027436,0.075762,0.999992,0.002163,-0.003464,0.000296,0.519825,0.174640,-0.064639,-0.833730,17.271017,12.944215,-114.139447
29032,-5.735180,2.873970,7.579693,2.003017,3.275344,-0.654990,0.262720,-0.700771,0.035283,-0.057622,0.028630,0.075633,0.999993,0.001314,-0.003504,0.000176,0.519486,0.172362,-0.067635,-0.834177,17.401396,12.549900,-114.246476
29033,-5.199093,2.426654,7.643641,1.407211,3.053975,-0.866341,0.139086,-0.699147,0.024839,-0.052261,0.024207,0.076271,0.999994,0.000695,-0.003496,0.000124,0.519199,0.169792,-0.070083,-0.834680,17.459943,12.161601,-114.359619
29034,-4.643814,2.063747,7.664187,0.894200,2.777518,-1.092063,0.098090,-0.692874,0.046519,-0.046708,0.020589,0.076490,0.999994,0.000490,-0.003464,0.000233,0.519037,0.167115,-0.072377,-0.835126,17.498908,11.770410,-114.459659
29035,-4.219715,1.821252,7.606150,0.561449,2.566868,-1.323157,0.116915,-0.693359,0.074950,-0.042467,0.018152,0.075925,0.999994,0.000585,-0.003467,0.000375,0.518967,0.164489,-0.074758,-0.835480,17.552007,11.376811,-114.544164
29036,-3.914645,1.785293,7.562411,0.442042,2.369086,-1.452454,0.140924,-0.684801,0.113465,-0.039415,0.017777,0.075502,0.999994,0.000705,-0.003424,0.000567,0.519039,0.161930,-0.077261,-0.835708,17.624219,10.978992,-114.605991
29037,-3.596204,1.763836,7.415305,0.361546,2.155961,-1.673193,0.154554,-0.666648,0.153833,-0.036222,0.017553,0.074046,0.999994,0.000773,-0.003333,0.000769,0.519265,0.159479,-0.079792,-0.835801,17.708973,10.586465,-114.642685
29038,-3.275038,1.859575,7.350936,0.346602,1.882243,-1.777955,0.143784,-0.623530,0.182180,-0.032996,0.018513,0.073420,0.999994,0.000719,-0.003118,0.000911,0.519632,0.157155,-0.082200,-0.835780,17.792244,10.210550,-114.656501
29039,-2.803099,1.999680,7.368321,0.277462,1.445967,-1.813923,0.088303,-0.546785,0.191940,-0.028251,0.019937,0.073615,0.999996,0.000442,-0.002734,0.000960,0.520107,0.155014,-0.084171,-0.835688,17.846737,9.876821,-114.651719
29040,-2.452905,2.057610,7.451360,0.166931,1.146384,-1.785791,0.018907,-0.449011,0.199164,-0.024717,0.020545,0.074460,0.999997,0.000095,-0.002245,0.000996,0.520705,0.153086,-0.085614,-0.835524,17.865297,9.593346,-114.625709
29041,-2.348781,2.127793,7.610716,0.143223,1.052267,-1.637151,-0.057642,-0.358483,0.197532,-0.023645,0.021277,0.076059,0.999998,-0.000288,-0.001792,0.000988,0.521389,0.151348,-0.086489,-0.835324,17.842120,9.361325,-114.584510
29042,-2.370009,2.195205,7.736470,0.182513,1.065304,-1.498808,-0.122355,-0.273928,0.205423,-0.023829,0.021975,0.077319,0.999998,-0.000612,-0.001370,0.001027,0.522192,0.149779,-0.086888,-0.835064,17.785080,9.172427,-114.523777
29043,-2.442744,2.085587,7.853271,0.097570,1.196346,-1.413299,-0.165374,-0.215179,0.211555,-0.024534,0.020895,0.078489,0.999999,-0.000827,-0.001076,0.001058,0.523074,0.148352,-0.086949,-0.834760,17.705200,9.016235,-114.449085
29044,-2.669813,2.006435,7.943441,0.110492,1.449285,-1.319204,-0.173821,-0.178490,0.211929,-0.026790,0.020105,0.079393,0.999999,-0.000869,-0.000892,0.001060,0.523981,0.147045,-0.086888,-0.834430,17.621529,8.878617,-114.367522
29045,-2.868265,1.782664,7.898465,0.031766,1.739117,-1.400493,-0.139992,-0.161346,0.210258,-0.028765,0.017852,0.078949,0.999999,-0.000700,-0.000807,0.001051,0.524859,0.145908,-0.086913,-0.834074,17.557225,8.752252,-114.283743
29046,-3.054547,1.726017,7.838447,0.090278,1.945937,-1.448729,-0.080155,-0.153059,0.203257,-0.030623,0.017260,0.078354,0.999999,-0.000401,-0.000765,0.001016,0.525670,0.144957,-0.087167,-0.833703,17.526764,8.630393,-114.202303
29047,-2.370052,2.104462,7.909018,0.119061,1.177981,-1.374877,-0.056472,-0.120798,0.178723,-0.023767,0.021046,0.079070,0.999999,-0.000282,-0.000604,0.000894,0.526372,0.144222,-0.087410,-0.833362,17.508446,8.531725,-114.128770
29048,-1.782387,2.414043,8.114985,0.084808,0.520630,-1.176761,-0.111751,-0.031592,0.127291,-0.017852,0.024174,0.081134,1.000000,-0.000559,-0.000158,0.000636,0.526940,0.143727,-0.087157,-0.833115,17.456486,8.489598,-114.068084
29049,-1.429569,2.292157,8.342239,-0.228285,0.249208,-1.050475,-0.154481,0.097674,0.090439,-0.014265,0.022980,0.083412,0.999999,-0.000772,0.000488,0.000452,0.527440,0.143683,-0.086353,-0.832890,17.380329,8.525633,-114.005305
29050,-1.412478,2.314196,8.699933,-0.328029,0.207683,-0.708366,-0.153810,0.184057,0.064160,-0.014052,0.023204,0.086994,0.999999,-0.000769,0.000920,0.000321,0.527867,0.144003,-0.085310,-0.832671,17.304666,8.612427,-113.942183
29051,-1.570108,2.423331,9.084184,-0.295129,0.279272,-0.289293,-0.134910,0.234797,0.051884,-0.015601,0.024291,0.090844,0.999999,-0.000675,0.001174,0.000259,0.528250,0.144597,-0.084197,-0.832439,17.240230,8.730202,-113.877210
29052,-2.042316,2.381484,9.342808,-0.227569,0.698924,0.015347,-0.100035,0.232411,0.062028,-0.020322,0.023855,0.093440,0.999999,-0.000500,0.001162,0.000310,0.528649,0.145261,-0.083248,-0.832166,17.196629,8.843976,-113.807131
29053,-2.558977,2.312469,9.324256,-0.077702,1.178485,0.058622,-0.049078,0.166403,0.072214,-0.025521,0.023138,0.093258,1.000000,-0.000245,0.000832,0.000361,0.529023,0.145788,-0.082688,-0.831891,17.181516,8.920966,-113.742753
29054,-2.867598,2.393746,9.211207,0.148371,1.416125,0.024591,-0.023503,0.078717,0.080418,-0.028649,0.023937,0.092121,1.000000,-0.000118,0.000394,0.000402,0.529378,0.146008,-0.082476,-0.831648,17.179363,8.947651,-113.688869
29055,-2.893725,2.366384,8.927188,0.228402,1.454553,-0.247113,-0.035368,0.006561,0.063674,-0.028942,0.023670,0.089269,1.000000,-0.000177,0.000033,0.000318,0.529641,0.145910,-0.082390,-0.831506,17.167179,8.938603,-113.656609
29056,-2.524939,2.299383,8.604827,0.134371,1.155642,-0.628355,-0.056382,-0.013408,0.028597,-0.025258,0.023014,0.086040,1.000000,-0.000282,-0.000067,0.000143,0.529766,0.145682,-0.082246,-0.831481,17.139229,8.923811,-113.647219
29057,-1.705633,2.490160,8.489245,0.016436,0.332102,-0.808977,-0.087695,0.037238,-0.027439,-0.017037,0.024941,0.084885,1.000000,-0.000438,0.000186,-0.000137,0.529701,0.145611,-0.081795,-0.831579,17.090030,8.946958,-113.660219
29058,-0.924921,2.493620,8.616383,-0.327529,-0.390670,-0.809591,-0.116286,0.164889,-0.086313,-0.009167,0.024990,0.086157,0.999999,-0.000581,0.000824,-0.000432,0.529464,0.146013,-0.080845,-0.831752,17.022523,9.049250,-113.684196
29059,-0.778301,2.547046,8.954628,-0.451495,-0.577236,-0.499179,-0.092888,0.294725,-0.108967,-0.007637,0.025516,0.089546,0.999999,-0.000464,0.001474,-0.000545,0.529167,0.147031,-0.079631,-0.831879,16.970046,9.227109,-113.698819
29060,-0.851037,2.978209,9.509839,-0.242283,-0.742681,0.158302,-0.075426,0.379610,-0.111016,-0.008313,0.029823,0.095103,0.999998,-0.000377,0.001898,-0.000555,0.528882,0.148443,-0.078265,-0.831940,16.929429,9.451099,-113.700389
29061,-1.198705,3.018416,9.919386,-0.215908,-0.496411,0.610784,-0.056643,0.401390,-0.078249,-0.011776,0.030217,0.099209,0.999998,-0.000283,0.002007,-0.000391,0.528724,0.149988,-0.076941,-0.831886,16.903401,9.682287,-113.680172
29062,-1.705607,3.109063,10.280269,-0.069722,-0.125598,1.061068,-0.029462,0.343242,-0.019255,-0.016877,0.031107,0.102827,0.999999,-0.000147,0.001716,-0.000096,0.528768,0.151333,-0.075931,-0.831708,16.896704,9.870983,-113.637044
29063,-2.117527,3.252544,10.326301,0.189164,0.155374,1.216160,-0.024200,0.242611,0.038812,-0.021056,0.032534,0.103285,0.999999,-0.000121,0.001213,0.000194,0.529009,0.152258,-0.075250,-0.831447,16.895990,9.995638,-113.578577
29064,-2.192920,3.321209,10.277104,0.289062,0.179267,1.202869,-0.064201,0.130290,0.078897,-0.021875,0.033236,0.102775,1.000000,-0.000321,0.000651,0.000394,0.529405,0.152588,-0.074732,-0.831181,16.872823,10.051271,-113.516809
29065,-1.825566,3.299868,10.137975,0.177436,-0.147948,1.001515,-0.139096,0.069260,0.089364,-0.018235,0.033061,0.101363,1.000000,-0.000695,0.000346,0.000447,0.529878,0.152469,-0.074070,-0.830961,16.806203,10.072529,-113.459512
29066,-1.468304,2.999008,9.955117,-0.147286,-0.343824,0.680853,-0.190705,0.055042,0.085728,-0.014669,0.030079,0.099527,0.999999,-0.000954,0.000275,0.000429,0.530370,0.152149,-0.073232,-0.830780,16.709075,10.085906,-113.406677
29067,-1.080436,2.838660,9.942955,-0.417656,-0.636714,0.555910,-0.194016,0.084320,0.064077,-0.010772,0.028480,0.099407,0.999999,-0.000970,0.000422,0.000320,0.530784,0.151956,-0.072282,-0.830634,16.608986,10.119761,-113.361027
29068,-0.932244,2.647302,9.993352,-0.644164,-0.706335,0.523196,-0.168389,0.134230,0.044945,-0.009261,0.026555,0.099917,0.999999,-0.000842,0.000671,0.000225,0.531118,0.152038,-0.071295,-0.830491,16.523002,10.183403,-113.317841
29069,-0.953520,2.715350,10.169669,-0.629119,-0.741213,0.711536,-0.096281,0.163932,0.032480,-0.009456,0.027201,0.101691,1.000000,-0.000481,0.000820,0.000162,0.531354,0.152446,-0.070516,-0.830332,16.478199,10.266260,-113.276743
29070,-1.219706,2.896626,10.389849,-0.441852,-0.604063,1.016298,-0.049059,0.156766,0.028424,-0.012120,0.028990,0.103901,1.000000,-0.000245,0.000784,0.000142,0.531536,0.152943,-0.069952,-0.830171,16.459663,10.344940,-113.239157
29071,-1.626637,3.040020,10.477838,-0.191498,-0.314101,1.211714,-0.033593,0.108715,0.032679,-0.016214,0.030415,0.104782,1.000000,-0.000168,0.000544,0.000163,0.531705,0.153288,-0.069581,-0.830031,16.449252,10.397456,-113.207107
29072,-1.890796,3.083015,10.444690,-0.041276,-0.098186,1.239928,-0.035601,0.032153,0.043180,-0.018898,0.030845,0.104444,1.000000,-0.000178,0.000161,0.000216,0.531894,0.153299,-0.069415,-0.829922,16.436251,10.405225,-113.181851
29073,-1.919836,3.018688,10.171911,0.008369,-0.030717,0.969938,-0.055987,-0.043952,0.055226,-0.019229,0.030210,0.101706,1.000000,-0.000280,-0.000220,0.000276,0.532120,0.152943,-0.069374,-0.829846,16.410751,10.370202,-113.162373
29074,-1.822072,2.860257,9.966038,-0.089854,-0.036027,0.714114,-0.070546,-0.090590,0.055563,-0.018274,0.028633,0.099642,1.000000,-0.000353,-0.000453,0.000278,0.532344,0.152346,-0.069399,-0.829809,16.375322,10.308525,-113.150387
29075,-1.550094,2.751821,9.679652,-0.184176,-0.214918,0.365271,-0.080823,-0.101228,0.049186,-0.015557,0.027554,0.096778,1.000000,-0.000404,-0.000506,0.000246,0.532545,0.151689,-0.069402,-0.829801,16.333284,10.243011,-113.143639
29076,-1.385084,2.715150,9.508679,-0.212949,-0.334213,0.164708,-0.081978,-0.079217,0.030436,-0.013893,0.027188,0.095070,1.000000,-0.000410,-0.000396,0.000152,0.532677,0.151118,-0.069331,-0.829827,16.289128,10.191637,-113.143749
29077,-1.473597,2.609579,9.409546,-0.228277,-0.201187,0.057893,-0.071767,-0.052343,0.005272,-0.014761,0.026129,0.094082,1.000000,-0.000359,-0.000262,0.000026,0.532704,0.150702,-0.069208,-0.829895,16.249357,10.160070,-113.153472
29078,-1.489208,2.614184,9.361886,-0.195794,-0.184799,0.017070,-0.047108,-0.037047,-0.014148,-0.014908,0.026165,0.093610,1.000000,-0.000236,-0.000185,-0.000071,0.532640,0.150414,-0.069136,-0.829994,16.222001,10.139006,-113.171569
29079,-1.509332,2.629589,9.459496,-0.202483,-0.176290,0.117208,-0.011864,-0.026441,-0.039760,-0.015101,0.026304,0.094591,1.000000,-0.000059,-0.000132,-0.000199,0.532444,0.150281,-0.069159,-0.830142,16.212877,10.128886,-113.202218
29080,-1.638793,2.636199,9.465129,-0.147995,-0.059880,0.147150,0.032622,-0.036134,-0.052364,-0.016398,0.026351,0.094653,1.000000,0.000163,-0.000181,-0.000262,0.532161,0.150222,-0.069386,-0.830315,16.227475,10.114417,-113.241517
29081,-1.706602,2.717433,9.532140,-0.076339,-0.031037,0.244739,0.079418,-0.057277,-0.061383,-0.017085,0.027142,0.095327,1.000000,0.000397,-0.000286,-0.000307,0.531797,0.150211,-0.069853,-0.830511,16.267668,10.090818,-113.289272
29082,-1.739826,2.892909,9.520446,0.086606,-0.067061,0.287947,0.095923,-0.074319,-0.052197,-0.017426,0.028888,0.095212,1.000000,0.000480,-0.000372,-0.000261,0.531453,0.150162,-0.070445,-0.830690,16.317487,10.055370,-113.334723
29083,-1.518391,2.989040,9.582594,0.057587,-0.301945,0.334799,0.084898,-0.070529,-0.036891,-0.015212,0.029853,0.095833,1.000000,0.000424,-0.000353,-0.000184,0.531181,0.150102,-0.070989,-0.830829,16.362873,10.020612,-113.371000
29084,-1.499375,3.038420,9.644190,0.068273,-0.334526,0.403670,0.065751,-0.055621,-0.019437,-0.015018,0.030354,0.096448,1.000000,0.000329,-0.000278,-0.000097,0.531003,0.150039,-0.071430,-0.830917,16.399180,9.990212,-113.395139
29085,-1.616519,3.058363,9.754730,0.092240,-0.235049,0.534182,0.038194,-0.039894,0.008225,-0.016186,0.030564,0.097550,1.000000,0.000191,-0.000199,0.000041,0.530964,0.149966,-0.071733,-0.830929,16.423073,9.965032,-113.401240
29086,-1.684180,3.118414,9.807321,0.153125,-0.195914,0.612411,-0.001989,-0.039610,0.034168,-0.016867,0.031182,0.098070,1.000000,-0.000010,-0.000198,0.000171,0.531064,0.149770,-0.071890,-0.830886,16.426235,9.934748,-113.392851
29087,-1.604348,3.101186,9.859758,0.093993,-0.258023,0.643445,-0.048804,-0.047545,0.049219,-0.016075,0.031032,0.098586,1.000000,-0.000244,-0.000238,0.000246,0.531258,0.149420,-0.071883,-0.830826,16.404010,9.898726,-113.377339
29088,-1.511481,2.974762,9.887292,-0.051977,-0.285000,0.618439,-0.082925,-0.051108,0.064370,-0.015150,0.029784,0.098857,1.000000,-0.000415,-0.000256,0.000322,0.531540,0.148950,-0.071757,-0.830741,16.363386,9.857238,-113.353962
29089,-1.517860,2.819458,9.842106,-0.158655,-0.207246,0.533914,-0.086800,-0.060370,0.072375,-0.015219,0.028232,0.098404,1.000000,-0.000434,-0.000302,0.000362,0.531853,0.148437,-0.071643,-0.830642,16.321224,9.810452,-113.327585
29090,-1.520113,2.702945,9.827106,-0.243496,-0.149584,0.488137,-0.071420,-0.069943,0.077431,-0.015246,0.027059,0.098256,1.000000,-0.000357,-0.000350,0.000387,0.532174,0.147915,-0.071625,-0.830531,16.287878,9.756517,-113.299944
29091,-1.586368,2.694865,9.764032,-0.195720,-0.076388,0.437729,-0.051789,-0.085484,0.079455,-0.015916,0.026968,0.097627,1.000000,-0.000259,-0.000427,0.000397,0.532481,0.147388,-0.071728,-0.830419,16.265712,9.694810,-113.273662
29092,-1.604702,2.716383,9.699800,-0.141454,-0.057245,0.386167,-0.041643,-0.098733,0.064400,-0.016104,0.027179,0.096984,1.000000,-0.000208,-0.000494,0.000322,0.532715,0.146830,-0.071901,-0.830353,16.247351,9.627141,-113.257942
29093,-1.633402,2.734036,9.603170,-0.076394,-0.025369,0.304493,-0.039378,-0.106761,0.051687,-0.016392,0.027355,0.096018,1.000000,-0.000197,-0.000534,0.000258,0.532890,0.146258,-0.072092,-0.830325,16.229083,9.558196,-113.250577
29094,-1.610377,2.731017,9.565359,-0.067875,-0.033851,0.264122,-0.042678,-0.106549,0.036082,-0.016160,0.027328,0.095639,1.000000,-0.000213,-0.000533,0.000180,0.533004,0.145675,-0.072261,-0.830339,16.207267,9.490770,-113.251883
29095,-1.662494,2.743813,9.477130,-0.000555,0.020034,0.192710,-0.039556,-0.103330,0.023720,-0.016677,0.027455,0.094757,1.000000,-0.000198,-0.000517,0.000119,0.533064,0.145127,-0.072421,-0.830383,16.186414,9.428188,-113.259515
29096,-1.741814,2.718602,9.439730,0.027877,0.112593,0.163271,-0.032893,-0.102799,0.016660,-0.017469,0.027200,0.094384,1.000000,-0.000164,-0.000514,0.000083,0.533091,0.144592,-0.072606,-0.830443,16.168545,9.365933,-113.270999
29097,-1.796821,2.823008,9.395323,0.160366,0.128690,0.158659,-0.025351,-0.103790,0.013541,-0.018019,0.028241,0.093940,1.000000,-0.000127,-0.000519,0.000068,0.533098,0.144083,-0.072819,-0.830508,16.154922,9.304717,-113.284340
29098,-1.808586,2.808281,9.259947,0.201622,0.158865,0.027950,-0.027079,-0.102393,0.016748,-0.018136,0.028094,0.092586,1.000000,-0.000135,-0.000512,0.000084,0.533121,0.143566,-0.073027,-0.830565,16.140440,9.242692,-113.295672
29099,-1.817171,2.726373,9.168945,0.168923,0.212740,-0.079704,-0.020592,-0.099341,0.025836,-0.018221,0.027271,0.091678,1.000000,-0.000103,-0.000497,0.000129,0.533177,0.143084,-0.073257,-0.830592,16.130790,9.181961,-113.301407
29100,-1.783167,2.740545,9.031841,0.216523,0.188663,-0.211545,-0.019204,-0.087126,0.028781,-0.017875,0.027412,0.090308,1.000000,-0.000096,-0.000436,0.000144,0.533249,0.142646,-0.073466,-0.830602,16.122320,9.126459,-113.303540
29101,-1.696897,2.647766,8.981725,0.122639,0.157984,-0.298408,-0.016844,-0.063682,0.037922,-0.017003,0.026482,0.089810,1.000000,-0.000084,-0.000318,0.000190,0.533365,0.142318,-0.073624,-0.830570,16.116806,9.083431,-113.296775
29102,-1.706424,2.609219,8.993085,0.092169,0.187979,-0.296824,-0.005950,-0.037698,0.037972,-0.017086,0.026092,0.089927,1.000000,-0.000030,-0.000188,0.000190,0.533485,0.142118,-0.073763,-0.830515,16.118008,9.053709,-113.285813
29103,-1.819589,2.553665,9.077911,0.061999,0.315159,-0.213864,0.009473,-0.010822,0.037381,-0.018206,0.025529,0.090779,1.000000,0.000047,-0.000054,0.000187,0.533599,0.142080,-0.073889,-0.830437,16.128857,9.039862,-113.270836
29104,-2.055692,2.592969,9.099997,0.180116,0.515007,-0.145132,0.014143,-0.004790,0.032714,-0.020563,0.025920,0.091001,1.000000,0.000071,-0.000024,0.000164,0.533694,0.142072,-0.074019,-0.830365,16.141934,9.029126,-113.257508
29105,-2.099042,2.690713,9.102825,0.279971,0.515360,-0.108907,-0.003338,-0.004035,0.033200,-0.020997,0.026905,0.091027,1.000000,-0.000017,-0.000020,0.000166,0.533803,0.142029,-0.074072,-0.830298,16.145242,9.019675,-113.243772
29106,-2.036098,2.646202,9.032465,0.240547,0.480187,-0.197852,-0.033193,-0.006605,0.024583,-0.020367,0.026475,0.090320,1.000000,-0.000166,-0.000033,0.000123,0.533897,0.141892,-0.074004,-0.830267,16.130440,9.009307,-113.235269
29107,-1.796205,2.514680,8.967236,0.056959,0.319153,-0.333437,-0.048513,0.004778,0.020259,-0.017962,0.025167,0.089667,1.000000,-0.000243,0.000024,0.000101,0.533988,0.141769,-0.073836,-0.830245,16.106954,9.006772,-113.227323
29108,-1.668436,2.484252,8.945204,-0.008872,0.214136,-0.382633,-0.054103,0.035090,0.014865,-0.016671,0.024865,0.089448,1.000000,-0.000271,0.000175,0.000074,0.534072,0.141753,-0.073563,-0.830218,16.080374,9.020964,-113.217524
29109,-1.652269,2.473356,9.068186,-0.061363,0.195270,-0.271326,-0.042653,0.065406,0.007025,-0.016494,0.024752,0.090682,1.000000,-0.000213,0.000327,0.000035,0.534125,0.141903,-0.073248,-0.830186,16.060621,9.053914,-113.207215
29110,-1.686759,2.522065,9.162919,-0.035392,0.196668,-0.162552,-0.030564,0.078023,-0.000334,-0.016832,0.025235,0.091632,1.000000,-0.000153,0.000390,-0.000002,0.534145,0.142133,-0.072947,-0.830160,16.047274,9.094189,-113.199012
29111,-1.705511,2.631923,9.335731,0.012054,0.154709,0.034524,-0.031893,0.082031,-0.011479,-0.017015,0.026335,0.093360,1.000000,-0.000159,0.000410,-0.000057,0.534120,0.142388,-0.072620,-0.830161,16.032485,9.139228,-113.196373
29112,-1.784410,2.686596,9.389056,0.072982,0.193768,0.112705,-0.036203,0.076951,-0.015924,-0.017806,0.026884,0.093893,1.000000,-0.000181,0.000385,-0.000080,0.534079,0.142604,-0.072287,-0.830180,16.014497,9.181407,-113.197058
29113,-1.868043,2.684272,9.396558,0.101343,0.263104,0.132699,-0.035187,0.058473,-0.019337,-0.018650,0.026861,0.093966,1.000000,-0.000176,0.000292,-0.000097,0.534014,0.142755,-0.072003,-0.830220,15.996517,9.214715,-113.202600
29114,-1.902650,2.706139,9.329950,0.155661,0.281995,0.081123,-0.035371,0.040593,-0.011744,-0.019006,0.027079,0.093299,1.000000,-0.000177,0.000203,-0.000059,0.533977,0.142822,-0.071773,-0.830253,15.978444,9.236243,-113.206794
29115,-1.784296,2.706412,9.232870,0.141873,0.173167,-0.029837,-0.038335,0.034913,-0.015525,-0.017825,0.027083,0.092327,1.000000,-0.000192,0.000175,-0.000078,0.533922,0.142864,-0.071542,-0.830300,15.958388,9.255969,-113.213993
29116,-1.670941,2.672386,9.178228,0.086903,0.081017,-0.109109,-0.041370,0.060692,-0.014880,-0.016680,0.026744,0.091782,1.000000,-0.000207,0.000303,-0.000074,0.533882,0.143000,-0.071231,-0.830329,15.937114,9.289098,-113.216747
29117,-1.590581,2.671443,9.202814,0.047118,-0.000244,-0.098980,-0.033876,0.092840,-0.018814,-0.015861,0.026732,0.092031,1.000000,-0.000169,0.000464,-0.000094,0.533831,0.143296,-0.070861,-0.830343,15.920800,9.341251,-113.216567
29118,-1.643156,2.700845,9.322144,0.053568,0.020493,0.030767,-0.024043,0.126331,-0.016889,-0.016370,0.027021,0.093229,1.000000,-0.000120,0.000632,-0.000084,0.533794,0.143752,-0.070446,-0.830323,15.910972,9.410874,-113.210009
29119,-1.717563,2.763929,9.479704,0.083870,0.042940,0.209549,-0.023199,0.148706,-0.014779,-0.017103,0.027652,0.094807,1.000000,-0.000116,0.000744,-0.000074,0.533772,0.144307,-0.069974,-0.830281,15.902603,9.493177,-113.198703
29120,-1.757604,2.745683,9.616764,0.035964,0.068394,0.341332,-0.015703,0.144306,-0.007412,-0.017506,0.027465,0.096178,1.000000,-0.000079,0.000722,-0.000037,0.533774,0.144856,-0.069552,-0.830220,15.898927,9.571232,-113.184004
29121,-1.728994,2.846491,9.716271,0.076582,-0.016654,0.458228,-0.026812,0.135341,-0.000176,-0.017224,0.028478,0.097171,1.000000,-0.000134,0.000677,-0.000001,0.533809,0.145341,-0.069112,-0.830149,15.889523,9.643881,-113.166676
29122,-1.678268,2.822549,9.733117,0.028294,-0.065599,0.459207,-0.042486,0.125463,0.001812,-0.016722,0.028246,0.097336,1.000000,-0.000212,0.000627,0.000009,0.533862,0.145736,-0.068636,-0.830085,15.870903,9.710122,-113.149840
29123,-1.711460,2.704343,9.680625,-0.045517,0.004860,0.383143,-0.052671,0.105572,0.006030,-0.017064,0.027068,0.096808,1.000000,-0.000263,0.000528,0.000030,0.533931,0.146027,-0.068171,-0.830028,15.846502,9.765403,-113.133810
29124,-1.537343,2.667657,9.660183,-0.137858,-0.146899,0.324292,-0.052699,0.094526,-0.001504,-0.015328,0.026702,0.096602,1.000000,-0.000263,0.000473,-0.000008,0.533967,0.146268,-0.067733,-0.829999,15.820907,9.815126,-113.123785
29125,-1.547169,2.557637,9.673028,-0.233564,-0.102097,0.308465,-0.037407,0.095905,-0.006486,-0.015424,0.025595,0.096733,1.000000,-0.000187,0.000480,-0.000032,0.533969,0.146563,-0.067349,-0.829976,15.803815,9.867045,-113.116330
29126,-1.564149,2.588810,9.670446,-0.201156,-0.108924,0.317154,-0.010086,0.095413,-0.021630,-0.015593,0.025895,0.096711,1.000000,-0.000050,0.000477,-0.000108,0.533890,0.146928,-0.067070,-0.829985,15.800725,9.920387,-113.117454
29127,-1.440381,2.727543,9.754628,-0.158981,-0.292264,0.412588,-0.002131,0.093632,-0.034440,-0.014353,0.027279,0.097553,1.000000,-0.000011,0.000468,-0.000172,0.533750,0.147317,-0.066818,-0.830026,15.801092,9.975416,-113.126014
29128,-1.456078,2.801571,9.855660,-0.124583,-0.322947,0.530580,-0.002171,0.093670,-0.040270,-0.014509,0.028020,0.098563,1.000000,-0.000011,0.000468,-0.000201,0.533587,0.147702,-0.066563,-0.830083,15.800666,10.030684,-113.137852
29129,-1.598395,2.811160,9.932781,-0.089429,-0.210395,0.630749,0.000047,0.080460,-0.037352,-0.015939,0.028115,0.099334,1.000000,0.000000,0.000402,-0.000187,0.533428,0.148043,-0.066353,-0.830141,15.801616,10.078904,-113.150131
29130,-1.761305,2.794658,9.929118,-0.043063,-0.061964,0.651251,0.012556,0.052167,-0.026816,-0.017583,0.027943,0.099298,1.000000,0.000063,0.000261,-0.000134,0.533296,0.148290,-0.066280,-0.830188,15.809780,10.109168,-113.161013
29131,-1.778723,2.859154,9.851610,0.041462,-0.072745,0.598164,0.007726,0.016982,-0.022284,-0.017776,0.028590,0.098519,1.000000,0.000039,0.000085,-0.000111,0.533174,0.148383,-0.066282,-0.830250,15.814831,10.120044,-113.174915
29132,-1.661317,2.807562,9.709496,-0.004799,-0.151141,0.429081,0.005913,0.003787,-0.022046,-0.016608,0.028075,0.097096,1.000000,0.000030,0.000019,-0.000110,0.533050,0.148411,-0.066314,-0.830322,15.818311,10.122894,-113.190795
29133,-1.471533,2.720491,9.603268,-0.121074,-0.281821,0.271714,0.004857,0.013007,-0.031339,-0.014705,0.027205,0.096034,1.000000,0.000024,0.000065,-0.000157,0.532890,0.148483,-0.066308,-0.830412,15.820713,10.132996,-113.210397
29134,-1.412956,2.681926,9.605751,-0.180217,-0.320580,0.253313,0.021249,0.032571,-0.039239,-0.014109,0.026812,0.096063,1.000000,0.000106,0.000163,-0.000196,0.532694,0.148676,-0.066314,-0.830503,15.832088,10.154384,-113.231335
29135,-1.509659,2.774593,9.695969,-0.095454,-0.279820,0.380538,0.032878,0.044339,-0.043163,-0.015069,0.027733,0.096968,1.000000,0.000164,0.000222,-0.000216,0.532475,0.148956,-0.066332,-0.830592,15.850241,10.183612,-113.252578
29136,-1.550926,2.986244,9.789678,0.069208,-0.340244,0.533339,0.024248,0.041760,-0.040013,-0.015483,0.029854,0.097904,1.000000,0.000121,0.000209,-0.000200,0.532275,0.149196,-0.066326,-0.830677,15.863500,10.210167,-113.272480
29137,-1.514508,2.962614,9.815159,0.023081,-0.367172,0.544572,0.013794,0.024228,-0.025559,-0.015129,0.029621,0.098155,1.000000,0.000069,0.000121,-0.000128,0.532137,0.149336,-0.066332,-0.830740,15.871884,10.225563,-113.287056
29138,-1.560460,2.973235,9.845663,0.038321,-0.332580,0.584435,0.010311,0.012351,0.001232,-0.015599,0.029727,0.098459,1.000000,0.000052,0.000062,0.000006,0.532109,0.149402,-0.066377,-0.830742,15.880440,10.229427,-113.288535
29139,-1.544999,3.012107,9.835887,0.068308,-0.361596,0.582940,-0.002522,-0.009970,0.026120,-0.015459,0.030120,0.098358,1.000000,-0.000013,-0.000050,0.000131,0.532186,0.149340,-0.066444,-0.830699,15.883645,10.217877,-113.279617
29140,-1.580511,2.946247,9.765344,0.049023,-0.295760,0.504795,-0.021010,-0.012860,0.044016,-0.015818,0.029469,0.097649,1.000000,-0.000105,-0.000064,0.000220,0.532352,0.149204,-0.066459,-0.830616,15.877812,10.201114,-113.261152
29141,-1.636680,2.788329,9.731628,-0.052604,-0.173707,0.440368,-0.022560,-0.019167,0.052560,-0.016383,0.027890,0.097312,1.000000,-0.000113,-0.000096,0.000263,0.532550,0.149042,-0.066487,-0.830516,15.871891,10.180354,-113.238893
29142,-1.716335,2.712746,9.677194,-0.067218,-0.063761,0.382620,-0.020808,-0.020517,0.055221,-0.017181,0.027133,0.096767,1.000000,-0.000104,-0.000103,0.000276,0.532759,0.148871,-0.066531,-0.830409,15.867064,10.157603,-113.215372
29143,-1.686066,2.644879,9.641089,-0.123938,-0.057623,0.324873,-0.019864,-0.018594,0.048712,-0.016876,0.026454,0.096407,1.000000,-0.000099,-0.000093,0.000244,0.532940,0.148719,-0.066567,-0.830317,15.862307,10.137765,-113.195175
29144,-1.742068,2.593153,9.594065,-0.130054,0.020138,0.276317,-0.013200,-0.019802,0.035226,-0.017435,0.025935,0.095937,1.000000,-0.000066,-0.000099,0.000176,0.533061,0.148578,-0.066626,-0.830260,15.859869,10.118540,-113.182735
29145,-1.715368,2.616045,9.602225,-0.121824,-0.011554,0.285527,-0.008992,-0.014668,0.028057,-0.017164,0.026162,0.096020,1.000000,-0.000045,-0.000073,0.000140,0.533149,0.148478,-0.066680,-0.830217,15.859408,10.104102,-113.173478
29146,-1.874456,2.651650,9.613863,-0.031900,0.119251,0.334034,-0.006916,-0.018512,0.014539,-0.018755,0.026518,0.096136,1.000000,-0.000035,-0.000093,0.000073,0.533179,0.148366,-0.066746,-0.830212,15.858556,10.088831,-113.172415
29147,-1.994000,2.726456,9.534992,0.105518,0.201843,0.300364,-0.008878,-0.022310,0.004194,-0.019951,0.027268,0.095346,1.000000,-0.000044,-0.000112,0.000021,0.533166,0.148243,-0.066804,-0.830238,15.855605,10.073917,-113.177732
29148,-1.989766,2.721560,9.462833,0.125025,0.205930,0.229883,-0.023205,-0.032858,0.000914,-0.019913,0.027226,0.094622,1.000000,-0.000116,-0.000164,0.000005,0.533147,0.148032,-0.066830,-0.830286,15.843688,10.052896,-113.186574
29149,-1.880766,2.753536,9.334381,0.154575,0.102249,0.097689,-0.024253,-0.036474,-0.004872,-0.018824,0.027547,0.093337,1.000000,-0.000121,-0.000182,-0.000024,0.533102,0.147812,-0.066855,-0.830352,15.830655,10.031590,-113.199209
29150,-1.694363,2.697657,9.227712,0.070840,-0.035806,-0.050895,-0.021943,-0.022327,-0.002519,-0.016954,0.026987,0.092272,1.000000,-0.000110,-0.000112,-0.000013,0.533072,0.147650,-0.066856,-0.830400,15.819434,10.016936,-113.208290
29151,-1.634320,2.724731,9.187480,0.085381,-0.098877,-0.092199,-0.011205,0.000321,0.008245,-0.016344,0.027252,0.091873,1.000000,-0.000056,0.000002,0.000041,0.533084,0.147613,-0.066847,-0.830399,15.816176,10.013861,-113.207739
29152,-1.512262,2.859818,9.240838,0.138227,-0.269337,-0.026630,-0.010151,0.027864,0.029787,-0.015114,0.028601,0.092409,1.000000,-0.000051,0.000139,0.000149,0.533196,0.147681,-0.066787,-0.830320,15.816255,10.021832,-113.190773
29153,-1.574205,3.067064,9.417352,0.285360,-0.311404,0.206949,-0.026106,0.057159,0.060105,-0.015724,0.030678,0.094174,1.000000,-0.000131,0.000286,0.000301,0.533454,0.147823,-0.066602,-0.830144,15.811087,10.041994,-113.152176
29154,-1.515314,3.153525,9.496166,0.312609,-0.408199,0.294425,-0.042441,0.074406,0.121194,-0.015137,0.031546,0.094961,1.000000,-0.000212,0.000372,0.000606,0.533984,0.147966,-0.066352,-0.829798,15.802928,10.061348,-113.076652
29155,-1.580773,3.197089,9.565578,0.351697,-0.371929,0.383316,-0.002385,0.095170,0.242359,-0.015801,0.031953,0.095663,0.999999,-0.000012,0.000476,0.001212,0.534992,0.148269,-0.066299,-0.829098,15.830268,10.073999,-112.929979
29156,-2.187332,3.727719,10.226248,0.827306,-0.069625,1.258318,0.057895,0.084309,0.407559,-0.021906,0.037203,0.102282,0.999998,0.000289,0.000422,0.002038,0.536637,0.148627,-0.066651,-0.827942,15.907951,10.053849,-112.692563
29157,-3.744471,4.005256,11.177216,1.338763,1.219017,2.504563,0.194138,-0.138940,0.699719,-0.037662,0.039813,0.111785,0.999993,0.000971,-0.000695,0.003499,0.539309,0.148333,-0.068379,-0.826116,16.085357,9.864890,-112.327676
29158,-3.614906,3.898687,11.106721,1.193147,1.238461,2.380257,0.327102,-0.509469,1.077781,-0.036641,0.038609,0.111038,0.999981,0.001635,-0.002547,0.005389,0.543305,0.146729,-0.071937,-0.823478,16.362017,9.409449,-111.813105
29159,-2.887407,4.585551,11.024521,1.527964,0.452580,2.367714,0.450342,-0.825589,1.453025,-0.029660,0.045394,0.110226,0.999963,0.002252,-0.004128,0.007265,0.548610,0.144020,-0.077130,-0.819961,16.728283,8.717009,-111.145504
29160,-2.036604,4.868347,11.068167,1.443663,-0.237428,2.361384,0.491419,-1.092045,1.809154,-0.021408,0.048221,0.110686,0.999941,0.002457,-0.005460,0.009046,0.555190,0.140177,-0.083474,-0.815565,17.130042,7.814138,-110.331693
29161,-2.644902,4.867139,12.287478,1.242177,0.565118,3.596157,0.616152,-1.279770,2.162030,-0.027756,0.047998,0.122849,0.999916,0.003081,-0.006399,0.010810,0.562964,0.135751,-0.091079,-0.810153,17.608679,6.742637,-109.364654
29162,-6.392740,5.877731,13.799532,2.842056,4.092379,5.711428,0.608326,-1.866108,2.461287,-0.065926,0.057555,0.137563,0.999876,0.003042,-0.009330,0.012306,0.571572,0.128761,-0.100491,-0.804131,18.067089,5.290509,-108.348308
29163,-5.684426,6.557370,14.444943,3.029502,3.729404,6.338217,0.087533,-2.732599,2.535166,-0.059635,0.064767,0.143676,0.999826,0.000438,-0.013662,0.012675,0.580206,0.116726,-0.110300,-0.798480,18.187488,3.348785,-107.456619
29164,-3.493906,4.559340,13.960498,0.867053,2.797374,4.995504,-0.507041,-3.435676,2.449760,-0.037886,0.045494,0.138856,0.999774,-0.002535,-0.017177,0.012248,0.588226,0.100162,-0.119682,-0.793495,17.927988,1.040329,-106.735999
29165,-0.442357,1.115135,12.157672,-2.386863,1.209893,2.106475,-0.837341,-3.835837,2.150988,-0.006876,0.011595,0.121413,0.999749,-0.004186,-0.019178,0.010754,0.594707,0.081169,-0.128722,-0.789408,17.449509,-1.429842,-106.233777
29166,1.336715,-0.024956,12.060741,-3.674570,0.216090,1.749357,-0.861318,-3.785782,1.605846,0.011080,0.000366,0.120831,0.999779,-0.004306,-0.018928,0.008029,0.598798,0.062617,-0.137237,-0.786566,16.948642,-3.775690,-106.000130
29167,0.671431,-0.883002,12.107919,-4.061677,1.484707,1.550032,-1.084361,-3.856953,0.845478,0.004413,-0.008151,0.121225,0.999790,-0.005421,-0.019283,0.004227,0.599662,0.043609,-0.144791,-0.785837,16.345184,-6.033612,-106.173782
29168,1.069918,-1.328375,11.809922,-4.263130,1.578601,1.218925,-1.261164,-4.009841,-0.007946,0.008327,-0.012538,0.118363,0.999779,-0.006305,-0.020048,-0.000040,0.596842,0.024069,-0.151857,-0.787489,15.705880,-8.242358,-106.821406
29169,2.168230,-1.021710,10.561637,-3.768572,0.616970,0.321006,-1.560011,-4.073556,-0.989716,0.019476,-0.009491,0.106104,0.999750,-0.007799,-0.020366,-0.004948,0.589863,0.004122,-0.157749,-0.791934,15.006307,-10.344890,-108.005809
29170,3.682637,-2.013407,9.298399,-4.695029,-0.455813,-0.767947,-1.949044,-3.908966,-2.166083,0.034783,-0.019606,0.093870,0.999703,-0.009744,-0.019543,-0.010829,0.578043,-0.015398,-0.161500,-0.799717,14.244779,-12.200685,-109.810737
29171,2.463762,-1.810247,9.766605,-3.959494,1.126606,-0.444145,-2.205841,-3.624916,-3.449577,0.022555,-0.017422,0.098282,0.999626,-0.011028,-0.018122,-0.017246,0.560911,-0.033475,-0.163399,-0.810901,13.541623,-13.744591,-112.295359
29172,-0.555656,-1.460656,11.228734,-2.352896,4.523455,0.311615,-2.575253,-3.654690,-4.724731,-0.007929,-0.012992,0.112331,0.999471,-0.012874,-0.018270,-0.023619,0.538019,-0.051642,-0.163941,-0.825222,12.871651,-15.167319,-115.514614
29173,-0.209491,-1.259393,10.429783,-1.759218,4.194622,-0.342031,-2.915367,-3.849247,-5.913977,-0.004444,-0.010964,0.104395,0.999271,-0.014573,-0.019242,-0.029563,0.509297,-0.070479,-0.163712,-0.841931,12.282340,-16.584732,-119.456110
29174,2.361644,-1.407424,7.560493,-2.597471,1.421544,-2.333518,-2.948979,-3.743851,-6.746241,0.021727,-0.013707,0.076227,0.999147,-0.014741,-0.018714,-0.033722,0.476344,-0.088170,-0.163096,-0.859489,11.906770,-17.875114,-123.887124
29175,5.690575,1.090797,5.391803,-2.198123,-2.942383,-2.802211,-2.612285,-3.044779,-6.990374,0.056429,0.009640,0.054648,0.999188,-0.013058,-0.015220,-0.034942,0.442264,-0.101706,-0.162110,-0.876230,11.830801,-18.761291,-128.397920
29176,5.747718,3.816544,4.821956,-0.279820,-4.553788,-2.739485,-2.183614,-2.098012,-6.538999,0.058188,0.036798,0.048421,0.999351,-0.010916,-0.010488,-0.032688,0.410501,-0.110373,-0.160430,-0.890825,11.927457,-19.169218,-132.539791
29177,4.253405,5.567943,4.869857,1.733843,-4.570202,-2.819165,-1.603772,-1.369419,-5.426224,0.043698,0.054894,0.048553,0.999576,-0.008018,-0.006846,-0.027127,0.384150,-0.115372,-0.159062,-0.902118,12.130778,-19.290930,-135.937555
29178,4.379208,8.828120,5.236966,3.766791,-6.756599,-1.769761,-1.043697,-0.741309,-4.043144,0.045375,0.087647,0.052077,0.999775,-0.005218,-0.003706,-0.020214,0.364612,-0.117497,-0.158106,-0.910085,12.358338,-19.217750,-138.434613
29179,3.151392,8.707241,5.864740,4.362232,-5.813775,-1.608488,-0.998084,-0.305776,-2.723132,0.032609,0.086925,0.058263,0.999894,-0.004990,-0.001529,-0.013615,0.351326,-0.118552,-0.155742,-0.915565,12.332812,-19.057499,-140.091739
29180,3.161326,6.367438,6.321023,2.681592,-4.119740,-1.668415,-0.957689,-0.020033,-1.653158,0.032133,0.063712,0.062908,0.999954,-0.004788,-0.000100,-0.008266,0.343133,-0.119052,-0.152404,-0.919162,12.107192,-18.871432,-141.077162
29181,3.744465,3.553121,6.753638,0.372858,-2.364513,-1.656280,-0.906168,0.225472,-0.972045,0.037694,0.035654,0.067333,0.999977,-0.004531,0.001127,-0.004860,0.338262,-0.118837,-0.148465,-0.921637,11.768300,-18.632070,-141.628509
29182,3.383831,-0.487702,7.372552,-1.959167,0.953944,-1.983626,-0.769364,0.369861,-0.697910,0.033958,-0.004712,0.073681,0.999985,-0.003847,0.001849,-0.003490,0.334831,-0.117933,-0.144748,-0.923595,11.448726,-18.347355,-142.000679
29183,2.929167,-2.228675,8.198691,-2.651464,2.751871,-1.678658,-0.562807,0.374968,-0.811930,0.029355,-0.022175,0.081994,0.999986,-0.002814,0.001875,-0.004060,0.330989,-0.116566,-0.142034,-0.925573,11.266627,-18.047380,-142.440336
29184,2.996908,-2.021097,8.380548,-2.546525,2.606805,-1.444912,-0.432599,0.381768,-1.180064,0.030010,-0.020207,0.083792,0.999978,-0.002163,0.001909,-0.005900,0.325513,-0.114695,-0.140124,-0.928036,11.223062,-17.704409,-143.096270
29185,2.925606,-0.824500,7.733313,-1.825500,1.529201,-1.852026,-0.425227,0.453742,-1.542813,0.029368,-0.008307,0.077284,0.999965,-0.002126,0.002269,-0.007714,0.318389,-0.112208,-0.138329,-0.931076,11.240998,-17.279506,-143.956316
29186,3.029535,1.492802,6.642546,-0.640848,-0.659302,-2.417817,-0.262808,0.615082,-1.610179,0.030619,0.014770,0.066312,0.999962,-0.001314,0.003075,-0.008051,0.311133,-0.108668,-0.137061,-0.934132,11.350022,-16.756672,-144.834088
29187,3.273487,4.335332,5.777328,0.712457,-3.296237,-2.635341,-0.328333,0.913183,-1.369873,0.033294,0.043221,0.057551,0.999965,-0.001642,0.004566,-0.006849,0.305143,-0.103983,-0.134882,-0.936954,11.362575,-16.091415,-145.532976
29188,3.977557,5.397199,4.464348,0.538377,-4.982155,-3.506504,-0.437202,1.352068,-0.855910,0.040306,0.053897,0.044254,0.999966,-0.002186,0.006760,-0.004280,0.301781,-0.097758,-0.131249,-0.939226,11.208360,-15.239326,-145.878880
29189,4.303431,5.835087,4.143518,0.411803,-5.684582,-3.709377,-0.633974,1.962506,-0.282701,0.043519,0.058420,0.040825,0.999946,-0.003170,0.009812,-0.001413,0.301387,-0.089321,-0.125478,-0.940980,10.834530,-14.106964,-145.825021
29190,3.202448,4.457536,4.658919,0.455080,-3.963711,-3.820149,-0.782204,2.511676,0.247443,0.032549,0.044796,0.046008,0.999913,-0.003911,0.012558,0.001237,0.303723,-0.078855,-0.117934,-0.942139,10.294430,-12.722156,-145.414477
29191,3.048897,3.803489,4.882076,0.140407,-3.437458,-3.832848,-0.816479,2.918183,0.631803,0.031075,0.038330,0.048214,0.999880,-0.004082,0.014590,0.003159,0.308034,-0.066725,-0.109428,-0.942703,9.693808,-11.140707,-144.757463
29192,4.223219,2.493177,3.787110,-1.704984,-3.490858,-4.985980,-0.808405,3.392895,0.886523,0.042754,0.025271,0.037047,0.999838,-0.004042,0.016964,0.004432,0.313721,-0.052479,-0.100124,-0.942762,9.087281,-9.309786,-143.929904
29193,4.725697,2.769841,2.909089,-2.012580,-4.345768,-5.872370,-0.694732,4.038681,1.093528,0.047677,0.028057,0.028034,0.999775,-0.003473,0.020192,0.005467,0.320615,-0.035081,-0.090240,-0.942248,8.552146,-7.121612,-142.949756
29194,2.365215,3.179728,4.015542,0.059837,-3.193942,-5.162843,-0.645576,4.737241,1.280042,0.024388,0.032080,0.039480,0.999694,-0.003228,0.023684,0.006400,0.328543,-0.014396,-0.079400,-0.941035,8.072079,-4.546473,-141.829753
29195,-0.592436,3.280949,5.414158,2.284115,-1.383676,-4.042703,-0.579256,5.048313,1.494169,-0.004803,0.032928,0.054177,0.999649,-0.002896,0.025239,0.007470,0.337391,0.007801,-0.068282,-0.938853,7.674381,-1.800940,-140.587469
29196,-1.547513,4.028328,5.504167,3.324674,-1.480495,-3.840365,-0.520733,5.191401,1.775989,-0.014399,0.040296,0.055320,0.999620,-0.002603,0.025954,0.008879,0.347363,0.030651,-0.057172,-0.935484,7.370254,1.010076,-139.193089
29197,-2.556121,4.607206,5.255609,4.317454,-1.392079,-3.913603,-0.515177,5.400711,2.115421,-0.024618,0.045945,0.053111,0.999576,-0.002576,0.027000,0.010576,0.358703,0.054383,-0.045717,-0.930744,7.146572,3.924162,-137.602209
29198,-3.976207,4.411546,5.300941,5.034603,-0.372003,-3.658056,-0.462283,5.613487,2.481393,-0.038800,0.043754,0.054006,0.999527,-0.002311,0.028063,0.012405,0.371459,0.079054,-0.034201,-0.924445,7.057411,6.935616,-135.789437
29199,-6.498799,4.015786,6.018579,6.158388,1.601373,-2.458994,-0.413026,5.757430,2.837489,-0.063784,0.039374,0.061952,0.999483,-0.002065,0.028782,0.014185,0.385498,0.104356,-0.022737,-0.916506,7.124224,10.006232,-133.750608
29200,-9.011562,3.474639,7.222877,6.821121,3.657172,-0.565263,-0.368463,5.699156,3.085320,-0.088533,0.033508,0.074704,0.999473,-0.001842,0.028491,0.015424,0.400243,0.129330,-0.011711,-0.907161,7.357888,13.018885,-131.544755
29201,-11.107599,2.318674,9.438335,6.220553,5.670026,2.309176,-0.378305,5.372251,3.246361,-0.108848,0.021590,0.097286,0.999506,-0.001891,0.026857,0.016229,0.415297,0.152670,-0.001370,-0.896782,7.721408,15.824153,-129.227865
29202,-13.451315,2.104964,12.154404,6.025325,7.036587,5.910388,-0.298887,4.622951,3.228238,-0.131975,0.019090,0.124585,0.999601,-0.001494,0.023112,0.016139,0.429836,0.172679,0.007059,-0.886213,8.226315,18.187557,-126.931861
29203,-12.707636,1.443825,13.396019,4.029997,6.483572,7.060511,-0.470608,3.499693,3.009666,-0.124908,0.012866,0.136127,0.999731,-0.002353,0.017497,0.015047,0.443308,0.187221,0.014035,-0.876487,8.649184,19.915734,-124.820042
29204,-8.522505,0.378035,11.963255,0.914467,3.985945,4.299650,-0.487664,2.529418,2.705719,-0.083747,0.002934,0.120690,0.999826,-0.002438,0.012646,0.013528,0.455338,0.197375,0.019202,-0.867953,9.029341,21.107012,-122.950421
29205,-3.970696,0.530991,9.935280,-0.880724,0.609807,0.845938,-0.375451,2.173415,2.483617,-0.038688,0.005012,0.099767,0.999862,-0.001877,0.010867,0.012418,0.466185,0.206152,0.023297,-0.860018,9.451292,22.105291,-121.228763
29206,-3.512710,2.080406,10.100382,-0.070140,-0.786731,1.052759,-0.095389,2.125791,2.598717,-0.034318,0.020403,0.101362,0.999859,-0.000477,0.010628,0.012993,0.477114,0.215338,0.025941,-0.851656,10.095624,23.050464,-119.419469
29207,-5.123504,5.109968,11.851477,2.373851,-1.623158,3.772100,0.038028,1.862373,3.091101,-0.050910,0.050289,0.118999,0.999837,0.000190,0.009311,0.015455,0.489887,0.223715,0.026860,-0.842165,10.957268,23.773770,-117.313751
29208,-6.759732,5.949458,13.663175,2.903548,-1.116086,6.252433,0.167794,1.272450,3.942364,-0.067880,0.058043,0.137112,0.999785,0.000839,0.006362,0.019710,0.505993,0.229960,0.024815,-0.830947,12.101974,24.034187,-114.737241
29209,-9.226441,7.443913,16.156325,3.922062,-0.142887,9.837510,0.456232,0.291090,4.973722,-0.093836,0.071749,0.161865,0.999687,0.002281,0.001455,0.024866,0.525907,0.232860,0.017902,-0.817849,13.606628,23.560508,-111.664469
29210,-9.889992,9.083611,17.825835,4.629665,-0.084228,12.017869,0.245122,-0.809906,5.831462,-0.102208,0.087670,0.177958,0.999566,0.001225,-0.004049,0.029153,0.549280,0.230612,0.007931,-0.803148,15.070919,22.280672,-108.278458
29211,-12.883400,6.578941,18.504697,2.664136,4.322466,13.117539,-0.016686,-1.972196,6.343966,-0.132650,0.061637,0.183746,0.999448,-0.000083,-0.009859,0.031714,0.574517,0.222766,-0.004764,-0.787581,16.304973,20.207301,-104.856183
29212,-12.189076,1.300021,16.857534,-2.109853,6.904633,9.737566,-0.035205,-3.418432,6.490820,-0.125084,0.009004,0.166453,0.999327,-0.000176,-0.017088,0.032447,0.599613,0.208906,-0.021712,-0.772238,17.304177,17.254246,-101.699022
29213,-6.719214,-3.620944,14.684616,-7.295375,4.395060,4.375826,0.745985,-4.196140,6.277075,-0.069059,-0.038902,0.145268,0.999281,0.003729,-0.020976,0.031378,0.622150,0.194109,-0.043739,-0.757191,18.481238,13.858846,-98.917743
29214,-4.457404,-1.197623,14.644516,-5.660273,2.323539,4.268434,1.207096,-4.539712,5.722733,-0.047497,-0.014187,0.145308,0.999315,0.006034,-0.022693,0.028607,0.641190,0.179302,-0.067988,-0.743037,19.658811,10.327163,-96.622059
29215,-4.262059,-0.382197,15.319680,-5.377390,2.642855,4.919821,0.920379,-4.772843,4.880601,-0.046137,-0.005621,0.152100,0.999407,0.004601,-0.023859,0.024398,0.656463,0.162758,-0.091071,-0.730939,20.443237,6.797611,-94.918232
29216,-4.717931,-0.396304,15.626181,-5.600744,3.859206,5.028886,0.480411,-5.010546,3.884233,-0.050979,-0.005302,0.155005,0.999495,0.002402,-0.025049,0.019418,0.667623,0.144182,-0.112420,-0.721701,20.816956,3.325286,-93.847122
29217,-4.456889,0.450181,15.404517,-4.781311,4.357446,4.865653,-0.112156,-5.336036,2.810340,-0.048715,0.003923,0.152780,0.999545,-0.000561,-0.026676,0.014050,0.674513,0.122913,-0.131832,-0.715923,20.767432,-0.106137,-93.431175
29218,-3.422249,2.495025,14.402820,-2.468317,4.032125,4.433768,-0.861959,-5.679413,1.736745,-0.038509,0.025246,0.142867,0.999550,-0.004309,-0.028393,0.008682,0.677183,0.098487,-0.148936,-0.713822,20.283402,-3.503514,-93.644488
29219,-0.622203,1.249663,11.734121,-2.676525,1.841707,1.546820,-1.775747,-5.869703,0.706838,-0.009706,0.013506,0.116973,0.999524,-0.008877,-0.029344,0.003534,0.675859,0.070960,-0.162782,-0.715319,19.337593,-6.806512,-94.410416
29220,2.152086,-2.120554,9.250099,-5.057213,-0.515440,-1.516795,-2.038844,-5.805492,-0.244496,0.018795,-0.020281,0.093283,0.999526,-0.010193,-0.029023,-0.001222,0.670636,0.043485,-0.174971,-0.719543,18.350028,-9.910194,-95.634274
29221,3.085800,-1.174829,9.291560,-4.106821,-0.903735,-0.895058,-1.928735,-5.601242,-1.054647,0.028179,-0.011000,0.093838,0.999547,-0.009642,-0.028002,-0.005272,0.662031,0.017777,-0.186539,-0.725674,17.562445,-12.778820,-97.233684
29222,3.310715,-0.218598,9.662152,-3.166961,-0.526689,-0.115766,-2.182885,-5.474202,-1.765435,0.030432,-0.001401,0.097497,0.999527,-0.010913,-0.027367,-0.008826,0.650377,-0.007663,-0.196520,-0.733711,16.791383,-15.478018,-99.189169
29223,3.786405,-1.013541,8.628202,-3.589431,-0.690642,-1.070613,-2.480773,-5.336113,-2.425803,0.035425,-0.009496,0.087369,0.999494,-0.012402,-0.026676,-0.012127,0.635785,-0.032910,-0.204800,-0.743472,16.035297,-18.020272,-101.487676
29224,5.846598,-1.591679,7.208901,-4.148496,-2.531538,-1.747788,-2.595565,-4.970649,-3.159816,0.056396,-0.015869,0.073714,0.999482,-0.012976,-0.024849,-0.015796,0.618172,-0.056380,-0.211394,-0.754982,15.424447,-20.272554,-104.153257
29225,5.612120,-1.286710,7.148815,-3.769614,-1.909060,-1.665041,-2.738783,-4.482720,-3.965030,0.054241,-0.012963,0.072895,0.999459,-0.013691,-0.022410,-0.019822,0.597336,-0.077538,-0.215951,-0.768468,14.972118,-22.157989,-107.231401
29226,4.371979,-1.081140,7.125887,-3.182956,-0.434852,-2.019919,-2.790242,-4.159726,-4.683635,0.041970,-0.010804,0.072295,0.999412,-0.013948,-0.020795,-0.023414,0.573398,-0.096752,-0.219370,-0.783410,14.734814,-23.776206,-110.715631
29227,3.472843,0.970291,7.427728,-0.906691,0.288751,-1.611347,-2.783409,-3.907419,-5.268518,0.033528,0.009848,0.074804,0.999365,-0.013914,-0.019533,-0.026337,0.546743,-0.114192,-0.222117,-0.799184,14.733106,-25.176204,-114.553197
29228,2.996875,3.071150,6.746840,1.335450,-0.135146,-1.930375,-3.095976,-3.664177,-5.776035,0.029622,0.030898,0.067536,0.999295,-0.015476,-0.018317,-0.028873,0.517425,-0.130806,-0.222933,-0.815758,14.765752,-26.366646,-118.704056
29229,4.424405,2.139328,4.419925,-0.102727,-2.003938,-3.515092,-3.238935,-3.250272,-6.074619,0.044159,0.020771,0.044578,0.999276,-0.016191,-0.016247,-0.030366,0.486513,-0.145574,-0.221981,-0.832369,14.857262,-27.279749,-123.012550
29230,6.083241,3.426194,2.236802,-0.056342,-4.832727,-4.300888,-2.980502,-2.475207,-6.014457,0.061554,0.032754,0.022631,0.999360,-0.014899,-0.012373,-0.030066,0.456238,-0.156365,-0.219865,-0.847972,15.078699,-27.762495,-127.183162
29231,6.367118,4.594474,2.318906,0.430945,-5.544016,-3.804903,-2.730413,-1.403663,-5.586809,0.064765,0.044461,0.023027,0.999492,-0.013650,-0.007017,-0.027929,0.428619,-0.162326,-0.215786,-0.862190,15.254448,-27.703245,-130.915934
29232,3.148000,4.488136,3.685994,2.068768,-2.705350,-4.152542,-2.129825,-0.597197,-4.694546,0.032419,0.044518,0.036480,0.999663,-0.010648,-0.002986,-0.023470,0.405843,-0.164360,-0.211658,-0.873772,15.436567,-27.324328,-133.946644
29233,3.302697,7.397147,4.273247,4.105745,-4.369052,-2.889373,-1.887853,-0.022613,-3.766855,0.034412,0.073731,0.042040,0.999778,-0.009439,-0.000113,-0.018833,0.387695,-0.164273,-0.206544,-0.883203,15.423870,-26.764497,-136.290911
29234,5.605078,5.130729,2.294695,0.431046,-5.527313,-4.132501,-1.954403,0.729198,-3.014722,0.056900,0.050673,0.022243,0.999832,-0.009771,0.003646,-0.015073,0.373440,-0.161717,-0.198981,-0.891514,15.079293,-25.910085,-138.031987
29235,7.242644,4.047837,0.783148,-1.888439,-6.609350,-5.101207,-1.792267,1.716849,-2.422922,0.072972,0.039661,0.006849,0.999850,-0.008961,0.008584,-0.012114,0.362816,-0.154983,-0.189754,-0.899076,14.571731,-24.605933,-139.241966
29236,7.352270,2.617320,1.304226,-3.106201,-5.553313,-5.110283,-1.676178,2.771346,-1.890366,0.073936,0.025578,0.011804,0.999824,-0.008380,0.013856,-0.009451,0.355559,-0.143766,-0.178667,-0.906083,13.905732,-22.804103,-139.966317
29237,3.603783,2.511686,3.814866,-0.353819,-2.311046,-4.485532,-1.411195,3.392675,-1.368983,0.036848,0.025132,0.037351,0.999808,-0.007056,0.016962,-0.006844,0.351278,-0.129664,-0.167231,-0.912044,13.224172,-20.732629,-140.300674
29238,1.354989,1.343304,5.915597,0.587254,0.492693,-3.644855,-1.416064,3.560395,-1.005790,0.014668,0.013778,0.058805,0.999804,-0.007080,0.017801,-0.005029,0.348655,-0.115074,-0.155186,-0.917123,12.456408,-18.619786,-140.420173
29239,0.484116,0.090983,6.239765,0.289695,1.825286,-3.832957,-1.139385,3.561151,-0.783874,0.005955,0.001243,0.062292,0.999818,-0.005697,0.017805,-0.003919,0.347076,-0.100112,-0.144213,-0.921259,11.811059,-16.532808,-140.434997
29240,-0.410228,0.731906,6.941047,1.309890,1.949876,-3.227964,-1.024763,3.541726,-0.688927,-0.002847,0.007686,0.069430,0.999824,-0.005124,0.017708,-0.003444,0.345856,-0.085087,-0.133711,-0.924805,11.223209,-14.469726,-140.419982
29241,-0.479061,0.437014,6.197784,0.985699,1.792186,-3.926660,-0.798550,3.458752,-0.551163,-0.003706,0.004629,0.062030,0.999839,-0.003993,0.017293,-0.002756,0.345196,-0.070105,-0.124287,-0.927619,10.753398,-12.466450,-140.354323
29242,1.530538,1.950454,4.414677,0.272396,-1.215073,-4.905247,-0.600703,3.557847,-0.306937,0.016117,0.019612,0.043806,0.999836,-0.003003,0.017788,-0.001535,0.345689,-0.054462,-0.115491,-0.929621,10.372578,-10.434219,-140.153370
29243,3.008975,3.046947,2.885500,-0.252597,-3.465300,-5.993126,-0.557088,4.066920,0.039375,0.030661,0.030555,0.028150,0.999789,-0.002785,0.020333,0.000197,0.347967,-0.036546,-0.105873,-0.930792,9.986032,-8.147055,-139.717506
29244,1.785764,4.228963,3.053119,1.369598,-3.632932,-5.898813,-0.520093,4.673140,0.499742,0.018457,0.042414,0.029994,0.999721,-0.002600,0.023364,0.002498,0.352546,-0.015984,-0.095246,-0.930798,9.603212,-5.561414,-138.978463
29245,0.470953,5.224124,3.545446,2.920362,-3.527183,-5.440936,-0.625608,5.161564,1.034211,0.005349,0.052378,0.035158,0.999649,-0.003128,0.025805,0.005170,0.359614,0.006433,-0.083156,-0.929366,9.170553,-2.742631,-137.912612
29246,-1.178943,5.423542,4.050536,4.153846,-2.598641,-4.995792,-0.731292,5.549794,1.561992,-0.011087,0.054295,0.040621,0.999578,-0.003656,0.027745,0.007809,0.369022,0.030227,-0.069842,-0.926300,8.725392,0.255088,-136.537605
29247,-2.662730,4.779285,4.430037,4.630926,-1.168073,-4.641261,-0.760113,5.867426,2.059111,-0.025808,0.047694,0.044884,0.999509,-0.003800,0.029332,0.010294,0.380510,0.055249,-0.055808,-0.921437,8.345884,3.402282,-134.875054
29248,-5.058570,3.899767,5.634049,5.323586,1.119509,-3.260309,-0.782285,6.139454,2.443008,-0.049301,0.038614,0.057716,0.999447,-0.003911,0.030692,0.012213,0.393453,0.081307,-0.041218,-0.914814,8.067919,6.680166,-132.984167
29249,-8.242904,2.065808,7.382285,5.473336,4.570177,-1.104562,-0.583250,6.103915,2.718050,-0.080399,0.019776,0.076239,0.999438,-0.002916,0.030514,0.013588,0.407127,0.107456,-0.027659,-0.906607,8.032701,9.922746,-130.934966
29250,-10.531138,1.827468,9.898254,5.655346,6.123971,2.132026,-0.376020,5.752111,2.805868,-0.102652,0.017012,0.101928,0.999486,-0.001880,0.028756,0.014027,0.420604,0.132301,-0.015786,-0.897407,8.237257,12.954461,-128.839353
29251,-13.054453,1.840315,12.899291,5.744028,7.495815,6.028520,-0.291676,4.977759,2.728044,-0.127518,0.016841,0.132167,0.999596,-0.001458,0.024885,0.013638,0.433229,0.153740,-0.005840,-0.888055,8.570899,15.545241,-126.817979
29252,-12.510000,1.917252,14.350748,4.391013,6.544338,7.621907,-0.392242,3.840811,2.569301,-0.122549,0.017872,0.145841,0.999731,-0.001961,0.019202,0.012845,0.444904,0.169818,0.002206,-0.879328,8.879984,17.494470,-124.955851
29253,-8.346937,1.758656,12.918428,1.939453,3.346448,5.176493,-0.594197,2.844373,2.261787,-0.081816,0.017041,0.130305,0.999831,-0.002971,0.014221,0.011308,0.455216,0.180986,0.009195,-0.871744,9.045640,18.900044,-123.345136
29254,-4.056399,0.027688,10.077297,-1.059530,1.274384,0.922975,-0.393557,2.429870,2.059896,-0.039337,0.000066,0.101256,0.999871,-0.001968,0.012149,0.010299,0.464350,0.190748,0.014537,-0.864744,9.314164,20.084012,-121.877341
29255,-3.595354,3.367010,10.449362,1.117619,-1.224618,1.619726,-0.119749,2.399813,2.023119,-0.035035,0.033375,0.104898,0.999877,-0.000599,0.011999,0.010115,0.472950,0.200959,0.018666,-0.857663,9.764315,21.245562,-120.416162
29256,-5.218400,4.855112,11.814521,2.488889,-1.167091,3.708649,-0.306558,2.238384,2.080868,-0.051361,0.048195,0.118649,0.999882,-0.001533,0.011191,0.010404,0.481886,0.209999,0.023143,-0.850382,10.149126,22.300466,-118.916676
29257,-5.152826,4.337609,12.386223,1.688896,-1.190106,4.134139,-0.469382,1.874822,2.203307,-0.050841,0.043105,0.124240,0.999893,-0.002347,0.009374,0.011016,0.491449,0.217062,0.027310,-0.842981,10.482107,23.128948,-117.365895
29258,-4.324137,3.473389,12.294083,0.522129,-1.482714,3.582632,-0.396638,1.552056,2.484071,-0.042715,0.034445,0.123205,0.999891,-0.001983,0.007760,0.012420,0.502054,0.222942,0.030058,-0.835066,10.935588,23.736076,-115.665363
29259,-6.549885,4.166495,13.627504,1.375743,-0.350493,5.806199,0.076460,1.048124,3.170544,-0.065432,0.040575,0.136634,0.999861,0.000382,0.005240,0.015852,0.514949,0.227947,0.028802,-0.825856,11.820536,23.964179,-113.592900
29260,-8.643782,6.721169,15.568985,3.414330,-0.101252,8.911442,0.469028,0.161414,4.191629,-0.087690,0.065017,0.155914,0.999777,0.002345,0.000807,0.020957,0.531555,0.230372,0.022457,-0.814784,13.133044,23.533277,-111.012976
29261,-10.192531,9.267885,17.166593,5.265431,0.297444,11.555241,0.642856,-1.000049,5.285617,-0.105174,0.089376,0.171436,0.999633,0.003214,-0.005000,0.026425,0.552233,0.228508,0.011056,-0.801686,14.686137,22.246666,-107.975927
29262,-11.913624,9.488603,18.107847,5.266104,2.499738,13.116577,0.216971,-2.115847,6.099643,-0.123858,0.090961,0.179885,0.999478,0.001085,-0.010577,0.030493,0.576231,0.220849,-0.002672,-0.786878,15.997325,20.150236,-104.708939
29263,-9.673852,3.188097,15.785377,-0.497884,4.224639,8.483398,0.020245,-3.180232,6.518183,-0.100201,0.028637,0.156282,0.999343,0.000101,-0.015898,0.032584,0.601398,0.208160,-0.019136,-0.771118,17.050213,17.338470,-101.479845
29264,-5.367859,-1.621498,14.048177,-5.443952,2.641721,4.048905,0.761650,-3.695249,6.535664,-0.055680,-0.018545,0.139397,0.999288,0.003807,-0.018472,0.032671,0.624986,0.195442,-0.040012,-0.754714,18.316729,14.181324,-98.445271
29265,-5.727868,-0.955660,15.091081,-5.459632,3.267449,5.050754,1.364481,-4.065812,6.182540,-0.059975,-0.012407,0.149631,0.999292,0.006821,-0.020324,0.030905,0.645694,0.182989,-0.063905,-0.738586,19.675832,10.823276,-95.795843
29266,-4.082064,-0.329584,15.051943,-5.349972,2.273962,4.660890,1.371963,-4.541665,5.469606,-0.044094,-0.005500,0.149510,0.999345,0.006858,-0.022703,0.027342,0.662729,0.168792,-0.088631,-0.724185,20.791695,7.295995,-93.734065
29267,-3.082757,-0.572305,14.603563,-5.705335,2.070403,3.833246,1.012888,-4.755910,4.492523,-0.034137,-0.007202,0.145216,0.999452,0.005064,-0.023775,0.022459,0.675640,0.152848,-0.111829,-0.712490,21.512919,3.824078,-92.314514
29268,-2.359193,0.376942,14.898602,-5.084159,2.000474,4.250640,0.415651,-4.881719,3.475627,-0.027275,0.003008,0.148357,0.999549,0.002078,-0.024405,0.017376,0.684639,0.134862,-0.132440,-0.703947,21.785827,0.488404,-91.499310
29269,-2.126415,1.391342,14.570194,-4.017598,2.498044,4.198589,-0.549796,-5.065694,2.432421,-0.025114,0.014023,0.145060,0.999602,-0.002749,-0.025325,0.012160,0.689915,0.113492,-0.149464,-0.699140,21.469475,-2.724906,-91.277727
29270,-1.640977,0.157694,13.025761,-4.474683,2.657372,2.239798,-1.367410,-5.212436,1.495802,-0.019812,0.002326,0.129757,0.999609,-0.006836,-0.026059,0.007478,0.691726,0.089405,-0.163486,-0.697707,20.710174,-5.820784,-91.557749
29271,-0.236230,-1.581996,10.820941,-5.176059,1.633488,-0.317358,-1.778754,-5.367255,0.683902,-0.005215,-0.014872,0.108230,0.999595,-0.008893,-0.026833,0.003419,0.690212,0.063942,-0.176115,-0.698930,19.784033,-8.843225,-92.264230
29272,1.986183,-1.190058,9.641498,-4.330505,-0.192776,-0.896209,-1.845123,-5.284209,-0.067296,0.017300,-0.011014,0.096999,0.999608,-0.009224,-0.026418,-0.000336,0.685617,0.039155,-0.187841,-0.702220,18.918622,-11.688028,-93.324797
29273,2.187030,-0.287011,9.719854,-3.348451,0.158416,-0.427645,-2.066579,-5.117875,-0.725481,0.019365,-0.001935,0.097739,0.999613,-0.010332,-0.025586,-0.003627,0.678376,0.014776,-0.197949,-0.707393,18.044331,-14.339212,-94.687571
29274,2.558462,-0.824505,9.353340,-3.607900,0.212107,-0.778042,-2.376429,-4.990094,-1.485573,0.023183,-0.007306,0.094222,0.999591,-0.011881,-0.024947,-0.007427,0.668056,-0.009460,-0.206306,-0.714877,17.153186,-16.808434,-96.431072
29275,2.094222,-1.944388,9.014366,-4.349345,1.075454,-1.486403,-2.729533,-4.855139,-2.464546,0.018511,-0.018445,0.090869,0.999536,-0.013646,-0.024272,-0.012321,0.653776,-0.033376,-0.212823,-0.725376,16.290352,-19.068440,-98.697914
29276,2.039550,-3.069884,8.712631,-5.139871,1.602614,-2.035880,-2.953254,-4.732918,-3.595799,0.017779,-0.029739,0.088012,0.999449,-0.014764,-0.023660,-0.017976,0.634825,-0.056343,-0.218092,-0.739093,15.598425,-21.111621,-101.603998
29277,2.157038,-3.210294,7.745983,-4.899140,1.658687,-2.871480,-2.963140,-4.616894,-4.618893,0.019037,-0.031405,0.078388,0.999357,-0.014813,-0.023080,-0.023090,0.611457,-0.077728,-0.222994,-0.755217,15.222412,-22.961107,-105.118840
29278,3.135401,-0.797539,6.784053,-2.521853,0.446074,-2.747303,-3.067095,-4.339171,-5.561314,0.029653,-0.007767,0.068616,0.999261,-0.015332,-0.021691,-0.027800,0.583960,-0.097229,-0.226698,-0.773398,15.106989,-24.529301,-109.192513
29279,3.033717,0.872036,6.043018,-0.742786,0.108234,-3.036622,-3.377438,-3.933207,-6.387210,0.029423,0.008796,0.060867,0.999154,-0.016882,-0.019660,-0.031927,0.552649,-0.114970,-0.228073,-0.793312,15.110642,-25.753736,-113.748597
29280,3.985765,1.669990,3.867369,-0.226965,-1.823111,-4.312297,-3.506477,-3.434802,-6.941641,0.039752,0.016002,0.039072,0.999097,-0.017527,-0.017169,-0.034698,0.518672,-0.130266,-0.227465,-0.813800,15.245310,-26.614113,-118.603538
29281,6.520523,3.619782,1.873021,0.204488,-5.465375,-4.409135,-3.473151,-2.477788,-7.231113,0.066231,0.034143,0.018942,0.999119,-0.017361,-0.012385,-0.036145,0.483695,-0.141013,-0.224307,-0.834171,15.463928,-26.888207,-123.503183
29282,4.943912,4.298256,2.412856,1.166279,-4.354045,-4.482689,-3.234508,-1.388544,-6.998975,0.050745,0.041608,0.023797,0.999233,-0.016168,-0.006941,-0.034986,0.450281,-0.146680,-0.218967,-0.853103,15.667307,-26.580827,-128.071143
29283,4.015661,5.321606,2.161022,2.161784,-4.476663,-4.874157,-2.616891,-0.540076,-6.065915,0.041694,0.052245,0.021034,0.999451,-0.013082,-0.002700,-0.030324,0.421627,-0.148157,-0.213389,-0.868761,15.864622,-25.936022,-131.899054
29284,6.384465,8.080312,0.677355,2.406446,-8.505374,-4.487643,-2.124693,0.486589,-4.788590,0.065770,0.079308,0.005767,0.999654,-0.010622,0.002433,-0.023940,0.399605,-0.145379,-0.206640,-0.881181,15.869450,-24.920414,-134.740604
29285,7.179410,9.221982,0.040249,2.248507,-10.200258,-4.571913,-2.147690,1.798650,-3.607739,0.073436,0.090898,-0.001234,0.999739,-0.010738,0.008992,-0.018037,0.383877,-0.137987,-0.196192,-0.891688,15.411522,-23.372592,-136.621892
29286,5.636528,5.719405,1.494380,0.483303,-6.559579,-4.971066,-2.430419,2.975817,-2.697817,0.057339,0.056594,0.013405,0.999725,-0.012151,0.014878,-0.013488,0.372961,-0.126721,-0.181494,-0.901056,14.456846,-21.330369,-137.765768
29287,1.975580,1.505428,4.313013,0.069146,-0.499660,-4.861619,-2.003674,3.547918,-1.919211,0.020661,0.015288,0.042617,0.999746,-0.010018,0.017738,-0.009595,0.366143,-0.112708,-0.167060,-0.908475,13.525125,-19.094119,-138.383270
29288,-0.702354,1.405028,7.690336,2.065340,2.322515,-2.605711,-1.696535,3.471519,-1.371392,-0.005589,0.014744,0.076886,0.999790,-0.008482,0.017356,-0.006856,0.361753,-0.098900,-0.153781,-0.914169,12.660057,-16.982765,-138.718442
29289,-1.186624,0.048532,8.857744,1.457897,3.701662,-1.810593,-1.656326,3.153034,-1.133222,-0.010462,0.001282,0.088741,0.999825,-0.008281,0.015764,-0.005666,0.358088,-0.086606,-0.141078,-0.918896,11.787594,-15.081926,-138.984771
29290,-0.447820,-1.278277,8.042542,-0.116578,3.665897,-2.528469,-1.338403,2.764389,-0.952593,-0.003424,-0.012226,0.080561,0.999871,-0.006692,0.013821,-0.004763,0.355008,-0.075640,-0.130416,-0.922626,11.080980,-13.424971,-139.216731
29291,0.696132,1.037135,7.425171,0.485866,0.906274,-2.354002,-1.116834,2.624639,-0.869521,0.007981,0.010752,0.074092,0.999889,-0.005584,0.013123,-0.004347,0.352218,-0.064950,-0.120956,-0.925793,10.491618,-11.856815,-139.433814
29292,1.199843,1.807446,6.200734,0.484504,-0.479222,-3.279069,-0.996263,2.641304,-0.642916,0.012874,0.018342,0.061750,0.999895,-0.004981,0.013206,-0.003214,0.350452,-0.054104,-0.111928,-0.928293,9.942928,-10.305693,-139.533513
29293,1.953599,4.058251,4.660393,1.289017,-3.130808,-4.286452,-0.894757,2.772846,-0.252224,0.020229,0.040764,0.046145,0.999893,-0.004474,0.013864,-0.001261,0.350525,-0.042667,-0.103008,-0.929893,9.413060,-8.717677,-139.411028
29294,5.530646,6.016993,1.735999,-0.166493,-7.631857,-6.417360,-0.852492,3.286052,0.335328,0.055478,0.060334,0.016192,0.999855,-0.004262,0.016429,0.001677,0.353516,-0.029072,-0.093240,-0.930316,8.861306,-6.893003,-138.921613
29295,6.427947,7.482466,0.396659,0.198870,-9.635641,-7.675569,-0.865344,4.367587,1.084631,0.063934,0.075184,0.002243,0.999737,-0.004326,0.021836,0.005423,0.360349,-0.010797,-0.081348,-0.929201,8.270248,-4.513443,-137.933325
29296,3.328240,7.493467,0.887876,2.597870,-7.542319,-7.720851,-0.933159,5.367632,1.866072,0.032797,0.075280,0.007643,0.999585,-0.004665,0.026834,0.009329,0.370973,0.011676,-0.067257,-0.926131,7.659962,-1.620154,-136.450127
29297,1.494137,6.899136,1.858129,3.562050,-5.757335,-7.084044,-0.906943,6.204924,2.560463,0.014616,0.069262,0.017811,0.999427,-0.004534,0.031019,0.012800,0.384725,0.037842,-0.051696,-0.920805,7.144761,1.714129,-134.541278
29298,-2.531712,4.972923,3.589914,4.827996,-1.446154,-5.497171,-0.798301,6.868072,3.093943,-0.024836,0.049488,0.036560,0.999283,-0.003991,0.034332,0.015466,0.400589,0.067067,-0.035415,-0.913114,6.830693,5.399921,-132.302771
29299,-8.001857,3.048607,6.311548,6.377916,3.846336,-2.220140,-0.551825,7.150483,3.404527,-0.078202,0.029324,0.065852,0.999212,-0.002758,0.035743,0.017018,0.417235,0.097932,-0.019724,-0.903291,6.828357,9.233818,-129.863054
29300,-13.288380,0.318272,10.179535,6.202724,9.244350,2.687288,-0.183325,6.832723,3.487590,-0.129334,0.001002,0.106253,0.999264,-0.000916,0.034155,0.017434,0.433411,0.127966,-0.006391,-0.892042,7.208441,12.871291,-127.358891
29301,-17.145803,1.374344,14.937949,7.115816,10.748351,8.967037,0.193631,5.815483,3.333648,-0.167215,0.010785,0.154295,0.999438,0.000968,0.029072,0.016665,0.448067,0.154129,0.003185,-0.880608,7.920357,15.920817,-124.955367
29302,-17.948660,2.565455,17.144913,6.823044,10.003411,12.003799,-0.023381,4.110583,3.061561,-0.176278,0.022960,0.175092,0.999672,-0.000117,0.020551,0.015306,0.461322,0.172162,0.010090,-0.870310,8.542898,17.997738,-122.791541
29303,-11.301940,2.594460,15.101991,3.313356,4.797746,8.312416,-0.490717,2.549340,2.743475,-0.111428,0.024782,0.152385,0.999822,-0.002453,0.012746,0.013717,0.473442,0.182221,0.015712,-0.861627,8.860840,19.201431,-120.922961
29304,-3.126380,-1.304900,11.006801,-2.926772,0.950864,1.284645,-0.522671,1.996685,2.501709,-0.029999,-0.013141,0.110406,0.999869,-0.002613,0.009983,0.012508,0.484447,0.189757,0.020368,-0.853750,9.134299,20.105176,-119.233307
29305,-1.582147,-0.846288,10.677105,-3.312624,-0.684275,0.471894,0.093543,2.170472,2.509895,-0.014553,-0.008701,0.106930,0.999862,0.000468,0.010852,0.012549,0.494754,0.199468,0.022812,-0.845524,9.799617,21.092976,-117.503513
29306,-6.770219,4.308786,13.678969,2.086392,0.181143,5.907368,0.599424,1.832829,2.933477,-0.067062,0.041690,0.137533,0.999846,0.002997,0.009164,0.014667,0.506243,0.209000,0.021844,-0.836397,10.870051,21.822363,-115.528228
29307,-7.951581,8.065558,15.624375,4.820007,-0.997786,8.846335,0.470574,0.928120,3.771128,-0.080286,0.078778,0.156802,0.999809,0.002353,0.004640,0.018854,0.521294,0.214435,0.018251,-0.825795,12.033602,21.912303,-113.136768
29308,-8.101353,8.108282,15.471111,4.657472,-0.421209,8.864184,0.656493,-0.111526,5.000734,-0.083085,0.078514,0.154926,0.999682,0.003282,-0.000558,0.025001,0.541051,0.216074,0.009842,-0.812699,13.512065,21.214268,-110.151097
29309,-6.931830,10.920376,15.624164,6.456343,-1.908002,9.318976,0.469392,-0.833308,6.132864,-0.073266,0.106631,0.156194,0.999518,0.002347,-0.004166,0.030659,0.565212,0.214149,-0.000978,-0.796665,15.015565,19.883251,-106.644062
29310,-7.445659,6.565027,15.660007,2.413556,0.976810,8.543035,0.159860,-1.419835,6.779717,-0.077730,0.062927,0.156107,0.999400,0.000799,-0.007098,0.033892,0.591666,0.208791,-0.012930,-0.778570,16.321701,18.048146,-102.925345
29311,-9.919471,2.717338,16.688743,-1.342184,4.978914,9.098311,0.392457,-2.191851,6.976440,-0.101875,0.023324,0.165829,0.999330,0.001962,-0.010957,0.034874,0.617842,0.200826,-0.028243,-0.759699,17.596880,15.678270,-99.317438
29312,-10.322360,1.430036,16.939611,-3.110380,6.415004,8.751312,0.648245,-3.143622,6.897834,-0.106267,0.010124,0.167779,0.999277,0.003240,-0.015714,0.034481,0.642465,0.189782,-0.047364,-0.740930,18.781395,12.730796,-96.028555
29313,-6.806926,-1.397560,15.156477,-5.986069,4.524648,5.075069,0.790748,-4.005472,6.538640,-0.070566,-0.016851,0.150105,0.999257,0.003953,-0.020022,0.032685,0.664479,0.175796,-0.069355,-0.723016,19.778695,9.325134,-93.202448
29314,-2.895644,-3.020814,12.638936,-7.157676,1.711859,1.280836,1.169919,-4.523668,5.789349,-0.030897,-0.031820,0.125522,0.999308,0.005848,-0.022613,0.028940,0.682317,0.161218,-0.093689,-0.706877,20.746568,5.743229,-90.973540
29315,-3.204606,-1.588243,13.180510,-6.229302,2.394227,2.101478,1.176396,-4.629349,4.673938,-0.034688,-0.017445,0.130923,0.999442,0.005881,-0.023142,0.023365,0.695308,0.146595,-0.117384,-0.693741,21.532025,2.301757,-89.433003
29316,-3.147341,0.997556,14.214376,-4.366167,2.923845,3.799379,0.399212,-4.923990,3.260285,-0.035113,0.009140,0.141328,0.999562,0.001996,-0.024616,0.016299,0.703099,0.128941,-0.138257,-0.685500,21.772628,-1.010643,-88.742103
29317,-2.292669,1.176128,13.350200,-3.882110,2.782754,2.915650,-0.587614,-5.089948,1.862360,-0.026424,0.011917,0.132824,0.999629,-0.002938,-0.025447,0.009311,0.706054,0.108102,-0.155316,-0.682407,21.442790,-4.116513,-88.828276
29318,-1.563591,1.926168,11.521691,-2.385839,2.639084,1.421737,-1.351700,-5.276934,0.765997,-0.018741,0.019970,0.114616,0.999622,-0.006758,-0.026381,0.003829,0.705005,0.084706,-0.169717,-0.683366,20.738677,-7.096002,-89.514229
29319,0.972863,1.115466,9.020848,-2.086399,0.349254,-0.920533,-1.692667,-5.269033,0.109089,0.007343,0.011923,0.090324,0.999617,-0.008462,-0.026342,0.000545,0.701326,0.060620,-0.182521,-0.686406,19.920754,-9.950278,-90.519647
29320,3.976521,0.660709,7.078024,-1.791728,-2.519117,-2.277624,-1.664467,-4.991597,-0.185635,0.037990,0.007165,0.071685,0.999654,-0.008321,-0.024955,-0.000928,0.696369,0.037817,-0.194220,-0.689869,19.181845,-12.610346,-91.601928
29321,5.873902,2.167777,6.768986,-0.281479,-4.005908,-1.513121,-1.519398,-4.353588,-0.220083,0.057274,0.022134,0.068780,0.999734,-0.007596,-0.021766,-0.001100,0.691457,0.017721,-0.204079,-0.692766,18.542165,-14.931831,-92.559275
29322,3.728175,2.961284,8.376066,0.142907,-1.151012,-0.248635,-1.679498,-3.839283,-0.153687,0.035691,0.030291,0.084204,0.999780,-0.008397,-0.019195,-0.000768,0.686978,-0.001218,-0.211507,-0.695215,17.804201,-16.995451,-93.364099
29323,2.565437,0.382571,9.242850,-2.371302,0.472723,-0.522948,-1.854949,-3.641344,-0.214913,0.023971,0.004659,0.092835,0.999791,-0.009274,-0.018205,-0.001074,0.682200,-0.020012,-0.217560,-0.697761,16.986160,-18.951413,-94.147631
29324,1.775210,-1.257363,9.804908,-3.876770,1.726432,-0.710812,-1.976726,-3.634785,-0.670791,0.015925,-0.011657,0.098468,0.999780,-0.009883,-0.018173,-0.003354,0.675533,-0.038691,-0.223113,-0.701697,16.206394,-20.838701,-95.176093
29325,1.045654,-2.993217,10.145542,-5.373438,2.916972,-1.118900,-2.295237,-3.765844,-1.591716,0.008307,-0.028836,0.101960,0.999725,-0.011475,-0.018827,-0.007958,0.665093,-0.057861,-0.228063,-0.708724,15.481024,-22.667463,-96.759207
29326,1.321759,-4.037962,10.116233,-6.169094,3.145356,-1.303219,-2.678430,-3.893314,-2.872405,0.010670,-0.039183,0.101917,0.999618,-0.013390,-0.019464,-0.014360,0.649425,-0.077257,-0.232290,-0.719944,14.896182,-24.390394,-99.132729
29327,1.417412,-4.280280,9.550928,-6.042780,3.371048,-1.835372,-2.963941,-4.019844,-4.176052,0.011365,-0.041636,0.096379,0.999470,-0.014817,-0.020096,-0.020877,0.628213,-0.096452,-0.236201,-0.735020,14.567397,-26.011874,-102.341789
29328,2.367244,-3.303993,8.299649,-4.838330,2.399373,-2.315270,-3.127323,-4.049489,-5.352324,0.021107,-0.032320,0.083950,0.999315,-0.015633,-0.020243,-0.026756,0.601807,-0.114763,-0.239868,-0.753074,14.568795,-27.487753,-106.322363
29329,3.053783,-0.829110,7.224162,-2.337542,1.314946,-2.396684,-3.261059,-3.900110,-6.337975,0.028862,-0.008038,0.072948,0.999175,-0.016301,-0.019495,-0.031681,0.570880,-0.131557,-0.242801,-0.773199,14.885084,-28.728532,-110.952614
29330,3.634720,1.055350,5.356640,-0.553813,-0.319862,-3.285279,-3.299421,-3.620041,-6.943602,0.035730,0.010195,0.054047,0.999098,-0.016492,-0.018095,-0.034708,0.536948,-0.146420,-0.244745,-0.793945,15.447782,-29.691500,-115.976638
29331,5.851404,4.741301,3.601083,1.860056,-4.084141,-2.774631,-3.500292,-2.948159,-7.312503,0.059679,0.045876,0.036073,0.999070,-0.017496,-0.014736,-0.036551,0.501234,-0.158432,-0.243930,-0.814961,16.034314,-30.183006,-121.163826
29332,5.829942,2.979043,2.749117,-0.088317,-3.900472,-3.880744,-3.617604,-2.029402,-7.320234,0.059070,0.028136,0.027569,0.999115,-0.018083,-0.010144,-0.036590,0.465613,-0.166705,-0.239881,-0.835387,16.492907,-30.126428,-126.200185
29333,4.565413,4.105967,3.457333,1.233488,-3.164310,-3.639136,-2.842474,-1.230565,-6.576163,0.046770,0.040023,0.034285,0.999340,-0.014209,-0.006151,-0.032874,0.433972,-0.170466,-0.236236,-0.852527,17.063254,-29.715506,-130.602068
29334,3.934396,7.770927,4.281823,4.348485,-4.361130,-2.312360,-2.430427,-0.492103,-5.482625,0.041359,0.077107,0.041979,0.999547,-0.012150,-0.002460,-0.027409,0.407736,-0.171298,-0.231537,-0.866487,17.410576,-29.056152,-134.144639
29335,3.678044,6.792196,4.273645,3.436218,-3.923647,-2.691368,-2.425126,0.150927,-4.327221,0.038278,0.067616,0.041887,0.999692,-0.012124,0.000755,-0.021634,0.386936,-0.170531,-0.224397,-0.877978,17.304943,-28.235652,-136.816342
29336,4.420296,4.748995,3.311404,1.074567,-3.837054,-3.715538,-2.087233,0.744942,-3.186789,0.045077,0.047117,0.032454,0.999812,-0.010436,0.003724,-0.015933,0.371907,-0.167706,-0.216500,-0.886954,16.965291,-27.292343,-138.649948
29337,6.447653,5.010984,2.492954,-0.394827,-5.731217,-3.496963,-1.889375,1.460015,-2.364785,0.065242,0.049571,0.023985,0.999859,-0.009446,0.007300,-0.011823,0.361337,-0.162168,-0.207398,-0.894496,16.419682,-26.103760,-139.838232
29338,8.153050,3.600540,1.774746,-2.876480,-6.264054,-3.891120,-2.145899,2.384401,-1.931282,0.082075,0.035395,0.016389,0.999825,-0.010729,0.011921,-0.009656,0.353344,-0.153368,-0.195059,-0.901985,15.519573,-24.488988,-140.603236
29339,7.508803,0.193554,2.164964,-4.913305,-3.522030,-4.857341,-1.960520,3.221608,-1.556883,0.075437,0.001553,0.020420,0.999792,-0.009802,0.016107,-0.007784,0.347861,-0.140762,-0.181718,-0.908932,14.567112,-22.476916,-141.024494
29340,4.773859,1.196350,4.773299,-2.070493,-1.662524,-3.492250,-1.690281,3.753315,-1.329218,0.048702,0.012040,0.046723,0.999766,-0.008451,0.018765,-0.006646,0.343935,-0.125431,-0.168442,-0.915207,13.686244,-20.209669,-141.257915
29341,2.316419,0.582051,6.844831,-0.598885,0.796872,-2.632508,-1.786060,3.841041,-1.168277,0.024508,0.006288,0.067931,0.999759,-0.008930,0.019204,-0.005841,0.340593,-0.109923,-0.154394,-0.920910,12.718713,-17.916379,-141.419782
29342,0.029470,0.615304,7.731565,1.063209,2.193100,-2.450029,-1.318241,3.639439,-0.924741,0.001731,0.006657,0.077250,0.999802,-0.006591,0.018196,-0.004623,0.338328,-0.094704,-0.142644,-0.925321,11.988746,-15.770445,-141.498249
29343,-0.639613,3.640810,8.927316,3.479023,0.507162,-0.813199,-1.308154,3.352479,-0.654489,-0.004781,0.037009,0.089122,0.999833,-0.006540,0.016761,-0.003272,0.336986,-0.080935,-0.131244,-0.928797,11.238139,-13.815719,-141.482257
29344,0.121537,3.511064,7.392250,2.573490,-0.574883,-2.064877,-1.235900,3.156194,-0.275051,0.002428,0.035564,0.073672,0.999855,-0.006179,0.015780,-0.001375,0.337205,-0.068196,-0.120317,-0.931217,10.490830,-12.014187,-141.295113
29345,2.926935,5.446351,4.424633,1.444313,-4.726293,-4.035188,-1.106864,3.239504,0.252896,0.029908,0.054743,0.043463,0.999853,-0.005534,0.016197,0.001264,0.339876,-0.055134,-0.109634,-0.932430,9.768248,-10.214859,-140.821000
29346,7.430326,7.046303,0.993071,-1.057717,-9.693315,-6.533223,-1.072532,4.034785,0.922492,0.074152,0.070852,0.008054,0.999771,-0.005362,0.020172,0.004612,0.345988,-0.038667,-0.097539,-0.932354,9.013069,-8.024510,-139.914674
29347,5.547826,7.866285,1.754254,0.988676,-9.071603,-6.284312,-1.177348,5.245807,1.586728,0.055278,0.079198,0.015626,0.999607,-0.005886,0.026226,0.007933,0.355550,-0.017022,-0.082668,-0.930839,8.185605,-5.190951,-138.561281
29348,1.375617,5.343029,3.304793,2.429236,-4.342487,-5.738293,-1.243006,5.976761,2.070693,0.014173,0.053778,0.032295,0.999481,-0.006214,0.029879,0.010352,0.367338,0.007702,-0.066092,-0.927705,7.374881,-1.963669,-136.923007
29349,-1.235751,4.195524,4.834382,3.383410,-1.696175,-4.504915,-1.043247,6.397741,2.355426,-0.011303,0.042071,0.048497,0.999405,-0.005215,0.031982,0.011775,0.380168,0.034661,-0.049591,-0.922936,6.772834,1.505577,-135.136275
29350,-3.155835,3.573853,5.299784,4.074660,-0.027063,-3.964013,-0.724971,6.713549,2.554279,-0.030214,0.035541,0.053898,0.999349,-0.003624,0.033560,0.012769,0.393468,0.063571,-0.033951,-0.916509,6.471869,5.152677,-133.239699
29351,-7.595499,3.620304,7.138109,6.515811,3.025200,-1.439775,-0.362109,6.911419,2.782831,-0.073925,0.035297,0.073895,0.999305,-0.001810,0.034549,0.013911,0.407203,0.093995,-0.019592,-0.908277,6.517576,8.904668,-131.196257
29352,-12.506769,3.396249,10.574690,8.261020,6.469509,3.209750,-0.131635,6.547862,2.949138,-0.122001,0.032220,0.109754,0.999355,-0.000658,0.032732,0.014743,0.421007,0.123083,-0.007091,-0.898640,6.844582,12.429865,-129.048212
29353,-15.752541,3.095676,14.056235,8.338005,8.506546,7.887436,0.036073,5.644420,2.948902,-0.153909,0.028644,0.144946,0.999493,0.000180,0.028217,0.014742,0.434190,0.148338,0.002784,-0.888520,7.382711,15.427552,-126.912260
29354,-16.361429,3.806256,16.813188,7.584884,7.845149,11.299030,-0.040745,4.202637,2.755390,-0.160538,0.035871,0.171520,0.999684,-0.000204,0.021011,0.013775,0.446236,0.166899,0.009996,-0.879158,7.922199,17.600736,-124.949466
29355,-11.355641,2.941000,15.403438,3.905872,4.440105,8.622960,-0.331840,2.766720,2.455949,-0.111764,0.028287,0.155541,0.999828,-0.001659,0.013833,0.012279,0.457063,0.178402,0.015546,-0.871220,8.268031,18.969616,-123.251138
29356,-4.595660,0.929917,11.999275,-0.531039,0.732060,3.038152,-0.262801,2.070231,2.185018,-0.044811,0.008964,0.120449,0.999886,-0.001314,0.010351,0.010925,0.466573,0.186969,0.019428,-0.864277,8.620419,19.956968,-121.756510
29357,-1.381507,1.950256,10.361534,-0.952691,-2.216561,0.543463,0.057513,2.115003,2.065433,-0.012919,0.019336,0.103761,0.999891,0.000288,0.010575,0.010327,0.475158,0.196412,0.022150,-0.857413,9.161231,20.968935,-120.312729
29358,-4.131544,4.987947,12.155337,2.120674,-2.175628,3.621118,0.136937,2.173816,2.181483,-0.040531,0.049351,0.122031,0.999881,0.000685,0.010869,0.010907,0.484049,0.206273,0.024539,-0.850027,9.809183,21.989165,-118.770890
29359,-5.943016,6.323019,13.880603,3.301457,-1.893078,6.108538,-0.244977,1.759357,2.402127,-0.058962,0.062691,0.139249,0.999888,-0.001225,0.008796,0.012010,0.494212,0.213419,0.027329,-0.842295,10.300332,22.739125,-117.119333
29360,-4.312165,3.588317,13.121967,0.435118,-1.686982,4.351377,-0.512274,1.330722,2.700550,-0.042730,0.035641,0.131413,0.999883,-0.002561,0.006653,0.013502,0.505863,0.218102,0.029843,-0.834052,10.714682,23.204185,-115.319316
29361,-3.798934,2.821237,12.224895,-0.220588,-1.527104,3.204905,-0.245630,1.114322,3.068528,-0.037736,0.027782,0.122425,0.999866,-0.001228,0.005571,0.015342,0.518664,0.222547,0.030306,-0.824950,11.373063,23.491768,-113.310832
29362,-5.675089,4.471459,12.897606,1.525702,-0.833049,4.868010,0.046367,0.789987,3.628232,-0.057039,0.043652,0.129211,0.999828,0.000232,0.003950,0.018140,0.533341,0.226437,0.028072,-0.814547,12.328773,23.505073,-110.994373
29363,-9.241097,6.037646,14.709756,3.198780,1.305187,8.250175,0.390941,0.036748,4.560566,-0.093724,0.057961,0.147230,0.999738,0.001955,0.000184,0.022801,0.551297,0.228202,0.021378,-0.802209,13.648775,22.936007,-108.222903
29364,-10.544894,9.715604,15.485343,6.249186,1.435673,10.291934,0.286510,-1.080448,5.508525,-0.108902,0.093967,0.154407,0.999605,0.001432,-0.005402,0.027539,0.572932,0.225160,0.010907,-0.787993,15.005715,21.552130,-105.088027
29365,-7.754790,6.309327,13.817502,2.780704,1.369329,6.956655,-0.337826,-1.780005,6.026491,-0.080631,0.060927,0.137362,0.999505,-0.001689,-0.008899,0.030127,0.596838,0.217392,0.000322,-0.772351,15.962368,19.644918,-101.828442
29366,-6.163134,0.174799,11.927667,-2.778175,2.722833,3.037707,-0.015344,-2.172547,6.123921,-0.062937,-0.000157,0.118598,0.999472,-0.000077,-0.010861,0.030614,0.620159,0.208863,-0.012812,-0.756052,16.969773,17.453543,-98.655030
29367,-8.332180,-0.671228,13.621465,-4.172627,4.981361,4.787097,0.761223,-2.533446,5.950021,-0.084778,-0.009736,0.135114,0.999470,0.003805,-0.012665,0.029745,0.641335,0.201153,-0.029779,-0.739825,18.227218,15.036817,-95.731934
29368,-9.603492,1.474822,14.277387,-2.739558,6.271148,6.040993,1.084085,-3.335746,5.648489,-0.098749,0.011216,0.141209,0.999447,0.005419,-0.016676,0.028237,0.660255,0.191352,-0.050197,-0.724520,19.445681,12.180431,-93.219468
29369,-5.381365,-0.987262,12.018557,-4.910203,3.462422,1.945132,1.185464,-3.999328,5.265326,-0.055904,-0.012034,0.119014,0.999436,0.005926,-0.019993,0.026322,0.676788,0.179350,-0.072730,-0.710283,20.511189,8.994135,-91.136106
29370,-1.947679,-0.747707,10.298273,-4.391350,0.747395,-0.297098,1.421280,-4.113703,4.622912,-0.021397,-0.008687,0.102497,0.999496,0.007105,-0.020565,0.023111,0.690061,0.167795,-0.095846,-0.697477,21.542188,5.842110,-89.500068
29371,-3.077911,0.929255,11.217763,-3.375578,2.192113,1.139383,1.288186,-4.130616,3.799241,-0.033247,0.007957,0.111562,0.999586,0.006440,-0.020650,0.018994,0.699936,0.155949,-0.117767,-0.686950,22.369229,2.831606,-88.367146
29372,-3.943839,2.620896,12.343216,-2.440418,3.573476,2.677893,0.687474,-4.443900,2.926356,-0.042542,0.025179,0.122598,0.999640,0.003437,-0.022217,0.014630,0.706551,0.141329,-0.137956,-0.679544,22.780909,-0.164300,-87.800633
29373,-3.364326,2.316433,12.220344,-2.735202,3.612445,2.247750,-0.039132,-4.803033,2.067753,-0.036802,0.022819,0.121340,0.999658,-0.000196,-0.024012,0.010338,0.710022,0.123404,-0.156235,-0.675449,22.760882,-3.161757,-87.777618
29374,-2.196247,2.250651,11.025995,-2.264466,3.005509,1.016455,-0.642374,-5.067184,1.304178,-0.024892,0.022703,0.109581,0.999653,-0.003211,-0.025333,0.006520,0.710587,0.102969,-0.172837,-0.674233,22.431816,-6.129873,-88.209047
29375,-0.845987,3.184234,10.251581,-0.961342,2.224740,0.677739,-1.315810,-5.162131,0.671353,-0.011206,0.032480,0.102038,0.999640,-0.006578,-0.025808,0.003356,0.708784,0.080283,-0.187058,-0.675418,21.782000,-9.016409,-88.976604
29376,1.219614,0.992008,8.861325,-2.298817,0.333941,-1.119091,-1.951277,-5.116876,0.126053,0.009919,0.010793,0.088784,0.999625,-0.009755,-0.025581,0.000630,0.704913,0.055962,-0.198612,-0.678616,20.851606,-11.774109,-89.996086
29377,2.448608,-1.624154,7.593011,-4.178146,-0.863844,-2.879514,-1.985554,-4.878537,-0.263406,0.022601,-0.015513,0.076653,0.999652,-0.009927,-0.024390,-0.001317,0.699458,0.032663,-0.208960,-0.682662,19.976773,-14.342792,-91.146334
29378,2.923479,-0.078717,7.647170,-2.668757,-0.816988,-2.116602,-1.757072,-4.523998,-0.528764,0.027494,-0.000186,0.077110,0.999702,-0.008784,-0.022618,-0.002644,0.692979,0.011637,-0.218664,-0.686899,19.295358,-16.682751,-92.350715
29379,1.003910,1.152961,9.197763,-1.788939,1.909074,-0.864168,-2.093216,-4.284553,-0.857528,0.008120,0.012455,0.092038,0.999707,-0.010465,-0.021421,-0.004287,0.685242,-0.009388,-0.226242,-0.692221,18.503999,-18.847929,-93.678067
29380,0.502468,-1.888491,9.465483,-4.527656,2.752125,-1.730605,-2.494986,-4.261998,-1.530372,0.002865,-0.017729,0.094957,0.999666,-0.012474,-0.021308,-0.007651,0.674754,-0.030936,-0.232232,-0.699870,17.653878,-20.897742,-95.374319
29381,0.789205,-4.318530,9.232731,-6.585119,2.839285,-2.528306,-2.777074,-4.278681,-2.686792,0.005337,-0.041980,0.093048,0.999585,-0.013883,-0.021390,-0.013432,0.659649,-0.052135,-0.237305,-0.711218,16.948530,-22.782597,-97.747434
29382,0.083123,-5.321965,9.605827,-7.270708,4.232453,-2.756932,-2.923754,-4.320562,-4.038621,-0.002310,-0.051783,0.096795,0.999456,-0.014616,-0.021599,-0.020189,0.639022,-0.072309,-0.242102,-0.726505,16.558589,-24.486674,-100.948562
29383,0.613545,-4.146262,8.948719,-5.772233,3.996162,-2.861301,-2.984565,-4.414155,-5.245458,0.003084,-0.040228,0.090184,0.999301,-0.014919,-0.022066,-0.026221,0.613078,-0.091469,-0.247128,-0.744779,16.553813,-26.057075,-104.935631
29384,2.037132,-0.929371,7.768862,-2.558954,2.268931,-2.487578,-3.186052,-4.335149,-6.206673,0.018404,-0.008642,0.078243,0.999157,-0.015926,-0.021670,-0.031025,0.582625,-0.109624,-0.251193,-0.765136,16.805807,-27.416590,-109.551190
29385,3.988624,1.616681,5.876088,-0.407329,-0.558686,-2.562123,-3.546285,-3.965318,-6.955065,0.039269,0.015842,0.059261,0.999042,-0.017726,-0.019820,-0.034764,0.548519,-0.126276,-0.252787,-0.786944,17.150889,-28.428439,-114.620138
29386,6.008673,3.020255,3.343766,0.165167,-3.801994,-3.338563,-3.787936,-3.298154,-7.415327,0.060611,0.028600,0.033883,0.998998,-0.018933,-0.016485,-0.037064,0.512226,-0.140140,-0.251367,-0.809197,17.510915,-28.967653,-119.888387
29387,8.028168,4.073787,1.517129,-0.184995,-6.665275,-3.579050,-3.624733,-2.260224,-7.433475,0.081555,0.037999,0.015383,0.999081,-0.018118,-0.011298,-0.037156,0.476283,-0.149094,-0.247508,-0.830461,17.900692,-28.907803,-124.979405
29388,6.336833,5.884578,2.301258,1.688630,-5.846790,-3.253696,-3.136946,-1.218438,-6.730668,0.065170,0.057028,0.022502,0.999292,-0.015681,-0.006091,-0.033645,0.444141,-0.153199,-0.242245,-0.848873,18.226245,-28.377236,-129.406533
29389,6.620305,8.852636,2.036806,3.454378,-7.848326,-2.547303,-2.655906,-0.303986,-5.528424,0.068591,0.086913,0.019310,0.999529,-0.013277,-0.001520,-0.027638,0.418041,-0.153622,-0.235808,-0.863734,18.335609,-27.550561,-132.878329
29390,9.048937,9.297976,1.001719,1.715473,-10.475829,-2.288143,-2.733063,0.858265,-4.338930,0.092518,0.091109,0.008369,0.999662,-0.013664,0.004291,-0.021692,0.398055,-0.150476,-0.225492,-0.876392,17.895422,-26.312635,-135.360517
29391,8.116648,4.992558,0.864758,-1.437114,-7.628351,-4.219603,-2.393788,2.076018,-3.087830,0.082005,0.048756,0.007211,0.999755,-0.011968,0.010379,-0.015438,0.384940,-0.142632,-0.213178,-0.886585,17.162043,-24.647324,-136.836955
29392,5.088718,5.041961,3.236780,0.569508,-4.779145,-3.598154,-1.888199,2.846186,-2.072152,0.051857,0.050184,0.031160,0.999801,-0.009440,0.014230,-0.010360,0.377341,-0.131436,-0.200804,-0.894436,16.376706,-22.747193,-137.568602
29393,3.833639,4.833828,5.734831,1.307417,-2.978003,-2.043362,-2.103910,3.329899,-1.622502,0.039672,0.048615,0.056185,0.999773,-0.010519,0.016648,-0.008112,0.371932,-0.118863,-0.186172,-0.901597,15.324343,-20.659928,-137.974586
29394,0.661708,-0.988929,7.479162,-0.625363,3.276620,-3.014194,-2.282744,3.371403,-1.427701,0.007811,-0.009089,0.074773,0.999767,-0.011413,0.016856,-0.007138,0.367165,-0.106581,-0.170463,-0.908170,14.127790,-18.588094,-138.297368
29395,0.228127,-1.572927,8.058294,-0.754685,3.932734,-2.641843,-1.468731,3.008124,-1.221410,0.003400,-0.015156,0.080650,0.999841,-0.007343,0.015040,-0.006107,0.363314,-0.094569,-0.158932,-0.913127,13.376553,-16.749734,-138.584931
29396,1.383756,1.813566,8.327975,0.676440,0.745087,-1.237166,-1.262477,2.896139,-1.075197,0.015139,0.018581,0.082950,0.999861,-0.006312,0.014480,-0.005376,0.360033,-0.082799,-0.148432,-0.917327,12.720924,-14.998226,-138.823201
29397,0.864299,2.266134,7.402169,1.199632,0.217504,-2.119654,-1.212244,2.865488,-0.896080,0.009804,0.023067,0.073748,0.999869,-0.006061,0.014327,-0.004480,0.357473,-0.071173,-0.138102,-0.920910,12.067923,-13.286700,-138.980956
29398,1.470944,2.987711,6.065532,1.089919,-1.292950,-3.103202,-1.133455,2.909054,-0.595531,0.015677,0.030174,0.060262,0.999874,-0.005667,0.014545,-0.002978,0.356264,-0.059411,-0.127916,-0.923679,11.420756,-11.589396,-138.979440
29399,4.326726,5.060913,3.155166,0.233398,-5.583498,-5.011186,-0.983093,3.263841,-0.190777,0.043820,0.050719,0.030590,0.999854,-0.004915,0.016318,-0.000954,0.357098,-0.045969,-0.117636,-0.925489,10.813535,-9.735662,-138.725630
29400,5.990993,6.526338,1.179117,-0.046645,-8.337987,-6.596629,-0.960342,4.128960,0.417460,0.059996,0.065440,0.010239,0.999773,-0.004801,0.020643,0.002087,0.361129,-0.028841,-0.105740,-0.926052,10.166220,-7.457411,-138.056048
29401,3.561134,7.455982,2.267593,2.367871,-7.271095,-5.948228,-0.950911,5.055202,1.128156,0.035742,0.074865,0.021418,0.999653,-0.004754,0.025273,0.005640,0.368734,-0.007752,-0.092047,-0.924934,9.504041,-4.716270,-136.921957
29402,0.540770,6.511421,3.879655,3.832093,-4.377511,-4.924613,-1.059266,5.617700,1.732312,0.005923,0.065368,0.038289,0.999554,-0.005296,0.028084,0.008660,0.379096,0.015447,-0.076738,-0.922041,8.817608,-1.701767,-135.431327
29403,-0.701743,5.016049,4.230205,3.587024,-2.536391,-4.888670,-1.044234,6.006670,2.152500,-0.006289,0.050311,0.042236,0.999477,-0.005220,0.030028,0.010761,0.391175,0.040309,-0.060701,-0.917427,8.219386,1.516914,-133.705848
29404,-2.962774,3.414053,4.848191,3.792616,0.115606,-4.378086,-0.909586,6.434089,2.444242,-0.028467,0.034011,0.049255,0.999398,-0.004547,0.032164,0.012219,0.404258,0.067244,-0.044462,-0.911086,7.810374,4.966977,-131.806033
29405,-7.284236,2.451211,6.774947,5.332229,3.858205,-1.963016,-0.610312,6.649205,2.671657,-0.070859,0.023768,0.070054,0.999354,-0.003051,0.033239,0.013355,0.417818,0.095645,-0.029147,-0.903012,7.703648,8.533082,-129.765007
29406,-11.723353,1.362677,9.659037,6.167914,7.618541,1.867434,-0.373209,6.364258,2.743202,-0.114256,0.012231,0.100235,0.999398,-0.001866,0.031815,0.013713,0.431029,0.123116,-0.015520,-0.893765,7.864482,11.928646,-127.684580
29407,-15.225232,1.118320,13.328591,6.388326,9.847685,6.704193,-0.087696,5.562643,2.659617,-0.148599,0.009250,0.137449,0.999525,-0.000438,0.027809,0.013296,0.443164,0.147505,-0.004803,-0.884209,8.282553,14.868017,-125.677552
29408,-16.120525,2.340278,16.323276,6.193214,9.055819,10.469215,-0.209105,4.130445,2.345347,-0.158050,0.021710,0.166495,0.999717,-0.001045,0.020650,0.011726,0.453631,0.165196,0.003497,-0.875738,8.645784,17.008226,-123.936621
29409,-10.772287,1.268417,14.087405,2.529492,5.483437,6.909155,-0.410027,2.714622,2.019775,-0.105921,0.011899,0.142295,0.999855,-0.002050,0.013572,0.010098,0.462670,0.176152,0.009750,-0.868799,8.852941,18.367085,-122.491758
29410,-3.624537,-0.151971,10.409022,-1.447492,1.028957,1.066168,-0.320575,2.092605,1.822818,-0.035139,-0.001676,0.104464,0.999902,-0.001603,0.010463,0.009114,0.470693,0.184576,0.014337,-0.862655,9.089632,19.387071,-121.207450
29411,-1.054314,1.640609,8.691279,-0.848392,-1.849154,-1.140894,0.084592,2.232668,1.817458,-0.009720,0.016278,0.087031,0.999896,0.000423,0.011163,0.009087,0.478216,0.194506,0.017518,-0.856254,9.587717,20.478006,-119.897704
29412,-3.929229,5.067544,10.431192,2.633784,-1.857756,1.999902,0.082583,2.383858,1.957381,-0.038538,0.050253,0.104795,0.999881,0.000413,0.011919,0.009787,0.486220,0.205060,0.020919,-0.849178,10.153955,21.629752,-118.466478
29413,-6.680735,6.326303,12.538830,4.049254,-0.858938,5.178631,-0.485027,2.043851,2.092028,-0.066181,0.062874,0.125914,0.999890,-0.002425,0.010219,0.010460,0.495302,0.212745,0.025771,-0.841873,10.441396,22.565368,-116.971872
29414,-5.336229,3.204830,11.846375,0.963628,-0.297210,3.531399,-0.898302,1.555004,2.234615,-0.052797,0.031989,0.118732,0.999897,-0.004491,0.007775,0.011173,0.505384,0.217338,0.030979,-0.834501,10.530649,23.206769,-115.432694
29415,-3.681644,2.133794,10.960229,-0.387263,-0.994714,1.896022,-0.611523,1.350731,2.616983,-0.036353,0.021196,0.109784,0.999887,-0.003058,0.006753,0.013084,0.516672,0.221800,0.034067,-0.826253,10.883034,23.686362,-113.674264
29416,-5.148485,4.265177,11.729753,1.638122,-0.977111,3.553140,-0.164987,1.142751,3.370596,-0.051524,0.041881,0.117557,0.999841,-0.000825,0.005713,0.016852,0.530474,0.226640,0.033912,-0.816138,11.685262,23.948717,-111.467335
29417,-7.171169,7.475067,13.436425,4.393037,-0.968234,6.545522,-0.013669,0.647578,4.294882,-0.072859,0.073203,0.134594,0.999764,-0.000068,0.003238,0.021473,0.547750,0.229913,0.030782,-0.803842,12.777852,23.787733,-108.755790
29418,-8.201132,7.818196,14.423891,4.458178,-0.107323,7.978337,-0.328786,-0.010775,5.009973,-0.083947,0.076332,0.144108,0.999685,-0.001644,-0.000054,0.025047,0.568063,0.229678,0.026255,-0.789850,13.805885,23.119605,-105.715288
29419,-8.076637,4.745400,14.592980,1.361287,1.286491,7.426135,-0.543819,-0.646296,5.324882,-0.082469,0.045669,0.145539,0.999637,-0.002719,-0.003231,0.026621,0.589565,0.226191,0.020414,-0.775135,14.686790,22.007520,-102.616072
29420,-9.934008,1.543686,15.595001,-1.834077,4.096239,8.190058,-0.259674,-1.413444,5.371968,-0.100809,0.012944,0.155223,0.999613,-0.001298,-0.007066,0.026856,0.610564,0.220425,0.011118,-0.760592,15.614684,20.419027,-99.659461
29421,-8.460095,0.053211,15.222219,-3.695030,3.701320,6.797674,0.354916,-2.330160,5.294795,-0.086336,-0.002007,0.151221,0.999580,0.001774,-0.011649,0.026470,0.630152,0.212846,-0.003213,-0.746723,16.712934,18.289835,-96.969524
29422,-7.145076,1.198737,14.960154,-3.053179,2.864650,6.272061,1.021643,-3.015969,5.157826,-0.073960,0.009341,0.148551,0.999541,0.005107,-0.015078,0.025785,0.647951,0.204642,-0.022063,-0.733344,18.009420,15.756851,-94.562702
29423,-6.055282,3.008179,15.022517,-1.810569,2.227026,6.407389,1.123955,-3.693437,4.991633,-0.064026,0.027672,0.149224,0.999502,0.005619,-0.018464,0.024954,0.664344,0.194089,-0.043273,-0.720489,19.174650,12.837174,-92.466092
29424,-2.892825,1.566109,13.663259,-3.120290,0.306254,3.885255,1.100998,-4.161767,4.719646,-0.032110,0.014178,0.136067,0.999490,0.005504,-0.020805,0.023594,0.679005,0.181655,-0.065661,-0.708267,20.157868,9.680373,-90.692064
29425,-1.974109,0.560206,13.216607,-4.127350,0.189975,2.906674,1.171495,-4.436501,4.292194,-0.022769,0.004363,0.131711,0.999507,0.005857,-0.022179,0.021457,0.691320,0.168426,-0.088766,-0.697015,21.031142,6.434078,-89.274511
29426,-0.865206,0.605021,12.437059,-3.976487,-0.211140,2.015449,1.198126,-4.680273,3.642919,-0.011658,0.005112,0.124154,0.999542,0.005990,-0.023398,0.018212,0.700581,0.154583,-0.112183,-0.687536,21.803525,3.174413,-88.311538
29427,-1.310658,4.034286,13.683245,-1.422335,0.863947,4.414211,0.750979,-4.764240,2.791470,-0.016919,0.039611,0.136609,0.999612,0.003754,-0.023818,0.013956,0.706624,0.139216,-0.133597,-0.680774,22.249751,0.042590,-87.856747
29428,-3.199521,4.457121,13.597284,-1.127189,3.535512,4.370604,-0.376136,-5.081587,1.908346,-0.035859,0.044496,0.135011,0.999630,-0.001880,-0.025405,0.009541,0.709695,0.119283,-0.151584,-0.677589,22.041047,-3.067233,-87.945909
29429,-0.954909,1.901185,11.785075,-2.650326,1.803033,1.724324,-1.213993,-5.297569,1.078972,-0.012768,0.019662,0.117423,0.999616,-0.006069,-0.026484,0.005394,0.709760,0.096173,-0.166886,-0.677599,21.392808,-6.117374,-88.500646
29430,0.174551,-0.374383,9.857158,-3.899909,0.951758,-0.801904,-1.557700,-5.325712,0.364107,-0.000874,-0.002976,0.098597,0.999613,-0.007787,-0.026625,0.001820,0.706995,0.072283,-0.180651,-0.679926,20.624485,-9.041202,-89.412097
29431,2.657871,-2.088962,8.083034,-4.760089,-1.376321,-2.588253,-1.559623,-5.145746,-0.225230,0.024462,-0.020283,0.081638,0.999638,-0.007797,-0.025726,-0.001126,0.701863,0.049462,-0.193425,-0.683761,19.944429,-11.763626,-90.578505
29432,2.926632,0.142132,8.699428,-2.817174,-0.940687,-1.127791,-1.392796,-4.758342,-0.662947,0.027192,0.001938,0.087645,0.999687,-0.006963,-0.023789,-0.003314,0.695093,0.028949,-0.205165,-0.688415,19.444817,-14.203100,-91.892603
29433,0.422669,1.477553,9.953744,-1.762332,2.295587,-0.166748,-1.749785,-4.653466,-1.014166,0.001989,0.015632,0.099467,0.999678,-0.008748,-0.023265,-0.005070,0.686832,0.007890,-0.215137,-0.694202,18.837518,-16.533231,-93.372775
29434,0.765517,-0.129301,9.681185,-3.025608,2.275532,-0.869829,-2.255701,-4.692526,-1.581591,0.005376,-0.000248,0.096963,0.999630,-0.011277,-0.023460,-0.007907,0.676105,-0.014430,-0.223306,-0.702003,18.093889,-18.797075,-95.172597
29435,1.515768,-2.568095,8.942368,-5.002499,1.760902,-2.021090,-2.667221,-4.600066,-2.539128,0.012773,-0.024655,0.090069,0.999566,-0.013334,-0.022997,-0.012694,0.661546,-0.036742,-0.229617,-0.712939,17.359234,-20.866694,-97.502982
29436,1.171596,-4.610288,9.062032,-6.729258,2.706164,-2.594114,-2.787058,-4.480362,-3.627294,0.008850,-0.045010,0.091472,0.999488,-0.013933,-0.022398,-0.018133,0.642602,-0.057737,-0.235070,-0.726961,16.861386,-22.709438,-100.459055
29437,0.761209,-4.594758,8.237357,-6.216268,3.314929,-3.497490,-2.655782,-4.494563,-4.551237,0.004719,-0.044976,0.083103,0.999400,-0.013276,-0.022468,-0.022752,0.619602,-0.077214,-0.241068,-0.742979,16.758212,-24.422902,-103.999239
29438,2.654973,-0.940116,7.339456,-2.774129,1.281655,-2.570524,-2.808495,-4.258666,-5.421198,0.024729,-0.009051,0.074063,0.999307,-0.014039,-0.021288,-0.027100,0.592804,-0.095142,-0.245764,-0.761007,16.877651,-25.860839,-108.066390
29439,3.007819,0.017520,6.399627,-1.720454,0.668846,-2.987070,-3.278704,-3.836751,-6.187990,0.028852,0.000325,0.064553,0.999203,-0.016389,-0.019179,-0.030932,0.562493,-0.111772,-0.247446,-0.780948,17.005575,-26.933043,-112.572437
29440,3.205092,0.252497,4.797851,-1.358579,-0.151869,-4.201612,-3.515931,-3.384795,-6.734574,0.031313,0.002311,0.048471,0.999135,-0.017575,-0.016919,-0.033663,0.529550,-0.126450,-0.246795,-0.801673,17.189532,-27.653487,-117.366670
29441,6.040064,2.727117,3.123505,-0.324149,-3.936325,-3.642881,-3.560502,-2.578957,-7.054726,0.060920,0.025688,0.031552,0.999136,-0.017797,-0.012891,-0.035263,0.495364,-0.137396,-0.243639,-0.822421,17.417328,-27.863997,-122.229024
29442,5.166309,2.666431,2.956463,-0.272603,-3.316985,-4.203965,-3.447993,-1.641320,-6.854409,0.052305,0.025388,0.029547,0.999231,-0.017236,-0.008204,-0.034263,0.462421,-0.144242,-0.238060,-0.841837,17.559966,-27.582413,-126.782298
29443,4.728123,5.353827,3.415682,1.942080,-4.084239,-3.314918,-3.059632,-0.760022,-6.123286,0.048773,0.052576,0.033531,0.999407,-0.015295,-0.003799,-0.030610,0.433240,-0.147143,-0.231254,-0.858588,17.603240,-26.939363,-130.697270
29444,5.623526,4.974497,2.437450,0.733414,-5.162672,-3.887412,-2.822416,0.109308,-5.011870,0.057477,0.048652,0.023652,0.999586,-0.014110,0.000546,-0.025056,0.409579,-0.146952,-0.222512,-0.872432,17.342909,-26.019987,-133.739212
29445,5.647234,5.230689,1.946121,0.574958,-5.703484,-4.320036,-2.383132,1.093932,-3.782115,0.057554,0.051450,0.018532,0.999735,-0.011915,0.005469,-0.018909,0.392413,-0.142820,-0.212635,-0.883403,16.878373,-24.785136,-135.832281
29446,6.334992,5.526104,1.885767,0.076104,-6.495684,-4.154435,-2.404711,2.063644,-2.852320,0.064317,0.054564,0.017538,0.999773,-0.012023,0.010317,-0.014261,0.380181,-0.135385,-0.199982,-0.892827,16.051461,-23.191766,-137.184222
29447,5.282935,2.804165,2.770616,-1.335163,-3.875307,-4.651081,-2.420493,2.997869,-2.196467,0.053539,0.027782,0.026570,0.999754,-0.012101,0.014988,-0.010981,0.371614,-0.124382,-0.184955,-0.901235,14.976535,-21.202082,-138.002017
29448,1.710880,0.461087,5.123320,-0.448805,0.715713,-4.458173,-2.070006,3.388925,-1.612737,0.018012,0.004996,0.050883,0.999770,-0.010349,0.016943,-0.008063,0.366085,-0.111472,-0.170328,-0.908044,13.944033,-19.095961,-138.442277
29449,0.538826,2.640224,7.786343,2.021910,0.773436,-1.863308,-1.898692,3.364821,-1.240619,0.006861,0.027100,0.077501,0.999794,-0.009493,0.016823,-0.006203,0.362157,-0.098600,-0.156243,-0.913624,12.939793,-17.057794,-138.702251
29450,-0.217396,0.720071,8.059505,1.155492,2.381441,-2.163673,-1.897578,3.118056,-0.883012,-0.000884,0.007971,0.080542,0.999824,-0.009487,0.015589,-0.004415,0.359536,-0.087120,-0.142371,-0.918082,11.887268,-15.209031,-138.820422
29451,-0.134140,1.425398,8.079119,1.493129,1.580338,-1.901379,-1.536813,2.883926,-0.637642,-0.000131,0.014876,0.080686,0.999861,-0.007684,0.014419,-0.003188,0.357914,-0.076189,-0.130428,-0.921456,11.018414,-13.519305,-138.855375
29452,-0.413350,1.758834,8.258385,1.845820,1.328962,-1.671052,-1.551389,2.682064,-0.512580,-0.002981,0.018237,0.082489,0.999877,-0.007757,0.013410,-0.002563,0.356642,-0.066296,-0.118692,-0.924296,10.133565,-11.959166,-138.865715
29453,0.066430,1.935873,7.253902,1.493758,0.407759,-2.466264,-1.231877,2.470348,-0.337907,0.001592,0.019803,0.072402,0.999903,-0.006159,0.012351,-0.001689,0.356075,-0.056880,-0.108730,-0.926365,9.421682,-10.533830,-138.819067
29454,2.899139,4.504698,5.263941,0.994658,-3.937902,-3.495500,-1.075958,2.556410,-0.103916,0.029682,0.045313,0.052020,0.999904,-0.005380,0.012782,-0.000520,0.356618,-0.046922,-0.099245,-0.927778,8.777759,-9.082194,-138.647172
29455,5.167149,6.146482,2.831395,0.327343,-7.280225,-5.410216,-1.078324,3.114158,0.261696,0.052020,0.061681,0.027174,0.999863,-0.005391,0.015570,0.001308,0.359047,-0.034534,-0.088651,-0.928458,8.104277,-7.341721,-138.236512
29456,5.643009,7.586042,1.974037,0.950366,-8.921973,-6.238436,-1.058314,4.036153,0.871069,0.056476,0.076205,0.018198,0.999773,-0.005291,0.020179,0.004355,0.364588,-0.018108,-0.076363,-0.927856,7.412933,-5.122533,-137.428716
29457,2.656481,8.598592,2.896673,3.854510,-7.597102,-5.713207,-1.030948,4.909092,1.578655,0.026577,0.086341,0.027870,0.999654,-0.005154,0.024543,0.007892,0.373538,0.002176,-0.062499,-0.925505,6.743120,-2.445183,-136.185637
29458,-0.191664,7.387133,4.051115,5.033913,-4.711477,-4.967189,-1.111201,5.483853,2.214925,-0.001632,0.074076,0.040147,0.999547,-0.005555,0.027415,0.011073,0.385315,0.024747,-0.047168,-0.921246,6.083741,0.529782,-134.577215
29459,-2.577167,6.229465,4.705512,5.780226,-2.228664,-4.408047,-1.006580,5.903334,2.633237,-0.025193,0.062199,0.047491,0.999465,-0.005032,0.029511,0.013164,0.398724,0.049349,-0.031496,-0.915200,5.578513,3.738985,-132.735271
29460,-4.422751,3.420183,5.003054,4.783576,0.957884,-4.113638,-0.834104,6.273478,2.915902,-0.043127,0.033780,0.051254,0.999393,-0.004170,0.031361,0.014577,0.412990,0.075871,-0.015940,-0.907430,5.296772,7.153542,-130.726196
29461,-8.779860,2.408647,7.359807,6.108067,4.682321,-0.993526,-0.350605,6.432221,3.087707,-0.085732,0.022884,0.076337,0.999362,-0.001753,0.032154,0.015435,0.427350,0.104018,-0.002264,-0.898080,5.428370,10.655203,-128.598697
29462,-12.350661,1.806546,10.965806,6.480310,7.257524,3.651899,-0.005329,6.071912,3.126017,-0.120365,0.016171,0.113344,0.999417,-0.000027,0.030354,0.015627,0.441181,0.131154,0.009046,-0.887737,5.893959,13.936251,-126.426811
29463,-15.783936,2.296159,14.958823,7.040517,8.776499,8.934522,0.240281,5.118944,3.040994,-0.154265,0.020415,0.153593,0.999556,0.001201,0.025591,0.015203,0.454063,0.154470,0.017240,-0.877308,6.594930,16.659982,-124.304419
29464,-14.835439,4.261324,16.820046,6.756023,6.254475,11.076086,0.081303,3.621024,2.838847,-0.145861,0.040462,0.170873,0.999735,0.000406,0.018104,0.014193,0.465992,0.170743,0.022854,-0.867857,7.237777,18.521462,-122.351613
29465,-8.799527,2.658379,14.705678,2.412229,2.544457,7.171107,-0.244286,2.388166,2.627308,-0.086572,0.025621,0.148065,0.999842,-0.001221,0.011940,0.013136,0.477225,0.180798,0.027201,-0.859551,7.678028,19.680380,-120.588056
29466,-2.055835,0.505637,11.216289,-1.860453,-1.150808,1.389883,-0.162121,2.015166,2.465132,-0.019488,0.004903,0.112359,0.999873,-0.000811,0.010075,0.012325,0.487602,0.189398,0.030424,-0.851732,8.162320,20.628244,-118.931361
29467,-1.463298,1.800928,10.809901,-1.071255,-2.360643,0.935085,0.424359,2.189904,2.605257,-0.013679,0.017597,0.108290,0.999853,0.002122,0.010949,0.013026,0.497860,0.200117,0.031454,-0.843267,9.050297,21.643093,-117.151779
29468,-4.778639,6.037512,13.183463,2.996511,-2.403029,4.963318,0.649471,2.060075,3.054717,-0.047334,0.059220,0.132517,0.999825,0.003247,0.010300,0.015273,0.509651,0.210875,0.030731,-0.833573,10.207655,22.512357,-115.079593
29469,-6.174318,8.721119,14.540946,5.168058,-2.789267,7.249622,0.293928,1.496535,3.650607,-0.062228,0.085864,0.146001,0.999804,0.001470,0.007482,0.018252,0.524196,0.218371,0.029435,-0.822597,11.305877,22.962113,-112.682206
29470,-5.640008,6.659269,14.270543,3.053119,-2.042386,6.506131,0.011806,0.933209,4.315200,-0.057152,0.065356,0.142975,0.999756,0.000059,0.004666,0.021574,0.541639,0.222836,0.027053,-0.810086,12.391208,22.975626,-109.937425
29471,-6.206606,4.893094,14.312928,1.431025,-0.590953,6.463555,0.104101,0.460310,4.906796,-0.062911,0.047320,0.143298,0.999696,0.000520,0.002301,0.024531,0.561140,0.225571,0.022374,-0.796077,13.628178,22.597451,-106.906159
29472,-8.002805,4.092410,15.491995,0.499651,1.268467,8.045506,0.151836,-0.137173,5.231498,-0.081166,0.038693,0.154894,0.999657,0.000759,-0.000686,0.026155,0.581587,0.225976,0.015411,-0.781316,14.899322,21.779948,-103.792243
29473,-9.882390,2.458431,16.137946,-1.176683,3.715020,8.866722,0.145271,-0.969048,5.300488,-0.100207,0.021824,0.160913,0.999637,0.000726,-0.004845,0.026499,0.601962,0.222934,0.006003,-0.766750,16.056881,20.432078,-100.818152
29474,-8.871503,-0.284185,15.306791,-4.021729,4.206474,6.896071,0.366736,-1.810472,5.282909,-0.089974,-0.005487,0.152249,0.999609,0.001833,-0.009051,0.026411,0.621595,0.217189,-0.006805,-0.752597,17.196011,18.569279,-98.059200
29475,-8.006581,-0.065824,14.885584,-4.196004,3.915430,6.084276,0.936898,-2.425787,5.231374,-0.081797,-0.003477,0.147859,0.999573,0.004684,-0.012127,0.026153,0.639885,0.210700,-0.023576,-0.738645,18.497779,16.325480,-95.519459
29476,-8.067095,2.325722,15.071824,-2.444834,4.101047,6.764083,1.185690,-3.059775,5.169845,-0.083515,0.020234,0.149581,0.999531,0.005928,-0.015296,0.025845,0.657036,0.202506,-0.043230,-0.724863,19.779557,13.696023,-93.221015
29477,-6.087615,2.035369,14.435820,-2.981071,3.051562,5.397263,0.974681,-3.674088,5.001245,-0.063986,0.018079,0.143293,0.999507,0.004873,-0.018367,0.025002,0.673026,0.191213,-0.063903,-0.711610,20.764359,10.726549,-91.221549
29478,-5.060295,-0.294838,14.017261,-5.329052,2.975436,3.784422,1.088094,-4.183799,4.654353,-0.053421,-0.004928,0.139051,0.999496,0.005440,-0.020915,0.023268,0.686836,0.178430,-0.086313,-0.699263,21.653615,7.525816,-89.586041
29479,-3.806396,-0.113809,13.198800,-5.096004,2.457771,2.703641,1.024123,-4.722877,4.017555,-0.041123,-0.002616,0.131030,0.999506,0.005120,-0.023610,0.020084,0.697562,0.163618,-0.109682,-0.688916,22.357819,4.152824,-88.464377
29480,-1.911915,1.096609,13.228421,-4.106485,1.233725,2.892448,0.689533,-5.031408,3.110072,-0.022601,0.010178,0.131781,0.999557,0.003447,-0.025153,0.015548,0.704610,0.146938,-0.132134,-0.681524,22.781077,0.806556,-87.929147
29481,-1.032116,2.203550,12.706668,-2.916853,1.101695,2.741877,-0.200486,-5.178035,2.038875,-0.013830,0.022034,0.126717,0.999612,-0.001002,-0.025887,0.010193,0.707983,0.127190,-0.151170,-0.678034,22.670247,-2.382669,-88.002036
29482,-1.217522,2.887351,12.491988,-2.136578,2.006528,2.726721,-1.230124,-5.211502,1.017045,-0.015570,0.029566,0.124363,0.999629,-0.006150,-0.026054,0.005085,0.707981,0.104375,-0.166067,-0.678448,22.009992,-5.366066,-88.603665
29483,-1.912197,0.086915,11.323577,-4.119240,3.091968,0.450014,-1.934439,-5.409970,0.281054,-0.022177,0.001931,0.112648,0.999586,-0.009671,-0.027046,0.001405,0.705132,0.078908,-0.178765,-0.681620,21.023339,-8.310380,-89.601936
29484,0.692179,-1.829347,8.728828,-4.771876,0.613745,-2.272932,-2.059132,-5.483601,-0.320474,0.004494,-0.017401,0.087616,0.999570,-0.010294,-0.027414,-0.001602,0.699620,0.053236,-0.190899,-0.686481,20.066251,-11.187579,-90.899255
29485,3.194679,-1.786144,7.402082,-4.222898,-1.617655,-2.904753,-1.892286,-5.218490,-0.894858,0.029920,-0.017292,0.074985,0.999605,-0.009460,-0.026089,-0.004474,0.691769,0.029547,-0.202378,-0.692551,19.316500,-13.831750,-92.429830
29486,1.834144,0.135480,8.380859,-2.577796,0.443498,-1.641796,-1.894145,-4.911277,-1.489146,0.016290,0.002025,0.084208,0.999626,-0.009470,-0.024553,-0.007445,0.681640,0.007501,-0.212528,-0.700102,18.696668,-16.214394,-94.217735
29487,-0.427095,0.683628,9.517313,-2.042466,3.366581,-1.111993,-2.338097,-4.876136,-2.263314,-0.006502,0.008012,0.094944,0.999570,-0.011689,-0.024377,-0.011315,0.668306,-0.015126,-0.220821,-0.710195,18.020133,-18.459612,-96.433070
29488,0.889277,-1.955236,8.683691,-4.221353,2.321017,-2.276836,-2.795907,-4.839678,-3.372669,0.006467,-0.018457,0.087276,0.999467,-0.013977,-0.024194,-0.016860,0.650399,-0.037908,-0.227214,-0.723822,17.370285,-20.513976,-99.283338
29489,0.498258,-3.608967,8.190800,-5.371817,3.091148,-3.338126,-2.899919,-4.744109,-4.509041,0.002233,-0.034967,0.082495,0.999359,-0.014496,-0.023715,-0.022540,0.627703,-0.059351,-0.232891,-0.740424,16.997361,-22.349973,-102.801763
29490,1.360120,-2.488516,6.889677,-3.974729,2.142586,-3.888028,-2.787009,-4.583169,-5.438194,0.011347,-0.024248,0.069515,0.999271,-0.013932,-0.022910,-0.027184,0.600937,-0.078681,-0.238404,-0.758846,17.003973,-23.950386,-106.880096
29491,2.216651,2.217843,7.347295,0.356268,1.117004,-1.910946,-3.186294,-4.114532,-6.303060,0.021363,0.022668,0.073559,0.999165,-0.015927,-0.020567,-0.031507,0.570343,-0.096279,-0.240995,-0.779333,17.076043,-25.148583,-111.440006
29492,2.289114,0.639131,5.869618,-0.836676,0.850530,-3.593812,-3.744837,-3.714401,-6.975072,0.022028,0.006716,0.058987,0.999044,-0.018718,-0.018566,-0.034864,0.536335,-0.112933,-0.240122,-0.801207,17.058421,-26.010579,-116.370257
29493,4.916659,1.639886,3.502943,-0.845157,-2.637797,-4.204140,-3.737295,-3.057139,-7.456720,0.049209,0.015225,0.035490,0.999014,-0.018680,-0.015281,-0.037271,0.500138,-0.126133,-0.237361,-0.823172,17.187097,-26.428831,-121.501025
29494,6.320138,3.062580,2.560559,-0.539073,-4.670450,-4.002236,-3.585327,-2.036428,-7.526416,0.064044,0.028686,0.025729,0.999080,-0.017921,-0.010179,-0.037621,0.464018,-0.134442,-0.232228,-0.844206,17.343798,-26.264037,-126.484896
29495,3.898247,5.076962,3.536632,2.100366,-3.431873,-3.707078,-3.233142,-1.058592,-7.029326,0.040562,0.049928,0.034766,0.999238,-0.016162,-0.005292,-0.035138,0.430571,-0.138148,-0.225625,-0.862912,17.455219,-25.639987,-130.965405
29496,4.709377,6.292623,2.447849,2.194084,-5.386446,-3.988392,-2.784994,-0.278724,-5.930289,0.048905,0.061827,0.023680,0.999463,-0.013922,-0.001393,-0.029646,0.402503,-0.138602,-0.218195,-0.878164,17.408807,-24.776485,-134.603742
29497,6.530161,7.541974,1.294044,1.490779,-8.048043,-3.965854,-2.261047,0.765696,-4.497606,0.067024,0.074063,0.011844,0.999676,-0.011304,0.003828,-0.022486,0.381867,-0.134845,-0.209812,-0.889929,17.164668,-23.593515,-137.162551
29498,3.883302,7.862507,3.328113,3.314681,-5.841081,-3.266085,-2.050954,1.695092,-3.103221,0.040326,0.078341,0.032139,0.999791,-0.010254,0.008475,-0.015515,0.368354,-0.127961,-0.199523,-0.898962,16.590695,-22.151357,-138.706448
29499,1.773758,5.236015,4.826914,2.845404,-2.408594,-3.491443,-1.966316,2.064613,-1.995688,0.018755,0.052646,0.047562,0.999849,-0.009831,0.010323,-0.009978,0.360102,-0.120300,-0.188167,-0.905786,15.770242,-20.698577,-139.536339
29500,2.405276,2.838511,5.179385,0.654872,-1.236488,-3.591151,-1.725343,2.321973,-1.313310,0.024838,0.028667,0.051262,0.999874,-0.008626,0.011609,-0.006566,0.355230,-0.111665,-0.176975,-0.911056,14.920972,-19.220255,-139.937680
29501,1.847835,1.061787,5.833405,-0.184291,0.409131,-3.618623,-1.608169,2.423678,-0.985204,0.019236,0.010992,0.058017,0.999882,-0.008041,0.012118,-0.004926,0.351919,-0.102606,-0.165911,-0.915477,14.070388,-17.736574,-140.151627
29502,1.555672,0.418513,6.613325,-0.417815,1.157642,-3.118391,-1.448337,2.455129,-0.854511,0.016386,0.004594,0.065903,0.999889,-0.007241,0.012275,-0.004272,0.349237,-0.093222,-0.155418,-0.919341,13.287808,-16.257924,-140.305084
29503,1.392207,0.385900,6.864972,-0.375529,1.195619,-2.910409,-1.302950,2.417536,-0.796618,0.014767,0.004248,0.068448,0.999898,-0.006515,0.012087,-0.003983,0.346782,-0.083767,-0.145600,-0.922782,12.582859,-14.807931,-140.449066
29504,0.800319,0.863367,7.145067,0.316646,1.139007,-2.668655,-1.060664,2.392436,-0.714731,0.008888,0.008981,0.071301,0.999908,-0.005303,0.011962,-0.003574,0.344724,-0.074066,-0.136877,-0.925713,12.005342,-13.385298,-140.564383
29505,-0.244564,2.804763,7.989111,2.320107,0.457979,-1.679062,-0.911376,2.312365,-0.632991,-0.001433,0.028417,0.079783,0.999918,-0.004557,0.011562,-0.003165,0.342983,-0.064506,-0.128932,-0.928212,11.506272,-12.016559,-140.655653
29506,0.203450,3.374652,7.692366,2.244350,-0.502308,-1.731270,-0.947611,2.205861,-0.493350,0.002965,0.034104,0.076733,0.999925,-0.004738,0.011029,-0.002467,0.341757,-0.055595,-0.120933,-0.930315,10.972442,-10.725401,-140.690886
29507,2.428321,4.468400,5.776431,1.134798,-3.358214,-2.981686,-0.844062,2.279230,-0.225262,0.024988,0.044899,0.057293,0.999926,-0.004220,0.011396,-0.001126,0.341798,-0.046307,-0.113202,-0.931780,10.471928,-9.420606,-140.576845
29508,5.706234,5.458012,2.763021,-0.804925,-7.005662,-5.312241,-0.841780,2.833040,0.196509,0.057390,0.054750,0.026589,0.999890,-0.004209,0.014165,0.000983,0.344057,-0.034676,-0.104418,-0.932480,9.932519,-7.846603,-140.177784
29509,6.225548,6.936951,1.651717,-0.227662,-8.787854,-6.302519,-0.777087,3.817268,0.795479,0.062275,0.069678,0.015058,0.999802,-0.003885,0.019085,0.003977,0.349527,-0.018637,-0.094105,-0.932002,9.393268,-5.769359,-139.359456
29510,3.663021,7.446321,2.949276,2.039765,-7.373936,-5.451198,-0.912240,4.747764,1.446827,0.036771,0.074860,0.028280,0.999682,-0.004561,0.023736,0.007233,0.358278,0.001185,-0.081446,-0.930055,8.776960,-3.219188,-138.111507
29511,0.300704,6.180539,4.613437,3.590422,-4.083391,-4.334909,-1.028338,5.330176,1.996335,0.003611,0.062075,0.045725,0.999582,-0.005141,0.026647,0.009980,0.369558,0.023301,-0.067130,-0.926487,8.141269,-0.369005,-136.534049
29512,-1.305860,4.940294,5.218297,3.772251,-2.157340,-3.942798,-0.993248,5.697108,2.368449,-0.012156,0.049515,0.052292,0.999512,-0.004965,0.028481,0.011840,0.382347,0.047016,-0.052313,-0.921338,7.613739,2.672798,-134.746059
29513,-2.801191,3.541482,5.342993,3.669985,-0.247605,-3.862902,-0.839531,6.099162,2.585169,-0.026825,0.035289,0.054112,0.999443,-0.004197,0.030490,0.012923,0.395804,0.072789,-0.037401,-0.914681,7.280152,5.943675,-132.822990
29514,-6.554388,2.568430,7.004108,4.924427,3.010320,-1.733376,-0.519362,6.370356,2.739293,-0.063616,0.024989,0.072023,0.999396,-0.002596,0.031845,0.013694,0.409444,0.100309,-0.023467,-0.906500,7.259846,9.360400,-130.789785
29515,-10.238849,2.531498,9.176513,6.292850,5.493249,1.395115,-0.150598,6.204402,2.875487,-0.099828,0.023938,0.094871,0.999415,-0.000753,0.031016,0.014375,0.423009,0.127709,-0.011545,-0.897006,7.583435,12.670519,-128.661672
29516,-13.455298,3.651631,12.924741,7.445200,6.628994,6.372550,-0.023981,5.606629,2.944606,-0.131379,0.034582,0.132956,0.999499,-0.000120,0.028028,0.014721,0.436314,0.152557,-0.001521,-0.886766,8.107529,15.618909,-126.489178
29517,-14.787424,3.445202,15.520106,6.495968,7.140616,9.633291,-0.092227,4.450706,2.871343,-0.144848,0.032430,0.158432,0.999649,-0.000461,0.022251,0.014355,0.448965,0.172001,0.006376,-0.876815,8.658844,17.899666,-124.405185
29518,-11.718507,3.340626,15.479049,4.095035,4.533789,8.915107,-0.319217,3.128695,2.655444,-0.115177,0.032117,0.156551,0.999788,-0.001596,0.015642,0.013276,0.460658,0.185061,0.012455,-0.867982,9.083439,19.434826,-122.529507
29519,-5.718113,1.456475,13.042385,-0.083883,1.102908,4.459340,-0.492852,2.319606,2.341177,-0.055832,0.014228,0.131041,0.999861,-0.002464,0.011597,0.011705,0.471035,0.194102,0.017739,-0.860311,9.361667,20.529357,-120.898051
29520,-2.026884,0.771492,11.138098,-2.002237,-1.264364,1.284546,-0.126950,2.189510,2.182014,-0.019131,0.007573,0.111590,0.999880,-0.000635,0.010947,0.010910,0.480265,0.203411,0.021267,-0.852946,9.849938,21.556949,-119.355672
