// General information: 
//  MT Manager version: 2022.0.0 
//  XDA version: 2022.0.0 build 7085 rev 119802 built on 2022-11-08
// Device information: 
//  DeviceId: 00B4737C
//  ProductCode: MTW2-3A7G6
//  Firmware Version: 4.14.0
//  Hardware Version: 2.0.0
// Device settings: 
//  Filter Profile: human(46.1)
//  Option Flags: Orientation Smoother Disabled, Position/Velocity Smoother Disabled, Continuous Zero Rotation Update Disabled, AHS Disabled, ICC Disabled
// Coordinate system: ENU
PacketCounter,Acc_X,Acc_Y,Acc_Z,FreeAcc_E,FreeAcc_N,FreeAcc_U,Gyr_X,Gyr_Y,Gyr_Z,VelInc_X,VelInc_Y,VelInc_Z,OriInc_q0,OriInc_q1,OriInc_q2,OriInc_q3,Quat_q0,Quat_q1,Quat_q2,Quat_q3,Roll,Pitch,Yaw
52996,-4.630578,3.139635,8.094469,-0.121729,0.050238,0.026147,-0.019872,-0.000768,-0.016223,-0.046304,0.031408,0.080941,1.000000,-0.000099,-0.000004,-0.000081,0.284425,0.289927,-0.090169,-0.909348,21.962619,28.424311,-139.635863
52997,-4.652300,3.110581,8.094851,-0.119413,0.084828,0.027270,-0.007770,0.001850,-0.013621,-0.046520,0.031112,0.080948,1.000000,-0.000039,0.000009,-0.000068,0.284420,0.289898,-0.090093,-0.909367,21.951849,28.424365,-139.639960
52998,-4.660466,3.115994,8.127913,-0.130014,0.084386,0.059917,0.005836,0.002318,-0.006179,-0.046603,0.031159,0.081281,1.000000,0.000029,0.000012,-0.000031,0.284430,0.289892,-0.090090,-0.909366,21.951476,28.423589,-139.638980
52999,-4.646479,3.127591,8.110732,-0.124419,0.067541,0.043048,0.023246,0.005238,-0.003710,-0.046462,0.031267,0.081112,1.000000,0.000116,0.000026,-0.000019,0.284428,0.289917,-0.090165,-0.909351,21.961745,28.423328,-139.636066
53000,-4.679856,3.133636,8.119262,-0.105558,0.083315,0.067852,0.035875,0.004068,-0.000585,-0.046797,0.031322,0.081199,1.000000,0.000179,0.000020,-0.000003,0.284421,0.289960,-0.090305,-0.909326,21.980395,28.422282,-139.631280
53001,-4.628345,3.249689,8.127464,-0.092784,-0.038792,0.088202,0.046488,0.004672,-0.000848,-0.046281,0.032478,0.081283,1.000000,0.000232,0.000023,-0.000004,0.284397,0.290014,-0.090490,-0.909297,22.004701,28.421094,-139.626916
53002,-4.655418,3.317632,8.071931,-0.013257,-0.076477,0.078199,0.044742,0.005370,-0.006272,-0.046551,0.033160,0.080728,1.000000,0.000224,0.000027,-0.000031,0.284352,0.290077,-0.090660,-0.909274,22.026947,28.421958,-139.625247
53003,-4.634950,3.347915,8.070246,-0.014027,-0.110826,0.077089,0.036361,0.008619,-0.004003,-0.046345,0.033465,0.080711,1.000000,0.000182,0.000043,-0.000020,0.284328,0.290137,-0.090790,-0.909250,22.044994,28.423533,-139.622030
53004,-4.645356,3.291858,8.059176,-0.028495,-0.057437,0.054524,0.023460,0.010863,-0.005094,-0.046448,0.032910,0.080598,1.000000,0.000117,0.000054,-0.000025,0.284322,0.290194,-0.090856,-0.909227,22.056025,28.427060,-139.618306
53005,-4.723103,3.309104,8.037254,0.042992,-0.026686,0.079369,0.019448,0.010236,-0.009900,-0.047225,0.033086,0.080378,1.000000,0.000097,0.000051,-0.000049,0.284300,0.290240,-0.090898,-0.909215,22.062911,28.430776,-139.617778
53006,-4.693698,3.264540,8.033733,0.003907,-0.006489,0.047781,0.009349,0.004204,-0.004517,-0.046935,0.032643,0.080340,1.000000,0.000047,0.000021,-0.000023,0.284314,0.290247,-0.090910,-0.909207,22.065248,28.430641,-139.615335
53007,-4.708714,3.254283,8.049828,-0.000180,0.010600,0.064659,0.007096,0.004519,-0.008494,-0.047084,0.032542,0.080500,1.000000,0.000035,0.000023,-0.000042,0.284314,0.290249,-0.090905,-0.909207,22.064788,28.431030,-139.615334
53008,-4.651042,3.253065,8.063253,-0.047180,-0.021204,0.047738,0.009655,0.000596,-0.009175,-0.046509,0.032529,0.080634,1.000000,0.000048,0.000003,-0.000046,0.284305,0.290241,-0.090918,-0.909211,22.065541,28.429983,-139.616585
53009,-4.662119,3.217724,8.102836,-0.079176,0.014120,0.073596,0.008868,0.007100,-0.012260,-0.046616,0.032177,0.081031,1.000000,0.000044,0.000035,-0.000061,0.284286,0.290259,-0.090913,-0.909212,22.065337,28.432528,-139.618318
53010,-4.685427,3.257464,8.071799,-0.027544,-0.005275,0.072526,0.014192,0.003238,-0.010414,-0.046851,0.032571,0.080721,1.000000,0.000071,0.000016,-0.000052,0.284265,0.290271,-0.090940,-0.909212,22.068641,28.433150,-139.619672
53011,-4.718969,3.262025,8.080762,-0.008566,0.010539,0.097308,0.017467,0.003675,-0.009337,-0.047187,0.032615,0.080811,1.000000,0.000087,0.000018,-0.000047,0.284248,0.290284,-0.090982,-0.909209,22.073781,28.433286,-139.620240
53012,-4.677232,3.317145,8.080081,-0.010941,-0.058295,0.095094,0.009397,0.003309,-0.011734,-0.046769,0.033170,0.080803,1.000000,0.000047,0.000017,-0.000059,0.284228,0.290290,-0.090986,-0.909213,22.073966,28.434230,-139.622373
53013,-4.676822,3.294538,8.030067,0.007398,-0.040097,0.046671,0.007402,0.000910,-0.013150,-0.046766,0.032945,0.080302,1.000000,0.000037,0.000005,-0.000066,0.284204,0.290278,-0.090981,-0.909225,22.071914,28.433704,-139.626228
53014,-4.685212,3.300374,8.062869,-0.003150,-0.040536,0.079324,0.003595,0.004264,-0.014751,-0.046848,0.033006,0.080630,1.000000,0.000018,0.000021,-0.000074,0.284179,0.290281,-0.090953,-0.909234,22.068019,28.435805,-139.629949
53015,-4.684690,3.233308,8.093061,-0.051865,0.013556,0.081522,-0.000227,0.005982,-0.011756,-0.046843,0.032336,0.080932,1.000000,-0.000001,0.000030,-0.000059,0.284175,0.290281,-0.090908,-0.909240,22.062636,28.437652,-139.631762
53016,-4.698909,3.199580,8.059709,-0.038503,0.048703,0.049975,0.004602,0.003381,-0.013054,-0.046986,0.031997,0.080599,1.000000,0.000023,0.000017,-0.000065,0.284156,0.290281,-0.090888,-0.909248,22.059702,28.438918,-139.634675
53017,-4.702142,3.158350,8.066207,-0.059320,0.084565,0.043191,0.016441,0.002930,-0.006433,-0.047019,0.031578,0.080665,1.000000,0.000082,0.000015,-0.000032,0.284152,0.290288,-0.090931,-0.909242,22.065039,28.438017,-139.633702
53018,-4.649263,3.206079,8.105460,-0.095937,0.016419,0.065754,0.024530,-0.000865,-0.002058,-0.046493,0.032051,0.081058,1.000000,0.000123,-0.000004,-0.000010,0.284153,0.290292,-0.091024,-0.909232,22.076190,28.434661,-139.631014
53019,-4.693028,3.220329,8.074124,-0.042693,0.031553,0.065759,0.033619,0.000258,-0.002559,-0.046930,0.032190,0.080747,1.000000,0.000168,0.000001,-0.000013,0.284138,0.290309,-0.091155,-0.909218,22.092151,28.431509,-139.628663
53020,-4.657420,3.260742,8.056468,-0.038681,-0.019769,0.047778,0.030838,-0.001438,-0.000487,-0.046575,0.032595,0.080569,1.000000,0.000154,-0.000007,-0.000002,0.284136,0.290319,-0.091279,-0.909203,22.107300,28.427510,-139.625169
53021,-4.676908,3.300419,8.098089,-0.032382,-0.038976,0.104102,0.032830,0.000964,0.000929,-0.046769,0.032991,0.080987,1.000000,0.000164,0.000005,0.000005,0.284144,0.290338,-0.091409,-0.909181,22.123888,28.424019,-139.619969
53022,-4.658755,3.288633,8.103814,-0.054793,-0.037615,0.096222,0.030008,0.007599,-0.000957,-0.046584,0.032874,0.081045,1.000000,0.000150,0.000038,-0.000005,0.284145,0.290388,-0.091516,-0.909154,22.139481,28.424916,-139.614544
53023,-4.685842,3.354897,8.048601,0.024902,-0.075145,0.086108,0.023991,0.002929,-0.002581,-0.046857,0.033540,0.080491,1.000000,0.000120,0.000015,-0.000013,0.284146,0.290403,-0.091599,-0.909141,22.150169,28.423192,-139.611481
53024,-4.689037,3.314461,8.054863,0.003971,-0.039305,0.079329,0.010600,0.006412,-0.006833,-0.046887,0.033142,0.080552,1.000000,0.000053,0.000032,-0.000034,0.284149,0.290423,-0.091611,-0.909132,22.152815,28.424727,-139.609893
53025,-4.682028,3.308670,8.021218,0.015922,-0.038614,0.046667,0.005297,0.006103,-0.006706,-0.046817,0.033086,0.080214,1.000000,0.000026,0.000031,-0.000034,0.284155,0.290428,-0.091600,-0.909130,22.152004,28.425549,-139.609141
53026,-4.672057,3.300547,8.060785,-0.017672,-0.037822,0.071453,0.006319,0.006852,-0.009607,-0.046716,0.033005,0.080610,1.000000,0.000032,0.000034,-0.000048,0.284151,0.290445,-0.091587,-0.909127,22.151452,28.427916,-139.609118
53027,-4.685837,3.223476,8.107575,-0.071303,0.033170,0.090567,0.005333,0.003569,-0.009323,-0.046855,0.032235,0.081077,1.000000,0.000027,0.000018,-0.000047,0.284152,0.290441,-0.091574,-0.909129,22.149689,28.428000,-139.609510
53028,-4.672043,3.234292,8.090515,-0.065794,0.016325,0.073690,0.010873,0.005333,-0.008866,-0.046717,0.032341,0.080908,1.000000,0.000054,0.000027,-0.000044,0.284145,0.290457,-0.091586,-0.909125,22.151781,28.429401,-139.609413
53029,-4.660921,3.203908,8.080355,-0.081798,0.035205,0.050041,0.013635,0.005401,-0.006338,-0.046606,0.032035,0.080807,1.000000,0.000068,0.000027,-0.000032,0.284144,0.290471,-0.091613,-0.909118,22.155835,28.429793,-139.608077
53030,-4.698486,3.233977,8.065491,-0.034989,0.032858,0.065785,0.028282,0.004128,-0.004398,-0.046982,0.032329,0.080660,1.000000,0.000141,0.000021,-0.000022,0.284131,0.290504,-0.091713,-0.909102,22.169045,28.429590,-139.605580
53031,-4.685733,3.269307,8.097327,-0.046856,-0.002062,0.097357,0.021897,0.009770,-0.000735,-0.046853,0.032684,0.080979,1.000000,0.000109,0.000049,-0.000004,0.284146,0.290547,-0.091779,-0.909077,22.179917,28.431095,-139.599796
53032,-4.709176,3.310348,8.065481,0.004817,-0.021352,0.096210,0.028769,0.008668,-0.007827,-0.047087,0.033094,0.080662,1.000000,0.000144,0.000043,-0.000039,0.284118,0.290603,-0.091869,-0.909058,22.192953,28.434041,-139.598251
53033,-4.681051,3.333249,8.031111,0.015291,-0.055132,0.062447,0.021696,0.005781,-0.003933,-0.046808,0.033325,0.080316,1.000000,0.000108,0.000029,-0.000020,0.284115,0.290629,-0.091937,-0.909044,22.202327,28.434106,-139.595629
53034,-4.697607,3.390421,8.016053,0.060666,-0.091931,0.077077,0.018201,0.005511,-0.010192,-0.046972,0.033899,0.080165,1.000000,0.000091,0.000028,-0.000051,0.284091,0.290657,-0.091980,-0.909038,22.208258,28.435889,-139.596287
53035,-4.673162,3.393062,8.039005,0.032051,-0.108096,0.085000,0.001327,0.002920,-0.014132,-0.046728,0.033933,0.080391,1.000000,0.000007,0.000015,-0.000071,0.284068,0.290645,-0.091945,-0.909053,22.202739,28.436630,-139.600716
53036,-4.676749,3.350555,8.045959,0.011080,-0.072279,0.078233,-0.007308,0.008865,-0.014453,-0.046761,0.033512,0.080460,1.000000,-0.000037,0.000044,-0.000072,0.284063,0.290654,-0.091861,-0.909060,22.193224,28.441114,-139.603119
53037,-4.689927,3.248936,8.043701,-0.025143,0.016757,0.048916,-0.019468,0.011283,-0.011836,-0.046893,0.032500,0.080436,1.000000,-0.000097,0.000056,-0.000059,0.284088,0.290650,-0.091721,-0.909068,22.177372,28.445843,-139.603750
53038,-4.676377,3.214397,8.107268,-0.086661,0.035679,0.082759,-0.006615,0.011604,-0.008105,-0.046758,0.032149,0.081074,1.000000,-0.000033,0.000058,-0.000041,0.284112,0.290670,-0.091646,-0.909062,22.170398,28.450407,-139.601651
53039,-4.712008,3.153013,8.073988,-0.071891,0.105337,0.052277,-0.000307,0.011037,-0.006530,-0.047115,0.031532,0.080742,1.000000,-0.000002,0.000055,-0.000033,0.284132,0.290690,-0.091602,-0.909053,22.167084,28.453828,-139.599193
53040,-4.680809,3.172740,8.113361,-0.106906,0.071604,0.076009,0.020474,0.001050,-0.004225,-0.046807,0.031720,0.081137,1.000000,0.000102,0.000005,-0.000021,0.284129,0.290698,-0.091670,-0.909045,22.175510,28.451954,-139.597348
53041,-4.696979,3.230448,8.098348,-0.061411,0.034835,0.090628,0.029558,0.002183,-0.004718,-0.046968,0.032294,0.080989,1.000000,0.000148,0.000011,-0.000024,0.284109,0.290719,-0.091778,-0.909033,22.188759,28.450301,-139.596098
53042,-4.661644,3.270651,8.080565,-0.057325,-0.016485,0.072658,0.032081,0.000800,-0.002770,-0.046616,0.032694,0.080811,1.000000,0.000160,0.000004,-0.000014,0.284096,0.290741,-0.091901,-0.909018,22.204224,28.447978,-139.593438
53043,-4.586584,3.323844,8.069718,-0.077641,-0.101068,0.045751,0.026503,0.001569,-0.000614,-0.045865,0.033228,0.080702,1.000000,0.000133,0.000008,-0.000003,0.284100,0.290754,-0.092001,-0.909002,22.216851,28.445090,-139.589776
53044,-4.408776,3.340210,8.053987,-0.180681,-0.214783,-0.046305,0.015696,0.002738,-0.010148,-0.044085,0.033398,0.080543,1.000000,0.000078,0.000014,-0.000051,0.284078,0.290765,-0.092037,-0.909002,22.221034,28.445392,-139.591090
53045,-4.547196,3.184745,8.014037,-0.137192,-0.008406,-0.064586,0.005282,0.011892,-0.013290,-0.045465,0.031848,0.080144,1.000000,0.000026,0.000059,-0.000066,0.284063,0.290800,-0.092006,-0.908998,22.219078,28.450736,-139.592062
53046,-4.766134,3.156992,8.021297,-0.008342,0.138832,0.036399,0.018250,0.004608,-0.017398,-0.047657,0.031567,0.080217,1.000000,0.000091,0.000023,-0.000087,0.284006,0.290828,-0.092040,-0.909004,22.222861,28.453601,-139.597289
53047,-4.888059,3.165572,8.098473,0.031102,0.202619,0.160136,0.043712,0.003813,-0.010506,-0.048877,0.031641,0.080993,1.000000,0.000219,0.000019,-0.000053,0.283946,0.290880,-0.092199,-0.908990,22.242768,28.454082,-139.598333
53048,-4.932383,3.466332,8.139046,0.174649,-0.015391,0.314365,0.060999,-0.019632,0.003331,-0.049332,0.034638,0.081396,1.000000,0.000305,-0.000098,0.000017,0.283909,0.290848,-0.092492,-0.908982,22.274150,28.439598,-139.597040
53049,-4.995746,2.972101,7.982963,0.080553,0.429025,0.052809,-0.025664,-0.018021,0.012290,-0.049966,0.029728,0.079821,1.000000,-0.000128,-0.000090,0.000061,0.284038,0.290691,-0.092402,-0.909001,22.258289,28.423535,-139.590424
53050,-4.825436,3.436907,8.133612,0.093454,-0.044264,0.249226,0.125577,-0.024122,0.014753,-0.048267,0.034314,0.081352,1.000000,0.000628,-0.000121,0.000074,0.283958,0.290725,-0.093011,-0.908953,22.329414,28.404187,-139.583366
53051,-4.690527,3.406278,8.043877,0.038671,-0.089092,0.101862,0.032213,-0.007452,0.025424,-0.046913,0.034044,0.080443,1.000000,0.000161,-0.000037,0.000127,0.284070,0.290693,-0.093187,-0.908910,22.351692,28.390903,-139.565835
53052,-4.641914,3.504933,8.107985,0.012922,-0.193572,0.163971,0.039844,0.011589,0.029116,-0.046420,0.035026,0.081090,1.000000,0.000199,0.000058,0.000146,0.284196,0.290761,-0.093376,-0.908830,22.382000,28.387338,-139.541306
53053,-4.585922,3.354717,7.986536,-0.025182,-0.099914,-0.011720,0.012559,0.016508,0.026616,-0.045857,0.033536,0.079871,1.000000,0.000063,0.000083,0.000133,0.284353,0.290809,-0.093430,-0.908760,22.396179,28.386464,-139.517181
53054,-4.546695,3.326107,8.072745,-0.116024,-0.097428,0.030162,0.002230,0.020572,0.018235,-0.045462,0.033256,0.080732,1.000000,0.000011,0.000103,0.000091,0.284488,0.290869,-0.093421,-0.908699,22.402879,28.390021,-139.496977
53055,-4.597837,3.322171,8.024879,-0.056581,-0.064594,0.014227,0.013293,0.007406,0.002909,-0.045976,0.033216,0.080253,1.000000,0.000066,0.000037,0.000015,0.284531,0.290888,-0.093457,-0.908676,22.409637,28.389495,-139.489563
53056,-4.388301,3.138113,7.946843,-0.236205,-0.032900,-0.210584,0.000555,-0.007948,0.002533,-0.043887,0.031380,0.079467,1.000000,0.000003,-0.000040,0.000013,0.284584,0.290824,-0.093458,-0.908680,22.407516,28.381372,-139.485893
53057,-4.470771,3.355817,8.012217,-0.117481,-0.163716,-0.045174,0.014563,-0.005487,-0.020260,-0.044707,0.033557,0.080123,1.000000,0.000073,-0.000027,-0.000101,0.284509,0.290796,-0.093485,-0.908709,22.406760,28.379062,-139.496246
53058,-4.470000,3.463301,7.973809,-0.045416,-0.253027,-0.040743,0.008918,-0.008945,-0.040325,-0.044697,0.034638,0.079738,1.000000,0.000045,-0.000045,-0.000202,0.284355,0.290759,-0.093463,-0.908772,22.397048,28.379769,-139.518628
53059,-4.618585,3.662066,8.009655,0.127189,-0.334110,0.125563,-0.029797,-0.012336,-0.059332,-0.046180,0.036646,0.080088,1.000000,-0.000149,-0.000062,-0.000297,0.284172,0.290656,-0.093240,-0.908885,22.358958,28.382353,-139.553126
53060,-4.690913,3.579529,8.045781,0.120900,-0.231115,0.161491,-0.067844,-0.014594,-0.067386,-0.046903,0.035838,0.080442,1.000000,-0.000339,-0.000073,-0.000337,0.284003,0.290497,-0.092837,-0.909030,22.296848,28.385931,-139.593208
53061,-4.821821,3.494762,8.069040,0.162260,-0.095941,0.214135,-0.103788,-0.003744,-0.070203,-0.048207,0.035006,0.080671,1.000000,-0.000519,-0.000019,-0.000351,0.283878,0.290332,-0.092252,-0.909181,22.214296,28.395323,-139.632705
53062,-4.957765,3.281307,8.187400,0.093019,0.146138,0.304126,-0.114220,-0.000365,-0.066742,-0.049567,0.032876,0.081855,1.000000,-0.000571,-0.000002,-0.000334,0.283786,0.290171,-0.091619,-0.909325,22.127445,28.406214,-139.668920
53063,-5.442727,2.946402,8.390116,0.153442,0.688131,0.589309,-0.095221,-0.021919,-0.044861,-0.054430,0.029516,0.083881,1.000000,-0.000476,-0.000110,-0.000224,0.283759,0.289925,-0.091134,-0.909461,22.054950,28.400417,-139.697140
53064,-5.551895,2.681724,8.596875,-0.005998,0.966977,0.722319,-0.005958,-0.114967,0.007598,-0.055569,0.026818,0.085936,1.000000,-0.000030,-0.000575,0.000038,0.283795,0.289362,-0.091264,-0.909616,22.038148,28.334391,-139.716513
53065,-5.365797,2.448333,8.599009,-0.228345,1.067457,0.557337,0.125026,-0.218092,0.061255,-0.053759,0.024413,0.085947,0.999999,0.000625,-0.001090,0.000306,0.283850,0.288489,-0.092209,-0.909781,22.099509,28.201708,-139.727635
53066,-5.011242,2.191480,8.358492,-0.434140,1.107068,0.105240,0.271711,-0.318458,0.110013,-0.050257,0.021774,0.083535,0.999998,0.001359,-0.001592,0.000550,0.283857,0.287347,-0.094038,-0.909953,22.247343,28.005604,-139.735408
53067,-4.485903,2.778009,8.175412,-0.401551,0.368963,-0.097728,0.404951,-0.344274,0.124508,-0.045017,0.027587,0.081733,0.999996,0.002025,-0.001721,0.000623,0.283727,0.286264,-0.096528,-0.910074,22.471811,27.792325,-139.741520
53068,-4.010360,2.987287,7.847924,-0.433849,-0.031417,-0.517129,0.405312,-0.284004,0.125316,-0.040234,0.029689,0.078482,0.999997,0.002027,-0.001420,0.000627,0.283625,0.285457,-0.098937,-0.910100,22.703742,27.611135,-139.733157
53069,-4.063309,3.540578,7.814707,-0.128344,-0.412078,-0.329577,0.411570,-0.173242,0.124329,-0.040723,0.035220,0.078184,0.999997,0.002058,-0.000866,0.000622,0.283560,0.285158,-0.101213,-0.909964,22.950869,27.488243,-139.698977
53070,-4.061048,3.826411,7.842836,-0.024084,-0.609971,-0.206915,0.322033,-0.099921,0.128462,-0.040674,0.038112,0.078469,0.999998,0.001610,-0.000500,0.000642,0.283680,0.285066,-0.102986,-0.909756,23.156589,27.403341,-139.643885
53071,-4.264633,4.000437,7.847624,0.180778,-0.605526,-0.046604,0.262738,-0.045813,0.128984,-0.042690,0.039874,0.078519,0.999999,0.001314,-0.000229,0.000645,0.283922,0.285133,-0.104407,-0.909498,23.334033,27.346365,-139.574392
53072,-4.224416,4.066642,7.928427,0.128727,-0.657470,0.025725,0.167451,-0.021456,0.124798,-0.042278,0.040574,0.079314,0.999999,0.000837,-0.000107,0.000624,0.284285,0.285179,-0.105359,-0.909260,23.459019,27.303267,-139.502008
53073,-4.264316,3.962230,7.884861,0.127712,-0.534643,-0.027366,0.104193,-0.001914,0.093376,-0.042662,0.039561,0.078869,1.000000,0.000521,-0.000010,0.000467,0.284610,0.285237,-0.105948,-0.909072,23.540987,27.277131,-139.442946
53074,-4.274418,3.895415,7.931293,0.073812,-0.463882,-0.008113,0.042264,0.007943,0.053850,-0.042752,0.038926,0.079323,1.000000,0.000211,0.000040,0.000269,0.284844,0.285277,-0.106188,-0.908958,23.578368,27.265538,-139.405081
53075,-4.343904,3.734764,7.949602,0.035030,-0.289077,-0.018334,0.011283,0.019386,0.009648,-0.043433,0.037341,0.079502,1.000000,0.000056,0.000097,0.000048,0.284930,0.285343,-0.106206,-0.908908,23.587011,27.269647,-139.390297
53076,-4.435439,3.674455,7.978134,0.051749,-0.187231,0.025383,-0.014890,0.024540,-0.014743,-0.044342,0.036754,0.079784,1.000000,-0.000074,0.000123,-0.000074,0.284943,0.285413,-0.106065,-0.908899,23.575036,27.282479,-139.388681
53077,-4.560638,3.639869,8.066357,0.069549,-0.087685,0.142294,-0.035008,0.023010,-0.024257,-0.045593,0.036418,0.080662,1.000000,-0.000175,0.000115,-0.000121,0.284942,0.285448,-0.105821,-0.908917,23.548430,27.296225,-139.393206
53078,-4.524444,3.493346,8.015291,0.008725,0.004630,0.032049,-0.042298,0.021291,-0.018264,-0.045233,0.034955,0.080150,1.000000,-0.000211,0.000106,-0.000091,0.284976,0.285465,-0.105555,-0.908932,23.519409,27.308157,-139.394519
53079,-4.478794,3.429393,8.020729,-0.053659,0.025663,-0.007133,-0.038558,0.032926,-0.020169,-0.044771,0.034314,0.080208,1.000000,-0.000193,0.000165,-0.000101,0.285003,0.285538,-0.105286,-0.908931,23.493086,27.326190,-139.394086
53080,-4.485491,3.408395,8.077385,-0.092013,0.043236,0.034677,-0.030792,0.042705,-0.019865,-0.044834,0.034101,0.080778,1.000000,-0.000154,0.000214,-0.000099,0.285025,0.285670,-0.105039,-0.908912,23.472743,27.349739,-139.390855
53081,-4.527048,3.457815,8.111161,-0.062242,0.022985,0.098779,-0.024017,0.046646,-0.021805,-0.045248,0.034593,0.081118,1.000000,-0.000120,0.000233,-0.000109,0.285030,0.285827,-0.104815,-0.908887,23.455917,27.375332,-139.388035
53082,-4.491625,3.443758,8.066828,-0.068760,0.007861,0.041403,-0.021006,0.047213,-0.025927,-0.044893,0.034452,0.080675,1.000000,-0.000105,0.000236,-0.000130,0.285012,0.285997,-0.104598,-0.908864,23.440059,27.402635,-139.387250
53083,-4.436914,3.546805,8.037997,-0.043908,-0.113529,0.029092,-0.017253,0.052160,-0.028361,-0.044343,0.035481,0.080388,1.000000,-0.000086,0.000261,-0.000142,0.284981,0.286191,-0.104387,-0.908837,23.425967,27.432631,-139.386848
53084,-4.420914,3.546528,7.986371,-0.027311,-0.129765,-0.020502,-0.032369,0.058746,-0.035475,-0.044179,0.035486,0.079871,1.000000,-0.000162,0.000294,-0.000177,0.284942,0.286402,-0.104088,-0.908817,23.402347,27.468172,-139.388779
53085,-4.479137,3.584114,8.036701,-0.002374,-0.133055,0.060478,-0.041965,0.068674,-0.046793,-0.044755,0.035868,0.080375,1.000000,-0.000210,0.000343,-0.000234,0.284871,0.286646,-0.103715,-0.908805,23.370985,27.511035,-139.395118
53086,-4.476375,3.612352,7.994299,0.031175,-0.167934,0.034478,-0.057066,0.068571,-0.054450,-0.044727,0.036159,0.079948,1.000000,-0.000285,0.000343,-0.000272,0.284787,0.286876,-0.103262,-0.908810,23.329150,27.556051,-139.405836
53087,-4.498300,3.594104,8.010667,0.027087,-0.150855,0.051367,-0.083009,0.071509,-0.057214,-0.044944,0.035987,0.080108,1.000000,-0.000415,0.000358,-0.000286,0.284727,0.287079,-0.102684,-0.908830,23.271714,27.602747,-139.417943
53088,-4.516647,3.549469,8.051577,-0.005083,-0.115751,0.077373,-0.099163,0.078973,-0.066021,-0.045123,0.035550,0.080516,1.000000,-0.000496,0.000395,-0.000330,0.284655,0.287302,-0.102009,-0.908858,23.203735,27.655836,-139.432991
53089,-4.590410,3.522146,8.022362,0.049368,-0.065783,0.078162,-0.111765,0.075952,-0.067095,-0.045862,0.035282,0.080221,1.000000,-0.000559,0.000380,-0.000335,0.284593,0.287490,-0.101280,-0.908900,23.127567,27.707069,-139.449976
53090,-4.593204,3.419462,8.078846,-0.027769,0.006001,0.089695,-0.117593,0.076888,-0.070087,-0.045889,0.034258,0.080786,1.000000,-0.000588,0.000384,-0.000350,0.284528,0.287679,-0.100518,-0.908945,23.047552,27.759938,-139.468146
53091,-4.627157,3.403976,8.056093,0.002261,0.022586,0.081641,-0.115858,0.075324,-0.071826,-0.046229,0.034103,0.080559,1.000000,-0.000579,0.000377,-0.000359,0.284454,0.287860,-0.099763,-0.908994,22.967557,27.811880,-139.487826
53092,-4.645376,3.356699,8.097559,-0.029932,0.057678,0.107654,-0.114341,0.066571,-0.067499,-0.046415,0.033629,0.080972,1.000000,-0.000572,0.000333,-0.000337,0.284391,0.288006,-0.099035,-0.909047,22.888796,27.858683,-139.507239
53093,-4.695079,3.290275,8.099542,-0.026635,0.126786,0.109785,-0.102770,0.062234,-0.064015,-0.046915,0.032959,0.080993,1.000000,-0.000514,0.000311,-0.000320,0.284325,0.288142,-0.098369,-0.909097,22.816815,27.901933,-139.525828
53094,-4.704397,3.238175,8.107658,-0.047826,0.162476,0.103086,-0.089678,0.055797,-0.055675,-0.047012,0.032431,0.081075,1.000000,-0.000448,0.000279,-0.000278,0.284274,0.288267,-0.097785,-0.909136,22.754134,27.940378,-139.541025
53095,-4.663825,3.259305,8.130539,-0.077609,0.111665,0.110089,-0.069743,0.046623,-0.049821,-0.046611,0.032633,0.081305,1.000000,-0.000349,0.000233,-0.000249,0.284216,0.288372,-0.097313,-0.909172,22.703160,27.972201,-139.555345
53096,-4.699257,3.297355,8.132585,-0.036838,0.092056,0.141441,-0.053835,0.039308,-0.046177,-0.046969,0.033006,0.081326,1.000000,-0.000269,0.000197,-0.000231,0.284149,0.288468,-0.096928,-0.909203,22.661691,27.999806,-139.569069
53097,-4.623507,3.294193,8.096254,-0.067710,0.043535,0.075253,-0.042735,0.034584,-0.041262,-0.046214,0.032969,0.080963,1.000000,-0.000214,0.000173,-0.000206,0.284085,0.288552,-0.096608,-0.909231,22.627124,28.023350,-139.581396
53098,-4.664502,3.317333,8.081977,-0.020799,0.041482,0.090771,-0.039920,0.027982,-0.039318,-0.046627,0.033199,0.080820,1.000000,-0.000200,0.000140,-0.000197,0.284023,0.288614,-0.096313,-0.909262,22.594199,28.043438,-139.593883
53099,-4.647115,3.339879,8.081307,-0.021296,0.007126,0.089710,-0.034163,0.031230,-0.038296,-0.046452,0.033421,0.080815,1.000000,-0.000171,0.000156,-0.000191,0.283956,0.288693,-0.096041,-0.909286,22.564928,28.064541,-139.605569
53100,-4.621906,3.356059,8.047687,-0.010880,-0.026641,0.055929,-0.040441,0.026022,-0.033250,-0.046203,0.033585,0.080476,1.000000,-0.000202,0.000130,-0.000166,0.283921,0.288742,-0.095755,-0.909312,22.533166,28.082247,-139.614933
53101,-4.640329,3.364240,8.113979,-0.032120,-0.027727,0.121376,-0.041696,0.023833,-0.030915,-0.046388,0.033666,0.081138,1.000000,-0.000208,0.000119,-0.000155,0.283895,0.288773,-0.095471,-0.909340,22.500786,28.097825,-139.624136
53102,-4.585573,3.269905,8.037015,-0.066599,0.011919,0.001016,-0.046216,0.022789,-0.034261,-0.045841,0.032725,0.080368,1.000000,-0.000231,0.000114,-0.000171,0.283862,0.288799,-0.095162,-0.909374,22.465034,28.114031,-139.634936
53103,-4.660002,3.320464,8.081886,-0.018454,0.007611,0.089716,-0.038038,0.033916,-0.028085,-0.046582,0.033227,0.080820,1.000000,-0.000190,0.000170,-0.000140,0.283848,0.288880,-0.094884,-0.909382,22.436697,28.134317,-139.639952
53104,-4.661491,3.250007,8.113111,-0.067682,0.061289,0.092174,-0.037976,0.025614,-0.024074,-0.046601,0.032521,0.081131,1.000000,-0.000190,0.000128,-0.000120,0.283851,0.288926,-0.094622,-0.909393,22.408866,28.149783,-139.643956
53105,-4.685048,3.218957,8.113537,-0.065700,0.095906,0.093236,-0.027094,0.019425,-0.019742,-0.046839,0.032205,0.081136,1.000000,-0.000135,0.000097,-0.000099,0.283854,0.288953,-0.094426,-0.909404,22.387493,28.160571,-139.647299
53106,-4.646504,3.206533,8.070571,-0.072312,0.080752,0.035877,-0.011494,0.019895,-0.013486,-0.046455,0.032073,0.080708,1.000000,-0.000057,0.000099,-0.000067,0.283865,0.289006,-0.094309,-0.909397,22.377162,28.170695,-139.646369
53107,-4.707731,3.229679,8.105435,-0.041162,0.095080,0.100985,-0.000135,0.018229,-0.012609,-0.047068,0.032300,0.081059,1.000000,-0.000001,0.000091,-0.000063,0.283854,0.289061,-0.094249,-0.909389,22.373072,28.179262,-139.646675
53108,-4.681635,3.273710,8.120558,-0.047838,0.043153,0.115766,0.005461,0.011707,-0.008155,-0.046810,0.032737,0.081209,1.000000,0.000027,0.000059,-0.000041,0.283860,0.289098,-0.094229,-0.909377,22.373012,28.183885,-139.644568
53109,-4.635377,3.281013,8.093419,-0.060466,0.010461,0.074245,0.014562,0.008713,-0.006652,-0.046349,0.032806,0.080939,1.000000,0.000073,0.000044,-0.000033,0.283861,0.289129,-0.094255,-0.909364,22.377941,28.186152,-139.642263
53110,-4.666757,3.327071,8.094694,-0.019640,-0.009092,0.105560,0.013821,0.006886,-0.005776,-0.046664,0.033266,0.080951,1.000000,0.000069,0.000034,-0.000029,0.283864,0.289155,-0.094282,-0.909352,22.382783,28.187702,-139.639918
53111,-4.631133,3.342259,8.027473,0.001841,-0.042222,0.039045,0.009776,0.008753,-0.007979,-0.046306,0.033421,0.080278,1.000000,0.000049,0.000044,-0.000040,0.283865,0.289181,-0.094284,-0.909344,22.384619,28.190268,-139.638418
53112,-4.676879,3.377154,8.045727,0.037800,-0.044824,0.087245,0.005807,0.003919,-0.010782,-0.046765,0.033772,0.080459,1.000000,0.000029,0.000020,-0.000054,0.283855,0.289184,-0.094272,-0.909347,22.383102,28.191338,-139.639817
53113,-4.633928,3.365309,8.075967,-0.013805,-0.060142,0.087617,-0.002516,0.006194,-0.015764,-0.046334,0.033658,0.080761,1.000000,-0.000013,0.000031,-0.000079,0.283838,0.289184,-0.094211,-0.909358,22.375383,28.194267,-139.643623
53114,-4.640306,3.323758,8.010349,0.010005,-0.024307,0.023206,-0.012323,0.003203,-0.014391,-0.046399,0.033246,0.080102,1.000000,-0.000062,0.000016,-0.000072,0.283838,0.289160,-0.094113,-0.909376,22.362368,28.195744,-139.647369
53115,-4.638136,3.320701,8.083710,-0.034305,-0.024368,0.080945,-0.014384,0.007487,-0.015192,-0.046376,0.033216,0.080836,1.000000,-0.000072,0.000037,-0.000076,0.283835,0.289148,-0.093998,-0.909393,22.348110,28.199220,-139.651216
53116,-4.641672,3.277431,8.091262,-0.055573,0.011277,0.074273,-0.010610,0.008319,-0.015565,-0.046411,0.032782,0.080913,1.000000,-0.000053,0.000042,-0.000078,0.283830,0.289150,-0.093898,-0.909404,22.336340,28.203663,-139.654405
53117,-4.649503,3.258924,8.074887,-0.048752,0.028960,0.058435,-0.010104,0.008690,-0.017015,-0.046489,0.032597,0.080749,1.000000,-0.000051,0.000043,-0.000085,0.283821,0.289152,-0.093797,-0.909417,22.324242,28.208191,-139.658063
53118,-4.665094,3.247291,8.091344,-0.052974,0.046006,0.075332,-0.000808,0.009704,-0.012332,-0.046645,0.032476,0.080916,1.000000,-0.000004,0.000049,-0.000062,0.283817,0.289173,-0.093744,-0.909417,22.319168,28.212663,-139.658968
53119,-4.628778,3.218702,8.105196,-0.098494,0.048205,0.059891,0.003000,0.004770,-0.006101,-0.046285,0.032187,0.081054,1.000000,0.000015,0.000024,-0.000031,0.283824,0.289168,-0.093727,-0.909418,22.317128,28.212686,-139.658624
53120,-4.641571,3.250458,8.113661,-0.080771,0.029722,0.083461,0.021599,0.010019,-0.005939,-0.046411,0.032497,0.081142,1.000000,0.000108,0.000050,-0.000030,0.283817,0.289220,-0.093785,-0.909398,22.326746,28.215933,-139.655606
53121,-4.646791,3.276350,8.088761,-0.052009,0.011879,0.074291,0.016306,0.009685,-0.005817,-0.046463,0.032758,0.080893,1.000000,0.000082,0.000048,-0.000029,0.283817,0.289258,-0.093820,-0.909382,22.333052,28.218546,-139.652817
53122,-4.645605,3.319071,8.080090,-0.029394,-0.023530,0.080963,0.021833,0.013088,-0.009965,-0.046449,0.033184,0.080808,1.000000,0.000109,0.000065,-0.000050,0.283792,0.289325,-0.093869,-0.909363,22.342019,28.224296,-139.651460
53123,-4.637749,3.378725,8.087759,-0.012750,-0.076472,0.103478,0.017864,0.006643,-0.008166,-0.046373,0.033782,0.080882,1.000000,0.000089,0.000033,-0.000041,0.283776,0.289352,-0.093912,-0.909355,22.348201,28.225785,-139.651095
53124,-4.591438,3.386099,8.060681,-0.025457,-0.109200,0.061976,0.006506,0.009908,-0.013654,-0.045908,0.033862,0.080610,1.000000,0.000033,0.000050,-0.000068,0.283755,0.289385,-0.093891,-0.909354,22.346966,28.230653,-139.652742
53125,-4.604880,3.416845,8.069168,-0.007615,-0.127653,0.085538,0.002693,0.013231,-0.015283,-0.046041,0.034171,0.080695,1.000000,0.000013,0.000066,-0.000076,0.283733,0.289424,-0.093844,-0.909353,22.343159,28.237194,-139.654864
53126,-4.652849,3.384953,8.045751,0.023430,-0.076512,0.078451,-0.022282,0.016817,-0.021036,-0.046518,0.033863,0.080458,1.000000,-0.000111,0.000084,-0.000105,0.283724,0.289450,-0.093672,-0.909365,22.324135,28.247331,-139.659246
53127,-4.659475,3.299126,8.060811,-0.019760,-0.005352,0.065126,-0.018931,0.012191,-0.025158,-0.046586,0.033005,0.080608,1.000000,-0.000095,0.000061,-0.000126,0.283682,0.289458,-0.093516,-0.909392,22.305054,28.255454,-139.668206
53128,-4.600763,3.336947,8.067392,-0.044578,-0.073203,0.055327,-0.023674,0.009681,-0.029088,-0.045999,0.033386,0.080672,1.000000,-0.000118,0.000048,-0.000145,0.283635,0.289454,-0.093336,-0.909426,22.282098,28.263555,-139.679204
53129,-4.575260,3.377691,8.083727,-0.051040,-0.125123,0.070135,-0.027170,0.010984,-0.039944,-0.045741,0.033797,0.080835,1.000000,-0.000136,0.000055,-0.000200,0.283540,0.289452,-0.093122,-0.909478,22.253911,28.274259,-139.697046
53130,-4.608475,3.417945,8.086391,-0.010125,-0.144597,0.101399,-0.042814,0.014655,-0.048209,-0.046071,0.034208,0.080860,1.000000,-0.000214,0.000073,-0.000241,0.283436,0.289452,-0.092820,-0.909542,22.215104,28.289133,-139.718346
53131,-4.604620,3.536347,8.064956,0.056588,-0.250972,0.121375,-0.050046,0.012587,-0.061290,-0.046030,0.035398,0.080644,1.000000,-0.000250,0.000063,-0.000306,0.283282,0.289435,-0.092468,-0.909631,22.167912,28.305310,-139.748140
53132,-4.701026,3.489088,8.070605,0.100993,-0.166953,0.155761,-0.116198,0.002406,-0.074785,-0.046996,0.034955,0.080686,1.000000,-0.000581,0.000012,-0.000374,0.283157,0.289289,-0.091811,-0.909783,22.078008,28.319381,-139.788504
53133,-4.683648,3.331413,8.070822,0.023541,-0.058682,0.095341,-0.098276,-0.013370,-0.092518,-0.046826,0.033375,0.080689,1.000000,-0.000491,-0.000067,-0.000463,0.282926,0.289100,-0.091229,-0.909973,21.991226,28.328443,-139.842673
53134,-4.503172,3.417441,8.045732,-0.035180,-0.244318,0.017385,-0.127088,-0.024767,-0.111456,-0.045023,0.034251,0.080430,1.000000,-0.000635,-0.000124,-0.000557,0.282637,0.288831,-0.090507,-0.910221,21.881398,28.335805,-139.911846
53135,-4.549515,3.476755,8.062573,0.022956,-0.282306,0.072187,-0.141461,-0.002561,-0.143756,-0.045471,0.034857,0.080601,0.999999,-0.000707,-0.000013,-0.000719,0.282234,0.288653,-0.089642,-0.910488,21.756385,28.361271,-139.995115
53136,-4.667900,3.564113,8.075661,0.145584,-0.306378,0.166961,-0.174386,-0.012052,-0.164849,-0.046654,0.035750,0.080723,0.999999,-0.000872,-0.000060,-0.000824,0.281775,0.288398,-0.088610,-0.910812,21.605482,28.386434,-140.093603
53137,-4.697905,3.537599,8.059793,0.175514,-0.289655,0.158793,-0.211685,-0.020208,-0.181483,-0.046955,0.035504,0.080556,0.999999,-0.001058,-0.000101,-0.000907,0.281291,0.288056,-0.087396,-0.911187,21.427293,28.410063,-140.204363
53138,-4.626282,3.431779,8.047091,0.100532,-0.267358,0.079411,-0.246693,-0.019593,-0.185697,-0.046239,0.034460,0.080424,0.999999,-0.001233,-0.000098,-0.000928,0.280837,0.287673,-0.086014,-0.911579,21.227910,28.435010,-140.317509
53139,-4.547863,3.317981,8.001062,0.036521,-0.244406,-0.032713,-0.266061,0.009465,-0.194304,-0.045443,0.033330,0.079968,0.999999,-0.001330,0.000047,-0.000972,0.280377,0.287393,-0.084495,-0.911951,21.017923,28.476363,-140.430227
53140,-4.535307,3.378628,8.052300,0.041148,-0.332465,0.021505,-0.291456,0.032169,-0.199890,-0.045306,0.033949,0.080481,0.999998,-0.001457,0.000161,-0.000999,0.279944,0.287188,-0.082816,-0.912303,20.794235,28.531185,-140.540268
53141,-4.491517,3.452519,8.217103,-0.034262,-0.454882,0.157577,-0.335161,0.069771,-0.218842,-0.044849,0.034712,0.082129,0.999998,-0.001676,0.000349,-0.001094,0.279501,0.287095,-0.080859,-0.912643,20.543753,28.609065,-140.653798
53142,-4.791941,3.493796,8.395526,0.101872,-0.364603,0.459152,-0.362625,0.074462,-0.234814,-0.047847,0.035146,0.083909,0.999998,-0.001813,0.000372,-0.001174,0.279025,0.286995,-0.078745,-0.913005,20.273078,28.692733,-140.776272
53143,-4.582115,3.500694,8.415631,-0.030990,-0.530339,0.375103,-0.403796,0.042458,-0.248958,-0.045760,0.035234,0.084095,0.999997,-0.002019,0.000212,-0.001245,0.278532,0.286692,-0.076470,-0.913444,19.970836,28.760865,-140.915137
53144,-4.439986,3.299088,8.381826,-0.181709,-0.485989,0.216423,-0.434381,0.053898,-0.266621,-0.044333,0.033232,0.083758,0.999997,-0.002172,0.000269,-0.001333,0.278003,0.286407,-0.074011,-0.913897,19.646585,28.838494,-141.062901
53145,-4.470546,3.259781,8.459819,-0.202753,-0.487081,0.281959,-0.445183,0.072277,-0.293480,-0.044627,0.032852,0.084541,0.999996,-0.002226,0.000361,-0.001467,0.277374,0.286195,-0.071441,-0.914359,19.309808,28.929855,-141.223556
53146,-4.446099,3.175510,8.557562,-0.293314,-0.485334,0.324456,-0.479378,0.086639,-0.302220,-0.044376,0.032027,0.085518,0.999996,-0.002397,0.000433,-0.001511,0.276755,0.286006,-0.068679,-0.914817,18.951472,29.030354,-141.387617
53147,-4.535293,3.101605,8.822466,-0.395710,-0.437204,0.564053,-0.460969,0.104798,-0.265720,-0.045265,0.031279,0.088177,0.999996,-0.002305,0.000524,-0.001329,0.276275,0.285906,-0.066032,-0.915188,18.616029,29.132415,-141.526702
53148,-4.708182,2.777856,8.902442,-0.453144,-0.126024,0.623571,-0.482601,0.073589,-0.186202,-0.047023,0.028037,0.088974,0.999997,-0.002413,0.000368,-0.000931,0.276183,0.285610,-0.063438,-0.915492,18.288446,29.203075,-141.622911
53149,-4.734646,2.405025,8.914470,-0.594778,0.157482,0.545405,-0.421206,0.035416,-0.086878,-0.047320,0.024258,0.089102,0.999998,-0.002106,0.000177,-0.000434,0.276444,0.285186,-0.061321,-0.915689,18.022158,29.234168,-141.665561
53150,-5.520738,2.072992,9.125436,-0.310455,0.825534,1.016509,-0.299235,-0.031074,0.088853,-0.055231,0.020842,0.091215,0.999999,-0.001496,-0.000155,0.000444,0.277314,0.284576,-0.060103,-0.915697,17.872710,29.198474,-141.611918
53151,-6.260956,1.806768,9.056218,0.129314,1.461402,1.247445,-0.024743,-0.273857,0.306876,-0.062761,0.017983,0.090474,0.999998,-0.000124,-0.001369,0.001534,0.278718,0.283164,-0.060790,-0.915663,17.922683,28.991456,-141.471360
53152,-5.570937,2.413925,8.767576,0.130607,0.644525,0.831548,0.282175,-0.517951,0.497013,-0.055996,0.023877,0.087565,0.999993,0.001411,-0.002590,0.002485,0.280481,0.281006,-0.063489,-0.915606,18.180612,28.617980,-141.262910
53153,-4.666038,3.341038,8.569732,0.093453,-0.536104,0.486724,0.327533,-0.620663,0.595505,-0.047025,0.033130,0.085606,0.999989,0.001638,-0.003103,0.002978,0.282593,0.278401,-0.066678,-0.915526,18.480620,28.169482,-141.017681
53154,-3.586316,3.647460,8.210978,-0.266415,-1.298038,-0.229923,0.185855,-0.590000,0.599842,-0.036214,0.036290,0.082037,0.999991,0.000929,-0.002950,0.002999,0.284927,0.275733,-0.069179,-0.915425,18.700635,27.736394,-140.766566
53155,-3.281979,3.625657,8.143060,-0.410658,-1.391197,-0.425363,-0.004282,-0.423889,0.510800,-0.033085,0.036174,0.081360,0.999994,-0.000021,-0.002119,0.002554,0.287169,0.273577,-0.070450,-0.915274,18.799832,27.408634,-140.537854
53156,-3.542569,3.021213,8.158147,-0.499204,-0.713419,-0.459902,-0.177318,-0.294746,0.406836,-0.035607,0.030212,0.081502,0.999996,-0.000887,-0.001474,0.002034,0.289214,0.271802,-0.070600,-0.915147,18.781812,27.170547,-140.346445
53157,-3.792725,2.837441,8.422217,-0.529348,-0.409899,-0.173120,-0.161595,-0.223298,0.303071,-0.038064,0.028385,0.084157,0.999998,-0.000808,-0.001116,0.001515,0.290787,0.270406,-0.070579,-0.915064,18.749956,26.989754,-140.203890
53158,-3.856770,2.951880,8.916702,-0.664668,-0.471851,0.308150,-0.225070,-0.205233,0.206712,-0.038690,0.029579,0.089094,0.999998,-0.001125,-0.001026,0.001034,0.292010,0.269039,-0.070109,-0.915114,18.656568,26.837275,-140.116071
53159,-4.032700,2.692189,9.171828,-0.776570,-0.163891,0.531536,-0.255330,-0.216255,0.130613,-0.040444,0.027013,0.091640,0.999998,-0.001277,-0.001081,0.000653,0.292920,0.267598,-0.069416,-0.915298,18.523810,26.692138,-140.076767
53160,-4.163177,2.676133,9.493446,-0.830052,-0.085635,0.860776,-0.224656,-0.265716,0.064515,-0.041766,0.026854,0.094849,0.999998,-0.001123,-0.001329,0.000323,0.293469,0.266002,-0.068845,-0.915630,18.386256,26.532918,-140.087153
53161,-4.183006,2.604642,9.650702,-0.893692,-0.018182,0.986320,-0.223989,-0.348107,0.030124,-0.042002,0.026148,0.096405,0.999998,-0.001120,-0.001741,0.000151,0.293830,0.264035,-0.068354,-0.916121,18.232538,26.334265,-140.134747
53162,-4.089779,2.392545,9.618506,-1.001125,0.109810,0.862130,-0.172662,-0.414514,0.011402,-0.041098,0.024006,0.096079,0.999997,-0.000863,-0.002073,0.000057,0.294014,0.261851,-0.068169,-0.916702,18.097922,26.103482,-140.206058
53163,-4.422607,2.687776,9.794970,-0.665263,0.070875,1.245214,-0.086025,-0.496246,0.006201,-0.044470,0.026918,0.097828,0.999997,-0.000430,-0.002481,0.000031,0.294030,0.259413,-0.068495,-0.917366,18.004900,25.828130,-140.296254
53164,-4.549504,2.927091,9.916882,-0.461206,-0.028569,1.474316,-0.095322,-0.641011,0.025613,-0.045816,0.029312,0.099008,0.999995,-0.000477,-0.003205,0.000128,0.294096,0.256295,-0.069015,-0.918182,17.900306,25.471147,-140.402050
53165,-4.299221,2.869210,9.848451,-0.558036,-0.089257,1.295314,-0.113415,-0.759921,0.052985,-0.043374,0.028736,0.098304,0.999993,-0.000567,-0.003800,0.000265,0.294265,0.252584,-0.069662,-0.919106,17.783462,25.043449,-140.513588
53166,-4.147979,3.091479,9.816986,-0.455206,-0.316235,1.270103,-0.099939,-0.853436,0.072091,-0.041909,0.030949,0.097976,0.999991,-0.000500,-0.004267,0.000360,0.294468,0.248460,-0.070530,-0.920099,17.673185,24.562055,-140.629994
53167,-3.779429,3.062335,9.816889,-0.640412,-0.461371,1.114775,-0.173836,-0.920208,0.075302,-0.038257,0.030694,0.097967,0.999989,-0.000869,-0.004601,0.000377,0.294747,0.243906,-0.071160,-0.921178,17.517546,24.042482,-140.755759
53168,-4.526156,2.914969,9.920827,-0.142181,0.134921,1.472990,-0.141044,-0.966032,0.091356,-0.045753,0.029199,0.098967,0.999988,-0.000705,-0.004830,0.000457,0.295038,0.239186,-0.072026,-0.922255,17.383159,23.495728,-140.878301
53169,-5.069787,3.656491,10.406367,0.497406,-0.099415,2.316049,-0.090656,-1.144611,0.134428,-0.051317,0.036578,0.103755,0.999983,-0.000453,-0.005723,0.000672,0.295394,0.233686,-0.073438,-0.923439,17.276352,22.842773,-141.006848
53170,-4.718878,3.311654,10.612015,0.110000,0.052143,2.263421,-0.237873,-1.405363,0.225749,-0.047970,0.033189,0.105745,0.999974,-0.001189,-0.007027,0.001129,0.296235,0.226729,-0.074657,-0.924805,17.090287,22.032270,-141.126289
53171,-3.437953,2.722477,9.899091,-0.635616,-0.129498,0.994722,-0.105347,-1.581275,0.285866,-0.035200,0.027227,0.098700,0.999968,-0.000527,-0.007906,0.001429,0.297121,0.219112,-0.076816,-0.926180,16.984067,21.114117,-141.239387
53172,-2.261704,3.224259,9.435867,-0.886481,-1.138379,0.309714,-0.062755,-1.501583,0.260849,-0.023367,0.032242,0.094175,0.999971,-0.000314,-0.007508,0.001304,0.297856,0.211930,-0.079019,-0.927428,16.904728,20.244563,-141.350386
53173,-2.684976,3.109200,9.349377,-0.474851,-0.720259,0.362833,-0.138464,-1.348042,0.189769,-0.027509,0.031131,0.093288,0.999977,-0.000692,-0.006740,0.000949,0.298387,0.205357,-0.080565,-0.928603,16.779217,19.469830,-141.473765
53174,-4.217363,3.564980,9.990774,0.744962,-0.101597,1.577816,-0.157636,-1.347050,0.104997,-0.042864,0.035706,0.099592,0.999977,-0.000788,-0.006735,0.000525,0.298531,0.198792,-0.081927,-0.929865,16.629241,18.710319,-141.643373
53175,-4.348473,3.182998,10.311259,0.666248,0.360895,1.797034,-0.409391,-1.594311,0.033094,-0.044310,0.032033,0.102696,0.999966,-0.002047,-0.007971,0.000165,0.298472,0.190711,-0.082415,-0.931532,16.312172,17.824985,-141.893061
53176,-3.222157,1.838439,9.783244,-0.491342,0.827996,0.605762,-0.416070,-1.750623,-0.001103,-0.033076,0.018588,0.097507,0.999960,-0.002080,-0.008753,-0.000006,0.298173,0.181901,-0.083063,-0.933330,15.983529,16.858753,-142.181783
53177,-2.694686,1.587361,9.490265,-0.744356,0.780751,0.121099,-0.140669,-1.730458,-0.060170,-0.027762,0.015949,0.094654,0.999962,-0.000703,-0.008652,-0.000301,0.297333,0.173598,-0.084908,-0.935012,15.810161,15.910749,-142.495509
53178,-3.167762,2.318277,9.965045,-0.024464,0.581313,0.881705,0.016039,-1.745627,-0.097052,-0.032535,0.023190,0.099371,0.999962,0.000080,-0.008728,-0.000485,0.296156,0.165467,-0.087468,-0.936623,15.726444,14.960405,-142.828851
53179,-3.485619,2.127589,10.133703,0.217991,1.035359,1.061381,0.091531,-1.864183,-0.067522,-0.035792,0.021242,0.101016,0.999956,0.000458,-0.009321,-0.000338,0.294978,0.156858,-0.090576,-0.938179,15.691404,13.938818,-143.162069
53180,-3.600578,2.414610,10.040107,0.654909,0.987998,1.058802,0.318155,-2.020279,0.053095,-0.037024,0.023977,0.100069,0.999948,0.001591,-0.010101,0.000265,0.294089,0.147789,-0.095061,-0.939486,15.802724,12.813550,-143.450774
53181,-2.866484,3.678982,9.963314,0.937087,-0.318642,1.143363,0.366264,-2.200520,0.151580,-0.029787,0.036585,0.099377,0.999938,0.001831,-0.011002,0.000758,0.293508,0.137874,-0.100100,-0.940651,15.952527,11.573310,-143.714351
53182,-1.060196,3.743412,9.277364,-0.063502,-1.348740,0.156244,0.044723,-2.240682,0.204074,-0.011679,0.037402,0.092655,0.999937,0.000224,-0.011203,0.001020,0.293338,0.127261,-0.103709,-0.941808,15.928322,10.303813,-143.954893
53183,-0.587370,2.987364,8.724646,-0.507060,-0.966769,-0.636943,-0.082647,-2.011895,0.197817,-0.006780,0.029903,0.087169,0.999949,-0.000413,-0.010059,0.000989,0.293305,0.117520,-0.106367,-0.942787,15.841894,9.160296,-144.160573
53184,-1.206346,3.134164,9.097267,0.114685,-0.585268,-0.133835,-0.157063,-1.884548,0.149061,-0.012943,0.031404,0.090829,0.999955,-0.000785,-0.009423,0.000745,0.293125,0.108293,-0.108448,-0.943710,15.716241,8.095071,-144.370391
53185,-1.079873,2.340570,9.159985,-0.266990,0.069945,-0.301061,-0.286668,-1.825590,0.113373,-0.011647,0.023530,0.091462,0.999957,-0.001433,-0.009128,0.000567,0.292853,0.099155,-0.109804,-0.944642,15.519084,7.066404,-144.587536
53186,-1.694251,1.877431,9.246891,0.114496,0.887119,-0.268173,-0.107825,-1.771562,0.090565,-0.017769,0.018816,0.092304,0.999961,-0.000539,-0.008858,0.000453,0.292390,0.090547,-0.111903,-0.945403,15.428155,6.071420,-144.805760
53187,-1.302028,2.508197,9.313363,0.262939,0.255313,-0.087041,0.006156,-1.844679,0.052293,-0.013885,0.025076,0.093009,0.999957,0.000031,-0.009223,0.000261,0.291629,0.081766,-0.114623,-0.946112,15.403237,5.040785,-145.055189
53188,-0.892818,2.309235,9.538403,-0.083118,0.313183,0.036348,-0.017994,-1.739601,0.041022,-0.009762,0.023099,0.095299,0.999962,-0.000090,-0.008698,0.000205,0.290862,0.073454,-0.117060,-0.946732,15.369797,4.070660,-145.293731
53189,-3.669391,2.779592,10.611545,2.368119,1.810152,1.363516,0.263817,-1.746441,0.089145,-0.037631,0.027640,0.105826,0.999961,0.001319,-0.008732,0.000446,0.290192,0.065479,-0.120851,-0.947046,15.503304,3.088779,-145.507435
53190,-3.510388,4.365064,11.220661,3.148700,0.705645,2.305942,0.222732,-2.302552,0.188949,-0.036434,0.043492,0.111841,0.999933,0.001114,-0.011513,0.000945,0.289642,0.054751,-0.125273,-0.947321,15.616288,1.785916,-145.753248
53191,0.534280,2.692353,9.242652,-0.523073,-0.497281,-0.198379,-0.261877,-2.541221,0.330796,0.004124,0.027052,0.092449,0.999917,-0.001309,-0.012706,0.001654,0.289702,0.042088,-0.127765,-0.947617,15.458212,0.328855,-145.956811
53192,2.139582,1.288628,7.626499,-2.185022,-0.514192,-2.108109,0.106282,-2.173804,0.369098,0.020541,0.012884,0.076498,0.999939,0.000531,-0.010869,0.001845,0.290060,0.031675,-0.131459,-0.947407,15.515582,-0.930790,-146.081580
53193,1.409905,3.040924,8.445122,-0.624511,-1.201790,-0.828328,0.464186,-1.688646,0.247228,0.013348,0.030230,0.084636,0.999961,0.002321,-0.008443,0.001236,0.290074,0.024149,-0.136113,-0.946967,15.780238,-1.904271,-146.202330
53194,-1.080257,4.094053,10.035533,1.933309,-0.151478,0.905384,0.193042,-1.593558,0.251625,-0.011653,0.040829,0.100304,0.999967,0.000965,-0.007968,0.001258,0.290185,0.016681,-0.139335,-0.946626,15.891059,-2.824928,-146.308887
53195,-0.146783,2.824542,9.933441,0.627284,0.416056,0.487947,-0.094878,-1.850494,0.378330,-0.002440,0.028289,0.099301,0.999955,-0.000474,-0.009252,0.001892,0.290717,0.007484,-0.141568,-0.946248,15.837035,-3.907662,-146.386502
53196,0.383198,1.679844,9.234515,-0.220397,0.952167,-0.469931,0.232637,-1.844528,0.486194,0.002939,0.016699,0.092394,0.999954,0.001163,-0.009222,0.002431,0.291726,-0.001280,-0.145331,-0.945396,15.967525,-5.003310,-146.404238
53197,1.639502,2.918576,8.643171,-0.401250,-0.750152,-0.583178,0.558067,-1.855977,0.527663,0.015515,0.028986,0.086659,0.999950,0.002790,-0.009280,0.002638,0.292896,-0.009658,-0.150636,-0.944154,16.283127,-6.112407,-146.405315
53198,2.134674,3.611334,8.329128,-0.290067,-1.530080,-0.617817,0.385065,-1.555587,0.480583,0.020611,0.036003,0.083523,0.999965,0.001925,-0.007778,0.002403,0.294037,-0.016830,-0.154673,-0.943046,16.497658,-7.048134,-146.388591
53199,0.002124,3.365313,9.385392,1.382101,0.251246,0.058275,0.114751,-1.371538,0.404263,-0.000690,0.033598,0.093870,0.999974,0.000574,-0.006858,0.002021,0.294919,-0.023478,-0.157164,-0.942216,16.558904,-7.871064,-146.386287
53200,0.370763,2.388981,9.344776,0.650647,0.884590,-0.223027,0.063271,-1.588531,0.427879,0.002914,0.023867,0.093481,0.999966,0.000316,-0.007943,0.002139,0.295719,-0.031235,-0.159718,-0.941310,16.594017,-8.816317,-146.407260
53201,1.729825,1.762846,8.677267,-0.680391,0.507813,-0.830910,0.243836,-1.534899,0.458459,0.016591,0.017561,0.086923,0.999967,0.001219,-0.007674,0.002292,0.296713,-0.038500,-0.163028,-0.940160,16.728990,-9.737717,-146.403910
53202,1.557271,2.468878,8.517913,-0.033453,0.108685,-0.809315,0.492872,-1.419640,0.465922,0.014910,0.024514,0.085347,0.999969,0.002464,-0.007098,0.002330,0.297866,-0.044853,-0.167325,-0.938758,17.003009,-10.596571,-146.380129
53203,1.889485,3.241781,8.269824,0.230535,-0.643464,-0.757269,0.428342,-1.326098,0.479646,0.018268,0.032285,0.082890,0.999973,0.002142,-0.006630,0.002398,0.299129,-0.050876,-0.171168,-0.937355,17.235880,-11.407215,-146.336553
53204,2.214401,2.985176,8.005070,-0.096750,-0.627085,-1.009715,0.294738,-1.145609,0.520190,0.021607,0.029790,0.080219,0.999979,0.001474,-0.005728,0.002601,0.300689,-0.056281,-0.174095,-0.936007,17.381164,-12.125578,-146.241383
53205,1.788530,3.053509,8.206494,0.365127,-0.298278,-0.888218,0.318780,-0.969347,0.572371,0.017400,0.030454,0.082199,0.999983,0.001594,-0.004847,0.002862,0.302641,-0.060873,-0.176850,-0.934573,17.526516,-12.757422,-146.087758
53206,1.400327,3.279850,8.496289,0.884647,-0.078569,-0.641228,0.270512,-0.902460,0.608660,0.013520,0.032725,0.085069,0.999984,0.001353,-0.004512,0.003043,0.304797,-0.065250,-0.179259,-0.933117,17.635542,-13.358724,-145.902821
53207,2.000731,2.700633,8.169195,0.124212,-0.030285,-0.980073,0.169443,-0.858431,0.619027,0.019573,0.026998,0.081799,0.999986,0.000847,-0.004292,0.003095,0.306999,-0.069588,-0.181123,-0.931721,17.681719,-13.938615,-145.704723
53208,2.338624,2.334570,7.767666,-0.311158,-0.041105,-1.377223,0.252535,-0.718667,0.579743,0.023039,0.023315,0.077789,0.999989,0.001263,-0.003593,0.002899,0.309166,-0.073105,-0.183167,-0.930334,17.772958,-14.435025,-145.503690
53209,2.170644,2.537098,7.935259,-0.005089,0.014014,-1.203601,0.285457,-0.538287,0.530476,0.021426,0.025315,0.079447,0.999992,0.001427,-0.002691,0.002652,0.311273,-0.075691,-0.185101,-0.929041,17.880483,-14.825328,-145.298373
53210,1.529333,2.587406,8.359480,0.580089,0.543230,-0.964944,0.340161,-0.446656,0.523192,0.015039,0.025771,0.083672,0.999993,0.001701,-0.002233,0.002616,0.313449,-0.077752,-0.187144,-0.927729,18.014898,-15.164233,-145.080771
53211,1.508635,2.961379,8.340927,0.853682,0.325558,-0.880626,0.407701,-0.451753,0.587023,0.014811,0.029487,0.083503,0.999991,0.002039,-0.002259,0.002935,0.315936,-0.079795,-0.189483,-0.926236,18.177639,-15.518364,-144.828758
53212,1.936262,3.097919,8.042394,0.621910,-0.079377,-1.001729,0.373670,-0.364150,0.649529,0.019116,0.030891,0.080517,0.999991,0.001868,-0.001821,0.003248,0.318777,-0.081539,-0.191496,-0.924696,18.305602,-15.836105,-144.525480
53213,1.595662,3.048690,8.167299,0.890532,0.241202,-0.998268,0.301032,-0.301616,0.676455,0.015730,0.030417,0.081743,0.999992,0.001505,-0.001508,0.003382,0.321767,-0.083138,-0.193060,-0.923191,18.383077,-16.125701,-144.195513
53214,1.854696,2.493621,8.012789,0.361591,0.470039,-1.238832,0.346150,-0.258731,0.711718,0.018355,0.024863,0.080195,0.999991,0.001731,-0.001294,0.003559,0.324975,-0.084495,-0.194744,-0.921589,18.476922,-16.398362,-143.837333
53215,1.958127,2.922119,8.129474,0.574955,0.196720,-0.975725,0.484621,-0.218406,0.758093,0.019382,0.029098,0.081387,0.999989,0.002423,-0.001092,0.003790,0.328487,-0.085489,-0.196979,-0.919775,18.638956,-16.658765,-143.445477
53216,2.260702,3.127896,7.883416,0.483374,-0.178909,-1.050443,0.490725,-0.152642,0.814264,0.022420,0.031177,0.078928,0.999988,0.002454,-0.000763,0.004071,0.332319,-0.086219,-0.199104,-0.917871,18.790031,-16.894412,-143.009268
53217,2.047260,3.120709,7.920489,0.655382,0.007180,-1.081450,0.541587,-0.026893,0.885474,0.020324,0.031083,0.079292,0.999987,0.002708,-0.000134,0.004427,0.336615,-0.086360,-0.201220,-0.915829,18.949954,-17.076592,-142.508637
53218,1.848313,3.489713,7.980689,1.054651,-0.059152,-0.971323,0.664002,-0.000219,1.008514,0.018308,0.034725,0.079922,0.999982,0.003320,-0.000001,0.005043,0.341544,-0.086291,-0.203790,-0.913439,19.156269,-17.268487,-141.933026
53219,2.402727,3.505943,7.716686,0.651683,-0.461039,-1.039173,0.663426,0.082749,1.140290,0.023860,0.034940,0.077273,0.999978,0.003317,0.000414,0.005701,0.347145,-0.085977,-0.206152,-0.910824,19.333479,-17.442554,-141.266547
53220,2.597921,3.261842,7.462508,0.346294,-0.480027,-1.284655,0.821173,0.233235,1.323649,0.025851,0.032483,0.074728,0.999969,0.004106,0.001166,0.006618,0.353786,-0.084886,-0.208880,-0.907744,19.558986,-17.572202,-140.466056
53221,2.604065,4.166625,7.625834,0.956495,-0.959587,-0.842779,1.029405,0.371523,1.497035,0.025872,0.041467,0.076424,0.999957,0.005147,0.001858,0.007485,0.361420,-0.082976,-0.212221,-0.904131,19.864359,-17.664621,-139.539697
53222,3.218065,4.103929,7.453179,0.476072,-1.327501,-0.826084,0.879646,0.528917,1.715523,0.032026,0.040986,0.074627,0.999950,0.004398,0.002645,0.008577,0.370114,-0.080847,-0.214489,-0.900263,20.035283,-17.718334,-138.457413
53223,3.221398,3.520689,7.422191,0.072526,-0.947347,-1.040070,1.012733,0.794319,1.948185,0.032166,0.035144,0.074272,0.999932,0.005064,0.003972,0.009741,0.380148,-0.077519,-0.216748,-0.895823,20.226018,-17.678746,-137.189149
53224,2.918659,4.262723,7.631104,0.804554,-1.081563,-0.696448,1.301264,0.909557,2.213161,0.029064,0.042452,0.076455,0.999907,0.006506,0.004548,0.011065,0.391546,-0.073400,-0.219939,-0.890467,20.530095,-17.635004,-135.747338
53225,4.095821,4.471158,7.218821,0.180851,-2.138126,-0.632601,1.295574,1.112818,2.519572,0.040796,0.044758,0.072251,0.999884,0.006478,0.005564,0.012597,0.404446,-0.068710,-0.222553,-0.884405,20.767773,-17.551073,-134.090637
53226,4.543528,4.207244,6.754305,-0.251718,-2.495443,-0.999375,1.425983,1.482881,2.844903,0.045336,0.042236,0.067507,0.999846,0.007130,0.007414,0.014224,0.419133,-0.062461,-0.224819,-0.877430,21.005678,-17.341656,-132.172909
53227,4.558647,4.624522,6.512700,0.118333,-2.848794,-1.068950,1.699101,1.887781,3.205039,0.045458,0.046421,0.065091,0.999791,0.008495,0.009438,0.016024,0.435786,-0.054250,-0.227246,-0.869199,21.324546,-16.999825,-129.968250
53228,3.135340,6.747412,7.260748,2.607280,-2.531700,-0.072650,1.820469,2.293726,3.479435,0.031016,0.067353,0.072864,0.999741,0.009102,0.011468,0.017396,0.453923,-0.044293,-0.229129,-0.859937,21.658942,-16.510605,-127.524406
53229,2.589154,6.250322,8.077491,2.439436,-1.468364,0.331725,1.117849,2.510675,3.696915,0.025750,0.062529,0.080801,0.999735,0.005589,0.012552,0.018483,0.472848,-0.035228,-0.227339,-0.850583,21.567121,-15.957350,-124.918082
53230,2.624429,2.979890,7.605169,-0.190619,-0.260910,-1.239428,1.071593,2.669577,3.896314,0.026676,0.029909,0.075858,0.999707,0.005357,0.013347,0.019480,0.492531,-0.025800,-0.224807,-0.840363,21.436598,-15.355684,-122.174945
53231,2.971211,3.145971,7.418160,-0.226732,-0.777389,-1.262959,1.599357,2.820800,3.852497,0.030151,0.031445,0.074010,0.999683,0.007996,0.014103,0.019260,0.511964,-0.014375,-0.223996,-0.829163,21.638826,-14.666613,-119.431530
53232,2.597177,3.831837,7.454703,0.487089,-0.784508,-1.086431,1.522299,3.040546,3.737578,0.026389,0.038242,0.074439,0.999681,0.007611,0.015201,0.018686,0.530839,-0.002096,-0.222160,-0.817833,21.836639,-13.844673,-116.709691
53233,1.557135,3.510165,8.088195,0.436940,0.368256,-0.877568,1.385039,3.279506,3.529109,0.016281,0.034825,0.080861,0.999686,0.006924,0.016396,0.017644,0.548786,0.011025,-0.219000,-0.806692,22.014050,-12.860615,-114.057336
53234,-0.360949,4.060058,8.984830,1.305763,2.123378,-0.266787,1.278992,3.136571,3.225017,-0.002845,0.039975,0.090154,0.999727,0.006394,0.015681,0.016124,0.565036,0.023609,-0.215649,-0.796035,22.217762,-11.894579,-111.608381
53235,0.061334,3.353631,9.303488,0.274796,1.921817,-0.115606,0.832321,2.927429,2.777556,0.001514,0.033166,0.093156,0.999788,0.004161,0.014636,0.013887,0.579057,0.034567,-0.210962,-0.786761,22.264464,-10.948469,-109.454534
53236,-0.287635,1.414801,9.702743,-1.599310,2.657530,-0.506641,0.484059,2.744704,2.195665,-0.001698,0.013890,0.097090,0.999843,0.002420,0.013723,0.010978,0.590444,0.044402,-0.205247,-0.779281,22.212084,-9.972224,-107.661510
53237,-0.027233,-0.246374,9.876793,-3.349454,2.612287,-0.892795,0.504627,2.416033,1.526900,0.000941,-0.002709,0.098755,0.999895,0.002523,0.012080,0.007634,0.598727,0.053689,-0.200387,-0.773620,22.273662,-9.026065,-106.305769
53238,0.035981,-0.810659,10.230875,-4.112740,2.542060,-0.760191,0.742569,2.177247,0.878823,0.001510,-0.008481,0.102265,0.999924,0.003713,0.010886,0.004394,0.604093,0.063408,-0.196945,-0.769586,22.552964,-8.068161,-105.350417
53239,-0.389884,0.540181,10.399013,-2.972185,2.545517,-0.155262,0.996579,1.823198,0.321741,-0.002959,0.004878,0.104045,0.999945,0.004983,0.009116,0.001609,0.606808,0.073067,-0.195351,-0.766997,23.042397,-7.180495,-104.767096
53240,0.935812,1.230694,9.770152,-2.597973,0.864684,-0.307622,0.914428,1.611081,-0.171120,0.010155,0.011852,0.097677,0.999957,0.004572,0.008055,-0.000856,0.607396,0.082143,-0.193883,-0.765985,23.529255,-6.297263,-104.486740
53241,1.826711,1.526151,9.098444,-2.425886,-0.318631,-0.732021,0.838335,1.650150,-0.561042,0.019059,0.014828,0.090892,0.999953,0.004192,0.008251,-0.002805,0.606505,0.091502,-0.191828,-0.766147,23.995984,-5.306318,-104.396064
53242,2.744165,1.926360,8.476978,-2.172441,-1.540592,-1.094643,0.800200,1.846365,-0.797788,0.028299,0.018813,0.084587,0.999941,0.004001,0.009232,-0.003989,0.604850,0.101720,-0.188903,-0.766893,24.448585,-4.157505,-104.375307
53243,3.125692,2.455989,7.857267,-1.665415,-2.284826,-1.473606,0.755648,2.226044,-0.952595,0.032245,0.024112,0.078309,0.999920,0.003778,0.011130,-0.004763,0.602899,0.113385,-0.184554,-0.767852,24.874556,-2.774745,-104.335721
53244,2.716505,3.233514,7.701316,-0.924473,-2.272174,-1.379283,0.698699,2.651471,-1.082727,0.028357,0.031915,0.076754,0.999891,0.003493,0.013257,-0.005413,0.600760,0.126616,-0.178596,-0.768869,25.267810,-1.139355,-104.250377
53245,2.164802,3.480477,7.373741,-0.546012,-2.065953,-1.651850,0.581575,3.090586,-1.171424,0.022987,0.034459,0.073490,0.999859,0.002908,0.015452,-0.005857,0.598598,0.141223,-0.170769,-0.769789,25.595853,0.743730,-104.092866
53246,0.740637,3.404590,7.411497,-0.390956,-0.928315,-1.685710,0.574117,3.473243,-1.222387,0.008900,0.033782,0.074066,0.999826,0.002870,0.017365,-0.006112,0.596383,0.157288,-0.161678,-0.770356,25.928078,2.836797,-103.855178
53247,-0.412266,3.208028,7.492109,-0.442338,-0.046025,-1.664892,0.663073,3.720450,-1.252886,-0.002527,0.031851,0.075084,0.999802,0.003315,0.018601,-0.006264,0.593961,0.174527,-0.152110,-0.770463,26.323913,5.062278,-103.557219
53248,-1.100794,2.621846,7.233949,-0.798401,0.460333,-2.095332,0.616085,3.933230,-1.367818,-0.009403,0.026063,0.072615,0.999778,0.003080,0.019665,-0.006839,0.591049,0.192470,-0.141564,-0.770438,26.706493,7.425074,-103.247224
53249,-1.850472,2.351918,6.631467,-0.708726,0.958575,-2.636211,0.770440,4.181737,-1.678406,-0.016915,0.023409,0.066770,0.999739,0.003852,0.020907,-0.008391,0.586685,0.211944,-0.130513,-0.770614,27.178750,9.992179,-103.013211
53250,-2.430621,3.141757,7.013715,-0.230062,0.938929,-1.811273,0.676061,4.463138,-2.220470,-0.022383,0.031435,0.070757,0.999684,0.003380,0.022313,-0.011101,0.580178,0.232466,-0.117622,-0.771698,27.571980,12.844326,-102.962822
53251,-3.889345,1.815325,7.482961,-1.376743,2.275688,-1.607474,0.019983,4.764320,-2.664819,-0.036850,0.018646,0.075726,0.999628,0.000100,0.023819,-0.013322,0.572499,0.252339,-0.100731,-0.773579,27.556260,15.966282,-103.053080
53252,-4.942134,-0.374172,6.891658,-2.760955,3.638783,-2.658631,0.138163,4.903065,-3.149378,-0.047764,-0.003029,0.070099,0.999575,0.000691,0.024512,-0.015745,0.562410,0.273139,-0.083207,-0.775994,27.536736,19.287904,-103.365092
53253,-6.772538,-0.335503,7.019205,-2.478778,4.864950,-1.724753,0.791363,5.030741,-3.665818,-0.065982,-0.002417,0.071856,0.999508,0.003956,0.025150,-0.018326,0.548965,0.296226,-0.067076,-0.778709,27.785477,22.811678,-103.921498
53254,-8.732204,0.075564,7.190390,-1.900636,5.932907,-0.372631,1.131804,4.973497,-3.932560,-0.085466,0.002033,0.074054,0.999482,0.005658,0.024863,-0.019659,0.533405,0.319825,-0.051966,-0.781339,28.131912,26.381402,-104.637277
53255,-9.242459,0.624862,6.370544,-0.995390,5.820174,-0.247207,1.547628,4.829518,-4.216690,-0.090698,0.007669,0.065965,0.999456,0.007737,0.024143,-0.021080,0.515468,0.343697,-0.038351,-0.784025,28.580330,29.960062,-105.555077
53256,-10.351501,2.150627,6.525286,0.239424,5.395431,1.374128,1.913627,4.665045,-4.402660,-0.101455,0.023114,0.067852,0.999440,0.009566,0.023321,-0.022009,0.495574,0.367532,-0.026237,-0.786535,29.105610,33.514571,-106.633074
53257,-10.826847,4.222612,6.514863,1.773011,4.020207,2.762345,1.923208,4.392670,-4.677907,-0.105780,0.044076,0.067908,0.999439,0.009614,0.021959,-0.023385,0.473990,0.389939,-0.014292,-0.789352,29.420723,37.016890,-107.986780
53258,-12.651932,5.744806,7.276077,2.701902,3.457400,5.243296,1.448793,4.052418,-4.877524,-0.123563,0.059944,0.075713,0.999471,0.007243,0.020259,-0.024383,0.452004,0.409477,-0.000885,-0.792477,29.207200,40.406151,-109.648461
53259,-15.355550,6.957461,9.691005,2.574596,2.823949,9.251035,0.897919,3.082053,-4.523310,-0.150416,0.072557,0.099566,0.999615,0.004489,0.015408,-0.022614,0.432130,0.423548,0.011797,-0.796073,28.449717,43.199871,-111.548499
53260,-13.450227,7.134137,10.172403,1.841031,0.398260,8.399834,0.290033,1.715378,-3.624126,-0.132302,0.073603,0.102971,0.999798,0.001450,0.008576,-0.018119,0.416951,0.430675,0.022026,-0.800116,27.280113,45.035790,-113.461032
53261,-11.925650,4.674640,11.021584,-0.692468,0.086758,7.070266,-0.925618,0.587745,-3.554866,-0.118070,0.049363,0.110340,0.999827,-0.004628,0.002939,-0.017773,0.404632,0.430603,0.034621,-0.806012,25.029785,46.233070,-115.859522
53262,-10.645244,-1.758566,9.824295,-4.335504,3.700424,3.619314,-1.251257,-0.441258,-3.579839,-0.106954,-0.015060,0.098107,0.999818,-0.006256,-0.002206,-0.017898,0.392952,0.425570,0.046477,-0.813830,22.223077,46.820174,-118.733041
53263,-11.208467,-3.476990,9.069643,-4.386121,5.334713,3.311963,0.491281,-1.017569,-4.473810,-0.113287,-0.032466,0.090040,0.999734,0.002456,-0.005087,-0.022367,0.373881,0.421214,0.052004,-0.824674,19.710543,47.190354,-122.545257
53264,-12.702280,0.177272,9.927395,-1.459394,3.077786,5.944790,1.185703,-1.958354,-5.141933,-0.127895,0.004470,0.098046,0.999604,0.005928,-0.009790,-0.025706,0.350596,0.413830,0.054270,-0.838381,16.996991,47.049866,-127.168792
53265,-11.763996,1.522118,9.028527,0.185440,1.718332,4.992817,1.069450,-2.823889,-5.170658,-0.118462,0.017800,0.088707,0.999552,0.005346,-0.014117,-0.025849,0.327367,0.402252,0.055535,-0.853194,14.120693,46.282732,-131.956688
53266,-10.162729,2.515063,8.183363,1.152914,0.255955,3.421920,1.118519,-3.315958,-5.046335,-0.102297,0.027274,0.080290,0.999529,0.005592,-0.016577,-0.025228,0.304410,0.388326,0.055469,-0.868021,11.443141,45.066056,-136.588291
53267,-9.671219,2.203411,8.275265,1.190127,0.076235,3.048842,0.635485,-3.428732,-4.995119,-0.097526,0.024204,0.081160,0.999536,0.003177,-0.017141,-0.024972,0.282357,0.372823,0.057192,-0.882047,8.712904,43.629434,-141.005532
53268,-9.095163,-0.171121,7.551366,0.586340,1.888918,1.842134,0.721187,-3.647613,-4.735904,-0.092319,0.000196,0.073837,0.999547,0.003605,-0.018235,-0.023676,0.261094,0.356212,0.057677,-0.895330,6.382747,41.910849,-145.038155
53269,-7.767004,0.949082,6.646460,1.380698,0.549117,0.345113,1.528333,-3.571287,-4.411451,-0.078614,0.010717,0.065145,0.999568,0.007641,-0.017854,-0.022054,0.239591,0.340771,0.054036,-0.907497,4.892391,40.119976,-148.633828
53270,-7.184152,3.968708,6.856343,2.616209,-2.466242,0.259031,1.710086,-3.408960,-4.134732,-0.072167,0.040596,0.067680,0.999605,0.008549,-0.017043,-0.020671,0.218795,0.326081,0.049232,-0.918355,3.821229,38.349781,-151.869316
53271,-6.927866,4.265184,7.256697,2.572210,-3.020282,0.341226,0.881355,-3.202875,-3.730123,-0.069623,0.043631,0.071645,0.999688,0.004406,-0.016013,-0.018649,0.201000,0.311296,0.047780,-0.927583,2.607123,36.634897,-154.683753
53272,-8.095897,1.742708,7.603839,2.504739,-0.484908,1.136222,0.667339,-3.132325,-3.287649,-0.081839,0.018517,0.074822,0.999737,0.003336,-0.015660,-0.016437,0.185460,0.296554,0.046660,-0.935673,1.584862,34.908114,-157.079093
53273,-9.883103,1.512563,8.653476,3.595075,0.024577,2.911471,1.193214,-3.409138,-3.033005,-0.100048,0.016127,0.084930,0.999722,0.005966,-0.017044,-0.015164,0.170294,0.280900,0.042433,-0.943554,1.065397,32.993346,-159.223097
53274,-10.956872,2.171095,9.542922,4.685469,-0.467586,4.102624,1.185438,-3.992134,-2.854551,-0.111126,0.022732,0.093354,0.999681,0.005927,-0.019959,-0.014271,0.156005,0.262364,0.037458,-0.951538,0.704855,30.729522,-161.184624
53275,-10.822585,1.669997,9.810576,4.866040,-0.090381,4.059627,1.020623,-4.649785,-2.768337,-0.110228,0.017724,0.095647,0.999621,0.005102,-0.023246,-0.013840,0.142357,0.240403,0.032628,-0.959623,0.378318,28.078605,-163.029184
53276,-7.640723,0.486389,9.101163,2.773428,0.320436,1.746820,0.798604,-5.145397,-2.856479,-0.078638,0.005618,0.089029,0.999559,0.003992,-0.025723,-0.014280,0.128518,0.215697,0.028576,-0.967544,0.009123,25.134047,-164.865439
53277,-3.297165,-0.662191,8.218625,-0.429261,0.560650,-0.961807,0.953612,-5.154525,-2.839801,-0.035167,-0.006522,0.081267,0.999556,0.004767,-0.025769,-0.014197,0.114481,0.190859,0.023738,-0.974630,-0.159185,22.176980,-166.632571
53278,-1.309809,-0.416349,7.264212,-1.419943,0.112111,-2.558866,1.628059,-4.625449,-2.504620,-0.014828,-0.004574,0.072276,0.999621,0.008139,-0.023124,-0.012522,0.101276,0.168866,0.015565,-0.980299,0.224131,19.525737,-168.164691
53279,-4.058523,3.898488,8.637105,1.840471,-3.485481,-0.287790,2.792929,-4.408117,-2.120707,-0.042075,0.038223,0.085992,0.999603,0.013963,-0.022038,-0.010602,0.088875,0.148427,0.001470,-0.984921,1.407502,17.016007,-169.477162
53280,-2.763422,6.446123,9.408406,1.119989,-6.039979,0.185369,1.951702,-4.438009,-1.506297,-0.029240,0.063759,0.094072,0.999678,0.009757,-0.022188,-0.007531,0.080058,0.127364,-0.008967,-0.988579,2.256660,14.500209,-170.453075
53281,-6.953324,3.576735,10.802375,4.699941,-2.422371,2.428802,0.479406,-4.296734,-1.115122,-0.071634,0.035906,0.106586,0.999751,0.002397,-0.021482,-0.005575,0.074075,0.106321,-0.012305,-0.991493,2.353191,12.064320,-171.206007
53282,-5.235319,0.104282,9.388740,3.332122,0.796355,0.375854,0.781615,-5.035364,-1.280356,-0.054688,0.001025,0.092534,0.999655,0.003908,-0.025174,-0.006401,0.067021,0.081674,-0.017329,-0.994252,2.636508,9.211960,-172.074778
53283,-0.559104,-0.708532,8.030947,-0.673774,1.038317,-1.827437,1.256407,-4.900979,-1.471147,-0.007610,-0.007538,0.080093,0.999653,0.006281,-0.024502,-0.007355,0.058792,0.057819,-0.024570,-0.996291,3.216605,6.449110,-173.064410
53284,0.284320,-0.370750,6.615971,-0.961492,0.690530,-3.287415,1.775959,-4.483102,-1.637670,0.001326,-0.004310,0.066164,0.999676,0.008879,-0.022413,-0.008187,0.049594,0.036176,-0.034219,-0.997527,4.130430,3.943813,-174.165286
53285,1.767673,2.470640,5.966858,-1.877030,-2.143335,-3.754028,2.519666,-4.078488,-1.526875,0.016635,0.023820,0.060319,0.999684,0.012597,-0.020390,-0.007634,0.040853,0.016695,-0.047466,-0.997897,5.516872,1.687160,-175.230030
53286,0.842637,4.504078,6.926839,-0.651636,-3.799437,-2.456658,2.166194,-3.391118,-1.071113,0.007483,0.044244,0.069883,0.999783,0.010830,-0.016954,-0.005355,0.034555,0.000451,-0.058832,-0.997670,6.743269,-0.181370,-176.043304
53287,-4.175841,5.722960,8.720871,4.637897,-4.286729,-0.520188,1.795178,-3.274551,-0.591146,-0.043016,0.056574,0.087021,0.999821,0.008975,-0.016372,-0.002956,0.030674,-0.015415,-0.068298,-0.997074,7.777878,-2.001719,-176.611902
53288,0.052008,5.504176,7.878516,0.637335,-4.297735,-1.240322,1.389936,-3.585069,-0.259771,-0.000826,0.054493,0.079158,0.999814,0.006949,-0.017924,-0.001299,0.028295,-0.033001,-0.075747,-0.996179,8.593045,-4.016057,-177.047919
53289,0.677073,2.164713,7.550868,0.034025,-0.997282,-1.992202,0.339353,-2.962238,0.010759,0.005650,0.021519,0.075634,0.999889,0.001697,-0.014811,0.000054,0.027318,-0.047722,-0.077806,-0.995451,8.803917,-5.696647,-177.294918
53290,-0.972298,0.700239,7.378074,1.782544,0.553407,-2.575028,0.934722,-2.918433,-0.151445,-0.010793,0.006666,0.073660,0.999882,0.004673,-0.014592,-0.000757,0.025686,-0.062074,-0.082846,-0.994295,9.374800,-7.336517,-177.642690
53291,3.783768,2.303358,6.545226,-2.732940,-1.250569,-2.503526,1.677816,-2.824777,-0.170969,0.036926,0.022449,0.066168,0.999865,0.008389,-0.014123,-0.000855,0.024221,-0.075837,-0.091551,-0.992613,10.384522,-8.916129,-178.016195
53292,4.086188,3.424419,6.088509,-2.861610,-2.316467,-2.606081,1.470675,-2.066228,0.078242,0.040215,0.033809,0.061552,0.999920,0.007353,-0.010331,0.000391,0.024255,-0.085963,-0.099024,-0.991068,11.252122,-10.089920,-178.192560
53293,1.523241,4.205800,7.247854,0.049961,-2.649694,-1.718635,1.576679,-1.643590,0.591028,0.014511,0.041528,0.072929,0.999931,0.007883,-0.008218,0.002955,0.027082,-0.094220,-0.106735,-0.989443,12.124070,-11.083034,-178.044936
53294,0.311344,4.036155,8.973691,1.727216,-1.917947,-0.312907,1.805914,-1.851968,1.589612,0.001964,0.039568,0.090118,0.999885,0.009029,-0.009259,0.007948,0.034840,-0.103995,-0.115119,-0.987279,13.017506,-12.319615,-177.368758
53295,1.320643,3.069600,8.866846,0.871203,-0.860346,-0.416959,2.280895,-2.004078,2.554237,0.011930,0.029839,0.089136,0.999803,0.011404,-0.010020,0.012770,0.047508,-0.114957,-0.125336,-0.984286,14.051873,-13.780908,-176.179900
53296,1.566801,3.082909,8.246030,0.758356,-0.825195,-0.941990,3.055361,-2.089115,3.226949,0.014316,0.029801,0.083075,0.999699,0.015275,-0.010445,0.016133,0.063854,-0.126521,-0.138936,-0.980108,15.411029,-15.411578,-174.642599
53297,3.902836,4.769807,7.093484,-1.185418,-2.737277,-0.902665,3.729037,-1.922481,3.465701,0.037520,0.047019,0.072181,0.999630,0.018643,-0.009611,0.017326,0.081867,-0.137130,-0.155539,-0.974834,17.077749,-17.027135,-172.974101
53298,4.512272,5.914765,6.747573,-1.288922,-3.781785,-0.598678,3.486991,-1.264721,3.582883,0.043636,0.058747,0.068781,0.999668,0.017433,-0.006323,0.017912,0.100741,-0.144631,-0.170503,-0.969465,18.517742,-18.347664,-171.151056
53299,2.650348,5.866140,7.818386,1.007718,-2.861093,-0.150864,3.011234,-0.667977,3.782313,0.025140,0.057959,0.079146,0.999702,0.015055,-0.003340,0.018910,0.120681,-0.149556,-0.182613,-0.964221,19.580233,-19.419695,-169.114392
53300,2.327246,4.979065,7.720270,1.286965,-1.800069,-0.598392,2.950092,-0.901639,4.049291,0.021923,0.049097,0.078031,0.999676,0.014749,-0.004508,0.020244,0.141575,-0.155797,-0.194251,-0.958097,20.533928,-20.703969,-166.978972
53301,5.629281,4.843158,6.031298,-1.906060,-2.914723,-0.902911,3.025884,-0.803514,4.256922,0.055013,0.048689,0.061271,0.999651,0.015128,-0.004017,0.021282,0.163520,-0.161609,-0.205897,-0.951184,21.436892,-22.010448,-164.707333
53302,5.926956,5.158091,6.184435,-1.740600,-3.122396,-0.474753,2.823183,0.175951,4.347475,0.058197,0.051974,0.062525,0.999664,0.014114,0.000880,0.021735,0.186631,-0.162913,-0.215558,-0.944544,22.078643,-22.843600,-162.160264
53303,2.624837,4.896828,8.097276,1.670276,-0.976361,-0.185212,2.390787,0.865672,4.601498,0.025479,0.048589,0.081444,0.999655,0.011953,0.004328,0.023005,0.211201,-0.161527,-0.222186,-0.938049,22.321902,-23.384051,-159.299068
53304,1.572703,5.320042,7.602007,2.817530,-0.996624,-0.889388,3.118488,0.205289,5.117778,0.014458,0.052387,0.076826,0.999551,0.015590,0.001026,0.025585,0.237881,-0.162914,-0.232324,-0.928923,22.883684,-24.406042,-156.284956
53305,7.418529,6.337444,5.032857,-1.723709,-5.067080,-0.228086,3.292541,0.228560,5.336611,0.072533,0.064485,0.051301,0.999508,0.016460,0.001143,0.026679,0.265518,-0.164086,-0.242853,-0.918476,23.433833,-25.491808,-153.124391
53306,4.757089,5.999538,6.877284,0.868519,-2.713867,0.076603,1.927402,1.812575,5.143867,0.046643,0.060539,0.068929,0.999582,0.009636,0.009062,0.025716,0.292835,-0.159415,-0.244939,-0.910406,23.038450,-25.703740,-149.663177
53307,2.462841,4.270192,7.842400,1.885310,0.106046,-0.744224,1.429909,1.616191,5.030455,0.024188,0.042753,0.078533,0.999625,0.007149,0.008080,0.025149,0.318763,-0.156101,-0.244956,-0.902230,22.392708,-25.966354,-146.308805
53308,6.111135,2.814602,6.760132,-1.810737,-1.342281,-0.545328,2.342116,1.456737,5.480502,0.060816,0.029025,0.067494,0.999529,0.011709,0.007283,0.027398,0.346971,-0.152471,-0.248772,-0.891334,22.144694,-26.387392,-142.714298
53309,7.150532,2.064292,5.657145,-3.024106,-2.192992,-1.243304,2.339611,2.141541,5.281928,0.071541,0.021874,0.056057,0.999526,0.011696,0.010706,0.026405,0.374811,-0.145404,-0.251317,-0.880463,21.860420,-26.387419,-139.065684
53310,6.422972,4.710834,5.285796,-0.430793,-3.672781,-0.997509,3.096477,2.682472,5.397035,0.063650,0.048014,0.052740,0.999426,0.015479,0.013410,0.026980,0.403998,-0.134530,-0.255820,-0.867896,21.930834,-26.117735,-135.223358
53311,6.402138,6.552845,5.976005,1.258623,-4.315247,0.158681,2.462839,3.277663,5.537571,0.063165,0.066551,0.059536,0.999407,0.012312,0.016385,0.027682,0.433653,-0.122380,-0.255991,-0.855241,21.573479,-25.553386,-131.172836
53312,4.830032,3.512376,5.835384,-0.052734,-1.914342,-1.685775,1.984293,3.855278,5.877084,0.048369,0.035969,0.057776,0.999333,0.009919,0.019272,0.029379,0.464663,-0.109075,-0.252322,-0.841739,20.856339,-24.715556,-126.818308
53313,4.218944,4.007534,6.045235,0.783617,-1.691720,-1.631744,2.730261,4.066899,5.805502,0.042243,0.040479,0.060144,0.999279,0.013648,0.020330,0.029021,0.495395,-0.092911,-0.251003,-0.826407,20.645783,-23.719258,-122.499298
53314,1.854116,4.867573,7.831710,2.506857,0.663261,-0.771583,2.157976,4.305276,5.420536,0.018916,0.048339,0.078435,0.999343,0.010788,0.021522,0.027097,0.523892,-0.076562,-0.246547,-0.811720,20.266768,-22.496200,-118.394233
53315,-0.990500,2.501039,9.627248,1.213741,4.550567,-0.996244,1.637606,3.948283,4.780831,-0.008581,0.024004,0.096650,0.999486,0.008187,0.019738,0.023900,0.548538,-0.062153,-0.240885,-0.798259,19.853932,-21.315166,-114.781504
53316,-1.915806,0.733312,11.236799,-0.616813,6.400877,-0.373016,1.378980,3.310996,3.751336,-0.017418,0.006219,0.112711,0.999663,0.006894,0.016553,0.018755,0.567766,-0.049696,-0.236039,-0.787056,19.627179,-20.258528,-111.928227
53317,-2.432711,-1.314742,11.708554,-2.720688,7.336132,-0.674642,1.022011,2.527223,2.578252,-0.022668,-0.014046,0.117309,0.999824,0.005110,0.012635,0.012891,0.581071,-0.039931,-0.232194,-0.779004,19.531490,-19.393564,-109.929522
53318,0.071895,-3.477868,11.484141,-5.709615,5.256477,-0.661275,0.911758,2.022322,1.444123,0.002133,-0.035290,0.114665,0.999912,0.004559,0.010111,0.007220,0.589201,-0.031120,-0.229540,-0.774070,19.646505,-18.582482,-108.690308
53319,-0.948669,-1.294758,11.439097,-3.555520,5.528742,-0.314494,1.353207,1.538073,0.517934,-0.008572,-0.013744,0.114368,0.999944,0.006766,0.007690,0.002590,0.593174,-0.021820,-0.230139,-0.771171,20.226072,-17.859217,-108.076610
53320,0.028820,1.677508,11.358641,-1.271634,3.939942,0.896644,1.401836,1.186271,0.165030,0.000949,0.015979,0.113696,0.999958,0.007009,0.005931,0.000825,0.595330,-0.013320,-0.231978,-0.769149,20.920320,-17.259356,-107.729338
53321,0.942146,4.231573,10.229312,0.933288,2.161918,1.044825,1.298321,0.886016,0.189723,0.009836,0.041660,0.102522,0.999969,0.006492,0.004430,0.000949,0.597182,-0.006314,-0.234296,-0.767098,21.571451,-16.829328,-107.427208
53322,3.603504,4.222190,8.078797,0.630226,-1.095368,-0.092528,0.824360,0.891823,0.269771,0.036339,0.041938,0.080800,0.999981,0.004122,0.004459,0.001349,0.599303,-0.000791,-0.234763,-0.765324,21.939104,-16.415355,-107.075922
53323,4.903667,3.330180,6.487408,-0.161954,-2.762799,-1.472262,0.750907,1.171774,0.337638,0.049360,0.033142,0.064710,0.999974,0.003755,0.005859,0.001688,0.601986,0.005502,-0.234101,-0.763400,22.239219,-15.869715,-106.622792
53324,6.020910,2.529295,5.414146,-0.917385,-4.115473,-2.451847,0.733602,1.562898,0.362896,0.060584,0.025205,0.053762,0.999961,0.003668,0.007814,0.001814,0.605184,0.013207,-0.232179,-0.761361,22.506543,-15.124144,-106.065803
53325,7.290388,0.444833,4.366997,-2.851583,-5.428649,-3.912373,0.803856,2.199446,0.257389,0.073373,0.004369,0.042882,0.999931,0.004019,0.010997,0.001287,0.608649,0.023665,-0.228571,-0.759435,22.800541,-14.022043,-105.420141
53326,6.960640,-0.668293,3.929839,-3.642408,-5.241397,-4.955106,1.176747,3.015103,-0.005515,0.070188,-0.006912,0.038203,0.999869,0.005883,0.015075,-0.000028,0.611883,0.038655,-0.223816,-0.757635,23.311428,-12.434661,-104.724479
53327,6.135759,-0.622111,3.893654,-3.396141,-4.663893,-5.351529,1.585633,3.872673,-0.305803,0.062086,-0.006618,0.037688,0.999780,0.007928,0.019362,-0.001529,0.614646,0.058456,-0.217856,-0.755865,24.067813,-10.337059,-103.975446
53328,3.584189,1.684032,4.767620,-1.083582,-2.568340,-4.277840,1.964783,4.776284,-0.675184,0.037025,0.016253,0.046963,0.999661,0.009823,0.023879,-0.003376,0.616544,0.083216,-0.210316,-0.754132,25.064340,-7.690826,-103.176277
53329,-0.560103,4.455650,6.012456,1.688333,1.001493,-2.570472,1.911088,5.350583,-0.902559,-0.003783,0.043998,0.060664,0.999586,0.009554,0.026749,-0.004512,0.617748,0.110138,-0.200559,-0.752352,26.061724,-4.707313,-102.311910
53330,-3.011762,6.101266,7.133584,2.959348,2.962123,-0.889178,1.431768,5.539484,-1.022543,-0.027808,0.060642,0.072563,0.999578,0.007158,0.027694,-0.005112,0.618439,0.136332,-0.188176,-0.750691,26.828861,-1.608196,-101.418391
53331,-4.493232,5.140046,7.398281,2.050878,4.190945,-0.893639,0.704853,5.521600,-0.962303,-0.042617,0.051345,0.075362,0.999601,0.003524,0.027604,-0.004811,0.619328,0.160032,-0.173013,-0.748925,27.227235,1.455488,-100.468979
53332,-5.108742,3.239089,7.182194,0.398287,4.699193,-1.694040,0.496303,5.312487,-1.074189,-0.048980,0.032477,0.073222,0.999630,0.002481,0.026559,-0.005370,0.619309,0.182289,-0.157488,-0.747278,27.551610,4.437631,-99.610825
53333,-5.390890,1.702997,7.441407,-1.189676,4.860094,-1.920869,0.539190,5.048915,-1.254469,-0.051900,0.017157,0.075787,0.999658,0.002696,0.025242,-0.006272,0.617930,0.203699,-0.142667,-0.745866,27.929852,7.327900,-98.893681
53334,-3.447061,0.764770,7.269211,-2.370427,2.763201,-2.598750,0.767701,4.820525,-1.618242,-0.032643,0.007636,0.073523,0.999669,0.003838,0.024100,-0.008090,0.614384,0.225094,-0.128933,-0.745145,28.441253,10.196589,-98.397366
53335,-3.461197,1.250900,7.527711,-2.222809,2.260214,-2.057395,0.985160,5.097386,-2.206472,-0.032540,0.012502,0.076186,0.999602,0.004925,0.025484,-0.011031,0.608134,0.248396,-0.114405,-0.745240,29.063817,13.360838,-98.091420
53336,-5.080762,0.921041,8.024201,-2.681646,3.386914,-1.305878,0.930278,5.108984,-2.672380,-0.048610,0.009492,0.081546,0.999574,0.004651,0.025541,-0.013360,0.599724,0.271644,-0.098963,-0.746155,29.620382,16.659053,-97.984927
53337,-5.716766,1.432563,7.857063,-2.228312,3.399442,-0.872860,1.280249,5.075216,-3.210617,-0.054914,0.014710,0.080077,0.999529,0.006400,0.025372,-0.016051,0.588277,0.295831,-0.084107,-0.747890,30.303310,20.092825,-98.130957
53338,-6.284607,2.280793,7.264336,-1.270197,3.285603,-0.591446,1.243084,5.071395,-3.758109,-0.060538,0.023501,0.074343,0.999483,0.006214,0.025353,-0.018787,0.574256,0.319839,-0.068233,-0.750518,30.861986,23.686003,-98.532056
53339,-8.070194,2.124448,7.356843,-1.326708,4.347155,0.339565,1.187132,5.054781,-4.139389,-0.078350,0.022437,0.075700,0.999449,0.005935,0.025269,-0.020693,0.558277,0.343408,-0.051510,-0.753488,31.282258,27.386759,-99.123751
53340,-9.972127,1.062233,6.796168,-1.690292,5.971133,0.589635,1.466607,4.770440,-4.168851,-0.097818,0.012164,0.070396,0.999471,0.007332,0.023848,-0.020841,0.541032,0.366329,-0.036531,-0.756143,31.781658,30.961736,-99.814738
53341,-10.978439,2.491853,6.195437,-0.158944,5.805385,1.647842,2.174815,4.501917,-4.356225,-0.107782,0.026587,0.064679,0.999450,0.010872,0.022505,-0.021777,0.521151,0.389787,-0.024565,-0.758858,32.549281,34.470444,-100.690814
53342,-12.705729,6.045687,7.965829,1.605530,4.144724,5.731004,2.203431,3.959099,-4.634751,-0.124007,0.062454,0.082814,0.999475,0.011015,0.019792,-0.023170,0.499532,0.410880,-0.013561,-0.762536,33.077731,37.812058,-101.928399
53343,-12.915659,6.743374,8.654269,1.607670,2.799682,6.821486,1.143697,3.102820,-4.469991,-0.126247,0.069773,0.088911,0.999614,0.005718,0.015512,-0.022347,0.480203,0.425678,-0.000970,-0.766944,32.762441,40.693319,-103.453871
53344,-13.180040,4.890281,9.353523,-0.129298,2.904065,6.819145,0.347434,2.204006,-4.456909,-0.129628,0.051644,0.095060,0.999689,0.001737,0.011019,-0.022282,0.462283,0.434823,0.012478,-0.772701,31.624159,43.118853,-105.449391
53345,-12.263621,1.899005,9.330973,-2.262955,3.341199,5.179058,-0.074199,1.224517,-4.620307,-0.121579,0.021842,0.094049,0.999714,-0.000371,0.006122,-0.023099,0.444431,0.438941,0.025653,-0.780483,29.719012,45.070334,-108.118053
53346,-13.217445,0.682684,9.814533,-2.904525,4.023716,5.898241,0.332202,0.198065,-4.924866,-0.131858,0.009913,0.098291,0.999695,0.001661,0.000990,-0.024622,0.424372,0.439660,0.035600,-0.790784,27.415833,46.516160,-111.590017
53347,-12.607310,1.254545,10.275595,-2.513363,2.680743,6.079781,0.447087,-0.799057,-5.224839,-0.126101,0.015611,0.102285,0.999648,0.002235,-0.003995,-0.026121,0.402770,0.436338,0.043631,-0.803419,24.570927,47.414711,-115.824029
53348,-11.283209,0.718557,9.165762,-2.018862,2.394004,4.399998,0.420866,-1.517143,-5.447607,-0.113275,0.010075,0.090819,0.999598,0.002104,-0.007585,-0.027234,0.380190,0.429703,0.050757,-0.817456,21.288823,47.827097,-120.586684
53349,-11.709016,0.933797,9.043449,-1.096866,2.260899,4.795790,0.807061,-1.834834,-5.746219,-0.117588,0.012350,0.089403,0.999537,0.004035,-0.009173,-0.028727,0.355307,0.422054,0.056319,-0.832139,17.925560,47.939418,-125.734777
53350,-12.080045,1.650605,9.516168,-0.213436,1.478407,5.580212,0.934792,-2.539877,-5.527122,-0.121487,0.019417,0.093708,0.999527,0.004673,-0.012697,-0.027631,0.330939,0.411370,0.059562,-0.847176,14.672562,47.428041,-130.851349
53351,-11.319920,2.579130,9.503585,0.618760,0.144659,5.176504,1.009493,-2.966087,-5.305535,-0.113864,0.028332,0.093489,0.999525,0.005047,-0.014828,-0.026523,0.307163,0.398676,0.061293,-0.861946,11.663488,46.462912,-135.751191
53352,-10.869087,1.784374,9.301852,0.660949,0.438651,4.581121,0.734801,-3.329350,-5.183313,-0.109714,0.020341,0.091269,0.999519,0.003673,-0.016644,-0.025912,0.284287,0.383657,0.063326,-0.876344,8.732020,45.107805,-140.421400
53353,-10.303431,0.001446,9.245901,0.048117,1.540130,3.943647,0.902259,-3.606647,-5.003840,-0.104642,0.002208,0.090588,0.999514,0.004511,-0.018030,-0.025015,0.261683,0.367341,0.063848,-0.890228,6.211372,43.428656,-144.762849
53354,-9.977550,0.780714,8.814812,1.129270,0.792274,3.451259,1.681753,-3.759943,-4.694010,-0.101201,0.009440,0.086329,0.999513,0.008407,-0.018797,-0.023466,0.238828,0.351111,0.060047,-0.903370,4.537410,41.532713,-148.661215
53355,-10.474515,3.913690,9.424625,3.076290,-2.017021,4.340189,1.880210,-3.930313,-4.571886,-0.105657,0.040670,0.092553,0.999501,0.009399,-0.019648,-0.022856,0.215987,0.334033,0.054896,-0.915837,3.247862,39.460999,-152.295050
53356,-11.266492,2.638681,10.246622,3.141595,-0.906032,5.292305,0.921922,-4.256500,-4.268388,-0.114222,0.028348,0.100174,0.999535,0.004609,-0.021279,-0.021339,0.196023,0.314194,0.053198,-0.927377,1.761569,37.128749,-155.538094
53357,-13.595656,0.013224,9.349289,5.045213,2.362986,5.716213,1.417485,-4.866070,-3.876604,-0.138149,0.002149,0.090160,0.999491,0.007086,-0.024326,-0.019380,0.177065,0.291809,0.047959,-0.938720,0.923375,34.390994,-158.350546
53358,-14.918586,2.876143,10.233717,7.498163,-0.134703,6.897895,2.180439,-5.745233,-3.753032,-0.151488,0.030503,0.098333,0.999352,0.010900,-0.028720,-0.018761,0.157585,0.265671,0.038105,-0.950333,0.756813,31.128722,-160.958886
53359,-12.834389,2.527268,9.314168,7.063183,-0.282640,4.602816,1.416288,-6.638926,-3.468134,-0.130888,0.026888,0.089011,0.999274,0.007080,-0.033187,-0.017336,0.140426,0.234377,0.030768,-0.961458,0.429671,27.343767,-163.276272
53360,-6.225933,2.254313,7.575275,2.883674,-1.477013,-0.289021,1.656285,-7.056695,-3.354815,-0.064501,0.022997,0.073692,0.999203,0.008279,-0.035274,-0.016770,0.123384,0.200904,0.021784,-0.971566,0.452191,23.313254,-165.431677
53361,0.209579,1.101740,5.586051,-1.933201,-1.553090,-4.684043,1.406412,-6.377956,-2.991003,0.000473,0.010609,0.055968,0.999355,0.007031,-0.031883,-0.014952,0.108107,0.170325,0.014054,-0.979339,0.565818,19.672982,-167.303419
53362,-4.806788,2.603649,7.555883,2.663396,-1.967364,-1.094982,2.523297,-5.444817,-2.814397,-0.049743,0.025784,0.074546,0.999451,0.012614,-0.027219,-0.014069,0.092549,0.144723,0.001174,-0.985134,1.463288,16.580393,-169.052922
53363,-3.113794,6.801164,7.544196,2.130445,-6.230752,-1.476217,3.225015,-5.693589,-2.349430,-0.032497,0.067170,0.075617,0.999396,0.016122,-0.028462,-0.011745,0.078669,0.118060,-0.015596,-0.989762,2.913404,13.370649,-170.569453
53364,-1.732855,7.745527,7.691004,1.141234,-7.197318,-1.503882,1.862724,-5.227879,-1.685373,-0.018694,0.076891,0.077151,0.999580,0.009312,-0.026136,-0.008426,0.068834,0.092988,-0.025838,-0.992949,3.737827,10.434304,-171.727472
53365,-1.942915,4.427829,7.561045,1.212187,-3.771093,-1.759723,0.889898,-4.977944,-1.175521,-0.021047,0.044063,0.075296,0.999663,0.004449,-0.024887,-0.005877,0.061963,0.068690,-0.031371,-0.995218,4.105191,7.633426,-172.600646
53366,-1.824134,2.026591,6.883180,1.220507,-1.361153,-2.639006,0.980750,-4.793199,-0.968653,-0.019788,0.020023,0.068468,0.999689,0.004903,-0.023964,-0.004843,0.056078,0.045257,-0.037360,-0.996700,4.579684,4.934930,-173.362009
53367,1.289779,2.319805,6.545663,-1.514559,-1.919580,-3.186689,1.489911,-4.597602,-0.982150,0.011498,0.022649,0.065902,0.999696,0.007449,-0.022986,-0.004910,0.050014,0.022921,-0.045797,-0.997435,5.378309,2.358025,-174.148134
53368,2.707065,2.164107,6.444506,-2.694530,-1.777098,-3.246278,1.256701,-3.906797,-0.822371,0.025891,0.021125,0.065092,0.999781,0.006283,-0.019533,-0.004112,0.044904,0.003917,-0.052902,-0.997582,6.079045,0.175614,-174.836088
53369,1.821675,2.883429,6.313343,-1.548356,-2.282894,-3.188724,1.653398,-3.319174,-0.765031,0.017272,0.028242,0.063660,0.999821,0.008266,-0.016595,-0.003825,0.040211,-0.012080,-0.061826,-0.997203,7.029895,-1.665499,-175.484066
53370,0.474174,4.137376,7.575363,0.103318,-3.115640,-1.750053,1.573501,-2.842549,-0.510078,0.003766,0.040765,0.076134,0.999865,0.007867,-0.014212,-0.002550,0.036918,-0.025796,-0.070229,-0.996514,7.948662,-3.244484,-175.982178
53371,-2.503454,3.363352,7.679184,3.207754,-2.006284,-1.924087,1.233562,-2.782244,-0.130931,-0.026080,0.033177,0.076639,0.999884,0.006168,-0.013911,-0.000655,0.035482,-0.039398,-0.076856,-0.995631,8.671932,-4.813088,-176.283062
53372,1.412754,4.250873,6.366012,-0.508845,-3.214269,-2.741953,1.933342,-3.052421,0.383452,0.013069,0.041915,0.064272,0.999835,0.009666,-0.015261,0.001917,0.036631,-0.054410,-0.086896,-0.994056,9.781470,-6.577016,-176.342623
53373,2.635754,4.638912,7.148059,-1.406115,-3.404930,-1.689511,1.338084,-2.221255,0.683885,0.025402,0.045996,0.072075,0.999910,0.006690,-0.011106,0.003419,0.039463,-0.065513,-0.093720,-0.992657,10.522731,-7.900918,-176.175572
53374,-2.701107,2.926842,9.240112,4.158354,-0.886797,-0.693468,0.474889,-1.862789,0.725186,-0.027976,0.028949,0.092213,0.999947,0.002374,-0.009314,0.003626,0.042379,-0.075021,-0.096163,-0.991629,10.758573,-9.029140,-175.957690
53375,2.706515,1.175177,6.621679,-1.527548,0.013446,-2.726386,1.356411,-2.556084,0.965126,0.026160,0.011428,0.066633,0.999884,0.006782,-0.012780,0.004825,0.046474,-0.087877,-0.103018,-0.989699,11.485991,-10.574836,-175.689471
53376,3.731856,1.686513,7.129912,-2.228533,-0.346485,-1.905907,1.902737,-1.703706,1.173529,0.036611,0.016400,0.071771,0.999901,0.009513,-0.008518,0.005867,0.052271,-0.096482,-0.112265,-0.987601,12.481744,-11.671965,-175.221478
53377,-2.991659,2.463603,10.330041,5.147021,0.388520,-0.061910,2.187094,-1.443827,1.340513,-0.030822,0.023302,0.103340,0.999892,0.010935,-0.007219,0.006702,0.059163,-0.103800,-0.122744,-0.985220,13.608863,-12.653597,-174.642876
53378,2.066042,3.715881,7.799192,0.143193,-1.656500,-1.087607,2.982500,-2.713498,1.994436,0.019231,0.036184,0.078804,0.999747,0.014911,-0.013566,0.009971,0.068889,-0.117504,-0.137132,-0.981143,15.138940,-14.446112,-173.897120
53379,7.047740,4.322498,6.256460,-4.596644,-2.997736,-1.016593,2.840592,-2.194221,2.275946,0.069290,0.043116,0.063942,0.999774,0.014202,-0.010970,0.011379,0.080235,-0.128840,-0.150416,-0.976902,16.513299,-16.013535,-172.948164
53380,4.467267,3.523401,6.558259,-2.016327,-1.746067,-1.550407,2.181293,-0.424627,2.535582,0.044087,0.035077,0.066060,0.999858,0.010906,-0.002123,0.012677,0.093726,-0.131951,-0.159546,-0.973832,17.371077,-16.672641,-171.569739
53381,1.471212,3.256734,8.209376,1.263574,-0.368183,-0.956812,2.881681,-0.659428,3.067128,0.013951,0.031597,0.082601,0.999773,0.014407,-0.003297,0.015334,0.110044,-0.136250,-0.171790,-0.969440,18.538140,-17.576676,-169.938500
53382,4.111369,5.162775,7.344313,-0.733524,-2.619109,-0.321249,3.842462,-0.958814,3.317485,0.039910,0.050870,0.074619,0.999666,0.019210,-0.004794,0.016586,0.127911,-0.141613,-0.188584,-0.963338,20.206303,-18.728612,-168.239318
53383,1.371851,6.591371,8.141766,2.630226,-2.755216,0.040994,3.237376,-0.016118,3.503342,0.012570,0.064811,0.082474,0.999716,0.016185,-0.000081,0.017515,0.147054,-0.142908,-0.201618,-0.957759,21.408245,-19.453402,-166.253682
53384,2.717192,6.497718,7.678129,1.513642,-2.877276,0.085485,2.961602,-0.600059,4.308104,0.025548,0.064392,0.077816,0.999654,0.014806,-0.003000,0.021538,0.169172,-0.147925,-0.213054,-0.950845,22.309364,-20.694973,-163.947116
53385,5.733465,5.216327,5.415626,-1.858840,-3.438517,-1.203152,2.824829,-0.250470,4.703310,0.056031,0.052719,0.054969,0.999623,0.014122,-0.001252,0.023514,0.193315,-0.151706,-0.223106,-0.943312,22.976314,-21.868166,-161.334062
53386,4.594140,6.003417,6.276040,-0.063025,-3.264613,-0.546186,2.804830,0.938490,4.891812,0.044766,0.060253,0.063393,0.999592,0.014022,0.004692,0.024456,0.219509,-0.149994,-0.231587,-0.935781,23.441534,-22.482052,-158.319700
53387,2.846435,6.426669,7.870934,2.158645,-2.067121,0.307416,2.415699,1.077509,5.212425,0.027220,0.064031,0.079335,0.999573,0.012077,0.005387,0.026058,0.246883,-0.148304,-0.237673,-0.927667,23.566987,-23.110684,-155.078813
53388,5.082322,4.414028,6.144845,-0.811095,-2.202324,-1.005911,2.068906,1.077873,5.760920,0.049868,0.044949,0.061640,0.999517,0.010343,0.005388,0.028800,0.276324,-0.147558,-0.241515,-0.918446,23.323969,-23.861068,-151.505240
53389,3.583633,4.831118,7.200261,0.970610,-1.277930,-0.568827,2.421356,1.903433,5.601185,0.035168,0.048429,0.072252,0.999489,0.012105,0.009516,0.028001,0.306007,-0.142195,-0.245726,-0.908713,23.203152,-24.130536,-147.803564
53390,1.919295,4.613219,8.946928,2.392011,0.697585,0.127319,1.662656,1.777825,5.299947,0.018771,0.045888,0.089683,0.999575,0.008312,0.008888,0.026496,0.333348,-0.138060,-0.246653,-0.899433,22.710924,-24.380489,-144.296934
53391,6.841648,0.688103,5.836967,-4.030553,-1.106043,-1.820580,1.520575,1.715896,5.858054,0.068682,0.008449,0.057841,0.999505,0.007602,0.008578,0.029285,0.362711,-0.135001,-0.246447,-0.888526,21.988082,-24.751419,-140.469606
53392,6.593494,-0.087844,5.263168,-4.331574,-1.092131,-2.655927,2.713395,2.604997,5.537321,0.066616,0.000254,0.051765,0.999440,0.013564,0.013023,0.027681,0.392171,-0.125293,-0.249869,-0.876395,21.930157,-24.556805,-136.613860
53393,5.208183,4.741399,5.813460,0.290938,-2.821756,-1.131970,3.533340,3.076540,5.009667,0.051784,0.047686,0.058177,0.999412,0.017663,0.015380,0.025043,0.419967,-0.111114,-0.256016,-0.863561,22.450983,-24.013029,-132.964757
53394,5.322633,7.584878,6.001266,2.596918,-4.209851,0.056649,2.838193,3.506468,5.624162,0.052136,0.076472,0.060175,0.999350,0.014188,0.017529,0.028115,0.450064,-0.097183,-0.257586,-0.849498,22.427214,-23.389180,-128.870539
53395,4.297794,4.690391,6.231266,0.999160,-2.019071,-1.197476,1.643958,4.110107,5.810430,0.042875,0.047641,0.061820,0.999333,0.008218,0.020546,0.029046,0.480551,-0.083495,-0.252316,-0.835725,21.685914,-22.461224,-124.557313
53396,1.391825,1.686670,7.372394,-0.149713,1.871259,-2.355773,2.069631,4.279443,5.546255,0.015033,0.016511,0.073582,0.999333,0.010346,0.021392,0.027725,0.509689,-0.067625,-0.248172,-0.821008,21.315731,-21.347408,-120.398078
53397,0.194113,3.206668,8.825688,1.312385,2.874879,-0.968523,2.332508,3.963053,4.946826,0.002917,0.031099,0.088572,0.999430,0.011660,0.019811,0.024729,0.535429,-0.051564,-0.245827,-0.806366,21.331076,-20.267545,-116.687292
53398,-0.735010,1.891637,9.675449,0.109556,4.326549,-0.924911,1.470148,3.690859,4.093606,-0.005937,0.018073,0.097008,0.999593,0.007350,0.018452,0.020465,0.556656,-0.037801,-0.240695,-0.794211,21.110462,-19.148201,-113.547870
53399,-1.746703,-1.041376,10.732373,-2.661264,6.211920,-1.231605,1.093640,3.169695,2.958113,-0.015602,-0.011241,0.107521,0.999750,0.005468,0.015847,0.014789,0.572307,-0.025770,-0.235590,-0.785047,20.980760,-18.066483,-111.187435
53400,-1.093102,-2.279651,11.212407,-4.394373,5.850482,-0.949271,1.158453,2.579590,1.808852,-0.009274,-0.023535,0.112116,0.999859,0.005792,0.012897,0.009044,0.582541,-0.014499,-0.232468,-0.778713,21.164825,-17.063185,-109.611791
53401,-3.730838,-0.347115,12.789261,-2.452731,8.195181,0.405774,1.512972,2.097623,0.987123,-0.035944,-0.004620,0.128242,0.999904,0.007565,0.010488,0.004935,0.588903,-0.003119,-0.232143,-0.774140,21.738755,-16.155661,-108.600253
53402,-1.566979,2.209842,11.827789,-0.774923,5.244616,1.101767,1.228053,1.217099,0.475684,-0.015000,0.021335,0.118503,0.999960,0.006140,0.006085,0.002378,0.592180,0.004614,-0.233276,-0.771287,22.290873,-15.614660,-108.061986
53403,1.717973,1.584196,9.733408,-1.876639,1.534738,-0.100747,0.802320,1.075185,0.131325,0.017693,0.015463,0.097302,0.999977,0.004012,0.005376,0.000657,0.593937,0.010938,-0.233166,-0.769905,22.661599,-15.077706,-107.741921
53404,3.330745,1.805800,8.068160,-1.750202,-0.646500,-1.096745,0.880452,1.150476,0.034993,0.033768,0.017709,0.080567,0.999974,0.004402,0.005752,0.000175,0.595377,0.017898,-0.233116,-0.768676,23.088457,-14.481559,-107.454097
53405,5.420447,2.287576,6.582164,-1.535992,-3.254553,-1.751270,0.824114,1.460196,0.026114,0.054681,0.022612,0.065517,0.999965,0.004121,0.007301,0.000131,0.597114,0.025886,-0.231910,-0.767465,23.468703,-13.722534,-107.095278
53406,6.929108,1.399158,5.340729,-2.418271,-5.017194,-2.922789,0.805633,2.060732,0.005191,0.069836,0.013780,0.052745,0.999939,0.004028,0.010303,0.000026,0.599411,0.036149,-0.228818,-0.766187,23.813743,-12.645541,-106.602551
53407,7.385500,1.006750,4.687283,-2.705658,-5.730667,-3.700106,0.996546,2.819432,-0.093412,0.074511,0.009803,0.045875,0.999888,0.004983,0.014097,-0.000467,0.602061,0.049988,-0.224127,-0.764716,24.251043,-11.152606,-105.976622
53408,6.686927,0.993201,4.534649,-2.498149,-5.304465,-4.166536,1.193242,3.665549,-0.285737,0.067700,0.009570,0.044169,0.999813,0.005966,0.018327,-0.001429,0.604695,0.067863,-0.217525,-0.763165,24.800367,-9.177411,-105.238730
53409,4.748768,1.523802,5.144062,-1.794914,-3.630574,-3.903138,1.407317,4.479478,-0.531334,0.048665,0.014752,0.050464,0.999721,0.007036,0.022395,-0.002656,0.606925,0.089711,-0.209100,-0.761493,25.487664,-6.729840,-104.412625
53410,1.557436,3.355088,6.168797,0.094758,-0.951505,-2.684492,1.652759,5.084733,-0.789772,0.017271,0.032976,0.061537,0.999635,0.008263,0.025421,-0.003948,0.608302,0.114834,-0.199518,-0.759588,26.349597,-3.915306,-103.539135
53411,-1.590682,5.185310,7.035948,1.869030,1.568311,-1.271542,1.458243,5.387513,-0.990975,-0.013742,0.051408,0.071125,0.999598,0.007290,0.026934,-0.004954,0.608866,0.140611,-0.188015,-0.757734,27.143104,-0.908776,-102.653211
53412,-3.470392,5.429579,7.572548,2.016436,3.012326,-0.555039,0.956484,5.419602,-1.087963,-0.032336,0.054110,0.076882,0.999607,0.004782,0.027094,-0.005439,0.608960,0.164979,-0.174290,-0.756024,27.696472,2.131020,-101.773314
53413,-5.040239,3.982618,7.667541,0.820528,4.405987,-0.871429,0.548654,5.318916,-1.201151,-0.048099,0.039907,0.078085,0.999625,0.002743,0.026591,-0.006005,0.608410,0.187683,-0.159108,-0.754518,28.058262,5.141451,-100.952130
53414,-4.699022,1.853258,7.087826,-0.975511,4.095306,-2.196146,0.332258,5.102611,-1.460373,-0.045025,0.018747,0.072075,0.999647,0.001661,0.025510,-0.007301,0.606469,0.208997,-0.143404,-0.753625,28.319642,8.109856,-100.301036
53415,-4.106272,0.871286,7.055331,-2.044184,3.347343,-2.601650,0.503359,5.100070,-2.001025,-0.039157,0.008932,0.071590,0.999622,0.002516,0.025497,-0.010004,0.601869,0.231045,-0.127683,-0.753704,28.669577,11.220292,-99.906048
53416,-3.042806,-0.325048,6.616235,-3.131137,2.273471,-3.635785,0.384830,5.288870,-2.486419,-0.028703,-0.003015,0.066931,0.999571,0.001924,0.026441,-0.012430,0.595211,0.253581,-0.110284,-0.754492,28.935119,14.558325,-99.685705
53417,-5.028791,-0.608514,7.072905,-3.391242,3.787539,-2.754377,0.873279,5.647807,-3.142387,-0.048356,-0.005628,0.072088,0.999468,0.004366,0.028234,-0.015709,0.585089,0.279032,-0.092718,-0.755788,29.432935,18.257037,-99.676573
53418,-6.692737,0.054551,7.562712,-2.971208,4.583294,-1.319900,1.281641,5.567520,-3.587547,-0.064770,0.001228,0.077457,0.999431,0.006407,0.027832,-0.017934,0.572034,0.305284,-0.076212,-0.757476,30.090760,22.042753,-99.887166
53419,-6.896551,1.177667,6.712185,-1.699270,4.059104,-1.175150,1.557356,5.642543,-4.160158,-0.066777,0.012648,0.069123,0.999355,0.007785,0.028207,-0.020796,0.555727,0.332445,-0.059560,-0.759671,30.792631,26.033736,-100.341088
53420,-9.445974,2.087002,7.145122,-0.957240,5.208184,0.982531,1.561662,5.692336,-4.556450,-0.091874,0.022410,0.074262,0.999305,0.007806,0.028455,-0.022777,0.537181,0.359492,-0.042057,-0.761862,31.390693,30.170967,-100.962515
53421,-11.588157,1.814088,6.770577,-0.740981,6.502769,2.041181,1.634175,5.355003,-4.713740,-0.113550,0.020265,0.070927,0.999331,0.008169,0.026769,-0.023563,0.517100,0.384984,-0.025382,-0.764036,31.888312,34.196506,-101.775137
53422,-13.768475,3.528519,7.168311,0.553240,6.471047,4.717820,2.236515,4.849124,-4.820214,-0.134997,0.037731,0.075391,0.999353,0.011180,0.024240,-0.024096,0.494712,0.409618,-0.012092,-0.766373,32.544098,38.015567,-102.829979
53423,-15.518794,7.744396,9.403998,2.388960,3.743950,9.406951,2.182555,3.899617,-5.024088,-0.151312,0.080224,0.097881,0.999435,0.010911,0.019494,-0.025116,0.470991,0.429993,-0.000489,-0.770242,32.777845,41.447685,-104.410990
53424,-15.627240,8.596100,11.005712,1.872374,1.596653,10.997995,0.644894,2.524809,-4.601226,-0.152838,0.089144,0.112285,0.999650,0.003224,0.012623,-0.023003,0.451776,0.441066,0.012867,-0.775367,31.799316,44.075259,-106.389789
53425,-12.255023,3.552215,9.647549,-1.353532,2.004534,5.998467,-0.332665,1.381334,-4.398044,-0.121058,0.038357,0.097253,0.999733,-0.001663,0.006906,-0.021988,0.435291,0.445239,0.026999,-0.782020,29.841767,46.044237,-108.876979
53426,-13.495739,1.492983,11.132275,-3.210435,2.910670,7.201361,0.019877,0.300339,-4.730219,-0.134387,0.018102,0.111527,0.999719,0.000099,0.001502,-0.023649,0.416639,0.445667,0.038100,-0.791417,27.409035,47.490485,-112.225168
53427,-11.761037,0.377854,9.779790,-3.097385,2.737006,4.918163,0.274267,-0.664335,-4.927961,-0.117796,0.006546,0.097415,0.999690,0.001371,-0.003321,-0.024637,0.396567,0.442503,0.046631,-0.802965,24.563002,48.383986,-116.260922
53428,-11.746818,0.667153,9.173802,-2.029862,2.502877,4.753699,0.747283,-1.305202,-5.217457,-0.117842,0.009402,0.091001,0.999631,0.003736,-0.006525,-0.026084,0.374177,0.437341,0.052574,-0.816064,21.534735,48.863176,-120.860582
53429,-10.816463,1.143039,8.520692,-1.108815,1.653361,3.859102,0.956945,-1.767406,-5.321324,-0.108564,0.013911,0.084311,0.999596,0.004784,-0.008836,-0.026603,0.350727,0.430313,0.057015,-0.829801,18.393765,48.950523,-125.745586
53430,-10.484914,2.478530,8.167029,0.291253,0.378336,3.697657,1.166467,-2.088141,-5.132859,-0.105021,0.027007,0.080727,0.999599,0.005832,-0.010439,-0.025661,0.327429,0.422038,0.059542,-0.843284,15.448782,48.658661,-130.540980
53431,-10.230429,3.468795,8.146530,1.202933,-0.755504,3.641823,0.960677,-2.387043,-4.871273,-0.102389,0.036793,0.080417,0.999621,0.004803,-0.011934,-0.024353,0.305492,0.411905,0.061881,-0.856259,12.577347,48.005001,-135.111191
53432,-11.097991,2.561075,8.777899,1.127001,-0.072432,4.521700,0.569943,-2.722843,-4.624991,-0.111534,0.027938,0.086340,0.999636,0.002849,-0.013613,-0.023122,0.285302,0.399517,0.064795,-0.868787,9.737171,46.983983,-139.400081
53433,-11.328386,1.032058,9.088450,0.768140,0.998015,4.691711,0.570629,-3.227046,-4.548442,-0.114461,0.012659,0.089078,0.999607,0.002853,-0.016133,-0.022739,0.265381,0.384654,0.066816,-0.881561,7.081211,45.533048,-143.517834
53434,-10.966498,0.358755,8.999331,0.899662,1.302671,4.288332,0.863107,-3.556653,-4.642695,-0.111125,0.005773,0.088047,0.999563,0.004315,-0.017781,-0.023210,0.244383,0.368385,0.067205,-0.894457,4.753187,43.777239,-147.526712
53435,-10.694048,0.049643,9.473186,0.943874,1.212209,4.389688,1.067582,-3.880173,-4.657706,-0.108709,0.002516,0.092644,0.999526,0.005337,-0.019398,-0.023285,0.222819,0.350569,0.066284,-0.907226,2.761786,41.730632,-151.349172
53436,-11.714539,-0.446297,9.143804,2.287246,2.030486,4.735144,1.544382,-4.152158,-4.368965,-0.119079,-0.002569,0.088954,0.999516,0.007721,-0.020757,-0.021841,0.201616,0.331822,0.062294,-0.919437,1.428292,39.442034,-154.751645
53437,-13.651536,3.962070,9.523654,5.932958,-1.516435,6.162902,2.544116,-4.889587,-4.209096,-0.137940,0.041327,0.092394,0.999399,0.012718,-0.024443,-0.021041,0.179494,0.310373,0.052669,-0.932028,0.946139,36.688222,-157.884702
53438,-11.191635,5.318341,9.183338,5.453216,-3.538629,4.171934,1.314411,-5.605522,-3.893538,-0.113382,0.054790,0.089025,0.999396,0.006571,-0.028022,-0.019464,0.160731,0.284204,0.047543,-0.943998,0.109848,33.494722,-160.641225
53439,-9.960865,0.979071,7.703192,4.505694,0.392467,1.977629,0.611495,-5.824336,-3.579789,-0.101602,0.011368,0.074125,0.999411,0.003057,-0.029116,-0.017895,0.144303,0.256169,0.045087,-0.954736,-0.805674,30.143059,-163.027208
53440,-7.418353,0.822838,6.971424,3.341644,-0.010261,-0.163127,1.774609,-5.956020,-3.397032,-0.076069,0.008904,0.067544,0.999373,0.008871,-0.029774,-0.016982,0.127118,0.228079,0.036665,-0.964612,-0.817663,26.701213,-165.179518
53441,-4.323571,4.053951,6.829387,2.009066,-3.742456,-1.830409,2.362779,-5.891054,-2.787921,-0.044668,0.040355,0.067470,0.999399,0.011812,-0.029449,-0.013937,0.112029,0.200508,0.024739,-0.972951,-0.200474,23.310410,-166.904720
53442,-2.081343,5.866265,6.487376,0.791402,-5.815563,-3.002460,2.094234,-5.321884,-2.102038,-0.021927,0.058210,0.064911,0.999536,0.010470,-0.026605,-0.010509,0.100359,0.175425,0.013693,-0.979268,0.512593,20.262662,-168.205527
53443,-3.208702,7.198546,8.001043,1.797476,-6.871357,-1.113369,1.536237,-4.947644,-1.679127,-0.033460,0.071649,0.079745,0.999629,0.007680,-0.024735,-0.008395,0.091138,0.151776,0.005207,-0.984190,1.045957,17.439757,-169.258368
53444,-3.811234,4.139921,9.702089,1.635613,-3.727945,0.637571,0.462521,-4.528892,-1.330704,-0.040022,0.041438,0.096225,0.999719,0.002312,-0.022642,-0.006653,0.084377,0.129607,0.001905,-0.987967,1.073489,14.857579,-170.097093
53445,-8.635380,0.253259,10.411672,5.893777,0.933872,2.327866,0.460442,-4.800302,-1.247225,-0.088802,0.002845,0.102011,0.999690,0.002302,-0.023999,-0.006235,0.077982,0.106024,-0.001543,-0.991300,1.148352,12.120170,-170.882063
53446,-4.263685,0.053787,8.902293,2.498742,0.572667,-0.281862,1.828350,-5.406009,-1.511907,-0.045020,0.000066,0.087829,0.999564,0.009140,-0.027026,-0.007558,0.069489,0.079894,-0.011878,-0.994307,2.015058,9.045960,-171.845164
53447,0.194766,0.481476,7.117750,-1.098918,-0.325975,-2.769551,1.786951,-5.207284,-1.413336,0.000124,0.004173,0.071236,0.999596,0.008934,-0.026033,-0.007066,0.061456,0.054672,-0.021953,-0.996369,2.909221,6.099138,-172.785894
53448,0.241708,0.211337,5.865334,-0.741949,0.052485,-3.986476,1.958482,-4.650344,-1.261807,0.001063,0.001529,0.058705,0.999662,0.009791,-0.023249,-0.006308,0.054146,0.032211,-0.032752,-0.997476,3.953910,3.480727,-173.665508
53449,0.328640,3.092964,5.584333,-0.282297,-2.664773,-4.009953,2.808706,-4.391653,-1.041801,0.002211,0.030127,0.056327,0.999647,0.014042,-0.021956,-0.005208,0.047803,0.011219,-0.047718,-0.997653,5.526129,1.021294,-174.464195
53450,2.543806,5.535460,6.185746,-2.081706,-5.039843,-3.057601,2.536745,-3.967194,-0.651420,0.024374,0.054479,0.063043,0.999718,0.012683,-0.019834,-0.003257,0.043492,-0.007828,-0.061233,-0.997145,6.976545,-1.199766,-175.078255
53451,-1.139035,4.606246,7.325575,1.716904,-3.512102,-2.009347,0.993102,-2.976611,-0.108309,-0.012456,0.045705,0.073303,0.999877,0.004965,-0.014882,-0.000542,0.042114,-0.022432,-0.066783,-0.996626,7.550027,-2.885370,-175.351034
53452,-1.614219,3.228534,6.854464,2.267983,-2.080839,-2.703965,1.250637,-3.377782,0.092858,-0.017314,0.031849,0.068459,0.999838,0.006253,-0.016888,0.000464,0.041621,-0.039046,-0.073668,-0.995649,8.276561,-4.811930,-175.560896
53453,3.166670,2.669120,5.796083,-2.395809,-1.953086,-3.394978,1.482656,-3.122301,0.482434,0.030691,0.026333,0.058641,0.999848,0.007413,-0.015611,0.002412,0.043194,-0.054464,-0.081550,-0.994242,9.120659,-6.623547,-175.553707
53454,0.357219,1.969676,6.962278,0.615183,-0.751884,-2.633973,1.235377,-2.106978,0.728235,0.002767,0.019277,0.069775,0.999919,0.006177,-0.010535,0.003641,0.046325,-0.064983,-0.087903,-0.992927,9.796640,-7.885371,-175.334487
53455,-1.367505,2.138327,7.980744,2.637579,-0.437103,-1.876733,2.259137,-2.483279,1.301295,-0.014801,0.020387,0.079862,0.999838,0.011295,-0.012416,0.006506,0.052457,-0.077363,-0.099215,-0.990666,11.013437,-9.421185,-174.848259
53456,1.626383,4.199859,6.928034,0.023464,-2.700744,-2.003975,3.080800,-2.632729,1.935284,0.014944,0.041072,0.070120,0.999748,0.015403,-0.013163,0.009676,0.061950,-0.090556,-0.114353,-0.987363,12.633108,-11.127418,-174.055183
53457,4.061885,5.570228,7.065545,-1.847708,-4.024910,-0.991055,2.820030,-2.241771,2.426626,0.039146,0.055175,0.071880,0.999764,0.014099,-0.011208,0.012132,0.073944,-0.102128,-0.127803,-0.983752,14.020970,-12.699503,-172.970907
53458,2.629663,4.582630,7.334693,-0.303539,-2.672633,-1.182998,2.106333,-1.365885,3.036958,0.025101,0.045436,0.074001,0.999806,0.010531,-0.006829,0.015184,0.089103,-0.110011,-0.137054,-0.980395,14.870663,-13.894314,-171.435951
53459,3.175246,2.489408,7.479906,-1.011200,-0.602891,-1.396148,2.191269,-1.440490,3.427515,0.030788,0.024604,0.075294,0.999767,0.010955,-0.007202,0.017136,0.106132,-0.118435,-0.146485,-0.976346,15.686384,-15.210237,-169.699563
53460,4.552522,1.813135,6.238827,-2.563510,-0.504555,-2.322200,2.914288,-1.045058,3.719600,0.044861,0.018056,0.062887,0.999707,0.014570,-0.005225,0.018596,0.125251,-0.124704,-0.158981,-0.971332,16.819555,-16.384583,-167.743392
53461,1.179882,3.596853,9.117682,1.794872,-0.279828,-0.109465,3.450672,-0.162714,3.487094,0.011113,0.034586,0.091791,0.999699,0.017252,-0.000813,0.017434,0.144200,-0.126090,-0.173585,-0.966010,18.227908,-17.077846,-165.779544
53462,-1.856112,5.214687,9.839174,5.380885,-0.344896,0.104587,3.413353,-0.854505,3.711099,-0.019926,0.050097,0.099175,0.999673,0.017065,-0.004272,0.018553,0.163517,-0.130963,-0.188251,-0.959517,19.588651,-18.233254,-163.831152
53463,4.717896,4.686715,6.749980,-1.168094,-2.541500,-0.759972,2.806486,-1.565620,4.031124,0.045701,0.046841,0.068519,0.999668,0.014031,-0.007827,0.020153,0.183192,-0.139949,-0.200262,-0.952234,20.549494,-19.870817,-161.858197
53464,5.986768,3.302386,3.949181,-3.144503,-2.874280,-3.165182,2.636417,-0.323717,4.113146,0.059114,0.033719,0.040029,0.999700,0.013181,-0.001618,0.020564,0.204270,-0.143180,-0.210134,-0.945313,21.261345,-20.888381,-159.576395
53465,4.586751,4.550396,5.828581,-0.825646,-2.572969,-1.541525,2.602157,0.518232,3.998888,0.045108,0.045648,0.058762,0.999712,0.013010,0.002591,0.019993,0.225543,-0.142260,-0.218954,-0.938590,21.880686,-21.457762,-157.171116
53466,4.565608,4.511032,6.107896,-0.616049,-2.342157,-1.290193,2.446932,0.865190,4.430792,0.044918,0.045361,0.061438,0.999670,0.012233,0.004325,0.022152,0.248977,-0.140276,-0.226200,-0.931218,22.266432,-21.955828,-154.434595
53467,2.085030,5.672643,6.969075,2.338755,-1.691914,-1.051588,2.875836,1.376823,4.866486,0.019961,0.056211,0.070362,0.999577,0.014377,0.006883,0.024329,0.275125,-0.135762,-0.234345,-0.922473,22.740398,-22.297913,-151.324922
53468,2.642074,8.464819,7.214873,3.696408,-3.585225,0.392899,3.302352,1.134751,5.222580,0.024634,0.084102,0.073397,0.999507,0.016509,0.005673,0.026109,0.302673,-0.132072,-0.244318,-0.911732,23.375773,-22.875219,-148.063365
53469,6.023569,7.215889,6.412455,0.527778,-4.592943,0.583746,1.799235,1.694578,5.783048,0.058671,0.073293,0.064279,0.999506,0.008995,0.008471,0.028910,0.332162,-0.128656,-0.246003,-0.901443,22.942516,-23.289480,-144.334077
53470,3.242044,3.193075,7.012296,0.224344,-0.187927,-1.458571,0.698967,2.546642,5.853308,0.032363,0.032634,0.069824,0.999485,0.003494,0.012731,0.029262,0.361977,-0.123186,-0.240999,-0.892030,21.765485,-23.218846,-140.350078
53471,2.031679,2.535989,8.705661,0.701839,1.751904,-0.714054,1.920552,2.253093,5.285000,0.020633,0.025066,0.087067,0.999541,0.009601,0.011264,0.026421,0.389297,-0.116011,-0.242114,-0.881119,21.454272,-23.137985,-136.767925
53472,1.792877,2.216567,10.153463,0.556542,2.807235,0.337632,1.219990,2.148134,4.932229,0.018475,0.021998,0.101473,0.999620,0.006099,0.010739,0.024658,0.414211,-0.110137,-0.240324,-0.870944,20.835322,-23.012703,-133.416352
53473,4.195297,-1.256966,8.065352,-3.712699,1.864326,-1.629467,1.287186,1.905134,4.853112,0.043015,-0.012051,0.080168,0.999640,0.006435,0.009525,0.024263,0.438211,-0.105003,-0.239217,-0.860070,20.302361,-22.971643,-130.168916
53474,4.723777,-0.092823,8.293795,-3.157932,0.795935,-0.840527,1.734499,2.223145,3.864135,0.048171,-0.000720,0.082399,0.999714,0.008672,0.011115,0.019319,0.458298,-0.096274,-0.239678,-0.850440,20.233962,-22.546844,-127.434083
53475,2.930037,-0.010917,9.551518,-2.258193,2.499529,-0.407100,1.263333,2.330393,3.252103,0.030414,-0.000223,0.095164,0.999780,0.006316,0.011651,0.016259,0.475448,-0.087389,-0.238082,-0.842395,20.050496,-21.939260,-125.044184
53476,2.315942,-0.370679,9.389473,-2.383976,2.879076,-0.885978,1.859208,2.057202,3.084045,0.024186,-0.004210,0.093612,0.999785,0.009295,0.010285,0.015419,0.491623,-0.077997,-0.239596,-0.833557,20.288628,-21.445280,-122.817699
53477,4.287332,2.901480,8.548021,-0.624096,-0.472736,0.149973,2.204893,1.924834,2.935483,0.043273,0.028706,0.085383,0.999785,0.011024,0.009623,0.014676,0.506942,-0.068101,-0.242843,-0.824257,20.785409,-21.006880,-120.709547
53478,4.576722,3.196734,7.720796,-0.452054,-1.269190,-0.380811,1.609102,2.162201,2.794217,0.046153,0.031990,0.076968,0.999812,0.008045,0.010810,0.013970,0.521561,-0.058533,-0.242971,-0.815789,20.969150,-20.423101,-118.634350
53479,4.199489,2.303209,7.828390,-1.123698,-0.714757,-0.732545,1.504420,2.334871,2.553076,0.042613,0.022986,0.077962,0.999822,0.007522,0.011674,0.012765,0.535184,-0.048226,-0.242217,-0.807827,21.152372,-19.704975,-116.665809
53480,2.355865,2.829355,8.912473,-0.168363,1.037819,-0.227302,1.613189,2.390092,2.310503,0.024300,0.027853,0.089063,0.999829,0.008065,0.011950,0.011552,0.547735,-0.037087,-0.241715,-0.800116,21.464734,-18.913464,-114.827800
53481,2.002553,3.349878,9.295376,0.221593,1.262446,0.186852,1.474472,2.177077,2.059652,0.020696,0.033024,0.092976,0.999861,0.007372,0.010885,0.010298,0.558828,-0.026874,-0.241224,-0.792969,21.782353,-18.193511,-113.182267
53482,2.241556,2.226597,8.979417,-0.928184,1.104004,-0.403679,1.098003,2.172248,1.654375,0.023207,0.021963,0.089666,0.999892,0.005490,0.010861,0.008272,0.568122,-0.017229,-0.239238,-0.787214,21.974946,-17.395059,-111.767539
53483,2.408864,1.090991,9.272951,-2.197966,1.190077,-0.499828,1.103136,2.279170,1.283048,0.025075,0.010558,0.092506,0.999899,0.005515,0.011395,0.006415,0.575963,-0.006708,-0.236960,-0.782350,22.245203,-16.466551,-110.538296
53484,0.165698,2.653870,10.018315,-0.379588,2.982337,0.106697,1.314490,2.171916,1.027665,0.002612,0.025891,0.100330,0.999906,0.006572,0.010859,0.005138,0.582574,0.004314,-0.235770,-0.777819,22.700627,-15.545051,-109.473654
53485,0.643904,3.232337,9.787146,-0.113222,2.214519,0.273476,1.080320,2.005617,0.874460,0.007281,0.031825,0.097974,0.999926,0.005401,0.010028,0.004372,0.588300,0.014179,-0.234116,-0.773881,23.069024,-14.685585,-108.528998
53486,1.266869,2.353775,9.025993,-0.997678,1.421908,-0.560982,0.780464,1.977130,0.694046,0.013480,0.023231,0.090220,0.999938,0.003902,0.009885,0.003470,0.593237,0.023269,-0.231336,-0.770722,23.305080,-13.804245,-107.688009
53487,2.730285,1.072144,7.714568,-2.263312,-0.266581,-1.880314,0.673748,2.063406,0.464637,0.028072,0.010527,0.076894,0.999938,0.003369,0.010317,0.002323,0.597328,0.032631,-0.227834,-0.768262,23.516749,-12.829169,-106.950577
53488,3.976196,0.218948,6.553183,-3.070303,-1.793200,-3.018789,0.771172,2.387492,0.224209,0.040538,0.001983,0.065059,0.999921,0.003856,0.011937,0.001121,0.600765,0.043805,-0.223667,-0.766248,23.809148,-11.631238,-106.264790
53489,4.685857,-0.113671,5.948682,-3.411121,-2.754127,-3.637591,0.889495,2.867084,-0.071531,0.047704,-0.001416,0.058801,0.999887,0.004447,0.014335,-0.000358,0.603466,0.057482,-0.218404,-0.764738,24.191916,-10.118365,-105.618886
53490,4.542265,-0.018820,5.700313,-3.259823,-2.900243,-3.974674,1.156071,3.441706,-0.394835,0.046394,-0.000606,0.056208,0.999833,0.005780,0.017208,-0.001974,0.605312,0.074508,-0.212274,-0.763535,24.750914,-8.233328,-104.996496
53491,3.628612,1.632718,5.962232,-1.739558,-2.487559,-3.319673,1.416439,4.032898,-0.700893,0.037536,0.015778,0.058987,0.999765,0.007082,0.020163,-0.003504,0.606281,0.094854,-0.205150,-0.762457,25.479582,-5.976023,-104.371131
53492,1.847091,3.363028,6.477586,-0.107623,-1.255635,-2.390915,1.456003,4.535472,-0.920477,0.020090,0.033070,0.064575,0.999706,0.007279,0.022675,-0.004602,0.606586,0.117430,-0.196441,-0.761363,26.255362,-3.411228,-103.706342
53493,-0.180224,4.787678,6.911427,1.259771,0.188019,-1.500887,1.366982,4.905690,-1.039459,0.000146,0.047405,0.069452,0.999662,0.006834,0.024526,-0.005197,0.606477,0.141165,-0.186078,-0.760022,27.007117,-0.637589,-102.975216
53494,-2.067231,5.537562,7.173472,2.015165,1.542567,-0.871812,1.042048,4.992452,-1.117397,-0.018560,0.055107,0.072503,0.999659,0.005210,0.024959,-0.005586,0.605967,0.164244,-0.174035,-0.758643,27.610258,2.194161,-102.228437
53495,-2.498023,4.273769,6.751570,1.024250,1.821749,-1.706706,0.663924,4.994883,-1.040724,-0.023060,0.042635,0.068249,0.999669,0.003319,0.024972,-0.005203,0.605659,0.185991,-0.160500,-0.756852,28.036231,4.997863,-101.415486
53496,-3.179614,3.412702,6.818040,0.220150,2.302257,-1.883148,0.725926,5.107988,-1.266059,-0.029824,0.034070,0.069083,0.999647,0.003629,0.025537,-0.006330,0.604114,0.208427,-0.146535,-0.755071,28.533107,7.915146,-100.659498
53497,-3.967206,2.461371,6.659078,-0.527542,2.908809,-2.237377,0.532974,5.046633,-1.595924,-0.037777,0.024741,0.067626,0.999646,0.002665,0.025230,-0.007979,0.601057,0.230127,-0.131580,-0.753962,28.930935,10.885051,-100.060467
53498,-3.784995,1.860247,6.814175,-1.282597,2.469510,-2.298726,0.442814,5.166409,-2.190822,-0.035867,0.018850,0.069127,0.999604,0.002214,0.025829,-0.010953,0.595488,0.252243,-0.115143,-0.753996,29.257071,14.078289,-99.706457
53499,-5.490530,0.723587,7.486638,-2.429588,3.878797,-1.704088,0.411362,5.202797,-2.614921,-0.052834,0.007780,0.076275,0.999574,0.002057,0.026010,-0.013073,0.587894,0.274425,-0.097845,-0.754651,29.532282,17.406258,-99.539799
53500,-5.693847,-0.467539,6.860114,-3.168654,4.085248,-2.535898,0.674750,5.193222,-3.191855,-0.055200,-0.004020,0.070035,0.999530,0.003373,0.025962,-0.015957,0.577230,0.297396,-0.080695,-0.756207,29.876301,20.893171,-99.657165
53501,-6.928022,-0.635107,6.755518,-3.150415,4.864106,-2.038990,1.081553,5.256234,-3.846464,-0.067584,-0.005412,0.069315,0.999455,0.005407,0.026276,-0.019229,0.562928,0.321727,-0.063832,-0.758636,30.324397,24.600088,-100.084478
53502,-7.833439,-0.674550,6.140922,-2.776364,5.391560,-1.892733,1.458694,5.258125,-4.350932,-0.076814,-0.005521,0.063399,0.999391,0.007292,0.026285,-0.021750,0.545459,0.346931,-0.047524,-0.761482,30.851737,28.458266,-100.765976
53503,-8.888265,-0.165932,4.873636,-1.521699,5.998000,-1.784231,1.925859,5.302766,-4.947648,-0.087562,0.000034,0.051065,0.999296,0.009627,0.026508,-0.024732,0.524201,0.373252,-0.031751,-0.764779,31.445889,32.522001,-101.755808
53504,-12.828760,2.024135,5.826757,0.215385,7.266480,2.422353,2.533399,5.136820,-5.421159,-0.126133,0.022912,0.061805,0.999223,0.012664,0.025677,-0.027099,0.499203,0.400067,-0.017832,-0.768391,32.144530,36.656266,-103.074962
53505,-15.945513,6.224154,7.709930,2.615574,5.883204,7.818389,2.644542,4.297622,-5.443123,-0.155985,0.065462,0.081328,0.999311,0.013220,0.021483,-0.027209,0.473082,0.423345,-0.006326,-0.772614,32.605444,40.404455,-104.755407
53506,-15.710536,10.141703,10.028278,3.731929,1.421234,11.023839,1.468682,3.148321,-5.271367,-0.152762,0.104730,0.103472,0.999502,0.007342,0.015739,-0.026352,0.449524,0.438906,0.006610,-0.777976,32.016405,43.539856,-106.887661
53507,-14.927352,7.187017,11.391106,0.641261,0.990158,10.256314,-0.614041,1.788975,-4.766721,-0.146474,0.075736,0.115001,0.999671,-0.003070,0.008944,-0.023831,0.432158,0.444153,0.023520,-0.784484,29.862132,45.822962,-109.440120
53508,-12.844470,1.796405,10.347776,-2.562540,2.679551,6.358105,-0.871572,0.625421,-4.732353,-0.127640,0.021443,0.103789,0.999706,-0.004357,0.003127,-0.023659,0.415381,0.444009,0.038796,-0.792975,27.018548,47.426163,-112.658598
53509,-13.021406,-0.251423,11.071225,-3.939117,3.326518,6.483516,-0.348858,-0.531523,-5.209854,-0.130511,0.001076,0.110366,0.999656,-0.001744,-0.002657,-0.026046,0.395493,0.439985,0.050675,-0.804631,23.677499,48.428970,-116.879142
53510,-12.430589,-0.510515,10.549052,-3.348080,3.030295,5.859797,0.284849,-1.440509,-5.682378,-0.125142,-0.001707,0.104587,0.999569,0.001424,-0.007202,-0.028408,0.372253,0.433100,0.059164,-0.818750,20.056280,48.872654,-121.913392
53511,-13.324813,-0.110321,10.430663,-1.999257,3.007824,6.717954,0.792666,-2.230326,-6.026178,-0.134361,0.002525,0.102817,0.999476,0.003963,-0.011150,-0.030126,0.346367,0.423403,0.064845,-0.834599,16.295838,48.734723,-127.501415
53512,-12.617672,1.568834,10.042931,-0.232118,1.277601,6.336456,1.359973,-3.014991,-5.993060,-0.127140,0.018814,0.098638,0.999414,0.006799,-0.015072,-0.029959,0.319309,0.410966,0.066606,-0.851300,12.851064,47.923177,-133.148828
53513,-12.151751,3.380729,10.235537,1.202858,-0.688695,6.370537,1.246111,-3.541157,-5.805737,-0.122269,0.036720,0.100417,0.999403,0.006229,-0.017702,-0.029023,0.293061,0.395670,0.067605,-0.867750,9.595795,46.577944,-138.539514
53514,-10.523611,2.316983,9.198943,1.091374,-0.398100,4.306427,0.990706,-3.946180,-5.382713,-0.106359,0.025573,0.090021,0.999431,0.004953,-0.019727,-0.026908,0.268969,0.377938,0.068146,-0.883275,6.708077,44.773414,-143.361952
53515,-8.902050,2.533798,8.282689,1.428131,-1.104566,2.475040,1.307082,-4.014515,-4.988835,-0.090001,0.027041,0.081200,0.999466,0.006534,-0.020069,-0.024940,0.245728,0.360031,0.066435,-0.897542,4.506123,42.760498,-147.612778
53516,-7.831689,3.466600,8.226437,1.693602,-2.428960,1.687101,1.194957,-3.819661,-4.762569,-0.079024,0.036056,0.080972,0.999516,0.005974,-0.019095,-0.023809,0.223408,0.342584,0.064935,-0.910224,2.637223,40.743320,-151.440139
53517,-8.194711,2.264248,8.263185,1.772395,-1.346701,1.831590,0.949382,-3.628416,-4.352976,-0.082916,0.024052,0.081245,0.999587,0.004746,-0.018140,-0.021762,0.203095,0.325542,0.064058,-0.921233,1.043653,38.742482,-154.767967
53518,-7.981220,2.589353,8.004008,2.298207,-1.735002,1.419622,1.405894,-3.674759,-3.962005,-0.080740,0.026930,0.078749,0.999610,0.007029,-0.018371,-0.019807,0.183707,0.308631,0.060293,-0.931323,0.077931,36.657039,-157.657018
53519,-7.114140,3.456814,7.146655,2.773843,-2.666185,0.128427,1.457178,-3.581965,-3.459891,-0.071803,0.035291,0.070440,0.999663,0.007285,-0.017908,-0.017298,0.166406,0.292111,0.055603,-0.940154,-0.510338,34.594378,-160.084329
53520,-7.293179,4.205061,7.628920,3.174476,-3.458999,0.532617,1.280261,-3.467003,-2.996107,-0.073607,0.042666,0.075289,0.999717,0.006401,-0.017333,-0.014979,0.151419,0.275946,0.051080,-0.947796,-0.901723,32.585032,-162.109865
53521,-8.040030,3.556544,8.233039,3.552610,-2.797282,1.350564,0.813507,-3.483400,-2.515209,-0.081367,0.036253,0.081065,0.999761,0.004067,-0.017416,-0.012575,0.139273,0.259318,0.048107,-0.954486,-1.304393,30.559307,-163.753012
53522,-10.314063,1.998403,9.089200,4.962524,-0.929313,3.128572,0.675058,-3.705454,-2.119571,-0.104584,0.020785,0.089032,0.999767,0.003375,-0.018526,-0.010597,0.129190,0.241517,0.045064,-0.960702,-1.575405,28.404677,-165.080918
53523,-9.552798,1.244938,8.829586,4.717682,-0.333967,2.368208,0.869042,-4.328001,-1.916470,-0.097287,0.012998,0.086259,0.999711,0.004345,-0.021638,-0.009581,0.119917,0.220768,0.040453,-0.967081,-1.611211,25.893699,-166.233382
