// General information: 
//  MT Manager version: 2022.0.0 
//  XDA version: 2022.0.0 build 7085 rev 119802 built on 2022-11-08
// Device information: 
//  DeviceId: 00B472EC
//  ProductCode: MTW2-3A7G6
//  Firmware Version: 4.4.0
//  Hardware Version: 2.0.0
// Device settings: 
//  Filter Profile: human(46.1)
//  Option Flags: Orientation Smoother Disabled, Position/Velocity Smoother Disabled, Continuous Zero Rotation Update Disabled, AHS Disabled, ICC Disabled
// Coordinate system: ENU
PacketCounter,Acc_X,Acc_Y,Acc_Z,FreeAcc_E,FreeAcc_N,FreeAcc_U,Gyr_X,Gyr_Y,Gyr_Z,VelInc_X,VelInc_Y,VelInc_Z,OriInc_q0,OriInc_q1,OriInc_q2,OriInc_q3,Quat_q0,Quat_q1,Quat_q2,Quat_q3,Roll,Pitch,Yaw
47147,-8.312129,5.086966,0.094424,0.027337,0.041494,-0.067168,0.055219,0.036371,-0.011183,-0.083118,0.050874,0.000973,1.000000,0.000276,0.000182,-0.000056,0.120667,0.652036,-0.263066,-0.700775,88.770434,58.252297,-103.247457
47148,-8.299909,5.035847,0.071962,0.051434,0.074483,-0.104689,0.056283,0.041098,-0.004818,-0.082998,0.050360,0.000751,1.000000,0.000281,0.000205,-0.000024,0.120558,0.652185,-0.263254,-0.700584,88.834369,58.249327,-103.208677
47149,-8.325002,4.950331,0.018015,0.116107,0.149258,-0.128887,0.080606,0.042151,0.001248,-0.083250,0.049503,0.000218,1.000000,0.000403,0.000211,0.000006,0.120391,0.652345,-0.263544,-0.700354,88.913449,58.243112,-103.168549
47150,-8.360107,4.936702,-0.048370,0.180013,0.167330,-0.106795,0.119729,0.044522,0.001328,-0.083601,0.049367,-0.000436,1.000000,0.000599,0.000223,0.000007,0.120101,0.652536,-0.263971,-0.700065,89.016979,58.236599,-103.125951
47151,-8.367779,5.029525,-0.096305,0.202509,0.086804,-0.051716,0.140186,0.036673,-0.000110,-0.083678,0.050296,-0.000912,1.000000,0.000701,0.000183,-0.000001,0.119728,0.652715,-0.264469,-0.699775,89.125085,58.231040,-103.091852
47152,-8.270658,5.037467,0.017616,0.068526,0.057917,-0.129087,0.161846,0.038788,0.000112,-0.082707,0.050374,0.000233,1.000000,0.000809,0.000194,0.000001,0.119289,0.652912,-0.265043,-0.699449,89.247369,58.225090,-103.055574
47153,-8.254843,5.134492,-0.026638,0.082242,-0.036940,-0.091678,0.161862,0.035093,0.002540,-0.082549,0.051344,-0.000210,1.000000,0.000809,0.000175,0.000013,0.118851,0.653093,-0.265627,-0.699133,89.366406,58.217926,-103.023311
47154,-8.259078,5.219211,0.027010,0.005141,-0.089860,-0.043083,0.152725,0.035340,0.005801,-0.082592,0.052189,0.000325,1.000000,0.000764,0.000177,0.000029,0.118457,0.653264,-0.266189,-0.698826,89.480272,58.208619,-102.990782
47155,-8.273144,5.204528,0.090912,-0.062157,-0.052852,-0.038557,0.144544,0.029244,0.005249,-0.082733,0.052042,0.000959,1.000000,0.000723,0.000146,0.000026,0.118077,0.653410,-0.266723,-0.698549,89.583916,58.199818,-102.964876
47156,-8.303073,5.248697,0.068748,-0.053082,-0.075418,0.010044,0.106886,0.033028,0.007062,-0.083032,0.052484,0.000729,1.000000,0.000534,0.000165,0.000035,0.117834,0.653544,-0.267131,-0.698310,89.669317,58.189718,-102.934931
47157,-8.308608,5.235923,-0.014211,0.024808,-0.077456,0.007773,0.066838,0.027608,-0.001681,-0.083086,0.052360,-0.000113,1.000000,0.000334,0.000138,-0.000008,0.117682,0.653648,-0.267372,-0.698146,89.726880,58.184828,-102.910810
47158,-8.326307,5.228434,-0.048070,0.057177,-0.067960,0.018809,0.046009,0.021017,-0.005871,-0.083262,0.052287,-0.000460,1.000000,0.000230,0.000105,-0.000029,0.117577,0.653721,-0.267531,-0.698034,89.766210,58.182075,-102.894031
47159,-8.331136,5.296075,-0.086552,0.079971,-0.129544,0.058511,0.021434,0.017339,-0.017273,-0.083307,0.052968,-0.000853,1.000000,0.000107,0.000087,-0.000086,0.117505,0.653783,-0.267570,-0.697974,89.788156,58.186081,-102.881318
47160,-8.249761,5.301434,-0.119568,0.099927,-0.183184,-0.007866,0.010259,0.015733,-0.014117,-0.082494,0.053020,-0.001186,1.000000,0.000051,0.000079,-0.000071,0.117481,0.653827,-0.267581,-0.697932,89.802093,58.188034,-102.870317
47161,-8.266863,5.232097,-0.217591,0.209888,-0.138842,-0.030056,-0.001557,0.003562,-0.016834,-0.082664,0.052328,-0.002175,1.000000,-0.000008,0.000018,-0.000084,0.117468,0.653827,-0.267547,-0.697947,89.798185,58.191757,-102.872347
47162,-8.276743,5.241418,-0.297440,0.287550,-0.159752,-0.016913,-0.005860,0.003461,-0.017339,-0.082763,0.052421,-0.002975,1.000000,-0.000029,0.000017,-0.000087,0.117468,0.653824,-0.267499,-0.697968,89.791542,58.195531,-102.874697
47163,-8.271766,5.236919,-0.320839,0.311092,-0.164644,-0.023587,-0.001945,-0.000758,-0.019847,-0.082712,0.052377,-0.003209,1.000000,-0.000010,-0.000004,-0.000099,0.117440,0.653812,-0.267457,-0.698000,89.783434,58.200958,-102.881520
47164,-8.287188,5.220409,-0.246450,0.243827,-0.127591,-0.019059,0.005583,-0.002371,-0.017742,-0.082867,0.052212,-0.002464,1.000000,0.000028,-0.000012,-0.000089,0.117394,0.653796,-0.267451,-0.698025,89.777953,58.204950,-102.890217
47165,-8.277213,5.257582,-0.324494,0.312411,-0.181776,-0.008144,-0.001394,-0.004912,-0.021669,-0.082766,0.052585,-0.003247,1.000000,-0.000007,-0.000025,-0.000108,0.117352,0.653773,-0.267408,-0.698071,89.766341,58.211399,-102.901573
47166,-8.188616,5.186516,-0.216134,0.210657,-0.145476,-0.120703,-0.005181,-0.009773,-0.014121,-0.081882,0.051871,-0.002167,1.000000,-0.000026,-0.000049,-0.000071,0.117344,0.653719,-0.267380,-0.698133,89.747858,58.213297,-102.918309
47167,-8.152577,5.110291,-0.095247,0.103704,-0.074753,-0.191236,0.003014,-0.003779,-0.013576,-0.081522,0.051108,-0.000953,1.000000,0.000015,-0.000019,-0.000068,0.117318,0.653692,-0.267378,-0.698163,89.739868,58.215113,-102.928246
47168,-8.235042,5.086372,-0.164041,0.185265,-0.027951,-0.133902,-0.007242,0.012040,-0.011564,-0.082348,0.050868,-0.001637,1.000000,-0.000036,0.000060,-0.000058,0.117355,0.653710,-0.267338,-0.698156,89.740382,58.215599,-102.921244
47169,-8.294380,5.082847,-0.128526,0.158113,0.013146,-0.085230,0.004204,0.006214,-0.011967,-0.082941,0.050833,-0.001282,1.000000,0.000021,0.000031,-0.000060,0.117343,0.653716,-0.267340,-0.698151,89.742339,58.216512,-102.920347
47170,-8.322574,5.133700,0.060169,-0.032280,0.026872,-0.034039,0.014436,0.000507,-0.011430,-0.083223,0.051342,0.000606,1.000000,0.000072,0.000003,-0.000057,0.117294,0.653707,-0.267383,-0.698152,89.744610,58.216891,-102.925890
47171,-8.308279,5.118946,0.116349,-0.085619,0.043780,-0.053825,-0.005589,-0.003987,-0.014586,-0.083079,0.051196,0.001160,1.000000,-0.000028,-0.000020,-0.000073,0.117292,0.653675,-0.267348,-0.698195,89.731503,58.219282,-102.936109
47172,-8.329019,5.089593,0.115881,-0.075766,0.077922,-0.051635,-0.025366,-0.002233,-0.014885,-0.083286,0.050902,0.001151,1.000000,-0.000127,-0.000011,-0.000074,0.117358,0.653637,-0.267242,-0.698260,89.708418,58.221632,-102.944651
47173,-8.388773,4.959272,0.143779,-0.070119,0.222049,-0.069365,-0.022553,0.001848,-0.013750,-0.083884,0.049599,0.001433,1.000000,-0.000113,0.000009,-0.000069,0.117422,0.653615,-0.267147,-0.698307,89.690982,58.223559,-102.948497
47174,-8.391770,5.063574,0.181736,-0.124618,0.144590,-0.011760,-0.018634,-0.002370,-0.016259,-0.083914,0.050643,0.001812,1.000000,-0.000093,-0.000012,-0.000081,0.117460,0.653582,-0.267061,-0.698364,89.671616,58.226693,-102.957201
47175,-8.371539,5.045738,0.215455,-0.155196,0.155731,-0.038219,-0.012734,-0.001638,-0.011237,-0.083713,0.050462,0.002151,1.000000,-0.000064,-0.000008,-0.000056,0.117496,0.653550,-0.267010,-0.698407,89.656579,58.227167,-102.964906
47176,-8.325253,5.053294,0.227034,-0.172042,0.127887,-0.073529,-0.012734,-0.001640,-0.011237,-0.083250,0.050538,0.002266,1.000000,-0.000064,-0.000008,-0.000056,0.117534,0.653516,-0.266961,-0.698451,89.641295,58.227424,-102.972786
47177,-8.336437,4.997328,0.206508,-0.139221,0.175105,-0.093528,-0.010443,0.000055,-0.013270,-0.083361,0.049979,0.002062,1.000000,-0.000052,0.000000,-0.000066,0.117558,0.653494,-0.266910,-0.698487,89.629117,58.229078,-102.978539
47178,-8.341455,5.064937,0.172230,-0.116364,0.113615,-0.053759,-0.018251,-0.001631,-0.010803,-0.083412,0.050654,0.001717,1.000000,-0.000091,-0.000008,-0.000054,0.117615,0.653457,-0.266842,-0.698538,89.610682,58.229084,-102.986407
47179,-8.284816,5.000898,0.195505,-0.132555,0.142341,-0.135521,-0.025257,0.005928,-0.012177,-0.082845,0.050014,0.001951,1.000000,-0.000126,0.000030,-0.000061,0.117699,0.653445,-0.266740,-0.698574,89.595451,58.230129,-102.985831
47180,-8.328812,4.967479,0.188710,-0.113876,0.190856,-0.115720,-0.020848,0.017787,-0.011402,-0.083285,0.049680,0.001889,1.000000,-0.000104,0.000089,-0.000057,0.117789,0.653475,-0.266650,-0.698565,89.593488,58.230556,-102.972574
47181,-8.420059,4.954626,0.039719,0.044613,0.215893,-0.045461,-0.014950,0.018521,-0.006379,-0.084199,0.049549,0.000401,1.000000,-0.000075,0.000093,-0.000032,0.117876,0.653506,-0.266596,-0.698543,89.595808,58.228341,-102.958308
47182,-8.382160,4.944342,0.100099,-0.017542,0.218436,-0.082881,0.030848,0.002435,-0.012880,-0.083818,0.049449,0.001010,1.000000,0.000154,0.000012,-0.000064,0.117771,0.653514,-0.266690,-0.698517,89.609253,58.229553,-102.961768
47183,-8.304039,4.974212,0.063377,0.002016,0.145744,-0.133709,0.045907,0.002807,-0.011107,-0.083038,0.049747,0.000646,1.000000,0.000230,0.000014,-0.000056,0.117621,0.653532,-0.266843,-0.698467,89.631888,58.229978,-102.964764
47184,-8.306549,5.062861,-0.001443,0.047416,0.059633,-0.085123,0.043896,0.000814,-0.011206,-0.083063,0.050633,-0.000003,1.000000,0.000219,0.000004,-0.000056,0.117477,0.653540,-0.266990,-0.698428,89.651320,58.230226,-102.969974
47185,-8.202833,5.134187,0.038730,-0.019208,-0.043387,-0.135622,0.064612,-0.004333,-0.007271,-0.082026,0.051345,0.000402,1.000000,0.000323,-0.000022,-0.000036,0.117270,0.653538,-0.267224,-0.698375,89.678063,58.228447,-102.980625
47186,-8.226489,5.129535,0.030505,-0.009580,-0.028113,-0.117983,0.055036,-0.001762,-0.002044,-0.082264,0.051296,0.000318,1.000000,0.000275,-0.000009,-0.000010,0.117118,0.653532,-0.267441,-0.698323,89.701542,58.223440,-102.988583
47187,-8.236606,5.184698,-0.083010,0.090379,-0.092548,-0.080631,0.040636,0.001890,-0.002935,-0.082365,0.051848,-0.000819,1.000000,0.000203,0.000009,-0.000015,0.117014,0.653532,-0.267601,-0.698279,89.720350,58.219195,-102.992335
47188,-8.287069,5.199668,-0.100109,0.108633,-0.081736,-0.029866,0.048446,-0.000009,-0.002959,-0.082870,0.051998,-0.000988,1.000000,0.000242,-0.000000,-0.000015,0.116883,0.653529,-0.267791,-0.698231,89.741666,58.214719,-102.998396
47189,-8.262408,5.269069,-0.155553,0.145406,-0.163388,-0.014380,0.033665,-0.000674,-0.006862,-0.082622,0.052694,-0.001547,1.000000,0.000168,-0.000003,-0.000034,0.116784,0.653522,-0.267916,-0.698206,89.754111,58.212708,-103.004985
47190,-8.198347,5.284586,-0.117053,0.096917,-0.199891,-0.060554,0.012251,-0.000151,-0.001805,-0.081983,0.052847,-0.001167,1.000000,0.000061,-0.000001,-0.000009,0.116775,0.653496,-0.267983,-0.698206,89.754561,58.207573,-103.011197
47191,-8.204553,5.160770,-0.103614,0.107628,-0.090365,-0.120462,0.007670,0.007172,-0.005072,-0.082044,0.051610,-0.001031,1.000000,0.000038,0.000036,-0.000025,0.116776,0.653497,-0.268020,-0.698190,89.759364,58.204541,-103.009461
47192,-8.290105,5.160816,-0.177219,0.189099,-0.062307,-0.047871,0.000938,0.014443,-0.008592,-0.082899,0.051612,-0.001766,1.000000,0.000005,0.000072,-0.000043,0.116800,0.653525,-0.268017,-0.698162,89.766794,58.203329,-102.999835
47193,-8.349246,5.157570,-0.142134,0.162063,-0.021095,0.000769,0.012530,0.003124,-0.006382,-0.083491,0.051578,-0.001417,1.000000,0.000063,0.000016,-0.000032,0.116776,0.653517,-0.268068,-0.698153,89.770617,58.201048,-103.002447
47194,-8.315867,5.216028,-0.116430,0.121979,-0.080914,0.003255,0.012709,-0.001787,-0.013654,-0.083155,0.052166,-0.001162,1.000000,0.000064,-0.000009,-0.000068,0.116722,0.653501,-0.268100,-0.698165,89.769773,58.202698,-103.010491
47195,-8.268806,5.178749,-0.074521,0.082727,-0.065371,-0.056303,0.003166,-0.002170,-0.015859,-0.082684,0.051794,-0.000745,1.000000,0.000016,-0.000011,-0.000079,0.116689,0.653483,-0.268090,-0.698192,89.763312,58.205837,-103.018838
47196,-8.291109,5.210166,-0.007897,0.015058,-0.065980,-0.020660,-0.003149,-0.000692,-0.018908,-0.082906,0.052109,-0.000080,1.000000,-0.000016,-0.000003,-0.000095,0.116669,0.653468,-0.268048,-0.698224,89.754372,58.210500,-103.025718
47197,-8.317999,5.183410,0.014507,0.002147,-0.026083,-0.011852,-0.015401,0.003022,-0.019550,-0.083175,0.051842,0.000142,1.000000,-0.000077,0.000015,-0.000098,0.116691,0.653462,-0.267958,-0.698261,89.742081,58.215758,-103.028373
47198,-8.292962,5.207218,-0.006542,0.016629,-0.064218,-0.020651,-0.014183,-0.007800,-0.013151,-0.082926,0.052078,-0.000072,1.000000,-0.000071,-0.000039,-0.000066,0.116719,0.653409,-0.267901,-0.698328,89.720266,58.217101,-103.042961
47199,-8.207350,5.160984,0.098503,-0.085650,-0.047090,-0.117508,-0.026338,0.004096,-0.011097,-0.082071,0.051615,0.000980,1.000000,-0.000132,0.000020,-0.000055,0.116807,0.653388,-0.267801,-0.698371,89.702743,58.217506,-103.044517
47200,-8.241745,5.100753,0.073469,-0.043969,0.014511,-0.120046,-0.050981,0.009873,-0.010091,-0.082415,0.051012,0.000726,1.000000,-0.000255,0.000049,-0.000050,0.116989,0.653371,-0.267615,-0.698428,89.676200,58.217145,-103.039863
47201,-8.290006,5.009465,0.023832,0.029502,0.103546,-0.127239,-0.065941,0.017664,-0.009167,-0.082898,0.050099,0.000229,1.000000,-0.000330,0.000088,-0.000046,0.117231,0.653373,-0.267374,-0.698479,89.648546,58.216487,-103.026582
47202,-8.308466,5.017461,0.095672,-0.037948,0.121795,-0.107101,-0.053968,0.021371,-0.011281,-0.083082,0.050180,0.000952,1.000000,-0.000270,0.000107,-0.000056,0.117434,0.653395,-0.267167,-0.698502,89.630916,58.216852,-103.009429
47203,-8.374682,4.934979,0.115125,-0.032712,0.228187,-0.094178,-0.044566,0.023682,-0.009229,-0.083744,0.049354,0.001150,1.000000,-0.000223,0.000118,-0.000046,0.117615,0.653430,-0.266996,-0.698505,89.621015,58.216285,-102.989518
47204,-8.420915,4.880794,0.135429,-0.036518,0.301366,-0.083342,-0.033809,0.023952,-0.007958,-0.084207,0.048812,0.001356,1.000000,-0.000169,0.000120,-0.000040,0.117767,0.653469,-0.266868,-0.698491,89.617342,58.214759,-102.969535
47205,-8.461049,4.823861,0.131527,-0.017607,0.368726,-0.079239,-0.012018,0.020649,-0.005105,-0.084609,0.048241,0.001321,1.000000,-0.000060,0.000103,-0.000026,0.117853,0.653508,-0.266826,-0.698457,89.623357,58.211814,-102.952801
47206,-8.425068,4.903601,0.129255,-0.035160,0.284288,-0.067857,0.020573,0.011091,-0.005969,-0.084249,0.049038,0.001302,1.000000,0.000103,0.000055,-0.000030,0.117817,0.653531,-0.266903,-0.698412,89.638961,58.209099,-102.946794
47207,-8.397480,4.965566,0.177140,-0.098025,0.230235,-0.058545,0.040072,0.006095,-0.001081,-0.083974,0.049656,0.001784,1.000000,0.000200,0.000030,-0.000005,0.117725,0.653543,-0.267067,-0.698354,89.661364,58.203786,-102.946265
47208,-8.487564,4.912374,0.386208,-0.283572,0.368589,-0.009471,0.065045,0.004057,0.010814,-0.084878,0.049118,0.003880,1.000000,0.000325,0.000020,0.000054,0.117593,0.653546,-0.267357,-0.698262,89.696030,58.191430,-102.947811
47209,-8.537691,4.691991,0.447237,-0.299852,0.593765,-0.083119,0.087589,0.020069,0.012370,-0.085379,0.046913,0.004501,1.000000,0.000438,0.000100,0.000062,0.117412,0.653616,-0.267722,-0.698087,89.758575,58.178471,-102.931897
47210,-8.399071,4.583900,0.261399,-0.120198,0.574562,-0.258616,0.106444,0.028819,0.004163,-0.083991,0.045836,0.002650,1.000000,0.000532,0.000144,0.000021,0.117154,0.653738,-0.268120,-0.697863,89.839758,58.169977,-102.906611
47211,-8.116230,4.685268,0.160536,-0.081231,0.325492,-0.445823,0.141907,0.027385,-0.007865,-0.081160,0.046855,0.001650,1.000000,0.000710,0.000137,-0.000039,0.116736,0.653894,-0.268602,-0.697602,89.940050,58.168626,-102.882711
47212,-8.000790,4.976132,0.295061,-0.289915,0.057473,-0.390680,0.171535,0.032746,-0.012352,-0.080004,0.049764,0.003006,1.000000,0.000858,0.000164,-0.000062,0.116213,0.654089,-0.269172,-0.697287,90.062098,58.169548,-102.853220
47213,-8.093766,5.276734,0.220717,-0.273957,-0.157556,-0.153402,0.140257,0.046778,-0.007344,-0.080935,0.052769,0.002263,1.000000,0.000701,0.000234,-0.000037,0.115828,0.654309,-0.269638,-0.696964,90.179323,58.167826,-102.808291
47214,-8.317553,5.650717,0.102873,-0.214310,-0.375650,0.233994,0.104573,0.052576,-0.005540,-0.083174,0.056509,0.001080,1.000000,0.000523,0.000263,-0.000028,0.115575,0.654525,-0.269984,-0.696669,90.281284,58.164736,-102.757284
47215,-8.311354,5.883490,-0.011535,-0.156117,-0.594804,0.351762,0.082447,0.027235,-0.004114,-0.083112,0.058837,-0.000080,1.000000,0.000412,0.000136,-0.000021,0.115363,0.654639,-0.270272,-0.696486,90.347283,58.161131,-102.733756
47216,-8.180823,5.837150,-0.104019,-0.076749,-0.642953,0.216756,0.056438,0.003150,-0.007618,-0.081806,0.058375,-0.001022,1.000000,0.000282,0.000016,-0.000038,0.115193,0.654657,-0.270472,-0.696419,90.376053,58.159349,-102.736437
47217,-8.102694,5.531970,-0.197810,0.062782,-0.451057,-0.010235,0.038140,-0.006155,-0.003656,-0.081026,0.055322,-0.001970,1.000000,0.000191,-0.000031,-0.000018,0.115083,0.654629,-0.270625,-0.696405,90.385863,58.155575,-102.749013
47218,-8.080354,5.118843,-0.290319,0.229729,-0.140599,-0.246789,0.037008,-0.004952,0.004864,-0.080805,0.051187,-0.002896,1.000000,0.000185,-0.000025,0.000024,0.115010,0.654591,-0.270803,-0.696383,90.395948,58.146675,-102.760585
47219,-8.055285,4.853439,-0.402994,0.386596,0.042454,-0.407656,0.066015,0.004027,0.012059,-0.080556,0.048531,-0.004012,1.000000,0.000330,0.000020,0.000060,0.114875,0.654591,-0.271101,-0.696289,90.431028,58.133823,-102.762584
47220,-8.133322,4.851033,-0.503994,0.490957,0.064834,-0.342090,0.110514,0.007533,0.021549,-0.081339,0.048504,-0.005010,1.000000,0.000553,0.000038,0.000108,0.114636,0.654616,-0.271583,-0.696117,90.494600,58.115312,-102.760769
47221,-8.253939,5.124391,-0.427127,0.371018,-0.077585,-0.095401,0.142868,0.005155,0.017989,-0.082544,0.051240,-0.004233,1.000000,0.000714,0.000026,0.000090,0.114274,0.654658,-0.272165,-0.695910,90.574695,58.099085,-102.761294
47222,-8.335551,5.344973,-0.257401,0.165706,-0.174959,0.089753,0.139558,-0.004955,0.016187,-0.083360,0.053445,-0.002539,1.000000,0.000698,-0.000025,0.000081,0.113904,0.654663,-0.272737,-0.695742,90.643392,58.083720,-102.773044
47223,-8.431299,5.433993,-0.250085,0.146971,-0.194399,0.218176,0.089923,0.006532,0.002702,-0.084314,0.054340,-0.002474,1.000000,0.000450,0.000033,0.000014,0.113663,0.654698,-0.273084,-0.695612,90.694540,58.076228,-102.772090
47224,-8.534245,5.316685,-0.264683,0.193025,-0.046044,0.243712,0.039286,0.017373,-0.002103,-0.085342,0.053168,-0.002629,1.000000,0.000196,0.000087,-0.000011,0.113588,0.654749,-0.273235,-0.695518,90.726488,58.071194,-102.759450
47225,-8.571652,5.153473,-0.304912,0.267094,0.099395,0.189475,0.014438,0.013994,-0.011405,-0.085714,0.051540,-0.003039,1.000000,0.000072,0.000070,-0.000057,0.113556,0.654787,-0.273269,-0.695473,90.741423,58.071725,-102.750166
47226,-8.561005,5.036577,-0.261226,0.246102,0.200134,0.118352,0.000915,0.003128,-0.018737,-0.085605,0.050374,-0.002611,1.000000,0.000005,0.000016,-0.000094,0.113529,0.654788,-0.273240,-0.695488,90.738482,58.076323,-102.752731
47227,-8.353318,5.036314,-0.283233,0.244052,0.086801,-0.057919,-0.024215,0.000055,-0.025912,-0.083527,0.050374,-0.002838,1.000000,-0.000121,0.000000,-0.000130,0.113554,0.654776,-0.273100,-0.695550,90.718630,58.085280,-102.758280
47228,-8.347792,4.986366,-0.273290,0.245220,0.125289,-0.089091,-0.029821,-0.001011,-0.033070,-0.083470,0.049877,-0.002741,1.000000,-0.000149,-0.000005,-0.000165,0.113573,0.654765,-0.272919,-0.695628,90.694426,58.098118,-102.765147
47229,-8.257733,5.090076,-0.313629,0.255116,-0.018489,-0.110524,-0.038999,-0.000581,-0.029842,-0.082570,0.050912,-0.003146,1.000000,-0.000195,-0.000003,-0.000149,0.113631,0.654748,-0.272716,-0.695715,90.665561,58.109326,-102.771448
47230,-8.237743,5.154043,-0.239028,0.169554,-0.066682,-0.094225,-0.036845,-0.000545,-0.029585,-0.082370,0.051552,-0.002400,1.000000,-0.000184,-0.000003,-0.000148,0.113685,0.654730,-0.272522,-0.695799,90.637701,58.120160,-102.777880
47231,-8.182190,5.215973,-0.205430,0.120513,-0.140979,-0.108956,-0.052481,-0.000261,-0.027128,-0.081815,0.052170,-0.002068,1.000000,-0.000262,-0.000001,-0.000136,0.113798,0.654702,-0.272280,-0.695902,90.601370,58.129810,-102.783839
47232,-8.171093,5.180985,-0.118438,0.044567,-0.099522,-0.137383,-0.051464,-0.002538,-0.015887,-0.081707,0.051816,-0.001199,1.000000,-0.000257,-0.000013,-0.000079,0.113944,0.654650,-0.272081,-0.696004,90.563143,58.132804,-102.792613
47233,-8.238568,5.142549,-0.128291,0.072243,-0.036511,-0.100339,-0.043273,0.006964,-0.017831,-0.082381,0.051433,-0.001291,1.000000,-0.000216,0.000035,-0.000089,0.114069,0.654640,-0.271897,-0.696065,90.538666,58.137079,-102.790748
47234,-8.301272,5.271923,-0.186141,0.112554,-0.125294,0.021466,-0.041405,0.003766,-0.012978,-0.083009,0.052724,-0.001871,1.000000,-0.000207,0.000019,-0.000065,0.114202,0.654612,-0.271739,-0.696132,90.511983,58.138369,-102.792716
47235,-8.321136,5.297964,-0.015126,-0.054677,-0.098186,0.051253,-0.028063,0.001817,-0.013394,-0.083208,0.052985,-0.000158,1.000000,-0.000140,0.000009,-0.000067,0.114286,0.654586,-0.271626,-0.696186,90.491437,58.140123,-102.796534
47236,-8.285902,5.376844,-0.014789,-0.072215,-0.182584,0.062954,-0.060489,0.006549,-0.019890,-0.082854,0.053777,-0.000161,1.000000,-0.000302,0.000033,-0.000099,0.114460,0.654566,-0.271377,-0.696273,90.456436,58.145359,-102.795421
47237,-8.245392,5.342753,0.054656,-0.134383,-0.161425,0.010264,-0.091043,0.011610,-0.023998,-0.082447,0.053438,0.000527,1.000000,-0.000455,0.000058,-0.000120,0.114726,0.654553,-0.271005,-0.696387,90.408897,58.153140,-102.788508
47238,-8.296849,5.328492,0.174740,-0.238114,-0.098190,0.046052,-0.113836,0.017756,-0.020686,-0.082963,0.053294,0.001724,1.000000,-0.000569,0.000089,-0.000103,0.115088,0.654542,-0.270561,-0.696510,90.353661,58.158790,-102.775234
47239,-8.325510,5.263631,0.130507,-0.173705,-0.042452,0.036423,-0.153412,0.024764,-0.023862,-0.083249,0.052647,0.001275,1.000000,-0.000767,0.000124,-0.000119,0.115577,0.654538,-0.269963,-0.696665,90.282496,58.166456,-102.753966
47240,-8.234840,5.241605,0.087855,-0.131326,-0.083621,-0.052028,-0.169468,0.008833,-0.024619,-0.082342,0.052427,0.000838,1.000000,-0.000847,0.000044,-0.000123,0.116095,0.654469,-0.269317,-0.696894,90.187147,58.174399,-102.750391
47241,-8.165479,5.126118,0.104192,-0.124847,-0.023587,-0.171793,-0.188017,0.010320,-0.025915,-0.081648,0.051273,0.000998,1.000000,-0.000940,0.000052,-0.000130,0.116669,0.654395,-0.268603,-0.697143,90.082764,58.183272,-102.745263
47242,-8.244553,5.104261,-0.082231,0.079470,-0.009887,-0.115963,-0.205198,0.009719,-0.027986,-0.082438,0.051053,-0.000871,0.999999,-0.001026,0.000049,-0.000140,0.117293,0.654312,-0.267821,-0.697417,89.967718,58.193150,-102.740777
47243,-8.299200,5.014397,-0.101008,0.130233,0.084909,-0.116970,-0.179295,0.000162,-0.027415,-0.082985,0.050154,-0.001055,1.000000,-0.000896,0.000001,-0.000137,0.117820,0.654210,-0.267135,-0.697687,89.858911,58.202894,-102.746460
47244,-8.352387,4.961538,-0.048542,0.103766,0.163948,-0.099607,-0.149459,-0.013538,-0.029347,-0.083517,0.049627,-0.000528,1.000000,-0.000747,-0.000068,-0.000147,0.118226,0.654078,-0.266556,-0.697963,89.754241,58.213516,-102.767340
47245,-8.308739,4.849702,-0.142140,0.218784,0.210810,-0.195898,-0.135106,-0.014244,-0.020988,-0.083082,0.048505,-0.001460,1.000000,-0.000676,-0.000071,-0.000105,0.118612,0.653943,-0.266054,-0.698216,89.657419,58.219530,-102.788652
47246,-8.325742,4.796341,-0.133585,0.228824,0.263723,-0.209625,-0.086073,-0.010657,-0.013060,-0.083254,0.047968,-0.001361,1.000000,-0.000430,-0.000053,-0.000065,0.118871,0.653837,-0.265747,-0.698388,89.591766,58.220796,-102.806353
47247,-8.382690,4.813393,-0.121160,0.224563,0.280579,-0.152264,-0.043214,-0.007499,-0.008041,-0.083825,0.048137,-0.001225,1.000000,-0.000216,-0.000037,-0.000040,0.119010,0.653761,-0.265605,-0.698489,89.553901,58.219395,-102.820427
47248,-8.413906,4.855594,-0.132344,0.233967,0.258396,-0.103588,-0.002087,-0.014176,-0.017850,-0.084135,0.048563,-0.001330,1.000000,-0.000010,-0.000071,-0.000089,0.118973,0.653699,-0.265578,-0.698564,89.533075,58.223376,-102.842003
47249,-8.393642,4.919019,-0.058180,0.148379,0.210232,-0.087095,0.036536,-0.014090,-0.020788,-0.083931,0.049199,-0.000579,1.000000,0.000183,-0.000070,-0.000104,0.118798,0.653665,-0.265676,-0.698588,89.534707,58.229261,-102.863303
47250,-8.291874,5.087441,0.124662,-0.073215,0.056692,-0.084162,0.061335,-0.021692,-0.021599,-0.082913,0.050883,0.001253,1.000000,0.000307,-0.000108,-0.000108,0.118531,0.653619,-0.265863,-0.698605,89.543229,58.235355,-102.893098
47251,-8.166955,5.179035,0.271719,-0.248939,-0.052221,-0.141561,0.055251,-0.021138,-0.016915,-0.081665,0.051797,0.002723,1.000000,0.000276,-0.000106,-0.000085,0.118300,0.653567,-0.266042,-0.698625,89.549091,58.239001,-102.921905
47252,-8.151512,5.119787,0.358295,-0.324781,0.007982,-0.185528,0.020780,-0.004457,-0.005898,-0.081514,0.051200,0.003586,1.000000,0.000104,-0.000022,-0.000029,0.118243,0.653537,-0.266129,-0.698630,89.550438,58.236180,-102.932808
47253,-8.218357,5.111174,0.214779,-0.174827,0.018866,-0.133809,-0.018211,0.009420,-0.000701,-0.082183,0.051112,0.002147,1.000000,-0.000091,0.000047,-0.000004,0.118348,0.653526,-0.266087,-0.698638,89.542598,58.230658,-102.928401
47254,-8.270117,5.060160,0.258476,-0.201276,0.097927,-0.116464,-0.023878,0.014892,-0.002874,-0.082700,0.050603,0.002585,1.000000,-0.000119,0.000074,-0.000014,0.118473,0.653532,-0.266016,-0.698638,89.536284,58.226192,-102.918220
47255,-8.382037,5.160975,0.217666,-0.165492,0.062920,0.031613,-0.049683,0.017688,-0.008409,-0.083818,0.051614,0.002171,1.000000,-0.000248,0.000088,-0.000042,0.118666,0.653542,-0.265834,-0.698665,89.517997,58.225131,-102.904713
47256,-8.442703,5.201552,0.224566,-0.169812,0.061114,0.104633,-0.076765,0.008850,-0.013284,-0.084423,0.052022,0.002229,1.000000,-0.000384,0.000044,-0.000066,0.118920,0.653510,-0.265548,-0.698761,89.475711,58.226603,-102.901200
47257,-8.481771,5.098675,0.256189,-0.173250,0.171860,0.083928,-0.096751,0.004212,-0.016499,-0.084813,0.050995,0.002539,1.000000,-0.000484,0.000021,-0.000082,0.119220,0.653455,-0.265182,-0.698900,89.417871,58.230120,-102.902551
47258,-8.512560,5.042891,0.107590,-0.009162,0.200008,0.080033,-0.114873,0.003468,-0.019762,-0.085121,0.050438,0.001048,1.000000,-0.000574,0.000017,-0.000099,0.119568,0.653390,-0.264745,-0.699068,89.348703,58.235274,-102.904976
47259,-8.461036,4.965575,0.059313,0.051246,0.225165,-0.004718,-0.101106,-0.000611,-0.022175,-0.084605,0.049665,0.000568,1.000000,-0.000506,-0.000003,-0.000111,0.119855,0.653322,-0.264350,-0.699231,89.283813,58.242000,-102.911925
47260,-8.425370,4.917665,0.053244,0.066095,0.243253,-0.060273,-0.057747,-0.009677,-0.021716,-0.084248,0.049186,0.000514,1.000000,-0.000289,-0.000048,-0.000109,0.119992,0.653247,-0.264114,-0.699367,89.235167,58.248173,-102.928708
47261,-8.354067,4.868880,0.004392,0.117377,0.235128,-0.146903,-0.030590,-0.010908,-0.019402,-0.083536,0.048697,0.000032,1.000000,-0.000153,-0.000055,-0.000097,0.120044,0.653181,-0.263981,-0.699469,89.201173,58.253224,-102.946927
47262,-8.326582,4.914280,-0.042639,0.154337,0.172335,-0.146747,-0.000633,-0.015160,-0.011074,-0.083263,0.049147,-0.000433,1.000000,-0.000003,-0.000076,-0.000055,0.120025,0.653108,-0.263983,-0.699541,89.180296,58.253245,-102.969535
47263,-8.238555,5.000042,-0.054300,0.141537,0.053090,-0.176594,0.000501,-0.005177,-0.009427,-0.082383,0.050004,-0.000545,1.000000,0.000003,-0.000026,-0.000047,0.120021,0.653069,-0.263985,-0.699577,89.169562,58.252652,-102.980886
47264,-8.241172,4.978615,-0.027710,0.119750,0.078571,-0.185446,0.012951,0.012143,0.001852,-0.082412,0.049785,-0.000269,1.000000,0.000065,0.000061,0.000009,0.120038,0.653081,-0.264060,-0.699534,89.181920,58.245491,-102.973564
47265,-8.224291,5.015048,-0.130919,0.211053,0.018563,-0.181388,0.000174,0.024063,-0.009270,-0.082241,0.050154,-0.001299,1.000000,0.000001,0.000120,-0.000046,0.120073,0.653144,-0.264045,-0.699475,89.198098,58.245036,-102.953163
47266,-8.319231,5.122845,-0.144844,0.215312,-0.024939,-0.044006,0.001246,0.025877,-0.010355,-0.083190,0.051233,-0.001437,1.000000,0.000006,0.000129,-0.000052,0.120105,0.653214,-0.264030,-0.699410,89.216298,58.244974,-102.931083
47267,-8.372297,5.167665,0.037258,0.034267,0.003914,0.026029,-0.003837,0.023634,-0.011920,-0.083720,0.051682,0.000381,1.000000,-0.000019,0.000118,-0.000060,0.120143,0.653276,-0.263994,-0.699359,89.229740,58.246031,-102.911274
47268,-8.216999,5.163998,0.026728,0.026819,-0.075164,-0.108034,-0.044957,0.022607,-0.014710,-0.082166,0.051646,0.000265,1.000000,-0.000225,0.000113,-0.000074,0.120305,0.653313,-0.263805,-0.699368,89.218388,58.248436,-102.892816
47269,-8.080537,5.116271,-0.083273,0.128217,-0.129913,-0.250004,-0.057335,0.013441,-0.023265,-0.080799,0.051172,-0.000842,1.000000,-0.000287,0.000067,-0.000116,0.120467,0.653323,-0.263548,-0.699428,89.191605,58.255927,-102.883895
47270,-7.988562,5.131929,-0.059715,0.093112,-0.187074,-0.319863,-0.033192,0.012589,-0.032268,-0.079877,0.051332,-0.000601,1.000000,-0.000166,0.000063,-0.000161,0.120517,0.653354,-0.263350,-0.699465,89.177490,58.268315,-102.876615
47271,-8.117610,5.119442,0.161341,-0.106167,-0.065495,-0.215045,0.018095,0.014561,-0.023903,-0.081170,0.051204,0.001624,1.000000,0.000090,0.000073,-0.000120,0.120428,0.653414,-0.263357,-0.699422,89.194991,58.276145,-102.867020
47272,-8.179629,5.175243,0.263104,-0.210214,-0.058343,-0.132238,0.032416,0.017985,-0.000502,-0.081796,0.051752,0.002647,1.000000,0.000162,0.000090,-0.000003,0.120382,0.653462,-0.263488,-0.699335,89.223884,58.270376,-102.853372
47273,-8.643084,5.160269,0.292291,-0.184427,0.201404,0.254195,0.049457,0.021341,0.036361,-0.086440,0.051586,0.002945,1.000000,0.000247,0.000107,0.000182,0.120411,0.653484,-0.263797,-0.699193,89.266332,58.243737,-102.835360
47274,-8.196320,5.262892,0.166751,-0.132120,-0.134558,-0.072568,0.001087,-0.011553,0.043565,-0.081975,0.052611,0.001663,1.000000,0.000005,-0.000058,0.000218,0.120582,0.653352,-0.263981,-0.699218,89.250450,58.212496,-102.853258
47275,-8.419218,5.402344,0.144046,-0.105874,-0.136994,0.190279,-0.016686,-0.004852,0.023424,-0.084199,0.054014,0.001434,1.000000,-0.000083,-0.000024,0.000117,0.120748,0.653260,-0.264032,-0.699256,89.230646,58.193052,-102.863994
47276,-8.370682,5.315623,0.015986,0.031539,-0.114959,0.102463,-0.039045,0.002002,0.004896,-0.083708,0.053154,0.000150,1.000000,-0.000195,0.000010,0.000024,0.120932,0.653202,-0.263941,-0.699312,89.203862,58.184064,-102.867671
47277,-8.477529,5.045056,0.147132,-0.034882,0.193852,0.051588,-0.018430,0.014238,0.006607,-0.084777,0.050448,0.001473,1.000000,-0.000092,0.000071,0.000033,0.121070,0.653197,-0.263920,-0.699301,89.200407,58.174419,-102.858039
47278,-8.502052,4.812183,0.116882,0.039413,0.395221,-0.050623,-0.043079,0.019815,0.007565,-0.085022,0.048119,0.001167,1.000000,-0.000215,0.000099,0.000038,0.121300,0.653195,-0.263813,-0.699303,89.187793,58.164045,-102.842317
47279,-8.323947,4.777679,0.041027,0.100036,0.317145,-0.220742,-0.059413,0.025518,-0.005770,-0.083238,0.047779,0.000407,1.000000,-0.000297,0.000128,-0.000029,0.121544,0.653222,-0.263600,-0.699316,89.171144,58.161589,-102.820380
47280,-8.346160,4.950015,-0.111850,0.222295,0.153460,-0.112142,-0.029195,0.035253,-0.009252,-0.083460,0.049504,-0.001111,1.000000,-0.000146,0.000176,-0.000046,0.121691,0.653305,-0.263477,-0.699259,89.180506,58.160979,-102.788152
47281,-8.510380,5.131670,0.101276,-0.000560,0.131197,0.124799,0.007919,0.035454,-0.026543,-0.085097,0.051328,0.001030,1.000000,0.000040,0.000177,-0.000133,0.121656,0.653435,-0.263425,-0.699163,89.211314,58.170525,-102.755624
47282,-8.315466,5.138140,0.124439,-0.048836,0.028757,-0.037222,-0.017979,0.018288,-0.035165,-0.083146,0.051396,0.001247,1.000000,-0.000090,0.000091,-0.000176,0.121653,0.653499,-0.263267,-0.699163,89.211129,58.184616,-102.742203
47283,-8.264301,5.060287,0.070141,0.011395,0.053708,-0.122121,-0.008158,0.011335,-0.030201,-0.082635,0.050615,0.000704,1.000000,-0.000041,0.000057,-0.000151,0.121625,0.653540,-0.263162,-0.699170,89.210466,58.196047,-102.736025
47284,-8.213892,5.028114,-0.015598,0.094099,0.035373,-0.182522,0.036478,-0.000242,-0.020608,-0.082134,0.050290,-0.000147,1.000000,0.000182,-0.000001,-0.000103,0.121471,0.653553,-0.263253,-0.699150,89.224557,58.201653,-102.742522
47285,-8.127438,5.047535,0.028179,0.036183,-0.016049,-0.245447,0.060474,-0.005842,-0.007414,-0.081273,0.050478,0.000295,1.000000,0.000302,-0.000029,-0.000037,0.121276,0.653546,-0.263474,-0.699108,89.247594,58.199910,-102.754764
47286,-8.095547,5.040851,0.110476,-0.049004,-0.007939,-0.275507,0.081452,-0.007106,0.009488,-0.080958,0.050404,0.001122,1.000000,0.000407,-0.000036,0.000047,0.121071,0.653522,-0.263824,-0.699033,89.281478,58.188226,-102.768291
47287,-8.066556,5.088748,0.057778,-0.012105,-0.070786,-0.275242,0.079568,0.003631,0.017273,-0.080670,0.050880,0.000599,1.000000,0.000398,0.000018,0.000086,0.120916,0.653528,-0.264182,-0.698919,89.324543,58.172423,-102.769166
47288,-8.043257,5.140026,0.028121,0.002130,-0.127736,-0.268143,0.075979,0.004972,0.027670,-0.080440,0.051389,0.000303,1.000000,0.000380,0.000025,0.000138,0.120809,0.653520,-0.264566,-0.698800,89.366614,58.150411,-102.769370
47289,-8.023551,5.104522,0.083691,-0.051280,-0.092280,-0.303252,0.068805,0.014358,0.026135,-0.080242,0.051034,0.000860,1.000000,0.000344,0.000072,0.000131,0.120731,0.653544,-0.264911,-0.698661,89.413350,58.129601,-102.759064
47290,-7.962134,5.065053,0.074527,-0.045587,-0.088913,-0.376273,0.045222,0.025311,0.023549,-0.079627,0.050641,0.000767,1.000000,0.000226,0.000127,0.000118,0.120737,0.653593,-0.265161,-0.698519,89.456441,58.110066,-102.737314
47291,-8.091408,4.902688,0.105823,-0.035553,0.123183,-0.352138,0.031659,0.042668,0.023946,-0.080920,0.049017,0.001083,1.000000,0.000158,0.000213,0.000120,0.120811,0.653696,-0.265352,-0.698337,89.507912,58.090634,-102.696327
47292,-8.119829,4.902947,0.118423,-0.048477,0.144464,-0.327893,0.040548,0.042632,0.022864,-0.081204,0.049020,0.001211,1.000000,0.000203,0.000213,0.000114,0.120852,0.653804,-0.265573,-0.698145,89.564168,58.071551,-102.655902
47293,-8.224608,5.055569,0.218923,-0.166559,0.097315,-0.157965,0.057394,0.045942,0.017072,-0.082250,0.050548,0.002223,1.000000,0.000287,0.000230,0.000085,0.120823,0.653943,-0.265830,-0.697922,89.633327,58.056004,-102.611422
47294,-8.382657,5.120090,0.289162,-0.234541,0.144136,0.010351,0.074535,0.048947,0.009152,-0.083828,0.051196,0.002931,1.000000,0.000373,0.000245,0.000046,0.120714,0.654112,-0.266121,-0.697672,89.714673,58.044747,-102.564365
47295,-8.572203,5.382907,0.224300,-0.203732,0.013670,0.309910,0.086305,0.046444,0.004231,-0.085723,0.053826,0.002286,1.000000,0.000432,0.000232,0.000021,0.120545,0.654287,-0.266436,-0.697417,89.800632,58.036506,-102.519666
47296,-8.730160,5.557505,0.203415,-0.204116,-0.050564,0.536163,0.112127,0.025390,0.004570,-0.087303,0.055572,0.002076,1.000000,0.000561,0.000127,0.000023,0.120265,0.654401,-0.266857,-0.697196,89.881797,58.027764,-102.498202
47297,-8.653345,5.760605,0.140473,-0.194818,-0.269227,0.578378,0.119625,-0.002605,-0.001252,-0.086533,0.057606,0.001438,1.000000,0.000598,-0.000013,-0.000006,0.119902,0.654432,-0.267301,-0.697060,89.941708,58.022559,-102.506832
47298,-8.620213,5.656577,0.080643,-0.125485,-0.211054,0.495133,0.084305,-0.010924,-0.001796,-0.086202,0.056566,0.000826,1.000000,0.000422,-0.000055,-0.000009,0.119643,0.654411,-0.267626,-0.696999,89.973566,58.017426,-102.524700
47299,-8.514456,5.423175,-0.068132,0.048766,-0.103317,0.281785,0.052057,-0.018970,-0.000872,-0.085144,0.054232,-0.000675,1.000000,0.000260,-0.000095,-0.000004,0.119481,0.654344,-0.267844,-0.697006,89.979772,58.011986,-102.550952
47300,-8.452996,5.119340,-0.294395,0.318330,0.067875,0.068684,0.033150,-0.014659,-0.010112,-0.084527,0.051198,-0.002942,1.000000,0.000166,-0.000073,-0.000051,0.119355,0.654291,-0.267966,-0.697031,89.978894,58.011620,-102.572862
47301,-8.350635,4.945476,-0.372677,0.415244,0.141171,-0.110247,0.012238,-0.008780,-0.021903,-0.083501,0.049464,-0.003727,1.000000,0.000061,-0.000044,-0.000110,0.119262,0.654262,-0.267973,-0.697071,89.971495,58.018261,-102.588469
47302,-8.260020,4.732150,-0.372592,0.444288,0.269481,-0.300065,-0.006758,0.005617,-0.028604,-0.082594,0.047333,-0.003725,1.000000,-0.000034,0.000028,-0.000143,0.119229,0.654281,-0.267883,-0.697094,89.966343,58.028495,-102.588459
47303,-8.293133,4.735552,-0.457568,0.531040,0.263125,-0.270170,-0.045744,0.011877,-0.036116,-0.082923,0.047369,-0.004582,1.000000,-0.000229,0.000059,-0.000181,0.119303,0.654309,-0.267629,-0.697153,89.944776,58.043267,-102.581746
47304,-8.275173,4.761049,-0.454288,0.522698,0.230740,-0.271932,-0.042427,0.000103,-0.037037,-0.082743,0.047625,-0.004553,1.000000,-0.000212,0.000001,-0.000185,0.119350,0.654298,-0.267390,-0.697246,89.914100,58.058329,-102.587731
47305,-8.171426,4.934107,-0.395185,0.423360,0.043771,-0.268441,-0.034610,-0.005300,-0.034577,-0.081706,0.049355,-0.003963,1.000000,-0.000173,-0.000027,-0.000173,0.119374,0.654272,-0.267187,-0.697345,89.883023,58.072279,-102.599108
47306,-8.161994,5.052121,-0.430037,0.437311,-0.069256,-0.214200,-0.048580,-0.007504,-0.035071,-0.081611,0.050534,-0.004316,1.000000,-0.000243,-0.000038,-0.000175,0.119438,0.654228,-0.266937,-0.697470,89.841795,58.086200,-102.613369
47307,-8.193282,5.047873,-0.409769,0.424396,-0.047970,-0.189986,-0.029378,-0.005007,-0.032852,-0.081924,0.050492,-0.004107,1.000000,-0.000147,-0.000025,-0.000164,0.119449,0.654204,-0.266759,-0.697559,89.814151,58.099102,-102.624502
47308,-8.131239,5.143828,-0.327738,0.320733,-0.143802,-0.191883,-0.005975,0.004168,-0.025115,-0.081306,0.051448,-0.003277,1.000000,-0.000030,0.000021,-0.000126,0.119424,0.654213,-0.266684,-0.697584,89.808078,58.107334,-102.626105
47309,-8.169426,5.159834,-0.187857,0.185381,-0.107694,-0.150766,0.012109,0.008933,-0.006785,-0.081693,0.051601,-0.001872,1.000000,0.000061,0.000045,-0.000034,0.119405,0.654225,-0.266732,-0.697557,89.817086,58.105298,-102.622781
47310,-8.184515,5.144501,-0.115186,0.118210,-0.070487,-0.145914,0.019686,0.008459,0.002949,-0.081846,0.051444,-0.001143,1.000000,0.000098,0.000042,0.000015,0.119400,0.654227,-0.266836,-0.697516,89.829748,58.097458,-102.619634
47311,-8.295211,5.172560,0.002278,0.009873,-0.009334,-0.036915,0.029116,0.015437,0.010193,-0.082955,0.051721,0.000037,1.000000,0.000146,0.000077,0.000051,0.119397,0.654251,-0.266991,-0.697435,89.854514,58.085738,-102.608647
47312,-8.424231,5.319988,0.099734,-0.098867,-0.041540,0.150665,0.029850,0.009373,0.008532,-0.084245,0.053196,0.001009,1.000000,0.000149,0.000047,0.000043,0.119379,0.654255,-0.267148,-0.697374,89.873842,58.074700,-102.604507
47313,-8.399200,5.288666,0.338000,-0.329052,0.024584,0.113133,0.010405,-0.003994,-0.001692,-0.083992,0.052887,0.003381,1.000000,0.000052,-0.000020,-0.000008,0.119368,0.654216,-0.267211,-0.697389,89.869982,58.069750,-102.614738
47314,-8.309880,5.330147,0.358466,-0.364479,-0.051487,0.059373,-0.051344,-0.013573,-0.008730,-0.083097,0.053306,0.003565,1.000000,-0.000257,-0.000068,-0.000044,0.119525,0.654114,-0.267042,-0.697522,89.821654,58.068567,-102.635500
47315,-8.289048,5.259307,0.225451,-0.218420,-0.033959,0.004165,-0.104785,-0.015538,-0.017465,-0.082886,0.052601,0.002221,1.000000,-0.000524,-0.000078,-0.000087,0.119820,0.653986,-0.266660,-0.697738,89.741140,58.072597,-102.658485
47316,-8.284114,5.254084,0.209428,-0.194944,-0.038936,-0.002678,-0.121000,-0.019998,-0.033404,-0.082833,0.052556,0.002054,1.000000,-0.000605,-0.000100,-0.000167,0.120110,0.653853,-0.266171,-0.697999,89.646870,58.085503,-102.686353
47317,-8.249809,5.278678,0.046382,-0.035607,-0.116603,-0.019268,-0.137154,-0.026965,-0.039316,-0.082488,0.052803,0.000416,1.000000,-0.000686,-0.000135,-0.000197,0.120423,0.653696,-0.265608,-0.698307,89.537130,58.101979,-102.721392
47318,-8.177094,5.220160,0.107386,-0.084365,-0.097536,-0.111665,-0.112963,-0.035020,-0.043396,-0.081760,0.052220,0.001030,1.000000,-0.000565,-0.000175,-0.000217,0.120631,0.653528,-0.265124,-0.698612,89.433444,58.120478,-102.765763
47319,-8.175374,5.193018,0.118919,-0.083529,-0.077996,-0.127376,-0.079304,-0.031433,-0.035072,-0.081745,0.051945,0.001156,1.000000,-0.000397,-0.000157,-0.000175,0.120762,0.653382,-0.264781,-0.698855,89.352635,58.134411,-102.806037
47320,-8.193915,5.212297,-0.034329,0.071238,-0.120591,-0.102392,-0.050621,-0.040138,-0.030898,-0.081931,0.052136,-0.000373,1.000000,-0.000253,-0.000201,-0.000154,0.120804,0.653217,-0.264558,-0.699087,89.279958,58.145646,-102.855940
47321,-8.161337,5.335477,-0.060109,0.076164,-0.248138,-0.065330,-0.004011,-0.054305,-0.026310,-0.081606,0.053365,-0.000624,1.000000,-0.000020,-0.000272,-0.000132,0.120685,0.653025,-0.264524,-0.699300,89.221191,58.154309,-102.921607
47322,-8.214839,5.445170,0.069512,-0.059424,-0.286588,0.038842,0.028963,-0.059290,-0.024060,-0.082142,0.054461,0.000679,1.000000,0.000145,-0.000296,-0.000120,0.120466,0.652831,-0.264613,-0.699485,89.176467,58.161418,-102.992272
47323,-8.142328,5.433195,0.093164,-0.085731,-0.310810,-0.028934,0.030526,-0.055098,-0.021968,-0.081418,0.054341,0.000917,1.000000,0.000153,-0.000275,-0.000110,0.120252,0.652652,-0.264712,-0.699652,89.136758,58.167553,-103.058234
47324,-8.125911,5.357344,0.083910,-0.062032,-0.259795,-0.082977,0.017384,-0.047090,-0.018677,-0.081254,0.053581,0.000825,1.000000,0.000087,-0.000235,-0.000093,0.120105,0.652487,-0.264770,-0.699808,89.096692,58.171633,-103.115599
47325,-8.204909,5.242445,0.079742,-0.024759,-0.125889,-0.076483,-0.001715,-0.036894,-0.012987,-0.082046,0.052430,0.000782,1.000000,-0.000009,-0.000184,-0.000065,0.120055,0.652342,-0.264772,-0.699952,89.055505,58.172722,-103.161122
47326,-8.188178,5.167002,0.070718,-0.001069,-0.074890,-0.130562,-0.030229,-0.018429,-0.016679,-0.081878,0.051677,0.000692,1.000000,-0.000151,-0.000092,-0.000083,0.120108,0.652246,-0.264653,-0.700077,89.014627,58.175891,-103.187332
47327,-8.252703,5.119686,0.164069,-0.072739,0.016064,-0.099827,-0.050914,-0.005339,-0.017939,-0.082522,0.051205,0.001625,1.000000,-0.000255,-0.000027,-0.000090,0.120239,0.652186,-0.264451,-0.700187,88.974195,58.180093,-103.199398
47328,-8.264307,5.078838,0.245984,-0.139818,0.071962,-0.110669,-0.091185,-0.003311,-0.012104,-0.082640,0.050794,0.002435,1.000000,-0.000456,-0.000017,-0.000061,0.120527,0.652100,-0.264125,-0.700341,88.912413,58.180779,-103.209105
47329,-8.266611,4.945625,0.367070,-0.229311,0.208368,-0.177606,-0.110580,0.010681,-0.006699,-0.082664,0.049461,0.003648,1.000000,-0.000553,0.000053,-0.000033,0.120916,0.652046,-0.263738,-0.700469,88.852838,58.178706,-103.203050
47330,-8.398088,4.854238,0.246146,-0.074279,0.325202,-0.115223,-0.126504,0.018080,-0.006980,-0.083979,0.048547,0.002438,1.000000,-0.000633,0.000090,-0.000035,0.121365,0.652007,-0.263292,-0.700596,88.790661,58.176698,-103.189406
47331,-8.457307,4.797855,0.114623,0.076139,0.373659,-0.096043,-0.123768,0.017518,-0.010986,-0.084570,0.047984,0.001124,1.000000,-0.000619,0.000088,-0.000055,0.121793,0.651975,-0.262838,-0.700722,88.729747,58.177194,-103.175678
47332,-8.516911,4.792668,0.154646,0.049716,0.415558,-0.047638,-0.098216,0.007557,-0.015924,-0.085165,0.047934,0.001526,1.000000,-0.000491,0.000038,-0.000080,0.122105,0.651927,-0.262468,-0.700851,88.673884,58.180187,-103.173678
47333,-8.487184,4.829283,0.212964,-0.013066,0.380359,-0.052832,-0.075698,0.001969,-0.017150,-0.084868,0.048301,0.002112,1.000000,-0.000378,0.000010,-0.000086,0.122334,0.651878,-0.262172,-0.700967,88.625996,58.184046,-103.176934
47334,-8.542211,4.866314,0.197705,0.005722,0.373173,0.013307,-0.060507,0.000582,-0.015182,-0.085418,0.048670,0.001963,1.000000,-0.000303,0.000003,-0.000076,0.122516,0.651828,-0.261940,-0.701069,88.585308,58.186519,-103.182502
47335,-8.549790,4.978831,0.135386,0.051476,0.268996,0.078267,-0.032816,-0.009225,-0.019868,-0.085493,0.049797,0.001342,1.000000,-0.000164,-0.000046,-0.000099,0.122586,0.651771,-0.261788,-0.701166,88.551613,58.191804,-103.197220
47336,-8.459391,5.121780,0.170905,-0.016062,0.109516,0.077252,-0.010896,-0.010633,-0.019252,-0.084589,0.051226,0.001702,1.000000,-0.000054,-0.000053,-0.000096,0.122577,0.651718,-0.261724,-0.701242,88.528891,58.196441,-103.215095
47337,-8.310510,5.121189,0.185893,-0.046995,0.035481,-0.049376,-0.005534,-0.008652,-0.019810,-0.083100,0.051220,0.001854,1.000000,-0.000028,-0.000043,-0.000099,0.122554,0.651677,-0.261671,-0.701302,88.511352,58.201664,-103.230016
47338,-8.267377,5.137831,0.095191,0.035320,-0.020471,-0.078509,-0.023751,-0.002963,-0.018057,-0.082669,0.051386,0.000945,1.000000,-0.000119,-0.000015,-0.000090,0.122602,0.651641,-0.261562,-0.701369,88.488369,58.205725,-103.239530
47339,-8.234999,5.114536,0.082066,0.049727,-0.021475,-0.118488,-0.037216,0.012400,-0.017432,-0.082345,0.051153,0.000816,1.000000,-0.000186,0.000062,-0.000087,0.122718,0.651652,-0.261393,-0.701401,88.472106,58.209916,-103.231581
47340,-8.239780,5.136845,0.078981,0.050446,-0.039218,-0.102728,-0.030940,0.018126,-0.019211,-0.082393,0.051376,0.000789,1.000000,-0.000155,0.000091,-0.000096,0.122813,0.651687,-0.261241,-0.701409,88.464459,58.214958,-103.218205
47341,-8.242340,5.180333,0.048404,0.073745,-0.081539,-0.078095,-0.028502,0.017918,-0.021083,-0.082418,0.051812,0.000484,1.000000,-0.000143,0.000090,-0.000105,0.122893,0.651726,-0.261089,-0.701415,88.458178,58.221316,-103.204638
47342,-8.214644,5.114364,0.088086,0.042959,-0.033428,-0.135813,-0.022485,0.016805,-0.015892,-0.082142,0.051150,0.000882,1.000000,-0.000112,0.000084,-0.000079,0.122970,0.651757,-0.260979,-0.701413,88.454240,58.224438,-103.192600
47343,-8.243368,5.065864,0.136456,0.007575,0.031149,-0.136237,-0.022468,0.013238,-0.013476,-0.082430,0.050664,0.001364,1.000000,-0.000112,0.000066,-0.000067,0.123048,0.651773,-0.260880,-0.701422,88.447291,58.226336,-103.184507
47344,-8.276038,5.071826,0.051335,0.094446,0.024940,-0.106539,-0.017423,0.007350,-0.014662,-0.082757,0.050724,0.000512,1.000000,-0.000087,0.000037,-0.000073,0.123100,0.651772,-0.260797,-0.701445,88.437540,58.228608,-103.182718
47345,-8.338260,5.075560,-0.016478,0.167713,0.039240,-0.052642,0.007997,0.007603,-0.016988,-0.083378,0.050763,-0.000160,1.000000,0.000040,0.000038,-0.000085,0.123053,0.651789,-0.260803,-0.701435,88.442787,58.232377,-103.181917
47346,-8.289356,5.140503,0.039271,0.095814,-0.029184,-0.059241,0.032788,-0.007895,-0.020577,-0.082888,0.051413,0.000398,1.000000,0.000164,-0.000039,-0.000103,0.122901,0.651773,-0.260886,-0.701446,88.447556,58.237800,-103.196888
47347,-8.287090,5.196253,0.083834,0.042052,-0.068384,-0.031200,0.043075,-0.016998,-0.017626,-0.082866,0.051970,0.000842,1.000000,0.000215,-0.000085,-0.000088,0.122711,0.651729,-0.261021,-0.701470,88.450147,58.241599,-103.221670
47348,-8.264440,5.347294,0.073099,0.024351,-0.208524,0.028847,0.034989,-0.018512,-0.013065,-0.082641,0.053478,0.000733,1.000000,0.000175,-0.000093,-0.000065,0.122565,0.651667,-0.261143,-0.701507,88.446539,58.242555,-103.247974
47349,-8.273320,5.475344,0.107922,-0.029554,-0.303608,0.104258,0.025992,-0.023768,-0.007282,-0.082731,0.054756,0.001077,1.000000,0.000130,-0.000119,-0.000036,0.122465,0.651577,-0.261250,-0.701568,88.433353,58.240357,-103.278809
47350,-8.201739,5.413378,0.286894,-0.200872,-0.251231,0.013401,-0.001227,-0.023348,0.000255,-0.082018,0.054134,0.002859,1.000000,-0.000006,-0.000117,0.000001,0.122477,0.651459,-0.261292,-0.701660,88.404865,58.233601,-103.309973
47351,-8.223716,5.246417,0.200482,-0.081912,-0.118324,-0.056978,-0.062046,-0.006876,0.002604,-0.082238,0.052464,0.001986,1.000000,-0.000310,-0.000034,0.000013,0.122712,0.651359,-0.261119,-0.701777,88.357030,58.225958,-103.323443
47352,-8.324963,5.010998,0.076153,0.096191,0.104471,-0.096683,-0.089760,0.006411,0.004884,-0.083251,0.050108,0.000742,1.000000,-0.000449,0.000032,0.000024,0.123068,0.651285,-0.260847,-0.701884,88.305486,58.217022,-103.322064
47353,-8.369949,4.956580,0.099828,0.092571,0.177782,-0.086767,-0.093647,-0.000595,-0.002812,-0.083699,0.049567,0.000975,1.000000,-0.000468,-0.000003,-0.000014,0.123395,0.651193,-0.260543,-0.702025,88.245285,58.212554,-103.329007
47354,-8.301423,4.933763,0.048843,0.143175,0.150294,-0.157899,-0.096642,-0.000289,-0.014142,-0.083011,0.049344,0.000464,1.000000,-0.000483,-0.000001,-0.000071,0.123697,0.651116,-0.260188,-0.702175,88.183087,58.214396,-103.335522
47355,-8.264052,4.922592,0.115397,0.080458,0.152333,-0.194470,-0.090236,-0.004659,-0.018546,-0.082636,0.049234,0.001130,1.000000,-0.000451,-0.000023,-0.000093,0.123959,0.651035,-0.259840,-0.702332,88.120614,58.218918,-103.346186
47356,-8.192128,4.875225,0.067763,0.131084,0.143444,-0.281391,-0.094059,0.001087,-0.018287,-0.081917,0.048760,0.000655,1.000000,-0.000470,0.000005,-0.000091,0.124240,0.650969,-0.259480,-0.702477,88.061032,58.223152,-103.351365
47357,-8.206197,4.842970,0.045889,0.163602,0.171646,-0.286832,-0.077632,0.007809,-0.014481,-0.082058,0.048436,0.000443,1.000000,-0.000388,0.000039,-0.000072,0.124497,0.650937,-0.259177,-0.702573,88.017527,58.225597,-103.347346
47358,-8.284519,4.875761,0.023725,0.191589,0.179227,-0.203419,-0.041000,0.022666,-0.011941,-0.082842,0.048763,0.000237,1.000000,-0.000205,0.000113,-0.000060,0.124656,0.650972,-0.259010,-0.702574,88.008488,58.226622,-103.328831
47359,-8.330048,4.968078,0.027035,0.178616,0.126191,-0.116070,0.011873,0.014623,-0.009259,-0.083298,0.049685,0.000279,1.000000,0.000059,0.000073,-0.000046,0.124640,0.651009,-0.259043,-0.702531,88.022694,58.226160,-103.318820
47360,-8.311456,5.193464,0.184118,-0.015905,-0.038982,-0.010418,0.060473,0.002833,-0.004688,-0.083113,0.051936,0.001858,1.000000,0.000302,0.000014,-0.000023,0.124468,0.651027,-0.259269,-0.702460,88.053689,58.222639,-103.321601
47361,-8.242699,5.338264,0.412125,-0.273814,-0.147160,0.011383,0.073879,-0.001402,0.004891,-0.082428,0.053379,0.004140,1.000000,0.000369,-0.000007,0.000024,0.124276,0.651028,-0.259577,-0.702380,88.089053,58.213754,-103.328808
47362,-8.127889,5.341083,0.463705,-0.341183,-0.194954,-0.083846,0.060034,0.001837,0.017185,-0.081283,0.053402,0.004654,1.000000,0.000300,0.000009,0.000086,0.124181,0.651014,-0.259874,-0.702300,88.119541,58.197690,-103.331891
47363,-8.114427,5.338189,0.413907,-0.295139,-0.205913,-0.097647,0.018279,0.015677,0.026449,-0.081151,0.053371,0.004150,1.000000,0.000091,0.000078,0.000132,0.124273,0.651013,-0.260043,-0.702222,88.139472,58.176782,-103.319175
47364,-8.105261,5.471620,0.274004,-0.181316,-0.346267,-0.037403,-0.017056,0.021634,0.033717,-0.081062,0.054703,0.002744,1.000000,-0.000085,0.000108,0.000169,0.124512,0.650999,-0.260110,-0.702168,88.144532,58.151620,-103.300199
47365,-8.063455,5.536070,0.480149,-0.398254,-0.375213,-0.035238,-0.035403,0.037335,0.038114,-0.080644,0.055346,0.004807,1.000000,-0.000177,0.000187,0.000191,0.124844,0.651024,-0.260119,-0.702082,88.153972,58.124389,-103.264284
47366,-8.136691,5.446945,0.445192,-0.338274,-0.265782,-0.020441,-0.114054,0.044750,0.049725,-0.081379,0.054452,0.004439,1.000000,-0.000570,0.000224,0.000249,0.125485,0.651010,-0.259883,-0.702068,88.125173,58.090490,-103.219718
47367,-8.160805,5.419885,0.268055,-0.151643,-0.262381,-0.017082,-0.188504,0.050213,0.046646,-0.081620,0.054182,0.002650,0.999999,-0.000943,0.000251,0.000233,0.126362,0.650972,-0.259374,-0.702134,88.058953,58.058620,-103.169477
47368,-8.236148,5.049436,0.366764,-0.172770,0.108650,-0.147089,-0.200552,0.059768,0.048915,-0.082373,0.050478,0.003642,0.999999,-0.001003,0.000299,0.000245,0.127302,0.650957,-0.258822,-0.702183,87.994366,58.025528,-103.108649
47369,-8.480828,4.828670,0.302930,-0.039762,0.409731,-0.057545,-0.219245,0.073515,0.040260,-0.084817,0.048273,0.003008,0.999999,-0.001096,0.000368,0.000201,0.128291,0.650990,-0.258164,-0.702214,87.931641,57.997896,-103.032620
47370,-8.686244,4.760522,-0.146557,0.441891,0.487812,0.071727,-0.215784,0.065840,0.026908,-0.086869,0.047592,-0.001488,0.999999,-0.001079,0.000329,0.000135,0.129211,0.651013,-0.257482,-0.702275,87.863158,57.977604,-102.966058
47371,-8.656744,4.926112,-0.074440,0.347194,0.350909,0.135561,-0.117429,0.030174,0.017318,-0.086572,0.049253,-0.000760,1.000000,-0.000587,0.000151,0.000087,0.129726,0.650985,-0.257139,-0.702331,87.818229,57.962257,-102.938667
47372,-8.455523,5.144098,0.189744,0.034545,0.117647,0.085726,-0.049836,0.003951,0.010961,-0.084558,0.051437,0.001886,1.000000,-0.000249,0.000020,0.000055,0.129970,0.650918,-0.257028,-0.702389,87.787642,57.949795,-102.939545
47373,-8.396448,5.230037,0.199623,0.007860,0.018768,0.081405,-0.044175,0.002118,0.010687,-0.083967,0.052296,0.001986,1.000000,-0.000221,0.000011,0.000053,0.130186,0.650847,-0.256940,-0.702447,87.758792,57.937627,-102.943057
47374,-8.410502,5.244159,-0.056743,0.262413,-0.032794,0.095442,-0.056657,0.003231,0.022163,-0.084111,0.052432,-0.000581,1.000000,-0.000283,0.000016,0.000111,0.130490,0.650758,-0.256842,-0.702509,87.724064,57.918735,-102.944210
47375,-8.250373,5.381939,0.025609,0.144768,-0.211746,0.034585,-0.038981,0.014434,0.030329,-0.082512,0.053807,0.000252,1.000000,-0.000195,0.000072,0.000152,0.130773,0.650709,-0.256830,-0.702506,87.710217,57.895593,-102.933660
47376,-8.147515,5.811375,0.115344,-0.018417,-0.601911,0.177546,-0.034324,0.027006,0.036773,-0.081486,0.058099,0.001154,1.000000,-0.000172,0.000135,0.000184,0.131086,0.650699,-0.256842,-0.702453,87.710519,57.868881,-102.908562
47377,-7.944951,6.109274,0.220367,-0.186230,-0.930488,0.166969,-0.124512,0.030810,0.055726,-0.079466,0.061072,0.002178,1.000000,-0.000623,0.000154,0.000279,0.131763,0.650619,-0.256596,-0.702490,87.663438,57.831628,-102.878557
47378,-7.893127,5.933466,0.686470,-0.615823,-0.716139,0.040567,-0.164193,0.036779,0.097349,-0.078959,0.059302,0.006831,1.000000,-0.000821,0.000184,0.000487,0.132724,0.650480,-0.256342,-0.702530,87.600484,57.770487,-102.840256
47379,-7.963691,5.781177,0.511231,-0.401692,-0.575795,0.016393,-0.261036,0.056737,0.140751,-0.079676,0.057762,0.005059,0.999999,-0.001305,0.000284,0.000704,0.134178,0.650292,-0.255873,-0.702599,87.502061,57.685199,-102.778013
47380,-7.983098,5.743020,0.165663,-0.038282,-0.584583,0.005476,-0.322002,0.044112,0.181691,-0.079883,0.057360,0.001582,0.999998,-0.001610,0.000221,0.000908,0.135957,0.649962,-0.255334,-0.702758,87.358855,57.576043,-102.727604
47381,-7.803274,5.591779,0.442023,-0.291615,-0.486322,-0.219311,-0.312435,0.045169,0.209030,-0.078090,0.055843,0.004351,0.999998,-0.001562,0.000226,0.001045,0.137798,0.649605,-0.254919,-0.702881,87.223781,57.451403,-102.674745
47382,-7.897885,5.880602,0.378570,-0.241012,-0.670299,0.015534,-0.324046,0.098238,0.223375,-0.079043,0.058724,0.003729,0.999998,-0.001620,0.000491,0.001117,0.139798,0.649406,-0.254468,-0.702833,87.130004,57.320041,-102.564127
47383,-8.116199,6.226035,-0.126184,0.253988,-0.910034,0.373547,-0.387228,0.083153,0.248683,-0.081240,0.062157,-0.001348,0.999997,-0.001936,0.000416,0.001243,0.142073,0.649076,-0.253886,-0.702892,86.988021,57.173957,-102.467595
47384,-8.141052,5.854479,0.414646,-0.206892,-0.470521,0.210252,-0.290327,0.046353,0.282534,-0.081492,0.058436,0.004080,0.999998,-0.001452,0.000232,0.001413,0.144105,0.648638,-0.253780,-0.702921,86.870328,57.007414,-102.408110
47385,-8.287474,5.521349,0.105504,0.175355,-0.141706,0.143603,-0.276965,0.031311,0.306737,-0.082959,0.055088,0.000992,0.999998,-0.001385,0.000157,0.001534,0.146160,0.648125,-0.253807,-0.702961,86.748774,56.826697,-102.362018
47386,-8.574766,5.388074,-0.282070,0.625870,0.087398,0.298596,-0.245129,0.007762,0.319503,-0.085834,0.053740,-0.002883,0.999998,-0.001226,0.000039,0.001598,0.148125,0.647531,-0.254006,-0.703025,86.625591,56.637869,-102.339828
47387,-8.590643,5.603642,0.137979,0.205133,0.019191,0.442869,-0.142856,-0.025399,0.333075,-0.086000,0.055894,0.001329,0.999998,-0.000714,-0.000127,0.001665,0.149761,0.646877,-0.254634,-0.703052,86.533849,56.440164,-102.350657
47388,-8.333550,6.185852,0.172741,0.086807,-0.560815,0.551699,-0.089027,-0.031298,0.342439,-0.083442,0.061716,0.001687,0.999998,-0.000445,-0.000156,0.001712,0.151251,0.646229,-0.255483,-0.703022,86.468412,56.236893,-102.366444
47389,-8.152230,6.460159,0.207586,0.014287,-0.844478,0.556601,-0.120306,-0.027485,0.354557,-0.081637,0.064458,0.002026,0.999998,-0.000602,-0.000137,0.001773,0.152888,0.645553,-0.256257,-0.703007,86.389865,56.026842,-102.376579
47390,-8.151164,6.471509,0.312830,-0.075466,-0.801127,0.568650,-0.134496,0.017115,0.364959,-0.081629,0.064568,0.003092,0.999998,-0.000672,0.000086,0.001825,0.154665,0.645007,-0.256980,-0.702856,86.341418,55.812433,-102.340475
47391,-8.363126,6.242567,-0.003290,0.302409,-0.511254,0.606457,-0.195093,0.047791,0.362330,-0.083744,0.062274,-0.000074,0.999998,-0.000975,0.000239,0.001812,0.156663,0.644522,-0.257460,-0.702683,86.284254,55.600648,-102.273442
47392,-8.452115,5.806151,-0.095813,0.467048,-0.082263,0.431032,-0.202147,0.067346,0.373641,-0.084630,0.057902,-0.000988,0.999998,-0.001011,0.000337,0.001868,0.158751,0.644082,-0.257931,-0.702444,86.239382,55.383188,-102.185780
47393,-8.327811,5.840610,-0.188293,0.553478,-0.155085,0.344581,-0.202542,0.047313,0.395075,-0.083394,0.058240,-0.001922,0.999998,-0.001013,0.000237,0.001975,0.160890,0.643543,-0.258485,-0.702248,86.179110,55.152742,-102.116440
47394,-7.968044,5.543586,0.360089,0.013922,0.012745,-0.099283,-0.098376,0.018256,0.446793,-0.079804,0.055259,0.003581,0.999997,-0.000492,0.000091,0.002234,0.162836,0.642913,-0.259593,-0.701968,86.156841,54.891664,-102.073255
47395,-8.127389,5.747285,0.502745,-0.120687,0.004850,0.153440,-0.013984,0.041305,0.484038,-0.081412,0.057276,0.005040,0.999997,-0.000070,0.000207,0.002420,0.164671,0.642383,-0.261097,-0.701467,86.203535,54.610184,-102.004746
47396,-8.345840,6.231748,-0.026608,0.383799,-0.293997,0.591853,0.024357,0.010522,0.513087,-0.083618,0.062103,-0.000254,0.999997,0.000122,0.000053,0.002565,0.166443,0.641732,-0.262852,-0.700989,86.247801,54.310888,-101.965912
47397,-8.002863,6.670021,0.457367,-0.174217,-0.712446,0.589523,0.098116,-0.047330,0.540204,-0.080209,0.066481,0.004587,0.999996,0.000491,-0.000237,0.002701,0.167996,0.640901,-0.264999,-0.700570,86.289589,53.993946,-101.982195
47398,-7.707915,6.879991,0.665949,-0.428313,-0.959667,0.487070,0.050151,-0.071203,0.575238,-0.077279,0.068576,0.006649,0.999996,0.000251,-0.000356,0.002876,0.169793,0.639893,-0.267108,-0.700258,86.286709,53.656059,-102.019763
47399,-7.569152,6.815871,0.729976,-0.486862,-0.918742,0.346032,-0.052982,-0.049359,0.606715,-0.075900,0.067931,0.007263,0.999995,-0.000265,-0.000247,0.003034,0.172057,0.638827,-0.268935,-0.699979,86.244015,53.300986,-102.033604
47400,-7.762379,6.637175,0.363035,-0.063665,-0.659355,0.385316,-0.148586,0.016567,0.632971,-0.077833,0.066128,0.003588,0.999995,-0.000743,0.000083,0.003165,0.174806,0.637866,-0.270453,-0.699589,86.198345,52.933381,-101.982654
47401,-7.897004,6.870654,0.112196,0.200596,-0.740585,0.627238,-0.264884,0.024834,0.637195,-0.079188,0.068456,0.001041,0.999994,-0.001324,0.000124,0.003186,0.177949,0.636821,-0.271567,-0.699317,86.092817,52.563696,-101.923023
47402,-7.627662,6.356589,0.812400,-0.447507,-0.326191,0.134193,-0.301461,0.027236,0.642105,-0.076479,0.063333,0.008039,0.999994,-0.001507,0.000136,0.003211,0.181227,0.635736,-0.272562,-0.699075,85.968447,52.191398,-101.860346
47403,-7.900580,5.982109,0.698786,-0.241485,0.174421,0.117269,-0.347294,0.108738,0.647043,-0.079195,0.059577,0.006927,0.999993,-0.001736,0.000544,0.003235,0.184777,0.634879,-0.273337,-0.698622,85.878181,51.819623,-101.720834
47404,-8.416186,6.046292,-0.271253,0.799363,0.356904,0.516719,-0.384944,0.107159,0.653047,-0.084360,0.060182,-0.002783,0.999993,-0.001925,0.000536,0.003265,0.188462,0.633965,-0.273995,-0.698210,85.764647,51.444551,-101.582689
47405,-8.368265,6.176849,0.372301,0.170249,0.385330,0.586450,-0.243775,0.021752,0.666790,-0.083888,0.061494,0.003657,0.999994,-0.001219,0.000109,0.003334,0.191629,0.632858,-0.275268,-0.697852,85.671553,51.058094,-101.521400
47406,-7.969865,6.737385,0.750178,-0.274616,-0.174123,0.645216,-0.184494,-0.025259,0.664131,-0.079923,0.067116,0.007430,0.999994,-0.000922,-0.000126,0.003321,0.194531,0.631638,-0.276779,-0.697556,85.579141,50.671198,-101.502598
47407,-7.860755,7.040801,0.186499,0.274114,-0.488534,0.726994,-0.281451,-0.035803,0.658451,-0.078839,0.070151,0.001752,0.999994,-0.001407,-0.000179,0.003292,0.197702,0.630289,-0.277942,-0.697423,85.424620,50.287068,-101.492281
47408,-7.650161,6.963876,0.088410,0.387322,-0.510113,0.512895,-0.438006,-0.016443,0.654949,-0.076729,0.069389,0.000726,0.999992,-0.002190,-0.000082,0.003275,0.201379,0.628846,-0.278524,-0.697440,85.194618,49.905900,-101.463282
47409,-7.531847,6.991431,0.518755,-0.015584,-0.485614,0.465516,-0.408882,-0.006373,0.639825,-0.075542,0.069683,0.005043,0.999993,-0.002044,-0.000032,0.003199,0.204922,0.627481,-0.279147,-0.697389,84.988887,49.533886,-101.424280
47410,-7.482122,7.206507,0.514971,0.007843,-0.620327,0.569787,-0.469622,0.019621,0.645313,-0.075053,0.071835,0.004988,0.999992,-0.002348,0.000098,0.003227,0.208708,0.626126,-0.279543,-0.697326,84.766925,49.160213,-101.360483
47411,-7.302482,6.545657,0.572604,0.007550,-0.167236,0.009293,-0.506053,0.020634,0.675398,-0.073245,0.065224,0.005568,0.999991,-0.002530,0.000103,0.003377,0.212711,0.624684,-0.279901,-0.697266,84.527940,48.769535,-101.291315
47412,-7.200622,5.732580,0.509440,0.134345,0.431990,-0.605846,-0.392266,0.033692,0.704920,-0.072207,0.057081,0.004994,0.999992,-0.001961,0.000168,0.003525,0.216476,0.623355,-0.280729,-0.696963,84.365008,48.362973,-101.207139
47413,-7.454022,6.112320,0.205680,0.476474,0.340678,-0.188672,-0.283284,0.006089,0.729465,-0.074762,0.060854,0.001973,0.999992,-0.001416,0.000030,0.003647,0.219945,0.622005,-0.282039,-0.696554,84.248954,47.940924,-101.143420
47414,-7.358073,6.387868,0.805893,-0.116490,0.212789,-0.038422,-0.220106,-0.053688,0.735829,-0.073817,0.063616,0.007969,0.999993,-0.001101,-0.000268,0.003679,0.223151,0.620496,-0.283649,-0.696226,84.132009,47.511929,-101.129291
47415,-7.244843,6.656517,0.780261,-0.088827,0.005613,0.056324,-0.255847,-0.045241,0.744120,-0.072697,0.066305,0.007701,0.999992,-0.001279,-0.000226,0.003721,0.226506,0.618957,-0.285148,-0.695901,84.001439,47.078681,-101.105853
47416,-7.223514,7.016370,0.551576,0.152386,-0.229061,0.268813,-0.283424,-0.050694,0.738578,-0.072495,0.069904,0.005398,0.999992,-0.001417,-0.000253,0.003693,0.229916,0.617364,-0.286534,-0.695628,83.852010,46.648349,-101.086326
47417,-7.194794,7.152831,0.868739,-0.136714,-0.241434,0.365981,-0.333403,-0.022554,0.725089,-0.072208,0.071281,0.008560,0.999992,-0.001667,-0.000113,0.003625,0.233469,0.615822,-0.287669,-0.695343,83.691187,46.227434,-101.042988
47418,-6.965885,7.036934,0.674642,0.066741,-0.268608,0.108002,-0.514181,0.035405,0.693269,-0.069901,0.070144,0.006578,0.999991,-0.002571,0.000177,0.003466,0.237548,0.614304,-0.288004,-0.695166,83.459670,45.828509,-100.953537
47419,-6.875805,6.534712,0.541346,0.238732,0.077443,-0.314854,-0.584201,0.097038,0.657141,-0.068970,0.065136,0.005256,0.999990,-0.002921,0.000485,0.003286,0.241800,0.612959,-0.287906,-0.694928,83.222505,45.454434,-100.815410
47420,-7.374621,6.627425,0.328916,0.550436,0.389752,0.084824,-0.589258,0.129389,0.619062,-0.073949,0.066055,0.003142,0.999991,-0.002946,0.000647,0.003095,0.245977,0.611761,-0.287628,-0.694632,82.998412,45.104696,-100.653822
47421,-7.421000,6.259015,0.300163,0.623537,0.737915,-0.148167,-0.520994,0.058759,0.596269,-0.074395,0.062376,0.002861,0.999992,-0.002605,0.000294,0.002981,0.249761,0.610425,-0.287601,-0.694468,82.772013,44.763303,-100.550041
47422,-7.013072,5.467193,0.423776,0.480633,1.078701,-0.988963,-0.399656,0.022950,0.583000,-0.070289,0.054476,0.004137,0.999994,-0.001998,0.000115,0.002915,0.253072,0.609126,-0.287994,-0.694247,82.594179,44.427150,-100.475349
47423,-6.973177,5.110894,0.099632,0.815867,1.321722,-1.307186,-0.231213,0.035391,0.580676,-0.069880,0.050907,0.000950,0.999995,-0.001156,0.000177,0.002903,0.255878,0.608080,-0.288946,-0.693740,82.519966,44.093341,-100.390183
47424,-7.084875,5.630314,0.407684,0.537024,1.113454,-0.838630,-0.050995,0.005447,0.558501,-0.071006,0.056106,0.004064,0.999996,-0.000255,0.000027,0.002793,0.258013,0.607187,-0.290491,-0.693086,82.530254,43.769949,-100.331385
47425,-6.777239,6.088369,0.846001,0.070013,0.664320,-0.687530,0.020435,-0.002179,0.534079,-0.067935,0.060702,0.008465,0.999996,0.000102,-0.000011,0.002670,0.259833,0.606391,-0.292217,-0.692376,82.575312,43.459876,-100.281355
47426,-6.669897,6.238860,0.885998,0.020521,0.534432,-0.652464,-0.010050,0.030435,0.495043,-0.066852,0.062224,0.008867,0.999997,-0.000050,0.000152,0.002475,0.261657,0.605720,-0.293675,-0.691660,82.616785,43.174332,-100.210631
47427,-6.781945,6.358195,0.971407,-0.045916,0.583508,-0.484112,-0.043325,0.052466,0.440482,-0.067957,0.063434,0.009718,0.999998,-0.000217,0.000262,0.002202,0.263423,0.605160,-0.294822,-0.690991,82.646809,42.921429,-100.128582
47428,-6.806896,6.366662,1.061235,-0.126587,0.641669,-0.454986,-0.132384,0.070092,0.386364,-0.068188,0.063542,0.010594,0.999998,-0.000662,0.000350,0.001932,0.265297,0.604619,-0.295473,-0.690470,82.630625,42.700514,-100.038887
47429,-6.676170,6.327920,0.920543,0.004622,0.593512,-0.587241,-0.207198,0.083139,0.338464,-0.066865,0.063176,0.009168,0.999998,-0.001036,0.000416,0.001692,0.267249,0.604093,-0.295702,-0.690079,82.575109,42.507890,-99.943810
47430,-6.506754,6.035150,0.902742,0.008313,0.695305,-0.919304,-0.247441,0.090586,0.290720,-0.065151,0.060268,0.008982,0.999998,-0.001237,0.000453,0.001454,0.269169,0.603606,-0.295637,-0.689788,82.496682,42.342954,-99.848004
47431,-6.501440,6.100852,0.781423,0.140381,0.658805,-0.888228,-0.267810,0.106277,0.253114,-0.065087,0.060937,0.007767,0.999998,-0.001339,0.000531,0.001266,0.271042,0.603200,-0.295366,-0.689526,82.412249,42.200753,-99.743683
47432,-6.441609,5.911732,0.910600,0.013458,0.772668,-1.056269,-0.290496,0.100611,0.224071,-0.064478,0.059058,0.009053,0.999998,-0.001452,0.000503,0.001120,0.272874,0.602783,-0.294936,-0.689352,82.309517,42.074646,-99.646802
47433,-6.411733,5.503829,0.758250,0.162569,1.031427,-1.393239,-0.234934,0.103851,0.200852,-0.064169,0.054983,0.007551,0.999999,-0.001175,0.000519,0.001004,0.274462,0.602486,-0.294621,-0.689115,82.238833,41.962198,-99.549576
47434,-6.517560,5.382165,0.658304,0.276809,1.199158,-1.424301,-0.105700,0.079608,0.185274,-0.065223,0.053765,0.006581,0.999999,-0.000528,0.000398,0.000926,0.275571,0.602304,-0.294738,-0.688781,82.228317,41.856650,-99.472724
47435,-6.427742,5.602625,0.925429,0.005438,1.019604,-1.296700,0.025722,0.051585,0.167841,-0.064322,0.055971,0.009278,1.000000,0.000129,0.000258,0.000839,0.276182,0.602233,-0.295293,-0.688361,82.277718,41.758974,-99.418998
47436,-6.458499,5.887858,1.002525,-0.065694,0.870532,-1.059290,0.092656,0.050929,0.139628,-0.064624,0.058829,0.010069,1.000000,0.000463,0.000255,0.000698,0.276494,0.602292,-0.295994,-0.687883,82.362731,41.677062,-99.369088
47437,-6.548759,6.326470,1.082327,-0.131618,0.660813,-0.667859,0.116939,0.039896,0.099284,-0.065517,0.063226,0.010873,1.000000,0.000585,0.000199,0.000496,0.276577,0.602407,-0.296672,-0.687457,82.453429,41.617361,-99.331693
47438,-6.418620,6.659228,1.326023,-0.389348,0.368188,-0.484495,0.063799,0.049711,0.044200,-0.064198,0.066574,0.013297,1.000000,0.000319,0.000249,0.000221,0.276645,0.602562,-0.296988,-0.687157,82.514602,41.589458,-99.292676
47439,-6.513082,6.747102,1.242023,-0.297406,0.375540,-0.365108,-0.019930,0.072644,-0.004143,-0.065125,0.067474,0.012437,1.000000,-0.000100,0.000363,-0.000021,0.276833,0.602754,-0.296838,-0.686978,82.536374,41.590913,-99.240928
47440,-6.597677,6.681931,1.044009,-0.092580,0.463909,-0.376390,-0.105819,0.076885,-0.061425,-0.065952,0.066845,0.010430,1.000000,-0.000529,0.000384,-0.000307,0.277090,0.602924,-0.296216,-0.686993,82.507065,41.625021,-99.191820
47441,-6.681759,6.710057,0.974250,-0.009902,0.493489,-0.306043,-0.124054,0.070624,-0.107454,-0.066778,0.067142,0.009724,1.000000,-0.000620,0.000353,-0.000537,0.277234,0.603117,-0.295399,-0.687118,82.461335,41.685049,-99.151932
47442,-6.625860,6.718416,0.843660,0.117151,0.425246,-0.349267,-0.118842,0.050677,-0.139384,-0.066210,0.067235,0.008413,1.000000,-0.000594,0.000253,-0.000697,0.277223,0.603294,-0.294533,-0.687339,82.406133,41.761515,-99.130630
47443,-6.445609,6.659642,0.875598,0.066521,0.320474,-0.509127,-0.101407,0.042452,-0.151183,-0.064404,0.066650,0.008736,1.000000,-0.000507,0.000212,-0.000756,0.277106,0.603485,-0.293701,-0.687574,82.356143,41.844306,-99.116717
47444,-6.411840,6.766556,0.863657,0.080666,0.208259,-0.453522,-0.085587,0.032264,-0.159924,-0.064063,0.067720,0.008618,1.000000,-0.000428,0.000161,-0.000800,0.276897,0.603674,-0.292912,-0.687829,82.309169,41.931055,-99.111696
47445,-6.402967,6.850034,1.021653,-0.072715,0.141723,-0.381922,-0.050637,0.027989,-0.154111,-0.063975,0.068552,0.010208,1.000000,-0.000253,0.000140,-0.000771,0.276595,0.603889,-0.292265,-0.688036,82.280623,42.014421,-99.109261
47446,-6.398212,6.715211,1.004443,-0.058938,0.214335,-0.485809,-0.063089,0.049458,-0.149277,-0.063929,0.067203,0.010039,1.000000,-0.000315,0.000247,-0.000746,0.276379,0.604152,-0.291561,-0.688191,82.256019,42.096455,-99.090105
47447,-6.507601,6.668119,0.978246,-0.021569,0.311378,-0.449344,-0.029682,0.039547,-0.142566,-0.065027,0.066729,0.009785,1.000000,-0.000148,0.000198,-0.000713,0.276070,0.604418,-0.291006,-0.688316,82.246169,42.174165,-99.077703
47448,-6.506711,6.828219,1.101823,-0.142960,0.198261,-0.319736,0.032957,0.043538,-0.136282,-0.065018,0.068325,0.011044,1.000000,0.000165,0.000218,-0.000681,0.275600,0.604774,-0.290679,-0.688330,82.274517,42.248366,-99.061699
47449,-6.635626,7.102312,1.184862,-0.208847,0.099961,-0.023682,0.037359,0.056804,-0.138968,-0.066304,0.071067,0.011881,1.000000,0.000187,0.000284,-0.000695,0.275125,0.605187,-0.290341,-0.688300,82.312331,42.325361,-99.035578
47450,-6.690121,7.146314,1.267211,-0.289343,0.102862,0.053367,0.025545,0.053612,-0.141650,-0.066847,0.071509,0.012699,1.000000,0.000128,0.000268,-0.000708,0.274674,0.605574,-0.289959,-0.688301,82.341410,42.403367,-99.012233
47451,-6.678614,7.281942,1.240593,-0.265918,-0.012968,0.142147,0.008239,0.056695,-0.149452,-0.066728,0.072869,0.012428,1.000000,0.000041,0.000283,-0.000747,0.274251,0.605960,-0.289488,-0.688328,82.361907,42.486288,-98.987119
47452,-6.704304,7.519040,1.204162,-0.223824,-0.173037,0.328989,-0.039338,0.065090,-0.157025,-0.066980,0.075245,0.012049,1.000000,-0.000197,0.000325,-0.000785,0.273959,0.606320,-0.288820,-0.688408,82.358850,42.573889,-98.956394
47453,-6.735245,7.779685,1.195067,-0.204303,-0.345568,0.538836,-0.096872,0.075722,-0.162698,-0.067285,0.077857,0.011938,0.999999,-0.000484,0.000379,-0.000813,0.273836,0.606646,-0.287922,-0.688546,82.328216,42.665781,-98.917925
47454,-6.818808,7.728347,0.978579,0.023216,-0.281639,0.536284,-0.167437,0.077437,-0.172343,-0.068118,0.077350,0.009747,0.999999,-0.000837,0.000387,-0.000862,0.273898,0.606893,-0.286749,-0.688793,82.257188,42.763056,-98.879311
47455,-6.920056,7.529837,0.863334,0.150807,-0.097717,0.448826,-0.175252,0.067708,-0.166861,-0.069135,0.075364,0.008591,0.999999,-0.000876,0.000339,-0.000834,0.273986,0.607089,-0.285577,-0.689072,82.177117,42.856738,-98.847641
47456,-6.858757,7.313297,0.893689,0.114135,-0.008121,0.252720,-0.131070,0.045443,-0.147722,-0.068531,0.073189,0.008905,0.999999,-0.000655,0.000227,-0.000739,0.273975,0.607239,-0.284648,-0.689329,82.111778,42.937606,-98.831412
47457,-6.945164,7.016743,0.879083,0.132655,0.244049,0.095168,-0.059852,0.037141,-0.121569,-0.069407,0.070212,0.008783,1.000000,-0.000299,0.000186,-0.000608,0.273825,0.607422,-0.284053,-0.689473,82.084936,43.003222,-98.818752
47458,-6.954698,6.981595,1.054516,-0.043448,0.276051,0.094098,0.063367,0.011219,-0.091564,-0.069514,0.069844,0.010571,1.000000,0.000317,0.000056,-0.000458,0.273369,0.607639,-0.284010,-0.689479,82.116993,43.049533,-98.823092
47459,-6.793530,7.520625,1.293742,-0.287265,-0.202987,0.398184,0.119538,-0.048197,-0.062154,-0.067915,0.075220,0.012966,1.000000,0.000598,-0.000241,-0.000311,0.272757,0.607689,-0.284331,-0.689546,82.152089,43.074738,-98.870275
47460,-6.207326,8.139535,1.774090,-0.819362,-1.025421,0.493013,0.137630,-0.006181,-0.035582,-0.062059,0.081394,0.017795,1.000000,0.000688,-0.000031,-0.000178,0.272243,0.607868,-0.284739,-0.689423,82.221596,43.087921,-98.882077
47461,-6.435611,8.586741,1.195216,-0.208901,-1.206717,0.914751,-0.104266,0.082414,-0.028423,-0.064339,0.085883,0.011934,1.000000,-0.000521,0.000412,-0.000142,0.272614,0.608014,-0.284212,-0.689365,82.200255,43.104140,-98.824131
47462,-6.800388,8.206978,0.904068,0.119586,-0.703078,0.860103,-0.249544,0.072801,-0.022321,-0.067991,0.082089,0.008963,0.999999,-0.001248,0.000364,-0.000112,0.273435,0.607918,-0.283217,-0.689533,82.090847,43.115974,-98.773124
47463,-6.655336,7.326996,1.067992,-0.073596,-0.195000,0.140981,-0.241319,0.072055,-0.018987,-0.066543,0.073289,0.010615,0.999999,-0.001207,0.000360,-0.000095,0.274239,0.607827,-0.282261,-0.689687,81.986172,43.126109,-98.722237
47464,-6.872645,6.715517,0.715798,0.289318,0.361635,-0.188276,-0.194817,0.084567,-0.003742,-0.068722,0.067163,0.007122,0.999999,-0.000974,0.000423,-0.000019,0.274974,0.607819,-0.281494,-0.689715,81.915753,43.128474,-98.660082
47465,-7.131285,6.618620,0.696376,0.336912,0.615047,-0.083633,-0.018847,0.037876,0.023761,-0.071319,0.066178,0.006971,1.000000,-0.000094,0.000189,0.000119,0.275201,0.607854,-0.281481,-0.689599,81.923595,43.111685,-98.631068
47466,-6.905232,6.839953,0.881744,0.132565,0.313569,-0.059291,0.126136,-0.016367,0.036025,-0.069065,0.068382,0.008855,1.000000,0.000631,-0.000082,0.000180,0.274955,0.607883,-0.282081,-0.689426,81.986427,43.083392,-98.642997
47467,-6.489141,7.167199,1.064041,-0.091116,-0.195921,-0.088328,0.192880,-0.032960,0.044155,-0.064909,0.071647,0.010699,0.999999,0.000964,-0.000165,0.000221,0.274509,0.607936,-0.282957,-0.689198,82.079464,43.049382,-98.666853
47468,-6.456949,7.635762,1.030841,-0.057684,-0.536518,0.225664,0.156828,0.035336,0.045955,-0.064585,0.076335,0.010380,1.000000,0.000784,0.000177,0.000230,0.274276,0.608170,-0.283621,-0.688811,82.187942,43.019535,-98.637679
47469,-6.736512,7.549086,0.813340,0.175868,-0.280737,0.332314,0.039386,0.076723,0.042809,-0.067378,0.075475,0.008174,1.000000,0.000197,0.000384,0.000214,0.274447,0.608391,-0.283814,-0.688468,82.250941,42.994840,-98.576658
47470,-6.774850,7.308053,0.949892,0.031134,-0.073924,0.197412,0.019380,0.043174,0.041011,-0.067761,0.073066,0.009521,1.000000,0.000097,0.000216,0.000205,0.274627,0.608471,-0.283978,-0.688259,82.284357,42.968354,-98.542042
47471,-6.646190,6.681173,1.163628,-0.220342,0.282030,-0.323965,0.063806,0.038950,0.049401,-0.066476,0.066792,0.011671,1.000000,0.000319,0.000195,0.000247,0.274692,0.608586,-0.284327,-0.687987,82.341740,42.936941,-98.509740
47472,-6.791518,6.680053,0.962244,-0.010220,0.383905,-0.245752,0.075049,0.018295,0.070567,-0.067938,0.066773,0.009654,1.000000,0.000375,0.000091,0.000353,0.274769,0.608614,-0.284807,-0.687733,82.395909,42.891733,-98.491446
47473,-6.680216,7.066139,1.082244,-0.136155,0.054743,-0.029778,0.154738,-0.026124,0.084940,-0.066834,0.070625,0.010868,1.000000,0.000774,-0.000131,0.000425,0.274587,0.608579,-0.285666,-0.687480,82.473439,42.835186,-98.506058
47474,-6.342800,7.771292,1.337617,-0.412350,-0.647773,0.278083,0.106351,-0.021980,0.081440,-0.063461,0.077680,0.013411,1.000000,0.000532,-0.000110,0.000407,0.274548,0.608495,-0.286342,-0.687289,82.524962,42.780760,-98.518012
47475,-6.300824,8.098314,0.887451,0.041891,-0.920765,0.445045,-0.146207,0.047616,0.064634,-0.063032,0.080969,0.008830,1.000000,-0.000731,0.000238,0.000323,0.275317,0.608329,-0.286003,-0.687269,82.467362,42.741265,-98.477707
47476,-6.472613,8.101430,0.444961,0.515005,-0.819798,0.521168,-0.321822,0.110342,0.033536,-0.064737,0.081011,0.004355,0.999999,-0.001609,0.000552,0.000168,0.276604,0.608179,-0.284879,-0.687352,82.339738,42.724051,-98.392153
47477,-6.621641,7.434930,0.201438,0.772821,-0.268046,0.111815,-0.449114,0.132261,0.000441,-0.066215,0.074353,0.001891,0.999997,-0.002246,0.000661,0.000002,0.278194,0.607973,-0.283185,-0.687592,82.148530,42.727644,-98.292954
47478,-6.622581,6.357304,0.076855,0.878544,0.463055,-0.686159,-0.436616,0.108633,-0.012043,-0.066222,0.063579,0.000666,0.999997,-0.002183,0.000543,-0.000060,0.279669,0.607718,-0.281529,-0.687900,81.950998,42.736548,-98.213495
47479,-6.545479,5.612272,0.063163,0.866857,0.915652,-1.283032,-0.261910,0.106803,-0.013433,-0.065451,0.056128,0.000593,0.999999,-0.001310,0.000534,-0.000067,0.280603,0.607701,-0.280470,-0.687967,81.852726,42.746397,-98.135458
47480,-6.732408,5.465744,-0.142101,1.085870,1.142835,-1.284224,-0.014249,0.073305,-0.002482,-0.067324,0.054658,-0.001400,1.000000,-0.000071,0.000367,-0.000012,0.280777,0.607899,-0.280343,-0.687772,81.879389,42.747201,-98.082250
47481,-6.654544,5.865430,0.176844,0.770026,0.828801,-1.012823,0.272508,-0.013923,0.020211,-0.066551,0.058645,0.001844,0.999999,0.001363,-0.000070,0.000101,0.280033,0.608169,-0.281393,-0.687408,82.026566,42.728270,-98.093756
47482,-6.365060,6.512252,0.645803,0.281162,0.202822,-0.690176,0.467038,-0.046197,0.036851,-0.063664,0.065095,0.006595,0.999997,0.002335,-0.000231,0.000184,0.278709,0.608573,-0.283207,-0.686843,82.269171,42.697203,-98.128696
47483,-6.166026,6.858337,0.950196,-0.058525,-0.154498,-0.542728,0.504213,-0.018617,0.046719,-0.061677,0.068545,0.009669,0.999997,0.002521,-0.000093,0.000234,0.277343,0.609108,-0.285138,-0.686123,82.548393,42.662951,-98.141281
47484,-6.249252,7.461194,1.088023,-0.200051,-0.487794,-0.033715,0.446467,0.022867,0.053928,-0.062511,0.074571,0.011054,0.999997,0.002232,0.000114,0.000270,0.276235,0.609690,-0.286834,-0.685346,82.816298,42.627460,-98.121521
47485,-6.232799,7.955144,1.280962,-0.410764,-0.815541,0.333201,0.326903,0.062416,0.049996,-0.062344,0.079515,0.012959,0.999999,0.001635,0.000312,0.000250,0.275534,0.610247,-0.288053,-0.684621,83.036257,42.597136,-98.071597
47486,-6.391812,8.222347,1.383563,-0.511967,-0.867194,0.644958,0.140634,0.082685,0.047316,-0.063932,0.082199,0.013920,1.000000,0.000703,0.000413,0.000237,0.275421,0.610617,-0.288597,-0.684106,83.159517,42.569420,-98.006615
47487,-6.325970,8.168470,1.395023,-0.539337,-0.873830,0.561965,-0.101017,0.135829,0.016848,-0.063257,0.081686,0.013952,1.000000,-0.000505,0.000679,0.000084,0.276017,0.610882,-0.288148,-0.683819,83.170389,42.562773,-97.903274
47488,-6.657750,7.547021,0.729598,0.145874,-0.247389,0.273590,-0.293376,0.172958,-0.013149,-0.066566,0.075485,0.007243,0.999999,-0.001467,0.000865,-0.000066,0.277153,0.611049,-0.286899,-0.683736,83.088306,42.575614,-97.774228
47489,-6.949959,7.086372,0.509340,0.391930,0.263776,0.114791,-0.304232,0.157226,-0.041987,-0.069481,0.070886,0.005040,0.999999,-0.001521,0.000786,-0.000210,0.278198,0.611188,-0.285545,-0.683753,82.990242,42.604058,-97.659848
47490,-6.927758,6.712816,0.378539,0.517739,0.489777,-0.185067,-0.232127,0.109067,-0.067547,-0.069253,0.067156,0.003745,0.999999,-0.001161,0.000545,-0.000338,0.278868,0.611297,-0.284426,-0.683850,82.906424,42.643637,-97.585318
47491,-6.865822,6.407007,0.304920,0.579962,0.642863,-0.456802,-0.112904,0.073797,-0.081845,-0.068631,0.064100,0.003038,1.000000,-0.000565,0.000369,-0.000409,0.279072,0.611472,-0.283719,-0.683904,82.871816,42.689060,-97.539238
47492,-6.769287,6.367887,0.206846,0.665528,0.587427,-0.559147,0.054314,0.026944,-0.092407,-0.067663,0.063710,0.002095,1.000000,0.000272,0.000135,-0.000462,0.278664,0.611733,-0.283618,-0.683878,82.907506,42.737004,-97.530602
47493,-6.602950,6.410210,0.579409,0.270609,0.448388,-0.606649,0.235565,-0.007855,-0.089910,-0.066001,0.064125,0.005867,0.999999,0.001178,-0.000039,-0.000450,0.277659,0.612126,-0.284191,-0.683698,83.029282,42.781264,-97.548360
47494,-6.450063,6.434754,0.813921,0.007118,0.327234,-0.671316,0.312761,-0.027275,-0.079680,-0.064476,0.064360,0.008231,0.999999,0.001564,-0.000136,-0.000398,0.276426,0.612542,-0.285087,-0.683452,83.185489,42.818217,-97.580304
47495,-6.471808,6.703541,0.860519,-0.050050,0.158825,-0.456701,0.348833,-0.001491,-0.063420,-0.064697,0.067041,0.008722,0.999998,0.001744,-0.000007,-0.000317,0.275173,0.613073,-0.286119,-0.683050,83.377361,42.847914,-97.590396
47496,-6.452756,7.116134,0.989072,-0.193037,-0.131454,-0.158616,0.327488,0.019175,-0.044711,-0.064511,0.071159,0.010013,0.999999,0.001637,0.000096,-0.000224,0.274079,0.613614,-0.287107,-0.682589,83.568829,42.868136,-97.582870
47497,-6.526603,7.612428,1.113862,-0.321255,-0.411359,0.262720,0.228662,0.040760,-0.048367,-0.065245,0.076127,0.011239,0.999999,0.001143,0.000204,-0.000242,0.273305,0.614100,-0.287715,-0.682206,83.715231,42.891989,-97.558585
47498,-6.623687,7.767039,1.118320,-0.328223,-0.449059,0.441159,0.068446,0.075049,-0.053536,-0.066212,0.077684,0.011235,1.000000,0.000342,0.000375,-0.000268,0.273055,0.614489,-0.287715,-0.681956,83.787447,42.920693,-97.508223
47499,-6.761875,7.654715,0.922289,-0.127523,-0.288301,0.437622,-0.069291,0.093501,-0.068500,-0.067588,0.076573,0.009228,1.000000,-0.000346,0.000468,-0.000343,0.273203,0.614776,-0.287173,-0.681867,83.790005,42.959221,-97.444510
47500,-6.848343,7.313194,0.907252,-0.109355,-0.000016,0.246823,-0.141733,0.091582,-0.081408,-0.068450,0.073166,0.009052,1.000000,-0.000709,0.000458,-0.000407,0.273528,0.614974,-0.286347,-0.681906,83.749056,43.004817,-97.383571
47501,-6.851154,6.889076,0.845373,-0.051607,0.280567,-0.064306,-0.161238,0.085147,-0.091924,-0.068476,0.068929,0.008427,0.999999,-0.000806,0.000426,-0.000460,0.273867,0.615139,-0.285431,-0.682005,83.693211,43.056209,-97.328346
47502,-6.906171,6.594109,0.660347,0.134000,0.504429,-0.255432,-0.084396,0.075844,-0.090274,-0.069029,0.065975,0.006602,1.000000,-0.000422,0.000379,-0.000451,0.273962,0.615373,-0.284794,-0.682021,83.676291,43.105928,-97.280437
47503,-6.914762,6.710465,0.705969,0.089773,0.425617,-0.161084,0.045107,0.031684,-0.079592,-0.069120,0.067131,0.007086,1.000000,0.000226,0.000158,-0.000398,0.273631,0.615620,-0.284692,-0.681973,83.710984,43.146965,-97.265815
47504,-6.774619,6.714623,0.895096,-0.119374,0.325619,-0.238632,0.163290,0.005385,-0.074971,-0.067721,0.067164,0.009008,1.000000,0.000816,0.000027,-0.000375,0.272916,0.615931,-0.285044,-0.681832,83.799387,43.183534,-97.271468
47505,-6.788746,6.884417,0.799647,-0.031975,0.209503,-0.113369,0.199027,0.005501,-0.072891,-0.067862,0.068861,0.008067,0.999999,0.000995,0.000028,-0.000364,0.272096,0.616289,-0.285523,-0.681636,83.908778,43.219131,-97.276575
47506,-6.775537,7.149586,0.808973,-0.053107,0.014422,0.070423,0.259888,-0.011127,-0.061525,-0.067734,0.071506,0.008179,0.999999,0.001299,-0.000056,-0.000308,0.271105,0.616655,-0.286267,-0.681388,84.044567,43.247061,-97.293844
47507,-6.684418,7.432094,1.068753,-0.333140,-0.233720,0.231917,0.256834,-0.017095,-0.057570,-0.066824,0.074326,0.010777,0.999999,0.001284,-0.000085,-0.000288,0.270127,0.616991,-0.287020,-0.681156,84.175945,43.272617,-97.315189
47508,-6.652434,7.623401,1.161603,-0.440796,-0.385157,0.354799,0.163786,0.000003,-0.050837,-0.066505,0.076241,0.011678,1.000000,0.000819,0.000000,-0.000254,0.269484,0.617247,-0.287454,-0.680995,84.263318,43.295150,-97.322746
47509,-6.664702,7.548601,1.076618,-0.363437,-0.332304,0.302461,0.026974,0.015465,-0.044118,-0.066630,0.075499,0.010782,1.000000,0.000135,0.000077,-0.000221,0.269307,0.617364,-0.287421,-0.680973,84.281243,43.314929,-97.317456
47510,-6.681043,7.252141,1.028965,-0.318639,-0.122896,0.095492,-0.050206,0.036419,-0.054729,-0.066789,0.072542,0.010284,1.000000,-0.000251,0.000182,-0.000274,0.269363,0.617461,-0.287065,-0.681013,84.265392,43.341768,-97.296758
47511,-6.748301,7.033061,0.838494,-0.123577,0.060524,-0.030681,-0.082137,0.053036,-0.055255,-0.067461,0.070353,0.008374,1.000000,-0.000411,0.000265,-0.000276,0.269539,0.617575,-0.286576,-0.681047,84.240405,43.370043,-97.262905
47512,-6.823318,6.962021,0.717821,0.004283,0.151939,-0.039276,-0.065565,0.055822,-0.048411,-0.068214,0.069639,0.007174,1.000000,-0.000328,0.000279,-0.000242,0.269692,0.617708,-0.286161,-0.681039,84.226560,43.394408,-97.226495
47513,-6.822260,6.909072,0.771236,-0.049762,0.186936,-0.074315,-0.009618,0.030373,-0.043122,-0.068207,0.069106,0.007719,1.000000,-0.000048,0.000152,-0.000216,0.269652,0.617824,-0.285987,-0.681023,84.231590,43.414473,-97.209455
47514,-6.753865,6.998170,0.813708,-0.099329,0.075895,-0.053816,0.043891,0.012519,-0.033868,-0.067526,0.069991,0.008157,1.000000,0.000219,0.000063,-0.000169,0.269455,0.617937,-0.286048,-0.680973,84.257927,43.428055,-97.205852
47515,-6.747893,6.824441,0.815228,-0.108656,0.190557,-0.183381,0.098883,0.000316,-0.025507,-0.067470,0.068249,0.008186,1.000000,0.000494,0.000002,-0.000128,0.269097,0.618072,-0.286338,-0.680870,84.309875,43.436354,-97.210997
47516,-6.844232,6.832317,0.699832,0.006193,0.247829,-0.119785,0.178215,-0.001423,-0.023361,-0.068434,0.068325,0.007059,1.000000,0.000891,-0.000007,-0.000117,0.268500,0.618303,-0.286907,-0.680657,84.406234,43.443155,-97.217488
47517,-6.928418,7.035896,0.679551,0.022111,0.167607,0.083777,0.271130,-0.026846,-0.016804,-0.069279,0.070355,0.006882,0.999999,0.001356,-0.000134,-0.000084,0.267600,0.618563,-0.287846,-0.680378,84.542676,43.445012,-97.243276
47518,-6.810137,7.248019,1.000280,-0.321832,-0.042833,0.177652,0.246841,-0.044872,-0.020298,-0.068096,0.072475,0.010077,0.999999,0.001234,-0.000224,-0.000101,0.266738,0.618732,-0.288716,-0.680195,84.655062,43.447741,-97.283637
47519,-6.754981,7.096124,1.010855,-0.349706,0.023637,0.030265,0.149790,-0.024859,-0.037277,-0.067538,0.070966,0.010153,1.000000,0.000749,-0.000124,-0.000186,0.266146,0.618864,-0.289176,-0.680111,84.722017,43.461455,-97.309363
47520,-6.810145,7.194765,0.702031,-0.044626,-0.026226,0.118721,0.106351,0.000136,-0.046252,-0.068085,0.071960,0.007059,1.000000,0.000532,0.000001,-0.000231,0.265695,0.619036,-0.289427,-0.680024,84.776946,43.481429,-97.316221
47521,-6.797717,7.315263,0.925868,-0.274655,-0.106952,0.211902,0.088465,-0.012139,-0.054268,-0.067958,0.073167,0.009287,1.000000,0.000442,-0.000061,-0.000271,0.265254,0.619154,-0.289608,-0.680011,84.814802,43.505532,-97.333149
47522,-6.723807,7.403158,0.943492,-0.301640,-0.224025,0.225506,0.009449,-0.004403,-0.064057,-0.067215,0.074053,0.009437,1.000000,0.000047,-0.000022,-0.000320,0.265035,0.619207,-0.289481,-0.680103,84.810887,43.535436,-97.344826
47523,-6.698205,7.224191,0.883958,-0.243292,-0.127700,0.074717,-0.045031,-0.005844,-0.058037,-0.066961,0.072263,0.008821,1.000000,-0.000225,-0.000029,-0.000290,0.265003,0.619175,-0.289189,-0.680269,84.775446,43.562009,-97.357096
47524,-6.742982,7.051232,0.727349,-0.079954,0.010001,-0.029527,-0.029984,-0.014711,-0.037110,-0.067417,0.070526,0.007258,1.000000,-0.000150,-0.000074,-0.000186,0.264984,0.619101,-0.289024,-0.680413,84.744644,43.575991,-97.374992
47525,-6.752067,7.049846,0.753943,-0.101939,0.017090,-0.022463,-0.013303,-0.036738,-0.023442,-0.067514,0.070507,0.007522,1.000000,-0.000067,-0.000184,-0.000117,0.264926,0.618956,-0.288987,-0.680583,84.712297,43.581186,-97.409133
47526,-6.766927,6.975942,0.780377,-0.124166,0.079247,-0.063721,0.001920,-0.024057,-0.026754,-0.067661,0.069768,0.007796,1.000000,0.000010,-0.000120,-0.000134,0.264830,0.618878,-0.288976,-0.680696,84.695202,43.588753,-97.433657
47527,-6.829863,6.976602,0.481869,0.180554,0.102746,-0.039814,0.004614,-0.018437,-0.028594,-0.068289,0.069776,0.004814,1.000000,0.000023,-0.000092,-0.000143,0.264726,0.618827,-0.288960,-0.680791,84.682778,43.597841,-97.453779
47528,-6.822525,6.998376,0.457475,0.203816,0.079335,-0.030787,0.069369,-0.032817,-0.027468,-0.068216,0.069992,0.004588,1.000000,0.000347,-0.000164,-0.000137,0.264406,0.618809,-0.289188,-0.680835,84.699520,43.605347,-97.485266
47529,-6.734207,7.015280,0.583106,0.067606,0.011768,-0.071076,0.096760,-0.041807,-0.023264,-0.067335,0.070158,0.005851,1.000000,0.000484,-0.000209,-0.000116,0.264001,0.618792,-0.289533,-0.680861,84.727465,43.610170,-97.523406
47530,-6.788424,6.921415,0.641838,0.009484,0.119346,-0.097426,0.117300,-0.025661,-0.024744,-0.067877,0.069219,0.006450,1.000000,0.000586,-0.000128,-0.000124,0.263552,0.618857,-0.289922,-0.680809,84.775695,43.616522,-97.549052
47531,-6.820621,6.899495,0.728873,-0.080273,0.163051,-0.085297,0.129081,-0.029893,-0.031664,-0.068196,0.069001,0.007323,1.000000,0.000645,-0.000149,-0.000158,0.263035,0.618935,-0.290335,-0.680762,84.828215,43.626801,-97.578402
47532,-6.768581,7.038026,0.581059,0.056264,0.017482,-0.030987,0.087458,-0.019970,-0.050014,-0.067669,0.070395,0.005835,1.000000,0.000437,-0.000100,-0.000250,0.262601,0.619017,-0.290537,-0.680769,84.861198,43.647896,-97.601354
47533,-6.780404,7.133079,0.544718,0.089119,-0.046034,0.043343,0.071278,-0.013390,-0.056881,-0.067784,0.071348,0.005468,1.000000,0.000356,-0.000067,-0.000284,0.262201,0.619111,-0.290654,-0.680788,84.888337,43.673440,-97.619474
47534,-6.695476,7.269223,0.537253,0.084866,-0.205876,0.082263,0.052443,-0.018255,-0.056348,-0.066935,0.072710,0.005385,1.000000,0.000262,-0.000091,-0.000282,0.261856,0.619162,-0.290715,-0.680848,84.901876,43.698251,-97.641513
47535,-6.658404,7.166228,0.627789,-0.010610,-0.158031,-0.011759,0.042228,-0.012358,-0.044849,-0.066568,0.071676,0.006289,1.000000,0.000211,-0.000062,-0.000224,0.261589,0.619204,-0.290768,-0.680890,84.913517,43.716984,-97.657961
47536,-6.707725,7.041545,0.411610,0.207328,-0.054442,-0.081274,0.056985,-0.009354,-0.040507,-0.067063,0.070428,0.004133,1.000000,0.000285,-0.000047,-0.000203,0.261296,0.619268,-0.290882,-0.680896,84.935275,43.733214,-97.671855
47537,-6.692537,6.988240,0.337763,0.275388,-0.035103,-0.134746,0.113408,-0.031412,-0.021959,-0.066918,0.069888,0.003407,1.000000,0.000567,-0.000157,-0.000110,0.260859,0.619305,-0.291273,-0.680863,84.978405,43.737929,-97.701740
47538,-6.680370,6.990247,0.538387,0.067522,-0.030076,-0.128923,0.166627,-0.036045,-0.013963,-0.066800,0.069903,0.005430,1.000000,0.000833,-0.000180,-0.000070,0.260278,0.619382,-0.291877,-0.680756,85.049691,43.737694,-97.734859
47539,-6.683979,7.017144,0.628768,-0.031365,-0.037937,-0.101415,0.169406,-0.026897,-0.008227,-0.066838,0.070169,0.006338,1.000000,0.000847,-0.000134,-0.000041,0.259720,0.619487,-0.292496,-0.680609,85.128033,43.734841,-97.760223
47540,-6.703866,7.113843,0.456146,0.133004,-0.102037,-0.028591,0.128348,-0.013765,-0.000348,-0.067039,0.071136,0.004602,1.000000,0.000642,-0.000069,-0.000002,0.259336,0.619569,-0.292982,-0.680471,85.190190,43.727971,-97.774825
47541,-6.719948,7.219094,0.695678,-0.110248,-0.143149,0.072875,0.077748,-0.026559,-0.001096,-0.067200,0.072189,0.006976,1.000000,0.000389,-0.000133,-0.000005,0.259087,0.619545,-0.293310,-0.680447,85.216531,43.721097,-97.799451
47542,-6.729901,7.217992,0.640867,-0.055172,-0.139393,0.075650,-0.017612,-0.008228,-0.023214,-0.067291,0.072188,0.006400,1.000000,-0.000088,-0.000041,-0.000116,0.259086,0.619490,-0.293222,-0.680535,85.197031,43.727556,-97.811199
47543,-6.740782,7.209331,0.335448,0.253458,-0.151923,0.058371,-0.071242,0.007972,-0.040188,-0.067393,0.072108,0.003331,1.000000,-0.000356,0.000040,-0.000201,0.259216,0.619448,-0.292877,-0.680673,85.155061,43.744650,-97.811149
47544,-6.630298,7.097798,0.276707,0.306501,-0.161836,-0.102074,-0.067703,0.019299,-0.046403,-0.066286,0.070994,0.002749,1.000000,-0.000339,0.000096,-0.000232,0.259331,0.619456,-0.292510,-0.680779,85.120814,43.765675,-97.802717
47545,-6.672125,7.005658,0.552493,0.039890,-0.050270,-0.122608,-0.038323,0.013960,-0.039766,-0.066707,0.070071,0.005516,1.000000,-0.000192,0.000070,-0.000199,0.259369,0.619475,-0.292271,-0.680849,85.100995,43.782815,-97.797917
47546,-6.661600,7.029165,0.684507,-0.090858,-0.066907,-0.104862,-0.035772,0.017522,-0.033986,-0.066603,0.070304,0.006838,1.000000,-0.000179,0.000088,-0.000170,0.259425,0.619501,-0.292054,-0.680898,85.084645,43.796669,-97.790065
47547,-6.661595,7.195661,0.550647,0.041916,-0.194766,0.006575,-0.035886,0.040067,-0.020174,-0.066608,0.071964,0.005507,1.000000,-0.000179,0.000200,-0.000101,0.259560,0.619584,-0.291850,-0.680859,85.081431,43.803906,-97.763294
47548,-6.704116,7.489822,0.422609,0.171402,-0.378122,0.239618,-0.026483,0.035235,0.010781,-0.067044,0.074895,0.004228,1.000000,-0.000132,0.000176,0.000054,0.259766,0.619616,-0.291780,-0.680781,85.082208,43.793076,-97.738388
47549,-6.787950,7.595412,0.391861,0.209833,-0.390535,0.371789,-0.039944,0.046730,0.038071,-0.067893,0.075942,0.003919,1.000000,-0.000200,0.000234,0.000190,0.260121,0.619631,-0.291734,-0.680651,85.083048,43.767380,-97.702389
47550,-6.965797,7.315701,0.248103,0.374233,-0.074658,0.284725,-0.032035,0.000584,0.046524,-0.069675,0.073141,0.002470,1.000000,-0.000160,0.000003,0.000233,0.260415,0.619486,-0.291801,-0.680642,85.063364,43.734444,-97.702449
47551,-6.866082,7.336910,0.356210,0.260513,-0.148348,0.237702,-0.021039,-0.026106,0.024559,-0.068670,0.073361,0.003545,1.000000,-0.000105,-0.000131,0.000123,0.260560,0.619297,-0.291872,-0.680727,85.034614,43.712868,-97.724904
47552,-6.929369,6.746262,1.260038,-0.624344,0.374862,-0.087176,-0.037288,-0.028109,-0.028056,-0.069286,0.067475,0.012578,1.000000,-0.000186,-0.000141,-0.000140,0.260574,0.619157,-0.291728,-0.680912,84.992741,43.721073,-97.752715
47553,-7.083399,6.474052,0.773659,-0.116120,0.631546,-0.206748,-0.162568,0.005712,-0.101821,-0.070801,0.064783,0.007686,1.000000,-0.000813,0.000029,-0.000509,0.260773,0.619076,-0.290884,-0.681270,84.894189,43.773205,-97.758830
47554,-6.806486,6.507225,0.282346,0.356637,0.362100,-0.405583,-0.205884,0.015982,-0.145532,-0.068017,0.065125,0.002762,0.999999,-0.001029,0.000080,-0.000728,0.260973,0.619036,-0.289744,-0.681715,84.773953,43.850656,-97.760253
47555,-6.443630,6.984080,0.362592,0.250996,-0.236745,-0.309523,-0.191400,0.045263,-0.132831,-0.064389,0.069887,0.003574,0.999999,-0.000957,0.000226,-0.000664,0.261213,0.619096,-0.288654,-0.682031,84.678805,43.922562,-97.737614
47556,-6.400726,7.437896,0.397844,0.221768,-0.592221,-0.012180,-0.217577,0.079395,-0.088013,-0.063973,0.074411,0.003923,0.999999,-0.001088,0.000397,-0.000440,0.261736,0.619172,-0.287569,-0.682221,84.589443,43.970596,-97.684893
47557,-6.700151,7.159572,0.302565,0.355919,-0.198267,-0.010798,-0.208214,0.066599,-0.051526,-0.066982,0.071616,0.002973,0.999999,-0.001041,0.000333,-0.000258,0.262335,0.619164,-0.286644,-0.682387,84.500530,43.997328,-97.639451
47558,-6.918012,6.560344,0.286941,0.396750,0.370946,-0.289855,-0.044861,0.021319,-0.023311,-0.069172,0.065612,0.002862,1.000000,-0.000224,0.000107,-0.000117,0.262461,0.619174,-0.286424,-0.682422,84.481531,44.005362,-97.627946
47559,-6.886881,6.215434,0.431960,0.245554,0.598765,-0.548320,0.120821,0.003018,-0.011381,-0.068865,0.062156,0.004358,1.000000,0.000604,0.000015,-0.000057,0.262086,0.619323,-0.286829,-0.682260,84.548266,44.005736,-97.629850
47560,-6.696922,6.445094,0.187587,0.457796,0.289574,-0.532077,0.299459,0.017626,0.024020,-0.066977,0.064440,0.001978,0.999999,0.001497,0.000088,0.000120,0.261302,0.619703,-0.287935,-0.681750,84.726979,43.986551,-97.617724
47561,-6.750709,7.213526,0.270484,0.354696,-0.194736,0.062350,0.461207,-0.018991,0.065148,-0.067531,0.072107,0.002865,0.999997,0.002306,-0.000095,0.000326,0.260101,0.620109,-0.289765,-0.681064,84.980438,43.942149,-97.631603
47562,-6.776114,7.701873,1.029975,-0.429525,-0.449797,0.478500,0.397260,-0.053194,0.075713,-0.067793,0.076972,0.010435,0.999998,0.001986,-0.000266,0.000379,0.259085,0.620296,-0.291454,-0.680560,85.178541,43.889908,-97.672292
47563,-7.027788,7.422210,1.608057,-0.997805,-0.021706,0.486281,0.232699,-0.039336,0.011520,-0.070285,0.074199,0.016153,0.999999,0.001163,-0.000197,0.000058,0.258379,0.620411,-0.292365,-0.680333,85.287190,43.875214,-97.706219
47564,-6.949685,7.253632,0.966928,-0.374237,-0.010447,0.272355,0.039752,0.016750,-0.093691,-0.069462,0.072567,0.009690,1.000000,0.000199,0.000084,-0.000468,0.257997,0.620618,-0.292221,-0.680351,85.311059,43.923105,-97.702786
47565,-6.552447,7.319953,0.166640,0.382236,-0.411443,-0.003068,-0.102157,0.072933,-0.117034,-0.065481,0.073239,0.001653,1.000000,-0.000511,0.000365,-0.000585,0.258056,0.620869,-0.291449,-0.680431,85.283729,43.987115,-97.656140
47566,-6.333554,7.821321,0.629432,-0.097248,-0.890845,0.231220,-0.222794,0.075429,-0.062043,-0.063309,0.078240,0.006231,0.999999,-0.001114,0.000377,-0.000310,0.258682,0.620891,-0.290434,-0.680608,85.190943,44.019730,-97.604099
47567,-6.564511,7.691779,0.941615,-0.366065,-0.619370,0.317724,-0.424965,0.119087,-0.014541,-0.065634,0.076942,0.009292,0.999998,-0.002125,0.000595,-0.000073,0.260159,0.620730,-0.288820,-0.680878,85.008845,44.027582,-97.514074
47568,-7.003617,7.003524,0.574939,0.066642,0.143790,0.107262,-0.386039,0.082490,-0.005949,-0.070032,0.070048,0.005643,0.999998,-0.001930,0.000412,-0.000030,0.261490,0.620478,-0.287413,-0.681193,84.829028,44.028749,-97.452701
47569,-7.116298,6.319315,0.220602,0.445128,0.675442,-0.327450,-0.137633,0.013671,-0.025378,-0.071155,0.063204,0.002167,1.000000,-0.000688,0.000068,-0.000127,0.261885,0.620345,-0.286880,-0.681387,84.752834,44.037639,-97.447173
47570,-6.939951,6.132235,0.104962,0.546391,0.671476,-0.591580,0.089947,-0.033588,-0.017671,-0.069394,0.061328,0.001066,1.000000,0.000450,-0.000168,-0.000088,0.261533,0.620336,-0.287208,-0.681391,84.781113,44.039545,-97.478777
47571,-6.789719,6.245726,0.214496,0.414256,0.494590,-0.607301,0.313750,-0.051213,0.021883,-0.067905,0.062446,0.002226,0.999999,0.001569,-0.000256,0.000109,0.260595,0.620504,-0.288444,-0.681076,84.930126,44.018153,-97.521345
47572,-6.804359,6.845104,0.626430,-0.016110,0.122654,-0.141503,0.399248,-0.027418,0.054183,-0.068063,0.068420,0.006392,0.999998,0.001996,-0.000137,0.000271,0.259537,0.620814,-0.290040,-0.680520,85.142502,43.979457,-97.543067
47573,-6.700530,7.532458,0.759122,-0.184905,-0.410954,0.287222,0.302788,-0.025666,0.057073,-0.067028,0.075294,0.007697,0.999999,0.001514,-0.000128,0.000285,0.258788,0.621000,-0.291313,-0.680091,85.300866,43.939401,-97.563175
47574,-6.875397,7.533881,1.150020,-0.571306,-0.251081,0.432485,0.111186,0.002448,0.009112,-0.068757,0.075329,0.011543,1.000000,0.000556,0.000012,0.000046,0.258512,0.621101,-0.291749,-0.679917,85.362443,43.927916,-97.564385
47575,-6.956054,6.953723,1.275997,-0.686327,0.219044,0.079233,-0.004780,-0.002605,-0.062922,-0.069539,0.069559,0.012757,1.000000,-0.000024,-0.000013,-0.000315,0.258344,0.621142,-0.291574,-0.680019,85.351812,43.957477,-97.574071
47576,-6.782007,6.603482,0.709474,-0.133276,0.288882,-0.325658,-0.074866,0.027603,-0.098045,-0.067787,0.066071,0.007079,1.000000,-0.000374,0.000138,-0.000490,0.258318,0.621244,-0.291012,-0.680176,85.315831,44.008358,-97.562261
47577,-6.551320,6.767668,0.317999,0.236381,-0.026844,-0.391135,-0.101975,0.045324,-0.066398,-0.065490,0.067700,0.003160,1.000000,-0.000510,0.000227,-0.000332,0.258510,0.621327,-0.290433,-0.680275,85.275733,44.042154,-97.534188
47578,-6.543677,7.282392,0.560703,-0.004543,-0.377830,-0.013476,-0.171989,0.070358,-0.023886,-0.065426,0.072837,0.005567,1.000000,-0.000860,0.000352,-0.000119,0.259100,0.621341,-0.289715,-0.680344,85.211068,44.052737,-97.483610
47579,-6.887857,7.285188,0.846871,-0.248194,-0.116376,0.245075,-0.197134,0.071040,-0.009141,-0.068872,0.072863,0.008421,0.999999,-0.000986,0.000355,-0.000046,0.259819,0.621304,-0.288957,-0.680426,85.133280,44.055119,-97.431347
47580,-7.007887,6.993030,0.599795,0.019485,0.153391,0.104408,-0.145931,0.038680,-0.022736,-0.070070,0.069943,0.005960,1.000000,-0.000730,0.000193,-0.000114,0.260286,0.621241,-0.288372,-0.680553,85.066089,44.063586,-97.405882
47581,-6.957822,6.591341,0.354138,0.265924,0.378820,-0.233112,-0.044769,0.021353,-0.031126,-0.069568,0.065925,0.003534,1.000000,-0.000224,0.000107,-0.000156,0.260384,0.621264,-0.288128,-0.680597,85.047102,44.076139,-97.394603
47582,-6.846741,6.504256,0.056796,0.549684,0.339599,-0.390960,0.129777,-0.018541,-0.002918,-0.068467,0.065043,0.000604,1.000000,0.000649,-0.000093,-0.000015,0.259980,0.621337,-0.288618,-0.680478,85.107203,44.070487,-97.413246
47583,-6.723149,6.746258,0.278722,0.305486,0.102248,-0.289735,0.261421,-0.030714,0.047884,-0.067248,0.067443,0.002865,0.999999,0.001307,-0.000154,0.000239,0.259320,0.621466,-0.289728,-0.680140,85.238614,44.035419,-97.437984
47584,-6.679509,7.242509,0.483975,0.077673,-0.251375,0.048082,0.287730,-0.040137,0.073885,-0.066823,0.072393,0.004931,0.999999,0.001439,-0.000201,0.000369,0.258654,0.621558,-0.291021,-0.679758,85.380785,43.984952,-97.468782
47585,-6.658626,7.619555,0.660485,-0.118858,-0.504854,0.314608,0.224474,-0.039631,0.080655,-0.066618,0.076161,0.006677,0.999999,0.001122,-0.000198,0.000403,0.258207,0.621559,-0.292118,-0.679455,85.487467,43.930841,-97.498694
47586,-6.744874,7.565381,0.932697,-0.388992,-0.375180,0.351277,0.080766,-0.032939,0.057627,-0.067472,0.075631,0.009346,1.000000,0.000404,-0.000165,0.000288,0.258139,0.621430,-0.292647,-0.679372,85.514224,43.890057,-97.524982
47587,-7.050215,6.864678,1.278965,-0.696382,0.361776,0.079191,0.041738,-0.053134,0.000745,-0.070506,0.068644,0.012785,1.000000,0.000209,-0.000266,0.000004,0.257969,0.621266,-0.292893,-0.679481,85.505312,43.880996,-97.570639
47588,-6.977378,6.383652,0.943114,-0.360294,0.617047,-0.335677,0.022174,-0.059013,-0.058896,-0.069758,0.063856,0.009418,1.000000,0.000111,-0.000295,-0.000294,0.257649,0.621143,-0.292894,-0.679715,85.479138,43.905592,-97.624858
47589,-6.556828,6.461800,0.585620,-0.043850,0.229627,-0.591237,0.026997,-0.038217,-0.071654,-0.065546,0.064641,0.005852,1.000000,0.000135,-0.000191,-0.000358,0.257299,0.621116,-0.292845,-0.679892,85.466768,43.938551,-97.663280
47590,-6.312910,7.123801,0.503386,0.007253,-0.416018,-0.289997,-0.032249,-0.005590,-0.040799,-0.063115,0.071252,0.005021,1.000000,-0.000161,-0.000028,-0.000204,0.257288,0.621078,-0.292649,-0.680016,85.439529,43.955211,-97.674050
47591,-6.475132,7.552097,0.619158,-0.091165,-0.591863,0.136495,-0.183914,0.048188,-0.007892,-0.064747,0.075529,0.006138,1.000000,-0.000920,0.000241,-0.000039,0.257937,0.620980,-0.291969,-0.680152,85.356648,43.955686,-97.639933
47592,-6.801222,7.548869,0.609192,-0.035947,-0.358881,0.359975,-0.281820,0.072935,0.009649,-0.068014,0.075494,0.006010,0.999999,-0.001409,0.000365,0.000048,0.258986,0.620812,-0.290979,-0.680331,85.231884,43.947208,-97.585190
47593,-6.902769,7.083484,0.280133,0.320828,0.013603,0.076666,-0.251930,0.065508,0.019768,-0.069034,0.070831,0.002735,0.999999,-0.001260,0.000328,0.000099,0.259965,0.620643,-0.290131,-0.680474,85.120830,43.932803,-97.535497
47594,-6.937187,6.567130,-0.033955,0.649101,0.377442,-0.289603,-0.082538,0.029619,0.025260,-0.069380,0.065662,-0.000356,1.000000,-0.000413,0.000148,0.000126,0.260385,0.620562,-0.289923,-0.680475,85.087155,43.913426,-97.514013
47595,-6.877228,6.273220,0.043582,0.565341,0.549427,-0.537453,0.177976,-0.016008,0.046922,-0.068787,0.062716,0.000486,1.000000,0.000890,-0.000080,0.000235,0.260004,0.620635,-0.290728,-0.680211,85.178893,43.879591,-97.527074
47596,-6.822706,6.573922,0.338392,0.250195,0.330534,-0.341237,0.348283,-0.031567,0.065387,-0.068249,0.065711,0.003488,0.999998,0.001741,-0.000158,0.000327,0.259135,0.620847,-0.292189,-0.679724,85.360223,43.834366,-97.551515
47597,-6.804329,7.002503,0.607067,-0.045447,0.050581,-0.030163,0.409993,-0.046386,0.072846,-0.068070,0.069988,0.006198,0.999998,0.002050,-0.000232,0.000364,0.258075,0.621076,-0.293900,-0.679179,85.569234,43.784421,-97.587234
47598,-6.775888,7.577151,0.791865,-0.263208,-0.342118,0.373900,0.338676,-0.043539,0.068560,-0.067787,0.075735,0.008032,0.999998,0.001693,-0.000218,0.000343,0.257227,0.621226,-0.295352,-0.678734,85.738408,43.736982,-97.621334
47599,-6.825375,7.685523,0.803699,-0.288258,-0.371576,0.486719,0.180648,-0.030071,0.033444,-0.068268,0.076837,0.008096,1.000000,0.000903,-0.000150,0.000167,0.256769,0.621270,-0.296140,-0.678523,85.823144,43.710377,-97.646789
47600,-6.856410,7.567185,0.793937,-0.278886,-0.264360,0.422317,0.031725,-0.018587,-0.004623,-0.068563,0.075672,0.007945,1.000000,0.000159,-0.000093,-0.000023,0.256663,0.621217,-0.296290,-0.678547,85.827067,43.705872,-97.665553
47601,-6.778962,7.387038,0.754859,-0.239942,-0.199380,0.236946,-0.095330,-0.015854,-0.030444,-0.067779,0.073884,0.007508,1.000000,-0.000477,-0.000079,-0.000152,0.256866,0.621049,-0.295925,-0.678783,85.758867,43.716362,-97.683495
47602,-6.728053,7.083366,0.696553,-0.169748,-0.034466,-0.020041,-0.197613,-0.001314,-0.044024,-0.067265,0.070855,0.006895,0.999999,-0.000988,-0.000007,-0.000220,0.257363,0.620818,-0.295152,-0.679142,85.639212,43.735081,-97.690937
47603,-6.670450,6.898479,0.560396,-0.021914,0.035792,-0.200395,-0.223959,0.003632,-0.049189,-0.066687,0.069007,0.005528,0.999999,-0.001120,0.000018,-0.000246,0.257931,0.620578,-0.294267,-0.679530,85.507111,43.757084,-97.694691
47604,-6.679233,6.897060,0.675693,-0.120811,0.046464,-0.188687,-0.223869,0.014793,-0.047198,-0.066776,0.068994,0.006685,0.999999,-0.001119,0.000074,-0.000236,0.258522,0.620371,-0.293373,-0.679881,85.380998,43.778325,-97.689715
47605,-6.768412,6.745448,0.440207,0.138158,0.191351,-0.249710,-0.228235,0.028134,-0.051368,-0.067666,0.067477,0.004335,0.999999,-0.001141,0.000141,-0.000257,0.259131,0.620210,-0.292434,-0.680201,85.259661,43.802706,-97.674368
47606,-6.839524,6.618763,0.231665,0.365347,0.309164,-0.304179,-0.161257,0.023037,-0.047700,-0.068379,0.066206,0.002271,1.000000,-0.000806,0.000115,-0.000239,0.259538,0.620111,-0.291741,-0.680433,85.173841,43.824642,-97.663014
47607,-6.781147,6.390855,0.241093,0.358862,0.422727,-0.507978,-0.064704,0.009131,-0.039419,-0.067799,0.063923,0.002393,1.000000,-0.000324,0.000046,-0.000197,0.259652,0.620080,-0.291419,-0.680557,85.136298,43.841323,-97.661985
47608,-6.792895,6.584645,0.229417,0.370043,0.293058,-0.361191,0.058808,0.005566,-0.033778,-0.067918,0.065857,0.002315,1.000000,0.000294,0.000028,-0.000169,0.259398,0.620186,-0.291540,-0.680504,85.167617,43.854473,-97.663555
47609,-6.700720,6.775209,0.371607,0.212028,0.104054,-0.279303,0.130757,-0.005272,-0.028172,-0.066998,0.067759,0.003759,1.000000,0.000654,-0.000026,-0.000141,0.258923,0.620343,-0.291937,-0.680372,85.234709,43.864055,-97.673154
47610,-6.758985,7.003621,0.589365,-0.011233,0.003031,-0.061698,0.173400,0.000348,-0.027268,-0.067580,0.070040,0.005954,1.000000,0.000867,0.000002,-0.000136,0.258328,0.620570,-0.292475,-0.680160,85.329142,43.873245,-97.678392
47611,-6.813567,7.205524,0.705781,-0.135144,-0.089452,0.127942,0.155687,-0.008452,-0.027606,-0.068126,0.072059,0.007111,1.000000,0.000778,-0.000042,-0.000138,0.257773,0.620747,-0.292962,-0.680000,85.408823,43.882379,-97.690435
47612,-6.773040,7.372449,0.676527,-0.120404,-0.237068,0.217969,0.096581,-0.004003,-0.025711,-0.067721,0.073730,0.006800,1.000000,0.000483,-0.000020,-0.000129,0.257415,0.620857,-0.293248,-0.679911,85.456942,43.890492,-97.698990
47613,-6.802275,7.466821,0.531830,0.021679,-0.294638,0.297699,0.002987,0.007849,-0.032456,-0.068010,0.074679,0.005322,1.000000,0.000015,0.000039,-0.000162,0.257341,0.620899,-0.293180,-0.679930,85.457881,43.903142,-97.698407
47614,-6.786834,7.412079,0.465842,0.089565,-0.275755,0.243802,-0.084417,0.004248,-0.040161,-0.067853,0.074136,0.004629,1.000000,-0.000422,0.000021,-0.000201,0.257508,0.620826,-0.292796,-0.680099,85.406192,43.919883,-97.701339
47615,-6.806042,7.364020,0.598732,-0.032147,-0.222439,0.230169,-0.148946,0.018465,-0.043637,-0.068044,0.073659,0.005939,1.000000,-0.000745,0.000092,-0.000218,0.257884,0.620725,-0.292163,-0.680322,85.325405,43.939401,-97.693080
47616,-6.729214,7.174193,0.234377,0.337107,-0.178024,0.018943,-0.199209,0.012953,-0.044597,-0.067276,0.071759,0.002277,0.999999,-0.000996,0.000065,-0.000223,0.258404,0.620539,-0.291363,-0.680637,85.212487,43.959081,-97.689467
47617,-6.776668,6.901755,0.093600,0.499445,0.031127,-0.152679,-0.242504,0.010556,-0.025994,-0.067758,0.069027,0.000856,0.999999,-0.001213,0.000053,-0.000130,0.259118,0.620263,-0.290476,-0.680996,85.074508,43.968158,-97.686383
47618,-6.780881,6.638277,0.473460,0.135987,0.243663,-0.315668,-0.105550,-0.010531,-0.019108,-0.067803,0.066392,0.004696,1.000000,-0.000528,-0.000053,-0.000096,0.259400,0.620080,-0.290103,-0.681214,85.003465,43.972135,-97.699749
47619,-6.866799,6.840365,0.544777,0.076055,0.169061,-0.106713,0.033082,-0.024117,-0.000093,-0.068669,0.068403,0.005451,1.000000,0.000165,-0.000121,-0.000000,0.259297,0.620005,-0.290280,-0.681246,85.005534,43.964709,-97.722387
47620,-6.829349,6.912861,0.603326,0.013211,0.097775,-0.077087,0.065708,-0.042607,0.004029,-0.068296,0.069125,0.006041,1.000000,0.000329,-0.000213,0.000020,0.259080,0.619902,-0.290604,-0.681284,85.016072,43.953877,-97.759587
47621,-6.766719,6.955677,0.490150,0.117212,0.016351,-0.096918,0.101176,-0.043945,-0.006967,-0.067666,0.069557,0.004922,1.000000,0.000506,-0.000220,-0.000035,0.258714,0.619857,-0.291017,-0.681288,85.045922,43.949403,-97.798419
47622,-6.819637,7.059381,0.593234,0.015334,-0.009329,0.020619,0.103953,-0.044051,-0.010912,-0.068194,0.070594,0.005954,1.000000,0.000520,-0.000220,-0.000055,0.258325,0.619820,-0.291427,-0.681294,85.076869,43.947052,-97.837794
47623,-6.735096,7.152604,0.663328,-0.066279,-0.128923,0.033136,0.059823,-0.032614,-0.019931,-0.067345,0.071531,0.006644,1.000000,0.000299,-0.000163,-0.000100,0.258059,0.619779,-0.291643,-0.681340,85.088648,43.950560,-97.868528
47624,-6.738226,7.248794,0.606111,-0.010565,-0.197960,0.100777,0.033731,-0.033606,-0.006374,-0.067381,0.072489,0.006062,1.000000,0.000169,-0.000168,-0.000032,0.257919,0.619679,-0.291815,-0.681410,85.085321,43.946144,-97.899313
47625,-6.641518,7.193026,0.614443,-0.025585,-0.227058,-0.005816,-0.027063,-0.025340,-0.006921,-0.066413,0.071933,0.006126,1.000000,-0.000135,-0.000127,-0.000035,0.257977,0.619532,-0.291766,-0.681543,85.051938,43.942573,-97.923390
47626,-6.773285,7.025752,0.434120,0.175162,-0.030509,-0.045629,-0.090495,-0.030369,0.000007,-0.067734,0.070259,0.004299,1.000000,-0.000452,-0.000152,0.000000,0.258248,0.619274,-0.291530,-0.681775,84.979535,43.934647,-97.951155
47627,-6.691667,7.001069,0.670315,-0.061206,-0.052135,-0.105153,-0.019163,-0.031638,0.011827,-0.066922,0.070007,0.006686,1.000000,-0.000096,-0.000158,0.000059,0.258336,0.619088,-0.291575,-0.681892,84.948144,43.920022,-97.978894
47628,-6.842613,6.984214,0.499042,0.127437,0.056612,-0.023398,0.014119,-0.029399,0.023332,-0.068435,0.069834,0.004985,1.000000,0.000071,-0.000147,0.000117,0.258365,0.618934,-0.291766,-0.681939,84.937376,43.898808,-98.004227
47629,-6.897426,6.789678,0.313361,0.322135,0.219862,-0.136929,0.031569,-0.073794,0.021205,-0.068983,0.067889,0.003119,1.000000,0.000158,-0.000369,0.000106,0.258266,0.618656,-0.292067,-0.682100,84.912403,43.876680,-98.064657
47630,-6.803185,6.670119,0.653192,-0.023796,0.265601,-0.266517,0.132777,-0.081732,0.006985,-0.068037,0.066694,0.006548,1.000000,0.000664,-0.000409,0.000035,0.257795,0.618501,-0.292680,-0.682156,84.940145,43.862139,-98.132543
47631,-6.796339,6.966158,0.686761,-0.066308,0.060943,-0.056607,0.195770,-0.069417,0.011801,-0.067970,0.069651,0.006912,0.999999,0.000979,-0.000347,0.000059,0.257163,0.618463,-0.293506,-0.682075,85.011234,43.845646,-98.190153
47632,-6.839185,7.026334,0.918518,-0.299882,0.072632,0.030700,0.157252,-0.071604,0.006119,-0.068397,0.070254,0.009216,1.000000,0.000786,-0.000358,0.000031,0.256627,0.618374,-0.294186,-0.682064,85.058533,43.832193,-98.250088
47633,-6.817408,7.024234,0.843223,-0.231770,0.055009,0.009288,0.136092,-0.076325,-0.006750,-0.068175,0.070239,0.008454,1.000000,0.000680,-0.000382,-0.000034,0.256106,0.618262,-0.294759,-0.682114,85.090764,43.826024,-98.314454
47634,-6.795683,7.067251,0.691864,-0.086324,-0.002486,0.015769,0.079713,-0.066101,-0.021839,-0.067951,0.070677,0.006924,1.000000,0.000399,-0.000331,-0.000109,0.255723,0.618132,-0.295081,-0.682236,85.095340,43.828845,-98.371941
47635,-6.692406,6.987231,0.752484,-0.156044,-0.016199,-0.109527,0.050613,-0.060935,-0.030603,-0.066916,0.069881,0.007522,1.000000,0.000253,-0.000305,-0.000153,0.255406,0.617998,-0.295269,-0.682395,85.085890,43.837060,-98.425764
47636,-6.592229,7.102163,0.777797,-0.192468,-0.166345,-0.094743,0.022291,-0.038868,-0.018850,-0.065917,0.071027,0.007773,1.000000,0.000111,-0.000194,-0.000094,0.255251,0.617884,-0.295369,-0.682513,85.072618,43.839504,-98.461506
47637,-6.746957,7.103959,0.530642,0.073356,-0.079292,-0.001593,-0.067201,-0.010254,-0.005317,-0.067468,0.071043,0.005279,1.000000,-0.000336,-0.000051,-0.000027,0.255460,0.617734,-0.295169,-0.682657,85.024625,43.835757,-98.473508
47638,-6.855664,6.881783,0.259254,0.363807,0.128612,-0.103034,-0.047909,-0.018673,-0.012132,-0.068553,0.068823,0.002570,1.000000,-0.000240,-0.000093,-0.000061,0.255574,0.617590,-0.295024,-0.682807,84.982521,43.835341,-98.492807
47639,-6.751230,6.711114,0.555639,0.062461,0.198146,-0.279392,0.055363,-0.027017,-0.018612,-0.067507,0.067116,0.005566,1.000000,0.000277,-0.000135,-0.000093,0.255334,0.617559,-0.295223,-0.682839,84.994939,43.838336,-98.518983
47640,-6.813304,7.057738,0.567949,0.048821,0.002663,0.013449,0.084976,-0.026521,-0.012089,-0.068130,0.070579,0.005700,1.000000,0.000425,-0.000133,-0.000060,0.255026,0.617557,-0.295542,-0.682818,85.024672,43.837505,-98.544490
47641,-6.851585,6.664641,0.446567,0.178196,0.293213,-0.250086,0.098071,-0.082375,-0.009028,-0.068515,0.066647,0.004470,1.000000,0.000490,-0.000412,-0.000045,0.254605,0.617378,-0.295986,-0.682945,85.031682,43.832297,-98.613807
47642,-6.721321,6.861544,0.724464,-0.120634,0.090429,-0.181537,0.238988,-0.087036,-0.003577,-0.067215,0.068608,0.007297,0.999999,0.001195,-0.000435,-0.000018,0.253762,0.617352,-0.296934,-0.682870,85.116905,43.823651,-98.686616
47643,-6.766992,7.087329,0.738154,-0.144572,-0.029315,0.013070,0.244981,-0.072315,-0.004108,-0.067671,0.070866,0.007444,0.999999,0.001225,-0.000362,-0.000021,0.252918,0.617385,-0.297882,-0.682741,85.213839,43.816247,-98.747647
47644,-6.839584,7.052920,0.963448,-0.369264,0.070226,0.051922,0.171844,-0.059463,-0.016142,-0.068393,0.070526,0.009675,1.000000,0.000859,-0.000297,-0.000081,0.252279,0.617385,-0.298526,-0.682696,85.275121,43.816241,-98.799485
47645,-6.882009,7.043540,0.665244,-0.073777,0.078260,0.056683,0.102826,-0.042801,-0.040757,-0.068807,0.070446,0.006674,1.000000,0.000514,-0.000214,-0.000204,0.251793,0.617392,-0.298838,-0.682732,85.305092,43.831248,-98.839583
47646,-6.750187,7.027502,0.550257,0.023937,-0.018476,-0.052940,0.031818,-0.020343,-0.050525,-0.067485,0.070291,0.005507,1.000000,0.000159,-0.000102,-0.000253,0.251527,0.617401,-0.298849,-0.682818,85.306018,43.852750,-98.862707
47647,-6.748066,7.251678,0.741542,-0.172853,-0.161185,0.117934,0.022389,-0.010346,-0.058686,-0.067460,0.072536,0.007420,1.000000,0.000112,-0.000052,-0.000293,0.251276,0.617444,-0.298789,-0.682897,85.306867,43.879525,-98.878290
47648,-6.819144,7.268461,0.545286,0.032854,-0.146376,0.167596,-0.095934,-0.004786,-0.054161,-0.068172,0.072706,0.005416,1.000000,-0.000480,-0.000024,-0.000271,0.251416,0.617350,-0.298333,-0.683130,85.242939,43.903829,-98.889360
47649,-6.781982,6.843906,0.513774,0.079056,0.114126,-0.164941,-0.120825,-0.018937,-0.050877,-0.067803,0.068459,0.005090,1.000000,-0.000604,-0.000095,-0.000254,0.251621,0.617173,-0.297819,-0.683439,85.157302,43.925707,-98.911314
47650,-6.809486,6.718329,0.494359,0.110801,0.214689,-0.237142,-0.016661,-0.027597,-0.048672,-0.068079,0.067200,0.004929,1.000000,-0.000083,-0.000138,-0.000243,0.251500,0.617092,-0.297679,-0.683617,85.126436,43.945752,-98.940184
47651,-6.838477,6.744801,0.588600,0.021595,0.222438,-0.192208,0.044698,-0.047585,-0.046956,-0.068370,0.067463,0.005885,1.000000,0.000223,-0.000238,-0.000235,0.251165,0.617019,-0.297779,-0.683763,85.120004,43.963980,-98.984650
47652,-6.757247,6.690463,0.639400,-0.038567,0.205492,-0.284424,0.139282,-0.069180,-0.033865,-0.067563,0.066912,0.006417,1.000000,0.000696,-0.000346,-0.000169,0.250552,0.616970,-0.298270,-0.683818,85.156257,43.973551,-99.045523
47653,-6.675711,7.004004,0.663555,-0.086646,-0.068393,-0.114785,0.197985,-0.056796,-0.022426,-0.066751,0.070041,0.006686,0.999999,0.000990,-0.000284,-0.000112,0.249814,0.617020,-0.298981,-0.683732,85.233710,43.977379,-99.095647
47654,-6.704324,7.245217,0.529800,0.034198,-0.228319,0.070051,0.154474,-0.041564,-0.012708,-0.067040,0.072452,0.005340,1.000000,0.000772,-0.000208,-0.000064,0.249267,0.617052,-0.299554,-0.683653,85.294857,43.976272,-99.133197
47655,-6.711928,7.069794,0.429042,0.133037,-0.110238,-0.056347,0.116705,-0.018864,-0.018728,-0.067113,0.070702,0.004325,1.000000,0.000584,-0.000094,-0.000094,0.248849,0.617124,-0.299950,-0.683566,85.346812,43.979835,-99.152967
47656,-6.702638,7.148933,0.572062,-0.019727,-0.156442,0.002351,0.122776,-0.000137,-0.011810,-0.067022,0.071490,0.005764,1.000000,0.000614,-0.000001,-0.000059,0.248464,0.617256,-0.300366,-0.683404,85.412662,43.980181,-99.157585
47657,-6.835450,7.223531,0.419797,0.137850,-0.128967,0.139367,0.062079,0.012276,-0.012142,-0.068350,0.072238,0.004225,1.000000,0.000310,0.000061,-0.000061,0.248284,0.617356,-0.300558,-0.683295,85.450781,43.981427,-99.152214
47658,-6.825166,6.981643,0.511603,0.050248,0.041785,-0.035996,0.003706,0.020800,-0.014224,-0.068246,0.069821,0.005124,1.000000,0.000019,0.000104,-0.000071,0.248290,0.617415,-0.300533,-0.683250,85.459845,43.984107,-99.140364
47659,-6.836801,6.900612,0.357729,0.204261,0.089940,-0.094743,0.037856,0.028686,-0.022619,-0.068360,0.069013,0.003600,1.000000,0.000189,0.000143,-0.000113,0.248174,0.617558,-0.300589,-0.683139,85.492681,43.992074,-99.122620
47660,-6.859654,6.825598,0.325763,0.236351,0.154179,-0.134354,0.058177,0.023877,-0.028286,-0.068586,0.068265,0.003286,1.000000,0.000291,0.000119,-0.000141,0.247968,0.617716,-0.300703,-0.683020,85.534050,44.002915,-99.109197
47661,-6.854847,6.822363,0.294712,0.259451,0.148902,-0.141548,0.123687,0.018772,-0.029607,-0.068538,0.068232,0.002996,1.000000,0.000618,0.000094,-0.000148,0.247548,0.617941,-0.301043,-0.682819,85.610325,44.014419,-99.099721
47662,-6.922659,7.197484,0.392083,0.146898,-0.054193,0.180119,0.173353,0.004836,-0.028584,-0.069216,0.071981,0.003985,1.000000,0.000867,0.000024,-0.000143,0.246957,0.618177,-0.301573,-0.682586,85.707194,44.024580,-99.101400
47663,-6.882554,6.986553,0.635372,-0.104027,0.090430,0.014121,0.200776,-0.017610,-0.026140,-0.068817,0.069868,0.006418,0.999999,0.001004,-0.000088,-0.000131,0.246254,0.618367,-0.302231,-0.682376,85.807733,44.032542,-99.120568
47664,-6.873729,7.112077,0.692632,-0.179420,0.004463,0.100804,0.255378,-0.060544,-0.019127,-0.068733,0.071118,0.006996,0.999999,0.001277,-0.000303,-0.000096,0.245343,0.618465,-0.303150,-0.682208,85.915888,44.034600,-99.173623
47665,-6.651789,7.343088,0.651314,-0.185529,-0.315461,0.109888,0.243645,-0.084917,-0.002577,-0.066520,0.073424,0.006574,0.999999,0.001218,-0.000425,-0.000013,0.244486,0.618441,-0.304109,-0.682111,86.004738,44.026426,-99.244954
47666,-6.484841,7.653256,0.640120,-0.217018,-0.646946,0.215752,0.190802,-0.074691,0.010232,-0.064855,0.076523,0.006450,0.999999,0.000954,-0.000373,0.000051,0.243852,0.618366,-0.304915,-0.682046,86.069229,44.011259,-99.307614
47667,-6.661083,7.709600,0.553038,-0.117469,-0.567353,0.374468,0.047385,-0.029093,0.014323,-0.066617,0.077090,0.005539,1.000000,0.000237,-0.000145,0.000072,0.243744,0.618265,-0.305188,-0.682053,86.077113,43.995701,-99.333637
47668,-6.817474,7.413533,0.355118,0.114436,-0.271685,0.260923,-0.114116,0.004090,0.005349,-0.068177,0.074136,0.003510,1.000000,-0.000571,0.000020,0.000027,0.244157,0.618094,-0.304843,-0.682216,86.010226,43.986445,-99.333948
47669,-6.830339,7.015954,0.262804,0.234014,0.002922,-0.020271,-0.153437,0.026987,-0.005411,-0.068301,0.070163,0.002583,1.000000,-0.000767,0.000135,-0.000027,0.244688,0.617970,-0.304302,-0.682380,85.933258,43.984372,-99.316493
47670,-6.895571,6.769347,0.194056,0.328778,0.211626,-0.155683,-0.144000,0.035890,-0.016349,-0.068950,0.067700,0.001904,1.000000,-0.000720,0.000179,-0.000082,0.245166,0.617902,-0.303748,-0.682515,85.865954,43.988819,-99.292750
47671,-6.907762,6.473892,0.192865,0.349616,0.423586,-0.359434,-0.101109,0.029770,-0.027455,-0.069068,0.064749,0.001906,1.000000,-0.000506,0.000149,-0.000137,0.245464,0.617885,-0.303314,-0.682617,85.819638,43.999492,-99.274337
47672,-6.847750,6.446104,0.240080,0.299038,0.403478,-0.418575,-0.002886,0.015253,-0.030351,-0.068468,0.064471,0.002405,1.000000,-0.000014,0.000076,-0.000152,0.245428,0.617941,-0.303224,-0.682619,85.821237,44.011101,-99.267803
