PacketCounter,Acc_X,Acc_Y,Acc_Z,FreeAcc_E,FreeAcc_N,FreeAcc_U,Gyr_X,Gyr_Y,Gyr_Z,VelInc_X,VelInc_Y,VelInc_Z,OriInc_q0,OriInc_q1,OriInc_q2,OriInc_q3,Quat_q0,Quat_q1,Quat_q2,Quat_q3,Roll,Pitch,Yaw
61458,-9.115300,1.372905,-2.743408,0.186437,0.034055,-0.196871,-0.025381,-0.018238,-0.001071,-0.091150,0.013726,-0.027444,1.000000,-0.000127,-0.000091,-0.000005,0.044123,0.793209,-0.063951,-0.603973,151.082242,72.271422,-30.543850
61459,-9.176031,1.432910,-2.744912,0.170763,-0.014994,-0.129820,-0.022655,-0.010713,0.005350,-0.091759,0.014324,-0.027456,1.000000,-0.000113,-0.000054,0.000027,0.044233,0.793172,-0.063902,-0.604019,151.050899,72.274891,-30.562167
61460,-9.241391,1.430329,-2.695591,0.107502,-0.001266,-0.081100,-0.012732,-0.012065,0.002568,-0.092412,0.014300,-0.026962,1.000000,-0.000064,-0.000060,0.000013,0.044293,0.793135,-0.063862,-0.604067,151.031154,72.280078,-30.573731
61461,-9.342595,1.449289,-2.681511,0.067290,-0.003753,0.014341,0.000590,-0.003214,0.003512,-0.093426,0.014491,-0.026817,1.000000,0.000003,-0.000016,0.000018,0.044307,0.793126,-0.063874,-0.604076,151.022512,72.280296,-30.582198
61462,-9.443429,1.447556,-2.680773,0.040969,0.013660,0.109936,0.006695,-0.014437,0.002826,-0.094433,0.014475,-0.026814,1.000000,0.000033,-0.000072,0.000014,0.044288,0.793086,-0.063898,-0.604127,151.011491,72.286576,-30.596671
61463,-9.454842,1.397689,-2.647681,0.010266,0.064801,0.104646,0.018535,-0.026939,0.002173,-0.094545,0.013978,-0.026488,1.000000,0.000093,-0.000135,0.000011,0.044220,0.793010,-0.063964,-0.604225,150.994588,72.299053,-30.624601
61464,-9.383687,1.353201,-2.575820,-0.035849,0.097430,0.011202,0.022464,-0.030029,-0.003775,-0.093833,0.013537,-0.025771,1.000000,0.000112,-0.000150,-0.000019,0.044108,0.792928,-0.064020,-0.604335,150.989318,72.314989,-30.643576
61465,-9.284246,1.374484,-2.560161,-0.023583,0.059956,-0.084548,0.012365,-0.025797,-0.010325,-0.092838,0.013751,-0.025613,1.000000,0.000062,-0.000129,-0.000052,0.044026,0.792858,-0.064018,-0.604433,150.989468,72.330365,-30.649894
61466,-9.267528,1.390073,-2.582880,0.004030,0.040700,-0.092143,0.006199,-0.022324,-0.003981,-0.092672,0.013903,-0.025839,1.000000,0.000031,-0.000112,-0.000020,0.043979,0.792796,-0.064024,-0.604518,150.981841,72.342515,-30.661963
61467,-9.282377,1.517340,-2.554350,-0.031859,-0.083169,-0.066837,0.000813,-0.013976,-0.007639,-0.092821,0.015177,-0.025550,1.000000,0.000004,-0.000070,-0.000038,0.043955,0.792758,-0.063995,-0.604572,150.981452,72.351222,-30.661900
61468,-9.288729,1.509088,-2.585887,-0.001112,-0.075045,-0.053640,-0.010307,-0.019499,-0.007866,-0.092884,0.015093,-0.025869,1.000000,-0.000052,-0.000097,-0.000039,0.043971,0.792703,-0.063924,-0.604651,150.973103,72.362984,-30.663049
61469,-9.252587,1.445953,-2.575757,0.003686,-0.018525,-0.100050,-0.014476,-0.021276,-0.005594,-0.092523,0.014460,-0.025768,1.000000,-0.000072,-0.000106,-0.000028,0.044012,0.792639,-0.063858,-0.604739,150.954336,72.374779,-30.673078
61470,-9.227471,1.353760,-2.521469,-0.036145,0.068870,-0.151908,-0.023121,-0.007153,-0.005993,-0.092273,0.013537,-0.025220,1.000000,-0.000116,-0.000036,-0.000030,0.044078,0.792617,-0.063766,-0.604773,150.946393,72.379855,-30.667996
61471,-9.346845,1.390404,-2.580271,-0.011729,0.050895,-0.017188,-0.021938,0.001573,-0.002426,-0.093468,0.013902,-0.025803,1.000000,-0.000110,0.000008,-0.000012,0.044165,0.792619,-0.063686,-0.604772,150.938354,72.379324,-30.662282
61472,-9.363945,1.353653,-2.568393,-0.025562,0.090046,-0.009436,-0.011409,-0.004840,-0.002256,-0.093639,0.013536,-0.025687,1.000000,-0.000057,-0.000024,-0.000011,0.044197,0.792605,-0.063644,-0.604792,150.933122,72.382234,-30.661511
61473,-9.363698,1.333081,-2.581297,-0.011679,0.110162,-0.009281,-0.001520,-0.002491,-0.003949,-0.093636,0.013332,-0.025814,1.000000,-0.000008,-0.000012,-0.000020,0.044197,0.792600,-0.063620,-0.604801,150.935622,72.384163,-30.657014
61474,-9.310442,1.327402,-2.570987,-0.007095,0.107259,-0.063598,-0.012945,-0.005480,-0.005655,-0.093103,0.013275,-0.025713,1.000000,-0.000065,-0.000027,-0.000028,0.044236,0.792586,-0.063545,-0.604824,150.934493,72.388293,-30.648732
61475,-9.262192,1.273287,-2.620648,0.056219,0.152814,-0.104405,-0.008535,0.001170,-0.004244,-0.092622,0.012734,-0.026206,1.000000,-0.000043,0.000006,-0.000021,0.044265,0.792591,-0.063498,-0.604821,150.936651,72.388471,-30.640377
61476,-9.244504,1.269247,-2.658521,0.097754,0.153611,-0.111841,0.002573,-0.006608,-0.000015,-0.092444,0.012693,-0.026588,1.000000,0.000013,-0.000033,-0.000000,0.044251,0.792574,-0.063501,-0.604843,150.934506,72.391614,-30.643930
61477,-9.245409,1.310405,-2.631230,0.069855,0.113575,-0.112154,0.005951,-0.007859,0.008264,-0.092454,0.013101,-0.026316,1.000000,0.000030,-0.000039,0.000041,0.044258,0.792551,-0.063550,-0.604868,150.917310,72.392831,-30.664589
61478,-9.287218,1.331615,-2.574328,0.003441,0.099899,-0.084235,0.025622,-0.005357,0.012182,-0.092872,0.013314,-0.025744,1.000000,0.000128,-0.000027,0.000061,0.044193,0.792540,-0.063667,-0.604875,150.910182,72.391961,-30.686584
61479,-9.376527,1.359315,-2.619138,0.021737,0.086437,0.016806,0.030700,0.003979,0.010897,-0.093767,0.013592,-0.026187,1.000000,0.000153,0.000020,0.000054,0.044113,0.792557,-0.063798,-0.604845,150.913403,72.386516,-30.700700
61480,-9.424209,1.393135,-2.583370,-0.027780,0.060912,0.057767,0.028446,0.006209,0.011843,-0.094244,0.013929,-0.025829,1.000000,0.000142,0.000031,0.000059,0.044045,0.792582,-0.063914,-0.604805,150.918672,72.379928,-30.710511
61481,-9.423771,1.373051,-2.596724,-0.013900,0.081031,0.057923,0.028204,-0.013804,0.011627,-0.094237,0.013729,-0.025972,1.000000,0.000141,-0.000069,0.000058,0.043971,0.792544,-0.064044,-0.604846,150.903722,72.383183,-30.742192
61482,-9.317943,1.402983,-2.549489,-0.032466,0.035206,-0.051026,0.041055,-0.016544,0.004647,-0.093178,0.014033,-0.025500,1.000000,0.000205,-0.000083,0.000023,0.043817,0.792504,-0.064185,-0.604894,150.907326,72.390063,-30.762795
61483,-9.272064,1.471080,-2.519100,-0.052704,-0.039549,-0.092771,0.045160,-0.007356,0.004571,-0.092720,0.014714,-0.025191,1.000000,0.000226,-0.000037,0.000023,0.043657,0.792492,-0.064337,-0.604906,150.918863,72.392055,-30.776878
61484,-9.243384,1.522878,-2.464527,-0.100664,-0.095279,-0.126925,0.025415,-0.000613,0.003398,-0.092434,0.015230,-0.024644,1.000000,0.000127,-0.000003,0.000017,0.043568,0.792498,-0.064417,-0.604896,150.929565,72.391276,-30.780009
61485,-9.225179,1.498545,-2.516159,-0.045163,-0.074277,-0.134203,-0.002646,0.000718,0.006220,-0.092252,0.014982,-0.025161,1.000000,-0.000013,0.000004,0.000031,0.043605,0.792499,-0.064430,-0.604890,150.918196,72.388767,-30.789386
61486,-9.283880,1.476785,-2.572590,-0.005170,-0.043268,-0.066527,-0.024334,0.007154,0.007470,-0.092840,0.014761,-0.025724,1.000000,-0.000122,0.000036,0.000037,0.043733,0.792517,-0.064369,-0.604864,150.900906,72.382925,-30.791256
61487,-9.318547,1.438708,-2.647302,0.059573,0.000613,-0.019329,-0.029751,0.004055,0.008377,-0.093187,0.014379,-0.026473,1.000000,-0.000149,0.000020,0.000042,0.043885,0.792522,-0.064307,-0.604854,150.873548,72.378142,-30.801117
61488,-9.395394,1.441886,-2.652014,0.044027,0.010687,0.055625,-0.027790,0.002511,0.005403,-0.093955,0.014413,-0.026521,1.000000,-0.000139,0.000013,0.000027,0.044008,0.792524,-0.064242,-0.604849,150.853361,72.375226,-30.805792
61489,-9.352362,1.367358,-2.623858,0.031908,0.079048,-0.003829,-0.023304,-0.000089,0.004065,-0.093524,0.013669,-0.026240,1.000000,-0.000117,-0.000000,0.000020,0.044120,0.792519,-0.064184,-0.604853,150.832861,72.373718,-30.812333
61490,-9.351710,1.327279,-2.649814,0.059678,0.119083,-0.003512,-0.021010,-0.007866,0.001474,-0.093516,0.013269,-0.026503,1.000000,-0.000105,-0.000039,0.000007,0.044208,0.792493,-0.064118,-0.604888,150.813540,72.377101,-30.819007
61491,-9.291535,1.268960,-2.645782,0.075252,0.168277,-0.070559,-0.003943,-0.010198,0.009964,-0.092915,0.012684,-0.026463,1.000000,-0.000020,-0.000051,0.000050,0.044258,0.792460,-0.064143,-0.604925,150.785951,72.378998,-30.844624
61492,-9.262809,1.294965,-2.727466,0.161388,0.138083,-0.072538,0.019010,-0.017172,0.009525,-0.092626,0.012948,-0.027281,1.000000,0.000095,-0.000086,0.000048,0.044207,0.792412,-0.064234,-0.604981,150.768837,72.384752,-30.873349
61493,-9.301306,1.439762,-2.680919,0.100831,0.001475,-0.026761,0.041931,-0.020441,0.010185,-0.093011,0.014399,-0.026816,1.000000,0.000210,-0.000102,0.000051,0.044072,0.792358,-0.064402,-0.605044,150.758136,72.391705,-30.908823
61494,-9.345545,1.582873,-2.543239,-0.049100,-0.132548,0.000201,0.039826,-0.021570,0.002177,-0.093453,0.015833,-0.025439,1.000000,0.000199,-0.000108,0.000011,0.043913,0.792303,-0.064531,-0.605114,150.760443,72.401749,-30.930115
61495,-9.353611,1.676822,-2.508571,-0.087921,-0.224541,0.012614,0.011566,-0.015510,-0.003783,-0.093534,0.016771,-0.025092,1.000000,0.000058,-0.000078,-0.000019,0.043858,0.792262,-0.064550,-0.605170,150.758680,72.410145,-30.937957
61496,-9.346438,1.581926,-2.540546,-0.049224,-0.132561,0.000200,-0.038048,-0.009242,-0.008095,-0.093463,0.015818,-0.025413,1.000000,-0.000190,-0.000046,-0.000040,0.043987,0.792232,-0.064391,-0.605217,150.743614,72.416835,-30.929447
61497,-9.337907,1.405966,-2.625291,0.045191,0.039790,-0.011576,-0.060338,-0.014719,-0.006874,-0.093377,0.014055,-0.026264,1.000000,-0.000302,-0.000074,-0.000034,0.044208,0.792178,-0.064181,-0.605294,150.706207,72.425701,-30.931463
61498,-9.378960,1.366116,-2.606858,0.020539,0.086264,0.016810,-0.051746,-0.008134,-0.008292,-0.093788,0.013658,-0.026076,1.000000,-0.000259,-0.000041,-0.000041,0.044381,0.792147,-0.063992,-0.605341,150.684483,72.431914,-30.923451
61499,-9.349145,1.337292,-2.603718,0.028302,0.110894,-0.016713,-0.043868,-0.013824,-0.001904,-0.093490,0.013368,-0.026047,1.000000,-0.000219,-0.000069,-0.000010,0.044552,0.792098,-0.063850,-0.605408,150.649433,72.438936,-30.932892
61500,-9.290953,1.354101,-2.669719,0.108335,0.085222,-0.052370,-0.037701,-0.019134,-0.008803,-0.092906,0.013540,-0.026709,1.000000,-0.000189,-0.000096,-0.000044,0.044668,0.792037,-0.063700,-0.605495,150.626754,72.450796,-30.933719
61501,-9.232255,1.356306,-2.624587,0.082149,0.074248,-0.119892,-0.026246,-0.019845,-0.008208,-0.092319,0.013563,-0.026257,1.000000,-0.000131,-0.000099,-0.000041,0.044748,0.791976,-0.063588,-0.605581,150.606371,72.462594,-30.938367
61502,-9.328207,1.376227,-2.700124,0.131230,0.068873,-0.005642,-0.019014,-0.014940,-0.003137,-0.093280,0.013761,-0.027010,1.000000,-0.000095,-0.000075,-0.000016,0.044807,0.791930,-0.063518,-0.605644,150.589105,72.470776,-30.944942
61503,-9.490784,1.494787,-2.660525,0.047539,-0.022884,0.156514,-0.007501,-0.023051,-0.004747,-0.094904,0.014949,-0.026617,1.000000,-0.000038,-0.000115,-0.000024,0.044822,0.791862,-0.063477,-0.605737,150.571106,72.483200,-30.958352
61504,-9.599622,1.566312,-2.636870,-0.003666,-0.077491,0.264671,-0.000975,-0.038284,-0.012374,-0.095990,0.015669,-0.026387,1.000000,-0.000005,-0.000191,-0.000062,0.044782,0.791753,-0.063421,-0.605888,150.557961,72.505608,-30.970120
61505,-9.553538,1.598969,-2.505718,-0.116209,-0.117643,0.191215,-0.018365,-0.033400,-0.022315,-0.095529,0.015998,-0.025075,1.000000,-0.000092,-0.000167,-0.000112,0.044784,0.791656,-0.063280,-0.606028,150.552264,72.528142,-30.964102
61506,-9.512109,1.542134,-2.460797,-0.142298,-0.069488,0.131599,-0.050747,-0.038321,-0.028699,-0.095114,0.015429,-0.024630,1.000000,-0.000254,-0.000192,-0.000143,0.044888,0.791541,-0.063011,-0.606199,150.536495,72.555138,-30.949161
61507,-9.411265,1.440734,-2.523348,-0.046478,0.013394,0.036808,-0.066341,-0.044897,-0.028649,-0.094105,0.014412,-0.025259,1.000000,-0.000332,-0.000224,-0.000143,0.045057,0.791401,-0.062702,-0.606401,150.503021,72.585193,-30.943447
61508,-9.268668,1.345938,-2.504635,-0.018452,0.084199,-0.118074,-0.072476,-0.045104,-0.023380,-0.092679,0.013461,-0.025072,1.000000,-0.000362,-0.000226,-0.000117,0.045262,0.791258,-0.062390,-0.606604,150.460079,72.614094,-30.943970
61509,-9.162408,1.294267,-2.507333,0.018710,0.118742,-0.226390,-0.072913,-0.041057,-0.016442,-0.091618,0.012941,-0.025097,1.000000,-0.000365,-0.000205,-0.000082,0.045495,0.791124,-0.062109,-0.606791,150.406741,72.638786,-30.955127
61510,-9.157574,1.255807,-2.620899,0.135815,0.156082,-0.207245,-0.072095,-0.035702,-0.008137,-0.091571,0.012552,-0.026230,1.000000,-0.000360,-0.000179,-0.000041,0.045744,0.791005,-0.061861,-0.606953,150.348015,72.658706,-30.973082
61511,-9.194862,1.279129,-2.650942,0.158785,0.139808,-0.160517,-0.069266,-0.039270,-0.005028,-0.091943,0.012784,-0.026532,1.000000,-0.000346,-0.000196,-0.000025,0.045998,0.790873,-0.061636,-0.607129,150.279994,72.679264,-31.001807
61512,-9.213498,1.283701,-2.608531,0.117075,0.138835,-0.153086,-0.049783,-0.033899,-0.010495,-0.092130,0.012835,-0.026104,1.000000,-0.000249,-0.000169,-0.000052,0.046155,0.790765,-0.061441,-0.607277,150.239513,72.698896,-31.013370
61513,-9.231106,1.226403,-2.606979,0.117157,0.198177,-0.145178,-0.035125,-0.032997,-0.010995,-0.092306,0.012265,-0.026087,1.000000,-0.000176,-0.000165,-0.000055,0.046257,0.790662,-0.061294,-0.607418,150.206148,72.718019,-31.026280
61514,-9.215239,1.263614,-2.614584,0.130860,0.158888,-0.152924,-0.031683,-0.039801,-0.004393,-0.092147,0.012634,-0.026166,1.000000,-0.000158,-0.000199,-0.000022,0.046360,0.790539,-0.061180,-0.607583,150.160659,72.738870,-31.053922
61515,-9.157496,1.306704,-2.540709,0.076853,0.107787,-0.220769,-0.007821,-0.048851,0.001144,-0.091569,0.013066,-0.025430,1.000000,-0.000039,-0.000244,0.000006,0.046387,0.790390,-0.061168,-0.607775,150.108819,72.762400,-31.102555
61516,-9.153313,1.376184,-2.463136,0.004212,0.039306,-0.234457,-0.001684,-0.037133,0.017492,-0.091530,0.013754,-0.024648,1.000000,-0.000008,-0.000186,0.000087,0.046433,0.790274,-0.061237,-0.607916,150.047671,72.775682,-31.165639
61517,-9.289289,1.296648,-2.560705,0.070469,0.140801,-0.091340,-0.028864,-0.026372,0.022001,-0.092891,0.012953,-0.025621,1.000000,-0.000144,-0.000132,0.000110,0.046613,0.790182,-0.061239,-0.608021,149.970904,72.782053,-31.227738
61518,-9.312837,1.275209,-2.566702,0.073500,0.168111,-0.070543,-0.028551,-0.015624,0.019503,-0.093128,0.012739,-0.025676,1.000000,-0.000143,-0.000078,0.000098,0.046783,0.790125,-0.061222,-0.608084,149.911004,72.784022,-31.272295
61519,-9.319354,1.290617,-2.584631,0.090360,0.156346,-0.057496,-0.020586,-0.015446,0.019650,-0.093193,0.012894,-0.025855,1.000000,-0.000103,-0.000077,0.000098,0.046927,0.790069,-0.061236,-0.608144,149.852812,72.785613,-31.319911
61520,-9.335940,1.215255,-2.598284,0.104308,0.235607,-0.049424,-0.002463,-0.023222,0.025168,-0.093358,0.012140,-0.025994,1.000000,-0.000012,-0.000116,0.000126,0.047008,0.789993,-0.061325,-0.608227,149.791747,72.789688,-31.381601
61521,-9.319274,1.254698,-2.607575,0.118054,0.196457,-0.057173,0.017555,-0.023321,0.030470,-0.093192,0.012535,-0.026086,1.000000,0.000088,-0.000117,0.000152,0.047031,0.789919,-0.061500,-0.608304,149.730753,72.792025,-31.455027
61522,-9.337763,1.321223,-2.526986,0.034611,0.135286,-0.050228,0.058374,-0.025993,0.028859,-0.093376,0.013206,-0.025278,1.000000,0.000292,-0.000130,0.000144,0.046879,0.789848,-0.061792,-0.608379,149.696068,72.796373,-31.526126
61523,-9.352331,1.470410,-2.483742,-0.015095,-0.008678,-0.025099,0.091454,-0.035395,0.035332,-0.093522,0.014699,-0.024847,1.000000,0.000457,-0.000177,0.000177,0.046622,0.789752,-0.062214,-0.608480,149.658316,72.803243,-31.619542
61524,-9.350149,1.677130,-2.438312,-0.064950,-0.212063,-0.007881,0.076787,-0.038075,0.035317,-0.093500,0.016764,-0.024394,1.000000,0.000384,-0.000190,0.000177,0.046415,0.789646,-0.062589,-0.608595,149.612392,72.811682,-31.713078
61525,-9.367961,1.682067,-2.397615,-0.106610,-0.212909,-0.000455,0.055870,-0.035909,0.023944,-0.093677,0.016816,-0.023988,1.000000,0.000279,-0.000180,0.000120,0.046263,0.789544,-0.062857,-0.608711,149.571840,72.822067,-31.788076
61526,-9.285078,1.688690,-2.358303,-0.122015,-0.231360,-0.088617,0.029772,-0.024626,0.019392,-0.092850,0.016881,-0.023592,1.000000,0.000149,-0.000123,0.000097,0.046197,0.789473,-0.063024,-0.608791,149.536915,72.828431,-31.842025
61527,-9.248507,1.626929,-2.349404,-0.117246,-0.174839,-0.135024,-0.018875,-0.010366,0.008477,-0.092485,0.016263,-0.023500,1.000000,-0.000094,-0.000052,0.000042,0.046301,0.789436,-0.062998,-0.608834,149.502181,72.830671,-31.866105
61528,-9.224007,1.529859,-2.420558,-0.036969,-0.081923,-0.154852,-0.029678,-0.006950,0.005242,-0.092240,0.015293,-0.024211,1.000000,-0.000148,-0.000035,0.000026,0.046433,0.789409,-0.062923,-0.608866,149.472349,72.832398,-31.878959
61529,-9.193647,1.481074,-2.432171,-0.015296,-0.037230,-0.188211,-0.010947,-0.002823,0.010824,-0.091937,0.014804,-0.024324,1.000000,-0.000055,-0.000014,0.000054,0.046515,0.789397,-0.062929,-0.608876,149.445509,72.830225,-31.899532
61530,-9.250861,1.384157,-2.417101,-0.039860,0.068513,-0.151920,-0.011550,0.000385,0.007318,-0.092509,0.013837,-0.024172,1.000000,-0.000058,0.000002,0.000037,0.046583,0.789396,-0.062917,-0.608873,149.429578,72.827735,-31.908946
61531,-9.304321,1.390297,-2.426233,-0.044599,0.071393,-0.097605,0.018094,-0.004080,0.006620,-0.093043,0.013902,-0.024263,1.000000,0.000090,-0.000020,0.000033,0.046538,0.789387,-0.062995,-0.608879,149.424910,72.827404,-31.923727
61532,-9.387723,1.405054,-2.450225,-0.043265,0.069633,-0.009606,0.040701,0.000650,0.007327,-0.093878,0.014052,-0.024499,1.000000,0.000204,0.000003,0.000037,0.046399,0.789399,-0.063142,-0.608859,149.439138,72.824788,-31.932952
61533,-9.424321,1.467527,-2.458343,-0.048115,0.013237,0.036801,0.044863,0.002421,0.005036,-0.094244,0.014678,-0.024579,1.000000,0.000224,0.000012,0.000025,0.046245,0.789417,-0.063294,-0.608832,149.458465,72.821712,-31.938671
61534,-9.447950,1.483683,-2.440558,-0.072907,0.000423,0.057272,0.034365,0.003316,0.003278,-0.094480,0.014839,-0.024401,1.000000,0.000172,0.000017,0.000016,0.046122,0.789437,-0.063402,-0.608804,149.478088,72.818947,-31.938003
61535,-9.411370,1.440545,-2.420332,-0.082056,0.036882,0.010702,0.029621,-0.000768,0.000412,-0.094114,0.014409,-0.024202,1.000000,0.000148,-0.000004,0.000002,0.046014,0.789443,-0.063490,-0.608795,149.493060,72.818792,-31.939141
61536,-9.370798,1.480328,-2.437697,-0.057525,-0.009723,-0.017679,0.032510,0.003373,-0.002141,-0.093708,0.014808,-0.024373,1.000000,0.000163,0.000017,-0.000011,0.045879,0.789464,-0.063575,-0.608769,149.520214,72.817601,-31.930044
61537,-9.364464,1.487039,-2.405664,-0.088385,-0.017897,-0.030891,0.023249,0.011101,-0.000889,-0.093646,0.014874,-0.024050,1.000000,0.000116,0.000056,-0.000004,0.045795,0.789505,-0.063636,-0.608716,149.544760,72.811963,-31.917338
61538,-9.316708,1.452919,-2.444137,-0.039038,0.007518,-0.071833,0.014029,0.009613,-0.002390,-0.093168,0.014532,-0.024436,1.000000,0.000070,0.000048,-0.000012,0.045736,0.789541,-0.063660,-0.608671,149.567596,72.807748,-31.901350
61539,-9.272829,1.315360,-2.458043,-0.009463,0.136061,-0.130802,0.014334,0.007092,-0.000910,-0.092729,0.013156,-0.024576,1.000000,0.000072,0.000035,-0.000005,0.045686,0.789568,-0.063695,-0.608636,149.583288,72.804094,-31.892565
61540,-9.237769,1.307397,-2.535844,0.073702,0.137828,-0.145643,0.018394,0.012198,0.005755,-0.092380,0.013074,-0.025352,1.000000,0.000092,0.000061,0.000029,0.045635,0.789610,-0.063764,-0.608578,149.598006,72.796244,-31.887676
61541,-9.261169,1.324087,-2.518637,0.048946,0.125148,-0.125173,0.033354,0.010563,0.006708,-0.092613,0.013242,-0.025179,1.000000,0.000167,0.000053,0.000034,0.045535,0.789650,-0.063885,-0.608522,149.615676,72.788665,-31.888228
61542,-9.238433,1.450136,-2.445145,-0.023768,-0.002631,-0.146783,0.034609,0.011883,0.008071,-0.092386,0.014502,-0.024443,1.000000,0.000173,0.000059,0.000040,0.045428,0.789694,-0.064012,-0.608459,149.635668,72.780305,-31.887382
61543,-9.291214,1.435364,-2.469728,-0.014603,0.020313,-0.092304,0.008828,0.022453,0.005517,-0.092915,0.014352,-0.024686,1.000000,0.000044,0.000112,0.000028,0.045424,0.789764,-0.064051,-0.608364,149.652273,72.767192,-31.874338
61544,-9.379938,1.422727,-2.542189,0.031455,0.046862,0.009071,-0.002039,0.021826,0.009029,-0.093803,0.014223,-0.025412,1.000000,-0.000010,0.000109,0.000045,0.045466,0.789830,-0.064071,-0.608273,149.658946,72.753650,-31.865895
61545,-9.439343,1.462645,-2.559730,0.029713,0.017853,0.076273,-0.004931,0.017691,0.011585,-0.094397,0.014620,-0.025589,1.000000,-0.000025,0.000088,0.000058,0.045533,0.789881,-0.064094,-0.608200,149.653540,72.741135,-31.867642
61546,-9.450329,1.495555,-2.476230,-0.056701,-0.011443,0.070317,-0.007723,0.012052,0.005732,-0.094505,0.014952,-0.024757,1.000000,-0.000039,0.000060,0.000029,0.045586,0.789916,-0.064084,-0.608151,149.653098,72.733372,-31.862963
61547,-9.385794,1.540547,-2.499138,-0.021326,-0.065230,0.021305,-0.021704,0.011998,0.003005,-0.093860,0.015401,-0.024987,1.000000,-0.000109,0.000060,0.000015,0.045692,0.789949,-0.064023,-0.608107,149.646432,72.726156,-31.855966
61548,-9.354600,1.429781,-2.551978,0.042020,0.039536,-0.011561,-0.029261,0.007799,-0.004069,-0.093547,0.014296,-0.025518,1.000000,-0.000146,0.000039,-0.000020,0.045799,0.789970,-0.063908,-0.608083,149.645369,72.723304,-31.838804
61549,-9.264261,1.361615,-2.535477,0.051475,0.093246,-0.112284,-0.017516,0.008233,-0.000934,-0.092644,0.013614,-0.025352,1.000000,-0.000088,0.000041,-0.000005,0.045875,0.789993,-0.063845,-0.608054,149.643858,72.719090,-31.828921
61550,-9.246199,1.317179,-2.601113,0.120837,0.134236,-0.119374,-0.007025,0.007351,0.000837,-0.092463,0.013170,-0.026008,1.000000,-0.000035,0.000037,0.000004,0.045905,0.790016,-0.063823,-0.608025,149.647182,72.715074,-31.821350
61551,-9.252588,1.350483,-2.608055,0.123797,0.102411,-0.106487,0.017169,0.003510,0.002206,-0.092526,0.013506,-0.026078,1.000000,0.000086,0.000018,0.000011,0.045853,0.790032,-0.063879,-0.608003,149.656155,72.712286,-31.821300
61552,-9.253338,1.431942,-2.555000,0.068101,0.022075,-0.107141,0.032726,-0.001332,0.006679,-0.092534,0.014321,-0.025548,1.000000,0.000164,-0.000007,0.000033,0.045740,0.790035,-0.064004,-0.607993,149.665017,72.710848,-31.831929
61553,-9.283708,1.502403,-2.530109,0.032447,-0.042565,-0.073949,0.036485,0.004463,0.011318,-0.092838,0.015023,-0.025296,1.000000,0.000182,0.000022,0.000057,0.045639,0.790055,-0.064154,-0.607959,149.671465,72.704953,-31.846114
61554,-9.366725,1.517473,-2.555311,0.033766,-0.044323,0.014050,0.029459,0.011818,0.012152,-0.093670,0.015173,-0.025545,1.000000,0.000147,0.000059,0.000061,0.045564,0.790097,-0.064281,-0.607897,149.682032,72.695404,-31.852079
61555,-9.473779,1.570022,-2.548294,-0.003492,-0.078762,0.122353,0.020874,-0.000252,0.011957,-0.094739,0.015697,-0.025481,1.000000,0.000104,-0.000001,0.000060,0.045525,0.790099,-0.064388,-0.607886,149.674153,72.691656,-31.871903
61556,-9.514184,1.509444,-2.544641,-0.014278,-0.012232,0.150895,0.005378,-0.008326,0.003636,-0.095141,0.015093,-0.025450,1.000000,0.000027,-0.000042,0.000018,0.045511,0.790076,-0.064417,-0.607914,149.665526,72.694573,-31.884095
61557,-9.454746,1.511714,-2.501302,-0.040431,-0.023227,0.083364,-0.020353,-0.006975,-0.001683,-0.094546,0.015115,-0.025018,1.000000,-0.000102,-0.000035,-0.000008,0.045591,0.790053,-0.064346,-0.607946,149.649432,72.698096,-31.887783
61558,-9.370759,1.415500,-2.529752,0.013707,0.058665,-0.003978,-0.036863,-0.005971,-0.006039,-0.093706,0.014153,-0.025303,1.000000,-0.000184,-0.000030,-0.000030,0.045715,0.790031,-0.064207,-0.607979,149.634271,72.702614,-31.881354
61559,-9.293105,1.332226,-2.577998,0.084788,0.128868,-0.078268,-0.030845,-0.006088,-0.003455,-0.092930,0.013320,-0.025785,1.000000,-0.000154,-0.000030,-0.000017,0.045832,0.790008,-0.064097,-0.608012,149.615795,72.706211,-31.881240
61560,-9.299852,1.366236,-2.583263,0.087718,0.096913,-0.065380,-0.021697,-0.010469,0.004265,-0.092997,0.013658,-0.025839,1.000000,-0.000108,-0.000052,0.000021,0.045928,0.789973,-0.064044,-0.608056,149.588741,72.709972,-31.896139
61561,-9.400854,1.386045,-2.567715,0.047449,0.094362,0.030035,-0.006165,-0.009780,0.010386,-0.094008,0.013855,-0.025682,1.000000,-0.000031,-0.000049,0.000052,0.045988,0.789940,-0.064065,-0.608092,149.558985,72.711377,-31.922649
61562,-9.491234,1.455599,-2.583192,0.037864,0.040646,0.130757,0.005630,-0.020414,0.010219,-0.094910,0.014552,-0.025841,1.000000,0.000028,-0.000102,0.000051,0.045994,0.789879,-0.064116,-0.608165,149.528952,72.718288,-31.956399
61563,-9.468473,1.500937,-2.559561,0.020824,-0.006743,0.109795,0.010704,-0.026217,0.012369,-0.094682,0.015005,-0.025607,1.000000,0.000054,-0.000131,0.000062,0.045988,0.789800,-0.064200,-0.608260,149.490328,72.727224,-32.002317
61564,-9.429039,1.603625,-2.533389,0.003670,-0.113541,0.080924,-0.005476,-0.035101,0.007303,-0.094287,0.016032,-0.025351,1.000000,-0.000027,-0.000176,0.000037,0.046020,0.789692,-0.064214,-0.608395,149.444573,72.742255,-32.046577
61565,-9.436238,1.617749,-2.549202,0.020538,-0.125297,0.093977,-0.045266,-0.039646,0.005493,-0.094358,0.016169,-0.025514,1.000000,-0.000226,-0.000198,0.000027,0.046210,0.789561,-0.064103,-0.608563,149.372063,72.759795,-32.094390
61566,-9.430178,1.525205,-2.578122,0.059155,-0.033263,0.081585,-0.081869,-0.042556,0.002622,-0.094296,0.015240,-0.025808,1.000000,-0.000409,-0.000213,0.000013,0.046529,0.789415,-0.063867,-0.608753,149.282770,72.779812,-32.138184
61567,-9.401033,1.477695,-2.584835,0.080813,0.011444,0.048231,-0.107024,-0.046176,0.000307,-0.094004,0.014763,-0.025878,1.000000,-0.000535,-0.000231,0.000002,0.046945,0.789251,-0.063549,-0.608967,149.176651,72.802042,-32.184129
61568,-9.252039,1.352170,-2.559891,0.105835,0.114176,-0.119526,-0.119362,-0.054380,-0.009611,-0.092513,0.013511,-0.025632,1.000000,-0.000597,-0.000272,-0.000048,0.047369,0.789063,-0.063156,-0.609219,149.073672,72.831432,-32.220052
61569,-9.145772,1.261574,-2.589218,0.170810,0.188891,-0.227495,-0.101923,-0.046005,-0.003728,-0.091452,0.012604,-0.025920,1.000000,-0.000510,-0.000230,-0.000019,0.047752,0.788901,-0.062838,-0.609431,148.976660,72.854719,-32.259511
61570,-9.153004,1.236124,-2.630738,0.215438,0.217152,-0.214109,-0.071433,-0.041475,0.004959,-0.091525,0.012350,-0.026331,1.000000,-0.000357,-0.000207,0.000025,0.048039,0.788759,-0.062640,-0.609612,148.890010,72.873409,-32.306409
61571,-9.386344,1.406954,-2.530110,0.057634,0.087047,0.009406,-0.032580,-0.038983,0.007375,-0.093859,0.014062,-0.025322,1.000000,-0.000163,-0.000195,0.000037,0.048185,0.788632,-0.062575,-0.609772,148.821493,72.889928,-32.357615
61572,-9.524768,1.490502,-2.517476,0.012536,0.027897,0.151225,-0.024059,-0.053424,0.015539,-0.095242,0.014895,-0.025202,1.000000,-0.000120,-0.000267,0.000078,0.048312,0.788462,-0.062568,-0.609983,148.733308,72.911303,-32.434796
61573,-9.712299,1.582380,-2.604046,0.052106,-0.030942,0.366215,-0.042900,-0.056004,0.018405,-0.097117,0.015809,-0.026071,1.000000,-0.000214,-0.000280,0.000092,0.048527,0.788276,-0.062519,-0.610211,148.624517,72.932823,-32.521939
61574,-9.773599,1.604378,-2.625743,0.064220,-0.040015,0.433584,-0.076692,-0.067916,0.017044,-0.097728,0.016025,-0.026297,1.000000,-0.000383,-0.000340,0.000085,0.048862,0.788048,-0.062361,-0.610494,148.489236,72.960726,-32.616778
61575,-9.833273,1.652056,-2.508676,-0.057675,-0.074648,0.468708,-0.118002,-0.059302,0.000143,-0.098325,0.016506,-0.025126,1.000000,-0.000590,-0.000297,0.000001,0.049316,0.787840,-0.062012,-0.610762,148.362710,72.989220,-32.677442
61576,-9.813195,1.613092,-2.657086,0.100991,-0.036265,0.480488,-0.160046,-0.064695,-0.009511,-0.098123,0.016114,-0.026616,1.000000,-0.000800,-0.000323,-0.000048,0.049902,0.787609,-0.061490,-0.611065,148.224546,73.023386,-32.724791
61577,-9.808056,1.481625,-2.710252,0.167420,0.096050,0.468431,-0.175684,-0.059654,-0.013853,-0.098071,0.014799,-0.027145,1.000000,-0.000878,-0.000298,-0.000069,0.050540,0.787389,-0.060909,-0.611355,148.086284,73.056198,-32.763151
61578,-9.796969,1.357034,-2.729432,0.202986,0.219981,0.443157,-0.154352,-0.091471,-0.017309,-0.097956,0.013558,-0.027350,1.000000,-0.000772,-0.000457,-0.000087,0.051073,0.787079,-0.060379,-0.611762,147.936301,73.105674,-32.826065
61579,-9.707295,1.233643,-2.618845,0.133971,0.328281,0.310853,-0.044109,-0.125025,-0.003740,-0.097056,0.012332,-0.026252,1.000000,-0.000221,-0.000625,-0.000019,0.051204,0.786688,-0.060257,-0.612266,147.790740,73.167062,-32.950806
61580,-9.597386,1.391029,-2.446659,0.001323,0.153751,0.187676,0.058558,-0.132971,0.003805,-0.095958,0.013916,-0.024526,1.000000,0.000293,-0.000665,0.000019,0.050949,0.786298,-0.060476,-0.612766,147.685614,73.230113,-33.094716
61581,-9.627133,1.726114,-2.322190,-0.125619,-0.174471,0.237561,0.089414,-0.132895,0.013278,-0.096257,0.017265,-0.023278,1.000000,0.000447,-0.000664,0.000066,0.050605,0.785911,-0.060832,-0.613256,147.579393,73.289944,-33.258184
61582,-9.750336,2.007186,-2.203419,-0.268060,-0.433430,0.370297,0.054536,-0.134178,0.024493,-0.097491,0.020066,-0.022094,1.000000,0.000273,-0.000671,0.000122,0.050429,0.785509,-0.061118,-0.613756,147.435546,73.347023,-33.439760
61583,-9.977475,2.043118,-2.152936,-0.359386,-0.431320,0.581747,-0.022398,-0.135376,0.027885,-0.099763,0.020415,-0.021599,1.000000,-0.000112,-0.000677,0.000139,0.050569,0.785081,-0.061188,-0.614285,147.236913,73.403289,-33.632715
61584,-10.133866,2.049298,-2.358859,-0.181033,-0.408106,0.782582,-0.107635,-0.148792,0.025335,-0.101324,0.020467,-0.023675,1.000000,-0.000538,-0.000744,0.000127,0.051028,0.784593,-0.060984,-0.614892,146.980627,73.466786,-33.834611
61585,-10.197457,2.073307,-2.368046,-0.168876,-0.417045,0.849953,-0.139942,-0.168584,0.016940,-0.101956,0.020708,-0.023781,0.999999,-0.000700,-0.000843,0.000085,0.051584,0.784035,-0.060659,-0.615589,146.694049,73.541928,-34.048918
61586,-10.140993,2.059500,-2.319013,-0.181150,-0.408104,0.782580,-0.181227,-0.184895,0.010872,-0.101390,0.020568,-0.023303,0.999999,-0.000906,-0.000924,0.000054,0.052274,0.783418,-0.060185,-0.616362,146.376116,73.626680,-34.271537
61587,-10.055039,2.096015,-2.428600,-0.031678,-0.451719,0.731983,-0.222244,-0.198121,0.008007,-0.100527,0.020929,-0.024409,0.999999,-0.001111,-0.000991,0.000040,0.053116,0.782747,-0.059579,-0.617200,146.019676,73.718048,-34.509320
61588,-9.892153,2.151943,-2.521852,0.119400,-0.525646,0.606270,-0.167458,-0.196595,0.033763,-0.098900,0.021482,-0.025334,0.999999,-0.000837,-0.000983,0.000169,0.053819,0.782088,-0.059240,-0.618006,145.653357,73.800195,-34.790324
61589,-9.914375,2.382102,-2.433902,0.045063,-0.741695,0.643935,-0.099796,-0.186462,0.079705,-0.099130,0.023769,-0.024443,0.999999,-0.000499,-0.000932,0.000399,0.054408,0.781463,-0.059289,-0.618741,145.257005,73.861893,-35.142517
61590,-10.024468,2.706224,-2.346025,-0.052690,-1.031579,0.782143,-0.133015,-0.174394,0.138418,-0.100243,0.026977,-0.023566,0.999999,-0.000665,-0.000872,0.000692,0.055306,0.780848,-0.059460,-0.619420,144.759328,73.898052,-35.580612
61591,-10.096926,2.852864,-2.335114,-0.062268,-1.144445,0.874960,-0.177731,-0.160961,0.188986,-0.100977,0.028412,-0.023458,0.999999,-0.000889,-0.000805,0.000945,0.056544,0.780245,-0.059688,-0.620046,144.165917,73.909759,-36.091300
61592,-10.010970,2.842362,-2.306627,-0.049821,-1.122710,0.787124,-0.248351,-0.141183,0.220214,-0.100125,0.028285,-0.023172,0.999998,-0.001242,-0.000706,0.001101,0.058157,0.779673,-0.059811,-0.620605,143.506509,73.900355,-36.628845
61593,-9.836231,2.645547,-2.350982,0.055508,-0.926781,0.599583,-0.350175,-0.091999,0.233276,-0.098382,0.026299,-0.023601,0.999998,-0.001751,-0.000460,0.001166,0.060225,0.779216,-0.059656,-0.620996,142.825918,73.862017,-37.127492
61594,-9.527752,2.248167,-2.498150,0.289166,-0.551366,0.271227,-0.406581,-0.035207,0.238812,-0.095300,0.022317,-0.025044,0.999997,-0.002033,-0.000176,0.001194,0.062544,0.778914,-0.059329,-0.621178,142.177406,73.794432,-37.559470
61595,-9.302117,1.805944,-2.501121,0.356415,-0.120403,-0.019588,-0.364698,0.017051,0.258493,-0.093047,0.017894,-0.025036,0.999997,-0.001823,0.000085,0.001292,0.064779,0.778775,-0.059193,-0.621135,141.589089,73.694928,-37.953679
61596,-9.115714,1.579348,-2.437005,0.338524,0.101686,-0.252115,-0.248760,0.061588,0.281155,-0.091187,0.015635,-0.024361,0.999998,-0.001244,0.000308,0.001406,0.066643,0.778804,-0.059490,-0.620873,141.094448,73.566421,-38.319961
61597,-8.944750,1.635453,-2.480964,0.414201,0.050561,-0.396519,-0.135522,0.083321,0.326790,-0.089484,0.016192,-0.024783,0.999998,-0.000678,0.000417,0.001634,0.068217,0.778921,-0.060309,-0.620477,140.628147,73.410814,-38.724379
61598,-8.837752,1.895551,-2.262098,0.215254,-0.196939,-0.499748,0.006949,0.065264,0.392156,-0.088422,0.018783,-0.022591,0.999998,0.000035,0.000326,0.001961,0.069429,0.779009,-0.061831,-0.620082,140.135073,73.238397,-39.242561
61599,-8.690578,2.291624,-2.021622,0.002367,-0.583013,-0.618962,0.070618,0.041017,0.458814,-0.086962,0.022724,-0.020190,0.999997,0.000353,0.000205,0.002294,0.070596,0.779018,-0.063818,-0.619737,139.561974,73.050532,-39.882711
61600,-8.697357,2.665296,-2.027614,-0.004359,-0.905661,-0.536986,0.042260,0.025348,0.517226,-0.087045,0.026432,-0.020260,0.999997,0.000211,0.000127,0.002586,0.072046,0.778947,-0.065949,-0.619436,138.886501,72.845637,-40.613862
61601,-8.631251,2.994281,-2.092171,0.063088,-1.189956,-0.516388,-0.049264,0.045857,0.565242,-0.086401,0.029694,-0.020909,0.999996,-0.000246,0.000229,0.002826,0.074011,0.778883,-0.067977,-0.619066,138.133646,72.611011,-41.371753
61602,-8.520545,3.096900,-2.213853,0.198668,-1.253666,-0.567138,-0.158143,0.093587,0.600362,-0.085308,0.030696,-0.022123,0.999995,-0.000791,0.000468,0.003002,0.076521,0.778910,-0.069786,-0.618526,137.351796,72.339615,-42.095892
61603,-8.500781,3.114437,-2.246688,0.226431,-1.213453,-0.566795,-0.217946,0.146433,0.644035,-0.085124,0.030846,-0.022438,0.999994,-0.001090,0.000732,0.003220,0.079419,0.779051,-0.071559,-0.617779,136.565611,72.026052,-42.789560
61604,-8.358951,2.997824,-2.266593,0.268408,-1.063153,-0.713582,-0.235112,0.173256,0.704307,-0.083714,0.029657,-0.022628,0.999993,-0.001176,0.000866,0.003522,0.082578,0.779238,-0.073503,-0.616901,135.753363,71.674480,-43.501790
61605,-8.246206,2.896620,-2.302192,0.316521,-0.917324,-0.826682,-0.202790,0.191585,0.775806,-0.082596,0.028623,-0.022972,0.999992,-0.001014,0.000958,0.003879,0.085838,0.779455,-0.075816,-0.615901,134.923385,71.283568,-44.253600
61606,-8.320000,2.953906,-2.323181,0.303986,-0.879765,-0.730937,-0.183600,0.184276,0.852138,-0.083346,0.029163,-0.023182,0.999990,-0.000918,0.000921,0.004261,0.089252,0.779616,-0.078487,-0.614876,134.040692,70.860722,-45.074729
61607,-8.365342,3.213518,-2.487435,0.434526,-1.030637,-0.580067,-0.221473,0.188954,0.924978,-0.083824,0.031720,-0.024830,0.999988,-0.001107,0.000945,0.004625,0.093040,0.779727,-0.081323,-0.613805,133.097526,70.401732,-45.938996
61608,-8.479087,3.428943,-2.447938,0.350853,-1.122528,-0.417953,-0.180839,0.178540,0.987376,-0.084981,0.033848,-0.024434,0.999987,-0.000904,0.000893,0.004937,0.096853,0.779782,-0.084529,-0.612710,132.141256,69.915581,-46.844626
61609,-8.768418,3.663356,-2.317582,0.135986,-1.184276,-0.104207,-0.153044,0.169952,1.050956,-0.087895,0.036154,-0.023129,0.999986,-0.000765,0.000850,0.005255,0.100747,0.779775,-0.088070,-0.611593,131.169945,69.400578,-47.786039
61610,-8.988552,3.727296,-2.281461,0.030788,-1.083698,0.122879,-0.172248,0.156243,1.099146,-0.090106,0.036759,-0.022776,0.999984,-0.000861,0.000781,0.005496,0.104854,0.779672,-0.091745,-0.610492,130.172918,68.863932,-48.746564
61611,-9.114235,3.624534,-2.310599,0.015384,-0.836402,0.229447,-0.179349,0.131910,1.137699,-0.091362,0.035705,-0.023078,0.999983,-0.000897,0.000660,0.005688,0.109092,0.779447,-0.095558,-0.609451,129.157089,68.313525,-49.726328
61612,-9.215836,3.548842,-2.330195,-0.003150,-0.616469,0.315218,-0.176415,0.132390,1.173192,-0.092380,0.034926,-0.023272,0.999982,-0.000882,0.000662,0.005866,0.113423,0.779182,-0.099516,-0.608364,128.162140,67.740549,-50.689304
61613,-9.147239,3.609096,-2.351817,0.018514,-0.571752,0.281870,-0.143965,0.121040,1.210532,-0.091703,0.035519,-0.023488,0.999981,-0.000720,0.000605,0.006053,0.117732,0.778853,-0.103719,-0.607264,127.190808,67.148840,-51.650768
61614,-8.965068,3.887611,-2.195136,-0.110959,-0.778088,0.171578,-0.082741,0.118546,1.248994,-0.089904,0.038306,-0.021914,0.999980,-0.000414,0.000593,0.006245,0.121914,0.778504,-0.108257,-0.606094,126.270108,66.533959,-52.599664
61615,-8.889665,4.293630,-2.100498,-0.209925,-1.066215,0.221813,-0.100587,0.109434,1.282515,-0.089181,0.042354,-0.020978,0.999979,-0.000503,0.000547,0.006413,0.126256,0.778065,-0.112871,-0.604926,125.351846,65.901002,-53.539145
61616,-8.582963,4.567411,-2.124707,-0.134326,-1.295120,0.053724,-0.104257,0.092051,1.315143,-0.086137,0.045097,-0.021231,0.999978,-0.000521,0.000460,0.006576,0.130697,0.777520,-0.117609,-0.603778,124.437981,65.252033,-54.476242
61617,-8.498543,4.718688,-1.690505,-0.553310,-1.360632,-0.056150,-0.244259,0.147205,1.354895,-0.085315,0.046589,-0.016899,0.999976,-0.001221,0.000736,0.006774,0.135828,0.776991,-0.122035,-0.602448,123.520530,64.560808,-55.333748
61618,-8.612479,4.426738,-1.996529,-0.291181,-0.889491,0.030037,-0.350410,0.197887,1.404461,-0.086452,0.043626,-0.019957,0.999973,-0.001752,0.000989,0.007022,0.141546,0.776473,-0.126296,-0.600919,122.608079,63.823756,-56.123230
61619,-8.724945,4.268005,-2.301535,-0.033803,-0.534140,0.154723,-0.379634,0.209511,1.444272,-0.087579,0.042005,-0.023004,0.999972,-0.001898,0.001048,0.007221,0.147495,0.775901,-0.130606,-0.599304,121.712290,63.058984,-56.880482
61620,-8.688836,4.147628,-2.607938,0.260684,-0.262735,0.155314,-0.436748,0.215912,1.476866,-0.087219,0.040776,-0.026075,0.999970,-0.002184,0.001080,0.007384,0.153761,0.775239,-0.134862,-0.597640,120.816651,62.270644,-57.605922
61621,-8.705430,4.238477,-2.639487,0.269866,-0.180489,0.217695,-0.412310,0.226533,1.519754,-0.087403,0.041667,-0.026382,0.999968,-0.002062,0.001133,0.007599,0.160056,0.774551,-0.139337,-0.595851,119.965659,61.453546,-58.302014
61622,-8.632422,4.532198,-2.706472,0.329669,-0.311407,0.295559,-0.348552,0.185615,1.561685,-0.086699,0.044599,-0.027063,0.999968,-0.001743,0.000928,0.007808,0.166193,0.773713,-0.144192,-0.594101,119.135390,60.621857,-59.021613
61623,-8.334368,4.815073,-2.320428,0.009411,-0.562986,0.072237,-0.318784,0.149947,1.613292,-0.083746,0.047439,-0.023218,0.999966,-0.001594,0.000750,0.008066,0.172328,0.772705,-0.149352,-0.592389,118.308362,59.769629,-59.763142
61624,-8.076283,4.976840,-2.090756,-0.165994,-0.677444,-0.123632,-0.335406,0.165281,1.654012,-0.081188,0.049063,-0.020923,0.999964,-0.001677,0.000826,0.008270,0.178650,0.771644,-0.154599,-0.590550,117.509008,58.886970,-60.467965
61625,-7.851461,5.003535,-2.198429,-0.020807,-0.628152,-0.267186,-0.316689,0.168749,1.692505,-0.078953,0.049334,-0.021996,0.999963,-0.001583,0.000844,0.008462,0.185001,0.770523,-0.160033,-0.588608,116.747475,57.979518,-61.147694
61626,-7.720628,4.944149,-2.212381,0.010333,-0.470437,-0.393366,-0.294202,0.188614,1.730200,-0.077651,0.048738,-0.022123,0.999961,-0.001471,0.000943,0.008651,0.191380,0.769392,-0.165651,-0.586489,116.038484,57.042577,-61.787235
61627,-7.825725,4.894552,-2.145598,-0.100549,-0.216091,-0.339411,-0.281249,0.225993,1.770876,-0.078711,0.048220,-0.021435,0.999959,-0.001406,0.001130,0.008854,0.197842,0.768288,-0.171411,-0.584132,115.386986,56.071928,-62.373764
61628,-8.188831,4.950941,-2.315562,-0.056430,0.106643,0.031769,-0.296586,0.254487,1.789456,-0.082356,0.048740,-0.023124,0.999958,-0.001483,0.001272,0.008947,0.204428,0.767173,-0.177158,-0.581610,114.775119,55.080602,-62.908337
61629,-8.460262,5.109604,-2.510514,0.029313,0.311709,0.379754,-0.239347,0.230758,1.796803,-0.085086,0.050303,-0.025068,0.999958,-0.001197,0.001154,0.008984,0.210775,0.765976,-0.183106,-0.579074,114.206517,54.088632,-63.436618
61630,-8.490825,5.637000,-2.447546,-0.085472,0.062358,0.668063,-0.185772,0.179263,1.815086,-0.085437,0.055573,-0.024451,0.999958,-0.000929,0.000896,0.009075,0.216907,0.764606,-0.189322,-0.576616,113.654916,53.095517,-63.988547
61631,-8.444217,6.010465,-2.389952,-0.169053,-0.088800,0.822287,-0.172907,0.137581,1.841950,-0.085007,0.059303,-0.023893,0.999957,-0.000865,0.000688,0.009210,0.223007,0.763039,-0.195703,-0.574230,113.102319,52.095231,-64.558306
61632,-8.180316,6.279982,-2.317167,-0.206018,-0.270272,0.751699,-0.103135,0.084973,1.885611,-0.082400,0.062013,-0.023169,0.999955,-0.000516,0.000425,0.009428,0.228898,0.761289,-0.202496,-0.571874,112.570557,51.079771,-65.160315
61633,-7.688066,6.508547,-2.128382,-0.293402,-0.563565,0.463044,-0.086334,0.050023,1.928474,-0.077509,0.064331,-0.021292,0.999953,-0.000432,0.000250,0.009642,0.234788,0.759345,-0.209518,-0.569536,112.042887,50.046359,-65.778283
61634,-7.302561,6.507539,-1.911890,-0.423750,-0.618969,0.125365,-0.121961,0.050861,1.987892,-0.073672,0.064334,-0.019140,0.999950,-0.000610,0.000254,0.009939,0.240965,0.757227,-0.216646,-0.567105,111.509247,48.976962,-66.386776
61635,-7.251612,6.434637,-1.818959,-0.517411,-0.404996,0.029259,-0.195479,0.091944,2.043676,-0.073177,0.063583,-0.018218,0.999947,-0.000977,0.000460,0.010218,0.247594,0.754998,-0.223703,-0.564475,110.973845,47.866210,-66.951533
61636,-7.465759,6.408924,-2.183222,-0.241834,-0.003623,0.262836,-0.226577,0.114956,2.077091,-0.075330,0.063284,-0.021861,0.999945,-0.001133,0.000575,0.010385,0.254438,0.752677,-0.230748,-0.561688,110.454053,46.728862,-67.480816
61637,-7.815881,6.530605,-2.416164,-0.139133,0.367529,0.647532,-0.205763,0.145306,2.096959,-0.078855,0.064457,-0.024171,0.999944,-0.001029,0.000727,0.010485,0.261262,0.750362,-0.237859,-0.558679,109.984637,45.572388,-67.966961
61638,-8.141140,6.806798,-2.425729,-0.258486,0.595265,1.053283,-0.178524,0.141839,2.103604,-0.082138,0.067185,-0.024259,0.999944,-0.000893,0.000709,0.010518,0.267973,0.747981,-0.245053,-0.555576,109.550679,44.409786,-68.434668
61639,-8.066283,7.207735,-2.598093,-0.126441,0.502144,1.300087,-0.154647,0.103972,2.118291,-0.081434,0.071197,-0.025994,0.999943,-0.000773,0.000520,0.010591,0.274555,0.745424,-0.252387,-0.552506,109.129607,43.244591,-68.913429
61640,-7.705494,7.535961,-2.612937,-0.067920,0.254383,1.274192,-0.111371,0.069042,2.139116,-0.077864,0.074515,-0.026144,0.999943,-0.000557,0.000345,0.010695,0.280962,0.742719,-0.259941,-0.549418,108.733257,42.071617,-69.402715
61641,-7.354750,7.853206,-2.463397,-0.171110,-0.000222,1.223600,-0.125372,0.050929,2.157063,-0.074395,0.077717,-0.024664,0.999942,-0.000627,0.000255,0.010785,0.287410,0.739835,-0.267516,-0.546328,108.337897,40.890285,-69.889748
61642,-7.340430,7.918590,-2.445674,-0.212680,0.176808,1.254659,-0.221443,0.086635,2.137513,-0.074255,0.078368,-0.024512,0.999942,-0.001107,0.000433,0.010687,0.294178,0.736851,-0.274676,-0.543197,107.927143,39.710161,-70.327127
61643,-7.267231,7.814654,-2.494551,-0.153731,0.433887,1.136646,-0.293820,0.068741,2.102796,-0.073497,0.077340,-0.025034,0.999944,-0.001469,0.000344,0.010514,0.301057,0.733675,-0.281503,-0.540223,107.490523,38.550205,-70.750752
61644,-6.945211,7.520211,-2.301270,-0.242093,0.587946,0.659998,-0.274030,0.055589,2.066423,-0.070230,0.074448,-0.023096,0.999946,-0.001370,0.000278,0.010332,0.307716,0.730463,-0.288242,-0.537262,107.081933,37.409491,-71.157990
61645,-6.719698,7.249392,-2.306483,-0.167297,0.806293,0.303940,-0.202953,0.047780,2.075313,-0.067950,0.071768,-0.023122,0.999946,-0.001015,0.000239,0.010376,0.314091,0.727248,-0.295183,-0.534157,106.725618,36.263591,-71.556808
61646,-6.415121,6.971799,-2.421648,0.032327,0.968374,-0.082222,-0.133967,0.007128,2.101477,-0.064880,0.069023,-0.024261,0.999945,-0.000670,0.000036,0.010507,0.320194,0.723913,-0.302436,-0.530997,106.404465,35.107649,-71.974127
61647,-6.494960,7.158871,-2.651110,0.196897,1.149751,0.142119,-0.043241,-0.015673,2.108089,-0.065697,0.070893,-0.026532,0.999944,-0.000216,-0.000078,0.010540,0.325913,0.720574,-0.309956,-0.527714,106.140222,33.950460,-72.394970
61648,-6.486033,7.885293,-2.647513,0.100260,0.915546,0.694634,-0.026973,-0.043795,2.074490,-0.065668,0.078171,-0.026500,0.999946,-0.000135,-0.000219,0.010372,0.331408,0.717159,-0.317410,-0.524502,105.892144,32.814314,-72.816090
61649,-6.267929,8.451523,-2.405376,-0.159160,0.588294,0.963483,-0.086761,-0.046464,2.005147,-0.063517,0.083871,-0.024105,0.999950,-0.000434,-0.000232,0.010026,0.336894,0.713674,-0.324429,-0.521457,105.628560,31.715630,-73.214999
61650,-6.072645,8.882714,-2.685351,0.099163,0.437306,1.268195,-0.257183,-0.016634,1.913356,-0.061570,0.088206,-0.026972,0.999953,-0.001286,-0.000083,0.009567,0.342767,0.710059,-0.330596,-0.518684,105.298074,30.661037,-73.566915
61651,-5.916795,8.880506,-2.698566,0.153376,0.519381,1.180826,-0.417910,-0.014507,1.828625,-0.059974,0.088203,-0.027175,0.999956,-0.002090,-0.000073,0.009143,0.348961,0.706250,-0.336010,-0.516269,104.894715,29.651401,-73.891367
61652,-5.736908,8.272978,-2.325718,-0.077864,0.833076,0.485865,-0.513920,-0.008139,1.758313,-0.058092,0.082161,-0.023471,0.999958,-0.002570,-0.000041,0.008791,0.355295,0.702348,-0.340889,-0.514070,104.454689,28.677502,-74.188312
61653,-5.493750,7.264530,-2.223053,0.016699,1.309960,-0.529481,-0.587969,0.020283,1.733062,-0.055566,0.072100,-0.022437,0.999958,-0.002940,0.000101,0.008665,0.361841,0.698370,-0.345409,-0.511900,103.992326,27.711889,-74.451944
61654,-5.288047,6.417950,-2.535557,0.482156,1.766239,-1.313958,-0.552023,0.023120,1.747741,-0.053441,0.063644,-0.025526,0.999958,-0.002760,0.000116,0.008739,0.368275,0.694382,-0.350039,-0.509588,103.559366,26.735743,-74.705155
61655,-5.056395,6.429733,-2.976843,0.976946,1.780977,-1.348532,-0.440359,-0.005177,1.738249,-0.051119,0.063789,-0.029911,0.999960,-0.002202,-0.000026,0.008691,0.374216,0.690486,-0.354943,-0.507155,103.191272,25.767279,-74.964851
61656,-4.757846,6.957617,-3.070104,1.085726,1.436392,-1.024785,-0.287583,0.000906,1.674917,-0.048159,0.069130,-0.030800,0.999964,-0.001438,0.000005,0.008374,0.379451,0.686952,-0.359978,-0.504509,102.923718,24.832027,-75.203622
61657,-4.731224,7.461477,-2.593882,0.573568,1.253644,-0.708621,-0.189564,0.023573,1.583903,-0.047904,0.074212,-0.026004,0.999968,-0.000948,0.000118,0.007919,0.384135,0.683778,-0.364879,-0.501748,102.728990,23.943945,-75.409963
61658,-4.601329,7.482259,-2.237248,0.251760,1.209882,-0.833097,-0.209032,0.034852,1.467583,-0.046564,0.074459,-0.022442,0.999973,-0.001045,0.000174,0.007338,0.388590,0.680767,-0.369292,-0.499177,102.537170,23.118870,-75.588802
61659,-4.404282,6.910465,-1.922070,0.057386,1.349445,-1.504788,-0.282651,0.058527,1.337100,-0.044509,0.068781,-0.019305,0.999977,-0.001413,0.000293,0.006685,0.392996,0.677877,-0.373011,-0.496890,102.319081,22.363290,-75.731671
61660,-4.039043,5.713601,-1.962626,0.318599,1.623760,-2.736515,-0.278524,0.150540,1.211951,-0.040750,0.056862,-0.019675,0.999980,-0.001393,0.000753,0.006060,0.397229,0.675430,-0.376119,-0.494507,102.133690,21.666272,-75.798890
61661,-4.016330,4.743940,-2.303418,0.757898,2.128149,-3.580696,-0.063451,0.221315,1.122255,-0.040454,0.047206,-0.023005,0.999984,-0.000317,0.001107,0.005611,0.400635,0.673728,-0.379302,-0.491642,102.092292,21.010763,-75.810250
61662,-3.653834,5.138942,-2.642454,1.102551,1.769371,-3.301537,0.166701,0.221652,1.046378,-0.036836,0.051219,-0.026341,0.999985,0.000834,0.001108,0.005232,0.403064,0.672613,-0.382783,-0.488476,102.186712,20.397958,-75.811835
61663,-3.235017,6.071233,-2.988939,1.383161,1.154406,-2.531709,0.485960,0.224336,1.008879,-0.032690,0.060620,-0.029705,0.999984,0.002430,0.001122,0.005044,0.404324,0.672196,-0.386899,-0.484750,102.465170,19.805586,-75.809129
61664,-3.330042,7.552376,-2.545209,0.681185,0.679607,-1.229048,0.698516,0.244007,1.009441,-0.033712,0.075442,-0.025148,0.999980,0.003493,0.001220,0.005047,0.404890,0.672235,-0.391480,-0.480529,102.868528,19.210747,-75.798494
61665,-3.769970,8.580395,-1.650028,-0.503821,0.630538,-0.330814,0.735816,0.186173,0.989689,-0.038139,0.085676,-0.016150,0.999981,0.003679,0.000931,0.004948,0.405158,0.672220,-0.396185,-0.476450,103.280982,18.634049,-75.823878
61666,-3.689063,8.934023,-1.212098,-1.037330,0.433678,-0.136426,0.623976,0.150170,0.919688,-0.037310,0.089206,-0.011815,0.999984,0.003120,0.000751,0.004598,0.405546,0.672010,-0.400448,-0.472839,103.625321,18.101698,-75.864423
61667,-3.641774,8.551599,-1.052856,-1.185957,0.569283,-0.551498,0.493596,0.122586,0.821798,-0.036775,0.085391,-0.010295,0.999988,0.002468,0.000613,0.004109,0.406078,0.671646,-0.404119,-0.469767,103.893232,17.627427,-75.910030
61668,-3.272833,7.991497,-1.525008,-0.607093,0.559443,-1.082328,0.339800,0.190145,0.690172,-0.033018,0.079827,-0.015083,0.999992,0.001699,0.000951,0.003451,0.406942,0.671383,-0.406840,-0.467037,104.090750,17.217580,-75.899024
61669,-3.231014,7.740261,-1.974661,-0.164465,0.729803,-1.228374,0.238535,0.327492,0.545550,-0.032553,0.077337,-0.019601,0.999994,0.001193,0.001637,0.002728,0.408086,0.671517,-0.408556,-0.464341,104.258926,16.868346,-75.788427
61670,-3.680674,8.001849,-1.788381,-0.530183,1.068785,-0.904734,0.215155,0.391320,0.420778,-0.037010,0.079960,-0.017725,0.999995,0.001076,0.001957,0.002104,0.409141,0.672003,-0.409663,-0.461728,104.429154,16.579478,-75.623579
61671,-3.645456,8.784499,-1.404170,-1.056646,0.745244,-0.286070,0.115756,0.326460,0.318381,-0.036617,0.087795,-0.013931,0.999997,0.000579,0.001632,0.001592,0.410162,0.672337,-0.410326,-0.459741,104.534724,16.355852,-75.481925
61672,-3.350116,8.822762,-1.422487,-0.987152,0.489969,-0.332535,-0.206551,0.344536,0.220558,-0.033623,0.088176,-0.014258,0.999997,-0.001033,0.001723,0.001103,0.412071,0.672252,-0.409880,-0.458555,104.462508,16.184412,-75.315415
61673,-3.219002,8.038808,-1.587141,-0.648321,0.677111,-1.059144,-0.483279,0.318125,0.129488,-0.032267,0.080329,-0.016014,0.999996,-0.002416,0.001591,0.000647,0.414650,0.671715,-0.408545,-0.458208,104.230544,16.067144,-75.150358
61674,-2.906931,7.021221,-2.006033,0.026764,0.811626,-1.995244,-0.547987,0.328842,0.019935,-0.029109,0.070154,-0.020205,0.999995,-0.002740,0.001644,0.000100,0.417208,0.671289,-0.406667,-0.458181,103.967837,16.010553,-74.962757
61675,-2.589796,6.952757,-2.637971,0.744973,0.672048,-2.002433,-0.446724,0.335678,-0.056939,-0.025923,0.069476,-0.026491,0.999996,-0.002234,0.001678,-0.000285,0.419265,0.671237,-0.404747,-0.458080,103.766873,15.995906,-74.759997
61676,-2.712935,7.628587,-2.218375,0.220147,0.495990,-1.435214,-0.169801,0.224540,-0.062317,-0.027131,0.076275,-0.022218,0.999999,-0.000849,0.001123,-0.000312,0.420148,0.671522,-0.403671,-0.457803,103.707427,16.000468,-74.620803
61677,-2.819987,8.303118,-1.896946,-0.215292,0.317549,-0.849133,-0.064377,0.102543,-0.024040,-0.028200,0.083028,-0.018982,1.000000,-0.000322,0.000513,-0.000120,0.420524,0.671667,-0.403224,-0.457639,103.687040,15.999717,-74.557653
61678,-3.016053,8.219602,-1.959903,-0.193636,0.539997,-0.858886,0.044879,0.026505,0.040109,-0.030180,0.082194,-0.019577,1.000000,0.000224,0.000133,0.000201,0.420520,0.671742,-0.403399,-0.457378,103.715010,15.974249,-74.547602
61679,-3.038791,7.674109,-1.642879,-0.428367,0.676860,-1.435123,0.246211,-0.013378,0.098893,-0.030425,0.076746,-0.016336,0.999999,0.001231,-0.000067,0.000494,0.419899,0.672027,-0.404318,-0.456718,103.849288,15.920822,-74.569008
61680,-2.995670,7.906686,-2.024647,-0.117488,0.638054,-1.142745,0.423156,-0.018339,0.110802,-0.029999,0.079093,-0.020082,0.999998,0.002116,-0.000092,0.000554,0.418694,0.672649,-0.405688,-0.455693,104.084048,15.862253,-74.595187
61681,-3.008755,9.130277,-1.932175,-0.452042,0.237597,-0.020504,0.551707,-0.030236,0.083956,-0.030123,0.091343,-0.019074,0.999996,0.002759,-0.000151,0.000420,0.416974,0.673560,-0.407285,-0.454499,104.391224,15.819663,-74.624566
61682,-2.979353,10.735291,-1.531389,-1.149133,-0.389445,1.367463,0.487619,0.008170,0.007699,-0.029798,0.107389,-0.015051,0.999997,0.002438,0.000041,0.000038,0.415366,0.674579,-0.408394,-0.453464,104.671137,15.814753,-74.620662
61683,-2.945989,12.027291,-1.839704,-1.100133,-0.788657,2.632666,0.045853,0.024435,-0.090102,-0.029408,0.120290,-0.018366,1.000000,0.000229,0.000122,-0.000451,0.415064,0.674911,-0.408139,-0.453475,104.704157,15.860913,-74.592608
61684,-2.413017,11.930692,-1.968393,-0.796042,-1.234278,2.429911,-0.503412,0.064020,-0.146476,-0.024049,0.119275,-0.019976,0.999997,-0.002517,0.000320,-0.000732,0.416562,0.674308,-0.406363,-0.454592,104.431306,15.933422,-74.533420
61685,-2.430819,10.466121,-1.876004,-0.565691,-0.759699,1.053321,-0.863797,0.135307,-0.156115,-0.024239,0.104598,-0.019195,0.999990,-0.004319,0.000677,-0.000781,0.419397,0.673125,-0.403583,-0.456212,103.963362,16.000899,-74.432055
61686,-2.534514,8.748218,-2.409871,0.274932,0.006049,-0.395341,-0.898385,0.128134,-0.123069,-0.025307,0.087388,-0.024475,0.999990,-0.004492,0.000641,-0.000615,0.422397,0.671775,-0.400840,-0.457850,103.473307,16.052439,-74.340128
61687,-2.321050,7.629377,-2.505517,0.649633,0.200773,-1.481432,-0.540269,0.071811,-0.025026,-0.023210,0.076229,-0.025253,0.999996,-0.002701,0.000359,-0.000125,0.424304,0.670844,-0.399361,-0.458743,103.175423,16.056691,-74.294651
61688,-2.430819,8.503903,-3.002617,0.993443,0.134327,-0.526355,-0.154447,-0.026400,0.094481,-0.024344,0.085004,-0.030095,1.000000,-0.000772,-0.000132,0.000472,0.424989,0.670267,-0.399373,-0.458942,103.078595,16.007856,-74.322431
61689,-2.198935,10.092604,-2.124569,-0.011396,-0.753548,0.705953,0.034220,-0.104079,0.167774,-0.022063,0.100911,-0.021240,0.999999,0.000171,-0.000520,0.000839,0.425058,0.669763,-0.400231,-0.458867,103.074553,15.927496,-74.405093
61690,-2.641580,10.635682,-2.182428,-0.146368,-0.487244,1.349740,-0.138209,-0.018872,0.159792,-0.026499,0.106321,-0.021900,0.999999,-0.000691,-0.000094,0.000799,0.425852,0.669106,-0.400483,-0.458869,102.985951,15.841151,-74.437157
61691,-3.395931,11.007391,-2.845968,0.247089,0.244729,2.047902,-0.061634,-0.009840,0.087901,-0.034006,0.110050,-0.028495,1.000000,-0.000308,-0.000049,0.000440,0.426248,0.668774,-0.400652,-0.458839,102.945074,15.793119,-74.454234
61692,-3.269922,11.241206,-1.776930,-0.768170,-0.151871,2.002617,-0.084123,-0.045166,0.064465,-0.032731,0.112394,-0.017824,1.000000,-0.000421,-0.000226,0.000322,0.426589,0.668362,-0.400764,-0.459023,102.886872,15.763304,-74.488670
61693,-2.927965,9.689949,-2.143461,-0.090928,0.103911,0.533490,-0.224316,-0.034752,0.058951,-0.029304,0.096867,-0.021548,0.999999,-0.001122,-0.000174,0.000295,0.427411,0.667683,-0.400516,-0.459463,102.749954,15.734572,-74.516250
61694,-2.635091,8.464191,-2.425630,0.440987,0.279613,-0.636781,-0.035306,-0.025711,-0.007039,-0.026345,0.084639,-0.024275,1.000000,-0.000177,-0.000129,-0.000035,0.427464,0.667563,-0.400460,-0.459637,102.725348,15.742161,-74.529908
61695,-2.626870,8.279604,-1.638861,-0.290356,0.164018,-0.979403,0.241640,0.032368,-0.094089,-0.026232,0.082828,-0.016284,0.999999,0.001208,0.000162,-0.000470,0.426513,0.668339,-0.400627,-0.459247,102.871469,15.790407,-74.498329
61696,-3.204689,9.532684,-2.041007,-0.256923,0.367676,0.439459,0.319732,-0.044079,-0.153544,-0.031969,0.095384,-0.020265,0.999998,0.001599,-0.000220,-0.000768,0.425006,0.669226,-0.400935,-0.459083,103.052710,15.882223,-74.503053
61697,-2.500137,10.097947,-2.419013,0.180415,-0.411610,0.858245,0.281812,-0.236158,-0.097854,-0.024923,0.101026,-0.024077,0.999998,0.001409,-0.001181,-0.000489,0.423371,0.669476,-0.401752,-0.459516,103.179402,15.967314,-74.626483
61698,-2.898599,10.622864,-2.632548,0.190345,-0.185953,1.505731,0.192567,-0.267742,-0.043006,-0.028928,0.106260,-0.026262,0.999999,0.000963,-0.001339,-0.000215,0.422092,0.669354,-0.402610,-0.460118,103.247960,16.026783,-74.775636
61699,-3.097911,9.534351,-2.497583,0.173278,0.307959,0.512715,0.050451,-0.298956,-0.033599,-0.030926,0.095355,-0.024998,0.999999,0.000252,-0.001495,-0.000168,0.421251,0.668837,-0.403240,-0.461088,103.229345,16.084530,-74.944176
61700,-2.968022,8.430039,-2.494837,0.378249,0.530456,-0.556638,0.005670,-0.284001,-0.051109,-0.029623,0.084309,-0.024988,0.999999,0.000028,-0.001420,-0.000256,0.420544,0.668297,-0.403673,-0.462136,103.188188,16.150635,-75.101755
61701,-2.699336,8.195551,-2.835696,0.814797,0.409023,-0.775906,0.038809,-0.260196,-0.085090,-0.026922,0.081972,-0.028376,0.999999,0.000194,-0.001301,-0.000425,0.419699,0.667946,-0.404021,-0.463106,103.170701,16.231877,-75.240953
61702,-2.378875,8.351623,-2.089266,0.163327,-0.089871,-0.883023,-0.029212,-0.233507,-0.087591,-0.023728,0.083524,-0.020933,0.999999,-0.000146,-0.001168,-0.000438,0.419124,0.667521,-0.404144,-0.464131,103.118758,16.311611,-75.364418
61703,-2.738501,8.507669,-2.962962,0.903935,0.345262,-0.446652,-0.095585,-0.235446,-0.071516,-0.027320,0.085072,-0.029702,0.999999,-0.000478,-0.001177,-0.000358,0.418809,0.666916,-0.404172,-0.465260,103.027367,16.381822,-75.491321
61704,-2.815635,8.830105,-2.382368,0.298181,0.198154,-0.249946,-0.101692,-0.244418,-0.072202,-0.028095,0.088299,-0.023903,0.999999,-0.000508,-0.001222,-0.000361,0.418488,0.666281,-0.404200,-0.466433,102.931162,16.454023,-75.623516
61705,-2.934394,8.363447,-2.384319,0.363483,0.452826,-0.652685,-0.215141,-0.220951,-0.073893,-0.029287,0.083620,-0.023966,0.999999,-0.001076,-0.001105,-0.000369,0.418592,0.665462,-0.403910,-0.467759,102.773349,16.523244,-75.742033
61706,-2.834027,8.282375,-2.176993,0.225106,0.341764,-0.801516,-0.187969,-0.200610,-0.109000,-0.028273,0.082819,-0.021876,0.999999,-0.000940,-0.001003,-0.000545,0.418559,0.664819,-0.403520,-0.469036,102.635943,16.609902,-75.844293
61707,-2.809192,8.289584,-1.806629,-0.101345,0.241404,-0.879375,-0.223685,-0.164009,-0.145360,-0.028017,0.082896,-0.018182,0.999999,-0.001118,-0.000820,-0.000727,0.418638,0.664257,-0.402851,-0.470336,102.484953,16.711416,-75.920747
61708,-2.890689,8.368802,-1.794831,-0.113734,0.278901,-0.783649,-0.298119,-0.154239,-0.174129,-0.028820,0.083686,-0.018095,0.999998,-0.001491,-0.000771,-0.000871,0.418909,0.663621,-0.401887,-0.471815,102.294155,16.828300,-75.988142
61709,-2.981334,8.698143,-1.399408,-0.523834,0.174462,-0.528325,-0.387155,-0.164653,-0.204240,-0.029713,0.086984,-0.014187,0.999997,-0.001936,-0.000823,-0.001021,0.419387,0.662828,-0.400636,-0.473566,102.051019,16.962371,-76.058349
61710,-3.010015,8.789103,-1.356848,-0.536183,0.152667,-0.440467,-0.511092,-0.168296,-0.208796,-0.029997,0.087887,-0.013818,0.999996,-0.002555,-0.000841,-0.001044,0.420249,0.661774,-0.399078,-0.475586,101.736384,17.099809,-76.130855
61711,-3.142754,8.628865,-1.298352,-0.546763,0.309264,-0.559307,-0.585343,-0.157627,-0.200165,-0.031331,0.086281,-0.013261,0.999995,-0.002927,-0.000788,-0.001001,0.421400,0.660563,-0.397349,-0.477694,101.379980,17.230058,-76.199026
61712,-3.130159,8.113668,-1.517821,-0.214862,0.498799,-1.001438,-0.527539,-0.138744,-0.182447,-0.031217,0.081125,-0.015414,0.999996,-0.002638,-0.000694,-0.000912,0.422431,0.659481,-0.395770,-0.479586,101.059295,17.348594,-76.259008
61713,-3.059461,8.150532,-1.673971,-0.005218,0.442991,-0.958467,-0.462514,-0.130106,-0.153420,-0.030521,0.081490,-0.016948,0.999997,-0.002313,-0.000651,-0.000767,0.423337,0.658492,-0.394424,-0.481253,100.775782,17.448822,-76.317878
61714,-3.007989,9.437785,-1.567747,-0.199033,-0.054746,0.214020,-0.340593,-0.150698,-0.126216,-0.030008,0.094370,-0.015861,0.999998,-0.001703,-0.000753,-0.000631,0.423858,0.657657,-0.393500,-0.482690,100.557625,17.536442,-76.392429
61715,-2.564666,11.612722,-0.896544,-0.937233,-1.308374,2.004508,-0.446206,-0.159115,-0.095836,-0.025584,0.116119,-0.009245,0.999997,-0.002231,-0.000796,-0.000479,0.424787,0.656512,-0.392439,-0.484293,100.275928,17.606732,-76.475676
61716,-2.487298,12.794758,-0.953893,-0.901279,-1.756417,3.106445,-0.876912,-0.089664,-0.089191,-0.024811,0.127915,-0.010111,0.999990,-0.004385,-0.000448,-0.000446,0.427272,0.654601,-0.390203,-0.486496,99.759689,17.666523,-76.519063
61717,-2.773209,12.167020,-1.707217,-0.037951,-1.132926,2.731418,-1.278175,-0.055872,-0.118437,-0.027655,0.121574,-0.017857,0.999979,-0.006391,-0.000279,-0.000592,0.431056,0.651950,-0.386813,-0.489416,99.020014,17.738504,-76.540200
61718,-2.764968,10.553547,-2.548431,1.070036,-0.433575,1.331006,-1.428395,-0.035137,-0.152746,-0.027565,0.105371,-0.026242,0.999974,-0.007142,-0.000176,-0.000764,0.435263,0.649064,-0.382878,-0.492612,98.198811,17.828483,-76.546975
61719,-2.511701,8.546526,-2.994954,1.830419,0.094231,-0.595255,-1.272664,-0.030479,-0.171049,-0.025039,0.085294,-0.030496,0.999979,-0.006363,-0.000152,-0.000855,0.438911,0.646531,-0.379242,-0.495510,97.467571,17.927769,-76.550718
61720,-2.426997,7.125606,-3.219168,2.235664,0.536457,-1.955128,-0.896253,-0.012190,-0.178423,-0.024205,0.071132,-0.032512,0.999990,-0.004481,-0.000061,-0.000892,0.441341,0.644866,-0.376461,-0.497637,96.955477,18.030469,-76.544087
61721,-2.556220,7.479683,-2.726984,1.762348,0.445583,-1.651080,-0.418362,-0.047042,-0.194109,-0.025483,0.074764,-0.027432,0.999997,-0.002092,-0.000235,-0.000971,0.442125,0.644188,-0.374892,-0.499003,96.710572,18.143927,-76.557916
61722,-2.593583,8.890095,-1.815030,0.838188,-0.171676,-0.414673,-0.258537,-0.023799,-0.236552,-0.025829,0.088908,-0.018268,0.999998,-0.001293,-0.000119,-0.001183,0.442324,0.644001,-0.373531,-0.500087,96.562816,18.280535,-76.555194
61723,-2.776991,9.211175,-1.839935,0.844024,-0.118850,-0.054813,-0.403044,0.021004,-0.272095,-0.027647,0.092112,-0.018582,0.999997,-0.002015,0.000105,-0.001360,0.442986,0.643666,-0.371595,-0.501373,96.340890,18.433922,-76.523732
61724,-2.883291,8.752198,-1.783837,0.822864,0.106287,-0.463470,-0.446700,0.049386,-0.255800,-0.028725,0.087519,-0.018027,0.999997,-0.002233,0.000247,-0.001279,0.443875,0.643275,-0.369535,-0.502609,96.099424,18.576937,-76.476798
61725,-3.185920,7.057831,-1.787519,0.835047,0.939244,-1.965472,-0.167374,0.105912,-0.181035,-0.031805,0.070592,-0.017917,0.999999,-0.000837,0.000530,-0.000905,0.444160,0.643502,-0.368292,-0.502980,96.026778,18.673503,-76.401150
61726,-3.497183,7.020195,-1.380792,0.361848,1.146692,-1.940324,0.379136,0.062729,-0.049450,-0.034959,0.070237,-0.013664,0.999998,0.001896,0.000314,-0.000247,0.442932,0.644593,-0.368940,-0.502189,96.256942,18.698232,-76.359671
61727,-3.531933,8.425096,-1.528906,0.399157,0.725789,-0.587307,1.010133,-0.023836,0.111079,-0.035364,0.084307,-0.014868,0.999987,0.005051,-0.000119,0.000555,0.439913,0.646555,-0.371878,-0.500150,96.827894,18.636386,-76.381240
61728,-3.080115,10.795193,-1.187065,-0.033888,-0.562198,1.461794,1.146051,-0.087325,0.244737,-0.030928,0.107980,-0.011265,0.999983,0.005730,-0.000437,0.001224,0.436651,0.648394,-0.375715,-0.497755,97.461862,18.503936,-76.451449
61729,-3.176831,11.908992,-0.497159,-0.906822,-0.975576,2.450601,0.982693,-0.075382,0.292283,-0.031941,0.119066,-0.004399,0.999987,0.004913,-0.000377,0.001461,0.434052,0.649792,-0.379263,-0.495508,98.002361,18.343624,-76.519905
61730,-3.322688,11.646799,-0.655412,-0.860470,-0.709687,2.265115,0.545354,-0.085528,0.242071,-0.033365,0.116445,-0.006251,0.999995,0.002727,-0.000428,0.001210,0.432718,0.650304,-0.381578,-0.494225,98.292118,18.213675,-76.591149
61731,-3.443751,10.801411,-1.027923,-0.511554,-0.233269,1.557025,0.239437,-0.089191,0.140421,-0.034509,0.108002,-0.010165,0.999999,0.001197,-0.000446,0.000702,0.432123,0.650331,-0.382814,-0.493754,98.408084,18.141309,-76.656264
61732,-3.558875,10.117241,-0.832769,-0.689733,0.072044,0.922150,0.026422,-0.135691,0.041412,-0.035604,0.101166,-0.008338,1.000000,0.000132,-0.000678,0.000207,0.431881,0.649975,-0.383301,-0.494056,98.396634,18.129572,-76.740324
61733,-3.395037,9.895647,-0.734157,-0.721618,-0.022489,0.649999,-0.168419,-0.176494,-0.045400,-0.033921,0.098958,-0.007455,0.999999,-0.000842,-0.000882,-0.000227,0.431985,0.649260,-0.383114,-0.495050,98.267790,18.169779,-76.841252
61734,-3.164049,9.889430,-0.292668,-1.067950,-0.316547,0.514791,-0.362574,-0.191206,-0.102483,-0.031587,0.098905,-0.003136,0.999998,-0.001813,-0.000956,-0.000512,0.432543,0.648200,-0.382290,-0.496586,98.026795,18.243821,-76.946156
61735,-2.927409,9.498881,-0.332287,-0.899348,-0.399893,0.083767,-0.605558,-0.176349,-0.125379,-0.029211,0.094996,-0.003636,0.999995,-0.003028,-0.000882,-0.000627,0.433862,0.646687,-0.380754,-0.498584,97.649214,18.328585,-77.040857
61736,-2.194335,8.964461,-0.955928,-0.032295,-0.785349,-0.567572,-0.856421,0.009039,-0.148610,-0.021877,0.089619,-0.009942,0.999991,-0.004282,0.000045,-0.000743,0.436276,0.645129,-0.378109,-0.500505,97.163461,18.412738,-77.023409
61737,-2.263800,8.202267,-1.399811,0.501416,-0.377523,-1.212279,-0.969597,0.210117,-0.113446,-0.022606,0.081966,-0.014372,0.999988,-0.004848,0.001051,-0.000567,0.439519,0.643744,-0.374849,-0.501901,96.649594,18.462614,-76.888784
61738,-2.139888,7.168251,-2.287018,1.500735,0.037411,-2.135481,-0.878768,0.358764,-0.029183,-0.021430,0.071584,-0.023146,0.999989,-0.004394,0.001794,-0.000146,0.442944,0.642762,-0.371751,-0.502453,96.214508,18.456540,-76.670980
61739,-2.517678,6.300685,-2.711420,1.893962,0.779409,-2.798808,-0.440015,0.423977,0.072304,-0.025257,0.062938,-0.027199,0.999995,-0.002200,0.002120,0.000362,0.445333,0.642713,-0.369932,-0.501746,96.040600,18.389250,-76.420653
61740,-2.689220,6.484699,-2.541587,1.685690,0.862183,-2.590641,-0.028545,0.383514,0.124086,-0.026981,0.064827,-0.025373,0.999998,-0.000143,0.001918,0.000620,0.446447,0.643382,-0.369399,-0.500289,96.093949,18.295662,-76.197819
61741,-2.434991,6.769166,-2.574822,1.742797,0.554665,-2.394105,0.345050,0.410126,0.155259,-0.024455,0.067717,-0.025581,0.999996,0.001725,0.002051,0.000776,0.446488,0.644887,-0.369840,-0.497984,96.364665,18.181563,-75.961622
61742,-2.631369,7.469533,-2.404788,1.457070,0.479629,-1.679573,0.676755,0.471649,0.190533,-0.026441,0.074751,-0.023733,0.999991,0.003384,0.002358,0.000953,0.445650,0.647217,-0.371077,-0.494782,96.836021,18.042406,-75.691780
61743,-3.170113,8.745108,-1.087408,-0.080288,0.285247,-0.452109,0.911180,0.399466,0.197046,-0.031808,0.087468,-0.010412,0.999987,0.004556,0.001997,0.000985,0.443931,0.649859,-0.373069,-0.491353,97.426430,17.901790,-75.467356
61744,-3.516128,9.771456,0.611828,-1.951619,-0.091634,0.404992,0.739030,0.414176,0.157161,-0.035225,0.097663,0.006552,0.999991,0.003695,0.002071,0.000786,0.442685,0.652221,-0.374467,-0.488275,97.921656,17.781212,-75.232302
61745,-4.140964,9.543382,0.476624,-2.029022,0.584657,0.384954,0.409185,0.327957,0.101952,-0.041450,0.095403,0.005029,0.999996,0.002046,0.001640,0.000510,0.442219,0.653732,-0.375067,-0.486212,98.212209,17.696825,-75.045175
61746,-3.446143,9.292506,-0.081908,-1.340999,0.142773,0.006404,0.207775,0.163564,-0.004456,-0.034460,0.092927,-0.000694,0.999999,0.001039,0.000818,-0.000022,0.441837,0.654599,-0.375190,-0.485297,98.360763,17.686246,-74.946896
61747,-2.666295,8.803937,-0.094071,-1.122516,-0.417829,-0.691687,0.039036,0.276792,-0.047397,-0.026643,0.088046,-0.000887,0.999999,0.000195,0.001384,-0.000237,0.442120,0.655442,-0.374513,-0.484423,98.433641,17.689766,-74.777660
61748,-3.138747,8.766131,-0.121903,-1.213818,0.029740,-0.580277,-0.158270,0.322409,-0.056810,-0.031365,0.087669,-0.001238,0.999998,-0.000791,0.001612,-0.000284,0.443106,0.655980,-0.373224,-0.483788,98.402478,17.695332,-74.580339
61749,-3.448181,8.715036,-0.575113,-0.845820,0.427793,-0.470625,-0.176848,0.272445,-0.051916,-0.034467,0.087154,-0.005781,0.999999,-0.000884,0.001362,-0.000260,0.444076,0.656341,-0.372017,-0.483339,98.351031,17.701835,-74.413285
61750,-3.462807,8.043845,-1.127826,-0.279970,0.782997,-1.022068,0.081204,0.202978,-0.019718,-0.034632,0.080446,-0.011210,0.999999,0.000406,0.001015,-0.000099,0.444141,0.657050,-0.371691,-0.482567,98.434429,17.696483,-74.290308
61751,-2.913244,8.729608,-1.661937,0.307230,0.167009,-0.467494,0.479238,0.090607,0.014294,-0.029146,0.087333,-0.016397,0.999997,0.002396,0.000453,0.000071,0.442775,0.658302,-0.372687,-0.481345,98.724208,17.680454,-74.237313
61752,-2.621056,9.662109,-1.437238,0.057485,-0.466797,0.290307,0.515975,0.111154,0.077144,-0.026256,0.096648,-0.014108,0.999996,0.002580,0.000556,0.000386,0.441470,0.659567,-0.373929,-0.479847,99.037334,17.627428,-74.177965
61753,-3.392211,9.245677,-0.993094,-0.588477,0.276559,0.064202,0.354516,0.181647,0.094779,-0.033975,0.092458,-0.009736,0.999998,0.001773,0.000908,0.000474,0.440874,0.660605,-0.374685,-0.478375,99.269510,17.557070,-74.078840
61754,-3.191835,8.382453,-2.134105,0.581548,0.631570,-0.632793,0.518733,0.083576,0.083479,-0.031962,0.083866,-0.021110,0.999996,0.002594,0.000418,0.000417,0.439517,0.661790,-0.376010,-0.476943,99.578785,17.502512,-74.037049
61755,-2.057526,8.931663,-2.628508,1.257320,-0.488028,-0.373528,0.655461,0.077776,0.067199,-0.020615,0.089395,-0.025984,0.999994,0.003277,0.000389,0.000336,0.437659,0.663284,-0.377618,-0.475304,99.965319,17.456812,-73.997465
61756,-2.821070,8.457502,-1.979387,0.409518,0.216969,-0.691799,0.686569,0.207285,0.104068,-0.028275,0.084628,-0.019474,0.999993,0.003433,0.001036,0.000520,0.436020,0.665080,-0.379132,-0.473090,100.391752,17.377581,-73.885498
61757,-3.759953,8.489233,-0.635833,-1.238237,0.758953,-0.620435,1.734515,0.025354,0.217846,-0.037693,0.084902,-0.005617,0.999962,0.008672,0.000127,0.001089,0.430806,0.668481,-0.383885,-0.469225,101.381863,17.252068,-73.894860
61758,-2.272842,12.969155,-0.269331,-1.885920,-2.200411,3.033835,2.056826,-0.327638,0.281636,-0.022908,0.129678,-0.001397,0.999945,0.010284,-0.001638,0.001408,0.423941,0.671566,-0.390330,-0.465741,102.492847,17.133502,-74.121576
61759,-2.534655,13.659781,-0.522430,-1.968089,-2.148845,3.781268,0.538566,0.024288,0.138944,-0.025442,0.136594,-0.004853,0.999996,0.002693,0.000121,0.000695,0.422509,0.672489,-0.391993,-0.464313,102.799444,17.052566,-74.125223
61760,-4.256903,9.864704,-2.285115,-0.247293,1.072203,1.116381,-0.321578,0.165346,-0.063336,-0.042557,0.098624,-0.022975,0.999998,-0.001608,0.000827,-0.000317,0.423770,0.672316,-0.390677,-0.464522,102.645453,17.067442,-74.019797
61761,-3.055488,7.305475,-3.732308,1.807375,1.126579,-1.321498,-0.158342,0.045096,-0.123461,-0.030518,0.073044,-0.037374,0.999999,-0.000792,0.000225,-0.000617,0.424111,0.672324,-0.389794,-0.464942,102.566442,17.130624,-73.976881
61762,-2.131093,6.151105,-4.353737,2.787268,0.786134,-2.536307,0.408175,0.070947,-0.079487,-0.021302,0.061608,-0.043404,0.999998,0.002041,0.000355,-0.000397,0.422694,0.673509,-0.390318,-0.464077,102.815173,17.166534,-73.924477
61763,-2.218941,6.277598,-4.439093,2.776379,0.822138,-2.352617,1.103263,0.129530,0.009355,-0.022221,0.063018,-0.044029,0.999985,0.005516,0.000648,0.000047,0.419253,0.676110,-0.392626,-0.461461,103.468435,17.144226,-73.849736
61764,-2.312711,7.796939,-3.256652,1.290592,0.117778,-1.148678,1.870382,0.078645,0.131533,-0.023191,0.078254,-0.031826,0.999956,0.009352,0.000393,0.000658,0.413372,0.679927,-0.397198,-0.457228,104.547711,17.060599,-73.822549
61765,-2.218323,9.028629,-2.744617,0.455299,-0.529166,-0.144212,2.112738,-0.000292,0.246032,-0.022294,0.090542,-0.026491,0.999943,0.010563,-0.000001,0.001230,0.406735,0.683764,-0.402838,-0.452499,105.746119,16.924349,-73.860861
61766,-2.573363,9.984303,-1.724052,-0.987367,-0.755832,0.566648,2.176328,-0.007807,0.326128,-0.025896,0.099981,-0.016154,0.999939,0.010881,-0.000039,0.001631,0.399994,0.687476,-0.408863,-0.447452,106.975685,16.746670,-73.919785
61767,-3.053588,10.403032,-1.368516,-1.738217,-0.537661,0.962601,1.797971,-0.047079,0.342850,-0.030711,0.104095,-0.012757,0.999958,0.008990,-0.000235,0.001714,0.394475,0.690235,-0.414136,-0.443235,107.979695,16.567162,-74.007860
61768,-2.894503,10.436098,-1.355353,-1.885885,-0.702436,0.914627,1.473193,-0.050273,0.296755,-0.029097,0.104414,-0.012792,0.999972,0.007366,-0.000251,0.001484,0.389935,0.692396,-0.418507,-0.439761,108.799510,16.415220,-74.091817
61769,-3.130217,11.204692,-1.803390,-1.843280,-0.678434,1.794920,0.993469,0.018478,0.154747,-0.031391,0.112110,-0.017474,0.999987,0.004967,0.000092,0.000774,0.386877,0.694039,-0.421182,-0.437311,109.362344,16.327716,-74.111245
61770,-3.505900,11.249336,-2.280595,-1.572566,-0.273953,2.082353,0.150222,0.040707,-0.033605,-0.035045,0.112516,-0.022714,1.000000,0.000751,0.000204,-0.000168,0.386371,0.694490,-0.421309,-0.436920,109.456270,16.338418,-74.081238
61771,-3.176041,10.182139,-2.677910,-0.839900,-0.149441,1.151184,-0.385437,0.089258,-0.193290,-0.031674,0.101800,-0.026961,0.999998,-0.001927,0.000446,-0.000966,0.387482,0.694344,-0.419619,-0.437795,109.259600,16.425700,-73.992331
61772,-3.021271,9.188208,-3.105270,-0.102881,0.119311,0.344512,-0.754111,0.126387,-0.299835,-0.030095,0.091809,-0.031380,0.999992,-0.003771,0.000632,-0.001499,0.389709,0.693783,-0.416673,-0.439518,108.863838,16.564725,-73.862061
61773,-2.714454,8.266460,-3.054260,0.215315,0.143943,-0.595111,-0.736004,0.130492,-0.323770,-0.027031,0.082595,-0.030829,0.999992,-0.003680,0.000652,-0.001619,0.391826,0.693302,-0.413670,-0.441226,108.480254,16.716283,-73.725793
61774,-2.377614,7.869170,-3.222011,0.604176,-0.002448,-1.003994,-0.461819,0.077744,-0.242213,-0.023693,0.078646,-0.032393,0.999997,-0.002309,0.000389,-0.001211,0.393056,0.693068,-0.411652,-0.442387,108.241017,16.834277,-73.635596
61775,-2.283699,7.807660,-3.008289,0.465805,-0.113492,-1.152735,-0.056281,0.007049,-0.145657,-0.022781,0.078085,-0.030104,1.000000,-0.000281,0.000035,-0.000728,0.392950,0.693270,-0.411005,-0.442765,108.217050,16.912035,-73.603948
61776,-2.817962,8.129039,-2.996515,0.235602,0.249560,-0.708652,0.237471,-0.145699,-0.046225,-0.028139,0.081332,-0.029889,0.999999,0.001187,-0.000728,-0.000231,0.391728,0.693509,-0.411650,-0.442875,108.330987,16.963655,-73.677723
61777,-2.201290,8.784939,-3.369767,0.578252,-0.493859,-0.179527,0.466378,-0.184476,0.083093,-0.022018,0.087919,-0.033513,0.999997,0.002332,-0.000922,0.000415,0.389922,0.693839,-0.413327,-0.442391,108.562233,16.951690,-73.797939
61778,-2.210200,9.547738,-2.861529,-0.118159,-0.847934,0.360782,0.488823,-0.034188,0.194043,-0.022190,0.095525,-0.028386,0.999997,0.002444,-0.000171,0.000970,0.388586,0.694313,-0.415141,-0.441121,108.825357,16.852927,-73.854153
61779,-2.261947,9.417553,-2.891971,-0.108849,-0.734968,0.267892,0.155369,0.062406,0.275769,-0.022758,0.094167,-0.028839,0.999999,0.000777,0.000312,0.001379,0.388792,0.694177,-0.416315,-0.440046,108.908371,16.691601,-73.871823
61780,-2.311747,8.964161,-3.138417,0.185483,-0.461135,-0.050373,0.272257,0.217659,0.338734,-0.023303,0.089645,-0.031237,0.999997,0.001361,0.001088,0.001694,0.389048,0.694479,-0.417660,-0.438065,109.080147,16.467705,-73.814282
61781,-3.740956,9.240174,-2.310813,-1.074855,0.641428,0.343517,0.311107,0.217126,0.295265,-0.037571,0.092382,-0.022924,0.999997,0.001556,0.001086,0.001476,0.389074,0.694939,-0.418939,-0.436087,109.275779,16.266801,-73.749388
61782,-3.720362,9.458554,-3.669960,0.106637,0.801871,0.963187,0.291152,0.067287,0.154228,-0.037289,0.094610,-0.036549,0.999999,0.001456,0.000336,0.000771,0.388543,0.695328,-0.419973,-0.434944,109.444101,16.170871,-73.741621
61783,-3.443814,9.671652,-4.054305,0.442847,0.539247,1.203254,0.516425,0.033909,0.032940,-0.034461,0.096815,-0.040287,0.999997,0.002582,0.000170,0.000165,0.386896,0.696331,-0.421139,-0.433677,109.742651,16.146322,-73.728804
61784,-3.311566,10.524250,-2.990750,-0.775514,-0.076871,1.591844,0.473184,-0.012474,-0.036938,-0.033094,0.105319,-0.029660,0.999997,0.002366,-0.000062,-0.000185,0.385145,0.697296,-0.422054,-0.432796,110.013385,16.168918,-73.727907
61785,-2.780909,10.755846,-2.346901,-1.315391,-0.771046,1.439195,0.042980,0.007460,-0.085024,-0.027764,0.107575,-0.023445,1.000000,0.000215,0.000037,-0.000425,0.384834,0.697572,-0.421832,-0.432844,110.043212,16.212967,-73.706004
61786,-2.370882,9.867929,-2.365102,-0.946369,-0.841088,0.530797,-0.335959,0.068325,-0.078164,-0.023678,0.098649,-0.023809,0.999998,-0.001680,0.000342,-0.000391,0.385984,0.697237,-0.420695,-0.433466,109.865263,16.241954,-73.651400
61787,-2.922621,8.736438,-3.262623,0.056033,0.221622,-0.042354,-0.379732,0.077523,-0.049301,-0.029217,0.087309,-0.032781,0.999998,-0.001899,0.000388,-0.000247,0.387371,0.696773,-0.419545,-0.434089,109.661850,16.253264,-73.597561
61788,-3.006542,8.961533,-3.518960,0.239301,0.271273,0.267023,-0.172632,0.036615,-0.022307,-0.030062,0.089588,-0.035261,1.000000,-0.000863,0.000183,-0.000112,0.388005,0.696564,-0.419016,-0.434369,109.569292,16.258497,-73.572159
61789,-2.699786,8.844694,-3.019311,-0.102116,-0.054316,-0.085390,-0.083507,-0.017620,0.035152,-0.027011,0.088430,-0.030232,1.000000,-0.000418,-0.000088,0.000176,0.388342,0.696288,-0.418987,-0.434538,109.515901,16.242640,-73.588736
61790,-2.580329,8.523218,-3.783712,0.725388,0.087932,-0.164584,-0.014070,-0.056127,0.085948,-0.025829,0.085218,-0.037850,1.000000,-0.000070,-0.000281,0.000430,0.388465,0.695958,-0.419359,-0.434598,109.493581,16.207201,-73.637078
61791,-2.295750,8.766936,-3.644436,0.608774,-0.276888,-0.067726,0.101837,-0.045067,0.118639,-0.023001,0.087674,-0.036405,1.000000,0.000509,-0.000225,0.000593,0.388281,0.695807,-0.420077,-0.434311,109.537472,16.151503,-73.685713
61792,-2.393558,9.552290,-3.238924,0.007885,-0.519289,0.540875,-0.061885,-0.015338,0.127164,-0.023994,0.095498,-0.032421,1.000000,-0.000309,-0.000077,0.000636,0.388744,0.695386,-0.420409,-0.434250,109.491986,16.085982,-73.719292
61793,-2.589193,9.057819,-3.928054,0.724067,-0.032884,0.368287,-0.109024,0.051538,0.118474,-0.025956,0.090541,-0.039323,1.000000,-0.000545,0.000258,0.000592,0.389496,0.695035,-0.420480,-0.434070,109.430215,16.011889,-73.713502
61794,-3.122345,9.114687,-3.285112,-0.031374,0.339130,0.360931,0.020331,0.032079,0.105558,-0.031277,0.091134,-0.032837,1.000000,0.000102,0.000160,0.000528,0.389726,0.694922,-0.420823,-0.433712,109.440486,15.948924,-73.716013
61795,-3.108005,8.529426,-3.369018,0.187538,0.547648,-0.146975,0.117558,-0.030148,0.078114,-0.031108,0.085302,-0.033645,1.000000,0.000588,-0.000151,0.000391,0.389431,0.694919,-0.421404,-0.433417,109.498125,15.912232,-73.748112
61796,-2.823523,8.627242,-2.832363,-0.275650,0.156280,-0.308824,0.258656,-0.029782,0.024761,-0.028242,0.086305,-0.028216,0.999999,0.001293,-0.000149,0.000124,0.388526,0.695305,-0.422102,-0.432929,109.639824,15.904797,-73.769376
61797,-2.892750,9.589058,-2.705374,-0.674657,-0.137673,0.539266,0.246510,-0.075409,-0.013768,-0.028911,0.095926,-0.026946,0.999999,0.001233,-0.000377,-0.000069,0.387488,0.695647,-0.422730,-0.432698,109.769413,15.926537,-73.808558
61798,-2.232479,10.241244,-3.214851,-0.194584,-0.886860,1.113333,-0.079837,-0.021458,-0.013819,-0.022314,0.102401,-0.032192,1.000000,-0.000399,-0.000107,-0.000069,0.387694,0.695475,-0.422545,-0.432970,109.720526,15.938370,-73.817434
61799,-2.776817,9.953652,-2.813142,-0.623429,-0.352759,0.873121,-0.246697,-0.060590,-0.005896,-0.027757,0.099503,-0.028263,0.999999,-0.001233,-0.000303,-0.000029,0.388418,0.694876,-0.422104,-0.433713,109.569352,15.952969,-73.849906
61800,-2.419940,8.860643,-4.087280,0.966932,-0.079538,0.193886,-0.460923,-0.082669,0.001403,-0.024183,0.088512,-0.041087,0.999997,-0.002305,-0.000413,0.000007,0.389852,0.693796,-0.421263,-0.434972,109.291756,15.968153,-73.896282
61801,-2.458683,8.109597,-3.942461,1.045563,0.197286,-0.527136,-0.360572,-0.098947,0.028682,-0.024579,0.081021,-0.039583,0.999998,-0.001803,-0.000495,0.000143,0.390963,0.692814,-0.420766,-0.436018,109.067486,15.971006,-73.957240
61802,-2.666754,7.908699,-3.061942,0.239714,0.310128,-0.931194,-0.094429,-0.126429,0.046873,-0.026667,0.079066,-0.030674,1.000000,-0.000472,-0.000632,0.000234,0.391130,0.692255,-0.420965,-0.436565,108.990711,15.969404,-74.037172
61803,-2.522820,6.875248,-3.214664,0.668233,0.554914,-1.862012,0.242736,-0.126273,0.083610,-0.025237,0.068781,-0.032079,0.999999,0.001214,-0.000631,0.000418,0.390214,0.692276,-0.422026,-0.436327,109.104953,15.947484,-74.124209
61804,-3.194553,7.443312,-3.176595,0.280718,0.965361,-1.170479,0.883015,-0.259243,0.082371,-0.031935,0.074559,-0.031478,0.999989,0.004415,-0.001296,0.000412,0.386790,0.693252,-0.424734,-0.435197,109.565839,15.952321,-74.285807
61805,-3.039495,8.199435,-2.680342,-0.407506,0.457966,-0.687067,1.233971,-0.343258,0.075647,-0.030381,0.082146,-0.026349,0.999979,0.006170,-0.001716,0.000378,0.381948,0.694714,-0.428332,-0.433612,110.214915,15.978222,-74.493154
61806,-3.004095,11.008500,-3.509520,-0.470339,-0.435803,2.108558,1.132913,-0.430398,0.040595,-0.029989,0.110276,-0.034535,0.999982,0.005665,-0.002152,0.000203,0.377175,0.695846,-0.431738,-0.432597,110.794896,16.043062,-74.741511
61807,-2.422243,11.828171,-3.261648,-0.862098,-1.325029,2.593441,0.564066,-0.355305,0.026753,-0.024181,0.118370,-0.032326,0.999994,0.002820,-0.001777,0.000134,0.374509,0.696077,-0.433715,-0.432563,111.060912,16.101199,-74.944744
61808,-2.721039,10.724672,-3.441854,-0.486595,-0.659089,1.745765,0.058287,-0.337683,0.006656,-0.027156,0.107256,-0.034433,0.999999,0.000291,-0.001688,0.000033,0.373592,0.695440,-0.434490,-0.433601,111.041079,16.167321,-75.133755
61809,-2.879013,8.420897,-4.112385,0.756269,0.364514,-0.045033,-0.116729,-0.322914,-0.014308,-0.028718,0.084187,-0.041219,0.999999,-0.000584,-0.001615,-0.000072,0.373272,0.694551,-0.434786,-0.435004,110.924040,16.240965,-75.310248
61810,-3.007093,7.405262,-3.901008,0.833100,0.792063,-0.993565,-0.077914,-0.328021,-0.036362,-0.029993,0.074043,-0.039088,0.999999,-0.000390,-0.001640,-0.000182,0.372754,0.693770,-0.435096,-0.436382,110.829678,16.327575,-75.485064
61811,-2.627538,7.719068,-3.269730,0.266900,0.233741,-1.034692,-0.058078,-0.292452,-0.053034,-0.026207,0.077188,-0.032758,0.999999,-0.000290,-0.001462,-0.000265,0.372211,0.693136,-0.435326,-0.437621,110.752742,16.415202,-75.636747
61812,-2.445987,8.556009,-3.441814,0.256612,-0.208586,-0.277237,-0.163811,-0.239751,-0.046569,-0.024399,0.085538,-0.034517,0.999999,-0.000819,-0.001199,-0.000233,0.372158,0.692407,-0.435247,-0.438897,110.623185,16.488893,-75.760498
61813,-2.719585,9.486399,-3.439213,-0.036196,-0.279532,0.634156,-0.320641,-0.210581,-0.044150,-0.027139,0.094815,-0.034573,0.999998,-0.001603,-0.001053,-0.000221,0.372720,0.691442,-0.434777,-0.440406,110.407775,16.554611,-75.868772
61814,-2.582335,8.956120,-3.630488,0.367645,-0.198827,0.181611,-0.545875,-0.185174,-0.046321,-0.025769,0.089468,-0.036573,0.999996,-0.002729,-0.000926,-0.000232,0.374105,0.690115,-0.433753,-0.442318,110.067566,16.616392,-75.962636
61815,-2.494820,7.578469,-4.112162,1.259609,0.261585,-0.929447,-0.512582,-0.137610,-0.034247,-0.024907,0.075683,-0.041333,0.999996,-0.002563,-0.000688,-0.000171,0.375506,0.688921,-0.432753,-0.443968,109.752915,16.661437,-76.032683
61816,-2.399530,6.946955,-4.286459,1.644832,0.414963,-1.475184,-0.226336,-0.099203,-0.040510,-0.023960,0.069426,-0.042955,0.999999,-0.001132,-0.000496,-0.000203,0.375984,0.688364,-0.432291,-0.444876,109.609079,16.702603,-76.079929
61817,-2.315909,7.427264,-3.770246,1.065916,0.100660,-1.233869,0.019358,-0.068439,-0.028462,-0.023136,0.074280,-0.037703,1.000000,0.000097,-0.000342,-0.000142,0.375714,0.688308,-0.432361,-0.445124,109.609915,16.730871,-76.112431
61818,-2.595580,7.915006,-3.444146,0.566530,0.145307,-0.817999,0.086853,-0.057089,-0.007823,-0.025943,0.079166,-0.034414,1.000000,0.000434,-0.000285,-0.000039,0.375277,0.688362,-0.432629,-0.445148,109.650529,16.746243,-76.142504
61819,-2.872231,8.407916,-2.442509,-0.570593,0.096813,-0.616294,0.100486,-0.063384,-0.018871,-0.028707,0.084094,-0.024392,1.000000,0.000502,-0.000317,-0.000094,0.374760,0.688448,-0.432903,-0.445185,109.698099,16.768398,-76.174064
61820,-3.061551,9.499151,-2.300531,-1.031156,-0.126043,0.376534,-0.078595,-0.070930,-0.047944,-0.030585,0.094990,-0.023053,1.000000,-0.000393,-0.000355,-0.000240,0.374773,0.688248,-0.432691,-0.445689,109.643976,16.808115,-76.203851
61821,-3.335939,10.690765,-1.929302,-1.727439,-0.335025,1.414365,-0.343273,-0.104046,-0.103833,-0.033294,0.106892,-0.019494,0.999998,-0.001716,-0.000520,-0.000519,0.375505,0.687594,-0.431758,-0.446984,109.435505,16.883867,-76.241408
61822,-3.364596,10.684742,-2.075688,-1.531710,-0.292222,1.472726,-0.737732,-0.117752,-0.161701,-0.033547,0.106797,-0.021171,0.999993,-0.003689,-0.000589,-0.000809,0.377427,0.686291,-0.429766,-0.449283,109.002239,16.993740,-76.275655
61823,-3.409621,8.908938,-2.834941,-0.288913,0.461704,0.123816,-1.036356,-0.119787,-0.208950,-0.033986,0.088976,-0.028831,0.999986,-0.005182,-0.000599,-0.001045,0.380258,0.684503,-0.426937,-0.452309,108.399479,17.128897,-76.303148
61824,-3.230770,7.030002,-2.554096,0.028219,0.907190,-1.715904,-0.988401,-0.127559,-0.241203,-0.032207,0.070211,-0.025909,0.999987,-0.004942,-0.000638,-0.001206,0.382822,0.682842,-0.424107,-0.455310,107.824420,17.283179,-76.330458
61825,-3.040000,6.141016,-2.539435,0.327186,1.033101,-2.585804,-0.714463,-0.114674,-0.221105,-0.030318,0.061352,-0.025631,0.999993,-0.003572,-0.000573,-0.001106,0.384519,0.681675,-0.421938,-0.457637,107.406677,17.423566,-76.355538
61826,-3.020565,6.765203,-2.396066,0.097971,0.772646,-2.065027,-0.395912,-0.101682,-0.148714,-0.030143,0.067627,-0.024110,0.999998,-0.001980,-0.000508,-0.000744,0.385316,0.680994,-0.420714,-0.459106,107.169795,17.522531,-76.386862
61827,-3.147806,8.731808,-1.575805,-1.115370,0.086073,-0.464703,-0.165361,-0.086294,-0.057580,-0.031446,0.087314,-0.015844,1.000000,-0.000827,-0.000431,-0.000288,0.385573,0.680596,-0.420300,-0.459859,107.062384,17.568374,-76.425873
61828,-2.895378,11.679708,-1.276116,-1.959510,-1.216069,2.066229,-0.254309,-0.145326,0.046933,-0.028972,0.116774,-0.012931,0.999999,-0.001272,-0.000727,0.000235,0.386244,0.679673,-0.420148,-0.460799,106.888438,17.567307,-76.517216
61829,-2.791059,14.095585,-1.486447,-2.192390,-2.106979,4.309574,-0.675709,-0.143594,0.091759,-0.027964,0.140892,-0.015361,0.999994,-0.003379,-0.000718,0.000459,0.388455,0.677839,-0.419174,-0.462527,106.470786,17.540324,-76.615336
61830,-3.092064,14.189593,-2.504324,-1.172747,-1.685199,4.780430,-1.246944,-0.074790,0.038015,-0.030938,0.141730,-0.025939,0.999980,-0.006235,-0.000374,0.000190,0.392609,0.675150,-0.416550,-0.465314,105.740661,17.531529,-76.664519
61831,-3.094833,11.345383,-3.963709,0.973780,-0.451003,2.550615,-1.776240,0.000431,-0.057717,-0.030916,0.113105,-0.040643,0.999961,-0.008881,0.000002,-0.000289,0.398463,0.671756,-0.412201,-0.469107,104.724980,17.563146,-76.654784
61832,-3.162665,6.789970,-4.818529,2.758851,1.339155,-1.450962,-1.542139,0.022854,-0.142187,-0.031584,0.067548,-0.048703,0.999970,-0.007711,0.000114,-0.000711,0.403350,0.669009,-0.408042,-0.472480,103.851013,17.639024,-76.620045
61833,-2.893895,5.325160,-4.359152,2.700125,1.537681,-3.024552,-0.805850,-0.057888,-0.208318,-0.028871,0.053105,-0.043814,0.999991,-0.004029,-0.000289,-0.001042,0.405439,0.667664,-0.405551,-0.474734,103.387187,17.762619,-76.624001
61834,-2.537608,7.120613,-3.440632,1.650949,0.443477,-1.685071,-0.255499,-0.095940,-0.258882,-0.025267,0.071195,-0.034509,0.999998,-0.001277,-0.000480,-0.001294,0.405486,0.667443,-0.404268,-0.476098,103.234060,17.919856,-76.643850
61835,-2.414177,9.164651,-2.388810,0.378241,-0.557894,-0.062248,-0.249530,-0.067075,-0.281594,-0.024005,0.091650,-0.024011,0.999998,-0.001248,-0.000335,-0.001408,0.405519,0.667343,-0.402865,-0.477397,103.090080,18.085497,-76.644186
61836,-2.105338,10.087758,-1.905751,-0.116730,-1.258582,0.590642,-0.478071,-0.034871,-0.273050,-0.020912,0.100860,-0.019302,0.999996,-0.002390,-0.000174,-0.001365,0.406394,0.666839,-0.400876,-0.479028,102.820867,18.242653,-76.627239
61837,-2.227551,7.964186,-3.018459,1.299432,-0.236598,-1.108870,-0.829830,0.085545,-0.207074,-0.022206,0.079539,-0.030505,0.999991,-0.004149,0.000428,-0.001035,0.408840,0.665764,-0.398016,-0.480823,102.368993,18.347545,-76.549225
61838,-2.966671,6.792768,-2.987145,1.316150,0.853708,-1.976572,-0.469547,0.057535,-0.098481,-0.029642,0.067872,-0.030022,0.999997,-0.002348,0.000288,-0.000492,0.410284,0.665138,-0.396435,-0.481766,102.114257,18.395836,-76.502114
61839,-3.286094,6.350814,-2.836657,1.172192,1.280905,-2.318481,0.041969,0.034311,0.022014,-0.032873,0.063510,-0.028348,1.000000,0.000210,0.000172,0.000110,0.410272,0.665261,-0.396534,-0.481524,102.143028,18.379168,-76.484266
61840,-3.723346,7.122710,-2.535746,0.654307,1.365494,-1.522127,0.698644,-0.012295,0.161107,-0.037289,0.071285,-0.025111,0.999994,0.003493,-0.000061,0.000806,0.408312,0.666343,-0.398769,-0.479846,102.534260,18.290701,-76.511673
61841,-3.733331,9.246473,-2.577215,0.313594,0.639504,0.461975,1.205674,-0.088645,0.289104,-0.037456,0.092564,-0.025231,0.999981,0.006028,-0.000443,0.001446,0.404812,0.668000,-0.402794,-0.477138,103.195844,18.140313,-76.602243
61842,-3.558278,11.741064,-1.823200,-0.886307,-0.503805,2.548407,1.315660,-0.161150,0.361811,-0.035781,0.117463,-0.017488,0.999976,0.006578,-0.000806,0.001809,0.400949,0.669536,-0.407452,-0.474283,103.904394,17.960689,-76.747096
61843,-3.769416,13.267404,-1.111770,-2.002583,-0.929163,3.847244,0.881277,-0.176572,0.303700,-0.037886,0.132664,-0.010567,0.999989,0.004406,-0.000883,0.001518,0.398362,0.670256,-0.410903,-0.472465,104.363160,17.816434,-76.894456
61844,-3.665578,13.150157,-1.214506,-1.923858,-0.952902,3.723517,0.123607,-0.185279,0.137453,-0.036735,0.131484,-0.012098,0.999999,0.000618,-0.000926,0.000687,0.397894,0.669783,-0.412019,-0.472558,104.394365,17.766744,-77.022432
61845,-3.273714,11.631965,-1.576367,-1.198357,-0.731723,2.292390,-0.525150,-0.137697,-0.027265,-0.032710,0.116282,-0.016092,0.999996,-0.002626,-0.000688,-0.000136,0.399311,0.668465,-0.410955,-0.474154,104.069389,17.801062,-77.098332
61846,-3.143826,9.545078,-2.104627,-0.228746,-0.053810,0.452094,-0.861203,-0.150882,-0.112794,-0.031368,0.095377,-0.021481,0.999990,-0.004306,-0.000754,-0.000564,0.401612,0.666613,-0.408827,-0.476649,103.553397,17.884652,-77.169832
61847,-2.905921,8.143631,-2.508733,0.521161,0.268132,-0.828654,-0.830626,-0.175484,-0.147960,-0.028977,0.081353,-0.025451,0.999991,-0.004153,-0.000877,-0.000740,0.403673,0.664822,-0.406699,-0.479225,103.051336,17.990073,-77.251794
61848,-2.228211,7.918010,-2.760871,1.012160,-0.244969,-1.198897,-0.741633,-0.109437,-0.149693,-0.022208,0.079094,-0.027914,0.999993,-0.003708,-0.000547,-0.000748,0.405557,0.663363,-0.404636,-0.481397,102.612217,18.087830,-77.295562
61849,-2.142722,8.019497,-2.375983,0.698204,-0.414018,-1.216768,-0.547829,0.014364,-0.098921,-0.021389,0.080140,-0.023978,0.999996,-0.002739,0.000072,-0.000495,0.407171,0.662482,-0.402954,-0.482656,102.304178,18.141190,-77.273858
61850,-2.103905,8.624959,-2.903271,1.177882,-0.570006,-0.564293,-0.592085,0.178284,-0.042220,-0.021047,0.086168,-0.029269,0.999995,-0.002960,0.000891,-0.000211,0.409392,0.661789,-0.401015,-0.483343,101.998913,18.143499,-77.162872
61851,-1.961656,8.379797,-2.919704,1.301288,-0.593785,-0.837854,-0.588857,0.317875,0.084102,-0.019698,0.083703,-0.029412,0.999994,-0.002944,0.001589,0.000421,0.412185,0.661178,-0.399213,-0.483297,101.715764,18.058713,-76.985378
61852,-1.974353,7.849819,-3.352902,1.821604,-0.297166,-1.248056,-0.538420,0.419374,0.211771,-0.019897,0.078387,-0.033699,0.999994,-0.002692,0.002097,0.001059,0.415316,0.660656,-0.397740,-0.482545,101.475413,17.891644,-76.762954
61853,-2.500651,6.287986,-4.039698,2.583710,0.874904,-2.418771,-0.334951,0.408249,0.321699,-0.025190,0.062772,-0.040451,0.999995,-0.001675,0.002041,0.001608,0.418015,0.660300,-0.397140,-0.481193,101.344540,17.664492,-76.560073
61854,-2.557682,5.578781,-2.866613,1.507737,0.997766,-3.284819,0.354075,0.386647,0.301745,-0.025716,0.055800,-0.028518,0.999995,0.001770,0.001933,0.001509,0.418341,0.661371,-0.398173,-0.478578,101.605114,17.451053,-76.367720
61855,-3.035009,6.141862,-1.459113,-0.082495,1.022158,-2.883708,0.845711,0.464408,0.188181,-0.030441,0.061451,-0.014261,0.999988,0.004229,0.002322,0.000941,0.416922,0.663866,-0.399838,-0.474960,102.163389,17.290544,-76.117774
61856,-3.419558,7.691856,-0.211364,-1.658032,0.645696,-1.582492,0.967206,0.264078,0.123475,-0.034245,0.076906,-0.001697,0.999987,0.004836,0.001320,0.000617,0.414530,0.666257,-0.401985,-0.471884,102.758640,17.188942,-75.978322
61857,-2.828660,9.472256,-0.134466,-1.925171,-0.512552,-0.129006,0.613005,0.223476,0.074229,-0.028323,0.094716,-0.001023,0.999995,0.003065,0.001117,0.000371,0.413117,0.667900,-0.403208,-0.469752,103.144648,17.118585,-75.857323
61858,-3.133098,9.358305,-0.353532,-1.800987,-0.153679,-0.104341,-0.090504,0.280345,0.048367,-0.031359,0.093574,-0.003534,0.999999,-0.000453,0.001402,0.000242,0.414100,0.668276,-0.402572,-0.468897,103.138746,17.055239,-75.699622
61859,-3.216867,8.866320,-1.242064,-0.880173,0.251815,-0.343559,-0.437699,0.277144,-0.005418,-0.032184,0.088637,-0.012570,0.999997,-0.002188,0.001386,-0.000027,0.416114,0.668026,-0.400948,-0.468862,102.934795,17.022231,-75.536708
61860,-2.993506,8.769783,-1.124047,-0.907530,0.064320,-0.522591,-0.221944,0.336715,0.012692,-0.029960,0.087683,-0.011287,0.999998,-0.001110,0.001684,0.000063,0.417562,0.668328,-0.399764,-0.468155,102.864304,16.972265,-75.341177
61861,-2.945879,8.676147,-2.015312,-0.021636,0.225225,-0.433775,-0.135184,0.226015,0.075379,-0.029514,0.086737,-0.020178,0.999999,-0.000676,0.001130,0.000377,0.418649,0.668421,-0.399222,-0.467512,102.821581,16.901162,-75.218849
61862,-2.943186,7.831079,-2.285609,0.353611,0.564216,-1.165795,0.052764,0.211686,0.101080,-0.029496,0.078302,-0.022804,0.999999,0.000264,0.001058,0.000505,0.419135,0.668825,-0.399234,-0.466487,102.883390,16.817930,-75.108190
61863,-3.328556,7.955031,-2.333792,0.259111,0.894515,-0.927816,0.445672,0.181457,0.094630,-0.033344,0.079586,-0.023130,0.999997,0.002228,0.000907,0.000473,0.418233,0.669990,-0.400204,-0.464792,103.164804,16.741464,-75.014775
61864,-2.704697,9.101503,-2.395258,0.245820,-0.049777,-0.023578,0.716303,0.115473,0.151246,-0.027130,0.091080,-0.023611,0.999993,0.003582,0.000577,0.000756,0.416416,0.671450,-0.402126,-0.462652,103.588194,16.642113,-74.967933
61865,-2.781490,10.123112,-1.594655,-0.790138,-0.468040,0.766184,1.092314,0.081939,0.214084,-0.027930,0.101286,-0.015382,0.999984,0.005462,0.000410,0.001070,0.413410,0.673471,-0.405190,-0.459728,104.218039,16.511548,-74.950759
61866,-2.789087,10.932698,-1.882775,-0.752459,-0.676535,1.581311,0.776475,-0.011425,0.188562,-0.027993,0.109373,-0.018405,0.999992,0.003882,-0.000057,0.000943,0.411205,0.674664,-0.407624,-0.457801,104.652748,16.408789,-74.984900
61867,-2.431075,9.765875,-2.694011,0.253294,-0.472997,0.591743,0.244189,0.156580,0.097602,-0.024379,0.097680,-0.026802,0.999999,0.001221,0.000783,0.000488,0.410931,0.675322,-0.408186,-0.456574,104.813168,16.331668,-74.908919
61868,-2.696197,8.195640,-2.733052,0.473345,0.302329,-0.779855,0.173487,0.286157,0.044626,-0.027019,0.081974,-0.027221,0.999999,0.000867,0.001431,0.000223,0.411034,0.676241,-0.408138,-0.455162,104.956592,16.265026,-74.750136
61869,-2.497301,7.475687,-3.866163,1.691732,0.563791,-1.216782,0.581404,0.138071,0.069288,-0.025026,0.074860,-0.038427,0.999995,0.002907,0.000690,0.000346,0.409513,0.677604,-0.409406,-0.453364,105.308130,16.205828,-74.681022
61870,-2.284377,7.703661,-3.310462,1.090035,0.177348,-1.192767,1.434600,0.166092,0.165822,-0.022935,0.077252,-0.032532,0.999974,0.007173,0.000830,0.000829,0.405361,0.680562,-0.412863,-0.449514,106.148880,16.088771,-74.611885
61871,-2.858741,10.768942,-1.874118,-1.186677,-0.583889,1.407917,1.929656,0.015179,0.228200,-0.028712,0.107831,-0.017699,0.999953,0.009648,0.000076,0.001141,0.399327,0.684002,-0.417922,-0.444995,107.245291,15.960804,-74.641938
61872,-2.818200,12.721408,-2.099047,-1.571479,-1.248543,3.231540,1.259754,-0.032157,0.184463,-0.028296,0.127317,-0.020193,0.999980,0.006299,-0.000161,0.000922,0.395357,0.686047,-0.421406,-0.442095,107.952663,15.865793,-74.692855
61873,-3.305844,11.736528,-2.221532,-1.468401,-0.455695,2.485510,0.541322,0.054377,0.098745,-0.033122,0.117408,-0.021889,0.999996,0.002707,0.000272,0.000494,0.393839,0.687025,-0.422829,-0.440572,108.265421,15.802092,-74.679996
61874,-2.710475,9.650315,-3.118367,-0.024023,-0.163803,0.683600,0.069523,-0.021926,0.048209,-0.027125,0.096507,-0.031153,1.000000,0.000348,-0.000110,0.000241,0.393664,0.687012,-0.423185,-0.440406,108.298971,15.779921,-74.700904
61875,-2.010834,7.268096,-3.947554,1.478827,0.119463,-1.431122,0.191353,0.047388,0.080663,-0.020147,0.072711,-0.039401,0.999999,0.000957,0.000237,0.000403,0.393292,0.687320,-0.423786,-0.439680,108.410964,15.727261,-74.688894
61876,-2.177346,6.470453,-4.109028,1.741243,0.564955,-2.057666,0.703843,0.079391,0.156054,-0.021840,0.064832,-0.040854,0.999993,0.003519,0.000397,0.000780,0.391385,0.688544,-0.425706,-0.437606,108.817929,15.628100,-74.673237
61877,-2.334216,7.533820,-3.553109,0.842329,0.259505,-1.207236,1.262387,0.070772,0.248742,-0.023448,0.075531,-0.035046,0.999979,0.006312,0.000354,0.001244,0.387734,0.690624,-0.429173,-0.434180,109.538042,15.479921,-74.681727
61878,-2.511498,9.035042,-2.963512,-0.258086,-0.176384,0.016999,1.415626,0.054321,0.289130,-0.025254,0.090521,-0.028988,0.999974,0.007078,0.000272,0.001446,0.383583,0.692849,-0.433123,-0.430382,110.341361,15.313669,-74.709396
61879,-2.529101,9.833583,-2.385235,-1.143118,-0.519072,0.541427,1.158414,0.059722,0.255814,-0.025424,0.098439,-0.023275,0.999982,0.005792,0.000299,0.001279,0.380250,0.694631,-0.436376,-0.427169,110.998897,15.164198,-74.729492
61880,-2.645551,9.691093,-2.642542,-0.993996,-0.325161,0.521961,0.773360,0.061318,0.144975,-0.026534,0.096993,-0.026042,0.999992,0.003867,0.000307,0.000725,0.378009,0.695912,-0.438406,-0.424990,111.442372,15.074116,-74.726174
61881,-2.479695,9.400392,-3.109045,-0.490037,-0.314968,0.377652,0.251181,0.065372,0.015700,-0.024814,0.094041,-0.030964,0.999999,0.001256,0.000327,0.000079,0.377319,0.696489,-0.438867,-0.424182,111.593962,15.051746,-74.693165
61882,-2.595494,8.992124,-3.039249,-0.475189,-0.086035,0.015777,-0.075240,0.067774,-0.068955,-0.025934,0.089919,-0.030418,1.000000,-0.000376,0.000339,-0.000345,0.377587,0.696642,-0.438334,-0.424242,111.564050,15.074256,-74.640224
61883,-2.234485,9.180401,-2.512345,-0.897847,-0.565011,-0.093684,-0.507786,0.129687,-0.107675,-0.022312,0.091752,-0.025342,0.999996,-0.002539,0.000648,-0.000538,0.379418,0.696190,-0.436631,-0.425105,111.297021,15.104272,-74.544899
61884,-2.246089,8.896037,-1.921074,-1.309438,-0.546133,-0.546532,-0.820332,0.265343,-0.121159,-0.022433,0.088894,-0.019546,0.999991,-0.004102,0.001327,-0.000606,0.382596,0.695456,-0.433954,-0.426199,110.871544,15.114392,-74.371634
61885,-2.697630,9.303568,-3.871766,0.330995,0.067925,0.613702,-0.704966,0.091437,-0.079463,-0.026957,0.092909,-0.039033,0.999994,-0.003525,0.000457,-0.000397,0.385082,0.694468,-0.431993,-0.427560,110.484409,15.138230,-74.303861
61886,-3.273836,9.292397,-5.305454,1.554726,0.852851,1.235839,-0.154162,-0.083047,0.005838,-0.032719,0.092882,-0.053140,1.000000,-0.000771,-0.000415,0.000029,0.385455,0.693981,-0.431839,-0.428171,110.383144,15.151740,-74.350817
61887,-2.320558,9.111086,-4.144134,0.763139,-0.168419,0.432302,0.464174,-0.088557,0.084069,-0.023226,0.091197,-0.041240,0.999997,0.002321,-0.000443,0.000420,0.383839,0.694500,-0.433290,-0.427313,110.630860,15.124143,-74.417185
61888,-3.142570,9.943553,-2.880252,-0.895282,0.108913,0.968419,0.471768,0.067962,0.057695,-0.031464,0.099494,-0.028557,0.999997,0.002359,0.000340,0.000288,0.382475,0.695424,-0.434362,-0.425944,110.907385,15.079458,-74.391113
61889,-2.426804,9.249623,-3.279393,-0.176529,-0.262339,0.291734,0.069926,0.015747,0.077545,-0.024306,0.092498,-0.032760,1.000000,0.000350,0.000079,0.000388,0.382438,0.695421,-0.434746,-0.425589,110.944633,15.034477,-74.398475
61890,-1.665384,8.892730,-3.208999,0.041911,-0.853527,-0.251228,0.134292,0.178869,0.162343,-0.016755,0.088935,-0.032015,0.999999,0.000671,0.000894,0.000812,0.382710,0.695705,-0.435249,-0.424365,111.037762,14.910957,-74.333448
61891,-2.727887,9.159522,-2.374070,-1.098428,-0.071285,-0.026843,0.068333,0.177692,0.183018,-0.027384,0.091578,-0.023685,0.999999,0.000342,0.000888,0.000915,0.383254,0.695812,-0.435686,-0.423248,111.091287,14.776250,-74.273808
61892,-2.903698,8.598532,-3.721799,0.248716,0.513956,-0.020242,-0.030600,0.112507,0.114899,-0.029107,0.085963,-0.037215,1.000000,-0.000153,0.000563,0.000574,0.383854,0.695741,-0.435801,-0.422704,111.082786,14.691638,-74.235665
61893,-2.639319,8.735877,-4.166787,0.679352,0.305958,0.191737,0.156519,0.097234,0.051224,-0.026436,0.087385,-0.041587,1.000000,0.000783,0.000486,0.000256,0.383637,0.696133,-0.436119,-0.421926,111.182479,14.643916,-74.192546
61894,-3.174415,8.943749,-3.644574,-0.034763,0.647675,0.332735,0.462826,0.090453,0.021597,-0.031770,0.089518,-0.036224,0.999997,0.002314,0.000452,0.000108,0.382272,0.697163,-0.436991,-0.420560,111.458581,14.613572,-74.146833
61895,-3.088588,9.476026,-3.612208,-0.247989,0.377114,0.778746,0.588997,0.055575,-0.016782,-0.030888,0.094869,-0.035834,0.999996,0.002945,0.000278,-0.000084,0.380311,0.698437,-0.438059,-0.419110,111.803873,14.610509,-74.112241
61896,-2.585545,10.155687,-3.218289,-0.725193,-0.392855,1.118919,0.389128,0.006235,-0.032331,-0.025840,0.101623,-0.031984,0.999998,0.001946,0.000031,-0.000162,0.378902,0.699260,-0.438744,-0.418298,112.028988,14.626432,-74.101212
61897,-2.277264,10.141274,-2.745192,-1.092649,-0.760794,0.854775,-0.011047,0.060691,-0.054338,-0.022753,0.101417,-0.027451,1.000000,-0.000055,0.000303,-0.000272,0.378967,0.699483,-0.438412,-0.418213,112.033306,14.641983,-74.055489
61898,-2.611352,9.820945,-3.102754,-0.745409,-0.287954,0.782529,-0.273166,0.102950,-0.090080,-0.026085,0.098179,-0.031148,0.999999,-0.001366,0.000515,-0.000450,0.379965,0.699377,-0.437325,-0.418624,111.895542,14.667825,-73.978579
61899,-2.826190,9.531579,-3.350599,-0.459507,0.049617,0.668302,-0.367993,0.039487,-0.085805,-0.028228,0.095266,-0.033676,0.999998,-0.001840,0.000197,-0.000429,0.381165,0.698945,-0.436175,-0.419453,111.694169,14.704810,-73.937654
61900,-2.460442,8.906694,-2.952518,-0.511788,-0.146879,-0.126783,-0.359249,0.010157,-0.032294,-0.024592,0.089018,-0.029684,0.999998,-0.001796,0.000051,-0.000161,0.382380,0.698350,-0.435284,-0.420263,111.490879,14.719917,-73.924636
61901,-2.455178,7.814109,-3.437164,0.275801,0.294271,-0.939155,-0.254678,-0.019517,-0.012999,-0.024543,0.078099,-0.034473,0.999999,-0.001273,-0.000098,-0.000065,0.383206,0.697848,-0.434736,-0.420911,111.342120,14.730672,-73.932246
61902,-2.757883,7.219068,-3.950182,0.841492,0.855161,-1.217028,0.182838,-0.073518,-0.033882,-0.027552,0.072231,-0.039446,1.000000,0.000914,-0.000368,-0.000169,0.382342,0.698116,-0.435139,-0.420836,111.437745,14.764165,-73.965103
61903,-2.452496,8.413190,-4.454212,1.027139,0.247395,-0.039244,0.360490,-0.154118,-0.067197,-0.024462,0.084220,-0.044409,0.999998,0.001802,-0.000771,-0.000336,0.380614,0.698624,-0.435952,-0.420718,111.625507,14.832125,-74.035106
61904,-2.349902,9.190651,-3.067324,-0.472163,-0.352795,0.139754,0.335707,-0.113293,-0.059890,-0.023454,0.091965,-0.030532,0.999998,0.001679,-0.000566,-0.000299,0.379072,0.699153,-0.436659,-0.420496,111.804646,14.888098,-74.083936
61905,-2.860061,9.184775,-2.964145,-0.725766,0.087602,0.226820,0.340784,-0.188466,-0.088033,-0.028532,0.091911,-0.029512,0.999998,0.001704,-0.000942,-0.000440,0.377291,0.699592,-0.437420,-0.420578,111.977380,14.974896,-74.167832
61906,-2.528201,8.682013,-4.104410,0.540920,0.106998,0.102515,0.188797,-0.193079,-0.121079,-0.025190,0.086874,-0.040986,0.999999,0.000944,-0.000965,-0.000605,0.375959,0.699806,-0.437753,-0.421070,112.064369,15.080764,-74.246692
61907,-2.598198,8.786990,-4.149210,0.521059,0.120094,0.231802,0.249421,-0.193301,-0.132050,-0.025884,0.087939,-0.041408,0.999999,0.001247,-0.000967,-0.000660,0.374392,0.700154,-0.438175,-0.421448,112.186416,15.192300,-74.323118
61908,-2.589026,9.119602,-2.921122,-0.715563,-0.214445,0.078980,0.220394,-0.265664,-0.121562,-0.025796,0.091244,-0.029145,0.999998,0.001102,-0.001328,-0.000608,0.372786,0.700271,-0.438705,-0.422124,112.280876,15.314439,-74.441421
61909,-2.668930,8.656949,-3.352313,-0.206196,0.059160,-0.155674,0.118667,-0.290738,-0.119513,-0.026589,0.086605,-0.033510,0.999999,0.000593,-0.001454,-0.000598,0.371488,0.700138,-0.439074,-0.423104,112.312809,15.440729,-74.573986
61910,-2.887758,8.244774,-3.837286,0.304473,0.449695,-0.286660,0.220725,-0.314984,-0.137204,-0.028761,0.082510,-0.038327,0.999998,0.001104,-0.001575,-0.000686,0.369737,0.700181,-0.439640,-0.423978,112.400623,15.582154,-74.715771
61911,-2.700985,8.484282,-3.732407,0.177501,0.151347,-0.161017,0.218921,-0.356360,-0.144968,-0.026882,0.084903,-0.037279,0.999998,0.001095,-0.001782,-0.000725,0.367887,0.700146,-0.440250,-0.425012,112.481229,15.736599,-74.878496
61912,-2.451203,8.590868,-3.628489,0.112091,-0.158990,-0.172177,0.088781,-0.339022,-0.144672,-0.024388,0.085942,-0.036288,0.999998,0.000444,-0.001695,-0.000723,0.366526,0.699906,-0.440550,-0.426270,112.489648,15.887572,-75.031671
61913,-2.390720,8.539464,-3.788228,0.298764,-0.198138,-0.176293,-0.023460,-0.298791,-0.126670,-0.023796,0.085405,-0.037928,0.999999,-0.000117,-0.001494,-0.000633,0.365687,0.699502,-0.440600,-0.427599,112.438097,16.019787,-75.167032
61914,-2.163844,8.471782,-4.010652,0.596677,-0.372765,-0.218751,-0.119127,-0.274159,-0.090209,-0.021545,0.084704,-0.040187,0.999999,-0.000596,-0.001371,-0.000451,0.365312,0.698896,-0.440526,-0.428986,112.333079,16.127474,-75.297276
61915,-2.215614,8.073111,-4.020284,0.731712,-0.196957,-0.556741,-0.105628,-0.212004,-0.041832,-0.022097,0.080714,-0.040269,0.999999,-0.000528,-0.001060,-0.000209,0.365131,0.698338,-0.440536,-0.430037,112.241811,16.195453,-75.404492
61916,-2.418567,8.171922,-4.386758,1.005815,-0.001567,-0.280545,-0.086089,-0.176684,-0.020621,-0.024138,0.081703,-0.043924,1.000000,-0.000430,-0.000883,-0.000103,0.365003,0.697846,-0.440596,-0.430881,112.165989,16.244681,-75.496992
61917,-2.691186,8.379149,-4.107232,0.629695,0.137522,-0.122149,-0.000892,-0.147036,-0.021740,-0.026873,0.083794,-0.041092,1.000000,-0.000004,-0.000735,-0.000109,0.364643,0.697573,-0.440783,-0.431437,112.143273,16.287721,-75.573037
61918,-2.761150,8.875772,-3.892753,0.272910,-0.004498,0.261154,-0.033186,-0.139429,-0.056645,-0.027559,0.088759,-0.038961,1.000000,-0.000166,-0.000697,-0.000283,0.364334,0.697337,-0.440763,-0.432099,112.105720,16.347893,-75.636907
61919,-3.088351,9.628058,-3.523429,-0.358251,-0.018585,0.888865,-0.119772,-0.119525,-0.126460,-0.030802,0.096279,-0.035310,0.999999,-0.000599,-0.000598,-0.000632,0.364222,0.697137,-0.440277,-0.433011,112.025623,16.440504,-75.674349
61920,-3.199239,9.645514,-3.417024,-0.458503,0.050257,0.898718,-0.340319,-0.117801,-0.209799,-0.031871,0.096430,-0.034353,0.999998,-0.001702,-0.000589,-0.001049,0.364698,0.696724,-0.439017,-0.434552,111.824923,16.577239,-75.692334
61921,-3.087375,8.662401,-2.998669,-0.481236,0.219709,-0.154481,-0.544703,-0.095743,-0.285040,-0.030736,0.086586,-0.030237,0.999995,-0.002724,-0.000479,-0.001425,0.365772,0.696143,-0.437009,-0.436600,111.514816,16.749006,-75.682256
61922,-2.905220,7.847024,-3.073269,-0.075230,0.330017,-0.905041,-0.656132,-0.110767,-0.317321,-0.028911,0.078415,-0.031006,0.999993,-0.003281,-0.000554,-0.001587,0.367123,0.695390,-0.434667,-0.438997,111.140505,16.941493,-75.674449
61923,-2.325846,8.269031,-2.830508,-0.219535,-0.400621,-0.780016,-0.693175,-0.120786,-0.276008,-0.023127,0.082623,-0.028606,0.999993,-0.003466,-0.000604,-0.001380,0.368670,0.694445,-0.432400,-0.441427,110.740057,17.113664,-75.682589
61924,-2.127449,8.454078,-2.950378,-0.043033,-0.640958,-0.631778,-0.762096,-0.105671,-0.179012,-0.021183,0.084446,-0.029837,0.999992,-0.003810,-0.000528,-0.000895,0.370694,0.693189,-0.430283,-0.443769,110.296485,17.230993,-75.703829
61925,-2.441659,7.507207,-3.494715,0.708320,0.060603,-1.208779,-0.661205,-0.064672,-0.074696,-0.024377,0.074965,-0.035203,0.999994,-0.003306,-0.000323,-0.000373,0.372687,0.691975,-0.428670,-0.445552,109.910603,17.283666,-75.724510
61926,-3.125594,7.620706,-3.344195,0.423547,0.639785,-0.956091,-0.432029,-0.092214,-0.010041,-0.031237,0.076136,-0.033621,0.999998,-0.002160,-0.000461,-0.000050,0.373965,0.690985,-0.427839,-0.446815,109.647710,17.306976,-75.774039
61927,-3.169667,9.193269,-2.882181,-0.390474,0.066687,0.322052,-0.268787,-0.110739,0.005613,-0.031683,0.091893,-0.028963,0.999999,-0.001344,-0.000554,0.000028,0.374677,0.690220,-0.427460,-0.447762,109.473932,17.324939,-75.837437
61928,-3.101385,10.686763,-2.812558,-0.783720,-0.528930,1.625923,-0.371483,-0.094361,-0.003967,-0.030998,0.106816,-0.028339,0.999998,-0.001857,-0.000472,-0.000020,0.375752,0.689321,-0.426786,-0.448889,109.244926,17.345057,-75.889574
61929,-3.261604,10.742321,-3.046019,-0.555800,-0.360380,1.800860,-0.668108,-0.069310,-0.046948,-0.032580,0.107328,-0.030830,0.999994,-0.003341,-0.000347,-0.000235,0.377807,0.688004,-0.425248,-0.450640,108.852338,17.383196,-75.919349
61930,-3.188468,9.771578,-2.519183,-0.723627,-0.150741,0.744281,-0.688580,-0.055610,-0.107051,-0.031825,0.097645,-0.025537,0.999994,-0.003443,-0.000278,-0.000535,0.379819,0.686802,-0.423426,-0.452495,108.453945,17.451529,-75.929955
61931,-3.290677,9.684101,-2.855398,-0.330956,0.023783,0.801122,-0.830612,-0.037799,-0.171533,-0.032818,0.096749,-0.028962,0.999991,-0.004153,-0.000189,-0.000858,0.382207,0.685494,-0.421021,-0.454706,107.980445,17.551412,-75.918949
61932,-3.258841,9.253508,-2.913103,-0.088076,0.155271,0.419675,-0.794422,-0.028106,-0.187514,-0.032498,0.092449,-0.029503,0.999992,-0.003972,-0.000141,-0.000938,0.384446,0.684301,-0.418617,-0.456830,107.530204,17.658682,-75.900218
61933,-2.864783,9.046778,-2.914265,0.122115,-0.135297,0.112561,-0.666141,-0.037485,-0.151151,-0.028574,0.090392,-0.029449,0.999994,-0.003331,-0.000187,-0.000756,0.386307,0.683245,-0.416644,-0.458641,107.149435,17.747513,-75.894279
61934,-2.273875,9.965866,-2.725578,-0.045856,-1.029830,0.716064,-0.746009,-0.049245,-0.087238,-0.022689,0.099566,-0.027633,0.999993,-0.003730,-0.000246,-0.000436,0.388555,0.681868,-0.414722,-0.460529,106.717420,17.803591,-75.906883
61935,-2.327536,9.420750,-3.438940,0.809825,-0.667884,0.428985,-0.790621,0.032811,-0.024837,-0.023269,0.094073,-0.034758,0.999992,-0.003953,0.000164,-0.000124,0.391266,0.680452,-0.412746,-0.462102,106.270724,17.811667,-75.883338
61936,-2.477329,9.102286,-3.570078,1.035457,-0.377349,0.213241,-0.734712,0.035808,0.000659,-0.024780,0.090891,-0.036030,0.999993,-0.003674,0.000179,0.000003,0.393844,0.679091,-0.410972,-0.463492,105.855485,17.805588,-75.862266
61937,-2.498712,8.783107,-3.500859,1.090366,-0.235610,-0.096834,-0.692959,0.066765,0.000158,-0.024999,0.087709,-0.035304,0.999994,-0.003465,0.000334,0.000001,0.396339,0.677874,-0.409229,-0.464686,105.469477,17.794946,-75.823234
61938,-2.850314,8.086189,-3.750548,1.431900,0.391249,-0.572899,-0.623804,0.078377,-0.017785,-0.028511,0.080747,-0.037746,0.999995,-0.003119,0.000392,-0.000089,0.398576,0.676853,-0.407557,-0.465730,105.126343,17.792840,-75.774382
61939,-3.001486,7.464486,-3.602002,1.405828,0.737912,-1.141993,-0.387206,0.066531,-0.026885,-0.030017,0.074579,-0.036154,0.999998,-0.001936,0.000333,-0.000134,0.399966,0.676288,-0.406427,-0.466346,104.916800,17.797614,-75.731147
61940,-2.992607,7.681052,-2.879792,0.697555,0.542894,-1.125563,-0.127502,0.050732,-0.020427,-0.029926,0.076795,-0.028839,1.000000,-0.000638,0.000254,-0.000102,0.400457,0.676194,-0.405954,-0.466473,104.853394,17.801391,-75.697866
61941,-3.036089,7.630203,-2.805397,0.629664,0.589880,-1.177663,-0.033157,0.070907,-0.028008,-0.030360,0.076302,-0.028056,1.000000,-0.000166,0.000355,-0.000140,0.400655,0.676348,-0.405636,-0.466357,104.847539,17.806267,-75.651926
61942,-3.445233,9.064115,-2.055792,-0.439331,0.339915,0.084056,0.102089,0.050990,-0.046585,-0.034436,0.090660,-0.020503,1.000000,0.000510,0.000255,-0.000233,0.400309,0.676767,-0.405609,-0.466070,104.917048,17.824528,-75.614400
61943,-3.617059,9.517850,-2.133304,-0.494208,0.345622,0.572873,0.053909,0.070483,-0.066279,-0.036147,0.095196,-0.021295,1.000000,0.000270,0.000352,-0.000331,0.400122,0.677171,-0.405365,-0.465855,104.962852,17.850586,-75.562750
61944,-3.896016,9.338849,-1.968626,-0.695424,0.632372,0.453033,0.106979,0.057430,-0.037942,-0.038948,0.093406,-0.019625,1.000000,0.000535,0.000287,-0.000190,0.399792,0.677597,-0.405366,-0.465518,105.035900,17.863076,-75.522811
61945,-3.804215,9.336131,-2.547067,-0.145072,0.639250,0.564843,0.392980,-0.011637,0.060028,-0.038069,0.093400,-0.025289,0.999998,0.001965,-0.000058,0.000300,0.398583,0.678230,-0.406502,-0.464641,105.255306,17.831396,-75.538637
61946,-3.213793,10.047220,-2.278081,-0.436554,-0.199055,0.968514,0.560211,-0.098708,0.180265,-0.032217,0.100507,-0.022515,0.999996,0.002801,-0.000494,0.000901,0.396904,0.678749,-0.408604,-0.463475,105.549659,17.746914,-75.624097
61947,-3.038720,10.699770,-2.058406,-0.781449,-0.616093,1.455207,0.518549,-0.163428,0.260445,-0.030510,0.107011,-0.020332,0.999995,0.002593,-0.000817,0.001302,0.395419,0.678863,-0.411008,-0.462451,105.804366,17.628316,-75.760675
61948,-3.087152,11.232614,-2.159337,-0.840588,-0.726154,1.982688,0.277096,-0.202116,0.239694,-0.030984,0.112319,-0.021469,0.999998,0.001385,-0.001011,0.001198,0.394621,0.678450,-0.412856,-0.462093,105.915547,17.527904,-75.916324
61949,-3.142137,11.158065,-2.228180,-0.777597,-0.620990,1.949535,-0.140204,-0.201477,0.154574,-0.031485,0.111541,-0.022392,0.999999,-0.000701,-0.001007,0.000773,0.395045,0.677386,-0.413449,-0.462761,105.791780,17.474015,-76.057758
61950,-3.137567,10.359855,-2.331553,-0.483266,-0.315977,1.245041,-0.520418,-0.185901,0.068625,-0.031389,0.103527,-0.023614,0.999996,-0.002602,-0.000930,0.000343,0.396586,0.675784,-0.412838,-0.464329,105.457487,17.464841,-76.175881
61951,-3.032421,9.197375,-2.818394,0.289788,0.076545,0.268999,-0.671496,-0.153144,0.007094,-0.030306,0.091877,-0.028516,0.999994,-0.003357,-0.000766,0.000035,0.398560,0.674076,-0.411600,-0.466216,105.044970,17.483776,-76.265378
61952,-2.689789,8.818914,-3.001392,0.678175,-0.069342,-0.140487,-0.694183,-0.064581,-0.016527,-0.026881,0.088086,-0.030328,0.999994,-0.003471,-0.000323,-0.000083,0.400731,0.672572,-0.410047,-0.467892,104.636211,17.502407,-76.299823
61953,-2.331591,8.578697,-2.337196,0.225669,-0.407674,-0.632522,-0.666405,0.053726,-0.000887,-0.023322,0.085709,-0.023651,0.999994,-0.003332,0.000269,-0.000004,0.403085,0.671358,-0.408371,-0.469078,104.263037,17.494999,-76.268058
61954,-2.066083,8.742907,-2.926500,0.884535,-0.594137,-0.424627,-0.823647,0.199920,0.058271,-0.020716,0.087302,-0.029604,0.999991,-0.004118,0.001000,0.000291,0.406396,0.670043,-0.406223,-0.469966,103.823059,17.434787,-76.159513
61955,-1.825811,8.521039,-3.088688,1.186669,-0.681601,-0.668911,-0.625741,0.306329,0.160987,-0.018374,0.085098,-0.031125,0.999994,-0.003129,0.001532,0.000805,0.409498,0.669158,-0.404662,-0.469881,103.510272,17.303477,-76.003275
61956,-1.788938,8.447379,-3.287844,1.436138,-0.615601,-0.706278,-0.541597,0.409103,0.259322,-0.018066,0.084361,-0.033070,0.999993,-0.002708,0.002046,0.001297,0.412749,0.668481,-0.403413,-0.469073,103.259522,17.104562,-75.799969
61957,-2.413838,6.831431,-3.578486,1.834949,0.597486,-1.965622,-0.336239,0.357444,0.325307,-0.024313,0.068215,-0.035856,0.999996,-0.001681,0.001787,0.001627,0.415362,0.667964,-0.402967,-0.467883,103.114013,16.876158,-75.635548
61958,-2.861587,6.187448,-2.137595,0.435165,0.999033,-2.751880,0.130557,0.358716,0.232326,-0.028726,0.061855,-0.021284,0.999998,0.000653,0.001794,0.001162,0.416197,0.668606,-0.403298,-0.465936,103.239793,16.699548,-75.457527
61959,-3.127505,6.047044,-1.480238,-0.265168,1.184418,-2.952229,0.322843,0.363847,0.102082,-0.031333,0.060478,-0.014648,0.999997,0.001614,0.001819,0.000510,0.416095,0.669916,-0.403629,-0.463855,103.480579,16.594258,-75.259554
61960,-3.195689,6.979029,-0.695323,-1.215511,0.796598,-2.243635,0.528220,0.233499,-0.003034,-0.031964,0.069809,-0.006732,0.999996,0.002641,0.001167,-0.000015,0.414792,0.671561,-0.404352,-0.462010,103.821842,16.564315,-75.122786
61961,-2.471336,8.387769,0.638424,-2.567950,-0.588771,-1.450349,0.176474,0.180343,-0.004471,-0.024706,0.083873,0.006481,0.999999,0.000882,0.000902,-0.000022,0.414561,0.672350,-0.404366,-0.461057,103.952155,16.541786,-75.017122
61962,-2.697429,8.331393,-0.213726,-1.795221,-0.201993,-1.241211,-0.446387,0.243774,0.014835,-0.026983,0.083307,-0.002290,0.999997,-0.002232,0.001219,0.000074,0.416592,0.671955,-0.402875,-0.461107,103.735623,16.500106,-74.877202
61963,-3.287356,7.723752,-1.339827,-0.742620,0.764338,-1.379276,-0.466784,0.205880,-0.006926,-0.032885,0.077207,-0.013545,0.999997,-0.002334,0.001029,-0.000035,0.418565,0.671467,-0.401341,-0.461368,103.501588,16.475974,-74.756289
61964,-2.932591,8.659470,-1.719263,-0.414675,0.209669,-0.521484,-0.177725,0.190131,-0.012502,-0.029337,0.086581,-0.017242,0.999999,-0.000889,0.000951,-0.000063,0.419519,0.671558,-0.400485,-0.461113,103.431059,16.457621,-74.643560
61965,-2.991513,9.308519,-1.661366,-0.572051,0.048346,0.088233,-0.218344,0.209386,0.037143,-0.029950,0.093061,-0.016684,0.999999,-0.001092,0.001047,0.000186,0.420763,0.671506,-0.399663,-0.460769,103.338131,16.408934,-74.526635
61966,-3.578188,7.862643,-1.555378,-0.602725,1.052203,-1.119393,-0.082218,0.188422,0.080879,-0.035828,0.078606,-0.015552,0.999999,-0.000411,0.000942,0.000404,0.421607,0.671605,-0.399343,-0.460130,103.318199,16.339027,-74.427788
61967,-3.059344,7.554705,-2.319315,0.286889,0.828381,-1.383942,0.481056,-0.044884,0.110963,-0.030630,0.075586,-0.023018,0.999997,0.002405,-0.000224,0.000555,0.420163,0.672290,-0.400911,-0.459086,103.581380,16.282963,-74.468877
61968,-1.858943,8.354733,-2.603539,0.695372,-0.490086,-0.906981,0.692055,0.014131,0.142276,-0.018651,0.083623,-0.025745,0.999994,0.003460,0.000071,0.000711,0.418193,0.673487,-0.402940,-0.457350,103.973987,16.202020,-74.480425
61969,-2.701648,8.673652,-1.833074,-0.372066,0.033110,-0.552484,0.721694,0.189193,0.154477,-0.027101,0.086781,-0.017992,0.999993,0.003608,0.000946,0.000772,0.416502,0.675110,-0.404708,-0.454933,104.410830,16.089418,-74.393235
61970,-2.981051,9.653489,-2.156483,-0.379868,0.033423,0.511114,0.877331,0.020980,0.186783,-0.029903,0.096600,-0.021138,0.999990,0.004387,0.000105,0.000934,0.414008,0.676601,-0.407280,-0.452694,104.908522,15.982967,-74.408829
61971,-2.136057,10.729607,-2.423432,-0.185750,-1.050771,1.341726,0.790730,-0.018924,0.196891,-0.021464,0.107370,-0.023812,0.999992,0.003954,-0.000095,0.000984,0.411744,0.677786,-0.409768,-0.450737,105.349384,15.876673,-74.449960
61972,-2.179837,11.009597,-2.980907,0.203065,-0.993623,1.755365,0.536059,0.091654,0.189106,-0.021916,0.110155,-0.029504,0.999996,0.002680,0.000458,0.000946,0.410544,0.678706,-0.411421,-0.448938,105.662069,15.758307,-74.427013
61973,-3.019083,10.053776,-3.375294,0.486984,0.176217,1.201736,0.333066,0.160976,0.140227,-0.030288,0.100573,-0.033561,0.999998,0.001665,0.000805,0.000701,0.410066,0.679459,-0.412309,-0.447418,105.870920,15.655698,-74.357116
61974,-3.216719,8.748793,-2.996340,0.274161,0.713000,-0.051397,0.697722,0.106472,0.132899,-0.032241,0.087570,-0.029641,0.999994,0.003489,0.000532,0.000664,0.408215,0.680849,-0.414095,-0.445343,106.280606,15.565664,-74.317667
61975,-2.302696,9.174417,-3.135336,0.477917,-0.256289,0.137581,0.991322,-0.070297,0.137931,-0.023079,0.091882,-0.030906,0.999987,0.004957,-0.000351,0.000690,0.405004,0.682419,-0.416906,-0.443243,106.830796,15.501157,-74.380745
61976,-2.134329,9.313826,-3.107685,0.369405,-0.478195,0.216989,1.033494,0.039363,0.128598,-0.021409,0.093283,-0.030591,0.999986,0.005167,0.000197,0.000643,0.401844,0.684322,-0.419545,-0.440688,107.422378,15.424133,-74.380400
61977,-2.725347,9.226553,-2.875693,-0.086708,0.041838,0.228038,1.100758,0.058927,0.121611,-0.027318,0.092405,-0.028241,0.999985,0.005504,0.000295,0.000608,0.398471,0.686396,-0.422257,-0.437927,108.055264,15.347242,-74.368706
61978,-2.457026,9.316197,-3.066012,0.032956,-0.218045,0.295690,1.129833,-0.015917,0.162292,-0.024644,0.093313,-0.030135,0.999984,0.005649,-0.000080,0.000811,0.394914,0.688258,-0.425308,-0.435266,108.691701,15.261869,-74.407588
