// General information: 
//  MT Manager version: 2022.0.0 
//  XDA version: 2022.0.0 build 7085 rev 119802 built on 2022-11-08
// Device information: 
//  DeviceId: 00B472EE
//  ProductCode: MTW2-3A7G6
//  Firmware Version: 4.14.0
//  Hardware Version: 2.0.0
// Device settings: 
//  Filter Profile: human(46.1)
//  Option Flags: Orientation Smoother Disabled, Position/Velocity Smoother Disabled, Continuous Zero Rotation Update Disabled, AHS Disabled, ICC Disabled
// Coordinate system: ENU
PacketCounter,Acc_X,Acc_Y,Acc_Z,FreeAcc_E,FreeAcc_N,FreeAcc_U,Gyr_X,Gyr_Y,Gyr_Z,VelInc_X,VelInc_Y,VelInc_Z,OriInc_q0,OriInc_q1,OriInc_q2,OriInc_q3,Quat_q0,Quat_q1,Quat_q2,Quat_q3,Roll,Pitch,Yaw
57743,-4.603149,3.269226,8.045075,-0.032809,0.001837,0.015790,-0.004598,-0.011430,-0.000336,-0.046036,0.032694,0.080447,1.000000,-0.000023,-0.000057,-0.000002,-0.404614,-0.297766,0.054461,0.862935,22.299022,28.023504,-124.126610
57744,-4.624009,3.294924,8.038407,-0.000931,0.001173,0.028754,-0.001687,-0.006570,-0.002003,-0.046242,0.032950,0.080382,1.000000,-0.000008,-0.000033,-0.000010,-0.404599,-0.297742,0.054462,0.862950,22.296897,28.021464,-124.129938
57745,-4.630861,3.254996,8.082714,-0.048407,0.026601,0.054789,0.000512,-0.008350,0.001681,-0.046312,0.032549,0.080825,1.000000,0.000003,-0.000042,0.000008,-0.404596,-0.297713,0.054481,0.862960,22.296717,28.017662,-124.131617
57746,-4.608277,3.301953,8.020699,0.006548,-0.011613,0.009254,0.002239,-0.006937,0.000015,-0.046086,0.033019,0.080206,1.000000,0.000011,-0.000035,0.000000,-0.404577,-0.297695,0.054506,0.862974,22.297343,28.014988,-124.134812
57747,-4.600721,3.269211,8.046470,-0.033236,0.001301,0.015789,0.001695,-0.004902,0.001681,-0.046009,0.032691,0.080464,1.000000,0.000008,-0.000025,0.000008,-0.404573,-0.297684,0.054523,0.862979,22.298240,28.013013,-124.135642
57748,-4.602357,3.292888,8.053692,-0.020887,-0.013918,0.030388,0.008027,-0.003533,0.000029,-0.046025,0.032926,0.080537,1.000000,0.000040,-0.000018,0.000000,-0.404559,-0.297692,0.054561,0.862980,22.302557,28.012123,-124.136401
57749,-4.625724,3.342598,8.053612,0.023470,-0.029685,0.057952,0.003556,-0.001131,-0.000322,-0.046258,0.033425,0.080536,1.000000,0.000018,-0.000006,-0.000002,-0.404544,-0.297701,0.054576,0.862983,22.304391,28.012583,-124.137504
57750,-4.607161,3.303274,8.020796,0.006132,-0.012152,0.009254,0.001963,-0.000184,0.001009,-0.046072,0.033032,0.080208,1.000000,0.000010,-0.000001,0.000005,-0.404538,-0.297712,0.054585,0.862982,22.305905,28.013260,-124.137607
57751,-4.626666,3.306166,8.006395,0.025570,0.002260,0.007621,0.001593,-0.000947,-0.001330,-0.046267,0.033061,0.080064,1.000000,0.000008,-0.000005,-0.000007,-0.404522,-0.297718,0.054589,0.862986,22.306351,28.014036,-124.139271
57752,-4.619495,3.273267,8.032015,-0.014221,0.015181,0.014156,-0.000134,-0.002359,0.000336,-0.046196,0.032733,0.080320,1.000000,-0.000001,-0.000012,0.000002,-0.404506,-0.297714,0.054595,0.862995,22.306173,28.013699,-124.141619
57753,-4.618945,3.273379,8.032286,-0.014318,0.015042,0.014156,0.004242,-0.012278,-0.002647,-0.046194,0.032733,0.080321,1.000000,0.000021,-0.000061,-0.000013,-0.404478,-0.297677,0.054632,0.863019,22.306455,28.008755,-124.146865
57754,-4.621127,3.260038,7.992763,0.000341,0.032040,-0.021574,0.001427,-0.009620,0.002352,-0.046215,0.032599,0.079926,1.000000,0.000007,-0.000048,0.000012,-0.404485,-0.297645,0.054657,0.863025,22.306958,28.004136,-124.147264
57755,-4.619214,3.296849,8.040374,-0.002070,-0.000317,0.028754,-0.001956,-0.011288,-0.001332,-0.046196,0.032970,0.080401,1.000000,-0.000010,-0.000056,-0.000007,-0.404471,-0.297600,0.054667,0.863046,22.304176,27.999431,-124.151475
57756,-4.600766,3.317479,8.062377,-0.009275,-0.030085,0.044982,0.004984,-0.010750,0.002028,-0.046012,0.033172,0.080622,1.000000,0.000025,-0.000054,0.000010,-0.404466,-0.297571,0.054710,0.863056,22.306573,27.994313,-124.152981
57757,-4.622541,3.307011,8.008428,0.024936,0.001452,0.007623,0.002105,-0.009295,0.000348,-0.046229,0.033069,0.080082,1.000000,0.000011,-0.000046,0.000002,-0.404455,-0.297542,0.054736,0.863069,22.306821,27.990299,-124.155693
57758,-4.625767,3.353539,8.023226,0.049741,-0.028859,0.036820,-0.000907,-0.010199,-0.000996,-0.046262,0.033536,0.080230,1.000000,-0.000005,-0.000051,-0.000005,-0.404463,-0.297505,0.054743,0.863078,22.304961,27.986089,-124.156571
57759,-4.623087,3.329986,8.016563,0.037186,-0.013906,0.022222,-0.005378,-0.007797,-0.001345,-0.046234,0.033302,0.080163,1.000000,-0.000027,-0.000039,-0.000007,-0.404456,-0.297468,0.054731,0.863095,22.300619,27.983238,-124.159929
57760,-4.605059,3.349727,8.038685,0.029989,-0.043674,0.038449,-0.010220,-0.006159,-0.004033,-0.046052,0.033502,0.080384,1.000000,-0.000051,-0.000031,-0.000020,-0.404464,-0.297430,0.054685,0.863107,22.293096,27.981849,-124.161920
57761,-4.602570,3.325461,8.032202,0.017433,-0.028722,0.023850,-0.012623,-0.007894,-0.000364,-0.046029,0.033260,0.080318,1.000000,-0.000063,-0.000039,-0.000002,-0.404472,-0.297378,0.054644,0.863124,22.284869,27.978732,-124.164712
57762,-4.602112,3.324191,8.032990,0.017331,-0.028854,0.023850,-0.018009,-0.004221,-0.001385,-0.046023,0.033249,0.080326,1.000000,-0.000090,-0.000021,-0.000007,-0.404488,-0.297330,0.054569,0.863137,22.273742,27.977766,-124.166697
57763,-4.626865,3.262276,8.056141,-0.023068,0.026216,0.033657,-0.016654,-0.003571,-0.005392,-0.046269,0.032631,0.080558,1.000000,-0.000083,-0.000018,-0.000027,-0.404481,-0.297290,0.054494,0.863159,22.262288,27.978033,-124.171443
57764,-4.612110,3.267462,8.038620,-0.015488,0.013575,0.014156,-0.019256,-0.008866,-0.008073,-0.046123,0.032684,0.080381,1.000000,-0.000096,-0.000044,-0.000040,-0.404463,-0.297222,0.054416,0.863196,22.248104,27.976083,-124.179469
57765,-4.638243,3.301380,7.999770,0.043639,0.014931,0.005999,-0.017969,-0.009374,-0.005064,-0.046385,0.033022,0.079993,1.000000,-0.000090,-0.000047,-0.000025,-0.404458,-0.297153,0.054348,0.863227,22.235321,27.973199,-124.185443
57766,-4.627288,3.280242,8.066389,-0.010942,0.010726,0.048255,-0.019828,-0.013144,-0.003067,-0.046278,0.032811,0.080658,1.000000,-0.000099,-0.000066,-0.000015,-0.404470,-0.297065,0.054280,0.863255,22.221752,27.967895,-124.190131
57767,-4.593349,3.245854,8.016489,-0.020562,0.015753,-0.019943,-0.019656,-0.015937,-0.007080,-0.045939,0.032468,0.080158,1.000000,-0.000098,-0.000080,-0.000035,-0.404457,-0.296965,0.054215,0.863300,22.206682,27.961963,-124.198923
57768,-4.644740,3.279545,8.054676,0.008381,0.025006,0.046630,-0.015356,-0.015544,-0.002726,-0.046453,0.032802,0.080541,1.000000,-0.000077,-0.000078,-0.000014,-0.404445,-0.296875,0.054178,0.863339,22.195487,27.955321,-124.206556
57769,-4.607628,3.259158,8.044559,-0.016015,0.012902,0.014156,-0.018710,-0.010856,0.003947,-0.046081,0.032598,0.080440,1.000000,-0.000094,-0.000054,0.000020,-0.404480,-0.296796,0.054123,0.863353,22.184650,27.949695,-124.207478
57770,-4.587168,3.255395,8.059798,-0.035659,-0.001779,0.015781,-0.010960,-0.007639,0.004973,-0.045876,0.032557,0.080594,1.000000,-0.000055,-0.000038,0.000025,-0.404504,-0.296746,0.054098,0.863360,22.178980,27.945555,-124.207447
57771,-4.598943,3.224502,8.071636,-0.055904,0.025689,0.020685,-0.009608,-0.006987,0.000968,-0.045992,0.032249,0.080713,1.000000,-0.000048,-0.000035,0.000005,-0.404514,-0.296703,0.054069,0.863373,22.172965,27.942626,-124.209209
57772,-4.586015,3.254171,8.060949,-0.035871,-0.002047,0.015780,-0.002603,-0.005292,-0.002685,-0.045862,0.032543,0.080608,1.000000,-0.000013,-0.000026,-0.000013,-0.404491,-0.296683,0.054065,0.863390,22.170250,27.941404,-124.213522
57773,-4.609149,3.303119,8.061452,0.008475,-0.017831,0.043350,-0.003955,-0.005944,0.001319,-0.046094,0.033032,0.080612,1.000000,-0.000020,-0.000030,0.000007,-0.404494,-0.296656,0.054060,0.863399,22.167692,27.938953,-124.214817
57774,-4.611835,3.289408,8.021839,0.023145,-0.000832,0.007628,-0.002230,-0.004532,-0.000345,-0.046120,0.032895,0.080217,1.000000,-0.000011,-0.000023,-0.000002,-0.404465,-0.296638,0.054064,0.863418,22.165908,27.937628,-124.219664
57775,-4.638495,3.252038,8.051630,-0.004790,0.039148,0.032036,-0.002097,-0.002173,-0.000677,-0.046386,0.032521,0.080515,1.000000,-0.000010,-0.000011,-0.000003,-0.404458,-0.296631,0.054056,0.863425,22.164285,27.937609,-124.221237
57776,-4.599192,3.246570,8.080329,-0.043975,0.009923,0.035281,0.001661,0.000249,0.005351,-0.045993,0.032464,0.080804,1.000000,0.000008,0.000001,0.000027,-0.404492,-0.296642,0.054062,0.863404,22.166848,27.937556,-124.215835
57777,-4.604340,3.256810,8.047392,-0.016838,0.011822,0.014156,0.008969,0.001509,-0.002644,-0.046042,0.032565,0.080476,1.000000,0.000045,0.000008,-0.000013,-0.404460,-0.296674,0.054091,0.863406,22.171434,27.939916,-124.217687
57778,-4.606399,3.280583,8.054368,-0.004513,-0.003403,0.028753,0.002709,0.001336,0.005689,-0.046064,0.032803,0.080544,1.000000,0.000014,0.000007,0.000028,-0.404480,-0.296692,0.054105,0.863390,22.174958,27.940418,-124.213682
57779,-4.586969,3.278363,8.068383,-0.024151,-0.018088,0.030373,0.005616,0.006194,0.004031,-0.045868,0.032780,0.080686,1.000000,0.000028,0.000031,0.000020,-0.404484,-0.296736,0.054121,0.863372,22.180039,27.943821,-124.210377
57780,-4.597568,3.298488,8.002462,0.030212,-0.014144,-0.011874,0.005616,0.006194,0.004031,-0.045974,0.032982,0.080027,1.000000,0.000028,0.000031,0.000020,-0.404500,-0.296781,0.054132,0.863348,22.185197,27.947216,-124.205315
57781,-4.612275,3.292010,8.020518,0.022420,-0.001774,0.007629,0.002470,0.002934,0.003016,-0.046122,0.032918,0.080206,1.000000,0.000012,0.000015,0.000015,-0.404503,-0.296805,0.054139,0.863338,22.187816,27.949108,-124.203417
57782,-4.612311,3.292349,8.020358,0.022296,-0.001902,0.007629,0.002336,0.000576,0.003348,-0.046123,0.032922,0.080204,1.000000,0.000012,0.000003,0.000017,-0.404508,-0.296819,0.054151,0.863330,22.190364,27.949710,-124.201736
57783,-4.633626,3.318571,8.013314,0.054189,-0.002594,0.020607,0.001325,-0.005663,-0.000668,-0.046338,0.033185,0.080132,1.000000,0.000007,-0.000028,-0.000003,-0.404494,-0.296804,0.054165,0.863341,22.190304,27.947839,-124.204156
57784,-4.620664,3.348490,8.002544,0.074227,-0.030334,0.015700,-0.005749,-0.008553,-0.003698,-0.046209,0.033488,0.080023,1.000000,-0.000029,-0.000043,-0.000018,-0.404480,-0.296764,0.054149,0.863363,22.185078,27.945089,-124.208779
57785,-4.607873,3.305244,8.061311,0.007208,-0.019450,0.043348,-0.006595,-0.006084,0.002314,-0.046082,0.033055,0.080611,1.000000,-0.000033,-0.000030,0.000012,-0.404491,-0.296730,0.054134,0.863370,22.181271,27.942349,-124.209511
57786,-4.600398,3.271544,8.087308,-0.032610,-0.006513,0.049873,-0.010087,-0.003790,-0.004377,-0.046005,0.032721,0.080871,1.000000,-0.000050,-0.000019,-0.000022,-0.404476,-0.296703,0.054091,0.863389,22.174080,27.942323,-124.213974
57787,-4.571411,3.284783,8.050832,-0.017318,-0.031667,0.010866,-0.004604,0.000045,-0.000014,-0.045714,0.032850,0.080508,1.000000,-0.000023,0.000000,-0.000000,-0.404475,-0.296700,0.054069,0.863392,22.171462,27.943337,-124.214604
57788,-4.591290,3.287083,8.036533,0.002122,-0.017257,0.009248,-0.003358,0.004653,-0.007022,-0.045910,0.032874,0.080366,1.000000,-0.000017,0.000023,-0.000035,-0.404424,-0.296721,0.054039,0.863410,22.168146,27.948308,-124.220934
57789,-4.601298,3.269940,8.087444,-0.032909,-0.006924,0.049872,-0.000889,0.007586,-0.004005,-0.046009,0.032701,0.080876,1.000000,-0.000004,0.000038,-0.000020,-0.404403,-0.296760,0.054012,0.863408,22.167398,27.954187,-124.222117
57790,-4.646060,3.285017,8.025882,0.033301,0.024070,0.025519,-0.001831,0.002544,-0.001340,-0.046459,0.032851,0.080259,1.000000,-0.000009,0.000013,-0.000007,-0.404392,-0.296775,0.053996,0.863410,22.166397,27.956823,-124.223093
57791,-4.629819,3.268496,8.000233,0.028452,0.026527,-0.008580,-0.002879,0.001457,-0.001678,-0.046297,0.032687,0.080002,1.000000,-0.000014,0.000007,-0.000008,-0.404382,-0.296783,0.053975,0.863413,22.164460,27.958947,-124.224378
57792,-4.646018,3.284560,8.026093,0.033098,0.023798,0.025520,-0.001448,-0.008162,0.000656,-0.046464,0.032846,0.080259,1.000000,-0.000007,-0.000041,0.000003,-0.404382,-0.296752,0.053983,0.863423,22.162958,27.955455,-124.226101
57793,-4.623748,3.258564,8.033579,0.001012,0.024219,0.012540,0.000516,-0.008347,0.001664,-0.046241,0.032585,0.080334,1.000000,0.000003,-0.000042,0.000008,-0.404379,-0.296723,0.054002,0.863433,22.162784,27.951654,-124.227777
57794,-4.613705,3.202541,8.052289,-0.051235,0.052260,0.004468,0.000623,-0.012303,0.004667,-0.046143,0.032024,0.080520,1.000000,0.000003,-0.000062,0.000023,-0.404385,-0.296677,0.054036,0.863444,22.163203,27.945129,-124.228844
57795,-4.619582,3.235978,8.027334,-0.011648,0.039055,-0.002055,0.005094,-0.014705,0.005011,-0.046203,0.032357,0.080271,1.000000,0.000025,-0.000074,0.000025,-0.404388,-0.296630,0.054093,0.863455,22.165865,27.937231,-124.230065
57796,-4.559603,3.228574,8.070616,-0.070394,-0.004704,0.002788,0.014063,-0.013197,0.002365,-0.045602,0.032280,0.080705,1.000000,0.000070,-0.000066,0.000012,-0.404364,-0.296608,0.054183,0.863468,22.173226,27.930732,-124.232767
57797,-4.598590,3.295382,8.096451,-0.021310,-0.023107,0.064463,0.015245,-0.009751,0.002370,-0.045990,0.032947,0.080965,1.000000,0.000076,-0.000049,0.000012,-0.404342,-0.296603,0.054269,0.863475,22.181528,27.926034,-124.234364
57798,-4.588596,3.313337,8.045196,0.013515,-0.033707,0.023841,0.012871,-0.005175,0.002701,-0.045888,0.033128,0.080453,1.000000,0.000064,-0.000026,0.000014,-0.404346,-0.296614,0.054331,0.863466,22.189191,27.923695,-124.232002
57799,-4.620208,3.287178,8.041798,0.012819,0.008308,0.027137,0.014969,-0.003001,0.003376,-0.046204,0.032865,0.080420,1.000000,0.000075,-0.000015,0.000017,-0.404330,-0.296637,0.054404,0.863460,22.198392,27.922360,-124.231342
57800,-4.627004,3.321403,8.015967,0.052389,-0.004894,0.020616,0.013004,-0.002816,0.002368,-0.046272,0.033208,0.080161,1.000000,0.000065,-0.000014,0.000012,-0.404302,-0.296658,0.054472,0.863462,22.206321,27.921365,-124.232698
57801,-4.609032,3.342851,8.037304,0.045190,-0.034681,0.036823,0.010534,-0.005750,-0.000648,-0.046093,0.033424,0.080373,1.000000,0.000053,-0.000029,-0.000003,-0.404274,-0.296661,0.054526,0.863470,22.211533,27.919444,-124.235128
57802,-4.606728,3.320023,8.030101,0.032644,-0.019708,0.022228,-0.000133,-0.002358,0.000332,-0.046068,0.033200,0.080300,1.000000,-0.000001,-0.000012,0.000002,-0.404274,-0.296658,0.054526,0.863472,22.211345,27.919101,-124.235309
57803,-4.597245,3.264135,8.048480,-0.019581,0.008329,0.014154,0.005628,-0.005269,0.003683,-0.045975,0.032638,0.080485,1.000000,0.000028,-0.000026,0.000018,-0.404273,-0.296652,0.054564,0.863472,22.215020,27.916497,-124.235021
57804,-4.591247,3.327827,8.011927,0.040122,-0.032484,0.002723,0.002855,-0.007767,0.005011,-0.045916,0.033276,0.080118,1.000000,0.000014,-0.000039,0.000025,-0.404271,-0.296630,0.054601,0.863478,22.217334,27.912309,-124.235892
57805,-4.597970,3.288267,8.056050,-0.007355,-0.007047,0.028749,0.003964,-0.005521,-0.001667,-0.045982,0.032881,0.080560,1.000000,0.000020,-0.000028,-0.000008,-0.404249,-0.296622,0.054625,0.863490,22.218523,27.910730,-124.238878
57806,-4.595406,3.265495,8.048979,-0.019900,0.007928,0.014154,0.007086,-0.008573,0.002680,-0.045958,0.032651,0.080489,1.000000,0.000035,-0.000043,0.000013,-0.404265,-0.296607,0.054667,0.863485,22.222424,27.906573,-124.236795
57807,-4.562736,3.293515,8.052186,-0.019403,-0.034363,0.010853,0.007520,-0.006652,-0.001995,-0.045630,0.032933,0.080522,1.000000,0.000038,-0.000033,-0.000010,-0.404236,-0.296601,0.054707,0.863498,22.225428,27.904466,-124.240254
57808,-4.594350,3.266663,8.049108,-0.020133,0.007666,0.014154,0.008569,-0.005565,-0.001659,-0.045945,0.032664,0.080491,1.000000,0.000043,-0.000028,-0.000008,-0.404205,-0.296602,0.054753,0.863509,22.229510,27.902918,-124.243498
57809,-4.615632,3.293504,8.041837,0.011756,0.006961,0.027140,0.012090,-0.001543,0.001692,-0.046157,0.032930,0.080420,1.000000,0.000060,-0.000008,0.000008,-0.404186,-0.296626,0.054808,0.863506,22.236755,27.902722,-124.243492
57810,-4.656483,3.323135,8.020262,0.063199,0.020798,0.038518,0.005087,-0.003235,0.005352,-0.046567,0.033228,0.080203,1.000000,0.000025,-0.000016,0.000027,-0.404203,-0.296628,0.054839,0.863496,22.240773,27.900794,-124.240594
57811,-4.614914,3.294726,8.041749,0.011569,0.006685,0.027140,-0.001483,-0.003006,0.004338,-0.046151,0.032947,0.080417,1.000000,-0.000007,-0.000015,0.000022,-0.404215,-0.296618,0.054843,0.863493,22.240816,27.899248,-124.239359
57812,-4.604115,3.348296,8.037856,0.044030,-0.036167,0.036823,0.001832,-0.002542,0.001337,-0.046042,0.033482,0.080378,1.000000,0.000009,-0.000013,0.000007,-0.404204,-0.296617,0.054859,0.863498,22.242108,27.898625,-124.240682
57813,-4.567783,3.329217,8.026718,0.019643,-0.048240,0.004330,-0.004497,-0.003909,0.002995,-0.045680,0.033293,0.080266,1.000000,-0.000022,-0.000020,0.000015,-0.404215,-0.296597,0.054849,0.863500,22.239944,27.896891,-124.240475
57814,-4.567603,3.328818,8.026987,0.019525,-0.048363,0.004329,-0.006569,0.000228,-0.001014,-0.045676,0.033291,0.080269,1.000000,-0.000033,0.000001,-0.000005,-0.404253,-0.296596,0.054804,0.863486,22.236125,27.898233,-124.236340
57815,-4.581972,3.321338,8.045673,0.011728,-0.036000,0.023835,-0.005112,-0.003075,-0.002017,-0.045821,0.033216,0.080455,1.000000,-0.000026,-0.000015,-0.000010,-0.404244,-0.296579,0.054783,0.863497,22.232297,27.898028,-124.238934
57816,-4.581964,3.320526,8.046013,0.011632,-0.036133,0.023835,-0.010873,-0.000165,-0.005365,-0.045819,0.033211,0.080458,1.000000,-0.000054,-0.000001,-0.000027,-0.404240,-0.296565,0.054722,0.863507,22.224572,27.900063,-124.241353
57817,-4.642968,3.278404,8.080061,-0.004460,0.030883,0.066154,-0.004979,-0.000718,-0.002349,-0.046430,0.032787,0.080800,1.000000,-0.000025,-0.000004,-0.000012,-0.404230,-0.296560,0.054696,0.863515,22.220998,27.901180,-124.243567
57818,-4.613941,3.291574,8.043598,0.010846,0.005748,0.027141,-0.011440,-0.004442,-0.000361,-0.046141,0.032920,0.080433,1.000000,-0.000057,-0.000022,-0.000002,-0.404264,-0.296526,0.054644,0.863514,22.213838,27.899845,-124.241983
57819,-4.611848,3.267697,8.036709,-0.001693,0.020718,0.012548,-0.005146,0.002077,0.001663,-0.046118,0.032679,0.080367,1.000000,-0.000026,0.000010,0.000008,-0.404272,-0.296531,0.054617,0.863511,22.211615,27.901576,-124.241104
57820,-4.603858,3.271009,8.109367,-0.043859,0.001394,0.069363,-0.008435,0.007923,0.001328,-0.046036,0.032713,0.081094,1.000000,-0.000042,0.000040,0.000007,-0.404295,-0.296556,0.054562,0.863495,22.208231,27.906495,-124.237658
57821,-4.536624,3.278884,8.100855,-0.067645,-0.052830,0.033557,-0.005156,0.013540,0.002009,-0.045361,0.032790,0.081011,1.000000,-0.000026,0.000068,0.000010,-0.404308,-0.296610,0.054513,0.863473,22.207414,27.914231,-124.233762
57822,-4.548483,3.225292,8.104131,-0.100344,-0.010237,0.023875,0.000523,0.020894,-0.000979,-0.045476,0.032253,0.081046,1.000000,0.000003,0.000104,-0.000005,-0.404296,-0.296709,0.054472,0.863447,22.209998,27.926530,-124.230493
57823,-4.525631,3.285831,8.080508,-0.060162,-0.065594,0.014047,0.006203,0.028249,-0.003969,-0.045244,0.032857,0.080812,1.000000,0.000031,0.000141,-0.000020,-0.404271,-0.296851,0.054433,0.863413,22.215701,27.943362,-124.226578
57824,-4.559051,3.368308,8.053461,0.023831,-0.094470,0.035114,0.008496,0.033942,-0.010645,-0.045575,0.033682,0.080544,1.000000,0.000042,0.000170,-0.000053,-0.404210,-0.297025,0.054385,0.863384,22.221625,27.964664,-124.225730
57825,-4.626594,3.313458,8.045241,0.022543,-0.010304,0.041736,0.002159,0.044044,-0.008658,-0.046247,0.033136,0.080463,1.000000,0.000011,0.000220,-0.000043,-0.404174,-0.297228,0.054290,0.863337,22.225513,27.990890,-124.220750
57826,-4.630617,3.313295,8.042993,0.022443,-0.010437,0.041736,0.002800,0.049528,-0.006995,-0.046285,0.033133,0.080442,1.000000,0.000014,0.000248,-0.000035,-0.404139,-0.297456,0.054192,0.863281,22.230908,28.019636,-124.214423
57827,-4.639011,3.359586,8.054961,0.047221,-0.040801,0.070922,0.000429,0.054111,-0.006681,-0.046367,0.033597,0.080562,1.000000,0.000002,0.000271,-0.000033,-0.404117,-0.297699,0.054073,0.863216,22.235533,28.050772,-124.205775
57828,-4.617053,3.396008,8.022825,0.074964,-0.081053,0.046500,-0.008614,0.062881,-0.010404,-0.046144,0.033966,0.080241,1.000000,-0.000043,0.000314,-0.000052,-0.404066,-0.297961,0.053900,0.863160,22.234911,28.087324,-124.201000
57829,-4.644372,3.420515,8.012984,0.106849,-0.081767,0.059492,-0.019184,0.073801,-0.006126,-0.046413,0.034214,0.080144,1.000000,-0.000096,0.000369,-0.000031,-0.404081,-0.298249,0.053657,0.863068,22.230747,28.128782,-124.187175
57830,-4.638877,3.375513,8.068422,0.039816,-0.070863,0.087115,-0.032631,0.086184,-0.003551,-0.046353,0.033769,0.080699,1.000000,-0.000163,0.000431,-0.000018,-0.404137,-0.298563,0.053332,0.862954,22.221119,28.176218,-124.167894
57831,-4.659086,3.342244,8.076385,0.019581,-0.043391,0.092029,-0.039609,0.102309,-0.002980,-0.046549,0.033439,0.080781,1.000000,-0.000198,0.000512,-0.000015,-0.404203,-0.298932,0.052948,0.862819,22.209479,28.232119,-124.145169
57832,-4.573697,3.311349,8.104659,-0.063467,-0.099055,0.064326,-0.040850,0.120657,-0.009094,-0.045687,0.033132,0.081067,1.000000,-0.000204,0.000603,-0.000045,-0.404243,-0.299379,0.052515,0.862671,22.197716,28.299081,-124.122451
57833,-4.301841,3.395087,8.228515,-0.217601,-0.384110,0.063850,-0.033170,0.162313,-0.023927,-0.042948,0.033970,0.082314,1.000000,-0.000166,0.000812,-0.000120,-0.404224,-0.300025,0.052006,0.862486,22.190828,28.391356,-124.097590
57834,-4.127124,3.424085,8.255888,-0.311349,-0.551089,0.011595,0.007107,0.237737,-0.055777,-0.041164,0.034249,0.082609,0.999999,0.000036,0.001189,-0.000279,-0.404002,-0.301085,0.051480,0.862253,22.206896,28.530496,-124.076640
57835,-4.426597,3.188945,8.518315,-0.492658,-0.236132,0.288165,0.150599,0.364607,-0.060917,-0.044101,0.031839,0.085288,0.999998,0.000753,0.001823,-0.000305,-0.403599,-0.302983,0.051298,0.861788,22.318771,28.738040,-124.023903
57836,-4.918661,3.415123,8.526508,-0.152177,-0.044373,0.605192,0.422592,0.381565,-0.019202,-0.049020,0.033976,0.085431,0.999996,0.002113,0.001908,-0.000096,-0.402941,-0.305488,0.052327,0.861149,22.601369,28.945158,-123.944033
57837,-4.680504,3.495633,8.790109,-0.430753,-0.312561,0.728133,0.608683,0.367621,-0.014048,-0.046641,0.034692,0.088093,0.999994,0.003043,0.001838,-0.000070,-0.402037,-0.308306,0.054183,0.860452,22.991330,29.143448,-123.859797
57838,-4.807051,3.378661,8.443549,-0.321165,-0.078634,0.468694,0.743933,0.291583,-0.063165,-0.047937,0.033487,0.084630,0.999992,0.003720,0.001458,-0.000316,-0.400680,-0.311075,0.056700,0.859926,23.435815,29.312083,-123.824117
57839,-4.558345,3.486341,8.417623,-0.430906,-0.312197,0.361094,0.780250,0.251620,-0.132699,-0.045454,0.034565,0.084369,0.999991,0.003901,0.001258,-0.000663,-0.398956,-0.313762,0.059342,0.859573,23.876235,29.475645,-123.838268
57840,-4.671547,3.874545,8.260983,-0.106476,-0.454486,0.427475,0.791379,0.235248,-0.175993,-0.046584,0.038459,0.082817,0.999991,0.003957,0.001176,-0.000880,-0.397017,-0.316407,0.061996,0.859314,24.308739,29.640668,-123.881532
57841,-4.562301,5.231153,8.429144,0.539174,-1.466117,0.994225,0.691803,0.229329,-0.176580,-0.045480,0.052060,0.084524,0.999993,0.003459,0.001147,-0.000883,-0.395225,-0.318825,0.064231,0.859082,24.683675,29.803196,-123.925409
57842,-3.959465,5.609072,8.428450,0.423336,-2.148185,0.835487,0.489570,0.218577,0.013547,-0.039506,0.055881,0.084465,0.999996,0.002448,0.001093,0.000068,-0.394565,-0.320731,0.065923,0.858548,24.998604,29.914328,-123.857136
57843,-4.043968,5.357996,8.527650,0.190513,-1.913730,0.868310,0.420518,0.232843,0.267385,-0.040412,0.053346,0.085436,0.999996,0.002103,0.001164,0.001337,-0.395107,-0.322478,0.067695,0.857506,25.352119,29.970910,-123.632224
57844,-4.128448,5.034799,8.557560,-0.045224,-1.602122,0.820084,0.485072,0.186234,0.554416,-0.041344,0.050026,0.085736,0.999993,0.002425,0.000931,0.002772,-0.396756,-0.324050,0.070301,0.855940,25.822054,29.930536,-123.248792
57845,-3.872620,5.272511,8.447632,-0.003973,-1.875523,0.705905,0.544504,0.134101,0.766328,-0.038871,0.052346,0.084645,0.999989,0.002723,0.000671,0.003832,-0.399189,-0.325438,0.073604,0.854003,26.379928,29.807386,-122.755681
57846,-3.463664,5.583005,8.408583,-0.027353,-2.306348,0.606070,0.526535,0.107020,0.860246,-0.034831,0.055459,0.084251,0.999987,0.002633,0.000535,0.004301,-0.402035,-0.326629,0.077040,0.851907,26.949301,29.641405,-122.217134
57847,-3.358649,5.699899,8.614737,-0.172680,-2.420765,0.774697,0.370531,0.130187,0.813979,-0.033762,0.056702,0.086275,0.999990,0.001853,0.000651,0.004070,-0.404936,-0.327619,0.079683,0.849908,27.416360,29.495735,-121.701511
57848,-3.406609,5.085839,8.828100,-0.703897,-1.957562,0.726686,0.170533,0.135717,0.662458,-0.034174,0.050670,0.088347,0.999994,0.000853,0.000679,0.003312,-0.407519,-0.328278,0.081222,0.848272,27.724934,29.389170,-121.274091
57849,-3.418794,4.887604,9.251515,-1.104429,-1.842008,0.983356,0.034986,0.091193,0.498324,-0.034267,0.048775,0.092539,0.999997,0.000175,0.000456,0.002492,-0.409604,-0.328540,0.081999,0.847091,27.900727,29.303202,-120.956938
57850,-3.101987,4.624739,9.228323,-1.403005,-1.880784,0.707135,-0.026503,-0.016016,0.431232,-0.031127,0.046193,0.092275,0.999998,-0.000133,-0.000080,0.002156,-0.411463,-0.328242,0.082634,0.846243,28.005968,29.179226,-120.711994
57851,-2.982786,4.643448,9.115737,-1.369362,-1.940791,0.575449,0.008194,-0.098859,0.427579,-0.029972,0.046367,0.091144,0.999998,0.000041,-0.000494,0.002138,-0.413210,-0.327670,0.083571,0.845521,28.116210,29.015037,-120.495598
57852,-2.895435,4.967149,8.987137,-1.112481,-2.163405,0.575126,0.029108,-0.164650,0.465532,-0.029144,0.049591,0.089855,0.999997,0.000146,-0.000823,0.002328,-0.415057,-0.326838,0.084803,0.844815,28.238747,28.805617,-120.278161
57853,-2.838283,5.318893,8.835396,-0.804118,-2.372338,0.586155,-0.026214,-0.189897,0.505208,-0.028601,0.053128,0.088320,0.999996,-0.000131,-0.000949,0.002526,-0.417145,-0.325773,0.085909,0.844086,28.335072,28.573674,-120.046882
57854,-2.663968,5.262809,8.709589,-0.819545,-2.413714,0.392850,-0.120942,-0.169008,0.544701,-0.026857,0.052608,0.087041,0.999996,-0.000605,-0.000845,0.002724,-0.419564,-0.324571,0.086646,0.843275,28.390325,28.339624,-119.787093
57855,-2.768672,4.888846,8.596479,-0.924274,-2.047219,0.208304,-0.156618,-0.137281,0.590988,-0.027890,0.048874,0.085907,0.999995,-0.000783,-0.000686,0.002955,-0.422242,-0.323413,0.087230,0.842322,28.440429,28.110354,-119.492077
57856,-3.015619,4.569478,8.898283,-1.194862,-1.658348,0.433072,-0.081851,-0.106204,0.648054,-0.030351,0.045633,0.088948,0.999995,-0.000409,-0.000531,0.003240,-0.425054,-0.322505,0.088166,0.841158,28.552229,27.878884,-119.155638
57857,-3.808266,4.518492,9.577162,-1.300358,-1.050804,1.315937,0.081862,-0.164295,0.732720,-0.038326,0.045006,0.095759,0.999993,0.000409,-0.000821,0.003664,-0.427921,-0.321669,0.090038,0.839825,28.769186,27.595972,-118.790944
57858,-4.512000,4.943665,10.067471,-1.024452,-0.749647,2.209780,0.217233,-0.338666,0.823203,-0.045493,0.049141,0.100651,0.999990,0.001086,-0.001693,0.004116,-0.430871,-0.320333,0.093007,0.838503,29.059585,27.197044,-118.431877
57859,-4.625197,5.430461,10.071820,-0.652749,-0.851138,2.482520,0.212149,-0.566419,0.876007,-0.046774,0.053994,0.100644,0.999986,0.001061,-0.002832,0.004380,-0.433927,-0.318010,0.096516,0.837413,29.323435,26.669974,-118.118430
57860,-4.236944,5.441223,9.731334,-0.576276,-1.000227,2.058432,0.111965,-0.739546,0.885642,-0.042969,0.054168,0.097186,0.999983,0.000560,-0.003698,0.004428,-0.437093,-0.314718,0.100006,0.836601,29.504022,26.050525,-117.857666
57861,-3.954827,5.109240,9.300219,-0.611085,-0.854915,1.462653,0.009798,-0.845067,0.865276,-0.040161,0.050915,0.092836,0.999982,0.000049,-0.004225,0.004326,-0.440260,-0.310773,0.103250,0.836021,29.602442,25.385851,-117.644531
57862,-3.628156,4.519675,8.737399,-0.751622,-0.592819,0.628359,-0.018094,-0.899128,0.839146,-0.036863,0.045051,0.087205,0.999981,-0.000090,-0.004496,0.004196,-0.443323,-0.306529,0.106466,0.835566,29.668797,24.699097,-117.464764
57863,-3.272295,4.302252,8.376564,-0.782376,-0.608844,0.107000,0.024007,-0.883070,0.796895,-0.033263,0.042881,0.083625,0.999982,0.000120,-0.004415,0.003984,-0.446131,-0.302471,0.109741,0.835126,29.748722,24.034410,-117.305150
57864,-3.268093,4.459074,8.410571,-0.657391,-0.601101,0.212630,0.054495,-0.830261,0.744546,-0.033195,0.044445,0.083981,0.999984,0.000272,-0.004151,0.003723,-0.448694,-0.298705,0.112955,0.834680,29.839188,23.408303,-117.159314
57865,-3.436247,4.719199,8.582095,-0.473355,-0.525786,0.542481,0.028455,-0.800565,0.668607,-0.034863,0.047064,0.085689,0.999986,0.000142,-0.004003,0.003343,-0.450978,-0.295053,0.115864,0.834349,29.899915,22.820809,-117.046961
57866,-3.492074,4.645318,8.752668,-0.560313,-0.353138,0.672692,0.000408,-0.806429,0.615462,-0.035416,0.046345,0.087385,0.999987,0.000002,-0.004032,0.003077,-0.453072,-0.291321,0.118601,0.834142,29.931750,22.243078,-116.965901
57867,-3.540851,4.691914,8.828427,-0.508273,-0.247804,0.778446,0.001313,-0.835911,0.583462,-0.035914,0.046814,0.088135,0.999987,0.000007,-0.004180,0.002917,-0.454995,-0.287495,0.121345,0.834027,29.953055,21.662254,-116.911772
57868,-3.485976,4.924945,8.826546,-0.322897,-0.322907,0.869327,0.013990,-0.882041,0.584825,-0.035392,0.049140,0.088114,0.999986,0.000070,-0.004410,0.002924,-0.456872,-0.283481,0.124259,0.833946,29.976242,21.055659,-116.871488
57869,-3.508504,5.130487,8.761453,-0.084324,-0.310075,0.924637,0.011976,-0.916723,0.598850,-0.035640,0.051193,0.087455,0.999985,0.000060,-0.004584,0.002994,-0.458769,-0.279317,0.127248,0.833859,29.996394,20.430286,-116.834859
57870,-3.633366,5.216745,8.725686,0.100624,-0.142142,0.981838,0.005719,-0.950569,0.633736,-0.036913,0.052049,0.087084,0.999984,0.000029,-0.004753,0.003169,-0.460791,-0.274951,0.130345,0.833717,30.015428,19.775630,-116.790448
57871,-3.689167,5.199673,8.693010,0.184731,0.029764,0.965928,0.012518,-0.997820,0.681598,-0.037502,0.051864,0.086747,0.999982,0.000063,-0.004989,0.003408,-0.462950,-0.270378,0.133628,0.833496,30.041116,19.086277,-116.735740
57872,-3.599042,5.072311,8.535388,0.202116,0.146628,0.745270,0.028313,-1.038277,0.724137,-0.036616,0.050579,0.085172,0.999980,0.000142,-0.005191,0.003621,-0.465227,-0.265619,0.137136,0.833189,30.078434,18.362167,-116.671598
57873,-3.377751,4.838361,8.450652,0.045170,0.206742,0.491981,0.045770,-1.072554,0.736163,-0.034408,0.048238,0.084334,0.999979,0.000229,-0.005363,0.003681,-0.467481,-0.260754,0.140794,0.832854,30.123255,17.620024,-116.612413
57874,-3.139010,4.751210,8.249073,0.047664,0.172725,0.209341,0.064173,-1.083357,0.725134,-0.032008,0.047370,0.082334,0.999979,0.000321,-0.005417,0.003626,-0.469644,-0.255868,0.144546,0.832509,30.175160,16.873244,-116.563060
57875,-2.809697,4.720230,8.054235,0.043997,0.024358,-0.063747,0.061373,-1.075877,0.695445,-0.028694,0.047079,0.080404,0.999979,0.000307,-0.005379,0.003477,-0.471667,-0.251034,0.148212,0.832193,30.220691,16.141095,-116.527689
57876,-2.575278,4.648888,8.084044,-0.075614,-0.027682,-0.138582,0.057116,-1.040489,0.669039,-0.026328,0.046378,0.080718,0.999981,0.000286,-0.005202,0.003345,-0.473599,-0.246330,0.151750,0.831864,30.262548,15.431681,-116.495962
57877,-2.412002,4.637623,8.104572,-0.119560,-0.054258,-0.169501,0.073977,-1.008763,0.642602,-0.024677,0.046268,0.080939,0.999982,0.000370,-0.005044,0.003213,-0.475400,-0.241825,0.155233,0.831515,30.312266,14.747954,-116.469014
57878,-2.417115,4.918294,8.311275,0.014217,-0.076799,0.142317,0.071609,-0.981242,0.635604,-0.024735,0.049075,0.083010,0.999983,0.000358,-0.004906,0.003178,-0.477186,-0.237410,0.158639,0.831122,30.361483,14.077476,-116.438082
57879,-2.632212,4.992661,8.486260,0.110160,0.188685,0.376665,0.060874,-0.977089,0.650383,-0.026898,0.049814,0.084747,0.999983,0.000304,-0.004885,0.003252,-0.479027,-0.232983,0.161990,0.830669,30.405946,13.407107,-116.399071
57880,-2.836178,5.132976,8.479136,0.350798,0.410030,0.482682,0.048529,-0.996180,0.678422,-0.028958,0.051212,0.084661,0.999982,0.000243,-0.004981,0.003392,-0.480972,-0.228400,0.165374,0.830151,30.444852,12.716809,-116.352116
57881,-2.842735,5.011530,8.337772,0.391744,0.580525,0.297863,0.020226,-1.015472,0.707441,-0.029027,0.050005,0.083236,0.999981,0.000101,-0.005077,0.003537,-0.483031,-0.223652,0.168702,0.829578,30.468611,12.010863,-116.296759
57882,-2.712197,4.758701,8.069220,0.346388,0.681388,-0.090134,-0.002632,-1.023653,0.716118,-0.027705,0.047490,0.080551,0.999980,-0.000013,-0.005118,0.003581,-0.485130,-0.218784,0.171971,0.828980,30.479104,11.296095,-116.239799
57883,-2.264050,4.516109,7.890368,0.119429,0.495048,-0.457548,0.009534,-1.005003,0.710733,-0.023197,0.045076,0.078790,0.999981,0.000048,-0.005025,0.003554,-0.487186,-0.214034,0.175220,0.828334,30.496170,10.594332,-116.180357
57884,-2.044190,4.377093,7.928542,-0.052301,0.471197,-0.540488,0.035433,-0.957535,0.697180,-0.020974,0.043684,0.079194,0.999982,0.000177,-0.004788,0.003486,-0.489187,-0.209534,0.178451,0.827615,30.528751,9.917761,-116.114115
57885,-2.069875,4.341645,8.121403,-0.126974,0.628351,-0.395707,0.081865,-0.936560,0.681552,-0.021227,0.043311,0.081133,0.999983,0.000409,-0.004683,0.003408,-0.491072,-0.205254,0.181789,0.826844,30.586623,9.258196,-116.050179
57886,-1.935218,4.573980,8.465291,-0.153224,0.541587,-0.014235,0.099482,-0.942032,0.648523,-0.019899,0.045634,0.084583,0.999984,0.000497,-0.004710,0.003243,-0.492786,-0.201005,0.185184,0.826115,30.651052,8.603418,-116.005178
57887,-1.926211,4.716129,8.790265,-0.178886,0.613224,0.326923,0.103161,-0.983422,0.628765,-0.019842,0.047054,0.087830,0.999983,0.000516,-0.004917,0.003144,-0.494354,-0.196619,0.188660,0.825447,30.713659,7.936058,-115.983053
57888,-2.202864,4.908116,9.006122,0.017307,0.916776,0.637684,0.114795,-1.064226,0.631594,-0.022662,0.048959,0.089970,0.999981,0.000574,-0.005321,0.003158,-0.495833,-0.191905,0.192389,0.824808,30.779679,7.226039,-115.984201
57889,-2.042565,5.076458,8.884857,0.184152,0.809566,0.588865,0.082554,-1.157928,0.646006,-0.021103,0.050661,0.088749,0.999978,0.000413,-0.005790,0.003230,-0.497288,-0.186717,0.196213,0.824222,30.824629,6.467696,-116.006574
57890,-1.862860,5.020188,8.678889,0.223334,0.772230,0.353324,0.047593,-1.214303,0.646351,-0.019317,0.050120,0.086685,0.999976,0.000238,-0.006071,0.003232,-0.498702,-0.181187,0.200035,0.823683,30.848108,5.679621,-116.045861
57891,-1.478756,4.831360,8.263372,0.180022,0.570407,-0.145589,0.002961,-1.242511,0.632920,-0.015453,0.048264,0.082540,0.999976,0.000015,-0.006213,0.003165,-0.500046,-0.175448,0.203711,0.823210,30.845121,4.883532,-116.100180
57892,-1.177464,4.531513,8.125514,-0.051468,0.520693,-0.449467,0.006345,-1.202144,0.612235,-0.012401,0.045275,0.081183,0.999977,0.000032,-0.006011,0.003061,-0.501322,-0.169883,0.207282,0.822709,30.844991,4.111558,-116.152740
57893,-0.933292,4.267961,7.990751,-0.239243,0.497142,-0.722413,0.036295,-1.154421,0.575924,-0.009917,0.042637,0.079859,0.999979,0.000181,-0.005772,0.002880,-0.502448,-0.164633,0.210808,0.822193,30.862417,3.375552,-116.209197
57894,-1.048661,4.523661,8.049455,0.024362,0.613678,-0.540222,0.079516,-1.119636,0.546308,-0.011061,0.045175,0.080452,0.999981,0.000398,-0.005598,0.002732,-0.503437,-0.159646,0.214399,0.821643,30.905076,2.663634,-116.270354
57895,-1.100436,4.780413,8.160117,0.233884,0.683758,-0.319137,0.085284,-1.082469,0.522685,-0.011571,0.047740,0.081560,0.999982,0.000426,-0.005412,0.002613,-0.504341,-0.154859,0.217885,0.821088,30.951733,1.978743,-116.332680
57896,-1.185999,4.834353,8.149247,0.362549,0.840196,-0.307458,0.066256,-1.059074,0.500118,-0.012412,0.048286,0.081444,0.999983,0.000331,-0.005295,0.002501,-0.505178,-0.150127,0.221217,0.820561,30.988078,1.310373,-116.399683
57897,-1.263852,4.701992,8.140194,0.345480,1.058689,-0.393151,0.042045,-1.036650,0.467766,-0.013170,0.046972,0.081344,0.999984,0.000210,-0.005183,0.002339,-0.505906,-0.145468,0.224353,0.820100,31.011165,0.664268,-116.476271
57898,-1.187379,4.268265,8.206328,-0.006085,1.266272,-0.573237,0.029144,-1.015825,0.398573,-0.012375,0.042646,0.082007,0.999985,0.000146,-0.005079,0.001993,-0.506369,-0.140924,0.227334,0.819786,31.027512,0.047299,-116.580913
57899,-1.207449,4.067085,8.325511,-0.164153,1.477288,-0.587551,0.068332,-0.998205,0.311073,-0.012553,0.040623,0.083207,0.999986,0.000342,-0.004991,0.001555,-0.506449,-0.136658,0.230355,0.819616,31.067586,-0.533567,-116.723588
57900,-1.242254,3.957693,8.596335,-0.318619,1.703017,-0.426478,0.137911,-1.016958,0.211657,-0.012901,0.039504,0.085926,0.999986,0.000690,-0.005085,0.001058,-0.506042,-0.132592,0.233641,0.819605,31.149644,-1.095455,-116.921230
57901,-1.126920,4.024873,8.966092,-0.455075,1.759326,-0.088636,0.236290,-1.052527,0.118023,-0.011765,0.040136,0.089647,0.999985,0.001181,-0.005263,0.000590,-0.505126,-0.128745,0.237345,0.819719,31.291450,-1.645172,-117.176453
57902,-1.088126,4.280775,9.409939,-0.449898,1.847682,0.406830,0.353598,-1.178039,0.021124,-0.011440,0.042640,0.094109,0.999981,0.001768,-0.005890,0.000106,-0.503575,-0.124780,0.241781,0.819990,31.505725,-2.227796,-117.518357
57903,-0.523660,4.498235,9.610343,-0.612230,1.440909,0.695144,0.451807,-1.331830,-0.084129,-0.005858,0.044768,0.096167,0.999975,0.002259,-0.006659,-0.000421,-0.501321,-0.120564,0.246927,0.820469,31.784506,-2.851076,-117.960569
57904,0.058557,4.600528,9.488792,-0.736992,0.989537,0.660204,0.524901,-1.473771,-0.206091,-0.000067,0.045756,0.095009,0.999969,0.002624,-0.007369,-0.001030,-0.498321,-0.116084,0.252643,0.821202,32.115663,-3.505132,-118.508810
57905,0.180045,5.065270,9.284423,-0.340504,0.791175,0.729900,0.575310,-1.616391,-0.313235,0.001128,0.050383,0.093000,0.999962,0.002877,-0.008082,-0.001566,-0.494635,-0.111280,0.258839,0.822165,32.489133,-4.190968,-119.157248
57906,0.718585,5.501258,9.170252,-0.214302,0.270414,0.899586,0.547942,-1.701242,-0.408815,0.006517,0.054747,0.091910,0.999958,0.002740,-0.008506,-0.002044,-0.490425,-0.106165,0.265061,0.823380,32.860473,-4.884992,-119.883250
57907,1.080853,5.594128,8.876751,-0.189764,-0.027398,0.733434,0.505247,-1.748187,-0.459389,0.010159,0.055693,0.088999,0.999956,0.002526,-0.008741,-0.002297,-0.485922,-0.100820,0.271171,0.824731,33.220539,-5.580084,-120.653588
57908,1.227177,5.727920,8.631877,-0.051801,-0.143756,0.618000,0.503730,-1.761694,-0.448497,0.011638,0.057035,0.086567,0.999956,0.002519,-0.008808,-0.002242,-0.481406,-0.095382,0.277290,0.825991,33.589158,-6.281229,-121.428271
57909,1.443354,5.912643,8.346667,0.099530,-0.359671,0.510517,0.512704,-1.725881,-0.398687,0.013829,0.058884,0.083739,0.999957,0.002563,-0.008629,-0.001993,-0.477097,-0.090046,0.283358,0.827030,33.969234,-6.975087,-122.173261
57910,1.163629,6.095825,8.299498,0.408956,-0.075275,0.542039,0.492458,-1.647030,-0.315530,0.011047,0.060736,0.083237,0.999962,0.002462,-0.008235,-0.001578,-0.473217,-0.084853,0.289171,0.827796,34.338645,-7.654521,-122.858532
57911,0.810397,6.118169,8.208427,0.666275,0.304398,0.430802,0.448514,-1.576345,-0.233703,0.007527,0.060988,0.082282,0.999966,0.002243,-0.007882,-0.001169,-0.469759,-0.079733,0.294647,0.828343,34.683288,-8.321826,-123.487008
57912,0.555531,6.225489,8.194958,0.911738,0.589998,0.436316,0.362018,-1.509633,-0.171222,0.004989,0.062102,0.082101,0.999970,0.001810,-0.007548,-0.000856,-0.466665,-0.074581,0.299616,0.828790,34.978213,-8.975742,-124.068454
57913,0.232860,6.009964,8.295796,0.925741,1.093091,0.333304,0.258828,-1.454595,-0.127664,0.001763,0.059991,0.083050,0.999973,0.001294,-0.007273,-0.000638,-0.463843,-0.069355,0.304025,0.829222,35.215107,-9.614506,-124.614981
57914,0.041497,5.668132,8.307087,0.823754,1.492036,0.098479,0.203066,-1.452303,-0.081533,-0.000165,0.056597,0.083129,0.999973,0.001015,-0.007261,-0.000408,-0.461211,-0.063928,0.308199,0.829584,35.422609,-10.266275,-125.142357
57915,0.464152,5.760969,8.073416,0.791894,1.115780,0.021490,0.162094,-1.466769,-0.050545,0.004064,0.057543,0.080812,0.999973,0.000810,-0.007334,-0.000253,-0.458672,-0.058302,0.312229,0.829900,35.611635,-10.932411,-125.663358
57916,1.101303,5.903816,7.870565,0.658021,0.560289,0.049654,0.085356,-1.422190,-0.054604,0.010469,0.059002,0.078807,0.999975,0.000427,-0.007111,-0.000273,-0.456186,-0.052683,0.315821,0.830287,35.760359,-11.575658,-126.174199
57917,1.625883,5.586406,7.689817,0.241337,0.275616,-0.176836,0.010071,-1.343084,-0.066054,0.015760,0.055855,0.077008,0.999977,0.000050,-0.006715,-0.000330,-0.453774,-0.047242,0.318901,0.830759,35.867662,-12.176464,-126.666021
57918,1.936092,5.311696,7.710476,-0.100479,0.234838,-0.255072,0.003020,-1.233612,-0.077748,0.018905,0.053108,0.077223,0.999981,0.000015,-0.006168,-0.000389,-0.451471,-0.042251,0.321688,0.831207,35.969100,-12.722324,-127.127858
57919,1.905218,5.386152,8.022593,-0.098219,0.467229,0.024682,0.010020,-1.156995,-0.079493,0.018609,0.053850,0.080337,0.999983,0.000050,-0.005785,-0.000397,-0.449266,-0.037601,0.324318,0.831603,36.073553,-13.230620,-127.566039
57920,2.085668,6.003784,8.203009,0.221007,0.259564,0.558808,-0.037032,-1.117756,-0.087114,0.020424,0.060044,0.082134,0.999984,-0.000185,-0.005589,-0.000436,-0.447088,-0.033015,0.326653,0.832058,36.152626,-13.718129,-127.995902
57921,2.060538,6.143059,8.349691,0.333954,0.373572,0.744235,-0.110168,-1.068470,-0.062037,0.020178,0.061470,0.083572,0.999986,-0.000551,-0.005342,-0.000310,-0.445092,-0.028433,0.328568,0.832543,36.186803,-14.190274,-128.398069
57922,1.602542,6.193690,8.576612,0.625147,0.893657,0.831465,-0.086065,-1.100198,0.043268,0.015540,0.061977,0.085826,0.999985,-0.000430,-0.005501,0.000216,-0.443467,-0.023594,0.330659,0.832733,36.228506,-14.713056,-128.762205
57923,1.507232,6.590930,8.649050,1.009838,0.935648,1.078676,-0.011610,-1.197151,0.194897,0.014490,0.065929,0.086575,0.999982,-0.000058,-0.005986,0.000974,-0.442288,-0.018270,0.333282,0.832449,36.306982,-15.331062,-129.089416
57924,1.462196,6.616904,8.608448,1.141954,1.039859,1.033506,0.014227,-1.315164,0.319266,0.013950,0.066186,0.086182,0.999977,0.000071,-0.006576,0.001596,-0.441411,-0.012300,0.336270,0.831822,36.399435,-16.045747,-129.400598
57925,1.942244,5.968089,8.250856,0.570978,0.847852,0.503345,-0.012964,-1.406420,0.358346,0.018735,0.059720,0.082638,0.999974,-0.000065,-0.007032,0.001792,-0.440522,-0.005828,0.339333,0.831120,36.484860,-16.814874,-129.727751
57926,2.489752,4.987857,8.058638,-0.339720,0.823291,-0.054383,-0.033434,-1.436372,0.285561,0.024247,0.049927,0.080754,0.999973,-0.000167,-0.007182,0.001428,-0.439257,0.000694,0.342357,0.830569,36.576853,-17.572799,-130.103185
57927,2.987646,4.585818,7.863440,-0.809034,0.609059,-0.285742,-0.069702,-1.422046,0.112513,0.029291,0.045902,0.078828,0.999975,-0.000349,-0.007110,0.000563,-0.437274,0.006936,0.345181,0.830417,36.677781,-18.264062,-130.560000
57928,2.836774,4.257788,7.854225,-0.890357,0.938189,-0.528784,-0.051509,-1.400043,-0.037970,0.027825,0.042593,0.078727,0.999975,-0.000258,-0.007000,-0.000190,-0.434685,0.012790,0.348020,0.830523,36.815595,-18.893032,-131.084906
57929,2.780733,5.140242,7.829797,-0.148928,0.727819,-0.070648,0.022385,-1.408539,-0.100008,0.027281,0.051380,0.078497,0.999975,0.000112,-0.007043,-0.000500,-0.431805,0.018407,0.351171,0.830593,37.013572,-19.502785,-131.646990
57930,2.980150,6.522259,7.640487,0.838291,0.048847,0.632024,0.031703,-1.405833,-0.036192,0.029275,0.065205,0.076622,0.999975,0.000159,-0.007029,-0.000181,-0.429176,0.024107,0.354331,0.830468,37.212903,-20.131792,-132.181347
57931,3.393060,7.242169,7.194890,1.277269,-0.683644,0.846975,-0.029967,-1.370522,0.122055,0.033392,0.072453,0.072168,0.999976,-0.000150,-0.006853,0.000610,-0.427236,0.030069,0.357124,0.830077,37.352905,-20.797859,-132.629967
57932,3.740210,6.965213,7.078175,0.951358,-0.791607,0.726335,-0.072112,-1.273995,0.308260,0.036843,0.069735,0.070992,0.999978,-0.000361,-0.006370,0.001541,-0.426218,0.036054,0.359491,0.829340,37.428911,-21.484202,-132.954961
57933,3.539861,6.343545,7.222967,0.662959,-0.232935,0.407262,-0.061091,-1.214374,0.461494,0.034813,0.063538,0.072423,0.999979,-0.000305,-0.006072,0.002307,-0.425925,0.042039,0.361735,0.828232,37.479794,-22.196255,-133.184972
57934,3.659634,5.552666,7.276124,0.071767,0.113199,0.043668,-0.026151,-1.183927,0.532624,0.036017,0.055633,0.072968,0.999979,-0.000131,-0.005920,0.002663,-0.425971,0.047953,0.364028,0.826881,37.536116,-22.919293,-133.370317
57935,3.548417,5.110074,7.431519,-0.144590,0.548814,-0.137551,0.033659,-1.151922,0.535853,0.034918,0.051182,0.074526,0.999980,0.000168,-0.005760,0.002679,-0.426085,0.053609,0.366485,0.825388,37.624315,-23.628500,-133.543923
57936,3.184579,5.171059,7.226531,0.247208,0.730526,-0.404808,0.077278,-1.150915,0.514702,0.031296,0.051764,0.072466,0.999980,0.000386,-0.005755,0.002573,-0.426110,0.059129,0.369110,0.823828,37.744363,-24.329737,-133.729914
57937,3.382715,5.400015,6.763286,0.460540,0.305324,-0.536990,0.077037,-1.138546,0.509889,0.033304,0.054059,0.067844,0.999980,0.000385,-0.005693,0.002549,-0.426119,0.064586,0.371695,0.822249,37.866616,-25.023139,-133.916253
57938,3.861112,5.657494,6.360817,0.501804,-0.278262,-0.482885,0.064493,-1.060750,0.518204,0.038126,0.056654,0.063829,0.999983,0.000322,-0.005304,0.002591,-0.426288,0.069764,0.374046,0.820671,37.969828,-25.684089,-134.070578
57939,4.351460,5.581702,6.156379,0.241823,-0.623230,-0.456199,0.045151,-0.949196,0.537893,0.043071,0.055919,0.061782,0.999985,0.000226,-0.004746,0.002689,-0.426726,0.074558,0.376061,0.819099,38.041016,-26.301290,-134.173263
57940,4.348562,4.995491,6.371559,-0.184173,-0.191220,-0.626258,0.124178,-0.830605,0.543637,0.043084,0.050033,0.063926,0.999987,0.000621,-0.004153,0.002718,-0.427428,0.078708,0.378135,0.817389,38.136740,-26.867034,-134.227658
57941,4.137817,5.013385,6.772213,-0.068531,0.289646,-0.430303,0.252649,-0.796142,0.526631,0.040976,0.050156,0.067949,0.999988,0.001263,-0.003981,0.002633,-0.428166,0.082408,0.380657,0.815465,38.305103,-27.410996,-134.278711
57942,3.780451,5.271418,7.053522,0.336729,0.705770,-0.261793,0.311009,-0.803207,0.468845,0.037397,0.052692,0.070768,0.999988,0.001555,-0.004016,0.002344,-0.428669,0.085901,0.383447,0.813531,38.523206,-27.937533,-134.364154
57943,3.531678,5.065027,7.019980,0.374433,0.995608,-0.524243,0.352690,-0.843910,0.410614,0.034916,0.050598,0.070437,0.999987,0.001763,-0.004220,0.002053,-0.428863,0.089354,0.386509,0.811605,38.789174,-28.460985,-134.498691
57944,3.249641,5.026993,6.916901,0.568423,1.200715,-0.762341,0.396032,-0.886027,0.360931,0.032099,0.050191,0.069411,0.999987,0.001980,-0.004430,0.001805,-0.428784,0.092789,0.389849,0.809662,39.103111,-28.984747,-134.679372
57945,2.546415,4.803177,7.091631,0.823488,1.925631,-1.125973,0.429986,-0.954576,0.306379,0.025051,0.047918,0.071140,0.999985,0.002150,-0.004773,0.001532,-0.428353,0.096318,0.393489,0.807715,39.467789,-29.518128,-134.920847
57946,2.442260,4.786300,6.821882,0.949148,1.891538,-1.390585,0.391713,-1.054715,0.226294,0.024008,0.047756,0.068440,0.999984,0.001959,-0.005274,0.001131,-0.427370,0.100172,0.397213,0.805942,39.856118,-30.064873,-135.250417
57947,3.166312,4.993775,6.220007,0.796406,1.036295,-1.330771,0.328884,-1.107386,0.136867,0.031284,0.049857,0.062456,0.999983,0.001644,-0.005537,0.000684,-0.425876,0.104193,0.400830,0.804431,40.248780,-30.599908,-135.654174
57948,3.706592,4.878524,5.695930,0.488973,0.449535,-1.473584,0.303387,-1.084511,0.088443,0.036735,0.048715,0.057233,0.999984,0.001517,-0.005423,0.000442,-0.424207,0.108074,0.404305,0.803061,40.640522,-31.104284,-136.078883
57949,4.289346,5.372904,5.450459,0.569475,-0.147918,-1.058988,0.326562,-1.034619,0.084483,0.042588,0.053658,0.054813,0.999985,0.001633,-0.005173,0.000422,-0.422621,0.111696,0.407759,0.801653,41.041886,-31.583301,-136.490166
57950,4.391103,5.793067,5.382279,0.857904,-0.305091,-0.813761,0.307314,-0.937393,0.133181,0.043619,0.057877,0.054117,0.999988,0.001537,-0.004687,0.000666,-0.421407,0.115062,0.410891,0.800216,41.402071,-32.036126,-136.839195
57951,3.717610,5.615424,5.483779,1.141937,0.295426,-1.208409,0.303293,-0.896486,0.221394,0.036867,0.056112,0.055089,0.999988,0.001516,-0.004482,0.001107,-0.420617,0.118455,0.413861,0.798604,41.731558,-32.503488,-137.130247
57952,4.004205,5.423870,5.287322,0.873341,0.114435,-1.290277,0.278430,-0.862358,0.270504,0.039740,0.054219,0.053120,0.999989,0.001392,-0.004312,0.001353,-0.420070,0.121859,0.416620,0.796944,42.029221,-32.973319,-137.385316
57953,3.723553,4.977234,5.518414,0.693411,0.656232,-1.555650,0.264540,-0.828994,0.304790,0.036930,0.049756,0.055403,0.999989,0.001323,-0.004145,0.001524,-0.419711,0.125231,0.419226,0.795242,42.305219,-33.441491,-137.611929
57954,3.848976,5.177386,5.386231,0.820284,0.494902,-1.463249,0.269907,-0.849890,0.339761,0.038172,0.051766,0.054095,0.999989,0.001350,-0.004249,0.001699,-0.419441,0.128742,0.421864,0.793427,42.583442,-33.930614,-137.834354
57955,4.392989,5.275072,5.202238,0.620991,0.091345,-1.222370,0.231578,-0.809542,0.365033,0.043622,0.052770,0.052260,0.999989,0.001158,-0.004048,0.001825,-0.419323,0.132227,0.424242,0.791646,42.825786,-34.412206,-138.029027
57956,4.498174,5.051249,5.098288,0.431993,0.085032,-1.354147,0.238469,-0.760268,0.411865,0.044683,0.050544,0.051213,0.999990,0.001192,-0.003801,0.002059,-0.419490,0.135596,0.426502,0.789771,43.048405,-34.890196,-138.179850
57957,4.592942,5.194367,4.950619,0.541799,-0.058465,-1.310465,0.226202,-0.701318,0.439793,0.045641,0.051988,0.049725,0.999991,0.001131,-0.003507,0.002199,-0.419877,0.138818,0.428565,0.787886,43.242412,-35.354585,-138.291240
57958,4.234536,4.883697,5.203598,0.516982,0.482856,-1.544771,0.188811,-0.635402,0.439047,0.042072,0.048880,0.052216,0.999992,0.000944,-0.003177,0.002195,-0.420369,0.141851,0.430333,0.786118,43.398677,-35.790335,-138.373458
57959,3.820165,4.083434,5.226341,0.170577,0.998899,-2.226151,0.200458,-0.643494,0.402284,0.037951,0.040858,0.052427,0.999992,0.001002,-0.003217,0.002011,-0.420702,0.144814,0.432186,0.784381,43.576826,-36.215343,-138.480595
57960,4.098590,3.957880,5.421197,-0.096328,1.092445,-2.024901,0.221529,-0.649788,0.297197,0.040751,0.039579,0.054388,0.999993,0.001108,-0.003249,0.001486,-0.420617,0.147524,0.434202,0.782807,43.802896,-36.600400,-138.647246
57961,3.540898,3.685596,5.984274,-0.029587,1.969209,-2.193360,0.273405,-0.704854,0.193136,0.035162,0.036808,0.060017,0.999992,0.001367,-0.003524,0.000966,-0.420038,0.150116,0.436610,0.781284,44.110001,-36.966816,-138.897980
57962,4.277335,4.367054,5.757615,0.108937,1.280683,-1.514227,0.288602,-0.825831,0.071687,0.042519,0.043603,0.057815,0.999990,0.001443,-0.004129,0.000358,-0.418724,0.152877,0.439411,0.779883,44.503623,-37.332242,-139.275741
57963,4.988234,4.799743,5.352935,0.084895,0.538746,-1.079072,0.256147,-0.841291,-0.004197,0.049657,0.047928,0.053800,0.999990,0.001281,-0.004206,-0.000021,-0.417048,0.155601,0.442171,0.778681,44.912344,-37.672012,-139.705511
57964,5.067361,5.063496,4.859675,0.315325,0.095699,-1.162567,0.269013,-0.824511,0.010555,0.050470,0.050572,0.048873,0.999991,0.001345,-0.004123,0.000053,-0.415469,0.158257,0.444922,0.777422,45.323197,-38.007727,-140.123856
57965,5.410867,5.282132,4.428863,0.340552,-0.420751,-1.066269,0.294677,-0.753840,0.065068,0.053924,0.052773,0.044570,0.999992,0.001473,-0.003769,0.000325,-0.414271,0.160709,0.447580,0.776031,45.714171,-38.335845,-140.482774
57966,4.788594,5.342823,5.041581,0.699588,0.447729,-1.083215,0.335307,-0.682696,0.134642,0.047677,0.053376,0.050668,0.999993,0.001677,-0.003413,0.000673,-0.413529,0.162949,0.450181,0.774454,46.087054,-38.661516,-140.772996
57967,4.311326,5.358482,5.682350,0.937724,1.281190,-1.033809,0.362221,-0.740170,0.215843,0.042845,0.053528,0.057079,0.999991,0.001811,-0.003701,0.001079,-0.412987,0.165541,0.452935,0.772585,46.473039,-39.042877,-141.056952
57968,4.666695,5.498971,5.660559,0.858123,1.130546,-0.754899,0.332010,-0.844630,0.276463,0.046351,0.054960,0.056893,0.999989,0.001660,-0.004223,0.001382,-0.412409,0.168727,0.455725,0.770562,46.862164,-39.488140,-141.371064
57969,5.596035,5.403410,5.111766,0.315986,0.326598,-0.515624,0.278746,-0.893832,0.324797,0.055643,0.054053,0.051442,0.999988,0.001394,-0.004469,0.001624,-0.411851,0.172324,0.458363,0.768496,47.228397,-39.972197,-141.693675
57970,6.305535,5.214618,4.447073,-0.148259,-0.443654,-0.511670,0.299349,-0.852932,0.443003,0.062749,0.052218,0.044817,0.999987,0.001497,-0.004265,0.002215,-0.411848,0.175982,0.460879,0.766161,47.558779,-40.487706,-141.939538
57971,6.524226,5.514486,3.931777,0.062402,-0.968358,-0.459003,0.456826,-0.775390,0.688434,0.064899,0.055278,0.039696,0.999984,0.002284,-0.003877,0.003442,-0.413091,0.179586,0.463614,0.762999,47.875519,-41.077304,-142.023249
57972,6.819159,6.268376,3.411840,0.609947,-1.626552,-0.095948,0.665512,-0.642672,1.003155,0.067766,0.062910,0.034546,0.999977,0.003328,-0.003213,0.005016,-0.416013,0.182968,0.466566,0.758796,48.159149,-41.748781,-141.875404
57973,7.030010,6.518825,3.065532,0.815346,-1.972818,0.023725,0.792296,-0.474497,1.308226,0.069799,0.065523,0.031080,0.999968,0.003961,-0.002372,0.006541,-0.420578,0.186157,0.469348,0.753772,48.345623,-42.487917,-141.476105
57974,7.612196,5.779532,2.774199,0.027850,-2.240928,-0.116290,0.999902,-0.251221,1.594009,0.075624,0.058259,0.028128,0.999955,0.004999,-0.001256,0.007970,-0.426904,0.188717,0.472140,0.747812,48.455743,-43.264443,-140.795579
57975,7.571763,5.863482,3.240160,0.191819,-1.736398,0.145042,1.261906,-0.066517,1.864803,0.075157,0.059131,0.032799,0.999937,0.006309,-0.000333,0.009324,-0.434881,0.190653,0.475211,0.740746,48.530297,-44.088732,-139.856121
57976,7.041024,6.831497,4.558983,1.241107,-0.399008,0.926382,1.217843,0.061421,1.961803,0.069752,0.068722,0.045986,0.999933,0.006089,0.000307,0.009809,-0.443420,0.192411,0.477687,0.733602,48.470866,-44.905408,-138.775205
57977,6.382738,5.217538,5.055714,0.292059,0.679614,-0.170400,0.958347,0.061190,1.916438,0.063341,0.052541,0.050789,0.999943,0.004792,0.000306,0.009582,-0.451490,0.194619,0.479196,0.727084,48.256546,-45.701667,-137.700825
57978,6.601845,3.926818,4.629857,-0.744937,0.439841,-0.885736,0.860636,0.017797,1.777931,0.065671,0.039653,0.046463,0.999951,0.004303,0.000089,0.008890,-0.458807,0.196846,0.480533,0.720997,48.036681,-46.451708,-136.710368
57979,6.137483,4.088218,5.052111,-0.355233,1.057568,-0.943598,0.685736,0.024023,1.523517,0.061068,0.041175,0.050655,0.999965,0.003429,0.000120,0.007617,-0.465013,0.198831,0.481434,0.715856,47.796749,-47.089225,-135.841408
57980,5.934694,3.063324,5.038331,-1.065414,1.285278,-1.615010,0.475407,-0.038483,1.228901,0.059148,0.030877,0.050468,0.999978,0.002377,-0.000192,0.006144,-0.469778,0.200801,0.481993,0.711808,47.572708,-47.622782,-135.166004
57981,6.074949,3.245611,5.109082,-0.934471,1.297093,-1.387385,0.504573,-0.154187,1.030010,0.060542,0.032639,0.051220,0.999983,0.002523,-0.000771,0.005150,-0.473569,0.202634,0.483110,0.708009,47.493759,-48.116646,-134.669305
57982,7.248798,4.238896,4.160228,-0.411874,-0.128238,-0.451373,0.539520,-0.251639,0.934996,0.072237,0.042614,0.041808,0.999985,0.002698,-0.001258,0.004675,-0.476807,0.204488,0.484660,0.704233,47.515743,-48.607079,-134.284703
57983,8.372331,4.922306,3.567378,-0.172521,-1.173906,0.465577,0.602814,-0.181464,0.934164,0.083460,0.049505,0.035899,0.999984,0.003014,-0.000907,0.004671,-0.480264,0.205941,0.486253,0.700352,47.535845,-49.070947,-133.852221
57984,8.716143,5.166165,2.983605,0.063730,-1.803711,0.594233,0.764223,-0.082640,1.075564,0.086870,0.052015,0.030070,0.999978,0.003821,-0.000413,0.005378,-0.485145,0.206607,0.488158,0.695450,47.528764,-49.554495,-133.177428
57985,9.232520,6.046083,2.470418,0.795484,-2.477092,1.193097,0.923520,0.092498,1.292291,0.091944,0.060941,0.024942,0.999968,0.004618,0.000462,0.006461,-0.490801,0.207183,0.489795,0.690138,47.419661,-50.063238,-132.341514
57986,9.112829,6.060704,2.453270,0.985584,-2.367401,1.105951,1.011651,0.347471,1.505398,0.090712,0.061166,0.024683,0.999957,0.005058,0.001737,0.007527,-0.498404,0.206779,0.491002,0.683925,47.116491,-50.558800,-131.106125
57987,8.346250,5.922523,3.132377,1.169936,-1.345426,0.740393,1.032282,0.564178,1.672190,0.083053,0.059759,0.031397,0.999948,0.005161,0.002821,0.008361,-0.506547,0.206362,0.491372,0.677775,46.616031,-51.035883,-129.696669
57988,7.561799,5.246593,4.190121,0.767936,0.001382,0.270663,0.893800,0.672088,1.683618,0.075315,0.052914,0.041884,0.999949,0.004469,0.003360,0.008418,-0.515304,0.205557,0.491083,0.671599,45.949835,-51.464132,-128.099959
57989,7.116692,3.958821,4.764511,-0.249873,0.716099,-0.408204,0.734979,0.672750,1.574202,0.071013,0.039973,0.047552,0.999957,0.003675,0.003364,0.007871,-0.522974,0.205252,0.490179,0.666405,45.225495,-51.837577,-126.639012
57990,6.959309,3.462144,5.235230,-0.675384,1.184568,-0.540885,0.614372,0.592461,1.388319,0.069506,0.034944,0.052253,0.999967,0.003072,0.002962,0.006942,-0.530088,0.204733,0.489360,0.661527,44.549154,-52.155659,-125.260544
57991,6.843923,3.415869,5.690847,-0.726474,1.628563,-0.447169,0.461173,0.465787,1.161332,0.068372,0.034425,0.056828,0.999978,0.002306,0.002329,0.005807,-0.535528,0.204798,0.488451,0.657787,43.956492,-52.427733,-124.177047
57992,6.915069,3.013790,5.617469,-1.045858,1.504627,-0.587767,0.358462,0.302766,0.950987,0.069092,0.030366,0.056124,0.999986,0.001792,0.001514,0.004755,-0.540187,0.204820,0.487965,0.654322,43.490505,-52.676047,-123.255999
57993,7.103343,3.034844,5.323852,-0.970494,1.163948,-0.554481,0.387915,0.139383,0.801172,0.070948,0.030529,0.053248,0.999990,0.001940,0.000697,0.004006,-0.543538,0.205259,0.488032,0.651352,43.201160,-52.931950,-122.613364
57994,7.694946,3.697507,4.634214,-0.341973,0.334270,-0.110583,0.426600,0.039436,0.730122,0.076823,0.037157,0.046406,0.999991,0.002133,0.000197,0.003651,-0.546865,0.205415,0.488683,0.648022,43.017922,-53.198332,-122.004516
57995,8.321639,4.237485,3.847062,0.201885,-0.589484,0.267856,0.452577,0.035633,0.721364,0.083070,0.042587,0.038552,0.999991,0.002263,0.000178,0.003607,-0.549748,0.205813,0.489306,0.644978,42.852619,-53.463818,-121.474768
57996,8.907325,4.657331,3.233678,0.620238,-1.345586,0.641604,0.539911,0.142807,0.803835,0.088908,0.046843,0.032399,0.999988,0.002700,0.000714,0.004019,-0.553569,0.205562,0.489920,0.641315,42.627542,-53.713558,-120.751842
57997,9.190702,5.339157,2.939887,1.304205,-1.642815,1.014044,0.680059,0.292344,1.008281,0.091680,0.053754,0.029447,0.999980,0.003400,0.001462,0.005041,-0.558205,0.205199,0.490245,0.637150,42.279567,-53.978820,-119.837943
57998,9.740667,5.778937,2.699544,1.710072,-2.040660,1.521967,0.812592,0.476519,1.293590,0.097095,0.058308,0.027000,0.999968,0.004063,0.002383,0.006468,-0.564646,0.204298,0.490262,0.631729,41.730782,-54.269227,-118.525225
57999,9.919588,5.681570,2.505307,1.759462,-2.266811,1.532746,0.938258,0.702950,1.609717,0.098823,0.057495,0.024974,0.999950,0.004691,0.003515,0.008048,-0.572382,0.203355,0.489572,0.625575,40.928864,-54.574794,-116.877943
58000,9.755502,5.328659,2.429888,1.667932,-2.256403,1.214221,1.025351,0.961641,1.884862,0.097164,0.054080,0.024107,0.999931,0.005127,0.004808,0.009424,-0.581950,0.201744,0.488175,0.618319,39.849885,-54.852367,-114.777551
58001,8.594062,4.777286,3.577777,1.242765,-0.756896,0.548851,0.981154,1.228783,1.982819,0.085681,0.048449,0.035487,0.999920,0.004906,0.006144,0.009914,-0.592021,0.199905,0.485594,0.611349,38.523973,-55.023442,-112.470602
58002,6.732166,2.909073,5.063297,-0.430733,1.119846,-0.981990,0.827602,1.268071,1.890978,0.067364,0.029519,0.050327,0.999927,0.004138,0.006340,0.009455,-0.601938,0.197917,0.482532,0.604701,37.135949,-55.111724,-110.146324
58003,5.961065,1.730593,5.863476,-1.555229,1.921401,-1.639654,0.727722,1.098192,1.652845,0.059787,0.017587,0.058370,0.999944,0.003639,0.005491,0.008264,-0.610270,0.196374,0.479764,0.599028,35.923318,-55.168741,-108.160056
58004,5.555498,1.519092,6.404192,-1.816908,2.489488,-1.769937,0.580195,0.865485,1.313134,0.055731,0.015371,0.063845,0.999965,0.002901,0.004327,0.006566,-0.617022,0.194979,0.477617,0.594263,34.962119,-55.198850,-106.545803
58005,5.717963,1.415011,6.514017,-1.942839,2.429943,-1.599871,0.451299,0.590337,0.976136,0.057302,0.014283,0.065003,0.999981,0.002256,0.002952,0.004881,-0.621760,0.194151,0.476175,0.590743,34.282038,-55.237202,-105.402605
58006,6.715185,1.728006,6.136082,-1.641597,1.626366,-0.846571,0.375490,0.340759,0.703287,0.067195,0.017401,0.061279,0.999991,0.001877,0.001704,0.003516,-0.625203,0.193473,0.475597,0.587790,33.858878,-55.298821,-104.587259
58007,7.591570,2.355500,5.598124,-0.968667,0.855142,-0.176834,0.343617,0.160690,0.539093,0.075897,0.023663,0.055961,0.999995,0.001718,0.000803,0.002695,-0.627497,0.193199,0.475580,0.585444,33.610908,-55.392725,-104.046123
58008,8.671553,2.867441,4.537198,-0.230807,-0.456763,0.372706,0.358917,0.089325,0.489253,0.086665,0.028805,0.045385,0.999995,0.001795,0.000447,0.002446,-0.629665,0.192809,0.475929,0.582956,33.436906,-55.502466,-103.549465
58009,9.403260,3.577067,3.676060,0.675336,-1.356553,0.790788,0.468376,0.170076,0.568934,0.093962,0.035952,0.036765,0.999993,0.002342,0.000850,0.002845,-0.632175,0.192183,0.476206,0.580215,33.230911,-55.599117,-102.973879
58010,9.944500,4.389659,2.712315,1.767714,-2.193631,1.030818,0.635543,0.348763,0.818387,0.099312,0.044217,0.027090,0.999985,0.003178,0.001744,0.004092,-0.636154,0.190947,0.476206,0.576260,32.861611,-55.685016,-102.050525
58011,10.610368,4.813035,1.772233,2.530165,-3.166166,1.253407,0.816136,0.659168,1.168932,0.105878,0.048678,0.017571,0.999969,0.004081,0.003296,0.005845,-0.641850,0.189221,0.475329,0.571215,32.204224,-55.725727,-100.688452
58012,10.348387,4.522246,1.626686,2.489583,-3.190640,0.855278,1.004545,1.066175,1.521896,0.103222,0.045928,0.015946,0.999944,0.005023,0.005331,0.007609,-0.649835,0.186380,0.473370,0.564710,31.223350,-55.662257,-98.764847
58013,9.505171,4.293176,2.162053,2.303121,-2.360565,0.315237,1.165436,1.432351,1.820911,0.094809,0.043671,0.021194,0.999916,0.005827,0.007162,0.009104,-0.659397,0.182835,0.470269,0.557327,29.971991,-55.485817,-96.437977
58014,8.166110,4.322501,3.413974,2.054516,-0.641890,-0.200737,1.207623,1.713353,1.994777,0.081516,0.043834,0.033704,0.999895,0.006038,0.008566,0.009974,-0.670174,0.178601,0.466164,0.549236,28.530149,-55.185985,-93.810134
58015,6.591916,3.561231,4.802425,0.960432,1.018716,-1.024191,1.064377,1.803737,2.022744,0.065987,0.036025,0.047620,0.999894,0.005322,0.009018,0.010113,-0.680811,0.174768,0.461186,0.541535,26.988697,-54.810134,-91.183594
58016,6.013283,1.787843,5.696533,-0.917590,1.325649,-1.493685,0.902338,1.739605,1.881246,0.060456,0.018190,0.056522,0.999908,0.004512,0.008698,0.009406,-0.690744,0.171202,0.456058,0.534391,25.527372,-54.391634,-88.732838
58017,5.630094,0.720966,6.344412,-2.081498,1.533655,-1.702003,0.810990,1.596631,1.618927,0.056746,0.007412,0.063022,0.999927,0.004055,0.007983,0.008094,-0.699354,0.167806,0.451289,0.528283,24.293882,-53.951565,-86.638071
58018,5.854002,1.051778,6.378678,-1.725139,1.461953,-1.389584,0.736769,1.406357,1.333075,0.058916,0.010676,0.063413,0.999946,0.003684,0.007032,0.006665,-0.706698,0.164437,0.447200,0.523021,23.322419,-53.521331,-84.892935
58019,7.102133,1.506662,5.739503,-0.891062,0.377253,-0.608614,0.670079,1.279980,1.111744,0.071302,0.015271,0.056990,0.999958,0.003350,0.006400,0.005559,-0.712988,0.161193,0.443494,0.518630,22.536554,-53.093047,-83.433739
58020,8.327553,2.174642,4.931810,0.242451,-0.705030,0.078878,0.738882,1.260842,1.076766,0.083467,0.022014,0.048873,0.999959,0.003694,0.006304,0.005384,-0.719221,0.157586,0.440055,0.514042,21.847037,-52.655704,-82.018832
58021,9.560256,2.767587,3.799478,1.506160,-2.019274,0.538478,0.888900,1.347431,1.181346,0.095691,0.028074,0.037474,0.999950,0.004444,0.006737,0.005907,-0.725886,0.153509,0.436539,0.508879,21.171104,-52.184601,-80.522941
58022,10.150928,3.072026,3.399867,2.158579,-2.558900,0.809367,1.066745,1.604383,1.360188,0.101567,0.031232,0.033350,0.999930,0.005334,0.008022,0.006801,-0.733613,0.148503,0.432360,0.502816,20.439386,-51.601372,-78.815346
58023,8.968127,2.954980,4.154569,1.696329,-1.453594,0.258413,1.189935,1.831302,1.532715,0.089829,0.029993,0.040901,0.999911,0.005949,0.009156,0.007663,-0.742243,0.142826,0.427455,0.495942,19.645618,-50.915579,-76.923252
58024,7.876891,2.072951,4.831281,0.585893,-0.840571,-0.398235,1.178847,1.954387,1.545126,0.079075,0.021057,0.047665,0.999905,0.005894,0.009772,0.007725,-0.751017,0.136884,0.421987,0.489043,18.859936,-50.149884,-75.029557
58025,6.153469,1.657681,6.261933,-0.662410,0.805813,-0.939412,1.152656,1.988093,1.398262,0.062037,0.016650,0.062100,0.999910,0.005763,0.009940,0.006991,-0.759351,0.130624,0.416343,0.482682,18.196989,-49.323387,-73.294994
58026,5.067583,1.572881,6.978165,-1.235168,1.752026,-1.312544,1.088160,1.825467,1.225904,0.051214,0.015663,0.069401,0.999925,0.005441,0.009127,0.006129,-0.766758,0.124619,0.411212,0.476924,17.686055,-48.544348,-71.789308
58027,5.548631,1.487887,7.015617,-1.173944,1.311587,-0.917731,0.929573,1.654906,1.035962,0.055988,0.014843,0.069763,0.999942,0.004648,0.008274,0.005180,-0.773165,0.119224,0.406412,0.472050,17.268493,-47.817211,-70.513988
58028,5.492793,1.130751,7.343521,-1.597298,1.232039,-0.795702,0.795640,1.528072,0.835024,0.055440,0.011247,0.073058,0.999954,0.003978,0.007640,0.004175,-0.778675,0.114223,0.401871,0.468101,16.947241,-47.120700,-69.458375
58029,5.293484,0.930972,7.317474,-1.748003,1.128560,-0.975105,0.694284,1.345698,0.639820,0.053396,0.009227,0.072849,0.999966,0.003471,0.006728,0.003199,-0.783246,0.109644,0.397874,0.464973,16.734334,-46.487993,-68.620288
58030,6.415041,1.005323,6.530755,-0.950328,-0.075764,-0.652754,0.610594,1.239736,0.442585,0.064532,0.009997,0.064939,0.999974,0.003053,0.006199,0.002213,-0.787052,0.105238,0.394188,0.462698,16.620445,-45.879720,-67.976634
58031,7.595804,0.949403,5.961703,-0.336732,-1.268057,-0.199310,0.604599,1.263344,0.330334,0.076317,0.009441,0.059164,0.999974,0.003023,0.006317,0.001652,-0.790603,0.100577,0.390428,0.460865,16.571952,-45.239149,-67.423133
58032,8.332982,0.725208,5.401329,0.037630,-2.267852,-0.117696,0.649029,1.367179,0.267338,0.083687,0.007190,0.053465,0.999970,0.003245,0.006836,0.001337,-0.794188,0.095370,0.386375,0.459221,16.576735,-44.531500,-66.902021
58033,8.788528,0.558931,5.029769,0.297826,-2.967309,-0.119721,0.714177,1.550341,0.172420,0.088267,0.005487,0.049634,0.999963,0.003571,0.007752,0.000862,-0.797890,0.089296,0.381759,0.457884,16.648711,-43.707601,-66.417212
58034,7.259610,2.070451,6.948270,0.111583,-0.302127,0.442119,0.946100,1.737726,0.127646,0.073184,0.020424,0.068946,0.999951,0.004730,0.008688,0.000638,-0.801879,0.081775,0.376920,0.456327,16.856546,-42.775008,-65.928412
58035,2.786690,4.892439,10.271628,-0.741581,5.732317,0.375361,0.939703,1.474407,0.299595,0.028551,0.048484,0.102736,0.999961,0.004698,0.007372,0.001498,-0.805693,0.075197,0.373012,0.453945,17.021149,-42.015952,-65.373576
58036,3.952925,4.202223,9.564217,-0.559310,4.110080,0.558055,0.501913,0.972406,0.326521,0.039926,0.041847,0.095554,0.999984,0.002510,0.004862,0.001633,-0.808420,0.071567,0.370107,0.452058,17.004826,-41.537367,-64.916434
58037,5.036291,1.602732,8.734025,-1.792568,1.418076,0.136760,0.211026,0.736418,0.129879,0.050674,0.015968,0.087171,0.999992,0.001055,0.003682,0.000649,-0.810145,0.069282,0.367554,0.451408,16.955476,-41.154616,-64.658266
58038,5.390621,0.244966,7.957794,-2.308958,-0.019497,-0.479234,0.340119,0.524931,0.011153,0.054115,0.002318,0.079440,0.999995,0.001701,0.002625,0.000056,-0.811246,0.066729,0.366190,0.450924,17.070051,-40.868015,-64.534893
58039,6.671712,1.956766,6.930850,-0.005074,-0.397951,-0.003572,0.429955,0.472091,-0.029314,0.066883,0.019409,0.069193,0.999995,0.002150,0.002360,-0.000147,-0.812183,0.063859,0.365248,0.450417,17.262247,-40.603677,-64.451473
58040,7.371160,1.954800,6.339445,0.543791,-1.189521,0.017512,0.347085,0.589616,-0.080314,0.073906,0.019409,0.063211,0.999994,0.001735,0.002948,-0.000402,-0.813182,0.060964,0.363658,0.450301,17.414115,-40.266585,-64.378114
58041,7.605766,0.726606,5.628841,0.064206,-2.438496,-0.641610,0.343560,0.727730,-0.111269,0.076266,0.007127,0.056023,0.999992,0.001718,0.003639,-0.000556,-0.814352,0.057718,0.361500,0.450352,17.557515,-39.848793,-64.294618
58042,8.863229,-1.260276,3.693659,0.006475,-5.364249,-1.749679,0.408734,0.981898,-0.278978,0.088794,-0.012801,0.036475,0.999985,0.002044,0.004909,-0.001395,-0.815602,0.053329,0.358497,0.451032,17.777735,-39.263513,-64.271809
58043,10.779854,-3.627599,1.436206,0.062474,-9.120461,-2.867376,0.535061,1.525404,-0.674812,0.107780,-0.036676,0.013442,0.999962,0.002675,0.007627,-0.003374,-0.816925,0.046488,0.353646,0.453219,18.163907,-38.311920,-64.398410
58044,11.660951,-4.418941,-0.256238,0.692411,-11.017821,-4.008503,0.817973,2.370778,-1.224917,0.116293,-0.044888,-0.004125,0.999903,0.004090,0.011854,-0.006124,-0.818449,0.035601,0.346069,0.457285,18.813968,-36.801086,-64.695331
58045,9.780943,-2.158661,0.098525,1.651191,-8.393774,-4.602919,1.282304,3.338580,-1.669625,0.097621,-0.022401,-0.000787,0.999805,0.006411,0.016692,-0.008348,-0.820476,0.019818,0.335565,0.462409,19.744763,-34.678686,-65.030342
58046,1.199385,7.905165,7.960388,2.245288,6.158230,-0.630484,2.272483,3.905845,-1.471239,0.014133,0.078044,0.080232,0.999718,0.011361,0.019527,-0.007356,-0.823619,-0.001005,0.324855,0.464887,21.053972,-32.288326,-65.042696
58047,-7.654674,14.182620,13.114375,0.962709,17.699255,1.026962,1.826275,2.907312,-0.427542,-0.074316,0.140775,0.133524,0.999850,0.009131,0.014536,-0.002138,-0.827213,-0.015984,0.317073,0.463602,21.867540,-30.647457,-64.596068
58048,0.803066,12.524833,11.777446,3.421138,9.561103,4.083381,0.622873,2.026551,0.102721,0.009162,0.124885,0.118075,0.999944,0.003114,0.010133,0.000514,-0.830564,-0.023100,0.310129,0.462005,21.942512,-29.591947,-64.032995
58049,4.110876,3.569862,10.815822,-1.467408,1.435269,2.120778,-0.469871,1.852129,-0.081732,0.042122,0.035935,0.107687,0.999954,-0.002349,0.009261,-0.000409,-0.833262,-0.025560,0.301324,0.462843,21.479647,-28.587724,-63.634128
58050,5.279713,-3.377844,9.283895,-5.328250,-3.950868,-0.786385,-0.214337,1.656895,-0.394538,0.053497,-0.033784,0.092434,0.999963,-0.001072,0.008284,-0.001973,-0.834838,-0.029106,0.293866,0.464587,21.285837,-27.620682,-63.481467
58051,5.734553,-1.646849,8.344327,-3.280445,-3.687618,-0.820323,0.474381,1.584063,-0.661312,0.057949,-0.016857,0.082946,0.999960,0.002372,0.007920,-0.003307,-0.835526,-0.035743,0.288243,0.466407,21.569026,-26.636410,-63.505794
58052,6.390294,1.556194,7.204799,0.031245,-2.822274,-0.474734,0.651953,1.671037,-0.863043,0.064568,0.015050,0.071560,0.999950,0.003260,0.008355,-0.004315,-0.835761,-0.043612,0.282614,0.468755,21.994211,-25.563369,-63.622143
58053,7.155974,2.037208,5.579035,1.570779,-3.675288,-1.415980,0.578563,2.040559,-1.068817,0.072231,0.019827,0.055114,0.999929,0.002893,0.010203,-0.005344,-0.835953,-0.052326,0.275186,0.471930,22.384499,-24.248534,-63.761028
58054,6.132288,0.886731,4.559226,0.845002,-3.835815,-3.198596,0.697850,2.506681,-1.239946,0.061941,0.008327,0.044848,0.999896,0.003489,0.012533,-0.006200,-0.836204,-0.062862,0.266004,0.475451,22.829976,-22.649439,-63.874655
58055,4.437479,1.284426,4.419226,0.568260,-2.427111,-3.926012,1.104837,2.878687,-1.343270,0.045089,0.012301,0.043616,0.999859,0.005524,0.014393,-0.006716,-0.836372,-0.076109,0.256131,0.478630,23.487045,-20.829310,-63.938640
58056,2.434955,3.191120,5.140805,0.861369,0.138327,-3.349362,1.451763,3.103854,-1.354483,0.025359,0.031369,0.051249,0.999830,0.007258,0.015518,-0.006772,-0.836409,-0.091330,0.246071,0.481174,24.315423,-18.889217,-63.927369
58057,0.746700,4.994499,6.086453,1.067398,2.339965,-2.334319,1.540829,3.184319,-1.305825,0.008763,0.049420,0.061114,0.999822,0.007704,0.015921,-0.006529,-0.836330,-0.107032,0.235816,0.483205,25.171583,-16.918094,-63.839404
58058,-0.256077,5.602980,7.041285,0.633805,3.273704,-1.451390,1.451050,3.150125,-1.228825,-0.001105,0.055527,0.070842,0.999831,0.007255,0.015750,-0.006144,-0.836155,-0.122143,0.225456,0.484867,25.962535,-14.986203,-63.690322
58059,-0.864573,5.523652,8.187438,-0.246919,3.468869,-0.528902,1.319255,3.027777,-1.140419,-0.007088,0.054738,0.082352,0.999847,0.006596,0.015138,-0.005702,-0.835867,-0.136272,0.215261,0.486229,26.672919,-13.140528,-63.501664
58060,-1.232824,5.509443,9.290427,-0.948922,3.438082,0.456435,1.225975,2.791755,-1.051213,-0.010739,0.054582,0.093397,0.999870,0.006130,0.013958,-0.005256,-0.835369,-0.149302,0.205832,0.487340,27.334814,-11.441660,-63.308096
58061,-1.268886,5.887460,10.155507,-1.087273,3.280027,1.476956,1.076564,2.522178,-0.990945,-0.011114,0.058384,0.102017,0.999894,0.005383,0.012610,-0.004955,-0.834655,-0.160954,0.197154,0.488441,27.920559,-9.897017,-63.138468
58062,-1.016230,6.131495,10.668504,-1.016038,2.815785,2.165439,0.898497,2.242229,-0.929748,-0.008680,0.060877,0.107062,0.999916,0.004492,0.011211,-0.004649,-0.833798,-0.171090,0.189226,0.489594,28.413976,-8.512377,-63.000377
58063,-0.458980,5.996543,10.890299,-0.943463,1.946714,2.438078,0.781242,1.993076,-0.825448,-0.003256,0.059555,0.109173,0.999934,0.003906,0.009965,-0.004127,-0.832938,-0.180002,0.182105,0.490563,28.843639,-7.282402,-62.867476
58064,-0.318539,5.982054,10.970353,-0.900575,1.541854,2.558302,0.728687,1.766986,-0.710056,-0.002003,0.059429,0.109942,0.999948,0.003643,0.008835,-0.003550,-0.832102,-0.188017,0.175883,0.491245,29.245864,-6.198892,-62.731178
58065,-0.335451,5.779815,10.967203,-1.038661,1.232232,2.483535,0.699037,1.528648,-0.600463,-0.002342,0.057422,0.109894,0.999960,0.003495,0.007643,-0.003002,-0.831278,-0.195207,0.170663,0.491676,29.633579,-5.265998,-62.600014
58066,-0.268231,4.884813,10.514732,-1.455206,0.648403,1.674352,0.695963,1.302709,-0.569446,-0.001858,0.048488,0.105330,0.999969,0.003480,0.006513,-0.002847,-0.830280,-0.201791,0.166394,0.492167,30.025560,-4.455104,-62.511926
58067,0.045675,4.173892,9.616220,-1.416783,0.045607,0.574022,0.724821,1.147408,-0.656420,0.001145,0.041387,0.096307,0.999972,0.003624,0.005737,-0.003282,-0.828861,-0.208171,0.162742,0.493121,30.440740,-3.696687,-62.506182
58068,0.272292,3.965173,8.945203,-1.161472,-0.274223,-0.097376,0.888326,1.039305,-0.771931,0.003340,0.039242,0.089611,0.999969,0.004442,0.005196,-0.003860,-0.826850,-0.215045,0.159812,0.494505,30.954741,-2.957657,-62.583031
58069,-0.183369,4.899834,8.449023,-0.463222,0.465904,-0.066190,1.083962,0.956906,-0.809999,-0.001231,0.048545,0.084761,0.999966,0.005420,0.004784,-0.004050,-0.824414,-0.222539,0.157654,0.495946,31.581214,-2.247092,-62.695587
58070,-0.394683,6.592893,8.413063,0.678893,1.194397,0.794467,1.121842,0.883743,-0.729336,-0.003335,0.065468,0.084514,0.999968,0.005609,0.004419,-0.003647,-0.822024,-0.229931,0.155970,0.497074,32.227411,-1.595127,-62.783146
58071,-0.404762,7.176747,8.530555,1.006103,1.253899,1.226031,0.973819,0.845920,-0.592868,-0.003474,0.071362,0.085669,0.999975,0.004869,0.004230,-0.002964,-0.820066,-0.236499,0.154222,0.497770,32.786259,-1.002779,-62.809461
58072,-0.152273,6.182098,8.455505,0.384627,0.518173,0.642899,0.756873,0.820181,-0.498334,-0.001022,0.061503,0.084793,0.999981,0.003784,0.004101,-0.002492,-0.818544,-0.242033,0.152145,0.498255,33.220344,-0.451809,-62.793320
58073,0.326213,4.813240,8.240282,-0.321276,-0.503371,-0.282827,0.586594,0.868762,-0.579031,0.003759,0.047880,0.082528,0.999982,0.002933,0.004344,-0.002895,-0.817034,-0.247041,0.149341,0.499122,33.556739,0.147440,-62.796688
58074,0.169700,4.285554,8.215820,-0.769579,-0.675209,-0.601547,0.495621,0.926829,-0.803512,0.002250,0.042643,0.082254,0.999978,0.002478,0.004634,-0.004018,-0.815086,-0.251983,0.145790,0.500884,33.840577,0.846022,-62.885432
58075,-0.374942,4.217548,8.231003,-1.058002,-0.342787,-0.623594,0.388671,0.972785,-1.051345,-0.003128,0.042033,0.082408,0.999972,0.001943,0.004864,-0.005257,-0.812647,-0.256769,0.141465,0.503649,34.059458,1.645847,-63.074169
58076,-0.560588,4.624550,8.196661,-0.786754,-0.153368,-0.418980,0.272669,1.021757,-1.272773,-0.004893,0.046166,0.082056,0.999966,0.001363,0.005109,-0.006364,-0.809782,-0.261350,0.136354,0.507304,34.206137,2.540965,-63.349804
58077,-0.577286,4.433491,8.128572,-0.851597,-0.326253,-0.580726,0.128067,1.118394,-1.454046,-0.004996,0.044321,0.081343,0.999958,0.000640,0.005592,-0.007270,-0.806651,-0.265692,0.130239,0.511624,34.262352,3.540496,-63.678807
58078,-0.865695,3.712410,8.133728,-1.460920,-0.455422,-0.961410,0.072372,1.210004,-1.652712,-0.007858,0.037162,0.081400,0.999947,0.000362,0.006050,-0.008263,-0.803068,-0.270150,0.123334,0.516613,34.276144,4.647997,-64.072273
58079,-1.448511,4.391868,8.511833,-1.299341,0.011781,-0.213387,0.101316,1.230688,-1.883169,-0.013547,0.044006,0.085226,0.999937,0.000507,0.006153,-0.009416,-0.798771,-0.274886,0.116097,0.522421,34.289090,5.839464,-64.568956
58080,-2.512623,6.079919,9.336007,-0.744273,1.031563,1.537078,0.078643,1.157229,-1.936787,-0.023995,0.060998,0.093525,0.999936,0.000393,0.005786,-0.009684,-0.794221,-0.279337,0.109003,0.528491,34.273163,7.013786,-65.116129
58081,-3.000094,7.173001,9.597845,-0.108053,1.499864,2.447238,0.039904,0.953326,-1.716434,-0.028926,0.071962,0.096132,0.999952,0.000200,0.004767,-0.008582,-0.790107,-0.282943,0.102915,0.533932,34.229581,8.019858,-65.626247
58082,-2.143870,6.828594,9.194171,0.257798,0.599732,1.820455,-0.005408,0.771356,-1.453198,-0.020587,0.068440,0.092020,0.999966,-0.000027,0.003857,-0.007266,-0.786600,-0.285727,0.097785,0.538571,34.161398,8.854919,-66.071648
58083,-1.514226,5.167671,8.787626,-0.536374,-0.389759,0.472197,-0.088854,0.721859,-1.405215,-0.014461,0.051819,0.087906,0.999969,-0.000444,0.003609,-0.007026,-0.783268,-0.288005,0.092690,0.543096,34.039898,9.649865,-66.512464
58084,-1.772539,3.929921,8.556734,-1.448157,-0.491663,-0.354168,-0.024808,0.722407,-1.603361,-0.017100,0.039449,0.085625,0.999961,-0.000124,0.003612,-0.008017,-0.779249,-0.290610,0.087472,0.548330,33.931610,10.508164,-67.051432
58085,-2.998991,3.809133,8.545629,-1.939949,0.484667,-0.193362,0.080605,0.667954,-1.755251,-0.029369,0.038316,0.085570,0.999956,0.000403,0.003340,-0.008776,-0.774573,-0.293516,0.082530,0.554142,33.857832,11.387753,-67.684586
58086,-3.122919,4.464553,8.484505,-1.355735,0.643191,0.158186,0.190373,0.583478,-1.847469,-0.030568,0.044849,0.084977,0.999953,0.000952,0.002917,-0.009237,-0.769374,-0.296625,0.078072,0.560341,33.821841,12.256540,-68.392948
58087,-3.199990,4.719731,8.354438,-1.046813,0.689432,0.224227,0.212586,0.522658,-1.873370,-0.031338,0.047404,0.083677,0.999952,0.001063,0.002613,-0.009367,-0.763973,-0.299630,0.073869,0.566666,33.780671,13.103589,-69.136702
58088,-3.302426,4.929240,8.258425,-0.797015,0.733127,0.298229,0.212346,0.476164,-1.888430,-0.032361,0.049512,0.082714,0.999952,0.001062,0.002381,-0.009442,-0.758438,-0.302480,0.069807,0.573065,33.722355,13.933334,-69.906394
58089,-3.348473,5.557305,8.029909,-0.123252,0.837876,0.475970,0.288469,0.369744,-1.843998,-0.032823,0.055762,0.080441,0.999955,0.001442,0.001849,-0.009220,-0.752809,-0.305270,0.066434,0.579375,33.693574,14.696978,-70.692416
58090,-2.952080,6.208463,7.801800,0.704420,0.531331,0.548195,0.294980,0.307335,-1.658790,-0.028885,0.062211,0.078154,0.999963,0.001475,0.001537,-0.008294,-0.747622,-0.307817,0.063585,0.585036,33.676215,15.372474,-71.410515
58091,-2.365908,6.401448,7.760970,1.110889,-0.086181,0.461837,0.222589,0.328788,-1.550068,-0.023035,0.064108,0.077719,0.999968,0.001113,0.001644,-0.007750,-0.742821,-0.310100,0.060614,0.590238,33.625521,16.022499,-72.070316
58092,-3.155514,5.345109,8.042777,-0.088461,0.297292,0.341937,0.121701,0.362033,-1.491365,-0.031010,0.053635,0.080517,0.999970,0.000608,0.001810,-0.007457,-0.738313,-0.312071,0.057302,0.595166,33.519981,16.669681,-72.693072
58093,-3.694118,4.179446,8.312916,-1.295579,0.478227,0.102495,0.196073,0.269459,-1.530859,-0.036508,0.041993,0.083220,0.999969,0.000980,0.001347,-0.007654,-0.733501,-0.314031,0.054495,0.600325,33.435174,17.283357,-73.369265
58094,-4.090941,4.836188,8.323034,-0.801486,0.807113,0.584561,0.246505,0.150535,-1.570017,-0.040466,0.048578,0.083321,0.999968,0.001233,0.000753,-0.007850,-0.728413,-0.315812,0.052203,0.605766,33.353463,17.852362,-74.107638
58095,-3.880024,4.809502,8.325475,-0.718678,0.532000,0.516845,0.204099,0.045220,-1.538877,-0.038410,0.048307,0.083313,0.999970,0.001020,0.000226,-0.007694,-0.723415,-0.317091,0.050220,0.611230,33.234277,18.359092,-74.868365
58096,-4.193132,4.054907,8.354328,-1.394683,0.702379,0.256091,0.112850,-0.027415,-1.654401,-0.041606,0.040847,0.083561,0.999966,0.000564,-0.000137,-0.008272,-0.718142,-0.317827,0.048025,0.617213,33.028408,18.865990,-75.715445
58097,-4.344130,3.642326,7.858876,-1.488695,0.970289,-0.286844,0.188654,-0.164801,-1.802156,-0.043176,0.036739,0.078588,0.999959,0.000943,-0.000824,-0.009011,-0.712206,-0.318421,0.046328,0.623878,32.818641,19.349022,-76.687334
58098,-3.746356,4.257196,7.385257,-0.548998,0.566006,-0.534834,0.233872,-0.176306,-1.862274,-0.037131,0.042832,0.073870,0.999956,0.001169,-0.000882,-0.009311,-0.705945,-0.319128,0.044703,0.630714,32.613110,19.842798,-77.698694
58099,-3.853785,4.696338,7.516760,-0.196612,0.546167,-0.165342,0.298651,-0.196755,-1.915187,-0.038160,0.047218,0.075200,0.999953,0.001493,-0.000984,-0.009576,-0.699347,-0.319981,0.043276,0.637694,32.423793,20.338704,-78.748779
58100,-4.107922,5.393992,7.757048,0.309333,0.594019,0.467995,0.228400,-0.211488,-1.958171,-0.040631,0.054251,0.077589,0.999951,0.001142,-0.001057,-0.009791,-0.692651,-0.320520,0.041593,0.644804,32.173512,20.837897,-79.831524
58101,-3.529331,6.757462,7.401067,1.816116,0.057995,0.655958,0.182357,-0.213557,-1.759085,-0.034777,0.067815,0.074035,0.999960,0.000912,-0.001068,-0.008795,-0.686610,-0.320822,0.040095,0.651178,31.924311,21.270081,-80.816818
58102,-3.091220,6.031497,7.264966,1.365253,-0.342600,0.022573,0.109367,-0.117336,-1.509977,-0.030498,0.060507,0.072665,0.999971,0.000547,-0.000587,-0.007550,-0.681468,-0.321116,0.038416,0.656514,31.683360,21.670999,-81.645509
58103,-4.450351,3.885669,8.370242,-1.154004,0.558551,0.351990,0.018803,-0.067693,-1.546645,-0.044230,0.039192,0.083691,0.999970,0.000094,-0.000338,-0.007733,-0.676322,-0.321252,0.036219,0.661872,31.382706,22.102459,-82.481697
58104,-5.911000,2.330332,9.188249,-2.999918,1.681088,0.815957,0.179842,-0.361434,-1.732241,-0.059072,0.023732,0.091797,0.999960,0.000899,-0.001807,-0.008661,-0.670201,-0.320972,0.035237,0.668256,31.093678,22.442199,-83.515341
58105,-6.297747,2.279776,9.788850,-3.273910,1.819286,1.441254,0.231433,-0.707873,-2.043341,-0.063087,0.023329,0.097692,0.999941,0.001157,-0.003539,-0.010217,-0.662832,-0.319730,0.035096,0.676162,30.722321,22.696645,-84.829118
58106,-7.531862,1.120882,10.789006,-4.720339,2.773573,2.204376,0.154367,-1.133457,-2.542337,-0.075779,0.012087,0.107471,0.999903,0.000772,-0.005667,-0.012711,-0.653719,-0.316831,0.035289,0.686312,30.143961,22.876832,-86.548915
58107,-7.623993,1.871863,10.375323,-3.659849,3.009453,2.304215,0.251497,-1.671421,-3.010791,-0.076812,0.019742,0.103137,0.999851,0.001257,-0.008357,-0.015053,-0.642592,-0.312408,0.036835,0.698656,29.455132,22.904155,-88.690836
58108,-5.562541,5.113629,9.501130,-0.153950,0.937027,2.289306,0.300972,-1.991572,-3.115212,-0.055764,0.051862,0.094534,0.999828,0.001505,-0.009957,-0.015575,-0.630755,-0.306942,0.039390,0.711606,28.735248,22.777489,-90.986213
58109,0.059322,10.187158,5.613467,6.147995,-4.037510,-0.802066,0.317443,-1.807177,-2.505589,0.001360,0.101768,0.056306,0.999879,0.001587,-0.009036,-0.012527,-0.620915,-0.301977,0.042364,0.722135,28.184116,22.552317,-92.889089
58110,3.362037,13.849716,3.303029,10.257215,-7.334168,-2.394810,0.166247,-0.740459,-1.334133,0.034420,0.138242,0.033272,0.999971,0.000831,-0.003702,-0.006671,-0.615664,-0.300098,0.043228,0.727344,27.915173,22.539603,-93.836397
58111,-0.743178,8.804921,6.055435,4.749609,-3.302539,-0.797082,-0.275803,0.328715,-0.619277,-0.007060,0.088155,0.060445,0.999993,-0.001379,0.001644,-0.003096,-0.613887,-0.300583,0.040279,0.728814,27.662667,22.872677,-94.081907
58112,-6.062852,2.846214,9.048209,-1.530324,2.049387,1.150302,0.062836,0.245763,-0.517873,-0.060443,0.028590,0.090565,0.999996,0.000314,0.001229,-0.002589,-0.611945,-0.301782,0.038965,0.730022,27.614495,23.136740,-94.297106
58113,-6.348038,2.639924,9.567775,-1.938254,2.183627,1.601516,0.498261,-0.304784,-0.672029,-0.063538,0.026374,0.095647,0.999990,0.002491,-0.001524,-0.003360,-0.608669,-0.302329,0.040698,0.732437,27.719625,23.161899,-94.756601
58114,-4.987984,2.988694,8.655896,-1.292659,1.149941,0.470475,0.643084,-0.575628,-0.872080,-0.049999,0.029827,0.086511,0.999981,0.003215,-0.002878,-0.004360,-0.604366,-0.302358,0.043472,0.735820,27.832985,23.104843,-95.405160
58115,-6.095857,1.123119,9.472626,-3.199114,2.454645,0.765194,0.599071,-0.675233,-1.125868,-0.061215,0.011292,0.094554,0.999974,0.002995,-0.003376,-0.005629,-0.599150,-0.301927,0.046010,0.740096,27.856215,23.065088,-96.222052
58116,-8.993395,-1.307149,12.196323,-6.278533,5.085707,3.073428,0.622263,-1.146716,-1.721696,-0.090741,-0.012671,0.121405,0.999942,0.003111,-0.005733,-0.008608,-0.591533,-0.299933,0.049130,0.746803,27.711246,22.945687,-97.503693
58117,-10.076745,-1.701380,12.887412,-6.628097,6.224226,3.892592,0.811059,-2.059158,-2.421063,-0.102287,-0.016301,0.127759,0.999866,0.004055,-0.010295,-0.012105,-0.580686,-0.295204,0.054607,0.756754,27.431631,22.542911,-99.429562
58118,-8.200110,2.303903,11.899374,-2.750007,3.765661,4.057825,0.952296,-2.824611,-2.937015,-0.083327,0.023693,0.117935,0.999781,0.004761,-0.014122,-0.014684,-0.567261,-0.288024,0.062039,0.769030,27.061910,21.876916,-101.846911
58119,-4.844428,4.853094,10.913110,-0.546031,0.277687,3.061198,0.840387,-3.204483,-3.017298,-0.049452,0.048815,0.108549,0.999749,0.004202,-0.016021,-0.015085,-0.553308,-0.278957,0.069994,0.781751,26.611780,21.019972,-104.395264
58120,-0.773870,7.755750,7.581786,2.666719,-3.721219,0.050106,0.873964,-3.133332,-2.597367,-0.007924,0.077328,0.076033,0.999783,0.004370,-0.015666,-0.012986,-0.540713,-0.269981,0.078414,0.792837,26.310886,20.078285,-106.673506
58121,1.458518,10.835143,5.506044,5.553893,-6.633800,-1.153041,0.559825,-2.400944,-1.980098,0.014991,0.108049,0.055542,0.999875,0.002799,-0.012004,-0.009900,-0.531093,-0.262727,0.084438,0.801115,26.049525,19.345278,-108.400149
58122,0.394729,9.503830,5.586955,4.673499,-5.179646,-1.267391,0.253380,-1.614141,-1.368171,0.004145,0.094939,0.056023,0.999943,0.001267,-0.008071,-0.006841,-0.524561,-0.257501,0.087917,0.806721,25.808860,18.858225,-109.575081
58123,-0.753298,7.263829,5.889964,3.064732,-3.237355,-1.557428,0.178993,-1.113256,-0.897266,-0.007535,0.072619,0.058923,0.999974,0.000895,-0.005566,-0.004486,-0.520203,-0.253875,0.090399,0.810410,25.661300,18.507883,-110.356763
58124,-2.062130,5.140067,5.878357,1.808173,-1.128547,-2.022653,0.248759,-0.726354,-0.678455,-0.020660,0.051398,0.058773,0.999987,0.001244,-0.003632,-0.003392,-0.516796,-0.251888,0.092420,0.812978,25.626297,18.302505,-110.916640
58125,-3.520255,3.454941,6.523265,0.641440,0.861716,-1.705420,0.446593,-0.556722,-0.627213,-0.035276,0.034514,0.065212,0.999989,0.002233,-0.002784,-0.003136,-0.513415,-0.251073,0.094880,0.815086,25.730060,18.171765,-111.403625
58126,-3.879763,3.380948,6.999532,0.462158,1.183610,-1.218373,0.632086,-0.534569,-0.642843,-0.038876,0.033713,0.069998,0.999986,0.003160,-0.002673,-0.003214,-0.509734,-0.250825,0.098007,0.817100,25.939268,18.058189,-111.893556
58127,-3.943255,3.768098,7.437660,0.552359,1.041280,-0.665164,0.667155,-0.532047,-0.694622,-0.039500,0.037570,0.074397,0.999985,0.003336,-0.002660,-0.003473,-0.505785,-0.250695,0.101213,0.819200,26.161907,17.960122,-112.410748
58128,-4.405392,3.419433,7.967103,0.167057,1.586749,-0.219512,0.655664,-0.565322,-0.801837,-0.044142,0.034110,0.079658,0.999983,0.003278,-0.002827,-0.004009,-0.501377,-0.250447,0.104309,0.821594,26.357190,17.874635,-112.995081
58129,-4.126081,3.474488,8.638134,-0.246120,1.291707,0.286064,0.701794,-0.683495,-0.909785,-0.041398,0.034630,0.086362,0.999978,0.003509,-0.003417,-0.004549,-0.496387,-0.249875,0.107761,0.824348,26.553396,17.757278,-113.668957
58130,-3.237846,4.547077,8.998109,0.033405,0.013854,0.776173,0.776770,-0.820413,-0.896342,-0.032545,0.045267,0.090024,0.999974,0.003884,-0.004102,-0.004482,-0.491259,-0.248905,0.111862,0.827162,26.784202,17.569592,-114.372754
58131,-2.120432,5.980471,9.279294,0.503273,-1.628686,1.298627,0.693463,-0.858581,-0.755452,-0.021378,0.059563,0.092908,0.999978,0.003467,-0.004293,-0.003777,-0.486775,-0.247482,0.115893,0.829682,26.990421,17.327612,-115.011051
58132,-1.499160,6.094033,9.061464,0.422934,-2.157578,0.988262,0.532964,-0.834747,-0.519100,-0.015212,0.060738,0.090713,0.999984,0.002665,-0.004174,-0.002595,-0.483463,-0.245621,0.119478,0.831660,27.145731,17.038833,-115.516779
58133,-1.282749,5.886488,8.525911,0.443422,-2.164101,0.390603,0.382117,-0.735180,-0.306140,-0.013051,0.058722,0.085324,0.999990,0.001911,-0.003676,-0.001531,-0.481271,-0.243676,0.122465,0.833068,27.258982,16.745408,-115.881477
58134,-1.899620,5.267201,8.314210,0.350611,-1.267765,0.124504,0.206279,-0.581208,-0.238481,-0.019175,0.052609,0.083141,0.999995,0.001031,-0.002906,-0.001192,-0.479661,-0.241903,0.124420,0.834223,27.294634,16.513589,-116.168127
58135,-3.158695,4.076059,8.846819,-0.264802,0.444197,0.414250,0.131229,-0.534869,-0.252746,-0.031772,0.040743,0.088410,0.999995,0.000656,-0.002674,-0.001264,-0.478107,-0.240150,0.125941,0.835392,27.290699,16.308680,-116.449190
58136,-4.446555,4.082814,9.694945,-0.125480,1.574932,1.498223,0.193952,-0.726571,-0.280315,-0.044760,0.040797,0.096827,0.999992,0.000970,-0.003633,-0.001402,-0.476236,-0.237761,0.128140,0.836809,27.304487,16.013888,-116.797165
58137,-5.003045,4.666644,10.285351,0.288347,1.809066,2.403686,0.112159,-1.017851,-0.346986,-0.050472,0.046696,0.102624,0.999985,0.000561,-0.005089,-0.001735,-0.473986,-0.233995,0.130616,0.838763,27.243289,15.587669,-117.258961
58138,-5.635544,3.713869,10.863532,-0.341211,2.931203,2.631512,0.054495,-1.388464,-0.400066,-0.057033,0.037223,0.108251,0.999974,0.000272,-0.006942,-0.002000,-0.471318,-0.228565,0.133652,0.841282,27.118709,14.986356,-117.847715
58139,-6.004178,3.756126,10.920036,-0.039078,3.353644,2.763215,0.097962,-1.901200,-0.471273,-0.060988,0.037651,0.108642,0.999952,0.000490,-0.009506,-0.002356,-0.467925,-0.221110,0.137997,0.844461,26.983833,14.140036,-118.608437
58140,-4.649039,3.074455,10.448031,-0.759942,2.699035,1.692095,-0.052741,-2.247891,-0.679875,-0.047556,0.030932,0.103942,0.999931,-0.000264,-0.011239,-0.003399,-0.463522,-0.211958,0.142258,0.848519,26.726875,13.168909,-119.565498
58141,-3.118471,1.118178,9.159791,-2.115011,2.541988,-0.650933,0.064598,-2.416999,-0.869183,-0.032240,0.011291,0.091216,0.999917,0.000323,-0.012085,-0.004346,-0.458003,-0.202462,0.147198,0.852980,26.524616,12.155110,-120.658297
58142,-2.181234,2.653444,8.392269,-0.973649,1.036393,-0.857036,0.331455,-2.466847,-0.943883,-0.022720,0.026501,0.083690,0.999911,0.001657,-0.012334,-0.004719,-0.451778,-0.193387,0.153274,0.857324,26.483501,11.133667,-121.797139
58143,-1.313343,4.975711,7.867752,0.575517,-0.860017,-0.468624,0.336397,-2.393098,-0.915085,-0.013847,0.049687,0.078598,0.999917,0.001682,-0.011965,-0.004575,-0.445653,-0.184581,0.159222,0.861378,26.473480,10.141116,-122.897090
58144,-0.586567,6.133803,7.384151,1.293632,-2.038832,-0.503456,0.229797,-2.214188,-0.735889,-0.006458,0.061276,0.073843,0.999931,0.001149,-0.011071,-0.003679,-0.440471,-0.176139,0.164438,0.864824,26.443198,9.195235,-123.854039
58145,-1.129877,6.690770,7.569807,1.964552,-1.777975,0.001744,0.117641,-2.044146,-0.480437,-0.011911,0.066891,0.075618,0.999945,0.000588,-0.010221,-0.002402,-0.436579,-0.167953,0.169014,0.867539,26.392911,8.269816,-124.631069
58146,-1.787388,6.328428,8.087388,1.939081,-0.863598,0.392317,-0.031934,-1.948342,-0.339673,-0.018553,0.063328,0.080685,0.999951,-0.000160,-0.009742,-0.001698,-0.433458,-0.159720,0.172820,0.869906,26.281679,7.357626,-125.307617
58147,-2.312246,4.423058,8.672517,0.766867,0.835409,0.128857,-0.075111,-1.934622,-0.322432,-0.023888,0.044301,0.086480,0.999952,-0.000376,-0.009673,-0.001612,-0.430418,-0.151421,0.176419,0.872175,26.159530,6.445866,-125.968295
58148,-2.427980,3.316226,8.856094,0.103077,1.705836,-0.200204,0.132857,-2.030855,-0.387299,-0.025113,0.033152,0.088331,0.999946,0.000664,-0.010154,-0.001936,-0.426806,-0.143195,0.181052,0.874386,26.160237,5.501269,-126.684939
58149,-1.913273,3.637793,8.870387,0.122925,1.246553,-0.116995,0.297902,-2.116179,-0.515965,-0.019977,0.036297,0.088550,0.999940,0.001489,-0.010581,-0.002580,-0.422390,-0.135046,0.186488,0.876682,26.260790,4.545037,-127.489183
58150,-1.497562,3.642117,8.702796,0.035111,1.019524,-0.315144,0.426073,-2.158630,-0.601330,-0.015805,0.036283,0.086938,0.999935,0.002130,-0.010793,-0.003007,-0.417420,-0.127047,0.192482,0.878960,26.442906,3.591782,-128.349638
58151,-1.200142,4.653128,8.753834,0.607315,0.361045,0.148235,0.514682,-2.207512,-0.606017,-0.012827,0.046344,0.087519,0.999931,0.002573,-0.011037,-0.003030,-0.412271,-0.119002,0.198951,0.881073,26.690548,2.616817,-129.227562
58152,-0.470032,5.048154,8.605444,0.545548,-0.321017,0.155033,0.471148,-2.216924,-0.553840,-0.005515,0.050293,0.086115,0.999932,0.002356,-0.011084,-0.002769,-0.407310,-0.110762,0.205238,0.883011,26.927732,1.628413,-130.084778
58153,0.119551,4.999623,8.358210,0.293712,-0.661145,-0.099574,0.442385,-2.167263,-0.467962,0.000406,0.049810,0.083700,0.999936,0.002212,-0.010836,-0.002340,-0.402744,-0.102576,0.211331,0.884655,27.165540,0.645399,-130.888772
58154,0.090568,5.086743,8.458971,0.406432,-0.513873,0.036468,0.404313,-2.108732,-0.393613,0.000113,0.050696,0.084696,0.999940,0.002022,-0.010543,-0.001968,-0.398536,-0.094485,0.217137,0.886055,27.394106,-0.322965,-131.643460
58155,0.051411,5.031247,8.517934,0.451264,-0.288662,0.065677,0.381722,-2.082506,-0.353998,-0.000285,0.050150,0.085275,0.999942,0.001909,-0.010412,-0.001770,-0.394499,-0.086406,0.222797,0.887280,27.623382,-1.286548,-132.374928
58156,0.058791,4.705607,8.524762,0.307157,0.044344,-0.080309,0.406973,-2.059699,-0.327629,-0.000214,0.046882,0.085344,0.999944,0.002035,-0.010298,-0.001638,-0.390546,-0.078444,0.228497,0.888318,27.877700,-2.241454,-133.091318
58157,-0.346153,4.647129,8.602283,0.600663,0.546860,-0.063190,0.470912,-2.080064,-0.340667,-0.004278,0.046275,0.086090,0.999942,0.002355,-0.010400,-0.001703,-0.386444,-0.070518,0.234502,0.889211,28.182632,-3.200696,-133.824879
58158,-0.958398,5.960768,9.703349,1.633046,0.760108,1.472565,0.477453,-2.126816,-0.501339,-0.010467,0.059401,0.097067,0.999937,0.002387,-0.010634,-0.002507,-0.381522,-0.062581,0.240529,0.890320,28.508589,-4.134673,-134.658352
58159,0.966104,3.360840,7.515779,-0.674449,0.251103,-1.554631,0.383850,-2.213613,-0.435420,0.008901,0.033444,0.075323,0.999935,0.001919,-0.011068,-0.002177,-0.376772,-0.053987,0.246308,0.891325,28.795837,-5.127024,-135.488497
58160,1.152824,5.240764,7.757105,0.404702,-0.760141,-0.419940,0.488141,-2.114078,-0.453700,0.010825,0.052193,0.077816,0.999939,0.002441,-0.010570,-0.002268,-0.371985,-0.046054,0.252315,0.892101,29.154332,-6.058591,-136.306940
58161,1.301723,5.808065,7.624790,0.756105,-1.119038,-0.234595,0.377867,-2.019165,-0.393259,0.012360,0.057912,0.076484,0.999945,0.001889,-0.010096,-0.001966,-0.367571,-0.038252,0.257651,0.892773,29.458173,-6.956101,-137.075002
58162,1.072885,5.194991,7.945780,0.516355,-0.330374,-0.278705,0.343237,-1.939422,-0.261727,0.010025,0.051800,0.079646,0.999951,0.001716,-0.009697,-0.001309,-0.363815,-0.030575,0.262672,0.893145,29.742268,-7.846103,-137.760303
58163,0.739893,5.088580,8.072148,0.739272,0.142587,-0.271630,0.385363,-1.955435,-0.176095,0.006653,0.050724,0.080887,0.999950,0.001927,-0.009777,-0.000880,-0.360378,-0.022782,0.267909,0.893215,30.057714,-8.766023,-138.413461
58164,1.557500,4.436136,7.713295,-0.116735,-0.038732,-0.780355,0.362327,-1.924954,-0.223174,0.014881,0.044204,0.077359,0.999951,0.001812,-0.009625,-0.001116,-0.356738,-0.015149,0.272946,0.893314,30.372465,-9.652608,-139.087997
58165,2.044890,3.923936,7.560918,-0.702638,0.011358,-1.080521,0.448846,-1.863076,-0.307672,0.019803,0.039038,0.075883,0.999953,0.002244,-0.009315,-0.001538,-0.352766,-0.008056,0.278237,0.893351,30.753298,-10.481090,-139.793777
58166,2.790490,4.487290,7.283021,-0.804559,-0.800692,-0.886605,0.526067,-1.761631,-0.444507,0.027361,0.044619,0.073190,0.999955,0.002630,-0.008808,-0.002223,-0.348287,-0.001747,0.283652,0.893440,31.195285,-11.213348,-140.545266
58167,2.873072,4.595748,7.463664,-0.807689,-0.693288,-0.650414,0.560924,-1.612612,-0.564133,0.028256,0.045667,0.074994,0.999960,0.002805,-0.008063,-0.002821,-0.343456,0.003671,0.288949,0.893607,31.671487,-11.832099,-141.318818
58168,2.478112,5.369732,7.729199,-0.062068,-0.646595,-0.102269,0.641163,-1.538949,-0.576781,0.024339,0.053378,0.077652,0.999961,0.003206,-0.007695,-0.002884,-0.338649,0.008601,0.294445,0.893614,32.198385,-12.403689,-142.082865
58169,2.164790,6.067639,7.931926,0.584251,-0.638646,0.369031,0.640835,-1.508917,-0.509035,0.021202,0.060367,0.079674,0.999963,0.003204,-0.007544,-0.002545,-0.334163,0.013499,0.299874,0.893436,32.725816,-12.975544,-142.811074
58170,2.048740,6.226870,7.749435,0.824234,-0.638792,0.283660,0.613933,-1.500156,-0.412542,0.020032,0.061988,0.077836,0.999965,0.003070,-0.007501,-0.002063,-0.330096,0.018543,0.305130,0.893078,33.233938,-13.566045,-143.495649
58171,2.404651,5.877588,7.390091,0.423046,-0.717272,-0.104587,0.522887,-1.461626,-0.373080,0.023614,0.058538,0.074228,0.999968,0.002614,-0.007308,-0.001865,-0.326234,0.023629,0.309903,0.892734,33.691776,-14.145752,-144.155219
58172,2.498200,5.264287,7.257831,0.031919,-0.369448,-0.512618,0.502235,-1.393356,-0.377839,0.024574,0.052413,0.072882,0.999971,0.002511,-0.006967,-0.001889,-0.322433,0.028430,0.314443,0.892387,34.139572,-14.685613,-144.800780
58173,2.782968,5.197729,7.150441,-0.192674,-0.443159,-0.557657,0.522451,-1.332687,-0.405722,0.027457,0.051734,0.071824,0.999972,0.002612,-0.006663,-0.002029,-0.318588,0.032887,0.318972,0.892007,34.605435,-15.183544,-145.445796
58174,2.588396,5.259098,7.365307,-0.013216,-0.139910,-0.400730,0.542457,-1.274732,-0.410399,0.025521,0.052338,0.073959,0.999974,0.002712,-0.006374,-0.002052,-0.314801,0.037040,0.323473,0.891568,35.083889,-15.646817,-146.078953
58175,2.631289,5.602308,7.422432,0.164273,-0.226298,-0.152311,0.540049,-1.252064,-0.398171,0.025958,0.055770,0.074538,0.999975,0.002700,-0.006260,-0.001991,-0.311089,0.041118,0.327917,0.891069,35.564546,-16.099139,-146.703959
58176,2.379054,5.278466,7.595512,0.176946,0.307216,-0.268721,0.519127,-1.221344,-0.370115,0.023423,0.052543,0.076235,0.999976,0.002596,-0.006107,-0.001851,-0.307532,0.045132,0.332189,0.890526,36.031577,-16.540906,-147.309759
58177,2.173223,5.414285,7.910550,0.409066,0.632171,-0.012371,0.525670,-1.267360,-0.364688,0.021328,0.053895,0.079383,0.999975,0.002628,-0.006337,-0.001823,-0.303910,0.049351,0.336553,0.889907,36.513362,-17.001632,-147.934634
58178,2.907671,5.524253,7.332955,-0.028345,-0.060208,-0.182599,0.549706,-1.324842,-0.374107,0.028692,0.054986,0.073672,0.999973,0.002749,-0.006624,-0.001871,-0.300138,0.053767,0.341087,0.889205,37.021939,-17.479586,-148.590194
58179,3.709190,5.922322,6.971889,-0.393784,-0.809641,0.017242,0.555627,-1.263360,-0.359693,0.036756,0.058962,0.070116,0.999975,0.002778,-0.006317,-0.001798,-0.296522,0.057926,0.345542,0.888437,37.532953,-17.929658,-149.222775
58180,3.207528,6.717713,7.418999,0.440468,-0.627599,0.669128,0.549396,-1.215696,-0.296006,0.031722,0.066926,0.074568,0.999977,0.002747,-0.006078,-0.001480,-0.293255,0.061987,0.349854,0.887559,38.030938,-18.374517,-149.812926
58181,3.061101,6.897621,7.180875,0.710239,-0.709142,0.555732,0.497842,-1.239531,-0.224617,0.030242,0.068763,0.072168,0.999977,0.002489,-0.006198,-0.001123,-0.290233,0.066354,0.353943,0.886615,38.498693,-18.851346,-150.383852
58182,4.205482,6.286106,6.648516,-0.500067,-1.138340,0.180166,0.437446,-1.177940,-0.202350,0.041725,0.062673,0.066869,0.999980,0.002187,-0.005890,-0.001012,-0.287386,0.070570,0.357645,0.885731,38.926048,-19.303713,-150.926211
58183,3.260470,5.750340,7.054771,-0.025902,-0.021417,-0.144962,0.465756,-1.096834,-0.189440,0.032271,0.057308,0.070859,0.999982,0.002329,-0.005484,-0.000947,-0.284741,0.074409,0.361345,0.884769,39.363672,-19.721489,-151.436605
58184,2.760072,5.874795,7.283537,0.469750,0.383526,-0.075515,0.488423,-1.133769,-0.205816,0.027247,0.058541,0.073134,0.999980,0.002442,-0.005669,-0.001029,-0.281954,0.078344,0.365182,0.883745,39.826110,-20.145222,-151.973657
58185,3.108664,5.482368,7.054612,0.008310,0.393795,-0.361143,0.483507,-1.155082,-0.245636,0.030745,0.054615,0.070857,0.999980,0.002418,-0.005775,-0.001228,-0.278939,0.082307,0.369037,0.882740,40.301458,-20.560048,-152.543044
58186,3.470440,5.915781,6.668601,-0.003554,-0.182311,-0.248349,0.485508,-1.153875,-0.292055,0.034405,0.058945,0.067028,0.999979,0.002428,-0.005769,-0.001460,-0.275711,0.086169,0.372895,0.881764,40.790136,-20.951940,-153.138563
58187,3.561646,6.178412,6.660948,0.085980,-0.280544,-0.058741,0.443855,-1.097581,-0.312726,0.035346,0.061580,0.066941,0.999981,0.002219,-0.005488,-0.001564,-0.272468,0.089803,0.376494,0.880880,41.256551,-21.307681,-153.726159
58188,3.598441,6.610048,6.560738,0.314976,-0.518186,0.153068,0.478610,-1.090379,-0.280542,0.035718,0.065893,0.065960,0.999981,0.002393,-0.005452,-0.001403,-0.269385,0.093411,0.380200,0.879860,41.740573,-21.667405,-154.300332
58189,3.926235,6.840346,6.557150,0.186121,-0.685985,0.419409,0.484323,-1.059560,-0.208352,0.038985,0.068203,0.065944,0.999982,0.002422,-0.005298,-0.001042,-0.266672,0.097013,0.383849,0.878711,42.216836,-22.037761,-154.833565
58190,3.519490,6.723945,6.916755,0.477098,-0.099384,0.444083,0.516299,-1.072330,-0.150925,0.034873,0.067034,0.069528,0.999982,0.002581,-0.005362,-0.000755,-0.264193,0.100733,0.387608,0.877391,42.707820,-22.430972,-155.350508
58191,3.722137,6.639578,6.871216,0.293298,-0.061849,0.437244,0.499901,-1.116290,-0.146714,0.036885,0.066196,0.069084,0.999981,0.002499,-0.005581,-0.000734,-0.261629,0.104674,0.391344,0.876039,43.201966,-22.840698,-155.889482
58192,3.982318,6.399866,6.727138,-0.019690,-0.030664,0.290245,0.482084,-1.126978,-0.169029,0.039497,0.063802,0.067649,0.999981,0.002410,-0.005635,-0.000845,-0.258926,0.108634,0.395005,0.874715,43.696495,-23.241174,-156.448355
58193,3.623976,6.547174,6.647101,0.395501,0.061001,0.188390,0.500402,-1.138313,-0.150397,0.035909,0.065278,0.066840,0.999980,0.002502,-0.005692,-0.000752,-0.256283,0.112657,0.398743,0.873288,44.206745,-23.649804,-157.009466
58194,3.735221,6.555275,6.202605,0.344126,-0.217459,-0.054146,0.516518,-1.168439,-0.100310,0.037021,0.065373,0.062412,0.999979,0.002583,-0.005842,-0.000502,-0.253797,0.116881,0.402539,0.871716,44.727865,-24.085600,-157.567016
58195,4.303563,6.811564,5.677680,0.036005,-0.854452,0.006773,0.499099,-1.116155,-0.085203,0.042746,0.067955,0.057186,0.999981,0.002495,-0.005581,-0.000426,-0.251463,0.120930,0.406174,0.870152,45.233783,-24.502341,-158.100943
58196,3.778984,6.851471,5.856299,0.533553,-0.465816,-0.065013,0.471931,-1.045135,-0.056431,0.037502,0.068365,0.058921,0.999984,0.002360,-0.005226,-0.000282,-0.249371,0.124754,0.409564,0.868624,45.710554,-24.897523,-158.595676
58197,4.178622,7.066483,5.731620,0.343275,-0.717556,0.167991,0.494747,-1.040102,-0.022381,0.041495,0.070518,0.057707,0.999983,0.002474,-0.005200,-0.000112,-0.247445,0.128598,0.413019,0.866977,46.199158,-25.301509,-159.078591
58198,4.293442,7.061502,5.820065,0.281375,-0.586986,0.274284,0.508691,-1.010544,0.031878,0.042628,0.070473,0.058596,0.999984,0.002543,-0.005053,0.000159,-0.245815,0.132400,0.416443,0.865228,46.684488,-25.712017,-159.529446
58199,4.195672,7.079524,5.853106,0.415199,-0.440950,0.267706,0.555301,-1.030952,0.099660,0.041618,0.070653,0.058942,0.999983,0.002776,-0.005155,0.000498,-0.244460,0.136373,0.420041,0.863254,47.193871,-26.155939,-159.966028
58200,4.445765,7.016940,5.651749,0.211110,-0.541989,0.217523,0.570955,-1.052990,0.166794,0.044100,0.070044,0.056950,0.999982,0.002855,-0.005265,0.000834,-0.243348,0.140555,0.423669,0.861122,47.709269,-26.632592,-160.389992
58201,5.034148,6.782099,5.332712,-0.374405,-0.751093,0.140808,0.481543,-1.002670,0.142945,0.050024,0.067728,0.053742,0.999984,0.002408,-0.005013,0.000715,-0.242171,0.144578,0.426856,0.859211,48.173654,-27.077136,-160.806599
58202,4.317889,5.811165,5.725409,-0.236222,0.361976,-0.592780,0.381833,-0.893743,0.096756,0.042894,0.058023,0.057557,0.999988,0.001909,-0.004469,0.000484,-0.240947,0.148147,0.429502,0.857628,48.570555,-27.457067,-161.195700
58203,3.701091,5.987789,6.038824,0.432468,0.777110,-0.580812,0.424095,-0.948671,0.041100,0.036711,0.059757,0.060690,0.999986,0.002120,-0.004743,0.000205,-0.239394,0.151781,0.432429,0.855955,49.019894,-27.831740,-161.639823
58204,4.617008,6.433276,4.954046,-0.116465,-0.506794,-0.486633,0.433845,-0.976986,-0.008156,0.045930,0.064223,0.049905,0.999986,0.002169,-0.004885,-0.000041,-0.237568,0.155410,0.435452,0.854278,49.495432,-28.191834,-162.123522
58205,4.898489,6.633835,4.773492,-0.224906,-0.750797,-0.316671,0.429811,-0.864838,-0.005889,0.048779,0.066234,0.048089,0.999988,0.002149,-0.004324,-0.000029,-0.235988,0.158569,0.438317,0.852669,49.947120,-28.508506,-162.555524
58206,3.422380,6.450859,5.906217,1.016660,0.745499,-0.505725,0.600307,-0.878793,0.092680,0.033933,0.064346,0.059405,0.999986,0.003002,-0.004394,0.000463,-0.234925,0.161796,0.441832,0.850539,50.484008,-28.869864,-162.957716
58207,3.639130,6.796838,5.919906,1.065479,0.633874,-0.171782,0.856508,-1.093726,0.192021,0.036001,0.067748,0.059687,0.999975,0.004283,-0.005469,0.000960,-0.234010,0.165852,0.446594,0.847518,51.206912,-29.349753,-163.434342
58208,4.264562,7.353059,5.466797,0.867622,-0.030917,0.256255,1.154206,-1.242859,0.338433,0.042179,0.073284,0.055354,0.999963,0.005771,-0.006214,0.001692,-0.233612,0.170504,0.452640,0.843487,52.117367,-29.941757,-163.938437
58209,4.533459,8.214709,4.865313,1.145392,-0.835107,0.660687,1.448312,-1.384557,0.620962,0.044739,0.081930,0.049558,0.999945,0.007241,-0.006923,0.003105,-0.234316,0.176038,0.459813,0.838259,53.190071,-30.704727,-164.418906
58210,6.471966,8.465872,4.070005,-0.279051,-1.877031,1.435265,1.412636,-1.270201,0.894311,0.064078,0.084654,0.041706,0.999945,0.007063,-0.006351,0.004471,-0.236369,0.181738,0.466408,0.832805,54.170061,-31.546710,-164.749204
58211,5.540733,6.947703,4.277252,-0.236107,-0.624813,0.026831,1.273853,-1.041603,1.037331,0.054822,0.069487,0.043502,0.999953,0.006369,-0.005208,0.005187,-0.239403,0.186971,0.471980,0.827625,54.988663,-32.375833,-164.916282
58212,5.313456,5.941009,4.794969,-0.485874,0.448110,-0.534668,0.869770,-0.930765,0.849912,0.052657,0.059425,0.048454,0.999971,0.004349,-0.004654,0.004250,-0.241524,0.191768,0.475885,0.823665,55.590466,-33.077975,-165.107641
58213,5.375480,4.393132,4.734597,-1.370260,1.134288,-1.600074,0.427561,-0.792457,0.410449,0.053476,0.043940,0.047652,0.999988,0.002138,-0.003962,0.002052,-0.241733,0.195480,0.478205,0.821384,55.995457,-33.526620,-165.398563
58214,4.336759,4.352610,4.709329,-0.518038,1.409907,-2.218355,0.364417,-0.816729,0.063722,0.043161,0.043454,0.047349,0.999990,0.001822,-0.004084,0.000319,-0.240391,0.198531,0.480621,0.819635,56.449580,-33.815414,-165.841255
58215,5.295006,6.158410,3.646376,-0.311592,-0.419579,-0.925306,0.391833,-0.848707,-0.092674,0.052823,0.061488,0.036809,0.999989,0.001959,-0.004244,-0.000463,-0.238356,0.201303,0.483336,0.817955,56.967271,-34.036848,-166.366054
58216,5.830459,6.904621,3.027579,-0.353548,-1.316072,-0.379933,0.321210,-0.707330,-0.052315,0.058215,0.068982,0.030593,0.999992,0.001606,-0.003537,-0.000262,-0.236750,0.203672,0.485540,0.816528,57.392801,-34.229647,-166.796751
58217,4.357648,7.783334,4.459299,1.512328,-0.050870,0.044503,0.715064,-0.678516,0.137922,0.043371,0.077703,0.045018,0.999988,0.003575,-0.003393,0.000690,-0.236389,0.205919,0.489118,0.813930,57.998490,-34.503104,-167.143447
58218,4.635094,7.827257,4.553117,1.365134,0.081503,0.267431,1.164157,-0.799658,0.477647,0.045981,0.078115,0.046171,0.999972,0.005821,-0.003998,0.002388,-0.237564,0.208946,0.494294,0.809678,58.836480,-34.974477,-167.443659
58219,6.056891,8.509312,3.563196,0.607062,-1.175526,1.143444,1.442240,-0.875245,0.869341,0.060041,0.085094,0.036509,0.999955,0.007211,-0.004376,0.004347,-0.240414,0.212906,0.500244,0.804132,59.788397,-35.657658,-167.660374
58220,6.834892,8.202220,3.643917,-0.069097,-0.950958,1.428200,1.401796,-0.736883,1.184570,0.067726,0.082165,0.037265,0.999951,0.007009,-0.003684,0.005923,-0.244809,0.217122,0.505481,0.798383,60.612552,-36.454602,-167.696057
58221,6.088103,6.973926,3.147105,-0.147328,-0.672075,-0.059314,1.513327,-0.698146,1.450034,0.060263,0.069936,0.032211,0.999939,0.007566,-0.003491,0.007250,-0.250459,0.221699,0.510773,0.791979,61.440301,-37.374103,-167.630087
58222,6.692763,7.200193,2.834503,-0.360013,-0.997178,0.362890,1.630738,-0.625272,1.602973,0.066259,0.072299,0.029142,0.999930,0.008154,-0.003126,0.008015,-0.256994,0.226197,0.516202,0.785063,62.283441,-38.351149,-167.481349
58223,5.955465,6.009851,3.252161,-0.380427,0.044871,-0.756557,1.453599,-0.493446,1.480403,0.059028,0.060298,0.033105,0.999943,0.007268,-0.002467,0.007402,-0.263159,0.230065,0.520840,0.778809,63.004917,-39.233334,-167.303104
58224,5.326566,4.988674,4.131735,-0.401179,1.399322,-1.553737,1.181976,-0.507467,1.103479,0.052885,0.049933,0.041747,0.999964,0.005910,-0.002537,0.005517,-0.267479,0.233338,0.524824,0.773672,63.662319,-39.927112,-167.271790
58225,5.361695,4.281729,4.123673,-0.838455,1.681249,-2.030945,0.855477,-0.502179,0.642455,0.053375,0.042812,0.041554,0.999983,0.004277,-0.002511,0.003212,-0.269638,0.235808,0.528048,0.769970,64.234203,-40.383105,-167.398092
58226,5.352898,5.492437,3.558224,-0.037267,0.859495,-1.401935,0.657611,-0.525581,0.342758,0.053341,0.054898,0.035903,0.999990,0.003288,-0.002628,0.001714,-0.270339,0.237835,0.530879,0.767150,64.770723,-40.688337,-167.643953
58227,6.281282,6.693456,2.625423,0.034826,-0.450510,-0.276177,0.584727,-0.480980,0.308824,0.062646,0.066954,0.026601,0.999992,0.002924,-0.002405,0.001544,-0.270938,0.239697,0.533402,0.764604,65.256994,-40.964061,-167.874867
58228,6.543297,7.167963,2.172980,0.164514,-0.986505,0.082536,0.633146,-0.360659,0.480432,0.065221,0.071767,0.022075,0.999990,0.003166,-0.001803,0.002402,-0.272566,0.241484,0.535730,0.761831,65.683656,-41.298619,-167.972126
58229,7.008425,7.348880,1.878776,-0.017456,-1.318528,0.430074,0.797036,-0.268866,0.721656,0.069793,0.073665,0.019175,0.999985,0.003985,-0.001344,0.003608,-0.275551,0.243342,0.538255,0.758379,66.115331,-41.737898,-167.933993
58230,7.570280,7.551180,1.515940,-0.227659,-1.727918,0.845103,1.049658,-0.147516,1.014692,0.075307,0.075813,0.015612,0.999973,0.005248,-0.000738,0.005073,-0.280267,0.245167,0.541190,0.753961,66.576054,-42.302714,-167.723736
58231,8.067635,8.013486,1.500868,-0.145318,-1.852043,1.505512,1.273976,-0.001307,1.334622,0.080140,0.080573,0.015522,0.999957,0.006370,-0.000007,0.006673,-0.286843,0.246978,0.544337,0.748612,67.029093,-43.004814,-167.314650
58232,7.466772,7.873117,2.525872,0.391625,-0.644246,1.302506,1.430481,0.105819,1.592719,0.074052,0.079139,0.025784,0.999943,0.007152,0.000529,0.007963,-0.294838,0.248839,0.547544,0.742526,67.461934,-43.821368,-166.751498
58233,7.038936,7.173096,2.835427,0.356385,-0.021884,0.623292,1.386793,0.104505,1.697423,0.069793,0.072126,0.028817,0.999940,0.006934,0.000523,0.008487,-0.303133,0.251029,0.550395,0.736315,67.842126,-44.697060,-166.157335
58234,6.768230,6.414186,3.184400,0.140011,0.602689,0.021263,1.282376,0.117208,1.631760,0.067176,0.064486,0.032217,0.999946,0.006412,0.000586,0.008159,-0.311051,0.253118,0.552864,0.730424,68.162860,-45.537209,-165.572600
58235,6.003728,5.724840,3.274818,0.264416,1.028722,-0.957541,1.175190,0.057995,1.519160,0.059611,0.057509,0.033068,0.999954,0.005876,0.000290,0.007596,-0.318231,0.255257,0.555119,0.724855,68.471933,-46.332718,-165.065265
58236,6.664025,5.531413,2.362006,-0.236532,0.126272,-0.839851,1.099478,0.026299,1.385182,0.066259,0.055643,0.023917,0.999961,0.005497,0.000131,0.006926,-0.324711,0.257234,0.557275,0.719610,68.780023,-47.064670,-164.622700
58237,7.058185,5.450661,1.939834,-0.463081,-0.288425,-0.702687,0.995634,0.124117,1.224716,0.070259,0.054840,0.019627,0.999969,0.004978,0.000621,0.006124,-0.330732,0.258566,0.559065,0.714987,69.003640,-47.692649,-164.150965
58238,6.782976,5.402010,1.921963,-0.236062,-0.205311,-0.936546,0.949658,0.182594,1.102995,0.067548,0.054301,0.019415,0.999973,0.004748,0.000913,0.005515,-0.336401,0.259407,0.560719,0.710730,69.189118,-48.244137,-163.667830
58239,7.409145,5.733074,1.833533,-0.301676,-0.418442,-0.280706,0.924854,0.238137,1.023140,0.073819,0.057624,0.018513,0.999976,0.004624,0.001191,0.005116,-0.341895,0.259858,0.562266,0.706710,69.340118,-48.743037,-163.161496
58240,6.912664,6.210767,2.633586,0.442041,0.429728,-0.173511,0.923228,0.271824,0.997802,0.068852,0.062329,0.026530,0.999976,0.004616,0.001359,0.004989,-0.347372,0.260106,0.563756,0.702750,69.470264,-49.221915,-162.632564
58241,7.436388,6.376823,2.554468,0.320077,0.272571,0.302235,0.830053,0.197299,1.004251,0.074068,0.064034,0.025737,0.999978,0.004150,0.000986,0.005021,-0.352528,0.260787,0.565013,0.698910,69.586411,-49.720399,-162.159297
58242,8.493876,5.691541,1.773818,-0.763155,-0.585115,0.519813,0.765932,0.225829,0.970565,0.084682,0.057259,0.017861,0.999980,0.003830,0.001129,0.004853,-0.357545,0.261372,0.566017,0.695321,69.650386,-50.195045,-161.669335
58243,8.325410,5.862540,1.885388,-0.446989,-0.434531,0.524009,0.745815,0.264116,0.946619,0.083001,0.058948,0.018964,0.999981,0.003729,0.001321,0.004733,-0.362551,0.261785,0.566891,0.691853,69.677818,-50.649989,-161.150150
58244,8.415791,6.090043,1.930135,-0.238444,-0.404388,0.742810,0.790842,0.291538,0.991849,0.083883,0.061240,0.019421,0.999979,0.003954,0.001458,0.004959,-0.367832,0.262137,0.567790,0.688184,69.695618,-51.123496,-160.588740
58245,8.128770,6.267190,2.062319,0.153756,-0.201156,0.653586,0.789782,0.305264,1.048887,0.080989,0.063015,0.020748,0.999977,0.003949,0.001526,0.005244,-0.373334,0.262597,0.568560,0.684401,69.681539,-51.625353,-159.991139
58246,7.785370,5.974153,2.118876,0.200145,-0.022048,0.224788,0.751962,0.314287,1.059311,0.077570,0.060073,0.021292,0.999978,0.003760,0.001571,0.005297,-0.378828,0.263112,0.569145,0.680687,69.628376,-52.130400,-159.375510
58247,7.893363,5.409664,1.877431,-0.222603,-0.222521,-0.066161,0.663183,0.335258,0.976019,0.078700,0.054419,0.018822,0.999981,0.003316,0.001676,0.004880,-0.383969,0.263478,0.569474,0.677383,69.521679,-52.586393,-158.760551
58248,7.633223,5.317799,2.299075,-0.114079,0.261902,-0.234123,0.547693,0.353700,0.839779,0.076149,0.053435,0.023002,0.999986,0.002738,0.001768,0.004199,-0.388533,0.263604,0.569538,0.674671,69.363418,-52.964338,-158.167302
58249,7.526080,4.904986,2.313282,-0.339390,0.324058,-0.548152,0.432056,0.328432,0.699023,0.075127,0.049263,0.023116,0.999990,0.002160,0.001642,0.003495,-0.392391,0.263636,0.569432,0.672513,69.187268,-53.271305,-157.637240
58250,7.665683,5.011765,2.237342,-0.274066,0.213597,-0.391154,0.383218,0.311793,0.600860,0.076541,0.050305,0.022350,0.999992,0.001916,0.001559,0.003004,-0.395798,0.263533,0.569314,0.670653,69.016778,-53.527806,-157.151009
58251,7.705633,5.257061,2.020605,-0.027163,-0.015881,-0.268308,0.374525,0.302102,0.571975,0.076936,0.052753,0.020188,0.999993,0.001873,0.001511,0.002860,-0.399066,0.263396,0.569216,0.668851,68.851579,-53.770366,-156.679111
58252,8.150319,5.400670,1.733170,-0.072322,-0.403025,0.108549,0.405399,0.315765,0.610390,0.081365,0.054220,0.017313,0.999992,0.002027,0.001579,0.003052,-0.402534,0.263255,0.569135,0.666895,68.678875,-54.029442,-156.177534
58253,8.265868,5.612402,1.524901,0.119955,-0.637702,0.273323,0.441657,0.373063,0.677773,0.082496,0.056370,0.015219,0.999990,0.002208,0.001865,0.003389,-0.406433,0.263038,0.568960,0.664761,68.459574,-54.311788,-155.594586
58254,8.320891,5.774779,1.536354,0.288597,-0.644032,0.407256,0.483014,0.451996,0.752323,0.083026,0.058023,0.015316,0.999987,0.002415,0.002260,0.003762,-0.410846,0.262681,0.568653,0.662449,68.176554,-54.615316,-154.906287
58255,8.028899,5.891089,2.121229,0.537033,-0.009499,0.354853,0.490110,0.504710,0.816151,0.080101,0.059186,0.021155,0.999985,0.002451,0.002524,0.004081,-0.415622,0.262309,0.568160,0.660035,67.829256,-54.939540,-154.137067
58256,7.799730,5.720458,2.561495,0.522459,0.472794,0.168485,0.467140,0.498267,0.858018,0.077815,0.057479,0.025555,0.999985,0.002336,0.002491,0.004290,-0.420472,0.262117,0.567535,0.657573,67.450348,-55.284200,-153.348396
58257,8.068098,5.388375,2.260879,0.212340,0.111410,0.146351,0.455112,0.461734,0.874525,0.080497,0.054185,0.022546,0.999985,0.002276,0.002309,0.004373,-0.425247,0.262110,0.566907,0.655041,67.074930,-55.643029,-152.575778
58258,8.236954,5.225864,1.957808,0.103793,-0.230511,0.133452,0.454124,0.493393,0.875773,0.082188,0.052574,0.019494,0.999985,0.002271,0.002467,0.004379,-0.430099,0.261996,0.566192,0.652533,66.662386,-55.991972,-151.762140
58259,8.118208,5.318085,2.027647,0.306132,-0.136433,0.096191,0.478497,0.515730,0.903033,0.080993,0.053498,0.020195,0.999984,0.002392,0.002579,0.004515,-0.435124,0.261827,0.565453,0.649905,66.223621,-56.347109,-150.903574
58260,8.356861,5.158161,1.526854,0.208558,-0.691685,0.099553,0.500896,0.549031,0.950359,0.083364,0.051940,0.015169,0.999982,0.002504,0.002745,0.004752,-0.440409,0.261624,0.564634,0.647133,65.741147,-56.714992,-149.980723
58261,8.324402,5.019911,1.494956,0.195857,-0.725659,-0.006340,0.567496,0.643386,1.006465,0.083038,0.050575,0.014825,0.999978,0.002837,0.003217,0.005032,-0.446214,0.261119,0.563726,0.644145,65.184286,-57.085440,-148.927524
58262,7.741022,5.162411,2.073190,0.580377,-0.010109,-0.297725,0.647728,0.685545,1.071811,0.077203,0.051971,0.020635,0.999975,0.003239,0.003428,0.005359,-0.452428,0.260469,0.562872,0.640811,64.596896,-57.473424,-147.787728
58263,7.499113,4.881457,2.394891,0.469336,0.349019,-0.568327,0.589868,0.677736,1.078525,0.074808,0.049148,0.023840,0.999975,0.002949,0.003389,0.005393,-0.458548,0.259983,0.561811,0.637582,63.958266,-57.860554,-146.631604
58264,7.688334,3.957528,2.383009,-0.347887,0.220974,-0.852725,0.544238,0.686040,0.990253,0.076768,0.039891,0.023675,0.999978,0.002721,0.003430,0.004951,-0.464324,0.259313,0.560678,0.634665,63.302978,-58.192825,-145.491048
58265,7.448620,4.068191,3.125636,-0.225146,0.986466,-0.825051,0.469053,0.652033,0.862580,0.074412,0.040930,0.031109,0.999983,0.002345,0.003260,0.004313,-0.469489,0.258559,0.559525,0.632186,62.668209,-58.462370,-144.429093
58266,7.717554,4.266632,3.016573,-0.087656,0.795448,-0.527010,0.397733,0.566252,0.779197,0.077094,0.042907,0.030033,0.999986,0.001989,0.002831,0.003896,-0.474040,0.258001,0.558441,0.629973,62.087199,-58.706016,-143.480814
58267,9.430885,4.805868,1.264468,0.100851,-1.374129,0.757925,0.422963,0.592663,0.795701,0.094154,0.048407,0.012468,0.999985,0.002115,0.002963,0.003978,-0.478740,0.257340,0.557334,0.627665,61.478519,-58.946113,-142.485843
58268,9.680002,5.821194,0.885132,1.076782,-1.747006,1.330007,0.610598,0.786291,1.009430,0.096539,0.058673,0.008650,0.999975,0.003053,0.003931,0.005047,-0.484868,0.256206,0.556059,0.624548,60.703489,-59.233172,-141.174301
58269,9.540691,6.114818,1.141717,1.464287,-1.443255,1.389565,0.785867,0.920804,1.331132,0.095049,0.061737,0.011221,0.999960,0.003929,0.004604,0.006656,-0.492571,0.255107,0.554553,0.620294,59.736967,-59.632052,-139.528541
58270,8.935327,5.614926,1.922420,1.213206,-0.568461,0.829981,0.812920,1.048374,1.519571,0.089024,0.056749,0.018987,0.999949,0.004065,0.005242,0.007598,-0.501197,0.254043,0.552531,0.615608,58.547596,-60.069996,-137.613902
58271,7.675249,3.872910,3.276223,-0.090201,0.905049,-0.657671,0.748740,1.029949,1.493328,0.076629,0.039180,0.032514,0.999952,0.003744,0.005150,0.007467,-0.509565,0.253101,0.550332,0.611080,57.304926,-60.480611,-135.688663
58272,7.249585,2.647745,3.968772,-1.133934,1.508931,-1.341858,0.677579,0.886074,1.309242,0.072496,0.026818,0.039457,0.999963,0.003388,0.004430,0.006546,-0.517397,0.251735,0.548668,0.606542,56.199628,-60.824882,-133.874006
58273,7.173769,2.390377,3.842384,-1.242845,1.351628,-1.532056,0.574543,0.722059,1.043201,0.071750,0.024168,0.038234,0.999976,0.002873,0.003610,0.005216,-0.523251,0.250906,0.547216,0.603166,55.307293,-61.085065,-132.476458
