// General information: 
//  MT Manager version: 2022.0.0 
//  XDA version: 2022.0.0 build 7085 rev 119802 built on 2022-11-08
// Device information: 
//  DeviceId: 00B472EC
//  ProductCode: MTW2-3A7G6
//  Firmware Version: 4.4.0
//  Hardware Version: 2.0.0
// Device settings: 
//  Filter Profile: human(46.1)
//  Option Flags: Orientation Smoother Disabled, Position/Velocity Smoother Disabled, Continuous Zero Rotation Update Disabled, AHS Disabled, ICC Disabled
// Coordinate system: ENU
PacketCounter,Acc_X,Acc_Y,Acc_Z,FreeAcc_E,FreeAcc_N,FreeAcc_U,Gyr_X,Gyr_Y,Gyr_Z,VelInc_X,VelInc_Y,VelInc_Z,OriInc_q0,OriInc_q1,OriInc_q2,OriInc_q3,Quat_q0,Quat_q1,Quat_q2,Quat_q3,Roll,Pitch,Yaw
52517,-9.435410,0.777998,-2.044242,0.253297,-0.343513,-0.136480,-0.157305,0.130437,-0.038438,-0.094366,0.007782,-0.020387,0.999999,-0.000787,0.000652,-0.000192,0.241279,-0.684279,0.340588,0.597951,155.408226,79.322361,-73.408169
52518,-9.372134,0.671963,-2.064482,0.343399,-0.292737,-0.202958,-0.113699,0.114991,-0.036896,-0.093732,0.006725,-0.020595,1.000000,-0.000568,0.000575,-0.000184,0.240785,-0.684788,0.340286,0.597740,155.554494,79.272062,-73.192878
52519,-9.335615,0.498331,-2.140754,0.519219,-0.234583,-0.238751,-0.072248,0.123906,-0.033383,-0.093369,0.004991,-0.021352,1.000000,-0.000361,0.000620,-0.000167,0.240405,-0.685268,0.340131,0.597432,155.723485,79.215994,-72.978482
52520,-9.335450,0.387328,-2.211707,0.641605,-0.206799,-0.234699,-0.003732,0.116932,-0.024745,-0.093367,0.003884,-0.022063,1.000000,-0.000019,0.000585,-0.000124,0.240238,-0.685634,0.340192,0.597043,155.898696,79.161468,-72.796173
52521,-9.356395,0.365292,-2.155755,0.612606,-0.140575,-0.224790,0.057763,0.108298,-0.013087,-0.093575,0.003665,-0.021506,1.000000,0.000289,0.000541,-0.000065,0.240270,-0.685876,0.340476,0.596591,156.063959,79.108597,-72.661345
52522,-9.379059,0.429391,-2.128084,0.536895,-0.151781,-0.201831,0.115759,0.103002,-0.010923,-0.093801,0.004311,-0.021230,1.000000,0.000579,0.000515,-0.000055,0.240501,-0.686029,0.340930,0.596062,156.249348,79.057996,-72.539490
52523,-9.478811,0.585200,-2.046529,0.352167,-0.169548,-0.105689,0.158477,0.094056,-0.001948,-0.094798,0.005869,-0.020416,1.000000,0.000792,0.000470,-0.000010,0.240869,-0.686087,0.341535,0.595500,156.422305,79.009881,-72.455557
52524,-9.547572,0.755861,-1.922503,0.130683,-0.171391,-0.046572,0.169578,0.080456,0.000123,-0.095483,0.007575,-0.019180,1.000000,0.000848,0.000402,0.000001,0.241294,-0.686086,0.342166,0.594967,156.579174,78.968478,-72.394949
52525,-9.553127,0.905900,-1.781316,-0.081949,-0.159049,-0.054411,0.146867,0.067142,-0.005826,-0.095537,0.009075,-0.017774,1.000000,0.000734,0.000336,-0.000029,0.241679,-0.686084,0.342690,0.594511,156.722640,78.935315,-72.334264
52526,-9.620187,0.951487,-1.825077,-0.097450,-0.205164,0.022588,0.084324,0.051882,-0.009826,-0.096206,0.009527,-0.018222,1.000000,0.000422,0.000259,-0.000049,0.241892,-0.686116,0.342999,0.594209,156.823735,78.911250,-72.280951
52527,-9.623795,0.977063,-1.850500,-0.104096,-0.237083,0.032585,0.006329,0.041866,-0.011928,-0.096241,0.009777,-0.018485,1.000000,0.000032,0.000209,-0.000060,0.241856,-0.686219,0.343054,0.594073,156.873181,78.892737,-72.234009
52528,-9.501762,0.862808,-2.031285,0.105078,-0.317143,-0.063717,-0.059894,0.033930,-0.023987,-0.095020,0.008633,-0.020299,1.000000,-0.000299,0.000170,-0.000120,0.241648,-0.686397,0.342864,0.594062,156.908739,78.881311,-72.163384
52529,-9.415864,0.751026,-2.142107,0.266393,-0.341255,-0.136752,-0.111708,0.016294,-0.027166,-0.094159,0.007511,-0.021418,1.000000,-0.000559,0.000081,-0.000136,0.241296,-0.686592,0.342485,0.594199,156.901990,78.879692,-72.104785
52530,-9.546591,0.806497,-2.360800,0.360199,-0.514348,0.034490,-0.136379,0.005272,-0.026450,-0.095465,0.008061,-0.023611,1.000000,-0.000682,0.000026,-0.000132,0.240881,-0.686780,0.342025,0.594414,156.866951,78.883842,-72.061397
52531,-9.489689,0.973101,-2.585407,0.387012,-0.799771,0.030892,-0.147793,-0.023819,-0.033866,-0.094892,0.009728,-0.025873,1.000000,-0.000739,-0.000119,-0.000169,0.240494,-0.686911,0.341467,0.594741,156.811540,78.904877,-72.031323
52532,-9.257679,0.758219,-2.453583,0.481091,-0.608396,-0.236781,-0.111288,-0.045293,-0.034125,-0.092570,0.007584,-0.024561,1.000000,-0.000556,-0.000226,-0.000171,0.240268,-0.686934,0.340990,0.595079,156.753245,78.937262,-72.025288
52533,-9.158996,0.465882,-2.337319,0.635454,-0.354773,-0.376712,-0.054388,-0.057920,-0.028197,-0.091583,0.004665,-0.023401,1.000000,-0.000272,-0.000290,-0.000141,0.240242,-0.686841,0.340688,0.595370,156.696458,78.974973,-72.051147
52534,-9.197666,0.331204,-2.356639,0.751190,-0.279985,-0.346018,0.022717,-0.075526,-0.019744,-0.091967,0.003324,-0.023601,1.000000,0.000114,-0.000378,-0.000099,0.240488,-0.686588,0.340623,0.595599,156.641282,79.020098,-72.120510
52535,-9.401629,0.313807,-2.236779,0.678017,-0.150950,-0.168530,0.102128,-0.090315,-0.009444,-0.094006,0.003154,-0.022409,1.000000,0.000511,-0.000452,-0.000047,0.240999,-0.686178,0.340812,0.595757,156.584567,79.070570,-72.237631
52536,-9.839424,0.499226,-2.110865,0.435102,-0.109034,0.252998,0.147444,-0.110348,-0.004406,-0.098382,0.005010,-0.021159,1.000000,0.000737,-0.000552,-0.000022,0.241678,-0.685649,0.341122,0.595914,156.516141,79.130249,-72.391834
52537,-10.143586,0.931444,-1.970858,0.005076,-0.243209,0.559633,0.164178,-0.131555,-0.014485,-0.101422,0.009338,-0.019768,0.999999,0.000821,-0.000658,-0.000072,0.242486,-0.685049,0.341428,0.596100,156.457652,79.203491,-72.546909
52538,-9.982149,1.253242,-1.671650,-0.418323,-0.272566,0.373530,0.133355,-0.152127,-0.027316,-0.099807,0.012557,-0.016784,0.999999,0.000667,-0.000761,-0.000137,0.243268,-0.684443,0.341579,0.596392,156.390843,79.290459,-72.693336
52539,-9.680543,1.316910,-1.371159,-0.638467,-0.158589,0.030810,0.069911,-0.159213,-0.037431,-0.096792,0.013192,-0.013784,1.000000,0.000350,-0.000796,-0.000187,0.243869,-0.683912,0.341492,0.596805,156.305107,79.383420,-72.821090
52540,-9.401084,1.297112,-1.236611,-0.688277,-0.109180,-0.267719,-0.026437,-0.153373,-0.048312,-0.093998,0.012992,-0.012440,1.000000,-0.000132,-0.000767,-0.000242,0.244163,-0.683536,0.341084,0.597348,156.201421,79.475830,-72.910761
52541,-9.181886,1.111067,-1.225383,-0.535330,-0.031959,-0.498427,-0.104379,-0.137792,-0.055651,-0.091807,0.011130,-0.012323,1.000000,-0.000522,-0.000689,-0.000278,0.244186,-0.683312,0.340440,0.597962,156.090261,79.561704,-72.962739
52542,-9.188164,0.888335,-1.331150,-0.291609,0.023314,-0.490785,-0.168411,-0.108847,-0.064594,-0.091871,0.008902,-0.013369,0.999999,-0.000842,-0.000544,-0.000323,0.243966,-0.683269,0.339606,0.598575,156.004536,79.634490,-72.951161
52543,-9.395625,0.782929,-1.527020,-0.089476,-0.028041,-0.262099,-0.188040,-0.096406,-0.068513,-0.093946,0.007847,-0.015323,0.999999,-0.000940,-0.000482,-0.000343,0.243671,-0.683291,0.338717,0.599173,155.933122,79.701678,-72.913989
52544,-9.590867,0.657108,-1.725615,0.130468,-0.069289,-0.046806,-0.194436,-0.090677,-0.067012,-0.095899,0.006586,-0.017306,0.999999,-0.000972,-0.000453,-0.000335,0.243341,-0.683334,0.337824,0.599762,155.861111,79.765535,-72.874195
52545,-9.769466,0.508411,-1.871535,0.334789,-0.059436,0.141607,-0.175016,-0.107206,-0.062560,-0.097683,0.005098,-0.018772,0.999999,-0.000875,-0.000536,-0.000313,0.243090,-0.683296,0.336981,0.600381,155.765245,79.836988,-72.869465
52546,-9.810802,0.287960,-1.911031,0.530798,0.051759,0.172420,-0.111795,-0.118490,-0.061447,-0.098096,0.002899,-0.019170,1.000000,-0.000559,-0.000592,-0.000307,0.243073,-0.683145,0.336317,0.600932,155.688023,79.914134,-72.882815
52547,-9.754394,0.194775,-1.798403,0.536107,0.174366,0.091987,-0.045503,-0.131265,-0.050769,-0.097532,0.001968,-0.018048,1.000000,-0.000228,-0.000656,-0.000254,0.243269,-0.682857,0.335873,0.601428,155.598401,79.995361,-72.947107
52548,-9.579487,0.236601,-1.765652,0.498753,0.129465,-0.082603,0.014837,-0.138277,-0.040725,-0.095782,0.002387,-0.017723,1.000000,0.000074,-0.000691,-0.000204,0.243649,-0.682459,0.335634,0.601859,155.503447,80.077765,-73.051410
52549,-9.427034,0.308177,-1.598010,0.348957,0.168333,-0.254055,0.069219,-0.137940,-0.033441,-0.094259,0.003103,-0.016044,1.000000,0.000346,-0.000690,-0.000167,0.244196,-0.681981,0.335586,0.602206,155.416034,80.158311,-73.180149
52550,-9.298836,0.396953,-1.461146,0.204784,0.178073,-0.395299,0.102890,-0.132509,-0.026328,-0.092978,0.003989,-0.014671,1.000000,0.000514,-0.000663,-0.000132,0.244836,-0.681462,0.335678,0.602483,155.333558,80.234507,-73.325045
52551,-9.254140,0.496113,-1.350188,0.065392,0.176790,-0.449317,0.127077,-0.126098,-0.018721,-0.092532,0.004978,-0.013557,1.000000,0.000635,-0.000630,-0.000094,0.245515,-0.680923,0.335868,0.602710,155.247749,80.305298,-73.485731
52552,-9.320048,0.588430,-1.252441,-0.065837,0.189498,-0.392608,0.122762,-0.113466,-0.013771,-0.093193,0.005898,-0.012574,1.000000,0.000614,-0.000567,-0.000069,0.246134,-0.680426,0.336065,0.602908,155.162261,80.368160,-73.641617
52553,-9.414839,0.605010,-1.134663,-0.154606,0.272527,-0.315608,0.113932,-0.100389,-0.009647,-0.094142,0.006061,-0.011390,1.000000,0.000570,-0.000502,-0.000048,0.246697,-0.679965,0.336278,0.603080,155.074302,80.423319,-73.796786
52554,-9.662653,0.679489,-1.077488,-0.254943,0.298228,-0.074330,0.088938,-0.087859,-0.015530,-0.096621,0.006807,-0.010814,1.000000,0.000445,-0.000439,-0.000078,0.247176,-0.679582,0.336412,0.603241,155.008519,80.473487,-73.915357
52555,-9.765048,0.785583,-1.044263,-0.356900,0.262901,0.029431,0.054223,-0.082939,-0.013754,-0.097646,0.007865,-0.010481,1.000000,0.000271,-0.000415,-0.000069,0.247519,-0.679253,0.336452,0.603448,154.921818,80.520514,-74.034517
52556,-9.776235,0.863780,-1.043080,-0.412509,0.207725,0.046094,0.008641,-0.080192,-0.017675,-0.097757,0.008647,-0.010470,1.000000,0.000043,-0.000401,-0.000088,0.247717,-0.678996,0.336344,0.603717,154.825850,80.567153,-74.136768
52557,-9.752399,0.820105,-1.039738,-0.375874,0.228140,0.019382,-0.028909,-0.073119,-0.021889,-0.097519,0.008210,-0.010434,1.000000,-0.000145,-0.000366,-0.000109,0.247786,-0.678813,0.336117,0.604020,154.729325,80.611011,-74.217572
52558,-9.615787,0.768057,-1.136114,-0.262915,0.162647,-0.104524,-0.061923,-0.068090,-0.023146,-0.096153,0.007688,-0.011396,1.000000,-0.000310,-0.000340,-0.000116,0.247742,-0.678688,0.335795,0.604358,154.625416,80.652653,-74.287226
52559,-9.486554,0.684796,-1.244921,-0.118764,0.110310,-0.221691,-0.084112,-0.057648,-0.022931,-0.094861,0.006854,-0.012479,1.000000,-0.000421,-0.000288,-0.000115,0.247600,-0.678621,0.335417,0.604700,154.522054,80.688715,-74.342888
52560,-9.376913,0.616339,-1.329952,-0.002426,0.069868,-0.322153,-0.089570,-0.055327,-0.021474,-0.093765,0.006167,-0.013328,1.000000,-0.000448,-0.000277,-0.000107,0.247430,-0.678569,0.335026,0.605045,154.415360,80.723239,-74.398140
52561,-9.392765,0.502161,-1.416554,0.143482,0.078606,-0.301848,-0.086953,-0.039261,-0.021652,-0.093924,0.005026,-0.014186,1.000000,-0.000435,-0.000196,-0.000108,0.247244,-0.678560,0.334666,0.605331,154.333089,80.749454,-74.430773
52562,-9.406282,0.472240,-1.478246,0.209200,0.050902,-0.281685,-0.055632,-0.044396,-0.017362,-0.094059,0.004726,-0.014805,1.000000,-0.000278,-0.000222,-0.000087,0.247167,-0.678487,0.334412,0.605584,154.248931,80.777502,-74.484353
52563,-9.503554,0.501792,-1.495822,0.197459,0.029957,-0.181128,-0.018521,-0.040254,-0.014450,-0.095032,0.005023,-0.014978,1.000000,-0.000093,-0.000201,-0.000072,0.247193,-0.678378,0.334283,0.605767,154.180787,80.802419,-74.542390
52564,-9.580843,0.566771,-1.469867,0.131007,0.014834,-0.104088,0.015273,-0.044839,-0.011920,-0.095805,0.005675,-0.014720,1.000000,0.000076,-0.000224,-0.000060,0.247326,-0.678215,0.334248,0.605914,154.118876,80.829063,-74.612107
52565,-9.620417,0.618740,-1.382254,0.035442,0.047771,-0.073983,0.045304,-0.046974,-0.011005,-0.096201,0.006196,-0.013844,1.000000,0.000227,-0.000235,-0.000055,0.247570,-0.678001,0.334316,0.606018,154.065183,80.856562,-74.692538
52566,-9.643721,0.742916,-1.347791,-0.079102,-0.008611,-0.047264,0.050772,-0.049345,-0.012497,-0.096433,0.007439,-0.013500,1.000000,0.000254,-0.000247,-0.000062,0.247843,-0.677774,0.334392,0.606117,154.016504,80.885753,-74.771407
52567,-9.611457,0.805769,-1.234206,-0.197337,0.025287,-0.090905,0.045717,-0.043933,-0.017470,-0.096111,0.008069,-0.012361,1.000000,0.000229,-0.000220,-0.000087,0.248102,-0.677579,0.334443,0.606201,153.987828,80.913289,-74.826730
52568,-9.644363,0.813887,-1.237317,-0.200519,0.018427,-0.057353,0.014188,-0.045891,-0.016785,-0.096440,0.008148,-0.012395,1.000000,0.000071,-0.000229,-0.000084,0.248256,-0.677418,0.334395,0.606345,153.937133,80.941745,-74.885840
52569,-9.607776,0.749253,-1.239785,-0.146197,0.048920,-0.097543,-0.010436,-0.042892,-0.023406,-0.096074,0.007503,-0.012419,1.000000,-0.000052,-0.000214,-0.000117,0.248341,-0.677305,0.334256,0.606512,153.896518,80.970227,-74.920664
52570,-9.631939,0.798134,-1.307899,-0.137129,-0.034097,-0.060667,-0.031175,-0.037782,-0.023377,-0.096316,0.007991,-0.013098,1.000000,-0.000156,-0.000189,-0.000117,0.248347,-0.677236,0.334057,0.606697,153.853620,80.996175,-74.945390
52571,-9.591117,0.876737,-1.293622,-0.201930,-0.085232,-0.097565,-0.045820,-0.037564,-0.030674,-0.095907,0.008779,-0.012956,1.000000,-0.000229,-0.000188,-0.000153,0.248325,-0.677196,0.333794,0.606896,153.824412,81.023746,-74.948135
52572,-9.536647,0.763395,-1.278761,-0.122204,-0.012582,-0.161234,-0.057065,-0.033457,-0.031237,-0.095363,0.007645,-0.012806,1.000000,-0.000285,-0.000167,-0.000156,0.248262,-0.677184,0.333496,0.607098,153.799175,81.049524,-74.940337
52573,-9.572076,0.661952,-1.342157,-0.003969,0.008076,-0.124338,-0.055856,-0.031596,-0.034246,-0.095718,0.006632,-0.013439,1.000000,-0.000279,-0.000158,-0.000171,0.248208,-0.677180,0.333197,0.607289,153.785335,81.074930,-74.921703
52574,-9.541111,0.599295,-1.399872,0.083748,-0.002447,-0.151187,-0.048374,-0.033278,-0.035300,-0.095408,0.006006,-0.014016,1.000000,-0.000242,-0.000166,-0.000177,0.248178,-0.677168,0.332906,0.607474,153.778437,81.101476,-74.899112
52575,-9.534761,0.603382,-1.418899,0.094846,-0.024257,-0.154559,-0.030015,-0.032718,-0.030662,-0.095344,0.006046,-0.014205,1.000000,-0.000150,-0.000164,-0.000153,0.248202,-0.677123,0.332696,0.607630,153.765855,81.126552,-74.894193
52576,-9.535131,0.625500,-1.381346,0.054699,-0.015193,-0.157903,-0.023634,-0.035397,-0.036586,-0.095348,0.006271,-0.013831,1.000000,-0.000118,-0.000177,-0.000183,0.248268,-0.677074,0.332477,0.607777,153.774134,81.154603,-74.871273
52577,-9.495095,0.653339,-1.435622,0.072277,-0.084095,-0.188115,-0.017068,-0.036745,-0.033218,-0.094947,0.006548,-0.014374,1.000000,-0.000085,-0.000184,-0.000166,0.248350,-0.677004,0.332293,0.607922,153.770896,81.182396,-74.864406
52578,-9.561833,0.636185,-1.403785,0.062661,-0.043887,-0.127743,-0.022108,-0.032950,-0.036053,-0.095615,0.006378,-0.014054,1.000000,-0.000111,-0.000165,-0.000180,0.248429,-0.676952,0.332097,0.608056,153.781584,81.209244,-74.842311
52579,-9.677723,0.686853,-1.473143,0.066869,-0.115872,-0.000331,-0.028076,-0.038266,-0.033164,-0.096773,0.006883,-0.014751,1.000000,-0.000140,-0.000191,-0.000166,0.248476,-0.676891,0.331877,0.608224,153.769417,81.237806,-74.838098
52580,-9.700066,0.614039,-1.470217,0.120404,-0.067372,0.016393,-0.034113,-0.040346,-0.034514,-0.096997,0.006155,-0.014723,1.000000,-0.000171,-0.000202,-0.000173,0.248505,-0.676838,0.331624,0.608409,153.756850,81.267793,-74.829596
52581,-9.851222,0.606452,-1.460738,0.115934,-0.038122,0.163946,-0.043815,-0.044846,-0.031099,-0.098508,0.006077,-0.014631,1.000000,-0.000219,-0.000224,-0.000155,0.248503,-0.676773,0.331355,0.608628,153.717768,81.299212,-74.843489
52582,-9.877525,0.620828,-1.484772,0.122822,-0.067007,0.194105,-0.053882,-0.057754,-0.032053,-0.098770,0.006220,-0.014878,1.000000,-0.000269,-0.000289,-0.000160,0.248497,-0.676682,0.331038,0.608905,153.656086,81.337698,-74.875107
52583,-9.810477,0.486974,-1.470342,0.220273,0.015754,0.116851,-0.062101,-0.067619,-0.028929,-0.098099,0.004879,-0.014738,1.000000,-0.000311,-0.000338,-0.000145,0.248465,-0.676566,0.330693,0.609234,153.560446,81.380248,-74.935609
52584,-9.890449,0.466636,-1.466328,0.234204,0.037039,0.193942,-0.067146,-0.073292,-0.030478,-0.098898,0.004677,-0.014701,1.000000,-0.000336,-0.000366,-0.000152,0.248427,-0.676446,0.330314,0.609588,153.458843,81.426163,-74.998592
52585,-9.955966,0.468772,-1.582865,0.311635,-0.048713,0.274283,-0.068937,-0.083329,-0.043291,-0.099552,0.004704,-0.015872,1.000000,-0.000345,-0.000417,-0.000216,0.248441,-0.676314,0.329880,0.609963,153.379850,81.480415,-75.038283
52586,-9.800469,0.477737,-1.601366,0.328240,-0.099560,0.123315,-0.077957,-0.101486,-0.042352,-0.097996,0.004792,-0.016065,1.000000,-0.000390,-0.000507,-0.000212,0.248445,-0.676142,0.329389,0.610417,153.262067,81.543662,-75.110630
52587,-9.628377,0.418988,-1.448112,0.283354,0.017811,-0.071147,-0.062985,-0.114271,-0.043253,-0.096275,0.004206,-0.014537,1.000000,-0.000315,-0.000571,-0.000216,0.248530,-0.675908,0.328935,0.610887,153.130338,81.613703,-75.207066
52588,-9.568696,0.517230,-1.493275,0.248365,-0.099461,-0.118063,-0.070977,-0.118750,-0.042955,-0.095677,0.005188,-0.014991,1.000000,-0.000355,-0.000594,-0.000215,0.248601,-0.675669,0.328452,0.611383,152.985862,81.686222,-75.312506
52589,-9.391924,0.636039,-1.362919,0.086545,-0.117829,-0.302223,-0.057515,-0.134023,-0.044436,-0.093909,0.006377,-0.013694,1.000000,-0.000288,-0.000670,-0.000222,0.248739,-0.675369,0.327985,0.611908,152.821780,81.766575,-75.444767
52590,-9.292290,0.795618,-1.243287,-0.101414,-0.160381,-0.405806,-0.067404,-0.125184,-0.040760,-0.092913,0.007971,-0.012494,1.000000,-0.000337,-0.000626,-0.000204,0.248825,-0.675101,0.327513,0.612422,152.654033,81.841584,-75.575757
52591,-9.410039,0.861692,-1.191044,-0.181758,-0.160422,-0.291597,-0.096671,-0.133280,-0.031062,-0.094091,0.008626,-0.011977,1.000000,-0.000483,-0.000666,-0.000155,0.248789,-0.674829,0.326972,0.613024,152.415110,81.917901,-75.760904
52592,-9.460834,0.722972,-1.234695,-0.042220,-0.104655,-0.244940,-0.125161,-0.128992,-0.031263,-0.094599,0.007237,-0.012412,1.000000,-0.000626,-0.000645,-0.000156,0.248663,-0.674600,0.326358,0.613654,152.165722,81.992239,-75.942102
52593,-9.591647,0.516827,-1.350301,0.192696,-0.045526,-0.114703,-0.132089,-0.121432,-0.029451,-0.095907,0.005173,-0.013565,1.000000,-0.000660,-0.000607,-0.000147,0.248483,-0.674405,0.325727,0.614276,151.915286,82.061899,-76.118316
52594,-9.913015,0.518326,-1.298812,0.155343,0.024759,0.197242,-0.109330,-0.118856,-0.020519,-0.099122,0.005186,-0.013050,1.000000,-0.000547,-0.000594,-0.000103,0.248352,-0.674175,0.325200,0.614861,151.648640,82.127858,-76.324329
52595,-10.082790,0.584023,-1.261326,0.084500,0.020778,0.365087,-0.121592,-0.123575,-0.040405,-0.100819,0.005853,-0.012679,1.000000,-0.000608,-0.000618,-0.000202,0.248244,-0.673977,0.324562,0.615458,151.432548,82.201372,-76.471888
52596,-10.003793,0.393744,-1.202618,0.197261,0.167665,0.267499,-0.108154,-0.144181,-0.052892,-0.100028,0.003957,-0.012100,1.000000,-0.000541,-0.000721,-0.000264,0.248259,-0.673719,0.323897,0.616085,151.228051,82.288857,-76.616013
52597,-9.847112,0.161898,-1.133813,0.336062,0.338736,0.089315,-0.075664,-0.145561,-0.054094,-0.098462,0.001641,-0.011410,1.000000,-0.000378,-0.000728,-0.000270,0.248383,-0.673418,0.323327,0.616664,151.036986,82.377044,-76.764812
52598,-9.855868,0.206203,-1.291862,0.416381,0.180779,0.119255,-0.058842,-0.145784,-0.052286,-0.098549,0.002084,-0.012991,1.000000,-0.000294,-0.000729,-0.000261,0.248563,-0.673091,0.322815,0.617216,150.846172,82.464904,-76.923520
52599,-9.715507,0.420478,-1.192914,0.203555,0.078055,-0.017619,0.001163,-0.166125,-0.045094,-0.097144,0.004227,-0.012010,1.000000,0.000006,-0.000831,-0.000225,0.248951,-0.672615,0.322485,0.617751,150.612767,82.560706,-77.159358
52600,-9.660931,0.899052,-1.088868,-0.211114,-0.185730,-0.053157,0.024117,-0.143156,-0.029294,-0.096600,0.009006,-0.010957,1.000000,0.000121,-0.000716,-0.000146,0.249338,-0.672153,0.322312,0.618187,150.378399,82.640737,-77.410477
52601,-9.609603,1.165747,-0.921534,-0.511124,-0.259616,-0.105783,-0.006765,-0.149020,-0.026337,-0.096088,0.011670,-0.009287,1.000000,-0.000034,-0.000745,-0.000132,0.249614,-0.671709,0.322042,0.618699,150.093824,82.722429,-77.693236
52602,-9.557831,1.153716,-0.816109,-0.562942,-0.192432,-0.169281,-0.058442,-0.131662,-0.031178,-0.095571,0.011550,-0.008227,1.000000,-0.000292,-0.000658,-0.000156,0.249713,-0.671387,0.321623,0.619226,149.833824,82.797026,-77.922769
52603,-9.700617,1.062263,-0.978989,-0.382260,-0.242739,-0.015558,-0.121569,-0.083551,-0.024168,-0.097001,0.010628,-0.009837,1.000000,-0.000608,-0.000418,-0.000121,0.249491,-0.671285,0.321087,0.619705,149.613803,82.845371,-78.074079
52604,-9.663009,1.199345,-1.152538,-0.358064,-0.474044,-0.025575,-0.184391,-0.098898,-0.013066,-0.096624,0.011989,-0.011584,0.999999,-0.000922,-0.000494,-0.000065,0.249049,-0.671195,0.320372,0.620349,149.276805,82.898023,-78.307025
52605,-9.151429,1.440897,-0.841787,-0.721764,-0.477086,-0.550675,-0.166395,-0.102070,0.038663,-0.091513,0.014384,-0.008477,1.000000,-0.000832,-0.000510,0.000193,0.248511,-0.670989,0.319884,0.621039,148.731821,82.936684,-78.759883
52606,-9.314165,1.925943,-0.644743,-1.203375,-0.640653,-0.377643,-0.119998,-0.051232,0.106311,-0.093150,0.019206,-0.006483,1.000000,-0.000600,-0.000256,0.000532,0.247837,-0.670776,0.319829,0.621568,148.067292,82.929684,-79.360005
52607,-9.755125,2.802666,-0.878414,-1.684015,-1.344430,0.144500,-0.225591,-0.058008,0.159941,-0.097571,0.027939,-0.008844,0.999999,-0.001128,-0.000290,0.000800,0.246653,-0.670584,0.319617,0.622354,147.117396,82.908402,-80.186708
52608,-9.280803,3.351416,-0.214658,-2.499535,-1.285643,-0.351677,-0.456901,-0.067665,0.245783,-0.092848,0.033395,-0.002254,0.999997,-0.002285,-0.000338,0.001229,0.244441,-0.670508,0.318960,0.623644,145.690669,82.862430,-81.360460
52609,-9.374479,2.828701,-0.379938,-1.973074,-1.033153,-0.269824,-0.766644,0.087133,0.296475,-0.093788,0.028133,-0.003867,0.999991,-0.003833,0.000436,0.001482,0.240781,-0.671204,0.317692,0.624965,144.324010,82.723581,-82.295003
52610,-10.476272,2.376655,-1.408202,-0.921197,-1.305952,0.903165,-0.779365,0.116259,0.355073,-0.104813,0.023526,-0.014113,0.999991,-0.003897,0.000581,0.001775,0.236846,-0.671901,0.316611,0.626267,142.864488,82.548524,-83.316158
52611,-10.544091,2.703043,-1.918309,-0.760720,-1.852517,1.057151,-0.799341,0.134498,0.412109,-0.105509,0.026736,-0.019219,0.999990,-0.003997,0.000672,0.002061,0.232631,-0.672575,0.315674,0.627595,141.308361,82.341755,-84.423664
52612,-10.557761,2.673070,-1.496520,-0.983205,-1.489932,1.034626,-0.820353,0.154063,0.510073,-0.105657,0.026400,-0.014993,0.999988,-0.004102,0.000770,0.002550,0.228001,-0.673166,0.315016,0.628990,139.552939,82.086408,-85.720744
52613,-10.625177,2.437257,-1.493746,-0.764108,-1.264373,1.090655,-0.835008,0.179749,0.600787,-0.106338,0.023991,-0.014943,0.999986,-0.004175,0.000899,0.003004,0.222991,-0.673693,0.314639,0.630408,137.685564,81.780282,-87.123322
52614,-10.483196,2.435526,-1.730635,-0.535924,-1.388751,0.985822,-0.841891,0.209202,0.674001,-0.104931,0.023929,-0.017298,0.999985,-0.004209,0.001046,0.003370,0.217673,-0.674186,0.314511,0.631802,135.809006,81.426748,-88.532318
52615,-10.269797,1.894785,-1.887905,0.013934,-1.076190,0.744964,-0.815187,0.262377,0.748899,-0.102792,0.018486,-0.018820,0.999984,-0.004076,0.001312,0.003744,0.212119,-0.674680,0.314767,0.633036,134.026944,81.015030,-89.862643
52616,-10.334701,1.426070,-2.282918,0.680560,-0.919498,0.805310,-0.727833,0.298323,0.826195,-0.103438,0.013751,-0.022726,0.999984,-0.003639,0.001492,0.004131,0.206553,-0.675048,0.315591,0.634072,132.340607,80.550832,-91.148651
52617,-10.070820,1.214741,-2.458445,1.008351,-0.839215,0.541971,-0.487066,0.291740,0.904506,-0.100797,0.011632,-0.024466,0.999986,-0.002435,0.001459,0.004523,0.201554,-0.675005,0.317423,0.634812,130.744994,80.049980,-92.484025
52618,-9.678182,1.233653,-2.339003,0.958304,-0.747050,0.146364,-0.212315,0.291322,0.980908,-0.096875,0.011837,-0.023262,0.999986,-0.001062,0.001457,0.004905,0.197233,-0.674543,0.320377,0.635177,129.292216,79.509762,-93.836296
52619,-9.632144,1.334757,-2.300966,0.912299,-0.708795,0.112966,-0.003523,0.270448,1.055460,-0.096421,0.012839,-0.022880,0.999985,-0.000018,0.001352,0.005277,0.193409,-0.673670,0.324214,0.635332,127.910796,78.938035,-95.240191
52620,-9.130362,1.522718,-1.963725,0.580328,-0.619540,-0.388416,0.179310,0.233348,1.115897,-0.091410,0.014735,-0.019517,0.999983,0.000897,0.001167,0.005579,0.190061,-0.672383,0.328790,0.635354,126.585719,78.345362,-96.696185
52621,-8.876764,1.640354,-1.654559,0.319032,-0.453759,-0.652083,0.292353,0.246998,1.172093,-0.088882,0.015907,-0.016412,0.999981,0.001462,0.001235,0.005860,0.186887,-0.670915,0.333915,0.635175,125.402213,77.716112,-98.076950
52622,-8.971226,2.352283,-1.853651,0.029675,-0.974352,-0.405199,0.299774,0.254347,1.222903,-0.089877,0.023001,-0.018388,0.999979,0.001499,0.001272,0.006114,0.183555,-0.669352,0.339228,0.634980,124.292087,77.054745,-99.390194
52623,-8.646022,2.791324,-1.215807,-0.694196,-0.821915,-0.709675,0.358302,0.220052,1.253321,-0.086646,0.027392,-0.012013,0.999978,0.001791,0.001100,0.006267,0.180374,-0.667546,0.344781,0.634802,123.224851,76.384694,-100.697414
52624,-8.381238,3.026136,-0.812797,-1.104636,-0.671536,-0.958820,0.279513,0.231803,1.288971,-0.084014,0.029732,-0.007989,0.999978,0.001398,0.001159,0.006445,0.176787,-0.665757,0.350200,0.634724,122.205001,75.688216,-101.912985
52625,-8.366560,3.250485,-0.808393,-1.205560,-0.724597,-0.911065,0.197692,0.223868,1.314408,-0.083886,0.031962,-0.007958,0.999977,0.000988,0.001119,0.006572,0.172854,-0.663940,0.355419,0.634809,121.200131,74.976904,-103.068515
52626,-8.102382,3.500331,-0.507411,-1.549031,-0.656219,-1.133571,0.103770,0.218439,1.330747,-0.081260,0.034466,-0.004967,0.999977,0.000519,0.001092,0.006654,0.168558,-0.662127,0.360375,0.635064,120.214094,74.253881,-104.152492
52627,-8.113145,3.410588,-0.451962,-1.461038,-0.454162,-1.134128,-0.030662,0.227638,1.350409,-0.081364,0.033556,-0.004432,0.999977,-0.000153,0.001138,0.006752,0.163731,-0.660390,0.364959,0.635517,119.240181,73.513930,-105.147681
52628,-8.121986,3.422026,-0.632347,-1.267966,-0.483325,-1.081468,-0.175450,0.221802,1.367937,-0.081458,0.033658,-0.006263,0.999976,-0.000877,0.001109,0.006840,0.158371,-0.658689,0.369119,0.636238,118.244479,72.761838,-106.082690
52629,-8.014609,3.258385,-0.600458,-1.112644,-0.284252,-1.216668,-0.240421,0.211669,1.389361,-0.080376,0.032019,-0.005958,0.999975,-0.001202,0.001058,0.006947,0.152742,-0.656934,0.373115,0.637097,117.259295,71.997320,-106.971561
52630,-8.147075,2.936378,-0.743267,-0.699726,-0.027104,-1.149089,-0.285687,0.211711,1.410550,-0.081683,0.028778,-0.007388,0.999974,-0.001428,0.001059,0.007053,0.146886,-0.655140,0.377019,0.638022,116.308637,71.217187,-107.800503
52631,-8.327285,2.798350,-1.067581,-0.272240,0.002573,-0.967427,-0.304682,0.208468,1.436974,-0.083482,0.027368,-0.010631,0.999972,-0.001523,0.001042,0.007185,0.140884,-0.653264,0.380924,0.638979,115.394681,70.420421,-108.583066
52632,-8.601245,2.733235,-1.189493,-0.026148,0.155235,-0.711008,-0.252375,0.185517,1.453083,-0.086219,0.026691,-0.011849,0.999972,-0.001262,0.000928,0.007265,0.135035,-0.651211,0.385013,0.639887,114.533126,69.616614,-109.345546
52633,-8.742711,2.791454,-1.134091,-0.003081,0.306151,-0.570498,-0.169272,0.153994,1.466191,-0.087637,0.027263,-0.011297,0.999972,-0.000846,0.000770,0.007331,0.129471,-0.648939,0.389366,0.640710,113.728804,68.809970,-110.101848
52634,-8.858016,2.917952,-1.102243,-0.008983,0.389882,-0.429717,-0.119846,0.129663,1.463913,-0.088798,0.028523,-0.010982,0.999973,-0.000599,0.000648,0.007320,0.124111,-0.646526,0.393834,0.641480,112.978299,68.006156,-110.834749
52635,-8.909036,2.903258,-1.031179,0.043844,0.571824,-0.403507,-0.071041,0.116028,1.452909,-0.089304,0.028381,-0.010270,0.999973,-0.000355,0.000580,0.007264,0.118967,-0.644025,0.398392,0.642155,112.295553,67.208188,-111.528871
52636,-9.107468,3.267151,-1.133360,-0.006598,0.445169,-0.081043,-0.037356,0.099407,1.440559,-0.091312,0.032012,-0.011294,0.999974,-0.000187,0.000497,0.007203,0.113996,-0.641440,0.402988,0.642775,111.663476,66.417055,-112.192822
52637,-9.254768,3.904731,-0.967268,-0.437455,0.305586,0.264356,-0.054662,0.077241,1.418346,-0.092825,0.038387,-0.009647,0.999975,-0.000273,0.000386,0.007092,0.109082,-0.638806,0.407423,0.643455,111.047143,65.639910,-112.832775
52638,-9.169524,4.324314,-0.565623,-0.929056,0.377051,0.291413,-0.131116,0.067382,1.375192,-0.091992,0.042608,-0.005653,0.999976,-0.000656,0.000337,0.006876,0.104075,-0.636238,0.411449,0.644267,110.433065,64.884844,-113.425801
52639,-9.347918,4.065156,-0.703409,-0.533505,0.624093,0.372016,-0.227091,0.086368,1.323100,-0.093748,0.040024,-0.007039,0.999977,-0.001135,0.000432,0.006615,0.098888,-0.633858,0.414990,0.645158,109.841648,64.151788,-113.936530
52640,-9.542924,3.687949,-1.015803,0.072209,0.833517,0.434202,-0.346489,0.071519,1.279566,-0.095666,0.036250,-0.010187,0.999978,-0.001732,0.000358,0.006398,0.093488,-0.631550,0.417982,0.646294,109.212792,63.442495,-114.415762
52641,-9.546688,3.843887,-0.967046,0.031819,0.860932,0.488102,-0.376161,0.041237,1.230489,-0.095703,0.037832,-0.009722,0.999979,-0.001881,0.000206,0.006152,0.088214,-0.629234,0.420691,0.647536,108.580889,62.763433,-114.882364
52642,-9.434561,4.224526,-1.073389,-0.059908,0.591556,0.562999,-0.426029,0.032451,1.174764,-0.094593,0.041667,-0.010808,0.999980,-0.002130,0.000162,0.005874,0.082977,-0.627002,0.423042,0.648859,107.956282,62.113731,-115.311203
52643,-9.444428,4.231822,-1.087126,0.042763,0.663352,0.572123,-0.460172,0.016100,1.116296,-0.094679,0.041765,-0.010960,0.999982,-0.002301,0.000081,0.005581,0.077855,-0.624832,0.425076,0.650257,107.337732,61.496943,-115.713586
52644,-9.661709,4.082324,-1.381096,0.496049,0.735174,0.729309,-0.516432,0.001281,1.051712,-0.096830,0.040279,-0.013915,0.999983,-0.002582,0.000006,0.005259,0.072795,-0.622750,0.426704,0.651772,106.712682,60.915754,-116.088803
52645,-9.712426,3.988888,-1.319624,0.611907,0.925247,0.711205,-0.503486,-0.035264,0.983034,-0.097316,0.039377,-0.013313,0.999985,-0.002517,-0.000176,0.004915,0.068076,-0.620670,0.428133,0.653327,106.097913,60.376549,-116.462873
52646,-9.594282,3.663850,-1.261861,0.832127,1.175271,0.433860,-0.501314,-0.061966,0.919715,-0.096106,0.036165,-0.012739,0.999986,-0.002507,-0.000310,0.004599,0.063624,-0.618620,0.429351,0.654920,105.492670,59.874287,-116.829251
52647,-9.474108,3.713482,-1.570962,1.091483,0.948485,0.381666,-0.482365,-0.075320,0.863134,-0.094894,0.036687,-0.015834,0.999988,-0.002412,-0.000377,0.004316,0.059445,-0.616625,0.430440,0.656477,104.915327,59.403669,-117.177767
52648,-9.315787,3.925107,-1.586385,1.017089,0.786222,0.338848,-0.407586,-0.107765,0.805207,-0.093306,0.038843,-0.015994,0.999990,-0.002038,-0.000539,0.004026,0.055754,-0.614611,0.431577,0.657941,104.377733,58.968012,-117.531462
52649,-9.162262,3.938105,-1.319472,0.843337,0.923285,0.168921,-0.344291,-0.117518,0.745144,-0.091761,0.039016,-0.013316,0.999991,-0.001721,-0.000588,0.003726,0.052476,-0.612666,0.432725,0.659269,103.892820,58.565651,-117.867579
52650,-8.984426,3.829941,-1.325496,0.936982,0.944497,-0.046683,-0.332034,-0.129481,0.683885,-0.089966,0.037970,-0.013376,0.999993,-0.001660,-0.000647,0.003419,0.049461,-0.610800,0.433717,0.660581,103.427267,58.197467,-118.190550
52651,-8.866163,3.821073,-1.273788,0.936244,0.962668,-0.167569,-0.317839,-0.136146,0.632705,-0.088773,0.037910,-0.012859,0.999994,-0.001589,-0.000681,0.003164,0.046674,-0.609011,0.434591,0.661859,102.983133,57.857488,-118.499143
52652,-8.517767,3.896872,-1.192711,0.799293,0.834921,-0.441228,-0.284300,-0.142603,0.589498,-0.085283,0.038700,-0.012043,0.999994,-0.001421,-0.000713,0.002947,0.044145,-0.607279,0.435438,0.663067,102.568490,57.541184,-118.796669
52653,-8.228228,4.021123,-1.268266,0.762618,0.602260,-0.618281,-0.252234,-0.127674,0.550901,-0.082384,0.039968,-0.012786,0.999995,-0.001261,-0.000638,0.002755,0.041808,-0.605667,0.436272,0.664143,102.199062,57.243636,-119.063370
52654,-8.129756,4.020947,-1.025216,0.598414,0.735432,-0.734536,-0.226593,-0.106774,0.520501,-0.081396,0.039986,-0.010341,0.999996,-0.001133,-0.000534,0.002603,0.039604,-0.604180,0.437100,0.665088,101.873330,56.959726,-119.296388
52655,-7.939413,3.982367,-1.030015,0.617583,0.691323,-0.919154,-0.213533,-0.084105,0.496310,-0.079488,0.039615,-0.010376,0.999996,-0.001068,-0.000421,0.002482,0.037470,-0.602814,0.437899,0.665925,101.583249,56.686105,-119.496500
52656,-7.947789,4.094928,-1.009958,0.579329,0.664670,-0.858458,-0.182359,-0.056021,0.475992,-0.079572,0.040751,-0.010159,0.999997,-0.000912,-0.000280,0.002380,0.035436,-0.601576,0.438742,0.666601,101.342050,56.420189,-119.660057
52657,-7.935990,4.241619,-1.028007,0.543303,0.583905,-0.790948,-0.181412,-0.048046,0.461594,-0.079455,0.042224,-0.010338,0.999997,-0.000907,-0.000240,0.002308,0.033435,-0.600391,0.439544,0.667243,101.113493,56.161109,-119.809567
52658,-8.322521,3.778996,-1.138522,1.036213,1.010310,-0.716161,-0.175410,-0.027849,0.439924,-0.083306,0.037597,-0.011430,0.999997,-0.000877,-0.000139,0.002200,0.031480,-0.599317,0.440301,0.667805,100.911416,55.911723,-119.931754
52659,-8.807784,4.119015,-0.848134,0.788163,1.246116,-0.164448,-0.048396,-0.083652,0.422465,-0.088161,0.041002,-0.008528,0.999998,-0.000242,-0.000418,0.002112,0.030087,-0.598072,0.441419,0.668247,100.740764,55.677921,-120.104273
52660,-8.071307,5.533047,-0.339708,-0.581402,0.368431,-0.045288,-0.046765,-0.135491,0.396011,-0.080820,0.055170,-0.003465,0.999998,-0.000234,-0.000677,0.001980,0.028902,-0.596709,0.442454,0.668834,100.534891,55.464258,-120.321117
52661,-7.706855,5.703030,-0.504370,-0.617633,0.002447,-0.231824,-0.227179,-0.091078,0.360339,-0.077169,0.056886,-0.005143,0.999998,-0.001136,-0.000455,0.001802,0.027198,-0.595596,0.442783,0.669679,100.269836,55.265523,-120.484764
52662,-8.113161,4.808524,-0.702430,0.196282,0.634317,-0.378830,-0.343012,-0.068152,0.334922,-0.081210,0.047937,-0.007134,0.999997,-0.001715,-0.000341,0.001675,0.025185,-0.594629,0.442649,0.670705,99.963063,55.078429,-120.618784
52663,-8.375336,4.435749,-0.736361,0.546654,0.980110,-0.373155,-0.331522,-0.089326,0.318087,-0.083820,0.044212,-0.007474,0.999997,-0.001658,-0.000447,0.001590,0.023308,-0.593623,0.442498,0.671762,99.650343,54.902421,-120.768381
52664,-8.849247,4.335414,-0.686675,0.741887,1.315405,-0.050736,-0.294125,-0.131836,0.289953,-0.088551,0.043216,-0.006989,0.999998,-0.001471,-0.000659,0.001450,0.021731,-0.592529,0.442382,0.672856,99.330858,54.745962,-120.952800
52665,-8.939596,5.558655,0.051609,-0.442962,1.080394,0.649343,-0.180932,-0.223272,0.250639,-0.089466,0.055475,0.000366,0.999998,-0.000905,-0.001116,0.001253,0.020824,-0.591200,0.442518,0.673963,99.010330,54.619395,-121.218274
52666,-8.100411,6.914986,0.207367,-1.521109,-0.065258,0.730485,-0.300782,-0.232442,0.193452,-0.081073,0.069074,0.001876,0.999998,-0.001504,-0.001162,0.000967,0.019776,-0.589976,0.442079,0.675354,98.622838,54.525208,-121.482051
52667,-7.949439,6.353723,-0.041017,-1.020187,0.035068,0.312669,-0.480084,-0.197766,0.144151,-0.079540,0.063479,-0.000641,0.999996,-0.002400,-0.000989,0.000721,0.018288,-0.588992,0.440889,0.677030,98.167611,54.454802,-121.703073
52668,-7.963058,5.292110,-0.513592,-0.022278,0.380153,-0.245280,-0.667627,-0.160251,0.120406,-0.079658,0.052855,-0.005376,0.999994,-0.003338,-0.000801,0.000602,0.016246,-0.588199,0.438994,0.679001,97.638488,54.393933,-121.883026
52669,-8.328694,5.341680,-0.189486,-0.144478,0.711106,0.056955,-0.593956,-0.182312,0.113114,-0.083315,0.053364,-0.002129,0.999995,-0.002970,-0.000912,0.000566,0.014493,-0.587335,0.437321,0.680866,97.136033,54.337776,-122.082224
52670,-7.642273,6.794238,0.470105,-1.604614,-0.143638,0.296286,-0.591090,-0.186116,0.079714,-0.076454,0.067925,0.004429,0.999995,-0.002955,-0.000931,0.000399,0.012871,-0.586524,0.435555,0.682727,96.636241,54.299998,-122.280290
52671,-7.354899,7.081363,0.110827,-1.508909,-0.716570,0.260138,-0.846801,-0.151959,0.035068,-0.073562,0.070804,0.000753,0.999991,-0.004234,-0.000760,0.000175,0.010576,-0.585936,0.432781,0.685031,96.021733,54.284235,-122.439258
52672,-7.177639,6.027764,-0.689997,-0.319678,-0.668673,-0.443653,-1.083635,-0.060369,-0.000675,-0.071774,0.060239,-0.007248,0.999985,-0.005418,-0.000302,-0.000003,0.007512,-0.585736,0.429085,0.687563,95.347075,54.282697,-122.505178
52673,-7.668718,4.578656,-1.641193,1.392747,-0.109179,-0.839676,-1.073187,-0.016390,-0.006943,-0.076684,0.045700,-0.016664,0.999986,-0.005366,-0.000082,-0.000035,0.004404,-0.585685,0.425396,0.689922,94.713979,54.282002,-122.527300
52674,-7.654680,3.724454,-1.688973,1.899380,0.386461,-1.353301,-0.799027,-0.027283,0.010319,-0.076546,0.037173,-0.017049,0.999992,-0.003995,-0.000136,0.000052,0.002064,-0.585539,0.422694,0.691715,94.228098,54.271893,-122.561567
52675,-7.716039,3.617452,-1.621751,1.944782,0.518137,-1.374524,-0.487006,-0.012192,0.019097,-0.077163,0.036128,-0.016310,0.999997,-0.002435,-0.000061,0.000095,0.000574,-0.585418,0.421092,0.692797,93.932749,54.255931,-122.581366
52676,-8.147458,3.855205,-1.485199,1.868735,0.653198,-0.894692,-0.167621,-0.054747,0.025405,-0.081475,0.038529,-0.014907,1.000000,-0.000838,-0.000274,0.000127,0.000088,-0.585133,0.420613,0.693328,93.786290,54.238095,-122.643215
52677,-7.869361,4.600742,-0.985664,1.018061,0.323583,-0.706423,0.015098,-0.084090,0.022839,-0.078695,0.045999,-0.009886,1.000000,0.000075,-0.000420,0.000114,0.000206,-0.584751,0.420760,0.693561,93.721518,54.222624,-122.733406
52678,-8.256075,4.860933,-0.711576,0.794891,0.504681,-0.251765,0.098906,-0.086494,0.019078,-0.082562,0.048605,-0.007127,1.000000,0.000495,-0.000432,0.000095,0.000589,-0.584369,0.421186,0.693624,93.703089,54.209532,-122.825724
52679,-8.255399,5.827396,-0.137247,-0.143914,0.216368,0.289860,0.135562,-0.124164,0.006464,-0.082555,0.058272,-0.001384,1.000000,0.000678,-0.000621,0.000032,0.001200,-0.583883,0.421703,0.693719,93.676483,54.204843,-122.953980
52680,-7.803388,6.709197,0.491276,-1.227500,-0.207652,0.414612,0.031394,-0.116038,-0.018013,-0.078031,0.067098,0.004878,1.000000,0.000157,-0.000580,-0.000090,0.001577,-0.583476,0.421786,0.694010,93.597858,54.213979,-123.072834
52681,-7.845319,6.835615,0.274401,-1.090279,-0.407121,0.531174,-0.257786,-0.069276,-0.053070,-0.078436,0.068380,0.002629,0.999999,-0.001289,-0.000346,-0.000265,0.001131,-0.583307,0.420764,0.694773,93.392279,54.241165,-123.143871
52682,-7.853380,6.323993,-0.252293,-0.389456,-0.401989,0.258000,-0.460715,-0.041365,-0.070549,-0.078511,0.063262,-0.002685,0.999997,-0.002304,-0.000207,-0.000353,0.000097,-0.583271,0.418983,0.695879,93.093108,54.277423,-123.186969
52683,-7.993996,5.203975,-0.664602,0.559991,0.131766,-0.268264,-0.497951,-0.020509,-0.073081,-0.079920,0.052052,-0.006784,0.999997,-0.002490,-0.000103,-0.000365,-0.001082,-0.583309,0.417064,0.696998,92.789063,54.314223,-123.209747
52684,-8.429940,4.655629,-0.740206,1.045312,0.640945,-0.232335,-0.371778,-0.051204,-0.064588,-0.084282,0.046570,-0.007510,0.999998,-0.001859,-0.000256,-0.000323,-0.001857,-0.583221,0.415607,0.697940,92.532190,54.347071,-123.263467
52685,-8.275226,4.864602,-0.648486,0.835170,0.466816,-0.239349,-0.203078,-0.108869,-0.058140,-0.082735,0.048663,-0.006579,0.999999,-0.001015,-0.000544,-0.000291,-0.002045,-0.582917,0.414758,0.698698,92.325533,54.377343,-123.374279
52686,-8.161302,5.581672,-0.676483,0.489627,-0.089217,0.085384,-0.108440,-0.136667,-0.053071,-0.081594,0.055835,-0.006851,1.000000,-0.000542,-0.000683,-0.000265,-0.001915,-0.582507,0.414253,0.699340,92.150455,54.405312,-123.512948
52687,-7.618538,6.026021,-0.421834,-0.094381,-0.510773,-0.103765,-0.096033,-0.133390,-0.053078,-0.076167,0.060278,-0.004298,1.000000,-0.000480,-0.000667,-0.000265,-0.001757,-0.582108,0.413792,0.699946,91.984904,54.432785,-123.648550
52688,-7.580970,5.308147,-0.655695,0.438126,-0.203842,-0.547487,-0.144237,-0.064809,-0.060542,-0.075791,0.053100,-0.006620,1.000000,-0.000721,-0.000324,-0.000303,-0.001853,-0.581963,0.413139,0.700451,91.846661,54.463196,-123.716641
52689,-8.035951,5.414641,-0.625118,0.515617,-0.046350,-0.116420,-0.079489,-0.055357,-0.057915,-0.080342,0.054167,-0.006295,1.000000,-0.000397,-0.000277,-0.000290,-0.001792,-0.581847,0.412720,0.700795,91.752892,54.491665,-123.775595
52690,-7.780256,5.881693,0.033489,-0.324397,-0.106199,-0.065313,0.002302,-0.075050,-0.054519,-0.077787,0.058838,0.000306,1.000000,0.000012,-0.000375,-0.000273,-0.001462,-0.581655,0.412598,0.701027,91.690007,54.518673,-123.854209
52691,-7.971954,6.113130,-0.192709,-0.184899,-0.305022,0.228842,-0.058799,-0.057901,-0.060483,-0.079700,0.061155,-0.001968,1.000000,-0.000294,-0.000290,-0.000302,-0.001326,-0.581534,0.412244,0.701335,91.605901,54.548565,-123.915812
52692,-7.644915,6.307239,-0.203054,-0.369409,-0.606940,0.074798,-0.113676,-0.062031,-0.066633,-0.076427,0.063097,-0.002090,1.000000,-0.000568,-0.000310,-0.000333,-0.001318,-0.581412,0.411679,0.701768,91.487044,54.582159,-123.981503
52693,-7.587894,5.674224,-0.459357,0.129962,-0.374234,-0.334977,-0.163760,-0.010317,-0.062726,-0.075861,0.056762,-0.004644,1.000000,-0.000819,-0.000052,-0.000314,-0.001578,-0.581462,0.410950,0.702153,91.380919,54.612519,-123.996292
52694,-7.848044,5.485338,-0.533366,0.369623,-0.174771,-0.231558,-0.120433,0.003023,-0.043997,-0.078468,0.054867,-0.005366,1.000000,-0.000602,0.000015,-0.000220,-0.001803,-0.581521,0.410427,0.702410,91.309973,54.632121,-123.998425
52695,-7.640103,5.715978,-0.507567,0.175258,-0.418096,-0.268281,-0.089672,0.005523,-0.035627,-0.076391,0.057171,-0.005099,1.000000,-0.000448,0.000028,-0.000178,-0.001974,-0.581570,0.410036,0.702597,91.258461,54.646732,-123.998289
52696,-7.858798,5.709487,-0.439431,0.195676,-0.273540,-0.094718,-0.062424,0.012905,-0.026015,-0.078581,0.057104,-0.004407,1.000000,-0.000312,0.000065,-0.000130,-0.002114,-0.581627,0.409769,0.702705,91.228390,54.655904,-123.991060
52697,-7.796827,5.512048,-0.395752,0.235032,-0.149377,-0.260082,-0.028882,-0.002691,-0.016976,-0.077964,0.055127,-0.003967,1.000000,-0.000144,-0.000013,-0.000085,-0.002158,-0.581611,0.409646,0.702791,91.204730,54.659932,-123.999480
52698,-7.755656,5.547133,-0.418655,0.224359,-0.206095,-0.273120,0.025936,-0.001175,-0.005718,-0.077555,0.055474,-0.004180,1.000000,0.000130,-0.000006,-0.000029,-0.002083,-0.581578,0.409748,0.702759,91.213577,54.657648,-124.006609
52699,-7.572395,5.794501,-0.091048,-0.221616,-0.268858,-0.283559,0.048542,0.006377,-0.000466,-0.075724,0.057945,-0.000894,1.000000,0.000243,0.000032,-0.000002,-0.001978,-0.581560,0.409945,0.702659,91.241318,54.652108,-124.006398
52700,-7.635696,5.662343,-0.234206,-0.022824,-0.230339,-0.306517,0.008515,0.035022,0.006047,-0.076359,0.056621,-0.002326,1.000000,0.000043,0.000175,0.000030,-0.002070,-0.581629,0.410020,0.702557,91.269211,54.642626,-123.977937
52701,-7.705078,5.862625,-0.079892,-0.223366,-0.238135,-0.135994,0.029950,0.033361,0.010480,-0.077054,0.058622,-0.000777,1.000000,0.000150,0.000167,0.000052,-0.002113,-0.581684,0.410183,0.702417,91.307871,54.630468,-123.951274
52702,-7.890789,5.581446,-0.112246,-0.005654,0.023003,-0.146813,0.001259,0.058962,0.011063,-0.078911,0.055810,-0.001099,1.000000,0.000006,0.000295,0.000055,-0.002292,-0.581827,0.410247,0.702261,91.350790,54.617763,-123.899276
52703,-8.139898,5.596186,-0.034006,0.001295,0.182853,0.063696,0.055003,0.036059,0.024392,-0.081406,0.055952,-0.000310,1.000000,0.000275,0.000180,0.000122,-0.002317,-0.581862,0.410538,0.702061,91.405660,54.597576,-123.870327
52704,-7.969225,5.799529,0.064344,-0.232619,0.027869,0.040857,0.045256,0.019808,0.026002,-0.079700,0.057985,0.000664,1.000000,0.000226,0.000099,0.000130,-0.002340,-0.581838,0.410800,0.701928,91.441855,54.576825,-123.857485
52705,-7.896883,5.957064,0.070525,-0.335041,-0.103786,0.073127,-0.018402,0.014776,0.028931,-0.078977,0.059559,0.000706,1.000000,-0.000092,0.000074,0.000145,-0.002550,-0.581789,0.410848,0.701940,91.437376,54.554326,-123.849743
52706,-7.642830,5.903549,0.032218,-0.356078,-0.211620,-0.164154,-0.103809,0.016424,0.019262,-0.076434,0.059028,0.000298,1.000000,-0.000519,0.000082,0.000096,-0.002977,-0.581764,0.410567,0.702123,91.385552,54.537477,-123.840097
52707,-7.572184,5.530025,0.069714,-0.227362,0.023228,-0.438693,-0.119698,0.044905,0.023192,-0.075728,0.055292,0.000681,1.000000,-0.000598,0.000225,0.000116,-0.003524,-0.581830,0.410241,0.702256,91.347395,54.517859,-123.802438
52708,-7.596901,5.443457,-0.319143,0.146542,-0.129846,-0.463482,-0.167982,0.043294,0.027892,-0.075977,0.054421,-0.003221,1.000000,-0.000840,0.000216,0.000139,-0.004223,-0.581881,0.409759,0.702491,91.280243,54.495715,-123.766447
52709,-7.432921,5.497909,-0.300201,0.059182,-0.234083,-0.565680,-0.135826,0.047001,0.030118,-0.074338,0.054966,-0.003022,1.000000,-0.000679,0.000235,0.000151,-0.004845,-0.581940,0.409397,0.702650,91.234409,54.472145,-123.726848
52710,-7.574890,5.156757,-0.503831,0.437705,-0.052601,-0.645867,-0.119467,0.065822,0.039497,-0.075761,0.051550,-0.005044,1.000000,-0.000597,0.000329,0.000197,-0.005489,-0.582046,0.409118,0.702720,91.212927,54.443107,-123.668872
52711,-7.619353,5.333860,-0.343865,0.241071,-0.053414,-0.508824,-0.017501,0.030141,0.056760,-0.076209,0.053317,-0.003432,1.000000,-0.000088,0.000151,0.000284,-0.005826,-0.581993,0.409249,0.702684,91.220885,54.404497,-123.646460
52712,-7.500149,5.540329,-0.179976,-0.026313,-0.148999,-0.487615,0.020714,0.018890,0.065459,-0.075020,0.055379,-0.001787,1.000000,0.000104,0.000094,0.000327,-0.006058,-0.581885,0.409539,0.702603,91.241631,54.361165,-123.635290
52713,-7.645411,5.735001,-0.212344,-0.041916,-0.218527,-0.255590,0.038983,0.021503,0.074525,-0.076476,0.057322,-0.002104,1.000000,0.000195,0.000108,0.000373,-0.006275,-0.581768,0.409921,0.702476,91.274648,54.312478,-123.621843
52714,-7.774912,5.957042,0.032475,-0.303013,-0.154614,-0.023871,0.067264,-0.005204,0.090519,-0.077776,0.059535,0.000343,1.000000,0.000336,-0.000026,0.000453,-0.006411,-0.581525,0.410448,0.702368,91.302332,54.255089,-123.634963
52715,-7.706728,6.167847,0.256674,-0.603666,-0.190727,0.041301,0.016831,-0.006927,0.094647,-0.077097,0.061642,0.002569,1.000000,0.000084,-0.000035,0.000473,-0.006704,-0.581265,0.410811,0.702368,91.299597,54.195240,-123.649919
52716,-7.859739,6.357061,0.249535,-0.629026,-0.238102,0.276793,-0.044744,-0.011743,0.097955,-0.078629,0.063533,0.002477,1.000000,-0.000224,-0.000059,0.000490,-0.007178,-0.580980,0.410966,0.702508,91.257830,54.133659,-123.669558
52717,-7.949951,6.571716,0.116122,-0.577650,-0.407964,0.478208,-0.171694,-0.001603,0.093882,-0.079530,0.065681,0.001104,1.000000,-0.000858,-0.000008,0.000469,-0.008028,-0.580733,0.410664,0.702880,91.151498,54.074170,-123.679081
52718,-8.081299,6.437130,0.149030,-0.482885,-0.234855,0.506125,-0.212115,0.003116,0.089080,-0.080842,0.064337,0.001423,0.999999,-0.001061,0.000016,0.000445,-0.008987,-0.580511,0.410205,0.703320,91.026034,54.017451,-123.683669
52719,-8.140107,6.362102,0.100493,-0.370207,-0.185184,0.510897,-0.282092,-0.000681,0.079444,-0.081426,0.063590,0.000915,0.999999,-0.001410,-0.000003,0.000397,-0.010109,-0.580290,0.409471,0.703914,90.857769,53.966200,-123.691573
52720,-8.274759,6.220083,0.019154,-0.173278,-0.074299,0.537475,-0.304838,0.004976,0.070922,-0.082770,0.062172,0.000099,0.999999,-0.001524,0.000025,0.000355,-0.011277,-0.580105,0.408631,0.704537,90.681268,53.919841,-123.693575
52721,-8.258761,6.068435,-0.163543,0.062625,-0.088439,0.436605,-0.333526,0.008695,0.058457,-0.082605,0.060657,-0.001733,0.999999,-0.001668,0.000043,0.000292,-0.012493,-0.579955,0.407653,0.705206,90.491528,53.880531,-123.691595
52722,-8.215566,5.689541,-0.367050,0.409175,0.024805,0.178962,-0.302483,0.003944,0.054405,-0.082171,0.056867,-0.003755,0.999999,-0.001512,0.000020,0.000272,-0.013594,-0.579797,0.406771,0.705824,90.316069,53.843628,-123.693979
52723,-8.239185,5.417816,-0.449894,0.624792,0.169808,0.037190,-0.225074,0.011619,0.056392,-0.082407,0.054150,-0.004555,0.999999,-0.001125,0.000058,0.000282,-0.014494,-0.579666,0.406168,0.706261,90.191072,53.805501,-123.688769
52724,-8.116025,5.412027,-0.472277,0.617568,0.101587,-0.066343,-0.140287,0.012767,0.059908,-0.081177,0.054093,-0.004756,1.000000,-0.000701,0.000064,0.000300,-0.015163,-0.579538,0.405873,0.706522,90.115685,53.765440,-123.682313
52725,-8.082254,5.440340,-0.589714,0.699126,0.004745,-0.077232,-0.039657,0.016937,0.068705,-0.080842,0.054374,-0.005901,1.000000,-0.000198,0.000085,0.000344,-0.015580,-0.579413,0.405959,0.706565,90.101180,53.720260,-123.671821
52726,-8.133625,5.681068,-0.262063,0.338104,0.058695,0.106047,0.102115,0.007138,0.072793,-0.081357,0.056782,-0.002589,1.000000,0.000511,0.000036,0.000364,-0.015580,-0.579258,0.406558,0.706349,90.160301,53.672839,-123.670800
52727,-8.059549,6.070562,-0.107636,0.009081,-0.141052,0.276894,0.144920,0.012499,0.083472,-0.080621,0.060673,-0.001027,1.000000,0.000725,0.000062,0.000417,-0.015505,-0.579101,0.407339,0.706029,90.247923,53.619197,-123.664800
52728,-8.024870,6.430755,0.185461,-0.410363,-0.221307,0.462046,0.186500,-0.010148,0.095227,-0.080279,0.064268,0.001910,0.999999,0.000932,-0.000051,0.000476,-0.015305,-0.578845,0.408301,0.705687,90.341698,53.558975,-123.680798
52729,-7.940767,6.773638,0.729350,-1.044103,-0.173295,0.596429,0.115305,-0.022010,0.099435,-0.079442,0.067693,0.007324,1.000000,0.000577,-0.000110,0.000497,-0.015302,-0.578531,0.409026,0.705525,90.385303,53.496303,-123.708425
52730,-7.693666,6.807592,0.803928,-1.196831,-0.267842,0.418537,-0.064340,-0.013552,0.078603,-0.076964,0.068048,0.008012,1.000000,-0.000322,-0.000068,0.000393,-0.015762,-0.578276,0.409055,0.705707,90.332740,53.445607,-123.727693
52731,-7.763627,6.417527,0.414195,-0.661648,-0.191541,0.244928,-0.260521,0.021706,0.060310,-0.077655,0.064157,0.004067,0.999999,-0.001303,0.000109,0.000302,-0.016797,-0.578166,0.408337,0.706189,90.195139,53.405208,-123.712862
52732,-7.802322,6.009503,0.012575,-0.112955,-0.130569,0.034173,-0.426644,0.032497,0.044106,-0.078036,0.060078,0.000010,0.999998,-0.002133,0.000162,0.000221,-0.018277,-0.578112,0.406982,0.706978,89.970878,53.374159,-123.687428
52733,-7.784168,5.799467,0.044055,-0.028818,0.009427,-0.105573,-0.473557,0.046969,0.048772,-0.077856,0.057977,0.000322,0.999997,-0.002368,0.000235,0.000244,-0.019939,-0.578093,0.405472,0.707816,89.731014,53.340473,-123.647909
52734,-7.876426,5.794385,0.274106,-0.169018,0.178984,-0.033756,-0.378054,0.099405,0.048053,-0.078777,0.057930,0.002671,0.999998,-0.001890,0.000497,0.000240,-0.021428,-0.578267,0.404290,0.708306,89.586344,53.307500,-123.557926
52735,-8.070885,5.532194,-0.102527,0.337731,0.243182,-0.036100,-0.297686,0.090939,0.039787,-0.080720,0.055304,-0.001071,0.999999,-0.001488,0.000455,0.000199,-0.022638,-0.578434,0.403369,0.708657,89.481157,53.279298,-123.476077
52736,-7.877766,4.919391,-0.639158,1.000160,0.267851,-0.560873,-0.192813,0.047855,0.057218,-0.078793,0.049165,-0.006420,0.999999,-0.000964,0.000239,0.000286,-0.023520,-0.578425,0.402874,0.708917,89.403121,53.240999,-123.435314
52737,-7.966609,5.186488,-0.632013,0.914556,0.140554,-0.330610,-0.039772,0.031381,0.066131,-0.079684,0.051837,-0.006318,1.000000,-0.000199,0.000157,0.000331,-0.023957,-0.578356,0.402949,0.708916,89.400185,53.197460,-123.410225
52738,-7.981101,5.976420,-0.104624,0.138606,-0.090595,0.157222,0.088664,-0.027282,0.076750,-0.079834,0.059734,-0.001031,1.000000,0.000443,-0.000136,0.000384,-0.023943,-0.578074,0.403517,0.708823,89.426053,53.147566,-123.441103
52739,-7.680171,6.170530,0.212216,-0.308127,-0.189546,0.034883,0.098065,-0.020690,0.096020,-0.076832,0.061667,0.002144,1.000000,0.000490,-0.000103,0.000480,-0.023983,-0.577777,0.404173,0.708691,89.462437,53.086603,-123.465557
52740,-7.846270,5.964084,0.148065,-0.105551,0.007351,0.043528,-0.016431,0.011491,0.098997,-0.078492,0.059602,0.001480,1.000000,-0.000082,0.000057,0.000495,-0.024429,-0.577575,0.404428,0.708695,89.457839,53.024182,-123.459259
52741,-7.970281,5.723492,-0.083516,0.240017,0.114479,-0.003508,-0.015483,0.023759,0.111835,-0.079735,0.057190,-0.000830,1.000000,-0.000077,0.000119,0.000559,-0.024943,-0.577389,0.404721,0.708661,89.463127,52.954402,-123.441223
52742,-7.947669,5.646663,-0.642782,0.739118,-0.138681,-0.071134,0.060408,0.018342,0.114510,-0.079510,0.056423,-0.006403,1.000000,0.000302,0.000092,0.000573,-0.025236,-0.577189,0.405292,0.708488,89.507794,52.883129,-123.428348
52743,-7.833830,5.858043,-0.628310,0.597513,-0.315173,-0.033938,0.187885,0.019826,0.124720,-0.078375,0.058537,-0.006220,0.999999,0.000939,0.000099,0.000624,-0.025201,-0.576988,0.406343,0.708050,89.626455,52.805929,-123.414226
52744,-7.519146,6.702357,0.156134,-0.534623,-0.589119,0.229752,0.280472,-0.001174,0.159756,-0.075245,0.066961,0.001655,0.999999,0.001402,-0.000006,0.000799,-0.024979,-0.576652,0.407825,0.707479,89.782300,52.708652,-123.420064
52745,-6.790184,7.566500,1.488097,-2.265249,-0.784070,0.178650,-0.011375,-0.002085,0.162818,-0.067964,0.075611,0.014876,1.000000,-0.000057,-0.000010,0.000814,-0.025609,-0.576270,0.408282,0.707505,89.770006,52.609544,-123.427023
52746,-6.969059,5.808321,1.934301,-1.801155,0.723615,-0.741961,-0.289202,-0.020963,0.061706,-0.069711,0.058090,0.019252,0.999999,-0.001446,-0.000105,0.000309,-0.026642,-0.575990,0.407468,0.708163,89.584255,52.568330,-123.451982
52747,-7.691099,5.078198,-1.577222,1.716748,-0.346694,-0.627848,-0.690570,0.208833,0.004404,-0.076929,0.050726,-0.015867,0.999993,-0.003453,0.001044,0.000022,-0.029097,-0.576583,0.405033,0.708980,89.340279,52.561095,-123.260636
52748,-8.031020,5.442072,-0.648185,0.912541,0.083440,-0.133128,-0.233311,-0.004399,0.046022,-0.080323,0.054395,-0.006547,0.999999,-0.001167,-0.000022,0.000230,-0.029949,-0.576399,0.404368,0.709475,89.199195,52.528885,-123.269680
52749,-7.081826,5.138275,-0.149533,0.320165,0.071329,-1.068039,-0.317940,0.025514,0.060928,-0.070834,0.051359,-0.001568,0.999999,-0.001590,0.000128,0.000305,-0.031158,-0.576276,0.403440,0.710050,89.032210,52.488351,-123.250240
52750,-7.969817,5.093202,-0.906039,1.278995,0.152291,-0.398838,0.013205,0.136789,0.058255,-0.079719,0.050909,-0.009003,1.000000,0.000066,0.000684,0.000291,-0.031627,-0.576605,0.403661,0.709637,89.137993,52.450421,-123.126115
52751,-8.028207,6.200531,0.286514,-0.183196,0.092030,0.333184,0.332458,0.004290,0.053896,-0.080299,0.061979,0.002970,0.999999,0.001662,0.000021,0.000269,-0.030894,-0.576521,0.405024,0.708960,89.327630,52.413729,-123.126876
52752,-7.509307,6.615836,0.809772,-0.979190,-0.156878,0.178873,0.056263,0.008590,0.056550,-0.075111,0.066135,0.008120,1.000000,0.000281,0.000043,0.000283,-0.030974,-0.576405,0.405413,0.708829,89.362246,52.375609,-123.123606
52753,-7.644552,6.673760,-0.009985,-0.266580,-0.562453,0.316031,-0.043613,0.042254,0.035798,-0.076457,0.066724,-0.000098,1.000000,-0.000218,0.000211,0.000179,-0.031337,-0.576433,0.405384,0.708806,89.364360,52.349528,-123.089074
52754,-7.621672,6.646781,-0.136222,-0.159923,-0.617419,0.280942,0.071375,0.117441,0.017790,-0.076223,0.066462,-0.001294,1.000000,0.000357,0.000587,0.000089,-0.031458,-0.576783,0.405698,0.708336,89.488063,52.334213,-122.984197
52755,-7.670623,6.749860,0.430849,-0.670385,-0.347519,0.386063,-0.023055,0.088109,0.048707,-0.076721,0.067480,0.004335,1.000000,-0.000115,0.000441,0.000244,-0.031900,-0.576951,0.405772,0.708138,89.535919,52.300905,-122.906729
52756,-7.204059,6.920960,1.171509,-1.510930,-0.303277,0.126913,-0.340010,0.002331,0.081964,-0.072069,0.069200,0.011598,0.999998,-0.001700,0.000012,0.000410,-0.033201,-0.576697,0.404832,0.708823,89.338922,52.248139,-122.909208
52757,-7.533754,5.732608,1.485098,-1.146818,0.819226,-0.334323,-0.399135,0.013291,0.007173,-0.075339,0.057353,0.014742,0.999998,-0.001996,0.000066,0.000036,-0.034429,-0.576620,0.403464,0.709606,89.115588,52.238284,-122.902128
52758,-7.962464,5.561002,-0.870395,1.079157,-0.112875,-0.122187,-0.538539,0.093154,-0.034693,-0.079619,0.055600,-0.008817,0.999996,-0.002693,0.000466,-0.000173,-0.036072,-0.576884,0.401464,0.710444,88.870967,52.253232,-122.820949
52759,-7.973154,5.958234,-0.413783,0.550839,-0.143555,0.133110,-0.325955,0.001977,0.004829,-0.079733,0.059574,-0.004234,0.999999,-0.001630,0.000010,0.000024,-0.037058,-0.576780,0.400348,0.711106,88.681256,52.244616,-122.824373
52760,-7.718458,5.475725,-0.085888,0.401947,0.216492,-0.359800,-0.401826,0.063648,0.002485,-0.077186,0.054754,-0.000944,0.999998,-0.002009,0.000318,0.000012,-0.038379,-0.576885,0.398943,0.711741,88.493720,52.238217,-122.770077
52761,-8.375549,5.251686,-0.952532,1.457115,0.251021,0.008267,-0.138672,0.107912,0.009945,-0.083763,0.052506,-0.009517,1.000000,-0.000693,0.000540,0.000050,-0.039055,-0.577181,0.398486,0.711721,88.489787,52.228257,-122.674235
52762,-8.253834,5.775242,-0.513392,0.824937,0.070066,0.240039,0.234041,0.049920,0.041676,-0.082552,0.057741,-0.005046,0.999999,0.001170,0.000250,0.000208,-0.038652,-0.577279,0.399458,0.711117,88.657154,52.199248,-122.631859
52763,-8.076384,6.279137,-0.754556,0.753573,-0.472325,0.406602,0.339382,0.036073,0.111017,-0.080800,0.062759,-0.007424,0.999998,0.001697,0.000180,0.000555,-0.038165,-0.577209,0.401006,0.710329,88.875498,52.130225,-122.601299
52764,-7.456026,6.811546,-0.573159,0.163558,-1.033286,0.248302,0.274421,0.073801,0.168338,-0.074620,0.068060,-0.005611,0.999999,0.001372,0.000369,0.000842,-0.038143,-0.577144,0.402481,0.709548,89.084838,52.028725,-122.534980
52765,-7.157202,7.244338,0.634490,-1.149302,-0.813195,0.293067,0.248050,0.105394,0.209557,-0.071644,0.072360,0.006472,0.999999,0.001240,0.000527,0.001048,-0.038408,-0.577101,0.403974,0.708720,89.301808,51.903669,-122.439644
52766,-6.958571,6.609104,0.580121,-0.912543,-0.489523,-0.254126,0.078796,0.152446,0.221335,-0.069654,0.066012,0.005880,0.999999,0.000394,0.000762,0.001107,-0.039298,-0.577168,0.404891,0.708093,89.455471,51.771974,-122.301356
52767,-6.946768,5.885008,0.065633,-0.180749,-0.256468,-0.713417,0.039512,0.137623,0.249740,-0.069541,0.058763,0.000716,0.999999,0.000198,0.000688,0.001249,-0.040372,-0.577115,0.405753,0.707582,89.574973,51.623724,-122.177614
52768,-6.835689,5.513121,-0.088940,0.071931,-0.122644,-1.031526,-0.008936,0.111192,0.275801,-0.068433,0.055037,-0.000854,0.999999,-0.000045,0.000556,0.001379,-0.041624,-0.576905,0.406524,0.707239,89.647039,51.460296,-122.078761
52769,-6.755274,5.269753,-0.471886,0.478706,-0.178863,-1.247322,-0.000697,0.109058,0.306813,-0.067636,0.052594,-0.004682,0.999999,-0.000003,0.000545,0.001534,-0.042958,-0.576624,0.407412,0.706877,89.721566,51.279030,-121.982537
52770,-6.887822,5.502562,-0.477898,0.436831,-0.235369,-0.997794,0.201496,0.111413,0.333164,-0.068972,0.054916,-0.004685,0.999998,0.001007,0.000557,0.001666,-0.043807,-0.576340,0.409089,0.706087,89.912782,51.082516,-121.885011
52771,-7.275708,6.042290,-0.331273,0.216363,-0.269170,-0.355652,0.419984,0.051757,0.347528,-0.072863,0.060303,-0.003167,0.999996,0.002100,0.000259,0.001738,-0.043954,-0.575860,0.411589,0.705016,90.185338,50.877572,-121.843609
52772,-7.208236,6.217067,-0.158269,-0.035154,-0.281591,-0.296654,0.594089,0.028735,0.374817,-0.072199,0.062040,-0.001388,0.999994,0.002970,0.000144,0.001874,-0.043648,-0.575276,0.414783,0.703639,90.539912,50.656919,-121.825022
52773,-7.532384,6.347412,-0.111925,-0.033122,-0.115800,0.037401,0.615465,-0.004979,0.374554,-0.075443,0.063336,-0.000926,0.999994,0.003077,-0.000025,0.001873,-0.043210,-0.574570,0.418053,0.702306,90.881369,50.436607,-121.839184
52774,-7.552516,6.807411,0.088859,-0.397732,-0.243124,0.344661,0.549048,-0.063126,0.375519,-0.075653,0.067929,0.001051,0.999994,0.002745,-0.000316,0.001878,-0.042843,-0.573637,0.421100,0.701270,91.143445,50.216357,-121.907125
52775,-7.554849,7.121284,0.659320,-1.010745,-0.086041,0.540764,0.344852,-0.018821,0.359506,-0.075677,0.071065,0.006709,0.999997,0.001724,-0.000094,0.001798,-0.043099,-0.572844,0.423372,0.700535,91.318362,50.004927,-121.936351
52776,-7.912973,6.886688,0.795614,-0.901101,0.375596,0.662113,0.220038,0.057002,0.305212,-0.079232,0.068737,0.008054,0.999998,0.001100,0.000285,0.001526,-0.043683,-0.572402,0.425033,0.699854,91.473826,49.823547,-121.897644
52777,-8.043475,6.937653,0.530019,-0.649587,0.304635,0.798372,0.144552,-0.013244,0.271360,-0.080529,0.069263,0.005345,0.999999,0.000723,-0.000066,0.001357,-0.044215,-0.571767,0.426346,0.699540,91.538410,49.662612,-121.921222
52778,-7.873707,7.225380,0.567312,-0.847831,0.073651,0.854971,-0.058496,-0.004986,0.220058,-0.078817,0.072169,0.005650,0.999999,-0.000292,-0.000025,0.001100,-0.045166,-0.571225,0.426801,0.699645,91.493265,49.530889,-121.936185
52779,-7.880165,6.743674,0.435779,-0.512845,0.322481,0.550565,-0.222329,0.052727,0.160409,-0.078855,0.067378,0.004304,0.999999,-0.001112,0.000264,0.000802,-0.046498,-0.570974,0.426498,0.699948,91.394101,49.432534,-121.898741
52780,-8.061004,6.361296,0.134222,-0.016930,0.504436,0.444462,-0.317318,0.053646,0.109122,-0.080644,0.063571,0.001263,0.999999,-0.001587,0.000268,0.000546,-0.047925,-0.570812,0.425715,0.700460,91.242120,49.363543,-121.859130
52781,-7.842282,5.957432,-0.090869,0.287464,0.515541,0.018497,-0.321359,-0.017838,0.073073,-0.078444,0.059544,-0.001011,0.999999,-0.001607,-0.000089,0.000365,-0.049084,-0.570473,0.424830,0.701192,91.040775,49.316154,-121.881508
52782,-7.397221,5.738889,-0.470577,0.565967,0.199351,-0.457738,-0.287358,-0.019992,0.071953,-0.073992,0.057355,-0.004796,0.999999,-0.001437,-0.000100,0.000360,-0.050137,-0.570137,0.424061,0.701856,90.857732,49.269341,-121.905457
52783,-7.391817,5.529364,-0.510725,0.700594,0.307554,-0.599206,-0.156772,0.001949,0.071903,-0.073938,0.055263,-0.005150,1.000000,-0.000784,0.000010,0.000360,-0.050865,-0.569909,0.423744,0.702180,90.764228,49.222378,-121.909994
52784,-7.219620,5.616087,-0.529401,0.628204,0.152196,-0.673442,0.034681,0.019006,0.081269,-0.072220,0.056132,-0.005277,1.000000,0.000173,0.000095,0.000406,-0.051116,-0.569770,0.424122,0.702047,90.791743,49.169899,-121.899586
52785,-7.114563,5.920741,-0.244072,0.226411,0.064612,-0.556538,0.140124,0.001847,0.108300,-0.071178,0.059171,-0.002399,1.000000,0.000701,0.000009,0.000541,-0.051125,-0.569540,0.424951,0.701732,90.867926,49.102087,-121.904688
52786,-7.030438,6.181666,-0.168092,0.026543,-0.093746,-0.450059,0.080816,-0.002443,0.117874,-0.070341,0.061776,-0.001657,1.000000,0.000404,-0.000012,0.000589,-0.051327,-0.569259,0.425599,0.701552,90.907196,49.028827,-121.913698
52787,-7.035934,6.161442,-0.105078,-0.015856,-0.029999,-0.459741,0.117560,0.044274,0.120008,-0.070397,0.061573,-0.000999,1.000000,0.000588,0.000221,0.000600,-0.051532,-0.569146,0.426371,0.701160,90.998128,48.953910,-121.882134
52788,-7.305160,6.117489,-0.085643,0.077088,0.173446,-0.285866,0.145536,0.022603,0.105747,-0.073084,0.061137,-0.000804,1.000000,0.000728,0.000113,0.000529,-0.051561,-0.568995,0.427205,0.700773,91.090892,48.887350,-121.869393
52789,-7.386640,6.341206,-0.031986,-0.033385,0.120110,-0.078273,0.117610,-0.017345,0.092416,-0.073896,0.063378,-0.000289,1.000000,0.000588,-0.000087,0.000462,-0.051537,-0.568725,0.427913,0.700562,91.141444,48.828868,-121.891421
52790,-7.166678,6.512841,0.176085,-0.356641,0.012802,-0.133741,0.084712,0.029756,0.069499,-0.071689,0.065103,0.001799,1.000000,0.000424,0.000149,0.000347,-0.051627,-0.568659,0.428428,0.700293,91.204313,48.782976,-121.872074
52791,-7.406555,6.631179,-0.016666,-0.162492,-0.021794,0.127282,0.063944,0.045834,0.052718,-0.074083,0.066292,-0.000128,1.000000,0.000320,0.000229,0.000264,-0.051752,-0.568681,0.428819,0.700027,91.265881,48.746484,-121.838597
52792,-7.555668,6.650859,-0.041082,-0.097369,0.041972,0.252723,-0.063970,0.030454,0.034168,-0.075568,0.066496,-0.000421,1.000000,-0.000320,0.000152,0.000171,-0.052143,-0.568655,0.428713,0.700084,91.244397,48.720797,-121.818110
52793,-7.421596,6.659856,-0.135544,-0.062172,-0.089769,0.159284,-0.148735,0.036189,0.012104,-0.074220,0.066593,-0.001392,1.000000,-0.000744,0.000181,0.000061,-0.052710,-0.568674,0.428246,0.700312,91.178350,48.707696,-121.792272
52794,-7.525797,6.296255,-0.387719,0.342823,0.059495,0.001064,-0.130094,0.058854,0.007424,-0.075261,0.062957,-0.003896,1.000000,-0.000650,0.000294,0.000037,-0.053256,-0.568787,0.427825,0.700436,91.137882,48.697021,-121.746614
52795,-7.568004,6.142213,-0.261796,0.317375,0.247940,-0.070624,-0.007133,0.014605,-0.003507,-0.075679,0.061423,-0.002615,1.000000,-0.000036,0.000073,-0.000018,-0.053319,-0.568802,0.427815,0.700425,91.139103,48.693130,-121.739223
52796,-7.279057,6.031031,-0.287988,0.283471,0.142515,-0.360689,0.015828,0.039356,-0.015773,-0.072786,0.060316,-0.002861,1.000000,0.000079,0.000197,-0.000079,-0.053327,-0.568935,0.427845,0.700299,91.169838,48.695982,-121.710080
52797,-7.378558,6.183277,-0.532353,0.453234,-0.025141,-0.181833,0.178664,0.045125,-0.022000,-0.073780,0.061846,-0.005252,1.000000,0.000893,0.000226,-0.000110,-0.052862,-0.569145,0.428424,0.699809,91.297666,48.702300,-121.675864
52798,-7.146903,6.297692,-0.279453,0.099898,-0.084645,-0.283780,0.176015,0.048037,-0.028888,-0.071461,0.062990,-0.002722,1.000000,0.000880,0.000240,-0.000144,-0.052387,-0.569379,0.428974,0.699317,91.426084,48.712485,-121.638879
52799,-7.174314,6.182651,-0.474191,0.304122,-0.094263,-0.335378,0.287905,0.079949,-0.027969,-0.071736,0.061843,-0.004624,0.999999,0.001440,0.000400,-0.000140,-0.051664,-0.569750,0.429909,0.698494,91.639377,48.721570,-121.574232
52800,-7.339245,6.215744,-0.369315,0.240106,0.044293,-0.191007,0.265715,0.045501,-0.021788,-0.073387,0.062170,-0.003594,0.999999,0.001329,0.000228,-0.000109,-0.050953,-0.569982,0.430791,0.697813,91.817497,48.727578,-121.539512
52801,-7.157456,6.235055,-0.068122,-0.099872,0.102792,-0.321156,0.222366,0.063603,-0.015572,-0.071570,0.062357,-0.000589,0.999999,0.001112,0.000318,-0.000078,-0.050426,-0.570251,0.431535,0.697172,91.982391,48.729600,-121.489311
52802,-7.243605,6.464916,-0.197892,-0.074683,-0.053927,-0.102095,0.211645,0.076002,-0.037435,-0.072425,0.064665,-0.001883,0.999999,0.001058,0.000380,-0.000187,-0.049879,-0.570607,0.432176,0.696522,92.149857,48.743806,-121.427558
52803,-7.159626,6.413033,-0.301970,-0.010251,-0.118700,-0.196857,0.167053,0.073424,-0.036550,-0.071586,0.064146,-0.002940,1.000000,0.000835,0.000367,-0.000183,-0.049458,-0.570941,0.432664,0.695976,92.290043,48.757437,-121.368084
52804,-7.116757,6.282270,-0.133535,-0.126597,0.037405,-0.319768,0.208756,0.093968,-0.039342,-0.071156,0.062838,-0.001236,0.999999,0.001044,0.000470,-0.000197,-0.048951,-0.571362,0.433283,0.695281,92.467773,48.772081,-121.290508
52805,-7.100917,6.448917,-0.050492,-0.289230,-0.021669,-0.224677,0.171547,0.087335,-0.032859,-0.070999,0.064501,-0.000419,1.000000,0.000858,0.000437,-0.000164,-0.048560,-0.571736,0.433793,0.694683,92.619644,48.783023,-121.218946
52806,-7.216199,6.497200,-0.322501,-0.059236,-0.127855,-0.098201,0.180339,0.101532,-0.037119,-0.072152,0.064988,-0.003130,0.999999,0.000902,0.000508,-0.000186,-0.048159,-0.572170,0.434317,0.694025,92.786101,48.795897,-121.134737
52807,-7.199760,6.498741,-0.149439,-0.225214,-0.036657,-0.115243,0.128770,0.081972,-0.035477,-0.071987,0.065001,-0.001423,1.000000,0.000644,0.000410,-0.000177,-0.047869,-0.572519,0.434672,0.693535,92.910154,48.808239,-121.067599
52808,-7.257446,6.371587,-0.444752,0.085144,-0.083607,-0.145671,0.055171,0.076458,-0.041384,-0.072563,0.063732,-0.004402,1.000000,0.000276,0.000382,-0.000207,-0.047757,-0.572845,0.434755,0.693221,92.988758,48.824050,-121.004862
52809,-7.134632,6.169237,-0.630892,0.277312,-0.127140,-0.364544,0.065482,0.086872,-0.034646,-0.071338,0.061707,-0.006258,1.000000,0.000327,0.000434,-0.000173,-0.047662,-0.573194,0.434891,0.692854,93.079821,48.835624,-120.933406
52810,-7.182334,6.212648,-0.416608,0.084846,-0.004995,-0.307465,0.095937,0.106550,-0.029081,-0.071817,0.062139,-0.004098,1.000000,0.000480,0.000533,-0.000145,-0.047541,-0.573607,0.435144,0.692362,93.201144,48.843313,-120.844979
52811,-7.407838,6.350560,-0.363281,0.044125,0.072643,-0.048958,0.107901,0.107166,-0.027071,-0.074072,0.063518,-0.003559,1.000000,0.000540,0.000536,-0.000135,-0.047394,-0.574020,0.435443,0.691841,93.329596,48.849702,-120.756163
52812,-7.439040,6.650746,-0.344714,-0.103084,-0.079309,0.170981,0.080039,0.084435,-0.034794,-0.074380,0.066522,-0.003389,1.000000,0.000400,0.000422,-0.000174,-0.047251,-0.574364,0.435629,0.691448,93.427629,48.861166,-120.686590
52813,-7.169924,6.750313,-0.510200,-0.104076,-0.382928,0.040098,-0.138994,0.122617,-0.045046,-0.071687,0.067516,-0.005105,1.000000,-0.000695,0.000613,-0.000225,-0.047785,-0.574810,0.435019,0.691425,93.425519,48.877142,-120.583338
52814,-7.084116,6.811883,-0.818452,0.100478,-0.640921,0.027812,-0.278765,0.193266,-0.038446,-0.070836,0.068121,-0.008211,0.999999,-0.001394,0.000966,-0.000192,-0.048897,-0.575452,0.433927,0.691499,93.389480,48.886955,-120.418871
52815,-7.106822,6.772116,-0.843094,0.150312,-0.617570,0.019672,-0.297831,0.255127,-0.006013,-0.071077,0.067711,-0.008441,0.999998,-0.001489,0.001276,-0.000030,-0.050310,-0.576231,0.432846,0.691427,93.381694,48.876171,-120.202370
52816,-7.425249,6.667020,-0.539135,0.045811,-0.202774,0.178855,-0.172566,0.245947,0.015422,-0.074264,0.066660,-0.005358,0.999999,-0.000863,0.001230,0.000077,-0.051416,-0.576961,0.432261,0.691102,93.438847,48.853356,-119.994918
52817,-7.547967,6.487123,-0.000267,-0.292865,0.274844,0.131822,-0.119406,0.162265,0.025115,-0.075488,0.064862,0.000020,0.999999,-0.000597,0.000811,0.000126,-0.052222,-0.577394,0.431908,0.690901,93.471058,48.827803,-119.860940
52818,-7.358139,5.924762,0.079946,-0.183236,0.563098,-0.383968,-0.105273,0.106466,0.021893,-0.073587,0.059240,0.000807,1.000000,-0.000526,0.000532,0.000109,-0.052855,-0.577645,0.431609,0.690830,93.475036,48.805977,-119.775219
52819,-7.098031,6.050087,-0.259992,-0.035002,0.158912,-0.483877,-0.017525,0.076143,0.034507,-0.070992,0.060488,-0.002578,1.000000,-0.000088,0.000381,0.000173,-0.053212,-0.577786,0.431658,0.690654,93.508810,48.778001,-119.716655
52820,-6.929225,6.779329,-0.523454,-0.178576,-0.524712,-0.120410,-0.003839,0.080995,0.061659,-0.069315,0.067772,-0.005208,1.000000,-0.000019,0.000405,0.000308,-0.053635,-0.577890,0.431831,0.690427,93.552513,48.734286,-119.655312
52821,-7.087088,7.055204,-0.468542,-0.291130,-0.565449,0.178196,0.026258,0.084314,0.095080,-0.070906,0.070519,-0.004646,1.000000,0.000131,0.000422,0.000475,-0.054092,-0.577940,0.432203,0.690116,93.614033,48.671318,-119.593127
52822,-7.365470,7.000087,-0.222373,-0.383676,-0.226738,0.341238,-0.012104,0.082033,0.115305,-0.073696,0.069958,-0.002198,1.000000,-0.000061,0.000410,0.000577,-0.054726,-0.577928,0.432501,0.689889,93.651180,48.596796,-119.534089
52823,-7.521849,6.970625,0.020037,-0.520474,0.023085,0.429226,-0.045092,0.057662,0.113536,-0.075258,0.069664,0.000206,1.000000,-0.000225,0.000288,0.000568,-0.055396,-0.577826,0.432687,0.689804,93.653476,48.524198,-119.496238
52824,-7.440967,6.782086,0.112658,-0.537836,0.151986,0.240422,-0.073267,0.028757,0.100818,-0.074444,0.067784,0.001112,1.000000,-0.000366,0.000144,0.000504,-0.056041,-0.577645,0.432748,0.689866,93.621503,48.459880,-119.482564
52825,-7.093477,7.089642,-0.340989,-0.385101,-0.475104,0.203432,-0.182768,0.017022,0.099485,-0.070970,0.070858,-0.003469,0.999999,-0.000914,0.000085,0.000497,-0.056972,-0.577394,0.432429,0.690200,93.519265,48.396804,-119.478923
52826,-6.436903,7.386133,-1.111798,-0.049803,-1.445456,-0.059078,-0.505060,0.227421,0.092807,-0.064416,0.073803,-0.011231,0.999996,-0.002525,0.001137,0.000464,-0.059266,-0.577789,0.430917,0.690621,93.368192,48.330247,-119.293544
52827,-6.947538,6.851619,-1.388001,0.593467,-0.952846,-0.020887,-0.354777,0.341074,0.147135,-0.069549,0.068440,-0.013883,0.999997,-0.001774,0.001705,0.000736,-0.061557,-0.578501,0.430044,0.690369,93.373712,48.229008,-119.013486
52828,-7.320146,6.569572,-0.693085,0.243160,-0.173972,0.043008,-0.050306,0.282551,0.200937,-0.073277,0.065620,-0.006844,0.999998,-0.000252,0.001413,0.001005,-0.063028,-0.578985,0.430394,0.689612,93.513337,48.098675,-118.787081
52829,-7.735393,6.191892,0.230851,-0.260483,0.813598,0.061484,0.095319,0.201722,0.213077,-0.077417,0.061835,0.002416,0.999999,0.000477,0.001009,0.001065,-0.063944,-0.579209,0.431306,0.688770,93.683246,47.964001,-118.631685
52830,-7.686383,6.019993,-0.107255,0.079519,0.741934,-0.077418,0.078458,0.107650,0.190692,-0.076922,0.060127,-0.001008,0.999999,0.000392,0.000538,0.000953,-0.064630,-0.579151,0.432123,0.688242,93.784112,47.845300,-118.556015
52831,-7.486988,6.330166,-0.217524,-0.015125,0.394771,-0.013850,0.025664,0.022864,0.160422,-0.074921,0.063242,-0.002159,1.000000,0.000128,0.000114,0.000802,-0.065180,-0.578849,0.432699,0.688083,93.802102,47.747156,-118.551249
52832,-6.880611,6.672511,-0.319981,-0.253641,-0.215724,-0.228497,-0.130441,0.033859,0.134103,-0.068851,0.066677,-0.003232,1.000000,-0.000652,0.000169,0.000671,-0.066116,-0.578590,0.432657,0.688237,93.738760,47.663576,-118.535525
52833,-6.758285,6.701986,-0.569695,-0.079416,-0.426167,-0.287582,-0.219601,0.158016,0.135904,-0.067633,0.066968,-0.005717,0.999999,-0.001098,0.000790,0.000680,-0.067584,-0.578724,0.432271,0.688224,93.702019,47.574429,-118.414599
52834,-7.168691,6.927519,-0.208560,-0.340017,-0.122323,0.151927,-0.126608,0.178139,0.138747,-0.071737,0.069224,-0.002066,0.999999,-0.000633,0.000891,0.000694,-0.068837,-0.578951,0.432207,0.687949,93.730813,47.482832,-118.276893
52835,-7.322487,6.855208,0.265138,-0.659503,0.269316,0.196084,-0.191215,0.124561,0.117791,-0.073264,0.068511,0.002631,0.999999,-0.000956,0.000623,0.000589,-0.070088,-0.579016,0.431877,0.687976,93.689704,47.405296,-118.183637
52836,-7.393093,6.516881,0.034988,-0.286383,0.404617,0.030230,-0.418930,0.082375,0.082993,-0.073958,0.065139,0.000244,0.999998,-0.002095,0.000412,0.000415,-0.071788,-0.578930,0.430676,0.688625,93.493331,47.349214,-118.123969
52837,-7.017184,6.237937,-0.879389,0.518938,-0.119071,-0.397674,-0.567249,0.051442,0.060530,-0.070193,0.062333,-0.008953,0.999996,-0.002836,0.000257,0.000303,-0.073772,-0.578728,0.428908,0.689688,93.193738,47.307279,-118.089069
52838,-6.926847,6.118895,-1.184921,0.829229,-0.257983,-0.535193,-0.428675,0.072548,0.068431,-0.069294,0.061140,-0.011955,0.999998,-0.002143,0.000363,0.000342,-0.075428,-0.578630,0.427630,0.690384,92.986567,47.260194,-118.036412
52839,-7.192573,5.989191,-0.632748,0.506701,0.260512,-0.448967,-0.232143,0.060055,0.068393,-0.071948,0.059860,-0.006375,0.999999,-0.001161,0.000300,0.000342,-0.076487,-0.578560,0.427034,0.690695,92.884296,47.213676,-117.994213
52840,-7.319540,5.998025,-0.435181,0.381833,0.434285,-0.357163,-0.088663,0.062159,0.062456,-0.073215,0.059955,-0.004356,1.000000,-0.000443,0.000311,0.000312,-0.077116,-0.578565,0.426915,0.690694,92.865805,47.170456,-117.949855
52841,-7.238967,6.139070,-0.452610,0.320306,0.294251,-0.320243,-0.035000,0.034072,0.041825,-0.072403,0.061375,-0.004525,1.000000,-0.000175,0.000170,0.000209,-0.077458,-0.578538,0.426932,0.690669,92.861251,47.139921,-117.928382
52842,-7.160029,6.210090,-0.560037,0.362013,0.152201,-0.326347,-0.044142,0.060433,0.008036,-0.071604,0.062097,-0.005592,1.000000,-0.000221,0.000302,0.000040,-0.077767,-0.578670,0.426810,0.690599,92.868834,47.127916,-117.883221
52843,-6.906519,6.342687,-0.590236,0.254986,-0.095537,-0.420994,-0.049252,0.102631,-0.006586,-0.069066,0.063428,-0.005883,1.000000,-0.000246,0.000513,-0.000033,-0.078129,-0.578977,0.426611,0.690423,92.899845,47.123102,-117.802065
52844,-7.013768,6.338464,-0.453855,0.167023,0.043759,-0.349853,-0.000506,0.150405,-0.007513,-0.070139,0.063387,-0.004486,1.000000,-0.000003,0.000752,-0.000038,-0.078449,-0.579470,0.426559,0.690005,92.988343,47.117311,-117.680598
52845,-7.212173,6.550137,0.169379,-0.401810,0.346346,-0.082990,0.039316,0.131951,-0.028818,-0.072111,0.065511,0.001754,1.000000,0.000197,0.000660,-0.000144,-0.078541,-0.579960,0.426590,0.689565,93.088869,47.124178,-117.573824
52846,-7.301274,6.333467,0.048281,-0.194078,0.476314,-0.160787,-0.037259,0.111834,-0.059815,-0.072994,0.063357,0.000512,1.000000,-0.000186,0.000559,-0.000299,-0.078705,-0.580416,0.426274,0.689357,93.134305,47.149272,-117.482405
52847,-7.161577,6.345182,-0.314927,0.067736,0.199856,-0.241681,-0.113535,0.086045,-0.097645,-0.071586,0.063485,-0.003154,1.000000,-0.000568,0.000430,-0.000488,-0.078904,-0.580834,0.425596,0.689402,93.121395,47.196838,-117.410979
52848,-6.986326,6.275252,-0.311584,0.034133,0.131194,-0.417676,-0.115850,0.084141,-0.114684,-0.069829,0.062791,-0.003123,1.000000,-0.000579,0.000421,-0.000573,-0.079048,-0.581280,0.424861,0.689463,93.106720,47.254194,-117.340236
52849,-6.965275,6.170224,-0.517677,0.243393,0.073555,-0.496570,-0.135603,0.116637,-0.124989,-0.069617,0.061742,-0.005178,0.999999,-0.000678,0.000583,-0.000625,-0.079283,-0.581851,0.424014,0.689475,93.101227,47.316474,-117.241636
52850,-6.970021,6.434134,-0.592435,0.201823,-0.133781,-0.311550,-0.060111,0.129368,-0.125360,-0.069664,0.064383,-0.005899,1.000000,-0.000301,0.000647,-0.000627,-0.079324,-0.582497,0.423421,0.689289,93.147175,47.378522,-117.132032
52851,-7.098779,6.309570,-0.385973,0.099301,0.117056,-0.308544,-0.013903,0.117915,-0.134257,-0.070948,0.063143,-0.003822,1.000000,-0.000070,0.000590,-0.000671,-0.079174,-0.583140,0.422966,0.689042,93.212940,47.445975,-117.031556
52852,-7.069087,6.301782,-0.460957,0.146688,0.060959,-0.332620,0.005662,0.102889,-0.130715,-0.070652,0.063064,-0.004571,1.000000,0.000028,0.000514,-0.000654,-0.078949,-0.583731,0.422594,0.688796,93.280768,47.511789,-116.943630
52853,-7.152809,6.731375,-0.368139,-0.086147,-0.120106,0.015219,0.037649,0.088087,-0.130515,-0.071486,0.067361,-0.003637,1.000000,0.000188,0.000440,-0.000653,-0.078599,-0.584283,0.422338,0.688525,93.357809,47.577926,-116.868117
52854,-7.231848,6.740252,-0.293257,-0.144860,-0.047147,0.076366,0.076618,0.083329,-0.132004,-0.072275,0.067451,-0.002877,1.000000,0.000383,0.000417,-0.000660,-0.078121,-0.584837,0.422214,0.688185,93.454589,47.644977,-116.796224
52855,-7.196934,6.785790,-0.250204,-0.224420,-0.082139,0.079142,0.053130,0.056958,-0.137145,-0.071923,0.067908,-0.002464,1.000000,0.000266,0.000285,-0.000686,-0.077637,-0.585301,0.422004,0.687974,93.521682,47.715840,-116.746325
52856,-7.190360,6.738736,-0.354133,-0.128085,-0.115526,0.046698,-0.043698,0.085969,-0.135473,-0.071859,0.067435,-0.003525,1.000000,-0.000218,0.000430,-0.000677,-0.077504,-0.585823,0.421454,0.687881,93.551741,47.784666,-116.671591
52857,-7.271123,6.965170,-0.523552,-0.051243,-0.302862,0.265138,-0.073108,0.086704,-0.136712,-0.072666,0.069699,-0.005229,1.000000,-0.000366,0.000434,-0.000684,-0.077454,-0.586339,0.420799,0.687848,93.565536,47.854182,-116.596119
52858,-7.285262,6.786826,-0.442380,-0.053948,-0.152310,0.152534,-0.089653,0.061828,-0.129320,-0.072810,0.067913,-0.004432,1.000000,-0.000448,0.000309,-0.000647,-0.077426,-0.586747,0.420118,0.687920,93.554048,47.920319,-116.542057
52859,-7.194719,6.884488,-0.205540,-0.329844,-0.163348,0.140549,-0.054242,0.057618,-0.117913,-0.071907,0.068887,-0.002053,1.000000,-0.000271,0.000288,-0.000590,-0.077324,-0.587130,0.419594,0.687924,93.559727,47.980120,-116.492228
52860,-7.124156,6.684839,-0.077727,-0.388913,-0.025602,-0.050782,-0.085651,0.050725,-0.101840,-0.071208,0.066884,-0.000788,1.000000,-0.000428,0.000254,-0.000509,-0.077356,-0.587443,0.419012,0.688009,93.542545,48.030932,-116.449008
52861,-7.177185,6.635909,-0.218770,-0.232909,-0.039691,-0.038267,-0.085188,0.050243,-0.091488,-0.071742,0.066391,-0.002198,1.000000,-0.000426,0.000251,-0.000457,-0.077420,-0.587733,0.418461,0.688089,93.524869,48.075895,-116.406821
52862,-7.191479,6.621222,-0.255328,-0.190832,-0.048266,-0.035960,-0.132601,0.039151,-0.088846,-0.071886,0.066242,-0.002583,1.000000,-0.000663,0.000196,-0.000444,-0.077610,-0.587960,0.417759,0.688300,93.472940,48.119701,-116.374197
52863,-7.032874,6.428594,-0.375680,-0.055179,-0.086841,-0.277558,-0.168365,0.048835,-0.061363,-0.070310,0.064304,-0.003794,1.000000,-0.000842,0.000244,-0.000307,-0.078020,-0.588149,0.417011,0.688546,93.405559,48.147530,-116.334814
52864,-7.148124,6.849030,-0.887709,0.271183,-0.539900,0.108395,-0.132672,0.034802,-0.029001,-0.071473,0.068495,-0.008910,1.000000,-0.000663,0.000174,-0.000145,-0.078407,-0.588236,0.416486,0.688746,93.348494,48.157295,-116.309054
52865,-6.964335,6.378251,-0.621004,0.166415,-0.220260,-0.352588,-0.017946,0.034855,0.019510,-0.069651,0.063775,-0.006204,1.000000,-0.000090,0.000174,0.000098,-0.078623,-0.588266,0.416499,0.688687,93.355313,48.139375,-116.285769
52866,-7.158134,6.101294,-0.408465,0.143915,0.180883,-0.401094,0.051341,0.008501,0.067943,-0.071602,0.060990,-0.004066,1.000000,0.000257,0.000043,0.000340,-0.078748,-0.588133,0.416903,0.688542,93.383260,48.094569,-116.287428
52867,-7.138334,5.855853,-0.512450,0.322274,0.285273,-0.575579,0.162652,-0.034184,0.089288,-0.071409,0.058531,-0.005089,1.000000,0.000813,-0.000171,0.000446,-0.078529,-0.587851,0.417769,0.688283,93.446873,48.039079,-116.326861
52868,-6.829659,6.981942,-0.777151,0.022204,-0.732541,-0.042398,0.323303,0.000828,0.089402,-0.068328,0.069801,-0.007658,0.999999,0.001617,0.000004,0.000447,-0.077913,-0.587752,0.419175,0.687583,93.624792,47.982289,-116.336402
52869,-7.072498,7.843187,0.107002,-1.032349,-0.682350,0.676153,0.495028,0.020241,0.106606,-0.070767,0.078391,0.001271,0.999997,0.002475,0.000101,0.000533,-0.076890,-0.587747,0.421211,0.686457,93.912358,47.915012,-116.330773
52870,-7.143087,8.242188,0.406158,-1.447531,-0.720902,0.981164,0.230181,0.023130,0.103242,-0.071473,0.082380,0.004165,0.999999,0.001151,0.000116,0.000516,-0.076641,-0.587655,0.422326,0.685878,94.049948,47.849442,-116.322759
52871,-7.533905,7.699418,0.581303,-1.275504,-0.041530,0.899457,0.038154,-0.000608,0.087461,-0.075373,0.076960,0.005827,1.000000,0.000191,-0.000003,0.000437,-0.076851,-0.587441,0.422745,0.685780,94.063058,47.793934,-116.334237
52872,-7.474311,6.934669,0.273586,-0.715085,0.257862,0.358445,-0.231400,-0.023161,0.054492,-0.074762,0.069329,0.002647,0.999999,-0.001157,-0.000116,0.000272,-0.077693,-0.587115,0.422151,0.686330,93.909073,47.758033,-116.362779
52873,-7.363745,6.789389,-0.225278,-0.235302,0.033795,0.203037,-0.378205,0.017858,0.032769,-0.073649,0.067877,-0.002375,0.999998,-0.001891,0.000089,0.000164,-0.078976,-0.586917,0.420972,0.687076,93.697829,47.733056,-116.355085
52874,-7.453336,6.628209,-0.426598,0.053451,0.084373,0.170165,-0.427444,0.054947,0.025402,-0.074543,0.066263,-0.004387,0.999998,-0.002137,0.000275,0.000127,-0.080458,-0.586840,0.419587,0.687817,93.482074,47.710852,-116.315310
52875,-7.304399,5.730914,-0.911998,0.796915,0.324970,-0.523518,-0.347859,0.057009,0.027854,-0.073055,0.057283,-0.009199,0.999998,-0.001739,0.000285,0.000139,-0.081718,-0.586794,0.418479,0.688382,93.313192,47.687395,-116.273841
52876,-7.297624,5.057501,-0.941162,1.088368,0.736143,-0.981324,-0.146006,0.029762,0.061168,-0.072993,0.050546,-0.009438,1.000000,-0.000730,0.000149,0.000306,-0.082443,-0.586667,0.418175,0.688589,93.241682,47.645719,-116.257051
52877,-7.001795,4.249106,-1.409349,1.720421,0.855073,-1.727189,0.082404,0.018824,0.122719,-0.070045,0.042454,-0.014069,1.000000,0.000412,0.000094,0.000614,-0.082687,-0.586467,0.418842,0.688325,93.291963,47.569306,-116.252567
52878,-6.806700,4.954146,-1.559263,1.519778,0.233125,-1.389986,0.489592,0.009965,0.185248,-0.068114,0.049516,-0.015468,0.999997,0.002448,0.000050,0.000926,-0.081934,-0.586272,0.421095,0.687205,93.567486,47.457369,-116.259014
52879,-6.523048,6.490613,-1.513663,0.781979,-0.858325,-0.559530,0.784886,0.016337,0.239993,-0.065310,0.064887,-0.014877,0.999992,0.003924,0.000082,0.001200,-0.080515,-0.586098,0.424516,0.685415,94.013102,47.313981,-116.264241
52880,-6.558308,7.786579,-0.738557,-0.431134,-1.222035,0.311930,0.982680,-0.001308,0.302379,-0.065701,0.077802,-0.007004,0.999987,0.004913,-0.000007,0.001512,-0.078691,-0.585797,0.428796,0.683216,94.557076,47.135690,-116.289918
52881,-6.833007,8.254576,0.590309,-1.737496,-0.621740,0.759464,0.976610,-0.026660,0.321204,-0.068463,0.082406,0.006297,0.999987,0.004883,-0.000133,0.001606,-0.076893,-0.585352,0.433108,0.681079,95.079265,46.948092,-116.340643
52882,-6.948795,8.000243,0.386539,-1.458979,-0.434437,0.681189,0.568823,-0.006617,0.293288,-0.069605,0.079889,0.004090,0.999995,0.002844,-0.000033,0.001466,-0.076236,-0.584868,0.435935,0.679764,95.380461,46.775526,-116.374191
52883,-6.981357,7.857823,-0.082847,-0.998294,-0.522570,0.638238,0.179440,0.048481,0.244849,-0.069910,0.078493,-0.000741,0.999999,0.000897,0.000242,0.001224,-0.076672,-0.584524,0.437272,0.679151,95.494078,46.627783,-116.359009
52884,-7.137532,7.429720,-0.407893,-0.491741,-0.304926,0.481809,-0.090596,0.112112,0.210218,-0.071456,0.074220,-0.004073,0.999999,-0.000453,0.000561,0.001051,-0.077919,-0.584367,0.437566,0.678955,95.493141,46.496149,-116.288453
52885,-7.240897,7.171471,-0.436678,-0.319429,-0.080299,0.382544,-0.123514,0.113410,0.189564,-0.072479,0.071643,-0.004370,0.999999,-0.000618,0.000567,0.000948,-0.079194,-0.584246,0.437687,0.678833,95.475068,46.376373,-116.215394
52886,-7.156584,7.182619,-0.756850,-0.059020,-0.284369,0.350734,-0.210103,0.100534,0.172448,-0.071632,0.071756,-0.007608,0.999999,-0.001051,0.000503,0.000862,-0.080637,-0.584083,0.437468,0.678945,95.400578,46.266944,-116.151568
52887,-7.378486,6.781327,-1.253246,0.615427,-0.139078,0.267042,-0.172758,0.060354,0.166479,-0.073845,0.067741,-0.012569,0.999999,-0.000864,0.000302,0.000832,-0.081861,-0.583812,0.437374,0.679093,95.323862,46.163286,-116.120388
52888,-7.137945,7.058606,-1.206227,0.407675,-0.419603,0.281214,-0.116902,0.002015,0.178426,-0.071442,0.070515,-0.012103,0.999999,-0.000585,0.000010,0.000892,-0.082836,-0.583337,0.437528,0.679283,95.244002,46.055760,-116.137894
52889,-7.425429,6.683354,-1.183348,0.638537,0.011796,0.227066,-0.009654,0.011702,0.174754,-0.074313,0.066768,-0.011832,1.000000,-0.000048,0.000059,0.000874,-0.083506,-0.582948,0.438030,0.679211,95.231607,45.949972,-116.147097
52890,-7.576523,6.470652,-1.074363,0.678820,0.305234,0.180976,0.192121,-0.019532,0.149483,-0.075813,0.064660,-0.010689,0.999999,0.000961,-0.000098,0.000747,-0.083435,-0.582591,0.439157,0.678798,95.317831,45.860095,-116.179960
52891,-7.424471,6.435770,-1.009471,0.580696,0.283284,0.043449,0.422521,-0.020527,0.132647,-0.074286,0.064330,-0.009966,0.999998,0.002113,-0.000103,0.000663,-0.082632,-0.582363,0.441016,0.677887,95.536168,45.780092,-116.212737
52892,-7.395057,7.080258,-0.602264,-0.058112,0.107053,0.442297,0.498579,-0.042001,0.100424,-0.073985,0.070780,-0.005862,0.999997,0.002493,-0.000210,0.000502,-0.081451,-0.582160,0.443045,0.676880,95.787207,45.719637,-116.260744
52893,-7.078114,7.392324,-0.459485,-0.425545,-0.183900,0.421682,0.358190,-0.028732,0.066745,-0.070805,0.073908,-0.004473,0.999998,0.001791,-0.000144,0.000334,-0.080593,-0.582017,0.444493,0.676156,95.967310,45.677859,-116.295509
52894,-6.934626,7.273830,0.069500,-0.889220,0.078132,0.197589,0.154990,0.027620,0.018048,-0.069353,0.072731,0.000761,1.000000,0.000775,0.000138,0.000090,-0.080288,-0.582090,0.445089,0.675737,96.066863,45.660363,-116.280142
52895,-6.857502,7.050068,-0.177783,-0.612034,0.039692,0.004860,-0.128362,0.072818,-0.013754,-0.068571,0.070504,-0.001798,1.000000,-0.000642,0.000364,-0.000069,-0.080799,-0.582272,0.444617,0.675830,96.032279,45.658392,-116.225323
52896,-6.789155,6.525430,-0.648229,-0.007058,0.064135,-0.373944,-0.252439,0.051589,-0.026268,-0.067885,0.065255,-0.006547,0.999999,-0.001262,0.000258,-0.000131,-0.081583,-0.582360,0.443697,0.676265,95.915042,45.664718,-116.186651
52897,-6.642850,6.260840,-0.722552,0.129109,0.085274,-0.657159,-0.218627,0.061685,-0.037430,-0.066419,0.062613,-0.007273,0.999999,-0.001093,0.000308,-0.000187,-0.082252,-0.582519,0.442854,0.676599,95.823687,45.677014,-116.138907
52898,-6.769376,5.942476,-0.761515,0.336136,0.328996,-0.785166,-0.165915,0.076973,-0.048981,-0.067682,0.059435,-0.007638,1.000000,-0.000830,0.000385,-0.000245,-0.082764,-0.582776,0.442149,0.676776,95.772196,45.694904,-116.077652
52899,-6.912439,5.696981,-0.790721,0.505141,0.546866,-0.851191,-0.044672,0.045077,-0.045871,-0.069113,0.056984,-0.007904,1.000000,-0.000223,0.000225,-0.000229,-0.082861,-0.582969,0.441876,0.676777,95.771323,45.713026,-116.042771
52900,-6.774350,5.750882,-0.955155,0.578585,0.344545,-0.900712,0.101579,0.009967,-0.042925,-0.067732,0.057528,-0.009519,1.000000,0.000508,0.000050,-0.000215,-0.082465,-0.583097,0.442122,0.676554,95.833631,45.731367,-116.036685
52901,-6.571047,6.515119,-1.125529,0.349699,-0.324615,-0.503306,0.046891,-0.026257,-0.034720,-0.065698,0.065165,-0.011249,1.000000,0.000234,-0.000131,-0.000174,-0.082175,-0.583062,0.442220,0.676556,95.842883,45.747261,-116.060940
52902,-6.552657,6.548085,-0.702428,-0.041432,-0.142032,-0.523649,0.221351,-0.012069,-0.028092,-0.065517,0.065498,-0.006956,0.999999,0.001107,-0.000060,-0.000140,-0.081431,-0.583131,0.442923,0.676126,95.960088,45.758448,-116.074036
52903,-6.653636,6.960147,-0.288731,-0.543360,-0.113324,-0.195526,0.046193,0.028758,-0.044174,-0.066521,0.069617,-0.002862,1.000000,0.000231,0.000144,-0.000221,-0.081233,-0.583302,0.442969,0.675972,96.001744,45.776488,-116.052496
52904,-6.949417,6.540695,-0.395443,-0.193252,0.264605,-0.266793,-0.081515,0.047596,-0.064241,-0.069474,0.065428,-0.003965,1.000000,-0.000408,0.000238,-0.000321,-0.081382,-0.583529,0.442518,0.676054,95.982585,45.804709,-116.013725
52905,-6.817573,6.520637,-0.829049,0.149827,-0.031403,-0.343691,-0.138890,0.022922,-0.078700,-0.068151,0.065227,-0.008328,1.000000,-0.000694,0.000115,-0.000394,-0.081594,-0.583681,0.441840,0.676340,95.916905,45.842779,-115.994007
52906,-6.769118,6.548820,-0.649007,-0.028289,0.003148,-0.371904,-0.103119,0.010705,-0.083112,-0.067664,0.065513,-0.006520,1.000000,-0.000516,0.000054,-0.000416,-0.081661,-0.583816,0.441275,0.676584,95.864858,45.883978,-115.983861
52907,-6.820593,6.557949,-0.608059,-0.049923,0.041678,-0.331512,-0.105859,0.031664,-0.091442,-0.068177,0.065607,-0.006105,1.000000,-0.000529,0.000158,-0.000457,-0.081753,-0.584039,0.440668,0.676777,95.823981,45.928825,-115.955985
52908,-7.018942,6.335666,-0.630650,0.120488,0.278500,-0.341053,-0.115017,0.039161,-0.097286,-0.070160,0.063387,-0.006329,1.000000,-0.000575,0.000196,-0.000486,-0.081869,-0.584296,0.440009,0.676969,95.782689,45.976465,-115.921405
52909,-6.998419,6.547983,-0.714564,0.099985,0.088044,-0.202963,-0.020217,0.002141,-0.094869,-0.069953,0.065512,-0.007152,1.000000,-0.000101,0.000011,-0.000474,-0.081634,-0.584461,0.439693,0.677060,95.773672,46.024992,-115.917500
52910,-6.996217,6.721307,-0.644919,-0.038219,0.011414,-0.089656,0.131022,0.001268,-0.106966,-0.069926,0.067255,-0.006405,1.000000,0.000655,0.000006,-0.000535,-0.080916,-0.584711,0.439855,0.676826,95.851620,46.080353,-115.913161
52911,-6.864779,6.748064,-0.824583,0.052501,-0.181272,-0.153192,0.141764,0.017938,-0.123590,-0.068607,0.067529,-0.008192,1.000000,0.000709,0.000090,-0.000618,-0.080145,-0.585058,0.439996,0.676525,95.946646,46.144312,-115.893674
52912,-6.942536,6.463535,-0.802036,0.155219,0.045776,-0.294645,0.197911,0.044914,-0.120437,-0.069388,0.064685,-0.007941,0.999999,0.000990,0.000225,-0.000602,-0.079280,-0.585512,0.440326,0.676020,96.089895,46.204714,-115.851954
52913,-6.957361,6.864524,-0.855907,0.024059,-0.215378,-0.003908,0.161427,0.035301,-0.123714,-0.069533,0.068695,-0.008491,0.999999,0.000807,0.000177,-0.000619,-0.078490,-0.585925,0.440526,0.675625,96.206874,46.267619,-115.817709
52914,-6.961209,6.321194,-1.370607,0.678753,-0.150341,-0.335812,-0.020738,0.084680,-0.102512,-0.069585,0.063246,-0.013683,1.000000,-0.000104,0.000423,-0.000513,-0.078414,-0.586386,0.440153,0.675476,96.247736,46.315233,-115.744407
52915,-7.438793,5.995104,-0.930566,0.561562,0.564622,-0.246671,0.384968,0.004723,-0.046718,-0.074374,0.059986,-0.009188,0.999998,0.001925,0.000024,-0.000234,-0.077160,-0.586612,0.441345,0.674647,96.469759,46.336147,-115.742062
52916,-7.183885,8.217055,-0.310041,-0.996826,-0.598464,1.044217,0.626851,-0.158090,-0.020708,-0.071828,0.082187,-0.002900,0.999995,0.003134,-0.000790,-0.000104,-0.074925,-0.586320,0.443488,0.673745,96.731651,46.352880,-115.876184
52917,-6.880665,8.265910,0.103497,-1.489342,-0.590680,0.822747,0.355881,-0.119856,-0.008145,-0.068804,0.082660,0.001141,0.999998,0.001779,-0.000599,-0.000041,-0.073611,-0.586024,0.444738,0.673324,96.860120,46.360282,-115.980091
52918,-7.319172,7.891318,0.360007,-1.433325,0.046014,0.860467,0.356970,-0.145906,-0.003296,-0.073193,0.078908,0.003688,0.999998,0.001785,-0.000730,-0.000016,-0.072252,-0.585628,0.446014,0.672972,96.973372,46.366735,-116.105857
52919,-7.046285,8.372093,0.152755,-1.551446,-0.510278,1.008497,0.091650,-0.096965,-0.037400,-0.070448,0.083733,0.001532,1.000000,0.000458,-0.000485,-0.000187,-0.071664,-0.585375,0.446278,0.673080,96.966210,46.389401,-116.187953
52920,-7.104943,7.403512,-0.181154,-0.830358,-0.082514,0.416129,-0.257126,-0.006576,-0.072286,-0.071023,0.074058,-0.001909,0.999999,-0.001286,-0.000033,-0.000361,-0.072182,-0.585379,0.445234,0.673713,96.815620,46.425445,-116.192066
52921,-7.123533,6.817989,-0.896268,0.049393,-0.108802,0.087751,-0.348902,0.002118,-0.092731,-0.071204,0.068197,-0.009081,0.999998,-0.001745,0.000011,-0.000464,-0.072918,-0.585422,0.443816,0.674530,96.618995,46.472705,-116.187202
52922,-6.855560,6.697714,-1.345610,0.419476,-0.449379,-0.153971,-0.356796,0.049071,-0.093368,-0.068528,0.066985,-0.013559,0.999998,-0.001784,0.000245,-0.000467,-0.073779,-0.585621,0.442352,0.675226,96.445854,46.517093,-116.143655
52923,-6.847997,6.891721,-1.551878,0.532209,-0.689891,-0.012690,-0.476260,0.089393,-0.081713,-0.068459,0.068908,-0.015652,0.999997,-0.002381,0.000447,-0.000409,-0.075118,-0.585883,0.440500,0.676060,96.227639,46.552581,-116.068005
52924,-7.438642,4.762343,-2.257794,2.217568,0.588065,-0.989564,-0.336447,0.070195,-0.017165,-0.074390,0.047592,-0.022632,0.999999,-0.001682,0.000351,-0.000086,-0.076224,-0.585988,0.439317,0.676615,96.073712,46.552449,-116.014108
52925,-7.633392,5.684150,-1.252759,1.028947,0.667961,-0.292042,0.584837,-0.105502,0.086224,-0.076352,0.056845,-0.012402,0.999995,0.002924,-0.000528,0.000431,-0.074592,-0.585619,0.441617,0.675618,96.335293,46.504468,-116.115059
52926,-7.606147,7.094723,-0.334004,-0.385310,0.301878,0.582516,1.071855,-0.249560,0.141936,-0.076108,0.070910,-0.003055,0.999985,0.005359,-0.001248,0.000710,-0.071405,-0.584811,0.445771,0.673933,96.785672,46.434497,-116.340574
52927,-7.240757,8.079489,1.066422,-2.156831,0.271359,0.869904,1.324472,-0.330254,0.147522,-0.072485,0.080669,0.011079,0.999976,0.006622,-0.001651,0.000738,-0.067313,-0.583786,0.450803,0.671893,97.331876,46.368528,-116.633893
52928,-6.732309,9.203945,1.192297,-2.947839,-0.583738,1.252010,0.516658,-0.198967,0.067989,-0.067366,0.091985,0.012094,0.999996,0.002583,-0.000995,0.000340,-0.065608,-0.583092,0.452833,0.671298,97.499526,46.339144,-116.810913
52929,-6.718888,8.380607,0.172747,-1.723009,-0.653151,0.770901,-0.515588,-0.020257,-0.031455,-0.067176,0.083821,0.001505,0.999997,-0.002578,-0.000101,-0.000157,-0.066981,-0.582881,0.451046,0.672548,97.189897,46.353184,-116.830229
52930,-7.091151,6.940491,-0.775005,-0.135566,-0.113836,0.138385,-0.974214,0.098606,-0.093342,-0.070883,0.069399,-0.008053,0.999988,-0.004871,0.000493,-0.000467,-0.069752,-0.583046,0.447490,0.674496,96.692682,46.393872,-116.745547
52931,-7.198713,5.719375,-1.548315,1.123513,0.239322,-0.560107,-0.950099,0.081947,-0.120948,-0.071959,0.057163,-0.015725,0.999988,-0.004750,0.000410,-0.000605,-0.072318,-0.583212,0.443929,0.676432,96.201032,46.452076,-116.672443
52932,-7.035204,5.269669,-1.711505,1.434328,0.301740,-0.978417,-0.602355,0.054360,-0.124123,-0.070324,0.052689,-0.017255,0.999995,-0.003012,0.000272,-0.000621,-0.073799,-0.583407,0.441539,0.677667,95.891858,46.513896,-116.622427
52933,-6.887497,5.300471,-1.392101,1.116866,0.342036,-1.088803,-0.225367,0.032775,-0.126074,-0.068844,0.053032,-0.013969,0.999999,-0.001127,0.000164,-0.000630,-0.074124,-0.583670,0.440426,0.678129,95.785755,46.578421,-116.590375
52934,-6.745397,5.566827,-2.012229,1.501763,-0.234151,-0.967979,-0.298576,0.035781,-0.129355,-0.067422,0.055682,-0.020193,0.999999,-0.001493,0.000179,-0.000647,-0.074659,-0.583922,0.439053,0.678744,95.639591,46.644519,-116.555702
52935,-7.208926,3.356983,-2.894208,3.312224,0.928320,-2.080820,0.041822,0.043970,-0.058666,-0.072086,0.033597,-0.028919,1.000000,0.000209,0.000220,-0.000293,-0.074457,-0.584173,0.439038,0.678560,95.689184,46.670044,-116.520124
52936,-7.426104,4.828267,-1.804279,1.810678,0.734471,-0.986794,1.142248,-0.104169,0.026519,-0.074258,0.048375,-0.017805,0.999984,0.005711,-0.000521,0.000133,-0.071004,-0.584135,0.443053,0.676350,96.274671,46.655624,-116.614630
52937,-7.038134,7.403260,-0.472685,-0.595081,-0.321344,0.390686,1.517048,-0.204411,0.066329,-0.070401,0.074043,-0.004237,0.999971,0.007585,-0.001022,0.000332,-0.066365,-0.583775,0.448467,0.673558,97.011483,46.626055,-116.796388
52938,-6.694415,8.781962,1.039331,-2.656836,-0.488679,0.944629,1.285450,-0.221054,0.036708,-0.066972,0.087738,0.010883,0.999979,0.006427,-0.001105,0.000184,-0.062263,-0.583320,0.452997,0.671308,97.607738,46.615898,-116.989049
52939,-6.419234,9.003341,1.444466,-3.225447,-0.531808,0.848778,0.260088,-0.077216,-0.052538,-0.064174,0.090031,0.014537,0.999999,0.001300,-0.000386,-0.000263,-0.061175,-0.583217,0.453771,0.670975,97.709944,46.646332,-117.053111
52940,-6.735178,7.496109,0.315088,-1.497120,-0.085113,0.157504,-0.740105,0.103933,-0.130758,-0.067301,0.075016,0.002908,0.999993,-0.003701,0.000520,-0.000654,-0.063152,-0.583588,0.450902,0.672402,97.354239,46.707322,-116.958772
52941,-7.055405,6.349519,-0.978964,0.235768,0.056329,-0.273584,-0.998508,0.139348,-0.165087,-0.070509,0.063504,-0.010058,0.999987,-0.004993,0.000697,-0.000825,-0.065846,-0.584063,0.447043,0.674305,96.874189,46.785957,-116.832048
52942,-6.896009,5.976706,-1.286396,0.643398,-0.011468,-0.619398,-0.698142,0.090956,-0.157074,-0.068919,0.059776,-0.013041,0.999993,-0.003491,0.000455,-0.000785,-0.067582,-0.584444,0.444229,0.675662,96.535911,46.863707,-116.746992
52943,-6.986579,5.953813,-1.473965,0.861309,-0.060853,-0.555953,-0.410590,0.059848,-0.141960,-0.069828,0.059557,-0.014841,0.999998,-0.002053,0.000299,-0.000710,-0.068457,-0.584778,0.442436,0.676460,96.342256,46.935302,-116.689690
52944,-6.899937,5.829419,-1.224994,0.684186,0.075501,-0.723240,-0.176094,0.026609,-0.124269,-0.068965,0.058326,-0.012292,0.999999,-0.000880,0.000133,-0.000621,-0.068634,-0.585039,0.441498,0.676829,96.261384,46.998841,-116.661906
52945,-7.137908,5.906023,-1.283714,0.773640,0.133757,-0.492690,-0.031659,0.028825,-0.125958,-0.071344,0.059103,-0.012836,1.000000,-0.000158,0.000144,-0.000630,-0.068386,-0.585361,0.441043,0.676873,96.264755,47.063381,-116.632175
52946,-7.093785,5.860193,-1.938878,1.332968,-0.213044,-0.506737,0.006530,0.002972,-0.122019,-0.070902,0.058646,-0.019386,1.000000,0.000033,0.000015,-0.000610,-0.067985,-0.585600,0.440737,0.676906,96.273971,47.127144,-116.624332
52947,-7.316102,5.133051,-2.387156,2.075869,0.123967,-0.798953,0.395228,0.021008,-0.084141,-0.073142,0.051408,-0.023762,0.999998,0.001976,0.000105,-0.000421,-0.066611,-0.585947,0.441851,0.676016,96.514505,47.168326,-116.604786
52948,-7.417194,6.045963,-1.358250,0.800173,0.180241,-0.182514,0.991215,-0.052841,-0.044464,-0.074155,0.060543,-0.013302,0.999988,0.004956,-0.000264,-0.000222,-0.063463,-0.586147,0.445114,0.674001,97.048712,47.191722,-116.650441
52949,-7.324087,7.468495,-0.095906,-0.978923,-0.032162,0.602207,1.152705,-0.102745,-0.034066,-0.073228,0.074701,-0.000566,0.999983,0.005763,-0.000514,-0.000170,-0.059762,-0.586190,0.448954,0.671752,97.644102,47.213289,-116.738777
52950,-7.261156,8.078020,0.660086,-1.966790,0.009411,0.889920,0.902363,-0.112797,-0.060081,-0.072591,0.080771,0.006924,0.999990,0.004512,-0.000564,-0.000300,-0.056684,-0.586167,0.451868,0.670082,98.092359,47.250835,-116.832128
52951,-7.181656,8.172018,0.704719,-2.109592,-0.050846,0.883185,0.332396,-0.068398,-0.115765,-0.071772,0.081750,0.007158,0.999998,0.001662,-0.000342,-0.000579,-0.055189,-0.586249,0.452691,0.669579,98.246206,47.316800,-116.881613
52952,-7.215015,7.982486,0.174862,-1.579477,-0.216609,0.829934,-0.173951,-0.030921,-0.166993,-0.072084,0.079887,0.001668,0.999999,-0.000870,-0.000155,-0.000835,-0.055093,-0.586432,0.451658,0.670125,98.137485,47.408614,-116.893543
52953,-7.160988,7.313057,-0.663796,-0.573852,-0.339746,0.422364,-0.568115,-0.000365,-0.182741,-0.071543,0.073177,-0.006846,0.999996,-0.002841,-0.000002,-0.000914,-0.056167,-0.586642,0.449247,0.671472,97.822788,47.507059,-116.878540
52954,-7.278017,6.636596,-0.858246,-0.046233,-0.007013,0.074084,-0.441069,-0.031012,-0.184757,-0.072717,0.066414,-0.008740,0.999997,-0.002205,-0.000155,-0.000924,-0.056794,-0.586783,0.447262,0.672619,97.561462,47.608861,-116.889801
52955,-7.090896,5.910933,-1.159033,0.491076,0.125083,-0.522562,-0.328040,-0.031512,-0.150519,-0.070863,0.059144,-0.011698,0.999998,-0.001640,-0.000158,-0.000753,-0.057202,-0.586877,0.445755,0.673502,97.361373,47.691406,-116.905893
52956,-7.222377,5.643276,-1.131726,0.636514,0.361238,-0.606470,-0.125205,-0.047824,-0.110742,-0.072190,0.056466,-0.011370,1.000000,-0.000626,-0.000239,-0.000554,-0.057113,-0.586884,0.445053,0.673969,97.263799,47.752325,-116.940411
52957,-7.177792,5.808646,-1.246476,0.646191,0.164828,-0.519140,0.092709,-0.068566,-0.076679,-0.071751,0.058120,-0.012462,1.000000,0.000464,-0.000343,-0.000383,-0.056452,-0.586807,0.445190,0.674001,97.275321,47.795552,-116.996255
52958,-7.239596,5.621272,-1.322847,0.804785,0.270701,-0.591006,0.275910,-0.053957,-0.029337,-0.072384,0.056242,-0.013170,0.999999,0.001380,-0.000270,-0.000147,-0.055447,-0.586724,0.446079,0.673568,97.397143,47.810694,-117.044822
52959,-7.365552,5.642952,-1.413467,0.891311,0.290743,-0.473891,0.567666,-0.076159,0.016110,-0.073655,0.056463,-0.014002,0.999996,0.002838,-0.000381,0.000081,-0.053688,-0.586544,0.448087,0.672534,97.668523,47.801958,-117.117203
52960,-7.264633,5.573473,-1.642748,1.055409,0.161349,-0.571633,0.757129,-0.082970,0.059291,-0.072656,0.055775,-0.016247,0.999993,0.003786,-0.000415,0.000296,-0.051504,-0.586288,0.450856,0.671075,98.040479,47.769391,-117.200353
52961,-7.135696,6.156698,-1.384313,0.492870,-0.093946,-0.300202,1.002281,-0.076316,0.115831,-0.071387,0.061594,-0.013562,0.999987,0.005011,-0.000382,0.000579,-0.048803,-0.585979,0.454602,0.669017,98.551712,47.704778,-117.285194
52962,-7.175387,6.866743,-0.950251,-0.234210,-0.206355,0.159449,1.028539,-0.074148,0.161297,-0.071806,0.068657,-0.009176,0.999986,0.005143,-0.000371,0.000806,-0.046183,-0.585564,0.458558,0.666863,99.074552,47.614640,-117.374785
52963,-7.193497,7.259402,-0.375363,-0.932701,-0.055203,0.371266,0.940203,-0.121229,0.185202,-0.072000,0.072544,-0.003456,0.999988,0.004701,-0.000606,0.000926,-0.043790,-0.584902,0.462287,0.665028,99.514573,47.515963,-117.508154
52964,-7.073131,7.497308,-0.680617,-0.868634,-0.391119,0.472951,0.725890,-0.124467,0.195186,-0.070800,0.074928,-0.006578,0.999993,0.003629,-0.000622,0.000976,-0.042051,-0.584149,0.465325,0.663682,99.828443,47.412425,-117.646278
52965,-7.176665,7.652948,-0.516067,-1.068546,-0.286003,0.633113,0.532121,-0.088646,0.189314,-0.071837,0.076475,-0.004989,0.999996,0.002661,-0.000443,0.000947,-0.040939,-0.583480,0.467690,0.662677,100.053677,47.309226,-117.754219
52966,-7.320726,7.859176,-0.503142,-1.149164,-0.275649,0.874510,0.414856,-0.086724,0.167100,-0.073271,0.078541,-0.004900,0.999997,0.002074,-0.000434,0.000835,-0.040102,-0.582841,0.469599,0.661940,100.215207,47.218449,-117.857538
52967,-7.336506,7.410901,-0.783126,-0.703069,-0.153361,0.620011,0.256770,-0.061175,0.150331,-0.073418,0.074064,-0.007759,0.999999,0.001284,-0.000306,0.000752,-0.039728,-0.582293,0.470928,0.661501,100.303573,47.134833,-117.937308
52968,-7.307986,7.140663,-1.417288,-0.065616,-0.370358,0.495705,0.162398,-0.093062,0.133273,-0.073121,0.071369,-0.014149,0.999999,0.000812,-0.000465,0.000666,-0.039499,-0.581659,0.471901,0.661379,100.320434,47.063966,-118.040905
52969,-7.001865,7.063560,-1.522861,-0.038043,-0.560999,0.233353,0.163746,-0.074572,0.115805,-0.070054,0.070607,-0.015197,0.999999,0.000819,-0.000373,0.000579,-0.039251,-0.581128,0.472823,0.661202,100.351380,47.001260,-118.126495
52970,-7.231882,6.983597,-1.199139,-0.185169,-0.179329,0.308687,0.160402,-0.042108,0.097759,-0.072350,0.069810,-0.011951,1.000000,0.000802,-0.000211,0.000489,-0.039031,-0.580744,0.473675,0.660942,100.402050,46.945210,-118.182491
52971,-7.226363,6.443549,-1.346979,0.200064,0.037706,-0.039635,0.157648,-0.051098,0.073190,-0.072284,0.064420,-0.013437,1.000000,0.000788,-0.000255,0.000366,-0.038714,-0.580389,0.474447,0.660719,100.448507,46.904176,-118.242215
52972,-7.172231,6.274817,-1.751873,0.587267,-0.129345,-0.142027,0.243063,-0.034500,0.053900,-0.071736,0.062750,-0.017455,0.999999,0.001215,-0.000173,0.000270,-0.038127,-0.580149,0.475443,0.660248,100.556003,46.872121,-118.285325
52973,-7.331981,6.174264,-1.570468,0.532120,0.138003,-0.115079,0.335588,-0.022126,0.040540,-0.073331,0.061754,-0.015609,0.999999,0.001678,-0.000111,0.000203,-0.037256,-0.579999,0.476701,0.659522,100.725442,46.846560,-118.316290
52974,-7.099185,6.407429,-1.563920,0.316902,-0.113247,-0.128364,0.405304,-0.049719,0.023590,-0.070996,0.064097,-0.015527,0.999998,0.002027,-0.000249,0.000118,-0.036061,-0.579809,0.478144,0.658710,100.920136,46.833379,-118.367348
52975,-6.917655,6.502596,-1.420454,0.075523,-0.177227,-0.214863,0.397860,-0.025654,0.022373,-0.069182,0.065046,-0.014084,0.999998,0.001989,-0.000128,0.000112,-0.034941,-0.579698,0.479552,0.657845,101.125106,46.818563,-118.398534
52976,-6.958994,6.444572,-1.042991,-0.201531,0.114792,-0.273605,0.380805,-0.016698,0.012031,-0.069593,0.064461,-0.010313,0.999998,0.001904,-0.000083,0.000060,-0.033858,-0.579635,0.480871,0.656993,101.326862,46.808439,-118.420685
52977,-6.903376,6.566477,-0.967821,-0.357054,0.070428,-0.242973,0.241841,-0.036235,-0.004029,-0.069031,0.065678,-0.009611,0.999999,0.001209,-0.000181,-0.000020,-0.033077,-0.579522,0.481689,0.656533,101.439203,46.809785,-118.456318
52978,-6.767960,6.372012,-1.522457,0.131447,-0.233312,-0.397063,0.077360,-0.027375,-0.015771,-0.067672,0.063731,-0.015209,1.000000,0.000387,-0.000137,-0.000079,-0.032757,-0.579439,0.481931,0.656445,101.464020,46.816547,-118.482681
52979,-6.849137,6.350937,-1.345669,0.024381,-0.067807,-0.376019,0.118047,-0.036265,-0.025900,-0.068481,0.063526,-0.013432,1.000000,0.000590,-0.000181,-0.000130,-0.032263,-0.579357,0.482278,0.656286,101.508064,46.830220,-118.514698
52980,-6.885877,6.194657,-1.141945,-0.048534,0.157883,-0.481780,0.064130,-0.034980,-0.042917,-0.068843,0.061965,-0.011412,1.000000,0.000321,-0.000175,-0.000215,-0.031873,-0.579312,0.482400,0.656256,101.524058,46.853108,-118.542756
52981,-6.933205,5.872634,-1.564416,0.466276,0.102055,-0.605259,-0.002411,-0.042951,-0.048733,-0.069314,0.058743,-0.015660,1.000000,-0.000012,-0.000215,-0.000244,-0.031637,-0.579244,0.482286,0.656411,101.497835,46.880374,-118.576462
52982,-6.859843,5.908274,-1.537371,0.399090,0.051391,-0.638444,0.137715,-0.049018,-0.054765,-0.068578,0.059112,-0.015350,1.000000,0.000689,-0.000245,-0.000274,-0.030962,-0.579193,0.482617,0.656246,101.548989,46.911534,-118.614090
52983,-6.938629,6.340214,-1.372029,0.061414,-0.033909,-0.314244,0.191955,-0.054932,-0.056295,-0.069365,0.063435,-0.013678,0.999999,0.000960,-0.000275,-0.000281,-0.030109,-0.579134,0.483121,0.655967,101.627854,46.944454,-118.656352
52984,-6.992448,6.373512,-1.429237,0.097520,-0.055403,-0.244714,0.130141,-0.046056,-0.067754,-0.069900,0.063768,-0.014267,1.000000,0.000651,-0.000230,-0.000339,-0.029420,-0.579121,0.483388,0.655812,101.678083,46.982623,-118.689275
52985,-6.989633,6.357903,-1.401749,0.074567,-0.035983,-0.260937,0.125784,-0.045839,-0.084711,-0.069866,0.063617,-0.013994,1.000000,0.000629,-0.000229,-0.000424,-0.028687,-0.579150,0.483590,0.655670,101.728036,47.030487,-118.719179
52986,-7.012437,6.472169,-1.388650,0.003232,-0.079899,-0.169804,0.106089,-0.038635,-0.093782,-0.070091,0.064762,-0.013866,1.000000,0.000530,-0.000193,-0.000469,-0.028001,-0.579221,0.483701,0.655555,101.772218,47.082429,-118.741490
52987,-7.094023,6.354379,-1.345688,0.049635,0.050898,-0.194522,0.060593,-0.024701,-0.110278,-0.070904,0.063587,-0.013446,1.000000,0.000303,-0.000124,-0.000551,-0.027424,-0.579371,0.483613,0.655512,101.800798,47.142189,-118.749533
52988,-7.127842,6.241418,-1.531548,0.259422,0.010424,-0.218958,0.030127,-0.044239,-0.122061,-0.071237,0.062460,-0.015322,1.000000,0.000151,-0.000221,-0.000610,-0.026851,-0.579481,0.483393,0.655601,101.801624,47.210665,-118.771572
52989,-6.907224,6.130421,-1.763590,0.421155,-0.211922,-0.422280,0.067377,-0.051663,-0.131874,-0.069027,0.061356,-0.017633,1.000000,0.000337,-0.000258,-0.000659,-0.026119,-0.579595,0.483268,0.655622,101.820474,47.285700,-118.798142
52990,-6.862566,6.375964,-1.384897,-0.030277,-0.148574,-0.344707,0.131879,-0.024077,-0.127871,-0.068583,0.063813,-0.013815,1.000000,0.000659,-0.000120,-0.000639,-0.025281,-0.579798,0.483362,0.655406,101.892615,47.355078,-118.802437
52991,-7.156933,6.292161,-1.261794,0.000904,0.138445,-0.200928,0.128103,-0.032668,-0.132153,-0.071526,0.062977,-0.012589,1.000000,0.000641,-0.000163,-0.000661,-0.024417,-0.579982,0.483431,0.655224,101.957935,47.428057,-118.813080
52992,-7.125976,5.967305,-1.429960,0.282274,0.183271,-0.414828,0.133796,-0.045759,-0.138870,-0.071215,0.059732,-0.014276,1.000000,0.000669,-0.000229,-0.000694,-0.023485,-0.580140,0.483501,0.655067,102.019514,47.506185,-118.833192
52993,-7.114342,6.114383,-1.476866,0.222218,0.063109,-0.319149,0.251610,-0.056027,-0.134902,-0.071098,0.061210,-0.014712,0.999999,0.001258,-0.000280,-0.000675,-0.022198,-0.580267,0.483969,0.654653,102.141828,47.583524,-118.862473
52994,-7.028532,6.807482,-1.301410,-0.329677,-0.254066,0.049487,0.219664,-0.061047,-0.138542,-0.070234,0.068138,-0.012961,0.999999,0.001098,-0.000305,-0.000693,-0.020981,-0.580383,0.484322,0.654330,102.243413,47.663378,-118.894985
52995,-7.160871,6.714191,-1.170457,-0.355900,-0.053344,0.066526,0.175514,-0.038571,-0.154754,-0.071554,0.067208,-0.011659,0.999999,0.000878,-0.000193,-0.000774,-0.019892,-0.580605,0.484479,0.654050,102.335718,47.749774,-118.905817
52996,-7.284327,6.432773,-1.302596,-0.075493,0.077697,-0.008251,0.070726,-0.049718,-0.168753,-0.072786,0.064394,-0.013021,1.000000,0.000354,-0.000249,-0.000844,-0.019036,-0.580814,0.484255,0.654057,102.363120,47.845195,-118.923174
52997,-7.356341,6.183143,-1.363367,0.117715,0.202077,-0.109541,0.102023,-0.058404,-0.185984,-0.073502,0.061907,-0.013624,0.999999,0.000510,-0.000292,-0.000930,-0.018010,-0.581039,0.484082,0.654014,102.405386,47.951516,-118.944665
52998,-7.314615,6.165472,-1.362524,0.099466,0.173756,-0.151788,0.105900,-0.047435,-0.202820,-0.073080,0.061736,-0.013610,0.999999,0.000529,-0.000237,-0.001014,-0.016945,-0.581339,0.483872,0.653930,102.459084,48.065741,-118.953699
52999,-7.413932,6.170027,-1.558146,0.265762,0.095358,-0.046231,0.115081,-0.039058,-0.210633,-0.074071,0.061787,-0.015560,0.999999,0.000575,-0.000195,-0.001053,-0.015848,-0.581687,0.483668,0.653800,102.524406,48.183480,-118.954196
53000,-7.290303,6.348337,-1.555270,0.108875,-0.082335,-0.022382,0.219824,-0.063655,-0.194031,-0.072836,0.063571,-0.015506,0.999999,0.001099,-0.000318,-0.000970,-0.014441,-0.581920,0.483856,0.653486,102.632269,48.294838,-118.978096
53001,-7.381968,6.422795,-1.302521,-0.117795,0.076977,0.057595,0.235772,-0.068325,-0.178976,-0.073758,0.064309,-0.012975,0.999999,0.001179,-0.000342,-0.000895,-0.013025,-0.582103,0.484138,0.653144,102.744323,48.398566,-119.008597
53002,-7.357995,6.372505,-1.384898,-0.053709,0.029721,0.019049,0.273560,-0.108658,-0.166459,-0.073519,0.063805,-0.013802,0.999999,0.001368,-0.000543,-0.000832,-0.011444,-0.582124,0.484583,0.652825,102.851004,48.500292,-119.075137
53003,-7.206559,6.602708,-1.273732,-0.334132,-0.119545,0.037524,0.308456,-0.125861,-0.156674,-0.072006,0.066103,-0.012681,0.999998,0.001542,-0.000629,-0.000783,-0.009749,-0.582065,0.485169,0.652470,102.965376,48.599005,-119.158011
53004,-7.187957,6.631057,-1.028216,-0.564604,0.001283,0.004443,0.314627,-0.107819,-0.144066,-0.071826,0.066378,-0.010217,0.999998,0.001573,-0.000539,-0.000720,-0.008123,-0.582033,0.485809,0.652044,103.092952,48.688295,-119.227859
53005,-7.203194,6.708249,-1.110313,-0.558306,-0.086977,0.076706,0.260795,-0.096279,-0.134760,-0.071981,0.067145,-0.011050,0.999999,0.001304,-0.000481,-0.000674,-0.006711,-0.582012,0.486299,0.651713,103.195639,48.771153,-119.289718
53006,-7.165997,6.815395,-1.324445,-0.480618,-0.305438,0.148787,0.158470,-0.087852,-0.120756,-0.071613,0.068208,-0.013222,0.999999,0.000792,-0.000439,-0.000604,-0.005664,-0.581980,0.486496,0.651605,103.242982,48.844963,-119.347096
53007,-7.124047,6.667080,-1.500139,-0.287217,-0.368724,0.048040,0.121360,-0.067794,-0.097109,-0.071203,0.066714,-0.014985,1.000000,0.000607,-0.000339,-0.000486,-0.004849,-0.581955,0.486638,0.651528,103.278260,48.903163,-119.392249
53008,-7.167094,6.693805,-1.430958,-0.349341,-0.320500,0.086663,0.106996,-0.057655,-0.084159,-0.071639,0.066976,-0.014294,1.000000,0.000535,-0.000288,-0.000421,-0.004145,-0.581930,0.486772,0.651455,103.309815,48.952617,-119.431333
53009,-7.152694,6.564892,-1.446195,-0.276292,-0.275851,-0.004635,0.063709,-0.047257,-0.072135,-0.071500,0.065679,-0.014458,1.000000,0.000319,-0.000236,-0.000361,-0.003629,-0.581909,0.486799,0.651457,103.321380,48.994211,-119.464067
53010,-7.340418,6.391989,-1.358201,-0.189989,-0.027309,0.013152,0.042657,-0.031280,-0.067096,-0.073381,0.063947,-0.013580,1.000000,0.000213,-0.000156,-0.000335,-0.003232,-0.581926,0.486772,0.651463,103.330337,49.030665,-119.484195
53011,-7.363444,6.464828,-1.609059,-0.034597,-0.217028,0.114803,-0.010296,-0.050155,-0.068491,-0.073608,0.064673,-0.016112,1.000000,-0.000051,-0.000251,-0.000342,-0.002936,-0.581885,0.486568,0.651653,103.297015,49.070609,-119.520181
53012,-7.289467,6.563122,-1.624022,-0.103086,-0.327847,0.123621,0.005503,-0.045732,-0.068338,-0.072869,0.065657,-0.016255,1.000000,0.000028,-0.000229,-0.000342,-0.002608,-0.581858,0.486417,0.651792,103.275500,49.109643,-119.552436
53013,-7.410469,6.346197,-1.560003,0.008040,-0.111425,0.067110,-0.014111,-0.030420,-0.073071,-0.074079,0.063488,-0.015616,1.000000,-0.000071,-0.000152,-0.000365,-0.002357,-0.581893,0.486187,0.651934,103.253290,49.149526,-119.570792
53014,-7.462191,6.047673,-1.588358,0.211926,0.050679,-0.079546,0.031700,-0.037958,-0.077444,-0.074595,0.060508,-0.015888,1.000000,0.000159,-0.000190,-0.000387,-0.001941,-0.581913,0.486095,0.651986,103.253096,49.192596,-119.594666
53015,-7.420059,5.907932,-1.903766,0.513118,-0.104744,-0.152926,0.057844,-0.044670,-0.066741,-0.074177,0.059110,-0.019037,1.000000,0.000289,-0.000223,-0.000334,-0.001467,-0.581886,0.486117,0.651994,103.261893,49.230819,-119.626499
53016,-7.408944,6.179069,-1.928228,0.366745,-0.272172,0.014968,0.218703,-0.043565,-0.055585,-0.074068,0.061832,-0.019231,0.999999,0.001094,-0.000218,-0.000278,-0.000565,-0.581836,0.486698,0.651607,103.361896,49.262465,-119.659530
53017,-7.282987,6.459308,-1.406831,-0.243224,-0.157752,0.018877,0.321550,-0.046725,-0.037756,-0.072814,0.064629,-0.013981,0.999999,0.001608,-0.000234,-0.000189,0.000587,-0.581732,0.487663,0.650978,103.516060,49.284876,-119.698887
53018,-7.230306,6.460842,-1.218257,-0.420105,-0.062351,-0.049309,0.288286,-0.033780,-0.029505,-0.072291,0.064637,-0.012102,0.999999,0.001441,-0.000169,-0.000148,0.001583,-0.581648,0.488544,0.650391,103.658334,49.300777,-119.728728
53019,-7.274747,6.532738,-1.240120,-0.442210,-0.083826,0.032815,0.185824,-0.040722,-0.020149,-0.072738,0.065346,-0.012355,1.000000,0.000929,-0.000204,-0.000101,0.002268,-0.581519,0.489117,0.650073,103.735924,49.312688,-119.766495
53020,-7.288442,6.477516,-1.236208,-0.416137,-0.042143,0.007336,0.128427,-0.035717,-0.014569,-0.072877,0.064788,-0.012333,1.000000,0.000642,-0.000179,-0.000073,0.002755,-0.581392,0.489521,0.649881,103.782997,49.320588,-119.801071
53021,-7.398180,6.270820,-1.084380,-0.379488,0.224966,-0.063969,0.045101,-0.036591,-0.017491,-0.073974,0.062717,-0.010843,1.000000,0.000226,-0.000183,-0.000087,0.003013,-0.581271,0.489644,0.649895,103.782213,49.330492,-119.835856
53022,-7.375150,5.918467,-1.449775,0.091593,0.158038,-0.247669,-0.039449,-0.050791,-0.029858,-0.073739,0.059193,-0.014528,1.000000,-0.000197,-0.000254,-0.000149,0.003098,-0.581135,0.489457,0.650157,103.725709,49.348948,-119.880151
53023,-7.218378,6.038192,-1.555243,0.055990,-0.067387,-0.274562,-0.086588,-0.048296,-0.046459,-0.072166,0.060392,-0.015596,1.000000,-0.000433,-0.000241,-0.000232,0.003096,-0.581049,0.489067,0.650527,103.646402,49.376527,-119.918963
53024,-7.421417,5.825465,-1.988539,0.575210,-0.126784,-0.188717,-0.135367,-0.002565,-0.052521,-0.074199,0.058261,-0.019926,1.000000,-0.000677,-0.000013,-0.000263,0.002858,-0.581126,0.488503,0.650883,103.569715,49.401032,-119.917422
53025,-7.530982,5.906212,-2.029210,0.596368,-0.138470,-0.048370,0.027641,-0.012902,-0.051190,-0.075293,0.059084,-0.020289,1.000000,0.000138,-0.000065,-0.000256,0.003117,-0.581165,0.488472,0.650870,103.579494,49.426438,-119.925079
53026,-7.510196,5.869862,-1.625333,0.300459,0.125206,-0.148627,0.136462,-0.022933,-0.048341,-0.075086,0.058728,-0.016222,1.000000,0.000682,-0.000115,-0.000242,0.003705,-0.581162,0.488804,0.650621,103.644687,49.451370,-119.941808
53027,-7.589066,5.770408,-1.667026,0.404309,0.195550,-0.144762,0.236003,-0.039390,-0.040707,-0.075876,0.057739,-0.016617,0.999999,0.001180,-0.000197,-0.000204,0.004600,-0.581084,0.489481,0.650176,103.754999,49.474545,-119.974262
53028,-7.469023,6.303962,-1.645841,0.029265,-0.133489,0.097728,0.289282,-0.056538,-0.036270,-0.074674,0.063077,-0.016388,0.999999,0.001446,-0.000283,-0.000181,0.005676,-0.580937,0.490343,0.649649,103.884040,49.497415,-120.022180
53029,-7.521074,6.377061,-1.302520,-0.268595,0.083173,0.129694,0.297715,-0.045132,-0.041931,-0.075194,0.063806,-0.012947,0.999999,0.001489,-0.000226,-0.000210,0.006768,-0.580840,0.491214,0.649067,104.026249,49.522158,-120.059162
53030,-7.439912,6.288870,-1.281820,-0.273458,0.098920,0.008751,0.230904,-0.066284,-0.066935,-0.074374,0.062928,-0.012770,0.999999,0.001155,-0.000331,-0.000335,0.007797,-0.580737,0.491795,0.648708,104.120541,49.563564,-120.108746
53031,-7.234059,6.175397,-1.387817,-0.206411,-0.028861,-0.202811,0.154060,-0.063629,-0.085579,-0.072310,0.061796,-0.013854,1.000000,0.000770,-0.000318,-0.000428,0.008659,-0.580691,0.492071,0.648529,104.175570,49.615227,-120.152083
53032,-7.241931,6.034598,-1.616947,0.039414,-0.104964,-0.249013,0.097915,-0.024734,-0.098838,-0.072387,0.060390,-0.016149,1.000000,0.000490,-0.000124,-0.000494,0.009303,-0.580805,0.492129,0.648374,104.226061,49.668581,-120.159074
53033,-7.277799,6.190380,-1.436403,-0.183452,-0.053228,-0.152774,0.081659,-0.016292,-0.104526,-0.072744,0.061948,-0.014345,1.000000,0.000408,-0.000081,-0.000523,0.009900,-0.580961,0.492117,0.648234,104.273733,49.724140,-120.157593
53034,-7.326420,5.972563,-1.246324,-0.190008,0.203996,-0.282549,0.045121,-0.007632,-0.105389,-0.073232,0.059767,-0.012453,1.000000,0.000226,-0.000038,-0.000527,0.010370,-0.581149,0.491986,0.648158,104.306363,49.778716,-120.148341
53035,-7.448436,5.884428,-1.355311,-0.023917,0.239590,-0.227043,-0.006364,-0.015825,-0.106073,-0.074452,0.058883,-0.013561,1.000000,-0.000032,-0.000079,-0.000530,0.010715,-0.581314,0.491684,0.648233,104.304236,49.835067,-120.146032
53036,-7.479905,5.760130,-1.531467,0.185705,0.198496,-0.252375,0.000196,-0.028276,-0.102150,-0.074767,0.057640,-0.015325,1.000000,0.000001,-0.000141,-0.000511,0.011095,-0.581429,0.491414,0.648328,104.297014,49.890773,-120.155250
53037,-7.565019,5.837154,-1.730278,0.309915,0.069256,-0.107282,0.079301,-0.036310,-0.101396,-0.075617,0.058417,-0.017293,1.000000,0.000397,-0.000182,-0.000507,0.011724,-0.581512,0.491402,0.648252,104.329685,49.947429,-120.171616
53038,-7.614865,5.903402,-1.744801,0.287972,0.047839,-0.025174,0.175978,-0.049153,-0.095423,-0.076116,0.059086,-0.017415,0.999999,0.000880,-0.000246,-0.000477,0.012644,-0.581532,0.491721,0.647975,104.408305,50.002388,-120.200249
