// General information: 
//  MT Manager version: 2022.0.0 
//  XDA version: 2022.0.0 build 7085 rev 119802 built on 2022-11-08
// Device information: 
//  DeviceId: 00B4737C
//  ProductCode: MTW2-3A7G6
//  Firmware Version: 4.14.0
//  Hardware Version: 2.0.0
// Device settings: 
//  Filter Profile: human(46.1)
//  Option Flags: Orientation Smoother Disabled, Position/Velocity Smoother Disabled, Continuous Zero Rotation Update Disabled, AHS Disabled, ICC Disabled
// Coordinate system: ENU
PacketCounter,Acc_X,Acc_Y,Acc_Z,FreeAcc_E,FreeAcc_N,FreeAcc_U,Gyr_X,Gyr_Y,Gyr_Z,VelInc_X,VelInc_Y,VelInc_Z,OriInc_q0,OriInc_q1,OriInc_q2,OriInc_q3,Quat_q0,Quat_q1,Quat_q2,Quat_q3,Roll,Pitch,Yaw
57312,-2.097632,1.304534,9.552509,0.273772,0.053629,0.050093,-0.035928,0.150128,-0.064354,-0.020900,0.013069,0.095538,1.000000,-0.000180,0.000751,-0.000322,-0.946259,-0.033350,-0.136272,-0.291395,8.439686,13.795773,35.254649
57313,-2.245595,1.328973,9.657565,0.183250,0.005893,0.189501,-0.028948,0.177674,-0.063643,-0.022366,0.013311,0.096594,1.000000,-0.000145,0.000888,-0.000318,-0.946220,-0.032886,-0.137055,-0.291207,8.414996,13.899240,35.239940
57314,-2.399491,1.363481,9.809455,0.097822,-0.035848,0.377071,-0.011552,0.179415,-0.063533,-0.023903,0.013648,0.098115,1.000000,-0.000058,0.000897,-0.000318,-0.946177,-0.032505,-0.137868,-0.291008,8.400619,14.003218,35.225364
57315,-2.393715,1.416495,9.896783,0.111350,0.024757,0.466885,-0.001659,0.160004,-0.058870,-0.023854,0.014173,0.098987,1.000000,-0.000008,0.000800,-0.000294,-0.946137,-0.032198,-0.138605,-0.290821,8.391796,14.096248,35.211845
57316,-2.366163,1.450744,9.965062,0.146457,0.079936,0.530329,0.007224,0.150497,-0.050449,-0.023583,0.014510,0.099669,1.000000,0.000036,0.000752,-0.000252,-0.946090,-0.031957,-0.139307,-0.290665,8.389379,14.182736,35.202379
57317,-2.335857,1.510524,9.979171,0.154212,0.155496,0.544618,0.011260,0.136888,-0.043252,-0.023287,0.015105,0.099809,1.000000,0.000056,0.000684,-0.000216,-0.946040,-0.031756,-0.139951,-0.290539,8.389666,14.261340,35.195973
57318,-2.408898,1.456928,9.905804,0.115746,0.076316,0.484456,0.011363,0.127154,-0.034367,-0.024023,0.014568,0.099074,1.000000,0.000057,0.000636,-0.000172,-0.945985,-0.031580,-0.140545,-0.290453,8.391419,14.333253,35.193893
57319,-2.517431,1.434853,9.823117,0.028934,0.001753,0.428847,0.026245,0.115858,-0.020712,-0.025116,0.014338,0.098248,1.000000,0.000131,0.000579,-0.000104,-0.945914,-0.031497,-0.141107,-0.290419,8.403104,14.398030,35.198862
57320,-2.530652,1.421082,9.648141,-0.013834,-0.017345,0.262520,0.044116,0.095539,-0.019971,-0.025259,0.014192,0.096497,1.000000,0.000221,0.000478,-0.000100,-0.945854,-0.031531,-0.141597,-0.290373,8.425043,14.450817,35.202500
57321,-2.316719,1.699821,9.788541,0.054842,0.339548,0.383086,0.036654,0.100137,-0.040551,-0.023115,0.016985,0.097900,1.000000,0.000183,0.000501,-0.000203,-0.945821,-0.031506,-0.142104,-0.290235,8.439468,14.508346,35.194534
57322,-2.323711,1.790226,10.068662,0.088591,0.424537,0.665595,-0.041721,0.099964,-0.068918,-0.023181,0.017931,0.100694,1.000000,-0.000209,0.000500,-0.000345,-0.945842,-0.031093,-0.142497,-0.290019,8.405138,14.567748,35.169905
57323,-2.397445,1.517343,10.087123,0.186905,0.169165,0.662834,-0.063650,0.082167,-0.073954,-0.023927,0.015214,0.100876,1.000000,-0.000318,0.000411,-0.000370,-0.945885,-0.030596,-0.142778,-0.289791,8.356773,14.617842,35.140764
57324,-2.610043,1.491038,10.069814,0.029325,0.038049,0.696089,-0.036071,0.037396,-0.060129,-0.026077,0.014936,0.100700,1.000000,-0.000180,0.000187,-0.000301,-0.945937,-0.030307,-0.142883,-0.289603,8.325561,14.641010,35.115813
57325,-2.600199,1.465653,9.950337,0.015920,0.022867,0.575653,0.009509,-0.012356,-0.040982,-0.026005,0.014657,0.099502,1.000000,0.000048,-0.000062,-0.000205,-0.945989,-0.030316,-0.142817,-0.289465,8.321915,14.634735,35.097829
57326,-2.564437,1.507328,9.696560,-0.052806,0.069135,0.329506,0.031048,-0.033075,-0.028366,-0.025658,0.015062,0.096964,1.000000,0.000155,-0.000165,-0.000142,-0.946034,-0.030470,-0.142681,-0.289368,8.332333,14.615311,35.085439
57327,-2.574954,1.494864,9.448747,-0.127278,0.043108,0.093157,0.038469,-0.034471,-0.026482,-0.025764,0.014934,0.094486,1.000000,0.000192,-0.000172,-0.000132,-0.946076,-0.030658,-0.142551,-0.289274,8.346960,14.595296,35.074052
57328,-2.286269,1.555200,9.266244,0.016247,0.246358,-0.145837,0.036689,-0.002410,-0.038319,-0.022861,0.015539,0.092665,1.000000,0.000183,-0.000012,-0.000192,-0.946113,-0.030787,-0.142569,-0.289130,8.359810,14.594089,35.058462
57329,-2.354729,1.516018,9.266593,-0.014389,0.176351,-0.133767,0.009975,0.047486,-0.040910,-0.023522,0.015160,0.092672,1.000000,0.000050,0.000237,-0.000205,-0.946122,-0.030712,-0.142787,-0.289001,8.357774,14.621731,35.045670
57330,-2.268388,1.574004,9.338040,0.048631,0.277579,-0.079105,0.020537,0.079408,-0.041317,-0.022644,0.015735,0.093391,1.000000,0.000103,0.000397,-0.000207,-0.946107,-0.030644,-0.143170,-0.288868,8.362692,14.667156,35.035365
57331,-2.111353,1.725620,9.673214,0.195566,0.504607,0.222937,-0.004176,0.104753,-0.038393,-0.021060,0.017262,0.096743,1.000000,-0.000021,0.000524,-0.000192,-0.946073,-0.030422,-0.143638,-0.288770,8.354172,14.727035,35.028974
57332,-2.232982,1.750193,9.929664,0.168492,0.470479,0.502247,0.010025,0.103969,-0.026725,-0.022276,0.017500,0.099309,1.000000,0.000050,0.000520,-0.000134,-0.946021,-0.030279,-0.144119,-0.288716,8.355763,14.785166,35.029328
57333,-2.424604,1.802401,10.173661,0.066877,0.418961,0.791591,0.003079,0.074470,-0.007733,-0.024207,0.018023,0.101746,1.000000,0.000015,0.000372,-0.000039,-0.945963,-0.030157,-0.144450,-0.288753,8.355346,14.825281,35.038296
57334,-2.581346,1.713490,10.223894,0.009389,0.260747,0.867168,0.023614,0.019706,0.022443,-0.025805,0.017120,0.102244,1.000000,0.000118,0.000099,0.000112,-0.945899,-0.030235,-0.144544,-0.288909,8.370245,14.831549,35.060227
57335,-2.456759,1.766622,10.151899,0.059030,0.367801,0.774045,0.046647,-0.037704,0.044964,-0.024591,0.017637,0.101518,1.000000,0.000233,-0.000189,0.000225,-0.945839,-0.030520,-0.144399,-0.289147,8.400249,14.803648,35.090420
57336,-2.341605,1.722754,9.948232,0.112010,0.381839,0.543951,0.046229,-0.065273,0.059755,-0.023454,0.017198,0.099479,1.000000,0.000231,-0.000326,0.000299,-0.945778,-0.030855,-0.144119,-0.289450,8.431788,14.758602,35.126853
57337,-2.132596,1.707530,9.848589,0.253435,0.473931,0.393658,0.050873,-0.055787,0.069828,-0.021359,0.017043,0.098484,1.000000,0.000254,-0.000279,0.000349,-0.945694,-0.031203,-0.143890,-0.289800,8.467495,14.718297,35.169998
57338,-2.117497,1.637411,9.814431,0.292279,0.415207,0.347536,0.052054,-0.017703,0.075077,-0.021190,0.016341,0.098147,1.000000,0.000260,-0.000089,0.000375,-0.945576,-0.031508,-0.143841,-0.290179,8.505645,14.698870,35.219497
57339,-2.254391,1.549279,9.918132,0.264152,0.260955,0.469045,0.069403,0.009179,0.086024,-0.022546,0.015449,0.099188,1.000000,0.000347,0.000046,0.000430,-0.945418,-0.031862,-0.143943,-0.290601,8.555800,14.693891,35.277764
57340,-2.387835,1.645924,9.961147,0.123810,0.259315,0.558074,0.085425,0.013398,0.096323,-0.023880,0.016405,0.099620,1.000000,0.000427,0.000067,0.000482,-0.945240,-0.032295,-0.144086,-0.291061,8.616899,14.690183,35.342418
57341,-2.601044,1.731191,10.148305,-0.031340,0.205923,0.803675,0.076015,0.001376,0.090719,-0.026018,0.017262,0.101490,1.000000,0.000380,0.000007,0.000454,-0.945080,-0.032695,-0.144160,-0.291500,8.671360,14.680237,35.402723
57342,-2.804559,1.695843,10.185694,-0.161312,0.054217,0.885950,0.041628,-0.056177,0.080804,-0.028081,0.016926,0.101853,1.000000,0.000208,-0.000281,0.000404,-0.944981,-0.033011,-0.143913,-0.291907,8.703451,14.638356,35.452051
57343,-2.685711,1.591366,10.045068,-0.058524,0.021812,0.706104,0.011443,-0.117337,0.073876,-0.026922,0.015898,0.100436,1.000000,0.000057,-0.000587,0.000369,-0.944941,-0.033268,-0.143334,-0.292292,8.715670,14.562571,35.491822
57344,-2.452965,1.509195,9.811715,0.090200,0.069227,0.412355,0.009518,-0.153062,0.066205,-0.024610,0.015079,0.098099,1.000000,0.000048,-0.000765,0.000331,-0.944938,-0.033563,-0.142584,-0.292637,8.724910,14.467061,35.523859
57345,-2.386359,1.481969,9.651131,0.098071,0.069742,0.238221,0.014768,-0.159379,0.054489,-0.023945,0.014806,0.096493,1.000000,0.000074,-0.000797,0.000272,-0.944954,-0.033882,-0.141815,-0.292921,8.735137,14.369135,35.548458
57346,-2.388922,1.420527,9.515626,0.078626,0.003116,0.100222,0.039099,-0.149553,0.043053,-0.023963,0.014182,0.095141,1.000000,0.000195,-0.000748,0.000215,-0.944975,-0.034296,-0.141129,-0.293135,8.757935,14.277615,35.567207
57347,-2.516716,1.481261,9.494197,-0.071064,-0.031984,0.120171,0.060557,-0.141691,0.037295,-0.025237,0.014779,0.094929,1.000000,0.000303,-0.000708,0.000186,-0.944995,-0.034794,-0.140513,-0.293308,8.792218,14.191178,35.583255
57348,-2.769112,1.500544,9.570054,-0.268527,-0.171123,0.257274,0.062178,-0.160510,0.026298,-0.027770,0.014972,0.095683,1.000000,0.000311,-0.000803,0.000131,-0.945043,-0.035320,-0.139812,-0.293425,8.825519,14.094905,35.591112
57349,-2.818463,1.414856,9.411556,-0.318315,-0.286917,0.103928,0.048452,-0.199590,0.023842,-0.028280,0.014122,0.094091,0.999999,0.000242,-0.000998,0.000119,-0.945124,-0.035836,-0.138907,-0.293532,8.849611,13.976874,35.593949
57350,-2.733904,1.436572,9.219178,-0.333324,-0.239139,-0.098631,0.038765,-0.222790,0.021607,-0.027443,0.014345,0.092164,0.999999,0.000194,-0.001114,0.000108,-0.945225,-0.036340,-0.137877,-0.293631,8.867426,13.845750,35.593314
57351,-2.412707,1.402128,8.933060,-0.157749,-0.103411,-0.455815,0.018781,-0.210166,0.015594,-0.024222,0.014011,0.089306,0.999999,0.000094,-0.001051,0.000078,-0.945328,-0.036726,-0.136880,-0.293718,8.873111,13.722498,35.590317
57352,-2.274290,1.312535,8.790856,-0.052872,-0.111601,-0.638865,0.020899,-0.151888,0.016711,-0.022811,0.013114,0.087893,1.000000,0.000104,-0.000759,0.000084,-0.945388,-0.037038,-0.136160,-0.293818,8.881533,13.631944,35.593238
57353,-2.365504,1.277086,8.817562,-0.106827,-0.200635,-0.597250,0.030616,-0.096340,0.018589,-0.023699,0.012755,0.088166,1.000000,0.000153,-0.000482,0.000093,-0.945406,-0.037314,-0.135718,-0.293932,8.896846,13.572876,35.602316
57354,-2.600916,1.264301,8.827426,-0.287409,-0.351305,-0.534722,0.044671,-0.051336,0.023965,-0.026033,0.012620,0.088270,1.000000,0.000223,-0.000257,0.000120,-0.945383,-0.037595,-0.135507,-0.294069,8.922011,13.538594,35.618586
57355,-2.725150,1.294483,8.912543,-0.380462,-0.402722,-0.419679,0.048388,-0.052663,0.024373,-0.027277,0.012920,0.089121,1.000000,0.000242,-0.000263,0.000122,-0.945358,-0.037895,-0.135296,-0.294205,8.949194,13.503754,35.634981
57356,-2.714627,1.284466,8.841786,-0.388505,-0.411958,-0.491980,0.037067,-0.047365,0.024220,-0.027169,0.012825,0.088414,1.000000,0.000185,-0.000237,0.000121,-0.945333,-0.038135,-0.135092,-0.294349,8.970095,13.471683,35.651728
57357,-2.682420,1.248474,8.727886,-0.377250,-0.429452,-0.614681,0.027540,-0.041462,0.025306,-0.026844,0.012469,0.087275,1.000000,0.000138,-0.000207,0.000127,-0.945303,-0.038320,-0.134904,-0.294506,8.985665,13.443139,35.669673
57358,-2.495836,1.208048,8.626795,-0.237563,-0.361208,-0.761540,0.011942,-0.018764,0.021017,-0.024968,0.012073,0.086266,1.000000,0.000060,-0.000094,0.000105,-0.945268,-0.038397,-0.134799,-0.294658,8.992329,13.427533,35.687169
57359,-2.493680,1.204665,8.602812,-0.240592,-0.364227,-0.785645,0.012049,0.017526,0.013284,-0.024930,0.012040,0.086031,1.000000,0.000060,0.000088,0.000066,-0.945219,-0.038413,-0.134870,-0.294780,8.998637,13.433487,35.703548
57360,-2.432938,1.197071,8.708606,-0.156798,-0.334194,-0.699196,-0.002357,0.051277,0.008131,-0.024308,0.011971,0.087092,1.000000,-0.000012,0.000256,0.000041,-0.945158,-0.038311,-0.135077,-0.294893,8.996868,13.458669,35.719997
57361,-2.387307,1.161150,8.768431,-0.079758,-0.334365,-0.657650,0.009716,0.083090,-0.000606,-0.023837,0.011607,0.087695,1.000000,0.000049,0.000415,-0.000003,-0.945086,-0.038210,-0.135457,-0.294964,9.001363,13.503003,35.734344
57362,-2.364526,1.231892,9.004350,-0.027803,-0.257428,-0.425472,0.010904,0.099787,-0.003088,-0.023600,0.012314,0.090056,1.000000,0.000055,0.000499,-0.000015,-0.945006,-0.038091,-0.135915,-0.295025,9.006736,13.556640,35.748746
57363,-2.425663,1.159580,9.087335,-0.004054,-0.346723,-0.342319,0.031371,0.122895,0.003479,-0.024201,0.011581,0.090890,1.000000,0.000157,0.000614,0.000017,-0.944896,-0.038036,-0.136515,-0.295107,9.025073,13.623147,35.769168
57364,-2.443575,1.292989,9.281917,-0.025481,-0.242342,-0.130876,0.048646,0.118748,0.015619,-0.024382,0.012905,0.092837,1.000000,0.000243,0.000594,0.000078,-0.944768,-0.038080,-0.137115,-0.295234,9.055098,13.685821,35.796262
57365,-2.460526,1.312512,9.349872,-0.018702,-0.233000,-0.058595,0.047705,0.120538,0.018892,-0.024550,0.013100,0.093517,1.000000,0.000239,0.000603,0.000094,-0.944633,-0.038117,-0.137724,-0.295378,9.084911,13.749597,35.825517
57366,-2.547199,1.439955,9.539742,-0.092288,-0.172643,0.163787,0.024599,0.109867,0.011059,-0.025420,0.014386,0.095413,1.000000,0.000123,0.000549,0.000055,-0.944521,-0.038057,-0.138247,-0.295498,9.100402,13.807635,35.849199
57367,-2.477648,1.420902,9.673012,0.018066,-0.141473,0.272179,-0.035977,0.091566,-0.003769,-0.024732,0.014227,0.096739,1.000000,-0.000180,0.000458,-0.000019,-0.944455,-0.037725,-0.138600,-0.295586,9.078521,13.857075,35.862587
57368,-2.305378,1.325581,9.680916,0.212323,-0.113154,0.223954,-0.051024,0.087193,-0.011528,-0.023011,0.013282,0.096816,1.000000,-0.000255,0.000436,-0.000058,-0.944407,-0.037326,-0.138909,-0.295647,9.047055,13.904334,35.870977
57369,-2.178280,1.389265,9.877572,0.337215,0.023843,0.391581,-0.056631,0.096371,-0.023148,-0.021734,0.013923,0.098782,1.000000,-0.000283,0.000482,-0.000116,-0.944369,-0.036876,-0.139257,-0.295659,9.010723,13.958245,35.873461
57370,-2.235569,1.381086,10.047449,0.350067,-0.002753,0.566804,-0.041636,0.107939,-0.026351,-0.022300,0.013835,0.100484,1.000000,-0.000208,0.000540,-0.000132,-0.944326,-0.036481,-0.139680,-0.295648,8.983012,14.018582,35.875069
57371,-2.402494,1.408629,10.250163,0.267343,-0.062951,0.805534,-0.025511,0.088576,-0.021075,-0.023978,0.014102,0.102510,1.000000,-0.000128,0.000443,-0.000105,-0.944284,-0.036190,-0.140037,-0.295646,8.964604,14.067867,35.877984
57372,-2.461731,1.499474,10.375218,0.210423,-0.013957,0.953427,-0.013205,0.039757,-0.025224,-0.024595,0.015005,0.103756,1.000000,-0.000066,0.000199,-0.000126,-0.944281,-0.036031,-0.140180,-0.295607,8.951810,14.089515,35.873937
57373,-2.363921,1.568223,10.344755,0.240442,0.101641,0.910804,-0.030926,-0.002705,-0.030072,-0.023638,0.015702,0.103445,1.000000,-0.000155,-0.000014,-0.000150,-0.944318,-0.035843,-0.140100,-0.295551,8.926962,14.087919,35.863186
57374,-2.248512,1.520569,10.264935,0.330392,0.129256,0.799144,-0.028275,-0.031790,-0.034365,-0.022499,0.015224,0.102644,1.000000,-0.000141,-0.000159,-0.000172,-0.944382,-0.035712,-0.139884,-0.295467,8.902639,14.069878,35.847239
57375,-2.144517,1.559703,10.266800,0.385254,0.221743,0.781708,-0.029732,-0.048779,-0.036532,-0.021467,0.015616,0.102660,1.000000,-0.000149,-0.000244,-0.000183,-0.944460,-0.035594,-0.139589,-0.295370,8.876538,14.042732,35.828510
57376,-2.184064,1.549150,10.165657,0.324501,0.189528,0.692995,-0.025809,-0.048554,-0.030442,-0.021863,0.015508,0.101649,1.000000,-0.000129,-0.000243,-0.000152,-0.944528,-0.035501,-0.139297,-0.295300,8.853832,14.014841,35.813346
57377,-2.161257,1.589695,10.110090,0.298221,0.233843,0.640468,-0.000120,-0.061279,-0.028442,-0.021641,0.015900,0.101094,1.000000,-0.000001,-0.000306,-0.000142,-0.944598,-0.035547,-0.138985,-0.295219,8.845587,13.979850,35.798218
57378,-2.405164,1.563804,9.994088,0.081479,0.069301,0.584459,0.004478,-0.065887,-0.021898,-0.024083,0.015638,0.099933,1.000000,0.000022,-0.000329,-0.000109,-0.944661,-0.035629,-0.138654,-0.295164,8.841077,13.941388,35.786481
57379,-2.362325,1.649832,9.881776,0.029665,0.157732,0.479361,0.026040,-0.094442,-0.020076,-0.023668,0.016488,0.098809,1.000000,0.000130,-0.000472,-0.000100,-0.944736,-0.035854,-0.138222,-0.295099,8.848297,13.886859,35.773228
57380,-2.319805,1.603145,9.721442,0.036142,0.134087,0.308514,0.028929,-0.100919,-0.015815,-0.023246,0.016019,0.097205,1.000000,0.000145,-0.000505,-0.000079,-0.944809,-0.036107,-0.137761,-0.295050,8.857905,13.828029,35.761853
57381,-2.277689,1.695412,9.632972,-0.013244,0.225581,0.227500,0.029212,-0.094987,-0.012804,-0.022822,0.016942,0.096321,1.000000,0.000146,-0.000475,-0.000064,-0.944873,-0.036353,-0.137329,-0.295016,8.867977,13.772541,35.752779
57382,-2.345438,1.653662,9.536898,-0.077428,0.145006,0.145278,0.021147,-0.084639,-0.007365,-0.023494,0.016527,0.095361,1.000000,0.000106,-0.000423,-0.000037,-0.944923,-0.036551,-0.136932,-0.295015,8.874665,13.722185,35.747796
57383,-2.386758,1.687373,9.452872,-0.158091,0.142012,0.079505,0.030111,-0.082854,-0.002170,-0.023907,0.016860,0.094521,1.000000,0.000151,-0.000414,-0.000011,-0.944962,-0.036790,-0.136557,-0.295033,8.887013,13.672618,35.746009
57384,-2.491892,1.648199,9.378259,-0.245786,0.042420,0.026805,0.035159,-0.077183,0.004695,-0.024955,0.016465,0.093776,1.000000,0.000176,-0.000386,0.000023,-0.944987,-0.037052,-0.136214,-0.295081,8.903552,13.625416,35.748712
57385,-2.580123,1.570992,9.363031,-0.281888,-0.079204,0.021216,0.051536,-0.078307,0.021113,-0.025840,0.015683,0.093624,1.000000,0.000258,-0.000392,0.000106,-0.944984,-0.037402,-0.135887,-0.295195,8.931477,13.576365,35.760872
57386,-2.902640,1.108500,9.507833,-0.244656,-0.655219,0.165478,0.138520,-0.091890,0.085738,-0.029075,0.011007,0.095073,1.000000,0.000693,-0.000459,0.000429,-0.944879,-0.038229,-0.135612,-0.295552,9.017950,13.513592,35.809333
57387,-3.535618,0.820376,9.497029,-0.585653,-1.285172,0.255695,0.379152,-0.194226,0.215282,-0.035457,0.007986,0.094951,0.999997,0.001896,-0.000971,0.001076,-0.944603,-0.040429,-0.135185,-0.296338,9.257237,13.381294,35.923388
57388,-3.412149,1.697725,9.661493,-0.919598,-0.558691,0.517420,0.609098,-0.396972,0.327077,-0.034341,0.016627,0.096598,0.999992,0.003045,-0.001985,0.001635,-0.944241,-0.044094,-0.134115,-0.297453,9.638320,13.123009,36.081910
57389,-2.509491,2.204298,9.282149,-0.596994,0.290474,0.029738,0.608263,-0.520725,0.396522,-0.025380,0.021711,0.092822,0.999990,0.003041,-0.002604,0.001983,-0.943842,-0.047981,-0.132445,-0.298863,10.023668,12.787434,36.266315
57390,-1.868513,2.303741,8.635691,-0.337242,0.665077,-0.712296,0.592541,-0.510093,0.454882,-0.018957,0.022739,0.086376,0.999990,0.002963,-0.002550,0.002274,-0.943333,-0.051819,-0.130782,-0.300555,10.406254,12.450333,36.482948
57391,-1.329234,2.651125,8.442840,-0.167069,1.189372,-0.945109,0.549156,-0.395569,0.496022,-0.013525,0.026246,0.084474,0.999991,0.002746,-0.001978,0.002480,-0.942681,-0.055303,-0.129584,-0.302494,10.769818,12.172433,36.733187
57392,-1.226617,2.641484,8.249892,-0.136933,1.184698,-1.145494,0.443206,-0.209838,0.524571,-0.012422,0.026200,0.082544,0.999994,0.002216,-0.001049,0.002623,-0.941880,-0.058027,-0.129088,-0.304682,11.079245,11.994089,37.018526
57393,-1.400013,2.451628,8.360808,-0.128764,0.878287,-1.032853,0.387274,-0.030976,0.541674,-0.014079,0.024316,0.083653,0.999994,0.001936,-0.000155,0.002708,-0.940942,-0.060225,-0.129345,-0.307036,11.361950,11.913263,37.333050
57394,-1.690658,2.446294,8.597691,-0.269941,0.655953,-0.742974,0.323907,0.103960,0.563785,-0.016930,0.024276,0.086025,0.999995,0.001620,0.000520,0.002819,-0.939892,-0.061932,-0.130130,-0.309571,11.613957,11.903900,37.675497
57395,-1.943677,2.422944,8.966798,-0.326367,0.443011,-0.339086,0.265295,0.189908,0.567013,-0.019420,0.024055,0.089718,0.999995,0.001326,0.000950,0.002835,-0.938788,-0.063231,-0.131227,-0.312183,11.834952,11.941307,38.030059
57396,-2.366078,2.315368,9.171294,-0.506899,0.071642,-0.075659,0.200493,0.225671,0.556613,-0.023621,0.022996,0.091763,0.999995,0.001002,0.001128,0.002783,-0.937688,-0.064164,-0.132391,-0.314797,12.018808,11.998457,38.383122
57397,-2.736862,2.566746,9.741459,-0.748194,0.007389,0.599552,0.082807,0.198204,0.515335,-0.027338,0.025557,0.097452,0.999996,0.000414,0.000991,0.002577,-0.936700,-0.064559,-0.133255,-0.317283,12.130013,12.044600,38.709460
57398,-2.676473,2.191278,9.814353,-0.453497,-0.263329,0.580182,-0.085121,0.113279,0.450753,-0.026758,0.021894,0.098149,0.999997,-0.000426,0.000566,0.002254,-0.935919,-0.064260,-0.133473,-0.319550,12.135211,12.050299,38.988359
57399,-2.420238,1.833149,9.793259,-0.059288,-0.385444,0.432986,-0.177378,0.048905,0.375342,-0.024213,0.018373,0.097922,0.999998,-0.000887,0.000245,0.001877,-0.935325,-0.063581,-0.133268,-0.321502,12.076929,12.029497,39.216225
57400,-2.166618,1.234168,9.630008,0.426721,-0.687111,0.101960,-0.188411,0.012748,0.306296,-0.021679,0.012399,0.096290,0.999998,-0.000942,0.000064,0.001531,-0.934867,-0.062863,-0.132895,-0.323126,12.002991,11.996569,39.400035
57401,-1.897021,1.053582,9.563212,0.710134,-0.654178,-0.054024,-0.087708,0.008900,0.234915,-0.018978,0.010555,0.095628,0.999999,-0.000439,0.000044,0.001175,-0.934492,-0.062573,-0.132692,-0.324348,11.978100,11.970526,39.542570
57402,-1.862115,1.055083,9.564858,0.735405,-0.631965,-0.059381,0.021840,0.025918,0.162874,-0.018617,0.010525,0.095652,1.000000,0.000109,0.000130,0.000814,-0.934188,-0.062720,-0.132765,-0.325165,12.007776,11.962202,39.645812
57403,-2.026680,1.208833,9.644738,0.551080,-0.624482,0.081553,0.150544,0.036915,0.096436,-0.020255,0.012006,0.096460,1.000000,0.000753,0.000185,0.000482,-0.933943,-0.063405,-0.133123,-0.325590,12.103518,11.968253,39.712403
57404,-2.182332,1.585746,9.795396,0.267592,-0.446821,0.334019,0.217221,0.013900,0.047923,-0.021820,0.015746,0.097973,0.999999,0.001086,0.000070,0.000240,-0.933771,-0.064408,-0.133494,-0.325736,12.231181,11.966772,39.748323
57405,-2.201001,1.665628,9.801509,0.222495,-0.415523,0.359140,0.259167,-0.010767,0.021240,-0.022017,0.016527,0.098035,0.999999,0.001296,-0.000054,0.000106,-0.933643,-0.065627,-0.133829,-0.325721,12.378944,11.955029,39.765950
57406,-2.272833,1.817802,9.862422,0.111755,-0.369032,0.462952,0.321543,-0.045813,0.037338,-0.022754,0.018015,0.098648,0.999999,0.001608,-0.000229,0.000187,-0.933490,-0.067208,-0.134093,-0.325727,12.563545,11.921266,39.788253
57407,-2.256422,2.135046,9.910559,-0.033251,-0.146488,0.572222,0.373091,-0.096543,0.072215,-0.022620,0.021157,0.099134,0.999998,0.001865,-0.000483,0.000361,-0.933294,-0.069131,-0.134196,-0.325843,12.780233,11.855066,39.823896
57408,-2.008326,2.497343,9.906903,-0.048408,0.252915,0.596461,0.352414,-0.134982,0.102507,-0.020163,0.024789,0.099099,0.999998,0.001762,-0.000675,0.000513,-0.933079,-0.071044,-0.134072,-0.326100,12.987648,11.763016,39.871487
57409,-1.796309,2.613639,9.737200,0.000205,0.447609,0.418170,0.280649,-0.135848,0.136038,-0.018047,0.025987,0.097396,0.999999,0.001403,-0.000679,0.000680,-0.932831,-0.072643,-0.133817,-0.326561,13.157503,11.666364,39.937808
57410,-1.740568,2.575850,9.625664,0.035984,0.428130,0.293417,0.216813,-0.098356,0.163062,-0.017474,0.025640,0.096276,0.999999,0.001084,-0.000492,0.000815,-0.932536,-0.073904,-0.133620,-0.327203,13.294893,11.586529,40.024190
57411,-1.912990,2.484931,9.542953,-0.060461,0.228602,0.229544,0.167884,-0.063573,0.187980,-0.019184,0.024751,0.095444,0.999999,0.000839,-0.000318,0.000940,-0.932192,-0.074893,-0.133498,-0.328006,13.407761,11.522951,40.129304
57412,-2.078069,2.452483,9.622272,-0.138673,0.074832,0.331094,0.118521,-0.049542,0.204847,-0.020830,0.024446,0.096232,0.999999,0.000593,-0.000248,0.001024,-0.931828,-0.075643,-0.133351,-0.328925,13.494624,11.464416,40.245725
57413,-2.079898,2.283217,9.544280,-0.062663,-0.069220,0.218444,0.067063,-0.046075,0.214644,-0.020845,0.022778,0.095446,0.999999,0.000335,-0.000230,0.001073,-0.931464,-0.076152,-0.133135,-0.329925,13.552962,11.406698,40.368146
57414,-1.982220,2.131716,9.541933,0.098177,-0.137490,0.161947,0.053215,-0.044635,0.218204,-0.019867,0.021270,0.095421,0.999999,0.000266,-0.000223,0.001091,-0.931097,-0.076599,-0.132898,-0.330950,13.603770,11.348847,40.492647
57415,-1.968062,1.936116,9.446783,0.196166,-0.286558,0.023110,0.064433,-0.031918,0.224622,-0.019717,0.019309,0.094471,0.999999,0.000322,-0.000160,0.001123,-0.930706,-0.077078,-0.132739,-0.332003,13.661824,11.297440,40.622524
57416,-2.063071,1.876113,9.436564,0.160482,-0.408391,0.017482,0.132979,-0.037557,0.235479,-0.020670,0.018674,0.094374,0.999999,0.000665,-0.000188,0.001177,-0.930272,-0.077895,-0.132661,-0.333058,13.760174,11.240899,40.757626
57417,-1.917460,2.009996,9.458758,0.200348,-0.235139,0.040705,0.190372,-0.054754,0.249381,-0.019225,0.019986,0.094601,0.999999,0.000952,-0.000274,0.001247,-0.929802,-0.079015,-0.132595,-0.334132,13.892159,11.172975,40.898124
57418,-1.887943,2.144540,9.399739,0.131134,-0.135844,0.009876,0.234171,-0.056592,0.256770,-0.018933,0.021311,0.094017,0.999998,0.001171,-0.000283,0.001284,-0.929300,-0.080348,-0.132588,-0.335210,14.049932,11.102305,41.042283
57419,-2.139305,2.256653,9.488597,-0.086040,-0.247567,0.168985,0.270849,-0.062658,0.272493,-0.021453,0.022409,0.094910,0.999998,0.001354,-0.000313,0.001362,-0.928759,-0.081869,-0.132610,-0.336333,14.229871,11.025998,41.194284
57420,-2.328990,2.341906,9.410518,-0.292093,-0.334801,0.150697,0.277840,-0.114479,0.286204,-0.023377,0.023255,0.094124,0.999998,0.001389,-0.000572,0.001431,-0.928222,-0.083521,-0.132394,-0.337492,14.413734,10.918156,41.346206
57421,-2.078279,2.369180,9.212958,-0.177132,-0.176259,-0.078814,0.293743,-0.147347,0.301732,-0.020886,0.023525,0.092149,0.999998,0.001469,-0.000737,0.001509,-0.927669,-0.085310,-0.132048,-0.338697,14.606899,10.789743,41.501731
57422,-1.880275,2.361322,9.074089,-0.062478,-0.083960,-0.250299,0.330762,-0.146637,0.325052,-0.018907,0.023432,0.090766,0.999997,0.001654,-0.000733,0.001625,-0.927056,-0.087287,-0.131755,-0.339985,14.823463,10.657405,41.669917
57423,-1.649313,2.474779,8.975222,0.017307,0.118170,-0.358326,0.364395,-0.113667,0.340129,-0.016586,0.024556,0.089788,0.999997,0.001822,-0.000568,0.001701,-0.926374,-0.089370,-0.131667,-0.341332,15.061134,10.540831,41.851010
57424,-1.577863,2.621980,8.910375,-0.026113,0.239581,-0.394567,0.390975,-0.056568,0.345296,-0.015849,0.026018,0.089150,0.999997,0.001955,-0.000283,0.001726,-0.925628,-0.091484,-0.131883,-0.342709,15.315899,10.453896,42.043090
57425,-1.617241,2.759442,8.920164,-0.117595,0.277658,-0.341244,0.376372,0.010018,0.351742,-0.016216,0.027398,0.089254,0.999997,0.001882,0.000050,0.001759,-0.924828,-0.093418,-0.132381,-0.344154,15.564364,10.402305,42.248747
57426,-1.732656,2.791447,8.933827,-0.195400,0.189920,-0.297796,0.359222,0.067772,0.362702,-0.017347,0.027722,0.089394,0.999997,0.001796,0.000339,0.001814,-0.923972,-0.095183,-0.133108,-0.345685,15.805725,10.379630,42.469331
57427,-1.838092,2.701588,8.960225,-0.183402,0.018989,-0.277036,0.368724,0.109840,0.400621,-0.018386,0.026814,0.089662,0.999996,0.001844,0.000549,0.002003,-0.923011,-0.096940,-0.134029,-0.347403,16.057374,10.373611,42.717833
57428,-1.770138,2.717941,8.983271,-0.107522,0.040374,-0.262486,0.432353,0.131849,0.460311,-0.017704,0.026944,0.089903,0.999995,0.002162,0.000659,0.002302,-0.921893,-0.098995,-0.135130,-0.349361,16.352223,10.368615,43.003196
57429,-1.641675,2.959774,8.959979,-0.137504,0.267646,-0.239507,0.496401,0.157556,0.529392,-0.016424,0.029332,0.089686,0.999993,0.002482,0.000788,0.002647,-0.920594,-0.101343,-0.136428,-0.351603,16.691347,10.365314,43.331425
57430,-1.597713,3.176803,8.888935,-0.225602,0.420050,-0.250768,0.520978,0.197534,0.593408,-0.015983,0.031489,0.088987,0.999992,0.002605,0.000988,0.002967,-0.919128,-0.103779,-0.137915,-0.354137,17.052296,10.370933,43.701999
57431,-1.419098,3.371211,8.877875,-0.182949,0.641537,-0.234053,0.517682,0.256323,0.644007,-0.014185,0.033436,0.088884,0.999991,0.002588,0.001282,0.003220,-0.917517,-0.106126,-0.139642,-0.356931,17.418311,10.398192,44.110988
57432,-1.371070,3.455617,8.899101,-0.151745,0.693992,-0.194466,0.504875,0.340390,0.704299,-0.013680,0.034283,0.089101,0.999989,0.002524,0.001702,0.003521,-0.915729,-0.108306,-0.141693,-0.360047,17.786137,10.457968,44.568421
57433,-1.429641,3.603130,8.971940,-0.213828,0.715148,-0.067707,0.510075,0.409023,0.776177,-0.014252,0.035747,0.089840,0.999987,0.002550,0.002045,0.003881,-0.913737,-0.110434,-0.144028,-0.363517,18.167097,10.539834,45.078599
57434,-1.417378,3.827992,9.069635,-0.264896,0.839007,0.094197,0.462811,0.468220,0.833117,-0.014120,0.038011,0.090818,0.999986,0.002314,0.002341,0.004166,-0.911601,-0.112277,-0.146510,-0.367304,18.529685,10.640031,45.631750
57435,-1.624226,3.853305,9.075226,-0.371826,0.680584,0.149445,0.398880,0.535369,0.881275,-0.016168,0.038281,0.090872,0.999985,0.001994,0.002677,0.004406,-0.909335,-0.113737,-0.149152,-0.371385,18.864205,10.764815,46.224936
57436,-1.768924,3.830562,9.073466,-0.406712,0.537431,0.171079,0.332630,0.582518,0.915727,-0.017599,0.038074,0.090849,0.999984,0.001663,0.002913,0.004579,-0.906980,-0.114831,-0.151858,-0.375686,19.167479,10.905164,46.846971
57437,-1.786401,3.711282,9.059397,-0.297393,0.424969,0.125534,0.281292,0.621726,0.934877,-0.017755,0.036902,0.090701,0.999983,0.001406,0.003109,0.004674,-0.904558,-0.115630,-0.154633,-0.380123,19.446703,11.060256,47.488225
57438,-1.803707,3.582242,9.179782,-0.129692,0.300099,0.199659,0.263108,0.684606,0.976721,-0.017897,0.035614,0.091906,0.999981,0.001316,0.003423,0.004884,-0.901986,-0.116254,-0.157624,-0.384786,19.724241,11.237918,48.165857
57439,-2.279365,3.435345,9.262627,-0.255046,-0.169182,0.321379,0.335875,0.687635,1.053847,-0.022655,0.034078,0.092762,0.999979,0.001679,0.003438,0.005269,-0.899185,-0.117258,-0.160721,-0.389726,20.054324,11.398910,48.887900
57440,-2.331664,3.803912,9.402974,-0.416705,0.000517,0.586748,0.393452,0.620345,1.114174,-0.023235,0.037724,0.094176,0.999978,0.001967,0.003102,0.005571,-0.896247,-0.118694,-0.163582,-0.394835,20.423006,11.507192,49.630671
57441,-2.204169,4.159884,9.424438,-0.507503,0.293843,0.705808,0.365411,0.565200,1.140984,-0.022011,0.041301,0.094382,0.999978,0.001827,0.002826,0.005705,-0.893277,-0.120131,-0.166121,-0.400036,20.777808,11.576172,50.377779
57442,-2.360299,4.654881,9.797161,-0.745950,0.432654,1.254355,0.222267,0.512566,1.086903,-0.023604,0.046312,0.098084,0.999981,0.001111,0.002563,0.005434,-0.890509,-0.120983,-0.168161,-0.405066,21.043080,11.623801,51.084785
57443,-2.345427,4.381339,9.876871,-0.493549,0.239505,1.230354,-0.085131,0.426922,0.999090,-0.023462,0.043738,0.098800,0.999985,-0.000426,0.002135,0.004995,-0.888146,-0.120563,-0.169247,-0.409898,21.119652,11.641955,51.726169
57444,-2.083124,3.676183,9.640539,0.058158,0.009468,0.713007,-0.280288,0.367556,0.873189,-0.020815,0.036806,0.096392,0.999988,-0.001401,0.001838,0.004366,-0.886185,-0.119288,-0.169738,-0.414289,21.067898,11.653919,52.286271
57445,-2.138397,2.940518,9.450469,0.451655,-0.468553,0.292123,-0.364058,0.330110,0.736279,-0.021336,0.029499,0.094486,0.999990,-0.001820,0.001651,0.003681,-0.884568,-0.117601,-0.169971,-0.418113,20.951913,11.675058,52.763870
57446,-1.983543,2.376949,9.304809,0.871826,-0.668477,-0.068109,-0.321798,0.301765,0.586259,-0.019765,0.023861,0.093040,0.999993,-0.001609,0.001509,0.002931,-0.883250,-0.116029,-0.170249,-0.421214,20.842252,11.712328,53.153448
57447,-2.153342,1.988921,9.414238,1.089236,-1.028448,-0.067104,-0.171835,0.282460,0.464577,-0.021447,0.019920,0.094156,0.999996,-0.000859,0.001412,0.002323,-0.882108,-0.115057,-0.170829,-0.423634,20.804689,11.764810,53.472565
57448,-2.321029,1.973025,9.461947,1.035065,-1.163564,0.004806,0.062984,0.226559,0.371611,-0.023140,0.019657,0.094652,0.999998,0.000315,0.001133,0.001858,-0.881069,-0.115157,-0.171709,-0.425408,20.888943,11.805913,53.729166
57449,-2.419905,2.487360,9.654165,0.714102,-0.944433,0.377691,0.244950,0.140185,0.293375,-0.024168,0.024720,0.096589,0.999998,0.001225,0.000701,0.001467,-0.880162,-0.116175,-0.172642,-0.426630,21.065227,11.816578,53.925107
57450,-2.410990,2.932758,9.643357,0.425780,-0.684623,0.519697,0.306090,0.041045,0.209674,-0.024121,0.029155,0.096483,0.999998,0.001530,0.000205,0.001048,-0.879481,-0.117601,-0.173315,-0.427371,21.262799,11.790664,54.054356
57451,-2.374134,3.197619,9.466845,0.210878,-0.508456,0.443011,0.298553,-0.031510,0.113890,-0.023774,0.031821,0.094712,0.999999,0.001493,-0.000158,0.000569,-0.879068,-0.119064,-0.173711,-0.427654,21.442157,11.745922,54.115901
57452,-2.376319,3.233085,9.272018,0.122976,-0.500768,0.277114,0.263721,-0.081170,0.035640,-0.023807,0.032204,0.092753,0.999999,0.001319,-0.000406,0.000178,-0.878885,-0.120413,-0.173858,-0.427592,21.590654,11.690659,54.123975
57453,-2.339616,3.121298,8.979410,0.117015,-0.543174,-0.038368,0.252620,-0.115349,-0.022224,-0.023444,0.031102,0.089820,0.999999,0.001263,-0.000577,-0.000111,-0.878860,-0.121735,-0.173869,-0.427264,21.724870,11.629760,54.093138
57454,-2.065990,3.151877,8.720367,0.159337,-0.312557,-0.319305,0.292545,-0.117715,-0.060305,-0.020702,0.031397,0.087237,0.999999,0.001463,-0.000589,-0.000302,-0.878893,-0.123205,-0.173974,-0.426733,21.877733,11.575433,54.040884
57455,-1.811917,3.339676,8.553662,0.121316,-0.007604,-0.453907,0.335195,-0.081778,-0.072258,-0.018142,0.033260,0.085585,0.999998,0.001676,-0.000409,-0.000361,-0.878891,-0.124773,-0.174338,-0.426132,22.055248,11.543281,53.989929
57456,-1.739147,3.735864,8.554864,-0.092976,0.270548,-0.321371,0.352263,-0.012399,-0.067289,-0.017384,0.037214,0.085613,0.999998,0.001761,-0.000062,-0.000336,-0.878805,-0.126274,-0.175036,-0.425580,22.246204,11.546665,53.956787
57457,-1.825669,3.927625,8.470562,-0.286348,0.309114,-0.308367,0.326174,0.050350,-0.043028,-0.018227,0.039142,0.084774,0.999999,0.001631,0.000252,-0.000215,-0.878626,-0.127547,-0.175942,-0.425196,22.427568,11.578482,53.950795
57458,-1.687252,4.325785,8.574263,-0.415889,0.642328,-0.092008,0.267415,0.118224,-0.006636,-0.016820,0.043144,0.085810,0.999999,0.001337,0.000591,-0.000033,-0.878346,-0.128450,-0.176995,-0.425067,22.582356,11.637906,53.979689
57459,-1.882759,4.315128,8.565412,-0.500445,0.478453,-0.063227,0.163964,0.183127,0.050513,-0.018760,0.043076,0.085707,0.999999,0.000820,0.000916,0.000253,-0.877952,-0.128810,-0.178078,-0.425320,22.687130,11.719324,54.054275
57460,-2.028519,4.323230,8.603914,-0.553148,0.367163,0.005242,0.099773,0.234435,0.122876,-0.020211,0.043177,0.086084,0.999999,0.000499,0.001172,0.000614,-0.877397,-0.128845,-0.179201,-0.425981,22.765608,11.811386,54.179606
57461,-2.206478,4.214969,8.583327,-0.570888,0.167418,-0.017073,0.023522,0.265696,0.199888,-0.021993,0.042118,0.085867,0.999999,0.000118,0.001328,0.000999,-0.876698,-0.128546,-0.180251,-0.427067,22.810675,11.903069,54.353820
57462,-2.213217,3.954896,8.397211,-0.457039,0.025435,-0.281522,-0.004543,0.295537,0.276334,-0.022063,0.039520,0.084004,0.999998,-0.000023,0.001478,0.001382,-0.875824,-0.128130,-0.181320,-0.428531,22.849851,11.993059,54.576122
57463,-1.843504,3.873721,8.183953,-0.266089,0.293511,-0.580986,0.009571,0.371027,0.357951,-0.018352,0.038700,0.081875,0.999997,0.000048,0.001855,0.001790,-0.874692,-0.127687,-0.182699,-0.430385,22.910416,12.104876,54.859931
57464,-1.524102,3.907995,8.078807,-0.134561,0.585620,-0.729664,0.062624,0.519374,0.466160,-0.015122,0.039019,0.080840,0.999994,0.000313,0.002597,0.002331,-0.873150,-0.127255,-0.184767,-0.432755,23.021508,12.269998,55.236295
57465,-1.543830,4.182883,8.142822,-0.281903,0.740388,-0.562947,0.115465,0.680656,0.594628,-0.015285,0.041736,0.081505,0.999990,0.000577,0.003403,0.002973,-0.871132,-0.126821,-0.187572,-0.435732,23.187225,12.490665,55.719878
57466,-1.923804,4.678753,8.484913,-0.653857,0.718066,0.017988,0.119447,0.812511,0.734402,-0.019065,0.046667,0.084955,0.999985,0.000597,0.004063,0.003672,-0.868661,-0.126245,-0.190864,-0.439387,23.380453,12.747269,56.310500
57467,-2.428551,4.980691,8.763206,-0.976450,0.481539,0.498153,0.021901,0.844714,0.849504,-0.024126,0.049695,0.087740,0.999982,0.000110,0.004224,0.004247,-0.865939,-0.125280,-0.194004,-0.443640,23.536347,12.993075,56.972205
57468,-2.572407,4.906644,8.961518,-0.875459,0.326358,0.681511,-0.137855,0.826716,0.915120,-0.025578,0.049011,0.089687,0.999981,-0.000689,0.004134,0.004576,-0.863157,-0.123723,-0.196662,-0.448305,23.610420,13.212813,57.666073
57469,-2.626547,4.432553,8.939444,-0.545416,0.032558,0.490774,-0.253032,0.785319,0.942167,-0.026123,0.044315,0.089441,0.999980,-0.001265,0.003927,0.004711,-0.860391,-0.121784,-0.198861,-0.453156,23.622530,13.404394,58.365652
57470,-2.565292,3.974895,9.079565,-0.098852,-0.153240,0.423801,-0.301660,0.737189,0.934710,-0.025504,0.039767,0.090830,0.999981,-0.001508,0.003686,0.004674,-0.857687,-0.119731,-0.200736,-0.457976,23.605123,13.572159,59.050230
57471,-2.787299,3.698940,9.303040,0.110090,-0.468397,0.568360,-0.309737,0.685322,0.876153,-0.027716,0.037012,0.093068,0.999983,-0.001549,0.003427,0.004381,-0.855142,-0.117701,-0.202402,-0.462506,23.575045,13.726693,59.691463
57472,-2.913942,3.571418,9.603982,0.290680,-0.619612,0.818120,-0.345190,0.579948,0.763393,-0.028997,0.035769,0.096062,0.999987,-0.001726,0.002900,0.003817,-0.852960,-0.115644,-0.203592,-0.466514,23.505431,13.851920,60.246982
57473,-3.080206,3.294197,9.909292,0.557921,-0.880737,1.024582,-0.412877,0.449624,0.623515,-0.030682,0.033051,0.099094,0.999990,-0.002064,0.002248,0.003118,-0.851256,-0.113458,-0.204149,-0.469908,23.372822,13.941795,60.696326
57474,-3.139053,2.677851,9.964549,1.008806,-1.228382,0.854555,-0.436733,0.291897,0.450095,-0.031306,0.026926,0.099633,0.999994,-0.002184,0.001459,0.002250,-0.850122,-0.111362,-0.204069,-0.472491,23.195147,13.988790,61.014548
57475,-3.061319,2.154812,9.886551,1.388809,-1.413780,0.571490,-0.358425,0.138267,0.254068,-0.030572,0.021686,0.098848,0.999997,-0.001792,0.000691,0.001270,-0.849555,-0.109760,-0.203632,-0.474071,23.028315,14.000210,61.190725
57476,-2.998066,1.831135,9.674241,1.550544,-1.516776,0.248503,-0.214426,-0.002111,0.048842,-0.029986,0.018408,0.096722,0.999999,-0.001072,-0.000011,0.000244,-0.849536,-0.108893,-0.203049,-0.474555,22.908975,13.983519,61.222821
57477,-3.131392,2.232309,9.709970,1.182335,-1.415577,0.466931,-0.049642,-0.130094,-0.176191,-0.031357,0.022375,0.097074,0.999999,-0.000248,-0.000650,-0.000881,-0.850090,-0.108800,-0.202438,-0.473844,22.847423,13.949861,61.103251
57478,-3.422189,2.876291,10.085485,0.701377,-1.323954,1.116932,-0.055519,-0.292448,-0.423497,-0.034308,0.028863,0.100797,0.999997,-0.000278,-0.001462,-0.002117,-0.851395,-0.108817,-0.201254,-0.471999,22.741305,13.884754,60.811952
57479,-3.290411,2.982863,10.215894,0.698626,-1.159118,1.244297,-0.189021,-0.478438,-0.652817,-0.033051,0.030033,0.102052,0.999991,-0.000945,-0.002392,-0.003264,-0.853490,-0.108470,-0.199088,-0.469205,22.519139,13.771514,60.353915
57480,-2.949734,2.638345,9.937860,0.937920,-1.062322,0.789870,-0.258127,-0.635743,-0.845732,-0.029701,0.026637,0.099250,0.999985,-0.001291,-0.003179,-0.004229,-0.856212,-0.108005,-0.196186,-0.465560,22.225478,13.614518,59.756083
57481,-2.641717,2.415492,9.580944,1.030959,-0.933630,0.320072,-0.223318,-0.731922,-1.013263,-0.026644,0.024396,0.095685,0.999980,-0.001117,-0.003660,-0.005066,-0.859371,-0.107741,-0.193040,-0.461096,21.927103,13.440054,59.046785
57482,-2.433383,2.414172,9.286496,0.943041,-0.772376,0.010874,-0.121004,-0.780812,-1.141904,-0.024558,0.024338,0.092755,0.999976,-0.000605,-0.003904,-0.005709,-0.862780,-0.107905,-0.189978,-0.455934,21.671326,13.263097,58.257793
57483,-2.472869,2.703613,9.123012,0.579852,-0.655684,-0.020468,-0.006546,-0.799236,-1.240774,-0.024925,0.027193,0.091130,0.999973,-0.000033,-0.003996,-0.006204,-0.866327,-0.108500,-0.187143,-0.450203,21.470114,13.094618,57.412042
57484,-3.125240,3.891540,8.988231,-0.749346,-0.514441,0.428071,0.049051,-0.831444,-1.390673,-0.031354,0.039111,0.089762,0.999967,0.000245,-0.004157,-0.006953,-0.870159,-0.109267,-0.184362,-0.443727,21.283699,12.936947,56.478411
57485,-3.971694,5.654738,10.043173,-2.128937,-0.170773,2.189525,-0.327851,-0.961573,-1.691885,-0.039718,0.057048,0.100148,0.999951,-0.001639,-0.004808,-0.008459,-0.874916,-0.108391,-0.180330,-0.436182,20.840985,12.767287,55.353668
57486,-3.765051,5.026284,10.528940,-1.513087,-0.311452,2.349002,-1.237137,-1.214885,-2.054025,-0.037765,0.051299,0.104745,0.999910,-0.006185,-0.006074,-0.010270,-0.881062,-0.103753,-0.173377,-0.427674,19.827426,12.519151,53.981037
57487,-2.457924,1.980897,8.971801,0.597033,-1.000996,-0.373631,-1.651278,-1.335660,-2.330628,-0.024938,0.020837,0.089383,0.999876,-0.008256,-0.006678,-0.011653,-0.887931,-0.097283,-0.165115,-0.418153,18.546119,12.231619,52.438768
57488,-1.659987,0.159017,8.251961,1.900998,-1.460554,-1.742626,-1.348456,-1.245722,-2.509025,-0.017087,0.002358,0.082400,0.999879,-0.006742,-0.006228,-0.012545,-0.894734,-0.091802,-0.157929,-0.407531,17.429806,11.992559,50.821288
57489,-1.346237,-0.403320,7.935097,2.221731,-1.569170,-2.227117,-0.776210,-1.062976,-2.573836,-0.013932,-0.003548,0.079292,0.999896,-0.003881,-0.005315,-0.012869,-0.901062,-0.088432,-0.152724,-0.396161,16.646415,11.838949,49.204388
57490,-1.672522,0.108100,8.407352,1.716654,-1.497368,-1.548129,-0.113573,-0.864767,-2.491377,-0.017073,0.001340,0.083999,0.999913,-0.000568,-0.004324,-0.012457,-0.906610,-0.087706,-0.149656,-0.384667,16.263042,11.764136,47.668932
57491,-2.611522,1.300764,9.008937,0.436446,-1.397606,-0.456993,0.461144,-0.765184,-2.241625,-0.026313,0.013094,0.090019,0.999927,0.002306,-0.003826,-0.011208,-0.911209,-0.089559,-0.148012,-0.373859,16.242021,11.699332,46.290774
57492,-3.324575,2.556707,9.094617,-0.868307,-1.045791,0.109705,0.859103,-0.871159,-1.910075,-0.033398,0.025495,0.090911,0.999936,0.004295,-0.004356,-0.009550,-0.914963,-0.093664,-0.146460,-0.364168,16.486647,11.524794,45.081691
57493,-2.904092,4.228674,8.912520,-1.705544,0.414476,0.319810,1.061276,-1.037237,-1.586507,-0.029169,0.042045,0.089198,0.999941,0.005306,-0.005186,-0.007932,-0.918045,-0.099213,-0.144349,-0.355688,16.881529,11.213139,44.026007
57494,-1.793905,5.715003,8.612114,-1.926650,2.220308,0.257353,0.934822,-1.073990,-1.290733,-0.018035,0.056863,0.086291,0.999954,0.004674,-0.005370,-0.006454,-0.920593,-0.104459,-0.141680,-0.348601,17.241207,10.837809,43.128208
57495,-0.735634,6.538433,8.458124,-1.696212,3.502438,0.171686,0.530934,-0.917107,-1.005586,-0.007416,0.065197,0.084721,0.999973,0.002655,-0.004585,-0.005028,-0.922679,-0.107760,-0.138873,-0.343170,17.408564,10.504347,42.415747
57496,-0.298096,6.033622,7.917392,-1.243887,3.452290,-0.554556,0.044872,-0.633569,-0.727843,-0.003012,0.060329,0.079178,0.999988,0.000224,-0.003168,-0.003639,-0.924318,-0.108528,-0.136382,-0.339497,17.338319,10.278355,41.907292
57497,-0.303607,4.767577,7.508788,-0.633124,2.550123,-1.309754,-0.155999,-0.310648,-0.433539,-0.003049,0.047741,0.075046,0.999996,-0.000780,-0.001553,-0.002168,-0.925332,-0.108014,-0.134884,-0.337491,17.193147,10.178585,41.619039
57498,-0.371386,3.896465,7.450838,-0.190839,1.866897,-1.608199,-0.055326,-0.012602,-0.102228,-0.003699,0.038987,0.074497,1.000000,-0.000277,-0.000063,-0.000511,-0.925528,-0.107690,-0.134752,-0.337110,17.147900,10.184936,41.566407
57499,-0.575376,3.785670,7.689527,-0.190458,1.625750,-1.379906,0.157859,0.255219,0.223192,-0.005698,0.037790,0.076932,0.999998,0.000789,0.001276,0.001116,-0.924878,-0.108118,-0.136046,-0.338235,17.264927,10.283164,41.740957
57500,-0.942694,3.791346,7.931083,-0.358603,1.354352,-1.083308,0.329235,0.461713,0.530005,-0.009344,0.037758,0.079395,0.999992,0.001646,0.002309,0.002650,-0.923468,-0.109200,-0.138415,-0.340770,17.517915,10.440780,42.122310
57501,-1.176751,3.889195,8.167016,-0.467348,1.227561,-0.785775,0.468638,0.617214,0.803897,-0.011671,0.038653,0.081797,0.999984,0.002343,0.003086,0.004019,-0.921385,-0.110845,-0.141589,-0.344551,17.884916,10.633873,42.684424
57502,-1.169528,4.188244,8.414262,-0.503881,1.396420,-0.458294,0.567536,0.760470,1.069028,-0.011598,0.041581,0.084305,0.999974,0.002838,0.003802,0.005345,-0.918652,-0.112885,-0.145438,-0.349548,18.343196,10.853419,43.421181
57503,-1.580999,4.364124,8.373252,-0.853364,1.208825,-0.354021,0.651521,0.872548,1.354096,-0.015738,0.043261,0.083943,0.999962,0.003258,0.004363,0.006770,-0.915233,-0.115313,-0.149781,-0.355834,18.886890,11.075643,44.339023
57504,-1.448235,5.043562,8.421807,-1.092736,1.724948,-0.102312,0.726329,0.955468,1.649365,-0.014493,0.050010,0.084469,0.999948,0.003632,0.004777,0.008247,-0.911100,-0.118148,-0.154451,-0.363431,19.511938,11.277605,45.438501
57505,-0.622795,5.363495,7.822339,-0.888632,2.522381,-0.691762,0.708791,1.130672,2.032140,-0.006328,0.053293,0.078448,0.999926,0.003544,0.005653,0.010160,-0.906032,-0.120866,-0.159643,-0.372842,20.180051,11.487610,46.786301
57506,-0.111807,5.981627,7.663071,-0.961862,3.264604,-0.706005,0.709351,1.455731,2.399778,-0.001275,0.059529,0.076851,0.999895,0.003547,0.007278,0.011998,-0.899856,-0.123252,-0.166056,-0.384049,20.908898,11.781725,48.405844
57507,-0.855224,6.248796,7.726126,-1.556436,2.825137,-0.375139,0.566613,1.781991,2.696060,-0.008702,0.062152,0.077515,0.999865,0.002833,0.008910,0.013480,-0.892712,-0.124588,-0.173442,-0.396815,21.614982,12.168721,50.262155
57508,-2.118289,6.234149,8.099833,-2.121730,1.757493,0.255449,0.419382,1.991455,2.890905,-0.021271,0.061864,0.081340,0.999844,0.002097,0.009957,0.014454,-0.884831,-0.124981,-0.181297,-0.410592,22.283448,12.603403,52.277802
57509,-3.094162,6.224251,8.454361,-2.457593,0.888775,0.815584,0.219527,2.025264,2.978447,-0.031004,0.061688,0.084925,0.999837,0.001098,0.010126,0.014891,-0.876579,-0.124465,-0.188780,-0.424828,22.866678,13.015194,54.356792
57510,-3.259511,6.113597,8.594078,-2.319341,0.603472,0.962933,-0.021506,1.992460,3.029340,-0.032658,0.060651,0.086259,0.999836,-0.000108,0.009962,0.015146,-0.868114,-0.122964,-0.195512,-0.439355,23.330949,13.379698,56.462654
57511,-2.998019,5.369578,8.035826,-1.814669,0.340143,0.136458,-0.155200,1.976219,3.120219,-0.030018,0.053290,0.080613,0.999829,-0.000776,0.009881,0.015600,-0.859253,-0.120973,-0.201761,-0.454248,23.743733,13.699181,58.619783
57512,-2.693563,5.314060,7.805634,-1.654090,0.514490,-0.147227,-0.193517,2.014663,3.186669,-0.026991,0.052786,0.078277,0.999822,-0.000968,0.010073,0.015932,-0.849927,-0.118748,-0.207974,-0.469330,24.157159,14.008202,60.826971
57513,-2.282116,4.734820,7.415166,-1.142288,0.519279,-0.810667,-0.203576,2.136632,3.248825,-0.022794,0.047053,0.074347,0.999810,-0.001018,0.010682,0.016243,-0.840017,-0.116222,-0.214572,-0.484585,24.594913,14.350236,63.103059
57514,-2.497201,4.009090,7.263235,-0.670950,-0.050444,-1.174991,-0.054029,2.312073,3.286911,-0.024785,0.039702,0.072909,0.999798,-0.000270,0.011560,0.016433,-0.829412,-0.113887,-0.222158,-0.499752,25.149458,14.755204,65.449804
57515,-3.075194,3.654096,7.088906,-0.582792,-0.741115,-1.317342,0.290937,2.387846,3.292407,-0.030497,0.035934,0.071307,0.999792,0.001455,0.011938,0.016461,-0.818169,-0.112761,-0.230830,-0.514395,25.927251,15.171457,67.828301
57516,-3.156100,3.746263,7.174113,-0.476352,-0.778262,-1.173933,0.567418,2.387527,3.236596,-0.031299,0.036750,0.072221,0.999794,0.002837,0.011937,0.016182,-0.806576,-0.112647,-0.240143,-0.528277,26.873531,15.567245,70.187517
57517,-3.371048,2.770102,6.866913,0.265910,-1.398448,-1.802556,0.727312,2.397339,3.082981,-0.033302,0.026935,0.069169,0.999803,0.003636,0.011986,0.015414,-0.794958,-0.112930,-0.249912,-0.541140,27.910175,15.968981,72.479881
57518,-3.515054,1.054115,5.522450,1.111481,-2.289363,-3.690299,1.208673,2.431549,2.818766,-0.034616,0.009715,0.055708,0.999809,0.006043,0.012157,0.014093,-0.783433,-0.114651,-0.261166,-0.552159,29.205467,16.415444,74.656112
57519,-3.781074,1.795605,4.688028,0.227102,-2.326090,-3.979063,2.054860,2.518040,2.444540,-0.037427,0.017011,0.047531,0.999793,0.010274,0.012589,0.012222,-0.772028,-0.118921,-0.275210,-0.560437,30.961430,16.956407,76.682071
57520,-3.717977,5.219223,6.247600,-1.355748,-0.881562,-1.010803,2.230507,2.580539,1.936236,-0.036863,0.051130,0.063527,0.999808,0.011152,0.012902,0.009681,-0.761552,-0.122939,-0.290174,-0.566325,32.773106,17.620928,78.491616
57521,-4.465159,6.223992,6.896612,-1.636590,-1.112436,0.302490,1.353820,2.661311,1.285270,-0.044122,0.061484,0.069974,0.999868,0.006769,0.013306,0.006426,-0.753090,-0.122413,-0.303276,-0.570872,34.021254,18.483052,80.026570
57522,-4.928233,4.091422,6.521390,-0.039676,-2.182494,-0.936508,0.824566,2.549469,0.723132,-0.048591,0.040467,0.066004,0.999904,0.004123,0.012747,0.003616,-0.746557,-0.119327,-0.314716,-0.573906,34.892570,19.447395,81.266782
57523,-3.953014,3.830385,6.524401,0.458084,-1.209041,-1.375218,0.398663,2.583342,0.116534,-0.038705,0.038150,0.065824,0.999914,0.001993,0.012916,0.000583,-0.741826,-0.113583,-0.325371,-0.575262,35.450379,20.613230,82.237885
57524,-4.385015,1.589189,5.802223,1.806819,-2.285098,-2.962143,0.092082,2.694375,-0.467981,-0.043026,0.015966,0.058613,0.999906,0.000460,0.013471,-0.002340,-0.738641,-0.105406,-0.335824,-0.574910,35.766414,22.018648,82.973746
57525,-5.122149,1.176030,5.504010,1.946999,-2.975589,-3.084793,0.488046,2.769777,-0.983110,-0.050394,0.011874,0.055771,0.999889,0.002440,0.013848,-0.004915,-0.736448,-0.097592,-0.347903,-0.571913,36.245682,23.627969,83.497099
57526,-6.111991,2.751792,6.788012,1.522495,-2.802528,-0.822345,0.592833,2.793066,-1.441262,-0.059964,0.027750,0.068805,0.999872,0.002964,0.013965,-0.007206,-0.735302,-0.089273,-0.360501,-0.566922,36.714334,25.399790,83.818090
57527,-6.691500,3.196337,7.204015,1.470349,-2.760823,0.041103,0.255191,2.711640,-1.849156,-0.065631,0.032481,0.072977,0.999865,0.001276,0.013558,-0.009245,-0.735413,-0.079187,-0.371938,-0.560855,36.900313,27.273047,83.915835
57528,-6.953941,3.337426,7.552595,1.602271,-2.503125,0.564864,0.019070,2.603728,-2.250566,-0.068167,0.034139,0.076423,0.999852,0.000095,0.013018,-0.011252,-0.736741,-0.067765,-0.382363,-0.553552,36.836060,29.234267,83.766004
57529,-7.607321,2.452505,7.791185,2.365177,-2.975781,0.681499,-0.278972,2.363492,-2.536830,-0.074826,0.025589,0.078766,0.999849,-0.001395,0.011817,-0.012684,-0.739199,-0.055341,-0.391068,-0.545516,36.467035,31.183145,83.357919
57530,-8.461622,1.902676,7.974479,2.777884,-3.514458,1.083766,-0.083293,2.025589,-2.702268,-0.083535,0.020194,0.080586,0.999857,-0.000416,0.010127,-0.013511,-0.742501,-0.044224,-0.398983,-0.536235,36.065417,33.028906,82.700147
57531,-8.653494,2.520314,8.352370,2.483090,-2.953714,1.853415,0.226245,1.628156,-2.656839,-0.085507,0.026249,0.084252,0.999878,0.001131,0.008140,-0.013284,-0.746209,-0.035396,-0.406145,-0.526275,35.734124,34.672298,81.880107
57532,-8.105320,3.082901,8.323017,2.058913,-1.967425,1.864456,0.314208,1.371412,-2.695005,-0.080056,0.031781,0.083831,0.999884,0.001571,0.006857,-0.013475,-0.750350,-0.027490,-0.412484,-0.515826,35.344069,36.203447,80.904297
57533,-7.006746,4.325076,8.627873,1.411723,-0.085261,2.029245,0.130657,1.290515,-3.110823,-0.068825,0.044271,0.086754,0.999858,0.000653,0.006452,-0.015553,-0.755562,-0.018233,-0.418004,-0.504050,34.637024,37.826724,79.612870
57534,-7.644140,3.255723,8.879446,2.167052,-0.657518,2.134471,-0.584469,1.171320,-3.734157,-0.075291,0.034230,0.089139,0.999804,-0.002922,0.005856,-0.018670,-0.762407,-0.005273,-0.421182,-0.491237,33.179002,39.571744,77.823655
57535,-9.410600,1.084179,9.277608,3.531592,-2.583974,2.702924,-0.672412,0.828478,-4.219524,-0.093460,0.013131,0.093123,0.999763,-0.003362,0.004142,-0.021096,-0.770839,0.008213,-0.422674,-0.476536,31.267186,41.258287,75.476540
57536,-12.239004,-0.125338,11.186215,4.775598,-4.162340,5.509868,-0.421542,0.075844,-4.369088,-0.122333,0.001655,0.111907,0.999759,-0.002108,0.000379,-0.021844,-0.780863,0.019242,-0.421651,-0.460536,29.103488,42.549482,72.605459
57537,-11.791584,-0.207924,10.619848,4.142282,-3.872055,5.009364,0.159058,-0.765013,-4.295955,-0.118330,0.000375,0.105746,0.999762,0.000795,-0.003825,-0.021478,-0.792175,0.025918,-0.418491,-0.443455,26.981199,43.316127,69.363648
57538,-9.613338,2.705758,9.753695,1.666276,-0.805631,4.023366,0.671740,-1.199320,-4.153564,-0.096131,0.028728,0.097055,0.999761,0.003358,-0.005996,-0.020766,-0.803770,0.029278,-0.414564,-0.425715,25.048968,43.737585,66.005756
57539,-7.363419,6.345789,8.925767,-1.016996,2.862955,3.029441,0.523357,-1.197153,-4.012510,-0.072878,0.064692,0.088988,0.999777,0.002617,-0.005985,-0.020061,-0.814670,0.032947,-0.410162,-0.408649,23.059483,44.044868,62.711640
57540,-6.571270,7.249666,8.363922,-1.910216,3.996417,2.273054,-0.230302,-1.023799,-3.682806,-0.064789,0.073791,0.083221,0.999817,-0.001151,-0.005119,-0.018413,-0.824088,0.039337,-0.404813,-0.394282,20.814755,44.284572,59.685680
57541,-6.579489,5.375384,7.929061,-1.100556,2.779032,1.417273,-0.783456,-0.790979,-3.266867,-0.065214,0.055132,0.078818,0.999851,-0.003917,-0.003955,-0.016334,-0.831833,0.047622,-0.399282,-0.382569,18.491465,44.483935,57.013559
57542,-6.834965,3.608245,7.741069,-0.331186,1.524226,1.014150,-0.932883,-0.579820,-2.940404,-0.068030,0.037444,0.077041,0.999877,-0.004664,-0.002899,-0.014701,-0.838272,0.056256,-0.394311,-0.372362,16.276786,44.666221,54.625893
57543,-7.707047,2.247971,8.093395,0.226833,0.382591,1.578091,-0.908183,-0.450300,-2.810675,-0.076923,0.023928,0.080654,0.999888,-0.004541,-0.002251,-0.014053,-0.844026,0.064768,-0.389875,-0.362523,14.149427,44.836741,52.350664
57544,-9.109339,0.990126,9.061719,0.806198,-0.743970,3.027205,-0.736973,-0.610287,-2.764716,-0.091218,0.011495,0.090299,0.999893,-0.003685,-0.003051,-0.013823,-0.849880,0.072155,-0.385003,-0.352520,12.115959,44.852542,50.072068
57545,-9.313882,0.318665,9.154516,0.937501,-1.152838,3.165716,-0.411653,-0.995169,-2.683166,-0.093537,0.004628,0.091072,0.999896,-0.002058,-0.004976,-0.013415,-0.856270,0.077319,-0.379018,-0.342300,10.277785,44.588918,47.802343
57546,-8.149963,1.730474,9.007090,0.233256,0.590700,2.440261,-0.200700,-1.191363,-2.747920,-0.081785,0.018517,0.089566,0.999887,-0.001003,-0.005957,-0.013739,-0.863039,0.081340,-0.372446,-0.331408,8.535851,44.169602,45.482420
57547,-7.807998,1.384256,9.295570,0.531525,0.737587,2.371478,-0.564755,-1.278778,-2.964078,-0.078453,0.015265,0.092413,0.999866,-0.002824,-0.006394,-0.014820,-0.869969,0.087179,-0.364715,-0.320212,6.499418,43.662870,43.020642
57548,-8.138526,-0.982529,8.651460,1.147328,-1.395246,1.967609,-0.553340,-1.468987,-3.009324,-0.082151,-0.008355,0.085938,0.999856,-0.002767,-0.007345,-0.015046,-0.877083,0.092713,-0.356054,-0.308796,4.489685,42.987353,40.560125
57549,-7.730690,-0.193430,8.846574,0.690442,-0.416717,1.909289,-0.023928,-1.695661,-2.921880,-0.078070,-0.000787,0.087806,0.999857,-0.000120,-0.008478,-0.014609,-0.884461,0.095404,-0.347155,-0.296835,2.885185,42.123235,38.215946
57550,-6.424648,1.414424,9.388117,0.527251,1.733627,1.506523,-0.082308,-1.820346,-2.755289,-0.064894,0.015074,0.093286,0.999864,-0.000412,-0.009101,-0.013776,-0.891534,0.097841,-0.337601,-0.285692,1.403139,41.137634,36.062638
57551,-6.250559,0.676149,9.077401,0.632765,1.139359,1.151873,-0.239010,-1.815148,-2.617660,-0.063229,0.007694,0.090194,0.999872,-0.001195,-0.009075,-0.013088,-0.898091,0.100737,-0.327823,-0.275347,-0.030862,40.113638,34.078874
57552,-6.944310,-0.403964,9.352384,0.666686,0.090019,1.823187,-0.203473,-1.880275,-2.583115,-0.070362,-0.003040,0.092869,0.999872,-0.001017,-0.009401,-0.012915,-0.904497,0.103291,-0.317738,-0.265064,-1.357828,39.016427,32.185469
57553,-7.889828,-1.388465,8.928075,0.039824,-1.243545,2.117521,0.029458,-2.066335,-2.659790,-0.079990,-0.012839,0.088456,0.999858,0.000147,-0.010331,-0.013298,-0.911177,0.104649,-0.306992,-0.254087,-2.516450,37.779804,30.301617
57554,-8.599552,-1.466038,8.959703,-0.754837,-1.561743,2.571020,0.341684,-2.364653,-2.847256,-0.087245,-0.013576,0.088547,0.999827,0.001708,-0.011823,-0.014235,-0.918432,0.104451,-0.295092,-0.241855,-3.496167,36.339477,28.358351
57555,-8.312087,-0.955732,8.102182,-1.619185,-1.290057,1.648155,0.641973,-2.671753,-3.012720,-0.084327,-0.008551,0.079872,0.999792,0.003210,-0.013358,-0.015063,-0.926148,0.102717,-0.281945,-0.228488,-4.284090,34.693429,26.378413
57556,-7.205794,-0.396572,7.444626,-1.747560,-0.608495,0.388742,0.803034,-2.850977,-2.975995,-0.073160,-0.003179,0.073395,0.999780,0.004015,-0.014254,-0.014879,-0.933762,0.099927,-0.268053,-0.215060,-4.874352,32.927420,24.498632
57557,-6.063697,0.912097,6.459290,-2.210227,0.638952,-1.208948,1.141246,-2.867106,-2.740803,-0.061426,0.009594,0.063770,0.999787,0.005706,-0.014335,-0.013703,-0.940910,0.095194,-0.254450,-0.202191,-5.111254,31.152870,22.829906
57558,-5.545250,2.494495,6.531133,-2.654639,2.239371,-1.592994,1.063156,-2.704448,-2.423628,-0.056025,0.025277,0.064690,0.999821,0.005315,-0.013521,-0.012117,-0.947127,0.090540,-0.241585,-0.190759,-5.229147,29.483065,21.398139
57559,-5.319237,2.217207,6.378921,-2.593029,2.003336,-1.865280,0.887264,-2.546526,-2.066511,-0.053769,0.022444,0.063206,0.999856,0.004436,-0.012732,-0.010332,-0.952428,0.086419,-0.229384,-0.181096,-5.294528,27.920397,20.214525
57560,-5.996823,1.977031,7.056779,-2.960015,1.717238,-0.983471,0.881201,-2.406698,-1.700962,-0.060643,0.019975,0.069928,0.999882,0.004406,-0.012033,-0.008504,-0.956986,0.082002,-0.217942,-0.173074,-5.223682,26.456568,19.273889
57561,-6.751360,2.461814,8.296189,-3.488898,2.189761,0.360636,0.786027,-2.447181,-1.492480,-0.068338,0.024802,0.082226,0.999890,0.003930,-0.012235,-0.007462,-0.961150,0.077767,-0.206261,-0.166130,-5.124278,24.982016,18.476910
57562,-6.696866,0.520177,9.138713,-2.694471,0.529511,1.191260,0.383633,-2.612078,-1.392631,-0.068117,0.005499,0.090513,0.999889,0.001918,-0.013060,-0.006963,-0.965033,0.075201,-0.193444,-0.160109,-5.202034,23.418302,17.761407
57563,-6.802493,-0.688423,8.894751,-2.761766,-0.744550,1.035054,0.639805,-2.853351,-1.447548,-0.069333,-0.006668,0.087943,0.999867,0.003199,-0.014266,-0.007237,-0.969054,0.071248,-0.179605,-0.153627,-5.119512,21.714657,17.034051
57564,-5.277810,-0.359286,9.581914,-1.611434,0.030421,1.012737,0.652968,-3.102468,-1.586303,-0.054284,-0.003477,0.094973,0.999843,0.003265,-0.015512,-0.007931,-0.973129,0.067136,-0.164463,-0.146505,-5.030825,19.862253,16.241786
57565,-1.868611,-0.755945,7.848816,0.781552,0.140322,-1.748535,0.796661,-3.140536,-1.520917,-0.019973,-0.007723,0.078151,0.999840,0.003983,-0.015702,-0.007604,-0.976928,0.062229,-0.149217,-0.139550,-4.821504,17.993995,15.495095
57566,-0.676533,0.762681,7.658973,1.174970,1.739695,-2.377087,1.197519,-2.782281,-1.349556,-0.007781,0.007219,0.076530,0.999863,0.005987,-0.013911,-0.006747,-0.980175,0.055462,-0.136004,-0.132979,-4.336118,16.341793,14.829285
57567,-2.284413,1.683198,8.912564,-0.432580,2.280160,-0.752065,1.091963,-2.590422,-1.078442,-0.023907,0.016473,0.088911,0.999887,0.005460,-0.012952,-0.005392,-0.982837,0.049147,-0.123707,-0.127724,-3.855549,14.816360,14.307149
57568,-3.728964,0.832560,9.529367,-1.631006,1.069044,0.266908,0.951473,-2.620019,-0.825180,-0.038500,0.008031,0.094833,0.999894,0.004757,-0.013100,-0.004126,-0.985107,0.043329,-0.111205,-0.123778,-3.407078,13.286724,13.926315
57569,-6.109729,-0.420643,10.707299,-3.596131,-0.705000,1.964879,0.952995,-2.964882,-0.674859,-0.062690,-0.004504,0.106130,0.999873,0.004765,-0.014824,-0.003374,-0.987246,0.037203,-0.097018,-0.120618,-2.928499,11.568242,13.634658
57570,-4.356853,0.086774,10.513695,-2.425899,0.012304,1.306180,0.997382,-3.438695,-0.717421,-0.045365,0.000507,0.104370,0.999833,0.004987,-0.017193,-0.003587,-0.989360,0.030576,-0.080477,-0.117279,-2.419362,9.579320,13.317896
57571,-0.285041,-1.153489,8.214129,1.113464,-0.595860,-1.610170,0.768228,-3.486260,-0.676531,-0.004321,-0.011837,0.082029,0.999835,0.003841,-0.017430,-0.003382,-0.991106,0.025033,-0.063553,-0.114205,-2.029438,7.567477,13.012097
57572,0.804843,-1.444336,6.991456,1.854431,-0.852936,-2.924809,1.449706,-3.060043,-0.574291,0.006936,-0.014971,0.069919,0.999853,0.007248,-0.015299,-0.002871,-0.992435,0.016311,-0.049116,-0.111329,-1.234847,5.803754,12.738533
57573,-0.483690,0.282251,8.297993,0.152845,0.428690,-1.508658,1.870514,-2.753615,-0.366481,-0.005975,0.002057,0.082925,0.999860,0.009352,-0.013767,-0.001832,-0.993322,0.005622,-0.036443,-0.109327,-0.183888,4.222454,12.554784
57574,-2.122980,1.995855,9.845012,-1.907195,1.562893,0.153587,1.826975,-2.659169,-0.231340,-0.022515,0.019085,0.098333,0.999869,0.009134,-0.013295,-0.001157,-0.993848,-0.004831,-0.024203,-0.107969,0.850594,2.697633,12.420326
57575,-2.487288,1.033360,10.302063,-2.268039,0.331220,0.585604,1.376363,-2.802110,-0.094669,-0.026309,0.009638,0.102727,0.999878,0.006882,-0.014010,-0.000473,-0.994077,-0.013133,-0.011007,-0.107316,1.631874,1.092375,12.338604
57576,-1.371455,0.528370,8.996656,-1.346122,-0.091921,-0.797624,1.648985,-2.997386,0.076566,-0.015063,0.004537,0.089787,0.999854,0.008245,-0.014986,0.000383,-0.993941,-0.022905,0.003035,-0.107456,2.572451,-0.627702,12.326573
57577,1.812510,2.320292,8.413558,1.159422,2.164637,-1.244169,1.725337,-2.889111,0.184392,0.016884,0.022490,0.084582,0.999858,0.008626,-0.014445,0.000922,-0.993454,-0.032986,0.016500,-0.108116,3.555837,-2.287710,12.350881
57578,2.142738,2.166995,8.583172,1.308256,1.893725,-1.000500,1.409251,-2.474786,0.256771,0.020335,0.021090,0.086238,0.999898,0.007046,-0.012374,0.001284,-0.992771,-0.041263,0.028095,-0.109149,4.356140,-3.714914,12.406948
57579,1.410892,0.866984,8.264348,0.715641,0.341128,-1.421686,1.415670,-2.297347,0.397226,0.013141,0.008111,0.082857,0.999907,0.007078,-0.011486,0.001986,-0.991842,-0.049445,0.038822,-0.110898,5.153280,-5.047287,12.532188
57580,1.435479,1.053085,8.875389,0.491520,0.288798,-0.778767,1.782060,-2.179152,0.685978,0.013352,0.009786,0.088992,0.999895,0.008910,-0.010895,0.003430,-0.990488,-0.059315,0.048831,-0.114155,6.142707,-6.331159,12.808761
57581,0.060775,1.670486,9.637705,-1.225372,0.264920,-0.112188,2.039375,-2.320278,1.054649,-0.000596,0.015720,0.096538,0.999867,0.010196,-0.011601,0.005273,-0.988577,-0.070433,0.059482,-0.119233,7.251084,-7.724022,13.264356
57582,1.763484,2.728166,8.912711,0.025972,1.539186,-0.452634,2.139991,-2.487417,1.437756,0.016330,0.026445,0.089622,0.999840,0.010699,-0.012436,0.007188,-0.986062,-0.082016,0.071024,-0.126139,8.379151,-9.250936,13.900486
57583,2.890798,3.470233,8.678010,0.719101,2.333648,-0.339789,2.065482,-2.239198,1.641224,0.027650,0.034032,0.087448,0.999850,0.010327,-0.011195,0.008206,-0.983231,-0.092976,0.081443,-0.134085,9.428880,-10.666278,14.649119
57584,1.608682,2.272820,9.744692,-0.522283,0.457889,0.297877,1.617925,-2.069709,1.707700,0.014886,0.022069,0.097785,0.999877,0.008089,-0.010348,0.008538,-0.980364,-0.101571,0.091345,-0.142218,10.197576,-12.004755,15.433154
57585,2.213199,0.924157,8.305128,0.482797,-0.501177,-1.196476,1.569034,-2.126147,1.777481,0.021168,0.008779,0.083350,0.999873,0.007845,-0.010630,0.008887,-0.977201,-0.109909,0.101564,-0.150606,10.915612,-13.391452,16.237603
57586,4.414119,1.393583,7.880543,2.299440,0.497745,-0.981459,1.773288,-1.859450,1.763453,0.043284,0.013618,0.079332,0.999879,0.008866,-0.009297,0.008817,-0.973829,-0.119024,0.110300,-0.159138,11.730698,-14.637868,17.049966
57587,3.768704,1.644270,8.497414,1.365517,0.241146,-0.475303,1.797096,-1.493321,1.729565,0.036911,0.015998,0.085397,0.999894,0.008985,-0.007466,0.008648,-0.970450,-0.127956,0.117183,-0.167700,12.540614,-15.685529,17.874280
57588,3.503638,1.658192,8.257506,1.040797,0.098651,-0.750917,1.800795,-1.363614,1.770980,0.034327,0.016142,0.082957,0.999897,0.009004,-0.006818,0.008855,-0.966905,-0.136745,0.123442,-0.176512,13.330058,-16.677709,18.728736
57589,4.943657,2.157390,7.309019,2.230036,1.156039,-1.083185,1.910583,-1.093008,1.836766,0.048839,0.021323,0.073563,0.999897,0.009553,-0.005465,0.009184,-0.963196,-0.145758,0.128310,-0.185860,14.149691,-17.539134,19.649574
57590,4.893432,2.620735,7.374610,1.891428,1.420558,-0.890714,1.987747,-0.697735,1.917158,0.048427,0.025937,0.074174,0.999899,0.009938,-0.003489,0.009585,-0.959412,-0.154694,0.131240,-0.195893,14.971868,-18.205982,20.667825
57591,4.703918,2.160212,7.053921,1.904090,0.968967,-1.328243,2.001994,-0.392699,2.051189,0.046680,0.021374,0.070846,0.999895,0.010010,-0.001963,0.010256,-0.955488,-0.163280,0.132767,-0.206775,15.754026,-18.737848,21.806528
57592,5.114273,1.666417,6.386812,2.563621,0.860764,-1.912646,2.348529,-0.035212,2.238799,0.050946,0.016484,0.064071,0.999868,0.011742,-0.000176,0.011194,-0.951097,-0.172988,0.132352,-0.219025,16.672790,-19.119325,23.109399
57593,4.565557,2.259383,6.641434,1.752906,0.980006,-1.687183,2.893596,0.306699,2.475854,0.045481,0.022194,0.066668,0.999818,0.014467,0.001533,0.012379,-0.945903,-0.184703,0.129877,-0.232990,17.833216,-19.376213,24.606116
57594,5.034667,3.020912,6.263677,1.831663,1.846992,-1.630992,3.235885,0.570858,2.778706,0.050109,0.029889,0.062979,0.999769,0.016178,0.002854,0.013892,-0.939820,-0.197454,0.125981,-0.248756,19.110257,-19.574607,26.324239
57595,5.449467,3.586983,5.547658,1.956260,2.690835,-1.921477,3.677504,0.973692,3.155580,0.054202,0.035702,0.055870,0.999695,0.018386,0.004868,0.015776,-0.932580,-0.211438,0.119947,-0.266835,20.537414,-19.667392,28.337096
57596,4.899208,5.051062,5.645374,0.632172,3.405207,-1.482746,4.128337,1.428011,3.591512,0.048495,0.050210,0.057145,0.999600,0.020639,0.007139,0.017955,-0.923897,-0.226505,0.111570,-0.287509,22.105389,-19.657897,30.694853
57597,4.344735,7.079291,6.027528,-1.112790,4.232012,-0.529993,4.324133,1.828833,4.099088,0.042560,0.070352,0.061408,0.999514,0.021617,0.009143,0.020492,-0.913668,-0.241419,0.101540,-0.310833,23.659942,-19.610782,33.430632
57598,4.571256,8.503505,6.223580,-1.961224,4.957682,0.360970,4.118652,2.267571,4.644685,0.044457,0.084779,0.063475,0.999454,0.020590,0.011336,0.023219,-0.902119,-0.254183,0.090375,-0.336755,24.961585,-19.527123,36.578104
57599,4.082437,8.449526,5.424642,-2.497069,4.783477,-0.412678,3.712386,2.761919,5.196297,0.039387,0.084512,0.055265,0.999395,0.018558,0.013807,0.025976,-0.889341,-0.263747,0.078266,-0.365218,25.893654,-19.381725,40.155807
57600,4.780659,8.771564,4.399147,-2.527325,5.689344,-0.847233,3.592601,3.353717,5.479825,0.046141,0.088195,0.044790,0.999323,0.017959,0.016765,0.027393,-0.875295,-0.271241,0.064015,-0.395208,26.668282,-19.053860,44.043894
57601,4.914248,8.864012,4.747978,-2.757352,5.435136,-0.425957,3.191046,4.139614,5.627986,0.047625,0.089233,0.047904,0.999263,0.015951,0.020693,0.028133,-0.860510,-0.275006,0.047233,-0.426220,27.153019,-18.403928,48.218711
57602,3.107499,7.207123,4.479022,-2.895800,3.321941,-1.923694,2.941412,4.873457,5.727108,0.030104,0.072281,0.045111,0.999185,0.014703,0.024361,0.028628,-0.844696,-0.275671,0.027886,-0.457948,27.475433,-17.433324,52.635134
57603,0.746224,7.586365,5.168732,-4.464388,1.140539,-1.838541,3.240732,5.346640,5.758768,0.006690,0.075215,0.052724,0.999097,0.016199,0.026725,0.028785,-0.827008,-0.276053,0.005857,-0.489712,28.011854,-16.263778,57.181153
57604,-1.592381,9.454649,7.801425,-6.324687,-1.593758,0.686149,2.994016,5.515051,5.613876,-0.016362,0.092905,0.079861,0.999114,0.014966,0.027567,0.028061,-0.808543,-0.274498,-0.016479,-0.520229,28.510142,-15.008083,61.682228
57605,-4.184363,9.370940,9.798325,-6.414336,-4.991837,1.816613,1.988937,5.147387,5.265579,-0.041718,0.091622,0.099976,0.999273,0.009942,0.025731,0.026322,-0.791082,-0.269382,-0.035166,-0.548075,28.600663,-13.865549,65.879133
57606,-3.980600,6.994989,11.096749,-3.422099,-6.049380,2.002266,0.867685,4.517335,4.591802,-0.038866,0.068565,0.112152,0.999472,0.004338,0.022583,0.022955,-0.776096,-0.261083,-0.049155,-0.571921,28.250317,-12.846548,69.528965
57607,-5.111393,2.864072,12.512079,0.652452,-8.324838,1.193528,-0.019124,3.642822,3.691660,-0.049341,0.027731,0.126028,0.999664,-0.000096,0.018212,0.018456,-0.764381,-0.251412,-0.058351,-0.590855,27.608529,-11.998818,72.448677
57608,-4.768014,-1.874238,12.948074,5.346424,-8.704312,-0.350358,-0.366009,2.620698,2.548088,-0.045736,-0.019096,0.130123,0.999831,-0.001830,0.013103,0.012740,-0.756393,-0.242958,-0.064021,-0.603940,26.983224,-11.338990,74.482149
57609,-4.851711,-4.127353,13.435639,7.697052,-9.002818,-0.824450,0.127638,1.576681,1.281609,-0.047190,-0.041665,0.134705,0.999948,0.000638,0.007883,0.006408,-0.751794,-0.239073,-0.068764,-0.610673,26.843458,-10.870990,75.571533
57610,-3.729840,-3.523098,13.864596,7.731667,-7.828549,0.060768,0.518901,0.520477,0.125917,-0.036915,-0.035614,0.138650,0.999993,0.002594,0.002602,0.000630,-0.750577,-0.239463,-0.072103,-0.611632,27.097566,-10.642985,75.780258
57611,-1.021467,-3.171871,11.664343,7.256591,-4.600151,-1.248764,0.708031,-0.255564,-0.794189,-0.010491,-0.032090,0.116517,0.999985,0.003540,-0.001278,-0.003971,-0.752211,-0.242599,-0.074213,-0.608126,27.586566,-10.568697,75.306227
57612,1.105308,-1.456872,9.431918,5.442221,-1.790103,-2.100300,1.340387,-0.543713,-1.367673,0.010694,-0.015274,0.094248,0.999950,0.006702,-0.002719,-0.006838,-0.754880,-0.248761,-0.077848,-0.601842,28.505015,-10.480356,74.459329
57613,1.836377,2.481947,7.948151,1.732603,-0.149543,-1.465359,2.037639,-0.530879,-1.474904,0.018331,0.023872,0.079777,0.999917,0.010188,-0.002654,-0.007374,-0.756903,-0.257437,-0.083755,-0.594819,29.829735,-10.338794,73.563939
57614,3.080552,7.911184,6.980018,-2.766683,2.134976,0.607387,2.291506,-0.349391,-1.177839,0.031144,0.078122,0.070753,0.999915,0.011457,-0.001747,-0.005889,-0.757513,-0.266621,-0.090705,-0.588949,31.261077,-10.173614,72.875194
57615,5.655680,10.507078,5.747024,-4.535338,5.333084,1.430037,1.622470,0.160108,-0.525108,0.056878,0.104451,0.058274,0.999963,0.008112,0.000801,-0.002626,-0.756771,-0.272031,-0.096737,-0.586463,32.222072,-9.942323,72.669644
57616,6.690484,6.856974,2.531970,-2.574208,6.663807,-2.945473,1.047390,0.937016,0.181645,0.066961,0.068498,0.025365,0.999975,0.005237,0.004685,0.000908,-0.754317,-0.273316,-0.103052,-0.587950,32.752473,-9.550927,73.056371
57617,7.394926,2.691587,-0.094562,-0.198041,7.441483,-7.258732,1.616873,1.900755,0.523813,0.073866,0.027120,-0.001429,0.999919,0.008084,0.009504,0.002619,-0.749502,-0.274064,-0.114199,-0.591688,33.537221,-8.808725,73.919064
57618,8.026621,1.374065,-2.313221,-0.179502,8.463370,-9.808514,2.677419,3.106116,0.257480,0.079878,0.014163,-0.024187,0.999789,0.013386,0.015529,0.001287,-0.743115,-0.274987,-0.133329,-0.595302,34.906298,-7.425843,75.058112
57619,6.229091,6.584404,1.054368,-3.177802,6.666160,-4.452615,3.310791,4.496237,-0.448728,0.062670,0.065533,0.010224,0.999608,0.016552,0.022478,-0.002243,-0.736585,-0.273496,-0.160396,-0.597424,36.655715,-5.192108,76.368090
57620,3.314797,6.751846,2.980616,-2.841091,3.614293,-3.155456,2.055233,5.550689,-1.089353,0.034337,0.067029,0.029555,0.999547,0.010275,0.027749,-0.005446,-0.732221,-0.263483,-0.188339,-0.599131,37.735855,-2.287279,77.800932
57621,-1.066810,6.948976,3.991865,-3.143993,-0.535963,-2.384699,2.132233,6.314049,-1.383330,-0.008907,0.069122,0.040957,0.999421,0.010659,0.031564,-0.006915,-0.727160,-0.250928,-0.219495,-0.600079,38.936666,1.035009,79.427260
57622,-4.674411,8.816192,7.435376,-2.756004,-3.716056,1.737564,1.614299,6.436319,-1.452127,-0.043666,0.087875,0.076502,0.999423,0.008070,0.032175,-0.007259,-0.721986,-0.235748,-0.249379,-0.600807,39.938691,4.405722,81.133230
57623,-6.390909,7.686939,8.342585,-1.209848,-5.046049,2.127015,0.625168,6.085850,-1.525970,-0.060740,0.077076,0.085547,0.999503,0.003125,0.030424,-0.007629,-0.717860,-0.217716,-0.274847,-0.601445,40.460992,7.626482,82.728858
57624,-7.058142,5.163563,7.717396,0.472941,-5.596134,0.407945,0.343375,5.542305,-1.596583,-0.067991,0.052051,0.079171,0.999583,0.001717,0.027708,-0.007982,-0.714347,-0.200001,-0.297345,-0.601077,40.875234,10.625167,84.126092
57625,-6.995602,5.130435,8.267665,1.118733,-4.954002,1.040190,0.439527,5.145116,-1.848725,-0.067320,0.051750,0.084545,0.999624,0.002197,0.025722,-0.009242,-0.711519,-0.183296,-0.318732,-0.598793,41.368864,13.535912,85.296981
57626,-7.796917,4.718348,8.903001,1.985444,-5.161341,1.663347,0.014226,4.787215,-2.180576,-0.075288,0.048008,0.090857,0.999654,0.000071,0.023933,-0.010902,-0.710135,-0.165482,-0.337646,-0.595247,41.609606,16.412020,86.213284
57627,-8.487203,3.438502,8.389775,2.665701,-5.634461,0.927844,-0.184307,4.310191,-2.558635,-0.082589,0.035530,0.085662,0.999686,-0.000921,0.021549,-0.012792,-0.710376,-0.147639,-0.354370,-0.589908,41.677106,19.225390,86.790704
57628,-8.844550,4.199275,8.739094,2.404781,-5.136686,2.020761,-0.025755,3.831167,-2.937759,-0.086121,0.043281,0.089050,0.999709,-0.000129,0.019154,-0.014687,-0.712040,-0.131007,-0.369923,-0.582232,41.736254,21.977749,87.012744
57629,-9.900216,5.027232,10.414529,2.904400,-4.864177,4.315890,-0.281071,3.177827,-3.162620,-0.096519,0.051960,0.105620,0.999748,-0.001405,0.015888,-0.015812,-0.715347,-0.114880,-0.382359,-0.573483,41.510723,24.536654,86.859475
57630,-9.586558,3.507568,9.497124,3.344825,-4.753620,2.859777,-0.560085,2.379451,-3.254010,-0.094137,0.036885,0.095997,0.999793,-0.002800,0.011896,-0.016269,-0.720278,-0.099817,-0.391012,-0.564222,40.945480,26.784516,86.305247
57631,-8.574549,3.193388,9.007958,3.201321,-3.667062,2.068086,-0.135409,1.846837,-3.292886,-0.084367,0.033392,0.090841,0.999822,-0.000677,0.009234,-0.016463,-0.725871,-0.087667,-0.398821,-0.553506,40.475737,28.811954,85.473687
57632,-8.057935,3.376052,8.841271,2.895162,-2.832713,1.937984,0.070886,1.418508,-3.336515,-0.079372,0.035060,0.088991,0.999836,0.000354,0.007092,-0.016682,-0.732102,-0.077339,-0.405523,-0.541846,39.980562,30.660973,84.402201
57633,-7.268425,4.332943,7.589403,1.336019,-1.854986,1.321446,0.546990,1.043639,-3.389742,-0.071541,0.044340,0.076390,0.999839,0.002735,0.005218,-0.016948,-0.738817,-0.069627,-0.412038,-0.528703,39.611756,32.358670,83.105851
57634,-6.297056,6.794917,7.181066,-0.666316,0.206787,1.887544,0.676954,0.767355,-3.302512,-0.061563,0.068729,0.072280,0.999851,0.003385,0.003837,-0.016512,-0.745597,-0.063293,-0.417714,-0.515358,39.226449,33.893806,81.698915
57635,-5.293506,8.649258,6.520541,-2.335552,2.001957,1.843879,0.460972,0.794317,-3.023006,-0.051361,0.087126,0.065612,0.999875,0.002305,0.003971,-0.015114,-0.751467,-0.056641,-0.422736,-0.503372,38.757265,35.332626,80.416349
57636,-5.419767,9.743629,6.420775,-3.215520,2.745207,2.338516,-0.154706,0.955190,-2.721731,-0.052557,0.098209,0.064386,0.999896,-0.000774,0.004776,-0.013608,-0.756242,-0.047904,-0.426628,-0.493753,38.025773,36.724043,79.330734
57637,-5.248985,9.128935,6.054339,-3.071310,2.766618,1.608700,-0.735182,1.114235,-2.372229,-0.051063,0.092123,0.060493,0.999907,-0.003676,0.005571,-0.011861,-0.759806,-0.037309,-0.429525,-0.486633,37.077320,38.053709,78.469961
57638,-5.507775,6.785917,5.256164,-2.084609,1.316696,0.083132,-1.025855,1.293696,-1.807173,-0.054120,0.068621,0.052563,0.999925,-0.005129,0.006468,-0.009036,-0.761538,-0.026388,-0.432215,-0.482238,36.177978,39.260421,77.978036
57639,-6.348247,6.061799,5.909710,-1.314031,0.762964,0.659053,-0.770855,1.505546,-1.388068,-0.062613,0.061283,0.059335,0.999940,-0.003854,0.007528,-0.006940,-0.761664,-0.016823,-0.436220,-0.478850,35.620592,40.420616,77.804097
57640,-7.122041,4.778227,6.287980,-0.299023,-0.151314,0.816422,-0.831731,1.332235,-1.140338,-0.070525,0.048448,0.063151,0.999953,-0.004159,0.006661,-0.005702,-0.761501,-0.007986,-0.439345,-0.476475,35.064648,41.415402,77.689379
57641,-6.986173,3.374835,6.460122,0.814085,-0.548306,0.235315,-0.738132,1.386517,-1.323445,-0.069186,0.034447,0.064956,0.999947,-0.003691,0.006932,-0.006617,-0.761573,0.001032,-0.442871,-0.473150,34.489462,42.495608,77.467951
57642,-8.016338,2.235746,7.490157,2.112657,-1.259889,1.110054,-0.833678,1.269127,-1.833798,-0.079475,0.023402,0.075311,0.999929,-0.004168,0.006345,-0.009169,-0.763021,0.011262,-0.445660,-0.468038,33.578278,43.680579,76.839610
57643,-9.515929,1.339587,8.212982,2.902568,-2.255007,2.282086,-0.723444,0.914162,-2.098918,-0.094633,0.014689,0.082512,0.999928,-0.003617,0.004571,-0.010494,-0.765777,0.020835,-0.447280,-0.461619,32.460668,44.770498,75.837877
57644,-9.935092,1.849443,9.056733,2.889025,-1.651486,3.342984,-0.481713,0.346503,-1.995964,-0.099001,0.019702,0.090693,0.999946,-0.002409,0.001732,-0.009980,-0.769496,0.027934,-0.447233,-0.455059,31.314649,45.537711,74.616831
57645,-8.601858,2.303353,8.676569,2.416188,-0.498281,2.373011,-0.293087,-0.090489,-1.775936,-0.085848,0.023923,0.086692,0.999959,-0.001465,-0.000452,-0.008880,-0.773644,0.032827,-0.445928,-0.448938,30.221740,46.009418,73.332516
57646,-7.602997,2.532512,8.311970,2.078144,0.247562,1.541863,-0.242576,-0.268165,-1.837013,-0.075904,0.026123,0.082987,0.999956,-0.001213,-0.001341,-0.009185,-0.778271,0.037251,-0.443997,-0.442463,29.050734,46.391059,71.908586
57647,-8.286672,2.096460,8.577057,2.262184,-0.234516,2.080721,-0.424614,-0.440178,-2.261967,-0.082810,0.022083,0.085542,0.999931,-0.002123,-0.002201,-0.011310,-0.784098,0.042951,-0.440869,-0.434718,27.475204,46.778492,70.081236
57648,-9.793947,0.526668,9.140761,3.157565,-1.796929,3.092459,-0.607348,-0.867920,-2.848283,-0.098244,0.006941,0.090962,0.999885,-0.003037,-0.004339,-0.014241,-0.791961,0.049712,-0.435457,-0.425094,25.329344,47.053814,67.625618
57649,-11.210392,-0.884973,9.224947,3.469841,-3.434453,3.887693,-0.438263,-1.512116,-3.465037,-0.112926,-0.006697,0.091414,0.999819,-0.002191,-0.007560,-0.017324,-0.802345,0.055775,-0.427572,-0.412690,22.750491,47.067531,64.453280
57650,-11.258845,-0.559928,8.991218,2.578447,-3.284267,3.987938,0.000576,-2.207064,-3.874430,-0.113652,-0.003405,0.088662,0.999751,0.000003,-0.011034,-0.019371,-0.814838,0.059483,-0.417508,-0.397727,20.052260,46.695548,60.762759
57651,-9.883693,0.907315,8.249846,1.040500,-1.749791,2.931216,0.423874,-2.680191,-3.955704,-0.099728,0.010867,0.081188,0.999712,0.002119,-0.013400,-0.019777,-0.828173,0.060679,-0.406110,-0.381474,17.528348,45.968177,56.946059
57652,-8.367663,3.203256,7.862411,-0.609912,0.627522,2.075087,0.619676,-2.812937,-3.932310,-0.084124,0.033442,0.077545,0.999703,0.003098,-0.014063,-0.019660,-0.841308,0.060713,-0.394307,-0.364743,15.221867,45.052692,53.221793
57653,-7.247957,4.212827,7.717310,-1.227018,2.013379,1.334948,0.273168,-2.727735,-3.845264,-0.072697,0.043420,0.076241,0.999721,0.001366,-0.013637,-0.019225,-0.853529,0.062169,-0.382030,-0.348821,12.898944,44.068572,49.696791
57654,-7.186087,3.319144,7.814216,-0.873698,1.508222,1.172364,0.059647,-2.536048,-3.783901,-0.072199,0.034532,0.077238,0.999741,0.000298,-0.012679,-0.018918,-0.864752,0.064704,-0.370013,-0.333327,10.633189,43.084375,46.367045
57655,-7.814178,2.182996,9.040738,-0.093707,0.829243,2.305608,-0.077645,-2.539112,-3.633045,-0.078867,0.023293,0.089400,0.999754,-0.000388,-0.012695,-0.018164,-0.875251,0.067531,-0.357615,-0.318569,8.482912,41.992414,43.261118
57656,-8.230409,0.938066,9.355688,0.221733,-0.197036,2.679141,0.023013,-2.696922,-3.444075,-0.083378,0.010800,0.092439,0.999761,0.000115,-0.013484,-0.017219,-0.885342,0.069280,-0.344579,-0.304361,6.597156,40.716232,40.393976
57657,-8.832565,1.104916,9.535848,-0.552750,-0.267817,3.217038,0.280120,-2.918199,-3.393975,-0.089501,0.012429,0.094075,0.999749,0.001400,-0.014590,-0.016968,-0.895394,0.069449,-0.330802,-0.289856,4.992933,39.246381,37.656685
57658,-8.905688,1.237392,9.429230,-1.190740,-0.198897,3.159450,0.255259,-3.188868,-3.517123,-0.090311,0.013836,0.092876,0.999717,0.001276,-0.015943,-0.017584,-0.905586,0.069490,-0.315560,-0.274785,3.440331,37.569505,34.929536
57659,-8.364360,0.388566,8.268894,-1.474299,-0.972630,1.821279,0.245757,-3.367354,-3.704983,-0.084930,0.005351,0.081272,0.999686,0.001229,-0.016835,-0.018523,-0.915776,0.069597,-0.299242,-0.258774,1.934562,35.739308,32.181484
57660,-7.960954,0.234988,8.160814,-1.646309,-0.916582,1.432826,0.422737,-3.495320,-3.828151,-0.080957,0.003720,0.080208,0.999662,0.002113,-0.017475,-0.019139,-0.925783,0.068854,-0.282332,-0.241813,0.624261,33.783522,29.466634
57661,-6.433237,0.426101,7.038250,-1.603830,-0.389098,-0.412181,0.633618,-3.528958,-3.728749,-0.065469,0.005254,0.069250,0.999666,0.003168,-0.017643,-0.018642,-0.935168,0.066922,-0.265365,-0.224863,-0.392582,31.763802,26.928677
57662,-5.023654,1.919404,6.741795,-1.659105,1.424475,-1.470843,0.890930,-3.288647,-3.395782,-0.051005,0.019758,0.066671,0.999711,0.004454,-0.016442,-0.016977,-0.943365,0.063559,-0.249758,-0.208909,-1.028391,29.853384,24.699229
57663,-5.993893,2.785895,7.390754,-2.736204,2.012396,-0.497647,0.896944,-3.016376,-2.900899,-0.060636,0.028406,0.073123,0.999771,0.004484,-0.015081,-0.014503,-0.950220,0.059816,-0.235469,-0.195086,-1.416123,28.088356,22.849669
57664,-6.722202,4.499945,8.359592,-3.830494,3.549975,0.581545,0.705157,-3.054945,-2.514857,-0.067920,0.045558,0.082722,0.999798,0.003526,-0.015274,-0.012573,-0.956279,0.056452,-0.220824,-0.183252,-1.728005,26.297206,21.292525
57665,-5.120537,3.479430,9.193462,-2.031323,3.299652,0.571206,-0.053970,-3.085320,-2.188054,-0.052230,0.035387,0.091125,0.999821,-0.000270,-0.015426,-0.010940,-0.961493,0.056317,-0.205348,-0.173757,-2.326061,24.484819,19.982630
57666,-4.202761,-0.351794,7.370484,-0.836417,-0.322339,-1.368670,0.021817,-2.989779,-1.808861,-0.043153,-0.003139,0.073065,0.999847,0.000109,-0.014948,-0.009044,-0.965984,0.055483,-0.190434,-0.165924,-2.734085,22.725985,18.943204
57667,-4.581401,1.277869,9.806558,-1.145790,1.459830,0.926948,0.562672,-2.885239,-1.665532,-0.047116,0.012893,0.097428,0.999857,0.002813,-0.014426,-0.008327,-0.970122,0.051980,-0.176460,-0.158189,-2.764949,21.027793,18.009181
57668,-4.368190,0.311200,9.735193,-0.957531,0.525151,0.805748,0.372175,-2.950422,-1.623218,-0.045085,0.003294,0.096700,0.999857,0.001861,-0.014751,-0.008116,-0.973958,0.049288,-0.161977,-0.150800,-2.863847,19.292015,17.115866
57669,-3.404583,0.037218,9.166775,-0.463144,0.371168,-0.052405,0.649775,-2.958556,-1.600752,-0.035394,0.000355,0.091152,0.999853,0.003249,-0.014792,-0.008003,-0.977569,0.045214,-0.147626,-0.143254,-2.771624,17.552714,16.245764
57670,-1.814366,0.879307,9.016353,0.453075,1.481888,-0.704824,0.696138,-2.864300,-1.495233,-0.019368,0.008622,0.089922,0.999863,0.003481,-0.014321,-0.007476,-0.980770,0.040882,-0.133747,-0.136128,-2.608619,15.871501,15.440325
57671,-3.433656,-0.121572,8.699600,-1.081342,-0.031862,-0.522261,0.858958,-2.701674,-1.249998,-0.035516,-0.001368,0.086516,0.999880,0.004295,-0.013508,-0.006250,-0.983477,0.035695,-0.120796,-0.130028,-2.294510,14.293125,14.775338
57672,-6.024070,1.314078,10.335786,-3.783498,0.766434,1.586121,1.041504,-2.986619,-1.178531,-0.061699,0.012966,0.102512,0.999858,0.005207,-0.014932,-0.005892,-0.986086,0.029365,-0.106540,-0.124185,-1.846557,12.556886,14.152637
57673,-2.702951,0.643129,8.935757,-1.047458,0.679302,-0.539004,0.688615,-3.283316,-1.145450,-0.028455,0.006285,0.088920,0.999843,0.003443,-0.016416,-0.005727,-0.988484,0.024572,-0.090581,-0.118701,-1.578610,10.655838,13.547798
57674,-0.508313,-0.125101,7.510865,0.738966,0.231542,-2.323859,0.869470,-3.101432,-1.027884,-0.006254,-0.001547,0.075011,0.999857,0.004347,-0.015506,-0.005139,-0.990458,0.018925,-0.075610,-0.113657,-1.177321,8.863361,13.001127
57675,-0.076470,0.243782,7.554310,0.877896,0.570771,-2.327222,1.084885,-2.801233,-0.808782,-0.001814,0.002034,0.075534,0.999879,0.005424,-0.014006,-0.004044,-0.991953,0.012300,-0.062254,-0.109560,-0.621570,7.250128,12.565997
57676,-1.922916,0.354778,8.259278,-1.036219,0.177292,-1.390727,1.245479,-2.569799,-0.574420,-0.020279,0.003092,0.082357,0.999894,0.006227,-0.012849,-0.002872,-0.993032,0.004924,-0.050129,-0.106534,0.051923,5.774161,12.249383
57677,-3.215487,0.918794,9.326452,-2.515226,0.335550,-0.235582,1.220746,-2.686430,-0.476566,-0.033383,0.008699,0.092876,0.999888,0.006104,-0.013432,-0.002383,-0.993873,-0.002411,-0.037408,-0.103982,0.722360,4.235499,11.972172
57678,-1.283263,0.429055,8.271906,-0.825605,0.109757,-1.472642,1.182187,-2.812542,-0.369026,-0.013987,0.003827,0.082551,0.999882,0.005911,-0.014062,-0.001845,-0.994453,-0.009646,-0.024025,-0.101945,1.381486,2.626056,11.737942
57679,0.263367,1.005502,7.920861,0.358159,0.848266,-1.877457,1.418748,-2.659806,-0.217727,0.001590,0.009491,0.079303,0.999886,0.007093,-0.013299,-0.001089,-0.994696,-0.017990,-0.011517,-0.100616,2.184253,1.105393,11.573033
57680,0.588819,1.692823,8.442022,0.376739,1.413250,-1.307618,1.421245,-2.389326,-0.070771,0.004884,0.016326,0.084600,0.999903,0.007106,-0.011946,-0.000354,-0.994640,-0.026220,-0.000332,-0.100020,2.993661,-0.262677,11.477794
57681,-0.296327,0.829032,8.542727,-0.486241,0.225438,-1.241715,1.493823,-2.235233,0.168815,-0.003925,0.007649,0.085446,0.999909,0.007469,-0.011176,0.000844,-0.994268,-0.034725,0.010075,-0.100618,3.844488,-1.548455,11.505178
57682,-1.302050,1.200917,9.160348,-1.722334,0.154563,-0.644660,1.887523,-2.269048,0.457052,-0.014086,0.011114,0.091555,0.999888,0.009437,-0.011345,0.002285,-0.993480,-0.045187,0.020507,-0.102642,4.915254,-2.867256,11.674149
57683,-1.426241,1.858630,9.656102,-2.185041,0.485252,-0.132309,2.098199,-2.513923,0.828843,-0.015550,0.017511,0.096558,0.999857,0.010490,-0.012569,0.004144,-0.992176,-0.056767,0.032117,-0.106453,6.091343,-4.348249,12.016517
57684,-0.628520,1.660115,8.672982,-1.527185,0.311420,-1.098770,2.364240,-2.870388,1.386990,-0.007641,0.015525,0.086814,0.999803,0.011820,-0.014351,0.006934,-0.990105,-0.069752,0.045510,-0.112938,7.386795,-6.077564,12.622107
57685,1.509692,2.423763,7.684699,0.219809,1.392509,-1.737399,2.921504,-2.985315,2.013551,0.013707,0.023252,0.077403,0.999731,0.014606,-0.014925,0.010067,-0.986999,-0.085382,0.059344,-0.122558,8.945015,-7.936378,13.534903
57686,2.146608,3.034953,7.580519,0.448518,1.870569,-1.592537,3.187751,-2.818411,2.597698,0.020005,0.029399,0.076568,0.999689,0.015937,-0.014091,0.012987,-0.982898,-0.102003,0.072416,-0.135139,10.580411,-9.783392,14.749041
57687,3.198674,3.574482,7.065913,1.106133,2.493939,-1.720677,3.263206,-2.544152,3.018762,0.030547,0.035050,0.071630,0.999672,0.016314,-0.012719,0.015092,-0.977945,-0.118591,0.084248,-0.149871,12.179490,-11.556031,16.188596
57688,4.315594,3.756502,7.396901,1.798591,2.654415,-1.028692,3.020309,-2.077602,3.277117,0.041770,0.037130,0.074971,0.999698,0.015100,-0.010387,0.016384,-0.972521,-0.133459,0.094090,-0.165944,13.561858,-13.138354,17.797598
57689,4.127285,2.536817,7.594653,1.799827,1.245253,-1.074647,2.739050,-1.538144,3.419804,0.040256,0.025016,0.076603,0.999730,0.013694,-0.007690,0.017097,-0.966864,-0.146371,0.101577,-0.182844,14.711744,-14.474462,19.539145
57690,2.960887,0.549413,7.781256,1.349674,-1.126299,-1.656470,2.997035,-1.185664,3.621972,0.029055,0.004855,0.078062,0.999706,0.014984,-0.005928,0.018108,-0.960465,-0.160020,0.107222,-0.201007,15.932252,-15.681923,21.432620
57691,3.252227,0.299799,7.117771,1.769146,-1.172064,-2.274544,3.666852,-1.029363,3.849678,0.032106,0.002311,0.071390,0.999633,0.018332,-0.005146,0.019246,-0.952751,-0.176502,0.111549,-0.220614,17.459963,-16.883950,23.463525
57692,4.840694,1.776739,6.339632,2.538622,0.817544,-2.088408,4.265770,-0.695821,4.031995,0.047832,0.017376,0.063937,0.999563,0.021326,-0.003479,0.020157,-0.943726,-0.195223,0.113703,-0.241539,19.248839,-17.994026,25.636528
57693,5.288977,3.792843,5.625867,1.885673,2.766103,-1.888241,4.545010,-0.219010,4.213886,0.052031,0.037738,0.057175,0.999519,0.022721,-0.001095,0.021066,-0.933613,-0.214404,0.113341,-0.263725,21.104611,-18.948599,27.986376
57694,5.481276,6.400584,5.548072,0.453326,4.675693,-0.884425,4.508992,0.380929,4.346887,0.053530,0.063908,0.056820,0.999508,0.022541,0.001904,0.021731,-0.922795,-0.232341,0.110261,-0.286897,22.843930,-19.682768,30.526401
57695,4.427796,7.898410,7.293636,-1.604303,4.104531,0.946162,3.958101,0.962721,4.520687,0.042855,0.078502,0.074285,0.999537,0.019787,0.004813,0.022600,-0.911805,-0.246588,0.105383,-0.310968,24.164243,-20.214687,33.293116
57696,3.579869,5.915995,6.769138,-1.179005,2.302878,-0.488673,3.231038,1.259999,4.732497,0.034833,0.058890,0.068423,0.999570,0.016153,0.006299,0.023659,-0.900723,-0.256723,0.100448,-0.335711,24.977685,-20.690547,36.251405
57697,5.769498,4.543900,4.989095,1.238889,3.453909,-1.728255,3.280474,1.732876,4.852512,0.057017,0.046007,0.050147,0.999534,0.016400,0.008663,0.024259,-0.888804,-0.266004,0.093363,-0.361322,25.733781,-20.989039,39.400215
57698,6.168301,5.113471,4.719056,0.940474,4.154128,-1.547058,3.482503,2.512481,4.911847,0.061010,0.051815,0.047320,0.999468,0.017409,0.012560,0.024555,-0.875985,-0.274472,0.082437,-0.387968,26.511932,-20.940619,42.790791
57699,4.507743,6.181968,5.734771,-1.046709,3.068555,-0.817657,3.569175,3.201734,5.028736,0.044444,0.061914,0.057737,0.999397,0.017842,0.016005,0.025139,-0.862107,-0.281634,0.068394,-0.415663,27.262296,-20.613063,46.431848
57700,2.808289,7.612869,5.921560,-3.273191,2.343916,-0.609753,3.521733,3.648379,5.251462,0.027180,0.075798,0.060051,0.999334,0.017605,0.018238,0.026251,-0.846893,-0.287218,0.052749,-0.444405,27.923303,-20.159062,50.315293
57701,3.267705,9.110807,5.838318,-4.261158,3.123552,0.179795,3.101783,4.059339,5.298515,0.031460,0.091039,0.059149,0.999323,0.015505,0.020292,0.026487,-0.831144,-0.289726,0.036297,-0.473224,28.333469,-19.544981,54.332503
57702,2.040235,7.703630,6.421377,-3.731734,1.137832,-0.351168,2.256135,4.507808,5.192815,0.019859,0.076829,0.064630,0.999345,0.011278,0.022534,0.025958,-0.815846,-0.287280,0.019778,-0.501473,28.287605,-18.686960,58.406809
57703,-0.792546,4.923475,6.725940,-2.652495,-2.321830,-2.218203,1.934143,4.585750,4.893008,-0.007564,0.048392,0.067906,0.999391,0.009669,0.022924,0.024460,-0.800733,-0.283008,0.003294,-0.527942,28.171274,-17.703943,62.319947
57704,-1.771408,4.340055,8.750309,-1.730801,-4.246994,-1.009290,1.742781,4.350860,4.300923,-0.016717,0.042267,0.088246,0.999494,0.008712,0.021751,0.021501,-0.786559,-0.278267,-0.012588,-0.551120,28.127970,-16.673356,65.830968
57705,-3.337775,3.105688,10.366642,-0.410509,-6.506005,-0.552948,1.167250,3.835054,3.452000,-0.031902,0.029890,0.104464,0.999650,0.005836,0.019173,0.017258,-0.774880,-0.272408,-0.026028,-0.569805,27.986909,-15.670311,68.729385
57706,-3.456624,0.978877,11.295965,2.047305,-7.228376,-0.644665,0.662342,3.060372,2.368606,-0.032942,0.009017,0.113503,0.999807,0.003311,0.015301,0.011842,-0.766657,-0.266494,-0.036488,-0.582998,27.811291,-14.760699,70.828222
57707,-2.633125,-1.145369,11.631276,4.518618,-6.754604,-1.010311,0.384740,2.303656,1.232386,-0.024917,-0.011834,0.116583,0.999913,0.001924,0.011518,0.006162,-0.762037,-0.261449,-0.044748,-0.590713,27.710520,-13.926862,72.112991
57708,-2.810742,-1.816469,11.868680,5.312808,-6.919518,-1.097452,0.812221,1.637496,0.369974,-0.027101,-0.018698,0.118836,0.999957,0.004061,0.008187,0.001850,-0.759456,-0.259764,-0.052849,-0.594101,28.019331,-13.201640,72.762444
57709,-2.149610,1.726487,11.739218,2.523627,-5.589618,0.569769,1.303329,0.856583,-0.110325,-0.020984,0.016511,0.117592,0.999969,0.006517,0.004283,-0.000552,-0.757815,-0.262119,-0.060069,-0.594476,28.720228,-12.744497,72.950156
57710,1.672369,5.227903,10.389224,0.181842,-0.996221,1.893581,1.000057,0.487666,-0.298204,0.017055,0.051734,0.104111,0.999983,0.005000,0.002438,-0.001491,-0.757205,-0.264351,-0.065228,-0.593720,29.290900,-12.422529,72.941329
57711,3.001180,5.821810,8.103802,-0.793847,1.105716,0.517794,0.655551,0.574551,-0.088415,0.030270,0.057939,0.081142,0.999990,0.003278,0.002873,-0.000442,-0.756381,-0.265080,-0.069420,-0.593970,29.635731,-12.115477,73.067366
57712,4.524106,6.308086,6.332175,-1.471945,3.201038,-0.434922,0.609931,0.866031,0.266246,0.045431,0.062948,0.063317,0.999985,0.003050,0.004330,0.001331,-0.754444,-0.264890,-0.074101,-0.595950,29.899741,-11.765806,73.459890
57713,5.389694,5.389094,5.131479,-0.947030,4.293755,-1.744873,0.425099,1.396382,0.544925,0.054107,0.053929,0.051052,0.999970,0.002125,0.006982,0.002725,-0.751691,-0.262514,-0.079866,-0.599724,30.002171,-11.233211,74.148917
57714,5.496049,2.452176,3.970223,1.071615,4.395624,-4.199191,0.473292,2.009936,0.612682,0.055281,0.024598,0.039206,0.999942,0.002366,0.010049,0.003063,-0.748360,-0.258483,-0.087978,-0.604487,30.099730,-10.417517,75.050734
57715,5.923517,0.568049,2.693051,2.187361,5.004868,-6.231126,1.040376,2.718507,0.378644,0.059583,0.005656,0.026152,0.999892,0.005202,0.013592,0.001893,-0.744567,-0.254291,-0.100747,-0.608939,30.523149,-9.187673,76.043737
57716,6.633077,1.900030,3.204851,1.415339,5.858757,-5.170973,1.504255,3.622700,-0.120213,0.066910,0.018724,0.030982,0.999807,0.007521,0.018112,-0.000601,-0.741026,-0.248741,-0.118895,-0.612269,31.233651,-7.376262,77.065645
57717,5.428936,2.190524,2.993386,0.783249,4.946784,-5.553376,1.554366,4.574421,-0.587973,0.055021,0.021517,0.028849,0.999704,0.007771,0.022870,-0.002940,-0.737926,-0.240073,-0.141242,-0.614721,32.002497,-4.973932,78.164046
57718,2.801581,3.678436,3.445798,-0.738858,2.690408,-4.766514,2.032431,5.417247,-0.857780,0.029098,0.036314,0.034050,0.999572,0.010161,0.027082,-0.004288,-0.733955,-0.230206,-0.168392,-0.616408,33.085133,-2.098556,79.426690
57719,0.008036,5.805503,4.693502,-2.203972,0.324972,-2.688201,2.173242,5.976630,-0.923479,0.001761,0.057535,0.047526,0.999484,0.010864,0.029878,-0.004617,-0.728861,-0.218872,-0.197938,-0.617800,34.313462,1.037118,80.891033
57720,-2.304595,5.829054,4.692570,-2.358173,-1.644863,-2.530745,1.948233,6.296838,-0.870842,-0.021289,0.057920,0.048180,0.999447,0.009739,0.031478,-0.004353,-0.722759,-0.205538,-0.227693,-0.619298,35.502900,4.275730,82.552776
57721,-4.735752,6.248968,4.196557,-2.997850,-3.659211,-2.283739,2.299299,6.457186,-0.917373,-0.045669,0.062202,0.044175,0.999402,0.011494,0.032279,-0.004586,-0.715425,-0.192698,-0.258897,-0.619683,37.000761,7.563208,84.330471
57722,-6.735242,8.365542,6.579096,-2.995924,-4.761628,1.453559,2.195819,6.349033,-1.118378,-0.064734,0.083278,0.068790,0.999420,0.010977,0.031739,-0.005591,-0.708116,-0.179325,-0.289286,-0.618650,38.534513,10.825486,86.078556
57723,-7.834368,7.805805,7.821274,-1.421729,-5.217494,2.604317,1.264773,5.995509,-1.387221,-0.075402,0.078082,0.080997,0.999507,0.006323,0.029973,-0.006935,-0.702222,-0.163178,-0.315479,-0.617033,39.597832,13.986971,87.667810
57724,-8.743684,6.078287,7.941483,0.286944,-5.758265,2.152859,0.887296,5.625806,-1.690564,-0.084637,0.061146,0.082093,0.999559,0.004436,0.028125,-0.008452,-0.697504,-0.146205,-0.339161,-0.614069,40.473488,17.071968,89.054336
57725,-9.966398,6.207210,10.043848,1.833165,-5.752749,4.407814,0.700653,5.099013,-1.963621,-0.096444,0.062671,0.103144,0.999621,0.003503,0.025492,-0.009817,-0.694080,-0.129622,-0.360363,-0.609582,41.228990,20.011652,90.177008
57726,-10.930828,5.019247,11.292983,3.763232,-5.855421,5.144168,0.211709,4.277768,-2.151058,-0.106312,0.051225,0.115279,0.999713,0.001058,0.021387,-0.010754,-0.692565,-0.113415,-0.377101,-0.604388,41.620156,22.658677,90.930150
57727,-10.804794,3.395980,11.536438,5.258870,-5.403777,4.486861,0.329078,3.303755,-2.220463,-0.105738,0.034951,0.117181,0.999801,0.001645,0.016518,-0.011102,-0.692692,-0.100369,-0.390686,-0.597886,41.944913,24.912404,91.276615
57728,-10.339208,3.563771,12.018213,5.507523,-4.257546,4.869229,0.617098,2.343594,-2.274893,-0.101562,0.036426,0.121491,0.999862,0.003085,0.011717,-0.011374,-0.694483,-0.091053,-0.401695,-0.589952,42.263886,26.776246,91.206924
57729,-8.964388,4.047224,11.063061,4.510112,-2.829336,3.999478,0.721728,1.474312,-2.416847,-0.088330,0.041144,0.111433,0.999893,0.003609,0.007371,-0.012084,-0.698223,-0.084347,-0.409969,-0.580772,42.438283,28.328560,90.699187
57730,-6.876478,4.569670,10.248017,3.543396,-0.824334,2.834387,0.645484,0.976856,-2.659205,-0.067650,0.046269,0.102961,0.999894,0.003227,0.004884,-0.013296,-0.703571,-0.078314,-0.416293,-0.570574,42.391031,29.763127,89.848886
57731,-5.882346,4.576878,8.115435,2.065252,-0.485229,0.999547,0.549289,0.729157,-2.967773,-0.057841,0.046408,0.081493,0.999879,0.002746,0.003646,-0.014838,-0.710197,-0.071976,-0.421505,-0.559262,42.127671,31.211304,88.718993
57732,-5.111219,5.342008,6.314105,0.252507,0.033104,-0.093677,0.599232,0.727493,-3.156541,-0.050032,0.054026,0.063486,0.999864,0.002996,0.003637,-0.015782,-0.717154,-0.065417,-0.426805,-0.547036,41.803943,32.724354,87.467167
57733,-5.263276,7.981637,5.974220,-1.938221,1.116632,1.236568,0.583405,0.889421,-3.226540,-0.051071,0.080474,0.060206,0.999856,0.002917,0.004447,-0.016132,-0.723765,-0.058177,-0.432551,-0.534489,41.444346,34.328795,86.220032
57734,-5.645974,9.288273,5.886426,-3.010470,1.675999,2.058078,-0.081561,0.990220,-2.985425,-0.054773,0.093733,0.059100,0.999876,-0.000408,0.004951,-0.014927,-0.729513,-0.048782,-0.436696,-0.524145,40.752338,35.874572,85.105380
57735,-5.809760,7.848573,5.359718,-2.423183,1.029372,1.010455,-0.461207,1.125674,-2.537681,-0.056792,0.079336,0.053737,0.999901,-0.002306,0.005628,-0.012688,-0.733724,-0.038601,-0.440139,-0.516175,39.973930,37.303049,84.250836
57736,-6.862868,7.488098,5.577611,-2.170081,0.398806,1.562965,-0.378969,1.223552,-2.051347,-0.067513,0.075683,0.056049,0.999927,-0.001895,0.006118,-0.010256,-0.736322,-0.029546,-0.443979,-0.509744,39.399669,38.586963,83.677006
57737,-6.660701,7.155999,6.382613,-1.422999,0.983113,1.733492,-0.528602,1.195274,-1.724859,-0.065603,0.072298,0.064030,0.999941,-0.002643,0.005976,-0.008624,-0.738077,-0.020722,-0.447234,-0.504772,38.823129,39.737176,83.250790
57738,-6.892526,5.637923,6.803253,-0.121989,0.472537,1.382602,-0.698750,1.158316,-1.620209,-0.068069,0.057171,0.068230,0.999944,-0.003494,0.005791,-0.008101,-0.739584,-0.011605,-0.449855,-0.500510,38.156477,40.828350,82.845526
57739,-7.505001,3.974492,7.239666,1.252156,-0.404242,1.268752,-0.726539,1.096068,-1.712227,-0.074307,0.040647,0.072659,0.999942,-0.003633,0.005480,-0.008561,-0.741379,-0.002324,-0.452138,-0.495906,37.395590,41.921100,82.330873
57740,-7.406620,3.027407,7.037827,1.739141,-0.693592,0.677534,-0.492957,0.873645,-1.844750,-0.073474,0.031127,0.070624,0.999945,-0.002465,0.004368,-0.009224,-0.743920,0.005830,-0.454120,-0.490228,36.616786,42.951102,81.601609
57741,-8.347040,3.816151,8.563033,1.989785,-0.071082,2.580570,-0.335505,0.600617,-1.951618,-0.082834,0.039116,0.085815,0.999946,-0.001677,0.003003,-0.009758,-0.747268,0.012982,-0.455425,-0.483746,35.762503,43.884691,80.645102
57742,-8.312918,2.696698,8.625661,2.729708,-0.422782,2.151596,-0.576905,0.210188,-2.109828,-0.082746,0.028090,0.086264,0.999940,-0.002884,0.001051,-0.010549,-0.751787,0.020440,-0.454621,-0.477199,34.536043,44.673356,79.367987
57743,-8.394579,0.879181,8.335306,3.686706,-1.441138,1.369655,-0.560304,-0.083236,-2.577456,-0.083856,0.010106,0.083291,0.999913,-0.002801,-0.000416,-0.012887,-0.757982,0.028208,-0.452642,-0.468810,32.957326,45.449892,77.598281
57744,-9.399166,-0.103460,8.623427,4.200778,-2.391625,1.991598,-0.487819,-0.441848,-3.361429,-0.094179,0.000757,0.086026,0.999853,-0.002439,-0.002209,-0.016806,-0.766659,0.036616,-0.449255,-0.457234,30.856557,46.247584,75.066152
57745,-11.257000,-0.900509,8.985048,4.309680,-3.766684,3.434090,-0.382487,-1.010265,-4.186183,-0.113175,-0.006469,0.089294,0.999766,-0.001912,-0.005051,-0.020929,-0.778230,0.045175,-0.443609,-0.442185,28.128241,46.920956,71.619848
57746,-12.671378,-0.625760,9.179434,3.378702,-4.269916,4.868271,-0.151916,-1.795874,-4.753264,-0.127631,-0.003162,0.090654,0.999677,-0.000759,-0.008978,-0.023764,-0.792415,0.052317,-0.435043,-0.424358,24.928774,47.211888,67.375473
57747,-11.721976,0.649719,8.374900,1.548166,-3.084919,4.187844,0.112174,-2.501272,-4.994559,-0.118045,0.009392,0.082281,0.999610,0.000561,-0.012505,-0.024970,-0.808155,0.057427,-0.423867,-0.404875,21.549840,47.020865,62.685842
57748,-9.356062,3.109427,7.071923,-0.838637,-0.433852,2.282904,0.285994,-2.812811,-4.915546,-0.093743,0.033297,0.069448,0.999598,0.001430,-0.014062,-0.024574,-0.823804,0.060967,-0.411475,-0.385122,18.317003,46.461257,58.028765
57749,-7.326658,5.556922,6.084105,-2.793730,2.232207,0.616829,0.114124,-2.688479,-4.666905,-0.072753,0.057237,0.059893,0.999637,0.000571,-0.013441,-0.023332,-0.838041,0.064923,-0.399022,-0.366406,15.255941,45.755618,53.700325
57750,-6.776442,5.924967,5.987290,-3.164330,2.989655,0.082223,-0.445812,-2.359861,-4.377037,-0.067143,0.060856,0.058944,0.999688,-0.002229,-0.011798,-0.021883,-0.850344,0.071179,-0.386750,-0.349677,12.206616,45.033439,49.782958
57751,-7.155982,3.830706,6.273498,-2.098041,1.552339,0.107751,-0.770644,-2.065030,-4.127220,-0.071387,0.040021,0.061845,0.999726,-0.003853,-0.010324,-0.020634,-0.861030,0.078828,-0.375023,-0.334322,9.248686,44.308393,46.213090
57752,-7.501271,1.488694,6.882256,-0.746102,-0.003352,0.448048,-0.632317,-1.966016,-3.744003,-0.075385,0.016512,0.068032,0.999771,-0.003161,-0.009829,-0.018719,-0.870512,0.085269,-0.363919,-0.320159,6.693705,43.487074,43.057433
57753,-7.620769,1.619793,7.515515,-0.841552,0.409285,0.971498,-0.070646,-1.964264,-3.395269,-0.076651,0.017523,0.074398,0.999808,-0.000353,-0.009821,-0.016975,-0.879308,0.088617,-0.353716,-0.306349,4.740850,42.558777,40.263811
57754,-7.218619,3.269450,8.825312,-1.144870,2.506212,1.723571,-0.055599,-1.997042,-3.187642,-0.072529,0.033873,0.087521,0.999823,-0.000278,-0.009985,-0.015937,-0.887526,0.091429,-0.343356,-0.293335,2.997687,41.537718,37.715366
57755,-7.373413,2.092847,9.682572,-0.368668,1.897036,2.383824,-0.453350,-2.041248,-3.135390,-0.074374,0.022309,0.096019,0.999822,-0.002267,-0.010206,-0.015676,-0.895249,0.095838,-0.332116,-0.281146,1.140371,40.431794,35.288924
57756,-8.058803,-0.486423,9.404963,0.153557,-0.535058,2.569169,-0.442192,-2.252044,-3.088920,-0.081700,-0.003401,0.093142,0.999815,-0.002211,-0.011260,-0.015444,-0.902938,0.099770,-0.319853,-0.269152,-0.590650,39.147728,32.986982
57757,-8.345720,-0.825787,9.614963,-0.153229,-0.801384,2.919127,-0.077894,-2.483084,-3.196272,-0.084760,-0.006873,0.095106,0.999795,-0.000389,-0.012415,-0.015980,-0.910972,0.101897,-0.306857,-0.256096,-2.062362,37.681197,30.700141
57758,-8.466443,-1.809226,9.310770,-0.324518,-1.749342,2.775388,0.059778,-2.763035,-3.304742,-0.086224,-0.016704,0.091918,0.999768,0.000299,-0.013814,-0.016522,-0.919248,0.103144,-0.292576,-0.242372,-3.387926,36.007945,28.439945
57759,-8.688583,-2.606111,8.630754,-0.906443,-2.740268,2.370111,0.581901,-3.093456,-3.331988,-0.088627,-0.024843,0.084872,0.999737,0.002909,-0.015466,-0.016658,-0.927856,0.101598,-0.277248,-0.227805,-4.309704,34.109818,26.265886
57760,-7.763226,-0.913570,8.612547,-1.514863,-0.960310,1.678371,1.054393,-3.364254,-3.264847,-0.079206,-0.008300,0.084757,0.999711,0.005271,-0.016820,-0.016323,-0.936493,0.097384,-0.261086,-0.212912,-4.819608,32.037820,24.232553
57761,-6.226918,-0.481412,7.577597,-1.388083,-0.397612,-0.100334,1.000146,-3.462222,-3.067204,-0.063636,-0.004220,0.074660,0.999720,0.005000,-0.017309,-0.015335,-0.944489,0.093028,-0.244355,-0.198938,-5.196144,29.907073,22.400092
57762,-5.040793,-0.351266,6.871602,-1.117421,-0.144542,-1.358400,1.261078,-3.321324,-2.759691,-0.051585,-0.003236,0.067845,0.999747,0.006305,-0.016605,-0.013797,-0.951628,0.087134,-0.228562,-0.185931,-5.247011,27.866619,20.807983
57763,-6.090831,0.407738,7.670479,-2.251268,0.346717,-0.278307,1.342687,-3.220805,-2.461943,-0.062081,0.004326,0.075740,0.999772,0.006713,-0.016103,-0.012309,-0.957954,0.080584,-0.213344,-0.174111,-5.108703,25.900453,19.426924
57764,-6.120408,0.768197,8.692344,-2.324555,0.821626,0.556415,1.213273,-3.335892,-2.255829,-0.062555,0.007859,0.085935,0.999779,0.006066,-0.016678,-0.011278,-0.963743,0.074277,-0.197449,-0.163388,-4.934146,23.881897,18.200138
57765,-5.037782,0.170422,8.192688,-1.667795,0.368312,-0.346837,1.214265,-3.439450,-2.061799,-0.051759,0.001739,0.081055,0.999781,0.006071,-0.017196,-0.010308,-0.969052,0.067676,-0.181044,-0.153563,-4.668524,21.818477,17.108987
57766,-3.152366,1.237590,8.383302,-0.549068,1.805335,-0.970646,1.353368,-3.348773,-1.936189,-0.032804,0.012124,0.083373,0.999790,0.006766,-0.016743,-0.009680,-0.973816,0.060309,-0.165147,-0.144127,-4.258255,19.817780,16.093401
57767,-1.722523,0.936676,8.549270,0.655506,1.781652,-1.249699,1.235106,-3.074870,-1.680426,-0.018461,0.008991,0.085271,0.999827,0.006175,-0.015373,-0.008402,-0.977760,0.053498,-0.150516,-0.135895,-3.840758,17.991600,15.217009
57768,-4.499413,0.565276,8.964345,-1.902477,0.644248,0.030186,1.602239,-2.908924,-1.401312,-0.046254,0.005259,0.089020,0.999838,0.008011,-0.014544,-0.007006,-0.981164,0.044760,-0.136966,-0.128663,-3.140459,16.277550,14.492259
57769,-5.818643,2.398290,10.608188,-3.464659,2.124457,1.832661,1.608043,-3.217708,-1.238206,-0.059739,0.023501,0.105319,0.999819,0.008040,-0.016088,-0.006191,-0.984338,0.035684,-0.121899,-0.122252,-2.393179,14.400889,13.857011
57770,-3.896125,1.985907,9.681261,-2.071952,1.905786,0.430141,1.299307,-3.504870,-1.156146,-0.040538,0.019464,0.096239,0.999809,0.006496,-0.017523,-0.005780,-0.987218,0.027871,-0.105196,-0.116439,-1.791248,12.368158,13.259416
57771,-1.976967,0.893355,9.057075,-0.408107,1.064678,-0.569947,1.240159,-3.470532,-1.021477,-0.021294,0.008479,0.090264,0.999817,0.006200,-0.017352,-0.005107,-0.989623,0.020304,-0.088614,-0.111274,-1.192089,10.364350,12.722750
57772,-2.685279,1.067967,8.735928,-1.456685,0.900360,-0.772395,1.433462,-3.412080,-0.922569,-0.028291,0.010184,0.086959,0.999818,0.007167,-0.017059,-0.004613,-0.991607,0.011747,-0.072399,-0.106466,-0.456431,8.400075,12.222908
57773,-0.432914,1.926011,8.333543,0.229846,2.037689,-1.498053,1.243940,-3.374180,-0.818912,-0.005658,0.018763,0.083365,0.999830,0.006219,-0.016870,-0.004094,-0.993163,0.004121,-0.056261,-0.102202,0.191149,6.464884,11.761531
57774,1.512310,0.997108,6.528541,1.911183,1.348226,-3.454321,1.257688,-3.008003,-0.512507,0.014163,0.009522,0.065564,0.999864,0.006288,-0.015039,-0.002562,-0.994156,-0.003487,-0.041928,-0.099416,0.877878,4.742176,11.457566
57775,-0.074073,1.532879,7.855657,0.200267,1.418673,-1.938099,1.572599,-2.586724,-0.144882,-0.001747,0.014712,0.078656,0.999885,0.007863,-0.012933,-0.000724,-0.994623,-0.012516,-0.029835,-0.098374,1.765978,3.261138,11.347328
57776,-1.771714,1.418005,9.068273,-1.552051,0.775147,-0.627530,1.558436,-2.561790,0.253238,-0.018895,0.013451,0.090552,0.999887,0.007792,-0.012808,0.001266,-0.994666,-0.021529,-0.017821,-0.099293,2.658909,1.786567,11.442860
57777,-1.539263,0.945238,8.818733,-1.448826,0.168556,-0.930241,1.762557,-2.737560,0.706104,-0.016630,0.008619,0.088044,0.999861,0.008812,-0.013687,0.003530,-0.994226,-0.031671,-0.004989,-0.102403,3.669389,0.196712,11.767450
57778,0.043676,1.747031,8.110695,-0.280909,1.108552,-1.595483,1.988566,-2.753664,1.061932,-0.000771,0.016661,0.081270,0.999842,0.009942,-0.013768,0.005309,-0.993274,-0.042953,0.007873,-0.107242,4.799264,-1.424153,12.264778
57779,0.492905,1.885498,8.899399,-0.082573,1.059211,-0.764970,1.854702,-2.540473,1.167970,0.003690,0.018052,0.089216,0.999859,0.009273,-0.012702,0.005840,-0.992004,-0.053431,0.019760,-0.112616,5.836579,-2.937035,12.803680
57780,0.051990,0.522626,8.657719,-0.390708,-0.531558,-1.164496,1.643026,-2.411352,1.090714,-0.000550,0.004514,0.086614,0.999879,0.008215,-0.012056,0.005453,-0.990587,-0.062788,0.031109,-0.117591,6.743284,-4.381561,13.281379
57781,-0.040576,-1.164903,9.184284,-0.275185,-2.444403,-0.887840,1.788967,-2.415956,1.002904,-0.001453,-0.012475,0.091720,0.999874,0.008944,-0.012079,0.005014,-0.988930,-0.072862,0.042349,-0.122124,7.727526,-5.828878,13.685729
57782,-0.646464,-1.375665,9.052980,-0.953072,-3.002886,-1.191049,2.495799,-2.508559,1.013225,-0.007524,-0.014920,0.090258,0.999831,0.012478,-0.012542,0.005066,-0.986698,-0.086470,0.053617,-0.126787,9.110573,-7.338688,14.058842
57783,-0.083125,1.381410,9.243407,-1.310678,-0.576069,-0.577260,3.004779,-2.804124,1.157330,-0.002203,0.012414,0.092603,0.999772,0.015023,-0.014020,0.005786,-0.983685,-0.102692,0.066050,-0.132120,10.771989,-9.037456,14.445576
57784,3.038333,3.584600,7.417698,1.047570,2.373829,-1.424625,2.779840,-2.880147,1.492779,0.029043,0.035027,0.075092,0.999772,0.013898,-0.014400,0.007463,-0.980090,-0.117712,0.079158,-0.138928,12.270400,-10.828595,14.968505
57785,5.538862,4.358391,5.960865,3.144619,3.882742,-2.051710,2.653638,-2.343288,1.904355,0.054267,0.043303,0.060825,0.999798,0.013267,-0.011716,0.009521,-0.976076,-0.131518,0.089921,-0.147960,13.627870,-12.383713,15.753901
57786,3.796297,4.674638,6.634008,1.097376,3.340109,-1.572176,2.574045,-1.720841,2.328971,0.036846,0.046318,0.067258,0.999812,0.012869,-0.008604,0.011644,-0.971698,-0.144241,0.097960,-0.159380,14.853897,-13.671363,16.839119
57787,4.204894,3.993139,6.478339,1.530093,2.721421,-1.698336,2.315266,-1.345857,2.723865,0.041068,0.039739,0.065523,0.999818,0.011576,-0.006729,0.013618,-0.967016,-0.155158,0.104624,-0.172802,15.843950,-14.831081,18.188018
57788,4.873047,2.424571,5.793017,2.660943,1.651608,-2.506957,2.501244,-0.811039,3.070972,0.048122,0.024259,0.058429,0.999796,0.012505,-0.004055,0.015354,-0.961793,-0.166274,0.108779,-0.188347,16.844938,-15.776136,19.809467
57789,4.903043,1.522217,6.003208,2.919186,0.733567,-2.509608,2.999320,-0.321110,3.379203,0.048677,0.015143,0.060338,0.999744,0.014995,-0.001605,0.016895,-0.955689,-0.179079,0.110310,-0.205965,18.038372,-16.535716,21.681598
57790,4.944759,0.610400,5.184503,3.424717,0.250745,-3.495196,3.763165,0.163736,3.741818,0.049377,0.006052,0.051919,0.999648,0.018814,0.000819,0.018707,-0.948211,-0.194725,0.109000,-0.226045,19.565208,-17.142135,23.839933
57791,4.157921,3.318122,4.984185,1.446157,2.168293,-3.004995,4.866159,0.670163,4.055670,0.041080,0.032794,0.050505,0.999493,0.024327,0.003350,0.020275,-0.938766,-0.214687,0.104256,-0.248512,21.624571,-17.604709,26.266789
57792,4.068598,8.578023,6.660645,-1.601024,5.201363,0.427496,4.960623,1.106594,4.303978,0.039227,0.084951,0.068501,0.999446,0.024799,0.005532,0.021516,-0.928142,-0.234193,0.097500,-0.272397,23.652513,-17.973384,28.919292
57793,4.490959,9.449948,7.354601,-1.985863,5.317332,1.647101,3.722602,1.519367,4.642805,0.043287,0.094130,0.074968,0.999529,0.018610,0.007596,0.023210,-0.917752,-0.246992,0.090815,-0.297455,24.869062,-18.278097,31.853199
57794,4.474177,5.763161,5.076209,0.013924,3.654538,-1.710800,3.224921,2.002934,4.904744,0.043836,0.057890,0.051252,0.999519,0.016122,0.010013,0.024520,-0.906933,-0.256429,0.082885,-0.323802,25.704822,-18.445777,35.052804
57795,4.533266,4.928681,5.087900,0.437660,3.041586,-1.984234,3.686332,2.622495,5.106546,0.044741,0.049492,0.051201,0.999418,0.018428,0.013110,0.025528,-0.894484,-0.266610,0.071575,-0.351702,26.717079,-18.395850,38.524289
57796,4.063464,6.715515,5.538957,-1.194638,3.491343,-0.943119,3.880675,3.172134,5.253901,0.039757,0.067124,0.056057,0.999341,0.019399,0.015857,0.026264,-0.880607,-0.276298,0.057569,-0.380627,27.775988,-18.163179,42.224691
57797,4.277079,8.291772,5.812889,-2.255297,4.170876,0.104397,3.499981,3.774618,5.292385,0.041680,0.083005,0.058788,0.999319,0.017496,0.018869,0.026456,-0.866169,-0.282798,0.041618,-0.409932,28.582006,-17.695190,46.112345
57798,3.172785,7.930958,5.812263,-2.841604,3.046380,-0.358016,2.898925,4.357844,5.331758,0.030887,0.079293,0.058593,0.999302,0.014491,0.021784,0.026653,-0.851431,-0.285086,0.024365,-0.439543,29.025843,-16.984075,50.182498
57799,1.994328,7.079013,5.540465,-3.022327,1.775509,-1.298127,2.684917,4.820572,5.320401,0.019407,0.070563,0.055881,0.999266,0.013421,0.024097,0.026595,-0.835852,-0.285061,0.005570,-0.469106,29.371463,-16.066909,54.368275
57800,0.875975,7.112933,6.164773,-3.471154,0.467724,-1.032301,2.510146,5.137858,5.181887,0.008522,0.070573,0.062315,0.999256,0.012548,0.025683,0.025903,-0.819625,-0.283121,-0.014353,-0.497846,29.683793,-14.973545,58.560522
57801,-1.375306,6.598320,7.215162,-3.683992,-2.170675,-0.913463,2.128894,5.196616,4.898375,-0.013458,0.064876,0.073199,0.999306,0.010642,0.025977,0.024486,-0.803452,-0.279072,-0.033944,-0.524816,29.896746,-13.790840,62.606667
57802,-1.838281,3.713027,7.234073,-1.225489,-3.453568,-2.325290,1.448329,4.875503,4.375121,-0.017407,0.036215,0.073038,0.999437,0.007240,0.024373,0.021872,-0.788651,-0.272664,-0.051152,-0.548696,29.884378,-12.623130,66.274270
57803,0.988824,-1.486480,4.537563,3.400121,-1.057504,-6.482253,1.030839,4.631658,3.330344,0.011182,-0.014919,0.045050,0.999580,0.005153,0.023155,0.016649,-0.776565,-0.264769,-0.067627,-0.567689,29.842211,-11.278569,69.321047
57804,0.599336,-3.395258,4.408019,4.926657,-1.517103,-7.636412,1.967721,4.982962,1.843060,0.007398,-0.034319,0.043571,0.999599,0.009837,0.024911,0.009214,-0.766709,-0.258769,-0.090039,-0.580594,30.537281,-9.346907,71.713226
57805,-2.026440,-1.098838,6.924099,3.470907,-3.998097,-4.791447,2.168016,4.855521,0.403380,-0.018555,-0.011780,0.069580,0.999645,0.010839,0.024275,0.002017,-0.760245,-0.253082,-0.114332,-0.587286,31.540375,-7.089598,73.367379
57806,-1.304284,1.051601,8.396036,2.853762,-2.980137,-2.312145,2.110392,4.813972,-0.857068,-0.010973,0.009677,0.084346,0.999645,0.010551,0.024067,-0.004285,-0.757045,-0.246378,-0.139819,-0.588754,32.638548,-4.497418,74.426957
57807,-9.811871,4.104183,14.064909,1.422697,-11.355277,3.599966,3.036666,4.483537,-1.030241,-0.094719,0.039372,0.143404,0.999620,0.015181,0.022415,-0.005151,-0.752888,-0.243864,-0.166885,-0.588081,34.322014,-2.036273,75.357918
57808,-15.199433,5.834629,17.032448,0.944052,-16.367158,7.109256,2.369009,2.282970,-0.604797,-0.149859,0.056765,0.172722,0.999860,0.011844,0.011414,-0.003024,-0.749744,-0.245523,-0.183108,-0.586579,35.663631,-0.771763,75.829041
57809,-2.238071,3.729742,10.377504,2.452986,-3.004772,0.749614,1.760912,1.054525,-0.688706,-0.021705,0.036457,0.104214,0.999941,0.008804,0.005273,-0.003443,-0.748571,-0.248372,-0.193016,-0.583694,36.667686,-0.055824,75.871738
57810,-1.251843,3.528685,8.656118,2.084255,-1.759482,-0.784866,2.477305,1.118488,-0.840201,-0.011887,0.034261,0.087057,0.999899,0.012386,0.005592,-0.004201,-0.746768,-0.253539,-0.205406,-0.579538,38.082921,0.739683,75.882704
57811,-0.222885,4.932020,7.667623,0.915724,-0.269447,-0.743484,2.355060,1.051434,-1.112124,-0.001553,0.048423,0.077259,0.999901,0.011775,0.005257,-0.005560,-0.745833,-0.258100,-0.217500,-0.574292,39.424795,1.603795,75.767306
57812,1.802424,6.513518,6.139066,-0.476282,2.321920,-0.995719,2.229363,1.355433,-1.289448,0.018859,0.064327,0.061985,0.999894,0.011146,0.006777,-0.006447,-0.745083,-0.261088,-0.230547,-0.568799,40.695628,2.667480,75.705853
57813,2.175445,8.703886,5.915362,-1.883716,3.326306,0.230309,1.920871,1.825308,-1.335630,0.022876,0.086316,0.059780,0.999890,0.009604,0.009126,-0.006678,-0.744171,-0.261469,-0.244481,-0.563979,41.797953,3.953397,75.824296
57814,3.567747,7.923395,4.808753,-1.531673,4.803393,-1.256450,1.152014,2.437915,-1.408519,0.036819,0.078700,0.048098,0.999884,0.005760,0.012189,-0.007042,-0.743550,-0.257127,-0.258563,-0.560504,42.482225,5.524296,76.168236
57815,2.746411,6.550473,3.462497,-1.556641,3.997471,-3.176954,1.138762,3.237539,-1.589866,0.028542,0.065084,0.034540,0.999821,0.005693,0.016187,-0.007949,-0.742204,-0.250180,-0.275740,-0.557234,43.198347,7.498096,76.769359
57816,0.238473,8.230239,4.558125,-2.393271,2.177812,-0.975868,1.200432,3.971898,-1.853896,0.004057,0.081995,0.046005,0.999742,0.006002,0.019858,-0.009269,-0.740180,-0.240948,-0.296022,-0.553578,44.004854,9.872218,77.582694
57817,-2.365930,9.785179,5.569250,-3.102987,0.431868,1.256636,0.530582,4.399458,-2.096118,-0.021397,0.097935,0.056440,0.999700,0.002653,0.021995,-0.010480,-0.738589,-0.227563,-0.316160,-0.550222,44.483398,12.509602,78.502295
57818,-3.965509,8.815852,5.940437,-2.344449,-0.920462,1.249363,-0.323674,4.510468,-2.204898,-0.037329,0.088676,0.060121,0.999684,-0.001618,0.022550,-0.011023,-0.737639,-0.210406,-0.334286,-0.547605,44.519433,15.231891,79.443770
57819,-4.227590,6.918626,5.104738,-1.632752,-1.352200,-0.469921,-0.839291,4.645898,-2.358180,-0.040258,0.069885,0.051706,0.999652,-0.004196,0.023227,-0.011790,-0.736934,-0.190584,-0.351445,-0.545061,44.304680,18.072706,80.384822
57820,-4.734329,6.650559,4.893104,-1.618591,-1.487088,-0.553335,-0.981591,4.898873,-2.677865,-0.045233,0.067363,0.049727,0.999598,-0.004907,0.024491,-0.013388,-0.736243,-0.168841,-0.369184,-0.541426,44.044110,21.148610,81.296891
57821,-6.585100,6.811188,6.446909,-0.798031,-2.354429,1.372294,-1.340638,5.052364,-2.942925,-0.063187,0.069492,0.065625,0.999550,-0.006702,0.025258,-0.014712,-0.735660,-0.144732,-0.386435,-0.537144,43.605187,24.398838,82.156041
57822,-8.078871,6.168009,6.738947,-0.305213,-3.233893,1.940294,-1.936737,5.000316,-3.102439,-0.078105,0.063567,0.068755,0.999520,-0.009682,0.024998,-0.015510,-0.735359,-0.118126,-0.401642,-0.532895,42.818512,27.697609,82.901652
57823,-9.871383,4.812819,8.273406,1.521342,-4.239073,3.176437,-2.208737,4.731346,-3.101825,-0.095957,0.050557,0.084477,0.999539,-0.011042,0.023653,-0.015507,-0.735062,-0.091125,-0.414771,-0.528531,41.839039,30.893234,83.493447
57824,-10.885063,3.403643,9.282090,3.086010,-4.649881,3.789991,-1.998309,3.975898,-2.782748,-0.106486,0.036468,0.094597,0.999656,-0.009990,0.019877,-0.013912,-0.734806,-0.067483,-0.425189,-0.524138,40.887194,33.650298,83.863366
57825,-11.010319,2.620862,10.012292,4.100430,-4.195223,4.112017,-1.327207,3.070711,-2.281205,-0.108237,0.028121,0.101612,0.999795,-0.006636,0.015353,-0.011405,-0.734528,-0.049696,-0.433652,-0.519562,40.230722,35.832632,84.052713
57826,-10.527546,2.501199,10.181977,4.321089,-3.303895,4.013226,-0.578829,2.134539,-1.781346,-0.103951,0.026239,0.102859,0.999899,-0.002894,0.010672,-0.008906,-0.734575,-0.038167,-0.440352,-0.514814,39.902509,37.419379,84.065612
57827,-8.306531,4.445227,9.543097,2.660213,-0.564553,3.318504,0.083733,1.369178,-1.508605,-0.082071,0.045034,0.096014,0.999948,0.000419,0.006846,-0.007543,-0.735367,-0.031617,-0.445838,-0.509376,39.823497,38.572122,83.866947
57828,-6.797108,6.215794,8.811315,1.008015,1.385560,2.818103,0.075193,0.857604,-1.447583,-0.067140,0.062613,0.088426,0.999965,0.000376,0.004288,-0.007238,-0.737081,-0.026491,-0.449363,-0.504066,39.603149,39.473916,83.455312
57829,-5.496666,6.442242,7.235209,-0.149151,2.020701,1.139766,-0.169827,0.653773,-1.430604,-0.054267,0.064874,0.072475,0.999969,-0.000849,0.003269,-0.007153,-0.739197,-0.020992,-0.451494,-0.499299,39.173384,40.280035,82.944569
57830,-5.171887,6.128841,5.946379,-0.816814,1.722827,-0.013035,-0.266584,0.722688,-1.380566,-0.051079,0.061722,0.059567,0.999969,-0.001333,0.003613,-0.006903,-0.740995,-0.015095,-0.453598,-0.494922,38.714968,41.093198,82.482214
57831,-6.113577,5.653256,6.135490,-0.469670,1.009609,0.470178,-0.270619,0.884058,-1.243036,-0.060511,0.056993,0.061546,0.999970,-0.001353,0.004420,-0.006215,-0.742043,-0.009078,-0.456259,-0.491037,38.344698,41.929226,82.164857
57832,-6.289734,4.349113,5.806028,0.195916,0.217350,-0.215931,-0.372451,0.979658,-1.305498,-0.062326,0.044008,0.058285,0.999965,-0.001862,0.004898,-0.006527,-0.742982,-0.002322,-0.458991,-0.487134,37.910423,42.826570,81.843470
57833,-7.672314,3.241908,6.500581,1.286632,-0.888186,0.636450,-0.327066,0.977708,-1.587876,-0.076143,0.033132,0.065325,0.999955,-0.001635,0.004888,-0.007939,-0.744555,0.004924,-0.461800,-0.482031,37.365146,43.821817,81.328955
57834,-8.929892,2.727178,6.937668,1.756697,-1.673216,1.563704,-0.278041,0.726430,-1.798930,-0.088796,0.028169,0.069661,0.999952,-0.001390,0.003632,-0.008995,-0.747149,0.011854,-0.463737,-0.476000,36.647348,44.768664,80.535349
57835,-9.487292,2.639827,7.503554,2.045004,-1.666558,2.283488,-0.224436,0.385286,-1.887408,-0.094473,0.027375,0.075187,0.999953,-0.001122,0.001926,-0.009437,-0.750680,0.017994,-0.464484,-0.469480,35.770777,45.582012,79.488065
57836,-8.775845,2.379645,7.297236,2.065830,-1.260919,1.592016,-0.205607,0.075319,-1.913073,-0.087498,0.024709,0.072980,0.999954,-0.001028,0.000377,-0.009565,-0.754921,0.023375,-0.464061,-0.462813,34.755312,46.244305,78.244296
57837,-7.893506,2.582401,7.057773,1.756651,-0.522468,0.930995,-0.149963,-0.035349,-2.129847,-0.078666,0.026716,0.070544,0.999943,-0.000750,-0.000177,-0.010649,-0.759853,0.028814,-0.463279,-0.455154,33.588760,46.909741,76.764154
57838,-8.406978,2.331945,7.501711,2.006598,-0.657081,1.497834,-0.302243,-0.171737,-2.529394,-0.083829,0.024494,0.074909,0.999919,-0.001511,-0.000859,-0.012647,-0.765881,0.035420,-0.461509,-0.446298,32.040919,47.606915,74.898284
57839,-9.431270,1.289321,8.257438,2.865447,-1.433141,2.374326,-0.426731,-0.480837,-2.976502,-0.094303,0.014473,0.082318,0.999884,-0.002134,-0.002404,-0.014882,-0.773452,0.042863,-0.458107,-0.435973,30.017874,48.246940,72.510462
57840,-10.327997,-0.232078,8.689092,3.740576,-2.573039,2.899236,-0.506301,-0.908694,-3.669221,-0.103690,-0.000202,0.086423,0.999818,-0.002531,-0.004543,-0.018345,-0.783262,0.051228,-0.452594,-0.423126,27.360380,48.794402,69.356626
