// General information: 
//  MT Manager version: 2022.0.0 
//  XDA version: 2022.0.0 build 7085 rev 119802 built on 2022-11-08
// Device information: 
//  DeviceId: 00B472EC
//  ProductCode: MTW2-3A7G6
//  Firmware Version: 4.4.0
//  Hardware Version: 2.0.0
// Device settings: 
//  Filter Profile: human(46.1)
//  Option Flags: Orientation Smoother Disabled, Position/Velocity Smoother Disabled, Continuous Zero Rotation Update Disabled, AHS Disabled, ICC Disabled
// Coordinate system: ENU
PacketCounter,Acc_X,Acc_Y,Acc_Z,FreeAcc_E,FreeAcc_N,FreeAcc_U,Gyr_X,Gyr_Y,Gyr_Z,VelInc_X,VelInc_Y,VelInc_Z,OriInc_q0,OriInc_q1,OriInc_q2,OriInc_q3,Quat_q0,Quat_q1,Quat_q2,Quat_q3,Roll,Pitch,Yaw
47998,-7.833433,5.544468,-1.927390,0.101055,0.213123,-0.026830,-0.034210,0.006844,-0.026957,-0.078328,0.055452,-0.019281,1.000000,-0.000171,0.000034,-0.000135,-0.047344,-0.653392,0.414805,0.631486,108.673692,51.807517,-103.246206
47999,-7.756529,5.504308,-1.936787,0.118560,0.186468,-0.108901,-0.010689,-0.007804,-0.031430,-0.077556,0.055054,-0.019374,1.000000,-0.000053,-0.000039,-0.000157,-0.047289,-0.653390,0.414701,0.631560,108.662348,51.821464,-103.251772
48000,-7.733775,5.535791,-1.931733,0.095868,0.151940,-0.109308,-0.002368,-0.003125,-0.037243,-0.077327,0.055372,-0.019319,1.000000,-0.000012,-0.000016,-0.000186,-0.047192,-0.653413,0.414609,0.631604,108.660393,51.837798,-103.252605
48001,-7.766893,5.581355,-1.998151,0.135446,0.108812,-0.043421,-0.003136,0.001156,-0.038112,-0.077658,0.055828,-0.019982,1.000000,-0.000016,0.000006,-0.000191,-0.047107,-0.653454,0.414508,0.631635,108.661090,51.853655,-103.248843
48002,-7.696782,5.635011,-1.892169,0.007200,0.077826,-0.088080,0.008515,-0.007036,-0.039964,-0.076956,0.056366,-0.018922,1.000000,0.000043,-0.000035,-0.000200,-0.046957,-0.653473,0.414442,0.631669,108.663300,51.872182,-103.252307
48003,-7.609193,5.649045,-1.849881,-0.049183,0.032736,-0.157114,0.014122,-0.015678,-0.032841,-0.076081,0.056504,-0.018501,1.000000,0.000071,-0.000078,-0.000164,-0.046797,-0.653453,0.414417,0.631718,108.661070,51.888355,-103.264993
48004,-7.545695,5.640164,-1.902413,-0.008943,-0.026693,-0.201895,0.000102,-0.004753,-0.038557,-0.075446,0.056416,-0.019026,1.000000,0.000001,-0.000024,-0.000193,-0.046684,-0.653474,0.414328,0.631762,108.659708,51.905700,-103.266870
48005,-7.588185,5.688517,-1.935822,0.002041,-0.050610,-0.133606,-0.000305,0.001868,-0.032061,-0.075873,0.056897,-0.019358,1.000000,-0.000002,0.000009,-0.000160,-0.046613,-0.653507,0.414253,0.631784,108.661140,51.918218,-103.263804
48006,-7.597950,5.723222,-1.905840,-0.040342,-0.055124,-0.111571,0.012653,0.008049,-0.027142,-0.075972,0.057244,-0.019052,1.000000,0.000063,0.000040,-0.000136,-0.046521,-0.653548,0.414239,0.631757,108.673168,51.927019,-103.257806
48007,-7.651932,5.827692,-1.894910,-0.094260,-0.086637,-0.010221,0.014707,0.013071,-0.021975,-0.076514,0.058287,-0.018940,1.000000,0.000074,0.000065,-0.000110,-0.046451,-0.653595,0.414246,0.631709,108.688647,51.932021,-103.248762
48008,-7.690444,5.823982,-1.942935,-0.046925,-0.083716,0.027408,0.004602,0.012679,-0.018376,-0.076900,0.058247,-0.019423,1.000000,0.000023,0.000063,-0.000092,-0.046422,-0.653631,0.414234,0.631682,108.697223,51.935213,-103.241289
48009,-7.719034,5.841085,-1.935580,-0.058710,-0.074864,0.058441,0.009977,0.010428,-0.023802,-0.077184,0.058421,-0.019349,1.000000,0.000050,0.000052,-0.000119,-0.046360,-0.653674,0.414218,0.631652,108.708516,51.941594,-103.233499
48010,-7.700778,5.857530,-1.914453,-0.088364,-0.087604,0.049477,0.003898,0.002396,-0.018548,-0.077003,0.058583,-0.019142,1.000000,0.000019,0.000012,-0.000093,-0.046313,-0.653678,0.414205,0.631660,108.709604,51.946768,-103.235025
48011,-7.650953,5.836492,-1.917102,-0.083676,-0.106052,-0.001533,0.007712,0.006182,-0.026957,-0.076502,0.058376,-0.019166,1.000000,0.000039,0.000031,-0.000135,-0.046236,-0.653712,0.414176,0.631650,108.717444,51.955693,-103.230483
48012,-7.605103,5.834227,-1.904299,-0.100643,-0.127051,-0.041512,-0.007989,0.008826,-0.015930,-0.076047,0.058348,-0.019042,1.000000,-0.000040,0.000044,-0.000080,-0.046249,-0.653728,0.414132,0.631661,108.715565,51.958263,-103.227128
48013,-7.592253,5.812130,-1.952880,-0.049532,-0.143178,-0.054924,-0.006416,0.005316,-0.011707,-0.075920,0.058125,-0.019529,1.000000,-0.000032,0.000027,-0.000059,-0.046266,-0.653726,0.414106,0.631679,108.711160,51.959140,-103.227504
48014,-7.546816,5.776504,-1.937361,-0.051825,-0.139907,-0.114567,0.001129,0.006176,-0.005077,-0.075467,0.057767,-0.019371,1.000000,0.000006,0.000031,-0.000025,-0.046278,-0.653713,0.414128,0.631677,108.710118,51.956308,-103.229720
48015,-7.528613,5.760041,-1.913686,-0.066816,-0.128364,-0.143182,0.004408,0.010404,-0.000575,-0.075287,0.057601,-0.019132,1.000000,0.000022,0.000052,-0.000003,-0.046302,-0.653705,0.414174,0.631654,108.712840,51.950194,-103.229556
48016,-7.546355,5.776344,-1.939635,-0.050041,-0.138765,-0.114541,0.018703,0.011350,0.009337,-0.075467,0.057762,-0.019387,1.000000,0.000094,0.000057,0.000047,-0.046313,-0.653682,0.414297,0.631595,108.722068,51.938589,-103.231517
48017,-7.530328,5.813501,-1.904264,-0.101343,-0.154009,-0.112437,0.021965,0.010520,0.011363,-0.075308,0.058133,-0.019032,1.000000,0.000110,0.000053,0.000057,-0.046325,-0.653657,0.414432,0.631532,108.732059,51.925930,-103.233728
48018,-7.542011,5.846547,-1.948370,-0.077623,-0.186159,-0.075156,0.010982,0.013278,0.022980,-0.075428,0.058458,-0.019475,1.000000,0.000055,0.000066,0.000115,-0.046408,-0.653611,0.414575,0.631480,108.734993,51.906568,-103.238066
48019,-7.574478,5.816482,-1.921555,-0.081658,-0.131275,-0.072428,0.014372,0.021161,0.019824,-0.075753,0.058159,-0.019203,1.000000,0.000072,0.000106,0.000099,-0.046483,-0.653594,0.414720,0.631397,108.746088,51.887390,-103.235112
48020,-7.647480,5.837182,-1.928824,-0.075525,-0.100841,-0.001412,0.012355,0.023712,0.018376,-0.076482,0.058366,-0.019276,1.000000,0.000062,0.000119,0.000092,-0.046568,-0.653590,0.414850,0.631309,108.758100,51.868604,-103.228913
48021,-7.623499,5.803975,-1.921693,-0.068883,-0.086783,-0.041070,0.002573,0.018090,0.025614,-0.076244,0.058030,-0.019209,1.000000,0.000013,0.000090,0.000128,-0.046702,-0.653554,0.414970,0.631258,108.758888,51.846840,-103.229068
48022,-7.655817,5.774429,-1.894282,-0.072898,-0.031910,-0.038357,0.002564,0.015560,0.024378,-0.076567,0.057735,-0.018936,1.000000,0.000013,0.000078,0.000122,-0.046822,-0.653510,0.415090,0.631216,108.758245,51.826300,-103.231825
48023,-7.642984,5.686184,-1.938930,0.007576,0.000461,-0.091202,-0.001153,0.012907,0.023888,-0.076438,0.056853,-0.019385,1.000000,-0.000006,0.000065,0.000119,-0.046948,-0.653457,0.415197,0.631190,108.753708,51.806361,-103.236567
48024,-7.621932,5.706388,-1.917753,-0.022111,-0.012274,-0.100126,-0.008328,0.016925,0.025855,-0.076228,0.057053,-0.019173,1.000000,-0.000042,0.000085,0.000129,-0.047111,-0.653412,0.415288,0.631165,108.747427,51.784768,-103.238559
48025,-7.615993,5.690032,-1.933780,0.000416,-0.009194,-0.111181,-0.006540,0.012626,0.028076,-0.076169,0.056889,-0.019335,1.000000,-0.000033,0.000063,0.000140,-0.047269,-0.653350,0.415390,0.631150,108.738671,51.762673,-103.244602
48026,-7.599292,5.705518,-1.985374,0.036808,-0.049641,-0.104955,-0.015267,0.022679,0.027057,-0.076003,0.057043,-0.019849,1.000000,-0.000076,0.000113,0.000135,-0.047470,-0.653318,0.415461,0.631121,108.732103,51.739369,-103.241897
48027,-7.631603,5.676434,-1.957061,0.032811,0.005238,-0.102268,-0.022256,0.018334,0.023298,-0.076324,0.056753,-0.019570,1.000000,-0.000111,0.000092,0.000116,-0.047677,-0.653281,0.415495,0.631121,108.719397,51.718820,-103.241143
48028,-7.600950,5.694193,-1.968690,0.031671,-0.026752,-0.113600,-0.012786,0.023590,0.026981,-0.076020,0.056930,-0.019682,1.000000,-0.000064,0.000118,0.000135,-0.047872,-0.653253,0.415574,0.631084,108.714901,51.695391,-103.237609
48029,-7.619786,5.643685,-1.989135,0.077849,0.011361,-0.124407,-0.026829,0.026933,0.017523,-0.076205,0.056428,-0.019889,1.000000,-0.000134,0.000135,0.000088,-0.048089,-0.653251,0.415577,0.631067,108.706860,51.676410,-103.228457
48030,-7.620780,5.576684,-1.984913,0.108114,0.060410,-0.163841,-0.026595,0.028666,0.016761,-0.076215,0.055758,-0.019846,1.000000,-0.000133,0.000143,0.000084,-0.048307,-0.653257,0.415578,0.631044,108.700314,51.657595,-103.217448
48031,-7.634378,5.564793,-1.935229,0.073531,0.101998,-0.170076,-0.004370,0.024345,0.009809,-0.076349,0.055644,-0.019344,1.000000,-0.000022,0.000122,0.000049,-0.048424,-0.653270,0.415625,0.630991,108.705129,51.643245,-103.207908
48032,-7.644491,5.510382,-1.989566,0.148262,0.120818,-0.183339,-0.008857,0.025976,0.008443,-0.076450,0.055100,-0.019888,1.000000,-0.000044,0.000130,0.000042,-0.048552,-0.653288,0.415655,0.630942,108.708821,51.629438,-103.196798
48033,-7.647839,5.529265,-1.976242,0.127543,0.118889,-0.172286,0.012367,0.024198,0.001390,-0.076481,0.055293,-0.019750,1.000000,0.000062,0.000121,0.000007,-0.048594,-0.653327,0.415720,0.630856,108.725072,51.619763,-103.183563
48034,-7.629414,5.512631,-1.954165,0.112520,0.130393,-0.200916,0.024001,0.013496,-0.001688,-0.076295,0.055129,-0.019530,1.000000,0.000120,0.000067,-0.000008,-0.048557,-0.653336,0.415823,0.630782,108.741382,51.613746,-103.180372
48035,-7.632264,5.564713,-1.943779,0.077136,0.104258,-0.170128,0.031859,0.012166,-0.007189,-0.076322,0.055653,-0.019424,1.000000,0.000159,0.000061,-0.000036,-0.048479,-0.653355,0.415931,0.630697,108.762481,51.610757,-103.176215
48036,-7.672694,5.637779,-1.891817,0.000578,0.105692,-0.105856,0.029483,0.009859,-0.017249,-0.076723,0.056387,-0.018906,1.000000,0.000147,0.000049,-0.000086,-0.048367,-0.653385,0.416002,0.630627,108.783057,51.613851,-103.171587
48037,-7.597892,5.650580,-1.891180,-0.018574,0.052111,-0.157092,0.020017,0.004601,-0.020937,-0.075973,0.056516,-0.018904,1.000000,0.000100,0.000023,-0.000105,-0.048261,-0.653403,0.416036,0.630595,108.795472,51.619807,-103.171021
48038,-7.555188,5.700635,-1.866021,-0.071969,0.004358,-0.166189,0.015957,0.002139,-0.027562,-0.075544,0.057018,-0.018655,1.000000,0.000080,0.000011,-0.000138,-0.048145,-0.653427,0.416032,0.630581,108.805419,51.629918,-103.170067
48039,-7.529106,5.679477,-1.875263,-0.058470,-0.003404,-0.197227,-0.001670,0.005962,-0.028157,-0.075284,0.056805,-0.018751,1.000000,-0.000008,0.000030,-0.000141,-0.048096,-0.653462,0.415967,0.630591,108.808047,51.639626,-103.165110
48040,-7.507125,5.677153,-1.868545,-0.066586,-0.013648,-0.217177,-0.008087,0.003178,-0.026566,-0.075064,0.056781,-0.018687,1.000000,-0.000040,0.000016,-0.000133,-0.048064,-0.653482,0.415890,0.630624,108.804699,51.649005,-103.163541
48041,-7.536138,5.694083,-1.860356,-0.078302,-0.004749,-0.186124,0.001052,0.011141,-0.027760,-0.075355,0.056951,-0.018599,1.000000,0.000005,0.000056,-0.000139,-0.048016,-0.653533,0.415835,0.630611,108.812350,51.657541,-103.154378
48042,-7.577610,5.743292,-1.894824,-0.067144,-0.028548,-0.117812,-0.011518,0.014881,-0.021625,-0.075771,0.057440,-0.018946,1.000000,-0.000058,0.000074,-0.000108,-0.048035,-0.653578,0.415761,0.630612,108.813910,51.662079,-103.144047
48043,-7.624396,5.776839,-1.911165,-0.062905,-0.030581,-0.058153,-0.013550,0.012384,-0.025556,-0.076238,0.057777,-0.019111,1.000000,-0.000068,0.000062,-0.000128,-0.048042,-0.653623,0.415669,0.630625,108.813543,51.669174,-103.134912
48044,-7.628741,5.828106,-1.897965,-0.098289,-0.056694,-0.027295,-0.018753,0.003749,-0.027109,-0.076280,0.058290,-0.018984,1.000000,-0.000094,0.000019,-0.000136,-0.048044,-0.653643,0.415557,0.630678,108.804605,51.678742,-103.132681
48045,-7.632878,5.757153,-1.892491,-0.068024,-0.007674,-0.066792,-0.012679,0.004187,-0.036060,-0.076319,0.057584,-0.018927,1.000000,-0.000063,0.000021,-0.000180,-0.048004,-0.653687,0.415431,0.630718,108.801500,51.692986,-103.126747
48046,-7.679486,5.823986,-1.910683,-0.078439,-0.033914,0.012623,-0.009747,0.006058,-0.038909,-0.076784,0.058254,-0.019107,1.000000,-0.000049,0.000030,-0.000195,-0.047944,-0.653741,0.415308,0.630748,108.802066,51.708528,-103.118980
48047,-7.664688,5.770659,-1.883392,-0.078806,0.001818,-0.035729,-0.010438,0.000839,-0.036609,-0.076636,0.057720,-0.018837,1.000000,-0.000052,0.000004,-0.000183,-0.047883,-0.653774,0.415192,0.630795,108.798146,51.723781,-103.116463
48048,-7.644484,5.733244,-1.873886,-0.072249,0.015790,-0.075429,0.003486,-0.003089,-0.035268,-0.076434,0.057346,-0.018739,1.000000,0.000017,-0.000015,-0.000176,-0.047773,-0.653795,0.415125,0.630826,108.799160,51.739038,-103.117787
48049,-7.642156,5.712333,-1.888814,-0.049742,0.018831,-0.086533,-0.002823,-0.007799,-0.026791,-0.076413,0.057133,-0.018892,1.000000,-0.000014,-0.000039,-0.000134,-0.047697,-0.653779,0.415070,0.630884,108.791327,51.750473,-103.126412
48050,-7.582145,5.722984,-1.924987,-0.031453,-0.043275,-0.120206,-0.001052,-0.017137,-0.027056,-0.075812,0.057240,-0.019257,1.000000,-0.000005,-0.000086,-0.000135,-0.047598,-0.653738,0.415019,0.630968,108.778143,51.763867,-103.142501
48051,-7.567575,5.792199,-1.889700,-0.097455,-0.082611,-0.098141,0.029306,-0.011426,-0.018257,-0.075669,0.057932,-0.018893,1.000000,0.000147,-0.000057,-0.000091,-0.047444,-0.653705,0.415088,0.630968,108.784169,51.771321,-103.155709
48052,-7.547055,5.877726,-1.873518,-0.156545,-0.143705,-0.067401,0.025172,-0.002410,-0.009780,-0.075467,0.058783,-0.018729,1.000000,0.000126,-0.000012,-0.000049,-0.047344,-0.653680,0.415173,0.630946,108.792099,51.772627,-103.164045
48053,-7.600423,5.960257,-1.950304,-0.122442,-0.200125,0.038187,-0.011661,0.010680,0.003068,-0.076006,0.059600,-0.019502,1.000000,-0.000058,0.000053,0.000015,-0.047431,-0.653659,0.415183,0.630954,108.784905,51.764433,-103.165212
48054,-7.666981,5.932316,-1.895539,-0.145825,-0.115110,0.063219,-0.007616,0.010631,0.008449,-0.076673,0.059319,-0.018954,1.000000,-0.000038,0.000053,0.000042,-0.047523,-0.653630,0.415220,0.630953,108.778760,51.753444,-103.167550
48055,-7.659931,5.827328,-1.921868,-0.072365,-0.061238,0.001429,-0.003342,0.012319,0.013066,-0.076604,0.058268,-0.019215,1.000000,-0.000017,0.000062,0.000065,-0.047627,-0.653601,0.415280,0.630936,108.775080,51.739538,-103.168699
48056,-7.688780,5.778386,-1.909436,-0.054663,-0.003905,-0.007076,-0.006354,0.019927,0.012753,-0.076893,0.057778,-0.019089,1.000000,-0.000032,0.000100,0.000064,-0.047748,-0.653593,0.415333,0.630900,108.775048,51.724500,-103.164173
48057,-7.709937,5.790974,-2.007742,0.028305,-0.042052,0.036524,-0.010197,0.013622,0.019907,-0.077107,0.057901,-0.020075,1.000000,-0.000051,0.000068,0.000100,-0.047898,-0.653552,0.415393,0.630891,108.766708,51.706589,-103.166202
48058,-7.671415,5.794464,-1.961529,-0.017398,-0.043802,-0.000868,-0.002568,0.008040,0.013939,-0.076719,0.057939,-0.019613,1.000000,-0.000013,0.000040,0.000070,-0.047986,-0.653505,0.415465,0.630887,108.760404,51.693099,-103.172431
48059,-7.620160,5.765812,-1.873187,-0.085997,-0.012850,-0.075506,0.003497,0.007962,0.022015,-0.076209,0.057650,-0.018728,1.000000,0.000017,0.000040,0.000110,-0.048078,-0.653440,0.415585,0.630868,108.755629,51.675155,-103.181560
48060,-7.595424,5.743397,-1.955887,-0.006485,-0.048480,-0.091567,0.004884,0.018384,0.017426,-0.075961,0.057428,-0.019550,1.000000,0.000024,0.000092,0.000087,-0.048173,-0.653419,0.415689,0.630813,108.759885,51.657867,-103.179771
48061,-7.615492,5.657760,-1.974679,0.054416,0.013724,-0.122374,-0.006005,0.022263,0.020123,-0.076163,0.056569,-0.019740,1.000000,-0.000030,0.000111,0.000101,-0.048325,-0.653404,0.415765,0.630767,108.759858,51.638251,-103.175028
48062,-7.568304,5.624129,-1.960235,0.051865,0.016826,-0.182028,0.007362,0.019302,0.017351,-0.075690,0.056235,-0.019593,1.000000,0.000037,0.000097,0.000087,-0.048414,-0.653387,0.415877,0.630705,108.766177,51.620834,-103.172419
48063,-7.548822,5.609210,-1.937492,0.036780,0.028323,-0.210621,0.006908,0.018348,0.020125,-0.075496,0.056085,-0.019366,1.000000,0.000035,0.000092,0.000101,-0.048513,-0.653361,0.415996,0.630645,108.770919,51.602027,-103.171415
48064,-7.543223,5.591907,-1.954632,0.059257,0.031305,-0.221768,0.008598,0.018497,0.016695,-0.075439,0.055914,-0.019537,1.000000,0.000043,0.000092,0.000083,-0.048594,-0.653343,0.416110,0.630582,108.777542,51.585114,-103.169321
48065,-7.541046,5.627094,-1.958716,0.045489,0.007705,-0.201964,0.006007,0.014444,0.007400,-0.075414,0.056269,-0.019580,1.000000,0.000030,0.000072,0.000037,-0.048652,-0.653334,0.416182,0.630540,108.781981,51.573848,-103.167367
48066,-7.545855,5.611596,-1.942134,0.039461,0.030011,-0.210637,0.005757,0.007662,0.005682,-0.075461,0.056114,-0.019417,1.000000,0.000029,0.000038,0.000028,-0.048685,-0.653304,0.416254,0.630521,108.782125,51.564908,-103.171465
48067,-7.582924,5.632955,-1.901847,-0.000658,0.058311,-0.177100,0.008047,0.014939,-0.006934,-0.075829,0.056333,-0.019011,1.000000,0.000040,0.000075,-0.000035,-0.048690,-0.653325,0.416287,0.630477,108.791449,51.561377,-103.165099
48068,-7.594406,5.675510,-2.035850,0.096131,-0.023398,-0.116229,-0.020480,0.020106,-0.006100,-0.075944,0.056755,-0.020357,1.000000,-0.000102,0.000101,-0.000031,-0.048798,-0.653353,0.416234,0.630475,108.787802,51.556532,-103.154844
48069,-7.558435,5.642782,-1.987244,0.065043,-0.000979,-0.173401,-0.004878,0.013807,-0.009420,-0.075583,0.056431,-0.019869,1.000000,-0.000024,0.000069,-0.000047,-0.048831,-0.653370,0.416222,0.630462,108.789564,51.554598,-103.149288
48070,-7.526983,5.628132,-1.923545,0.012363,0.019014,-0.219417,0.006780,0.005651,-0.011239,-0.075267,0.056286,-0.019231,1.000000,0.000034,0.000028,-0.000056,-0.048803,-0.653370,0.416242,0.630451,108.792854,51.555208,-103.150119
48071,-7.522018,5.643145,-1.942114,0.020175,-0.002158,-0.210748,-0.000166,0.011395,-0.010052,-0.075218,0.056435,-0.019417,1.000000,-0.000001,0.000057,-0.000050,-0.048816,-0.653383,0.416242,0.630436,108.795755,51.553975,-103.146288
48072,-7.591474,5.677755,-1.965983,0.033648,0.006713,-0.131195,0.002078,0.010581,-0.009364,-0.075913,0.056781,-0.019655,1.000000,0.000010,0.000053,-0.000047,-0.048820,-0.653393,0.416252,0.630419,108.799283,51.552658,-103.143374
48073,-7.632286,5.751270,-1.912659,-0.042678,0.008480,-0.066649,0.010725,0.007510,-0.012738,-0.076320,0.057519,-0.019121,1.000000,0.000054,0.000038,-0.000064,-0.048787,-0.653406,0.416272,0.630395,108.806378,51.553630,-103.140871
48074,-7.646878,5.747549,-1.953469,-0.004197,0.000532,-0.049230,0.006448,0.003304,-0.018603,-0.076464,0.057483,-0.019532,1.000000,0.000032,0.000017,-0.000093,-0.048733,-0.653414,0.416267,0.630395,108.809587,51.558668,-103.141561
48075,-7.623457,5.780156,-1.948949,-0.027036,-0.033858,-0.049295,-0.016926,0.001956,-0.023664,-0.076228,0.057809,-0.019494,1.000000,-0.000085,0.000010,-0.000118,-0.048743,-0.653424,0.416167,0.630449,108.799563,51.566535,-103.141050
48076,-7.579960,5.841815,-2.011887,-0.007583,-0.131114,-0.034495,-0.025913,0.000154,-0.028896,-0.075791,0.058426,-0.020126,1.000000,-0.000130,0.000001,-0.000144,-0.048755,-0.653435,0.416028,0.630529,108.784470,51.577737,-103.141434
48077,-7.563716,5.823783,-1.985891,-0.022677,-0.119607,-0.063063,-0.020740,-0.001309,-0.032295,-0.075628,0.058248,-0.019865,1.000000,-0.000104,-0.000007,-0.000161,-0.048748,-0.653456,0.415884,0.630603,108.772025,51.590926,-103.140364
48078,-7.594432,5.829509,-1.886282,-0.107244,-0.060993,-0.055566,-0.003403,0.007687,-0.031586,-0.075936,0.058307,-0.018861,1.000000,-0.000017,0.000038,-0.000158,-0.048694,-0.653501,0.415804,0.630612,108.775605,51.602197,-103.133378
48079,-7.608517,5.859850,-1.928273,-0.083409,-0.093071,-0.018302,-0.033071,0.011700,-0.023209,-0.076079,0.058604,-0.019288,1.000000,-0.000165,0.000059,-0.000116,-0.048779,-0.653539,0.415652,0.630667,108.762918,51.608067,-103.124329
48080,-7.590401,5.720971,-1.911081,-0.032965,-0.006747,-0.117596,-0.022297,0.011741,-0.014516,-0.075901,0.057213,-0.019113,1.000000,-0.000111,0.000059,-0.000073,-0.048849,-0.653557,0.415568,0.630699,108.754477,51.609332,-103.118869
48081,-7.573852,5.669955,-1.883752,-0.033414,0.028893,-0.166020,-0.020963,0.011549,-0.007046,-0.075738,0.056700,-0.018839,1.000000,-0.000105,0.000058,-0.000035,-0.048945,-0.653563,0.415506,0.630725,108.744866,51.606478,-103.114734
48082,-7.636690,5.599051,-1.933400,0.052609,0.090880,-0.148557,0.021040,0.009140,-0.000024,-0.076368,0.055993,-0.019325,1.000000,0.000105,0.000046,-0.000000,-0.048914,-0.653554,0.415607,0.630671,108.756106,51.600360,-103.115844
48083,-7.666485,5.704454,-1.916547,-0.009845,0.049217,-0.066590,0.035872,0.004613,-0.005451,-0.076664,0.057050,-0.019153,1.000000,0.000179,0.000023,-0.000027,-0.048809,-0.653546,0.415735,0.630602,108.774011,51.597992,-103.118970
48084,-7.654868,5.769685,-1.956390,-0.009784,-0.017849,-0.029369,0.036955,-0.007400,-0.002189,-0.076547,0.057701,-0.019556,1.000000,0.000185,-0.000037,-0.000011,-0.048685,-0.653493,0.415883,0.630570,108.783550,51.596100,-103.133886
48085,-7.579719,5.807352,-1.866771,-0.116947,-0.046006,-0.084043,0.034940,-0.007382,-0.004879,-0.075795,0.058079,-0.018660,1.000000,0.000175,-0.000037,-0.000024,-0.048562,-0.653446,0.416013,0.630542,108.792502,51.595510,-103.147569
48086,-7.569451,5.814493,-1.991253,-0.014595,-0.114434,-0.062985,0.003058,-0.002048,-0.014220,-0.075690,0.058151,-0.019912,1.000000,0.000015,-0.000010,-0.000071,-0.048522,-0.653426,0.416013,0.630565,108.789084,51.599158,-103.154236
48087,-7.522465,5.847030,-1.980313,-0.046592,-0.159651,-0.082876,-0.001049,0.009992,-0.021524,-0.075219,0.058478,-0.019800,1.000000,-0.000005,0.000050,-0.000108,-0.048500,-0.653460,0.415972,0.630559,108.793198,51.604424,-103.147867
48088,-7.584227,5.867392,-1.945921,-0.077495,-0.120426,-0.029391,-0.033603,0.022722,-0.022364,-0.075838,0.058679,-0.019460,1.000000,-0.000168,0.000114,-0.000112,-0.048605,-0.653527,0.415824,0.630580,108.787625,51.607918,-103.130483
48089,-7.566509,5.827605,-2.007887,-0.004981,-0.134448,-0.054278,-0.093043,0.030101,-0.013756,-0.075664,0.058272,-0.020095,1.000000,-0.000465,0.000151,-0.000069,-0.048955,-0.653588,0.415507,0.630698,108.750967,51.605286,-103.107913
48090,-7.598271,5.686619,-2.074380,0.129740,-0.054443,-0.099057,-0.122468,0.033257,-0.007367,-0.075984,0.056856,-0.020766,1.000000,-0.000612,0.000166,-0.000037,-0.049420,-0.653635,0.415125,0.630865,108.698203,51.598717,-103.085774
48091,-7.539955,5.563991,-2.098487,0.206390,-0.020163,-0.212190,-0.108502,0.046951,0.002736,-0.075405,0.055627,-0.020997,1.000000,-0.000543,0.000235,0.000014,-0.049906,-0.653710,0.414811,0.630955,108.660397,51.584022,-103.053701
48092,-7.552155,5.563991,-2.137893,0.244876,-0.028149,-0.194846,-0.058144,0.061843,0.010261,-0.075531,0.055630,-0.021372,1.000000,-0.000291,0.000309,0.000051,-0.050275,-0.653826,0.414682,0.630890,108.659965,51.562658,-103.011796
48093,-7.655094,5.657285,-2.124789,0.202966,-0.015464,-0.061860,-0.007090,0.066913,0.033169,-0.076567,0.056559,-0.021224,1.000000,-0.000035,0.000335,0.000166,-0.050556,-0.653920,0.414793,0.630697,108.686926,51.527812,-102.973114
48094,-7.611153,5.921879,-2.082613,0.032969,-0.188396,0.051338,-0.005387,0.049491,0.046157,-0.076130,0.059201,-0.020809,1.000000,-0.000027,0.000247,0.000231,-0.050841,-0.653936,0.414951,0.630554,108.699910,51.489220,-102.952651
48095,-7.404368,5.913551,-2.169474,0.083743,-0.341201,-0.097856,-0.002829,0.045965,0.051727,-0.074064,0.059116,-0.021679,1.000000,-0.000014,0.000230,0.000259,-0.051129,-0.653929,0.415136,0.630416,108.710620,51.448132,-102.936847
48096,-7.519139,5.830498,-1.953625,-0.052371,-0.110952,-0.100132,0.185606,0.031936,0.051416,-0.075209,0.058304,-0.019470,1.000000,0.000928,0.000160,0.000257,-0.050769,-0.653927,0.415918,0.629932,108.819771,51.409906,-102.933326
48097,-7.584793,5.965041,-2.068867,-0.016592,-0.202197,0.053915,0.152789,0.022127,0.058430,-0.075868,0.059644,-0.020635,1.000000,0.000764,0.000111,0.000292,-0.050517,-0.653869,0.416623,0.629547,108.901731,51.369545,-102.940813
48098,-7.502681,5.912209,-2.340476,0.226635,-0.332589,0.013821,0.100230,0.042749,0.084667,-0.075057,0.059102,-0.023359,1.000000,0.000501,0.000214,0.000423,-0.050563,-0.653809,0.417241,0.629196,108.961417,51.311282,-102.937990
48099,-7.579087,6.037483,-1.898408,-0.211593,-0.152236,0.057964,0.186718,0.028529,0.093958,-0.075822,0.060357,-0.018917,0.999999,0.000934,0.000143,0.000470,-0.050330,-0.653707,0.418163,0.628708,109.058742,51.250459,-102.950093
48100,-7.491771,5.932991,-1.678673,-0.370838,-0.025711,-0.116979,0.188079,0.001008,0.070825,-0.074939,0.059319,-0.016731,0.999999,0.000940,0.000005,0.000354,-0.049958,-0.653565,0.419022,0.628313,109.143633,51.207511,-102.979497
48101,-7.525642,5.580403,-1.581087,-0.287217,0.276438,-0.319685,0.196174,0.017634,0.057116,-0.075274,0.055798,-0.015750,0.999999,0.000981,0.000088,0.000286,-0.049559,-0.653510,0.419850,0.627849,109.247429,51.168729,-102.989366
48102,-7.762152,5.471036,-1.563962,-0.223753,0.507439,-0.204273,0.190155,0.007497,0.044141,-0.077634,0.054708,-0.015585,1.000000,0.000951,0.000037,0.000221,-0.049111,-0.653444,0.420626,0.627434,109.344020,51.139046,-103.005306
48103,-7.750438,5.385125,-1.780931,-0.004487,0.461541,-0.219589,0.197359,-0.006764,0.037378,-0.077514,0.053854,-0.017759,0.999999,0.000987,-0.000034,0.000187,-0.048583,-0.653345,0.421410,0.627051,109.436756,51.115691,-103.032407
48104,-7.720861,5.667769,-1.700896,-0.224474,0.305819,-0.092378,0.217011,-0.011476,0.032775,-0.077217,0.056683,-0.016952,0.999999,0.001085,-0.000057,0.000164,-0.047971,-0.653249,0.422237,0.626642,109.538623,51.095807,-103.061349
48105,-7.446094,5.993093,-1.840611,-0.310320,-0.129153,-0.084566,0.136181,-0.009364,0.044308,-0.074473,0.059927,-0.018369,1.000000,0.000681,-0.000047,0.000222,-0.047663,-0.653115,0.422847,0.626394,109.592818,51.069268,-103.092033
48106,-7.355859,6.246344,-1.701536,-0.571628,-0.273860,-0.034194,0.126721,-0.004992,0.062586,-0.073578,0.062451,-0.016978,1.000000,0.000634,-0.000025,0.000313,-0.047453,-0.652953,0.423485,0.626147,109.640176,51.032089,-103.124567
48107,-7.378012,6.425133,-1.696010,-0.663264,-0.363457,0.087909,0.065214,-0.001434,0.073810,-0.073804,0.064230,-0.016940,1.000000,0.000326,-0.000007,0.000369,-0.047489,-0.652765,0.423966,0.626016,109.651945,50.988081,-103.157289
48108,-7.507443,6.423183,-1.845250,-0.512824,-0.345128,0.219352,-0.034942,0.015298,0.075756,-0.075100,0.064200,-0.018458,1.000000,-0.000175,0.000076,0.000379,-0.047890,-0.652600,0.424137,0.626041,109.617118,50.939894,-103.176421
48109,-7.571401,6.221352,-1.878958,-0.368030,-0.186864,0.156839,-0.098683,0.027102,0.064748,-0.075737,0.062180,-0.018810,1.000000,-0.000493,0.000136,0.000324,-0.048495,-0.652482,0.424065,0.626166,109.556211,50.895287,-103.181447
48110,-7.556505,6.014945,-1.922768,-0.222336,-0.080588,0.032181,-0.141921,0.043056,0.039083,-0.075581,0.060121,-0.019254,1.000000,-0.000710,0.000215,0.000195,-0.049189,-0.652456,0.423774,0.626337,109.487315,50.861567,-103.165509
48111,-7.581755,5.834534,-2.088064,0.021570,-0.024088,-0.020662,-0.208072,0.065822,0.026248,-0.075832,0.058314,-0.020916,0.999999,-0.001040,0.000329,0.000131,-0.050104,-0.652507,0.423234,0.626576,109.398634,50.830364,-103.127062
48112,-7.632628,5.806237,-2.327798,0.260568,-0.083415,0.052057,-0.245551,0.066729,0.020498,-0.076340,0.058026,-0.023324,0.999999,-0.001228,0.000334,0.000102,-0.051128,-0.652567,0.422550,0.626892,109.290492,50.802229,-103.085141
48113,-7.523471,5.691417,-2.258722,0.252614,-0.043118,-0.115730,-0.199894,0.060137,0.009660,-0.075244,0.056888,-0.022621,0.999999,-0.000999,0.000301,0.000048,-0.051961,-0.652642,0.421973,0.627134,109.206544,50.781082,-103.044999
48114,-7.539287,5.526556,-2.206811,0.298309,0.097216,-0.212935,-0.146614,0.043635,-0.001508,-0.075397,0.055250,-0.022092,1.000000,-0.000733,0.000218,-0.000008,-0.052545,-0.652700,0.421533,0.627321,109.144906,50.769281,-103.016198
48115,-7.518084,5.378308,-2.363681,0.509170,0.107832,-0.285679,-0.144563,0.043508,0.001256,-0.075186,0.053766,-0.023659,1.000000,-0.000723,0.000218,0.000006,-0.053132,-0.652752,0.421110,0.627502,109.083651,50.755887,-102.988379
48116,-7.540508,5.220044,-2.209436,0.460362,0.295530,-0.395126,-0.059611,0.028017,0.012169,-0.075411,0.052189,-0.022099,1.000000,-0.000298,0.000140,0.000061,-0.053442,-0.652754,0.420991,0.627552,109.058383,50.739637,-102.976974
48117,-7.480641,5.188815,-2.152465,0.419882,0.307000,-0.472112,0.003421,0.002845,0.019599,-0.074812,0.051881,-0.021523,1.000000,0.000017,0.000014,0.000098,-0.053519,-0.652680,0.421101,0.627550,109.050780,50.723925,-102.989132
48118,-7.466889,5.134078,-2.199290,0.485374,0.314482,-0.505938,0.043142,-0.004047,0.023664,-0.074675,0.051337,-0.021983,1.000000,0.000216,-0.000020,0.000118,-0.053462,-0.652585,0.421351,0.627485,109.060524,50.707449,-103.008549
48119,-7.515424,5.188183,-2.203626,0.468472,0.310343,-0.435106,0.105624,-0.021349,0.022580,-0.075158,0.051885,-0.022017,1.000000,0.000528,-0.000107,0.000113,-0.053166,-0.652457,0.421795,0.627345,109.094783,50.694651,-103.041862
48120,-7.472523,5.326243,-2.170560,0.363928,0.212320,-0.392428,0.139952,-0.050042,0.010722,-0.074723,0.053274,-0.021687,1.000000,0.000700,-0.000250,0.000054,-0.052656,-0.652271,0.422319,0.627230,109.132536,50.693823,-103.096772
48121,-7.341721,5.503551,-2.007711,0.113431,0.094278,-0.421251,0.183094,-0.042925,-0.000818,-0.073413,0.055054,-0.020042,1.000000,0.000915,-0.000215,-0.000004,-0.051984,-0.652142,0.422939,0.627002,109.202327,50.697809,-103.142218
48122,-7.431367,5.687528,-1.877592,-0.082642,0.093384,-0.268946,0.164459,-0.025240,-0.011677,-0.074308,0.056895,-0.018739,1.000000,0.000822,-0.000126,-0.000058,-0.051376,-0.652086,0.423459,0.626759,109.275669,50.704492,-103.169278
48123,-7.553781,5.704522,-1.904324,-0.057233,0.145928,-0.158514,0.110250,-0.006424,-0.025762,-0.075530,0.057065,-0.019014,1.000000,0.000551,-0.000032,-0.000129,-0.050941,-0.652104,0.423760,0.626572,109.333626,50.715134,-103.176219
48124,-7.692894,5.772075,-1.956327,-0.030347,0.163522,0.000417,0.048317,-0.001434,-0.035736,-0.076918,0.057739,-0.019550,1.000000,0.000242,-0.000007,-0.000179,-0.050686,-0.652144,0.423832,0.626503,109.361743,50.730336,-103.175729
48125,-7.649381,5.830911,-2.020726,-0.011095,0.066261,0.015404,-0.024851,-0.016219,-0.045331,-0.076479,0.058324,-0.020221,1.000000,-0.000124,-0.000081,-0.000227,-0.050612,-0.652141,0.423644,0.626639,109.340357,50.753457,-103.184572
48126,-7.555125,5.928727,-1.997963,-0.090996,-0.048764,-0.003971,-0.019579,-0.026697,-0.062554,-0.075530,0.059309,-0.019996,1.000000,-0.000098,-0.000133,-0.000313,-0.050441,-0.652141,0.423422,0.626803,109.319066,50.787950,-103.197645
48127,-7.458766,5.933347,-1.822486,-0.259091,-0.035579,-0.112643,0.031506,-0.022843,-0.072677,-0.074564,0.059363,-0.018224,1.000000,0.000158,-0.000114,-0.000363,-0.050081,-0.652186,0.423327,0.626849,109.331922,50.827095,-103.204554
48128,-7.609463,5.791535,-1.854893,-0.144283,0.126337,-0.073609,0.053307,-0.006860,-0.081810,-0.076070,0.057951,-0.018536,1.000000,0.000267,-0.000034,-0.000409,-0.049654,-0.652308,0.423265,0.626798,109.370041,50.868235,-103.194853
48129,-7.679778,5.645208,-1.900136,-0.028703,0.236231,-0.096658,0.044974,-0.003919,-0.072340,-0.076777,0.056484,-0.018990,1.000000,0.000225,-0.000020,-0.000362,-0.049291,-0.652415,0.423208,0.626753,109.403135,50.903597,-103.185546
48130,-7.659997,5.639287,-1.895136,-0.037022,0.225926,-0.116491,0.043957,-0.008785,-0.050962,-0.076585,0.056417,-0.018942,1.000000,0.000220,-0.000044,-0.000255,-0.048987,-0.652463,0.423218,0.626721,109.427458,50.928427,-103.186728
48131,-7.480125,5.650980,-1.825356,-0.131484,0.137305,-0.263781,0.055498,-0.027549,-0.040548,-0.074787,0.056530,-0.018248,1.000000,0.000277,-0.000138,-0.000203,-0.048640,-0.652432,0.423303,0.626722,109.443419,50.951118,-103.207058
48132,-7.458926,5.744375,-1.900818,-0.117703,0.026844,-0.208940,0.049169,-0.024611,-0.028385,-0.074579,0.057459,-0.019003,1.000000,0.000246,-0.000123,-0.000142,-0.048357,-0.652383,0.423407,0.626725,109.454890,50.966770,-103.228629
48133,-7.485128,5.901553,-2.069993,-0.048674,-0.137985,-0.059794,0.082052,-0.023255,-0.021887,-0.074842,0.059032,-0.020684,1.000000,0.000410,-0.000116,-0.000109,-0.047990,-0.652333,0.423635,0.626652,109.484516,50.978552,-103.251057
48134,-7.551333,6.120394,-1.934383,-0.268435,-0.173499,0.092944,0.131625,-0.020776,-0.013515,-0.075507,0.061222,-0.019311,1.000000,0.000658,-0.000104,-0.000068,-0.047493,-0.652284,0.424044,0.626464,109.542283,50.985455,-103.273842
48135,-7.626120,6.293359,-1.941509,-0.341417,-0.241016,0.255027,0.083962,-0.038917,-0.009450,-0.076254,0.062945,-0.019404,1.000000,0.000420,-0.000195,-0.000047,-0.047124,-0.652157,0.424324,0.626435,109.559648,50.993563,-103.313705
48136,-7.506518,6.407653,-2.167105,-0.218725,-0.494477,0.277398,-0.109945,-0.014882,-0.005183,-0.075062,0.064067,-0.021712,1.000000,-0.000550,-0.000074,-0.000026,-0.047453,-0.652051,0.424002,0.626737,109.480959,50.994840,-103.333972
48137,-7.347714,6.494571,-2.764978,0.244121,-0.929394,0.330786,-0.368323,0.055889,0.004137,-0.073486,0.064893,-0.027749,0.999998,-0.001842,0.000279,0.000021,-0.048803,-0.652085,0.422885,0.627353,109.299188,50.977465,-103.296517
48138,-7.297993,6.724811,-2.806417,0.183184,-1.125056,0.437211,-0.388999,0.103694,0.024670,-0.073003,0.067184,-0.028157,0.999998,-0.001945,0.000518,0.000123,-0.050386,-0.652218,0.421755,0.627850,109.132790,50.940161,-103.223865
48139,-7.473545,6.905556,-2.265087,-0.326516,-0.876519,0.569812,-0.252311,0.112037,0.066917,-0.074771,0.069002,-0.022696,0.999999,-0.001262,0.000560,0.000335,-0.051677,-0.652321,0.421188,0.628018,109.040459,50.878356,-103.156298
48140,-7.627784,6.630207,-1.991201,-0.393282,-0.471385,0.469857,-0.214147,0.090331,0.075254,-0.076312,0.066252,-0.019949,0.999999,-0.001071,0.000452,0.000376,-0.052820,-0.652347,0.420774,0.628174,108.953715,50.816316,-103.110003
48141,-7.514005,5.711915,-2.308917,0.319793,-0.090720,-0.101517,-0.198146,0.098085,0.077609,-0.075174,0.057067,-0.023109,0.999999,-0.000991,0.000490,0.000388,-0.053936,-0.652395,0.420415,0.628270,108.880722,50.751437,-103.057593
48142,-7.529157,4.821563,-2.044410,0.524672,0.620753,-0.677336,0.010985,0.110003,0.074672,-0.075321,0.048189,-0.020400,1.000000,0.000055,0.000550,0.000373,-0.054385,-0.652543,0.420700,0.627887,108.936092,50.686105,-102.994261
48143,-7.668014,4.273240,-1.619157,0.433688,1.263180,-0.986761,0.191733,0.075387,0.068698,-0.076701,0.042722,-0.016122,0.999999,0.000959,0.000377,0.000343,-0.054153,-0.652643,0.421542,0.627237,109.073240,50.630269,-102.958952
48144,-7.602222,4.235484,-1.918793,0.692497,1.121019,-0.999140,0.184829,0.078493,0.093916,-0.076050,0.042337,-0.019119,0.999999,0.000924,0.000392,0.000470,-0.054028,-0.652697,0.422443,0.626585,109.202521,50.560279,-102.928762
48145,-7.879474,4.514365,-2.822620,1.368585,0.713819,-0.429181,0.273842,0.036949,0.146512,-0.078833,0.045124,-0.028150,0.999999,0.001369,0.000185,0.000733,-0.053691,-0.652534,0.423804,0.625865,109.343170,50.469561,-102.949656
48146,-8.305040,6.120974,-2.736156,0.562924,0.011185,0.846089,0.546084,-0.190510,0.188275,-0.083082,0.061206,-0.027274,0.999995,0.002730,-0.000953,0.000941,-0.052113,-0.651639,0.426213,0.625295,109.481215,50.399716,-103.176524
48147,-7.895002,7.216155,-1.905560,-0.759959,-0.532176,1.012022,0.672304,-0.361180,0.228687,-0.078998,0.072135,-0.018956,0.999992,0.003362,-0.001806,0.001143,-0.049886,-0.650148,0.429187,0.624993,109.571213,50.340954,-103.559829
48148,-7.469191,7.807378,-0.634436,-2.216576,-0.542236,0.767442,0.647632,-0.326345,0.228271,-0.074771,0.078009,-0.006214,0.999993,0.003238,-0.001632,0.001141,-0.047811,-0.648752,0.432067,0.624622,109.670319,50.276184,-103.913327
48149,-7.376021,7.411037,-0.349696,-2.282103,-0.190931,0.395494,0.410812,-0.241512,0.181297,-0.073823,0.074051,-0.003434,0.999997,0.002054,-0.001208,0.000906,-0.046543,-0.647658,0.434030,0.624492,109.700121,50.220556,-104.180577
48150,-7.400717,6.638450,-0.728185,-1.565283,0.136590,0.031149,0.175329,-0.150787,0.130492,-0.074045,0.066343,-0.007279,0.999999,0.000877,-0.000754,0.000652,-0.046073,-0.646900,0.435071,0.624589,109.665913,50.174902,-104.355934
48151,-7.427979,5.931592,-1.097377,-0.877733,0.416009,-0.293266,-0.137894,-0.121162,0.078989,-0.074297,0.059279,-0.011060,1.000000,-0.000689,-0.000606,0.000395,-0.046520,-0.646272,0.434961,0.625282,109.483370,50.150947,-104.490911
48152,-7.205109,5.120458,-1.294682,-0.314495,0.675755,-0.910256,-0.375409,-0.123963,-0.030854,-0.072035,0.051191,-0.013088,0.999998,-0.001877,-0.000620,-0.000154,-0.047385,-0.645819,0.433752,0.626524,109.188167,50.186755,-104.595299
48153,-7.029068,4.951391,-1.645217,0.064498,0.483994,-1.072418,-0.531956,-0.066928,-0.181997,-0.070240,0.049534,-0.016607,0.999996,-0.002660,-0.000335,-0.000910,-0.048404,-0.645829,0.431549,0.627954,108.873797,50.293359,-104.608048
48154,-7.237182,5.561102,-2.202623,0.295510,-0.061665,-0.428501,-0.714282,0.042902,-0.311741,-0.072290,0.055645,-0.022209,0.999992,-0.003571,0.000215,-0.001559,-0.049842,-0.646415,0.428322,0.629447,108.555095,50.450191,-104.490550
48155,-7.408382,5.909304,-2.569764,0.493002,-0.380864,-0.013737,-0.817512,0.145219,-0.366334,-0.073994,0.059123,-0.025886,0.999990,-0.004088,0.000726,-0.001832,-0.051661,-0.647402,0.424560,0.630833,108.256136,50.618516,-104.270872
48156,-7.304123,6.017284,-2.330605,0.243042,-0.430944,-0.078996,-0.728875,0.182897,-0.322044,-0.072966,0.060205,-0.023459,0.999992,-0.003644,0.000914,-0.001610,-0.053411,-0.648425,0.421204,0.631886,108.023500,50.756729,-104.031859
48157,-7.168764,5.719197,-2.217659,0.289056,-0.292889,-0.386712,-0.690726,0.193335,-0.218152,-0.071647,0.057193,-0.022305,0.999993,-0.003454,0.000967,-0.001091,-0.055387,-0.649262,0.418297,0.632787,107.797184,50.836986,-103.813252
48158,-7.369365,5.099935,-2.009187,0.451087,0.312981,-0.644686,-0.575824,0.158142,-0.100877,-0.073684,0.050978,-0.020180,0.999995,-0.002879,0.000791,-0.000504,-0.057286,-0.649767,0.416138,0.633522,107.588074,50.859962,-103.657530
48159,-7.797052,4.677964,-1.874553,0.611504,0.905446,-0.593277,-0.324410,0.027609,-0.007788,-0.077971,0.046752,-0.018811,0.999999,-0.001622,0.000138,-0.000039,-0.058393,-0.649733,0.415113,0.634128,107.415486,50.854786,-103.640284
48160,-8.017029,4.844636,-1.883566,0.587735,0.925210,-0.321132,0.002334,-0.144065,0.024375,-0.080163,0.048437,-0.018893,1.000000,0.000012,-0.000720,0.000122,-0.058183,-0.649183,0.415278,0.634603,107.308150,50.861504,-103.780472
48161,-7.891064,5.472080,-2.003444,0.389326,0.381265,-0.018332,0.251736,-0.257162,0.018000,-0.078890,0.054739,-0.020067,0.999998,0.001259,-0.001286,0.000090,-0.056909,-0.648358,0.416245,0.634928,107.268787,50.890783,-104.017034
48162,-7.733085,6.214847,-1.806376,-0.154847,-0.113378,0.269528,0.398362,-0.276853,-0.012530,-0.077302,0.062189,-0.018047,0.999997,0.001992,-0.001384,-0.000063,-0.055020,-0.647573,0.417583,0.635017,107.306421,50.940186,-104.262666
48163,-7.634574,6.624892,-1.700644,-0.461166,-0.396305,0.419534,0.319209,-0.247789,-0.026924,-0.076316,0.066286,-0.016995,0.999998,0.001596,-0.001239,-0.000135,-0.053401,-0.646884,0.418615,0.635178,107.320978,50.992524,-104.479792
48164,-7.710544,6.497958,-1.729282,-0.366912,-0.288888,0.407306,0.212373,-0.221422,-0.025912,-0.077078,0.065008,-0.017309,0.999999,0.001062,-0.001107,-0.000130,-0.052187,-0.646247,0.419301,0.635475,107.291667,51.039850,-104.674108
48165,-7.762914,6.238655,-1.665972,-0.289456,-0.068328,0.280412,0.193201,-0.201024,-0.022215,-0.077605,0.062411,-0.016677,0.999999,0.000966,-0.001005,-0.000111,-0.051090,-0.645660,0.419932,0.635744,107.264016,51.081493,-104.852136
48166,-7.717479,6.058507,-1.670382,-0.205648,0.010835,0.137828,0.197499,-0.208399,-0.012246,-0.077154,0.060606,-0.016724,0.999999,0.000987,-0.001042,-0.000061,-0.049994,-0.645029,0.420609,0.636024,107.231623,51.119003,-105.039231
48167,-7.632205,5.936555,-1.813127,-0.037661,-0.036014,0.024891,0.249589,-0.210138,-0.006844,-0.076301,0.059391,-0.018137,0.999999,0.001248,-0.001051,-0.000034,-0.048744,-0.644391,0.421470,0.636197,107.226426,51.153679,-105.229766
48168,-7.560706,6.056892,-1.713767,-0.196147,-0.114041,0.022745,0.332100,-0.221625,-0.000140,-0.075588,0.060597,-0.017121,0.999998,0.001660,-0.001108,-0.000001,-0.047225,-0.643722,0.422615,0.636229,107.259240,51.186801,-105.431971
48169,-7.509865,6.368598,-1.621275,-0.439947,-0.303173,0.152260,0.344836,-0.253093,0.007744,-0.075081,0.063711,-0.016198,0.999998,0.001724,-0.001265,0.000039,-0.045622,-0.642935,0.423835,0.636332,107.276004,51.220918,-105.664399
48170,-7.406694,6.652813,-1.439156,-0.753824,-0.461926,0.207721,0.277230,-0.269447,0.023348,-0.074055,0.066539,-0.014399,0.999998,0.001386,-0.001347,0.000117,-0.044253,-0.642046,0.424888,0.636623,107.239467,51.249349,-105.915043
48171,-7.339134,6.805973,-1.215044,-1.028195,-0.494381,0.205241,0.160683,-0.244225,0.030154,-0.073387,0.068058,-0.012185,0.999999,0.000803,-0.001221,0.000151,-0.043332,-0.641193,0.425588,0.637078,107.151600,51.269506,-106.146087
48172,-7.302443,6.897421,-1.148958,-1.125054,-0.546115,0.220068,-0.004828,-0.195589,0.036658,-0.073026,0.068961,-0.011563,1.000000,-0.000024,-0.000978,0.000183,-0.043066,-0.640446,0.425768,0.637727,107.000727,51.277724,-106.336002
48173,-7.402008,6.819443,-1.327165,-0.897093,-0.529889,0.285346,-0.194150,-0.161115,0.043307,-0.074024,0.068165,-0.013397,0.999999,-0.000971,-0.000806,0.000217,-0.043501,-0.639752,0.425360,0.638666,106.763366,51.276024,-106.498045
48174,-7.552706,6.475917,-1.414710,-0.599465,-0.272159,0.214713,-0.318293,-0.128880,0.047455,-0.075533,0.064719,-0.014299,0.999998,-0.001591,-0.000644,0.000237,-0.044415,-0.639125,0.424558,0.639763,106.476288,51.266436,-106.632337
48175,-7.697487,6.184721,-1.519336,-0.309555,-0.060135,0.172848,-0.407453,-0.117431,0.040615,-0.076978,0.061800,-0.015364,0.999998,-0.002037,-0.000587,0.000203,-0.045617,-0.638525,0.423447,0.641013,106.147223,51.258134,-106.755052
48176,-7.880977,5.926747,-1.671073,0.012747,0.130120,0.187884,-0.417924,-0.125426,0.017905,-0.078805,0.059225,-0.016884,0.999998,-0.002090,-0.000627,0.000090,-0.046762,-0.637944,0.422227,0.642312,105.811421,51.263339,-106.878645
48177,-7.918942,5.715017,-1.808135,0.271249,0.209347,0.113184,-0.376298,-0.135806,-0.021205,-0.079171,0.057124,-0.018243,0.999998,-0.001881,-0.000679,-0.000106,-0.047625,-0.637417,0.421020,0.643563,105.499595,51.291153,-107.002368
48178,-7.822978,5.599374,-1.686643,0.234123,0.268571,-0.052068,-0.359752,-0.171009,-0.055659,-0.078200,0.055985,-0.017034,0.999998,-0.001799,-0.000855,-0.000278,-0.048251,-0.636853,0.419761,0.644897,105.179330,51.343050,-107.148658
48179,-7.593032,5.468354,-1.406052,0.039657,0.331949,-0.356358,-0.357788,-0.150033,-0.076845,-0.075899,0.054687,-0.014215,0.999998,-0.001789,-0.000750,-0.000384,-0.048848,-0.636397,0.418434,0.646162,104.877844,51.402866,-107.272208
48180,-7.447822,5.258888,-1.593452,0.296134,0.274026,-0.565947,-0.305860,-0.110934,-0.077467,-0.074449,0.052593,-0.016056,0.999999,-0.001529,-0.000555,-0.000387,-0.049358,-0.636081,0.417262,0.647192,104.633070,51.457145,-107.361207
48181,-7.432248,5.154281,-1.862392,0.593203,0.190058,-0.599361,-0.237995,-0.104225,-0.071107,-0.074294,0.051547,-0.018724,0.999999,-0.001190,-0.000521,-0.000356,-0.049687,-0.635786,0.416329,0.648057,104.430103,51.506534,-107.446607
48182,-7.362740,4.971734,-1.955824,0.761831,0.210266,-0.750199,-0.176250,-0.124568,-0.059331,-0.073600,0.049722,-0.019648,0.999999,-0.000881,-0.000623,-0.000297,-0.049815,-0.635418,0.415635,0.648853,104.246082,51.552274,-107.552736
48183,-7.414271,4.883433,-1.964555,0.832170,0.282604,-0.762471,-0.086486,-0.115300,-0.067072,-0.074115,0.048851,-0.019709,1.000000,-0.000432,-0.000576,-0.000335,-0.049651,-0.635116,0.415207,0.649435,104.120910,51.600728,-107.649558
48184,-7.446317,4.972264,-1.840686,0.697308,0.291700,-0.702922,-0.026515,-0.112823,-0.078923,-0.074433,0.049750,-0.018455,1.000000,-0.000133,-0.000564,-0.000395,-0.049265,-0.634862,0.414934,0.649886,104.033816,51.655418,-107.741338
48185,-7.559656,5.027757,-1.700580,0.576866,0.376976,-0.601618,0.015490,-0.142739,-0.097490,-0.075560,0.050316,-0.017056,1.000000,0.000077,-0.000714,-0.000487,-0.048621,-0.634559,0.414747,0.650351,103.952649,51.724461,-107.856394
48186,-7.436382,5.311584,-1.995686,0.682387,-0.035608,-0.483779,-0.000683,-0.145812,-0.102773,-0.074322,0.053154,-0.020011,1.000000,-0.000003,-0.000729,-0.000514,-0.048006,-0.634254,0.414489,0.650858,103.860693,51.796789,-107.973043
48187,-7.336216,5.472248,-2.006965,0.601003,-0.217828,-0.464703,0.023159,-0.082309,-0.109305,-0.073324,0.054765,-0.020093,1.000000,0.000116,-0.000412,-0.000547,-0.047426,-0.634172,0.414274,0.651117,103.828051,51.863879,-108.031650
48188,-7.530315,5.735391,-1.531594,0.102722,-0.058695,-0.224563,0.032586,-0.040082,-0.116359,-0.075267,0.057400,-0.015322,1.000000,0.000163,-0.000200,-0.000582,-0.046881,-0.634247,0.414056,0.651223,103.831967,51.929188,-108.050469
48189,-7.655782,5.762651,-1.557163,0.135905,-0.027566,-0.105749,-0.111310,-0.036856,-0.135833,-0.076516,0.057670,-0.015618,1.000000,-0.000557,-0.000184,-0.000679,-0.046734,-0.634336,0.413308,0.651621,103.758976,52.004817,-108.062375
48190,-7.765305,5.664097,-1.654734,0.291090,0.038368,-0.064156,-0.164270,-0.036308,-0.160120,-0.077605,0.056689,-0.016608,0.999999,-0.000821,-0.000182,-0.000801,-0.046678,-0.634466,0.412308,0.652132,103.660157,52.093948,-108.068403
48191,-7.882108,5.629918,-1.825056,0.483096,0.028244,0.032118,-0.221910,-0.048885,-0.190995,-0.078763,0.056354,-0.018332,0.999999,-0.001110,-0.000244,-0.000955,-0.046679,-0.634603,0.411026,0.652807,103.524316,52.201855,-108.079546
48192,-7.717966,5.639130,-2.017233,0.620741,-0.186550,-0.065080,-0.179921,-0.051293,-0.204000,-0.077117,0.056452,-0.020243,0.999999,-0.000900,-0.000256,-0.001020,-0.046498,-0.634768,0.409838,0.653406,103.412787,52.317419,-108.090290
48193,-7.642778,5.784458,-1.531170,0.119904,-0.114432,-0.107586,-0.084686,-0.028780,-0.193265,-0.076370,0.057912,-0.015347,0.999999,-0.000423,-0.000144,-0.000966,-0.046095,-0.635005,0.408993,0.653735,103.369982,52.423883,-108.083580
48194,-7.668641,5.922815,-1.248575,-0.182998,-0.074731,-0.045004,-0.133246,-0.041637,-0.169519,-0.076634,0.059285,-0.012541,0.999999,-0.000666,-0.000208,-0.000848,-0.045899,-0.635140,0.408064,0.654197,103.285841,52.518932,-108.093479
48195,-7.548583,5.853030,-1.360260,-0.070278,-0.169923,-0.166158,-0.193401,-0.074660,-0.157267,-0.075435,0.058576,-0.013687,0.999999,-0.000967,-0.000373,-0.000786,-0.045866,-0.635127,0.406986,0.654884,103.140758,52.611350,-108.136945
48196,-7.386163,5.920430,-1.535687,0.031165,-0.410818,-0.231693,-0.247999,-0.047264,-0.153158,-0.073813,0.059242,-0.015448,0.999999,-0.001240,-0.000236,-0.000766,-0.046076,-0.635182,0.405733,0.655592,102.983346,52.697966,-108.156282
48197,-7.265600,5.858599,-1.538700,0.049469,-0.458236,-0.364552,-0.310272,0.038601,-0.167226,-0.072610,0.058623,-0.015464,0.999998,-0.001551,0.000193,-0.000836,-0.046612,-0.635531,0.404212,0.656155,102.855282,52.781309,-108.093940
48198,-7.388968,5.791451,-1.781295,0.322113,-0.472755,-0.274161,-0.343017,0.109391,-0.186516,-0.073845,0.057953,-0.017872,0.999998,-0.001715,0.000547,-0.000933,-0.047331,-0.636142,0.402503,0.656562,102.763825,52.866610,-107.962131
48199,-7.611645,5.748881,-1.822826,0.422243,-0.350157,-0.116887,-0.286081,0.134720,-0.193083,-0.076073,0.057536,-0.018259,0.999998,-0.001430,0.000674,-0.000965,-0.047898,-0.636859,0.400955,0.656773,102.724982,52.952320,-107.805696
48200,-7.690039,5.770724,-1.943315,0.531083,-0.388611,-0.025893,-0.200807,0.121772,-0.177259,-0.076861,0.057756,-0.019444,0.999999,-0.001004,0.000609,-0.000886,-0.048220,-0.637522,0.399737,0.656849,102.723108,53.031004,-107.664031
48201,-7.790984,5.892786,-1.561455,0.155271,-0.246457,0.075570,-0.113507,0.123665,-0.153338,-0.077874,0.058979,-0.015600,0.999999,-0.000568,0.000618,-0.000767,-0.048346,-0.638163,0.398882,0.656737,102.768986,53.095936,-107.525531
48202,-7.988134,5.703774,-1.197475,-0.051337,0.154373,0.074212,-0.073254,0.094242,-0.126322,-0.079851,0.057084,-0.011958,1.000000,-0.000366,0.000471,-0.000632,-0.048373,-0.638663,0.398251,0.656632,102.811740,53.149552,-107.419683
48203,-7.914290,5.660296,-1.215772,-0.035706,0.126600,-0.007805,-0.011004,0.046896,-0.093646,-0.079119,0.056639,-0.012142,1.000000,-0.000055,0.000234,-0.000468,-0.048215,-0.638957,0.397941,0.656546,102.849486,53.190771,-107.364762
48204,-7.815249,5.790981,-1.232555,-0.102583,-0.031547,-0.008543,0.023773,0.024781,-0.077521,-0.078132,0.057942,-0.012309,1.000000,0.000119,0.000124,-0.000388,-0.047955,-0.639155,0.397801,0.656457,102.887989,53.225905,-107.333760
48205,-7.652264,5.816970,-1.302925,-0.087857,-0.178999,-0.114639,0.016497,0.053221,-0.083530,-0.076502,0.058203,-0.013004,1.000000,0.000082,0.000266,-0.000418,-0.047755,-0.639456,0.397612,0.656293,102.944672,53.260610,-107.274826
48206,-7.687288,5.980373,-1.391944,-0.084564,-0.315177,0.020433,0.003479,0.082609,-0.100122,-0.076849,0.059842,-0.013887,1.000000,0.000017,0.000413,-0.000501,-0.047601,-0.639883,0.397319,0.656065,103.018890,53.300883,-107.184791
48207,-7.707803,6.144235,-1.440323,-0.118979,-0.442632,0.138508,-0.081521,0.097062,-0.114490,-0.077050,0.061481,-0.014391,1.000000,-0.000408,0.000485,-0.000572,-0.047700,-0.640366,0.396699,0.655963,103.057896,53.347125,-107.078057
48208,-7.756470,6.083888,-1.471109,-0.063146,-0.394171,0.146295,-0.117646,0.150656,-0.125409,-0.077538,0.060879,-0.014688,0.999999,-0.000588,0.000753,-0.000627,-0.047984,-0.641037,0.395911,0.655762,103.118540,53.392581,-106.918562
48209,-7.830564,6.025313,-1.402108,-0.092197,-0.286905,0.162142,-0.144115,0.155369,-0.137833,-0.078275,0.060297,-0.014004,0.999999,-0.000721,0.000777,-0.000689,-0.048324,-0.641741,0.394995,0.655601,103.170019,53.444125,-106.751625
48210,-7.768748,5.863152,-1.366850,-0.067968,-0.201771,0.013448,-0.176558,0.164387,-0.119763,-0.077664,0.058666,-0.013656,0.999999,-0.000883,0.000822,-0.000599,-0.048843,-0.642430,0.394028,0.655470,103.206799,53.484470,-106.580015
48211,-7.757232,5.775689,-1.131055,-0.242752,-0.046786,-0.078655,-0.176142,0.138827,-0.094618,-0.077553,0.057784,-0.011308,0.999999,-0.000881,0.000694,-0.000473,-0.049394,-0.642984,0.393149,0.655413,103.220295,53.513950,-106.437732
48212,-7.705141,5.566542,-1.042820,-0.239085,0.103530,-0.253651,-0.173917,0.137948,-0.056132,-0.077043,0.055678,-0.010423,0.999999,-0.000870,0.000690,-0.000281,-0.050061,-0.643460,0.392400,0.655344,103.227672,53.522206,-106.304692
48213,-7.789876,5.512645,-1.012968,-0.230388,0.202109,-0.220837,-0.105475,0.136366,-0.037163,-0.077895,0.055136,-0.010106,1.000000,-0.000527,0.000682,-0.000186,-0.050568,-0.643910,0.391937,0.655140,103.269687,53.519899,-106.177298
48214,-7.761407,5.615727,-0.940407,-0.348765,0.148510,-0.194138,-0.093741,0.131038,-0.038102,-0.077610,0.056168,-0.009380,1.000000,-0.000469,0.000655,-0.000191,-0.051023,-0.644347,0.391510,0.654931,103.314598,53.518917,-106.054713
48215,-7.717047,5.629993,-1.022630,-0.293862,0.077298,-0.210444,-0.121747,0.144818,-0.044032,-0.077165,0.056311,-0.010205,1.000000,-0.000609,0.000724,-0.000220,-0.051576,-0.644832,0.390969,0.654732,103.354867,53.519224,-105.917906
48216,-7.834281,5.502928,-1.251828,-0.020127,0.129997,-0.158262,-0.164343,0.158620,-0.055437,-0.078337,0.055041,-0.012501,0.999999,-0.000822,0.000793,-0.000277,-0.052255,-0.645374,0.390247,0.654575,103.383233,53.524153,-105.765592
48217,-7.895807,5.358368,-1.592648,0.350501,0.115078,-0.145407,-0.162461,0.186736,-0.049301,-0.078960,0.053590,-0.015896,0.999999,-0.000812,0.000934,-0.000247,-0.053004,-0.645996,0.389543,0.654321,103.432720,53.521725,-105.588243
48218,-7.914620,5.460003,-1.534765,0.251020,0.083321,-0.079323,-0.034156,0.142375,-0.053711,-0.079142,0.054619,-0.015301,1.000000,-0.000171,0.000712,-0.000269,-0.053237,-0.646514,0.389256,0.653961,103.523148,53.527690,-105.451517
48219,-7.632590,5.494489,-1.467793,0.123909,-0.070901,-0.295342,-0.063064,0.143428,-0.048576,-0.076323,0.054959,-0.014641,1.000000,-0.000315,0.000717,-0.000243,-0.053583,-0.647017,0.388891,0.653652,103.596859,53.530398,-105.314943
48220,-7.618587,5.304529,-1.240192,-0.007106,0.155639,-0.448143,-0.007429,0.169771,-0.030877,-0.076188,0.053057,-0.012339,1.000000,-0.000037,0.000849,-0.000154,-0.053857,-0.647587,0.388758,0.653144,103.719079,53.519688,-105.157724
48221,-7.643586,5.095075,-1.152601,-0.003449,0.358217,-0.561507,0.050173,0.179490,-0.042474,-0.076435,0.050970,-0.011445,1.000000,0.000251,0.000897,-0.000212,-0.053927,-0.648226,0.388772,0.652496,103.883643,53.513731,-104.988840
48222,-7.804296,4.743860,-1.034719,0.049342,0.749987,-0.652069,0.215652,0.174387,-0.070828,-0.078035,0.047477,-0.010228,0.999999,0.001078,0.000872,-0.000354,-0.053356,-0.648947,0.389235,0.651549,104.144526,53.524009,-104.818119
48223,-7.898468,4.596602,-0.905953,-0.013829,0.965912,-0.680216,0.427587,0.119283,-0.109353,-0.078965,0.046028,-0.008914,0.999997,0.002138,0.000596,-0.000547,-0.051867,-0.649618,0.390277,0.650377,104.492954,53.562818,-104.689445
48224,-7.899754,4.668186,-0.954732,-0.035290,0.897068,-0.630994,0.550361,0.083549,-0.142143,-0.078968,0.046764,-0.009386,0.999996,0.002752,0.000418,-0.000711,-0.049800,-0.650265,0.391618,0.649085,104.891925,53.624618,-104.585593
48225,-7.891869,4.921756,-1.238735,0.065700,0.591394,-0.448630,0.558925,0.051912,-0.141582,-0.078887,0.049308,-0.012229,0.999996,0.002795,0.000260,-0.000708,-0.047646,-0.650804,0.392994,0.647874,105.272604,53.690315,-104.510616
48226,-7.660663,5.297937,-1.516279,0.072773,0.074539,-0.376477,0.480266,0.024344,-0.126522,-0.076575,0.053064,-0.015026,0.999997,0.002401,0.000122,-0.000633,-0.045741,-0.651201,0.394167,0.646898,105.585086,53.751716,-104.464402
48227,-7.340227,5.715956,-1.658804,-0.066969,-0.461872,-0.374210,0.339081,0.014335,-0.101781,-0.073374,0.057225,-0.016486,0.999998,0.001695,0.000072,-0.000509,-0.044358,-0.651482,0.394964,0.646226,105.804277,53.800802,-104.433393
48228,-7.183291,5.840438,-1.815836,-0.030507,-0.709393,-0.405060,0.206970,0.061461,-0.082793,-0.071814,0.058453,-0.018076,0.999999,0.001035,0.000307,-0.000414,-0.043558,-0.651846,0.395385,0.645654,105.979563,53.832059,-104.363211
48229,-7.427987,5.946144,-1.886720,-0.000112,-0.673169,-0.136007,0.190417,0.095704,-0.063226,-0.074270,0.059503,-0.018775,0.999999,0.000952,0.000479,-0.000316,-0.042943,-0.652278,0.395810,0.644999,106.167017,53.846841,-104.266227
48230,-7.649999,5.919728,-1.840131,-0.015056,-0.504559,0.020772,0.132317,0.124384,-0.062664,-0.076493,0.059233,-0.018315,1.000000,0.000662,0.000622,-0.000313,-0.042576,-0.652788,0.396041,0.644365,106.342833,53.856671,-104.142448
48231,-7.922797,5.833855,-1.965735,0.157099,-0.344814,0.213533,0.081282,0.128867,-0.069591,-0.079220,0.058374,-0.019583,1.000000,0.000406,0.000644,-0.000348,-0.042362,-0.653315,0.396085,0.643818,106.494333,53.869237,-104.012550
48232,-7.954236,5.884220,-2.240152,0.364648,-0.485619,0.313684,0.039661,0.099722,-0.078321,-0.079530,0.058878,-0.022350,1.000000,0.000198,0.000499,-0.000392,-0.042198,-0.653757,0.395972,0.643450,106.602174,53.891317,-103.907246
48233,-7.854717,5.962413,-2.347904,0.399567,-0.646079,0.295850,-0.036240,0.096304,-0.072412,-0.078537,0.059648,-0.023452,1.000000,-0.000181,0.000482,-0.000362,-0.042295,-0.654159,0.395635,0.643242,106.662688,53.910471,-103.806741
48234,-7.888355,5.931738,-2.148350,0.235991,-0.514759,0.272271,-0.018391,0.139719,-0.050738,-0.078883,0.059335,-0.021434,1.000000,-0.000092,0.000699,-0.000254,-0.042489,-0.654662,0.395417,0.642852,106.761325,53.910647,-103.671708
48235,-7.993238,5.753018,-1.769534,-0.007852,-0.157245,0.192087,0.026357,0.122988,-0.020185,-0.079937,0.057541,-0.017639,1.000000,0.000132,0.000615,-0.000101,-0.042602,-0.655059,0.395446,0.642421,106.866024,53.896551,-103.560838
48236,-7.960013,5.820621,-1.809436,-0.017342,-0.234851,0.210288,0.019366,0.108122,0.006700,-0.079612,0.058205,-0.018046,1.000000,0.000097,0.000541,0.000033,-0.042794,-0.655355,0.395543,0.642047,106.949330,53.870233,-103.471517
48237,-8.059392,5.798230,-1.903753,0.080766,-0.197131,0.294347,0.055496,0.126238,0.025545,-0.080613,0.057977,-0.018971,1.000000,0.000277,0.000631,0.000128,-0.042964,-0.655678,0.395815,0.641538,107.062439,53.830316,-103.370862
48238,-8.175891,5.905916,-1.780015,-0.074883,-0.136954,0.427873,0.222446,0.093711,0.045625,-0.081781,0.059060,-0.017696,0.999999,0.001112,0.000469,0.000228,-0.042587,-0.655893,0.396694,0.640800,107.241974,53.784898,-103.306393
48239,-8.021625,6.155122,-1.728790,-0.270843,-0.359866,0.435133,0.233516,0.023320,0.078225,-0.080242,0.061540,-0.017207,0.999999,0.001168,0.000117,0.000391,-0.042139,-0.655819,0.397730,0.640263,107.367460,53.733377,-103.316687
48240,-7.746303,6.122543,-1.878727,-0.171302,-0.551698,0.221585,0.171225,0.020529,0.096361,-0.077494,0.061204,-0.018727,1.000000,0.000856,0.000103,0.000482,-0.041947,-0.655686,0.398626,0.639855,107.450857,53.672596,-103.335003
48241,-7.642695,6.216111,-1.883015,-0.230759,-0.664137,0.192422,0.071298,0.063913,0.093239,-0.076462,0.062132,-0.018784,1.000000,0.000356,0.000320,0.000466,-0.042161,-0.655677,0.399182,0.639503,107.509838,53.605902,-103.312349
48242,-7.640095,5.995129,-1.938837,-0.083125,-0.527321,0.076029,0.029494,0.133101,0.092131,-0.076441,0.059919,-0.019329,1.000000,0.000147,0.000666,0.000461,-0.042644,-0.655881,0.399587,0.639008,107.596197,53.528007,-103.226083
48243,-7.815290,5.952217,-1.842101,-0.130404,-0.336940,0.175827,0.047559,0.160552,0.092234,-0.078195,0.059490,-0.018344,1.000000,0.000238,0.000803,0.000461,-0.043124,-0.656177,0.400044,0.638386,107.712716,53.445008,-103.115010
48244,-7.943459,5.794793,-1.636652,-0.225761,-0.046919,0.152432,0.039886,0.135308,0.087962,-0.079471,0.057916,-0.016301,1.000000,0.000199,0.000677,0.000440,-0.043565,-0.656398,0.400467,0.637863,107.806849,53.368818,-103.026299
48245,-7.972673,5.764172,-1.350233,-0.462104,0.134649,0.106014,0.024116,0.097654,0.085582,-0.079758,0.057609,-0.013456,1.000000,0.000121,0.000488,0.000428,-0.043975,-0.656501,0.400839,0.637496,107.864577,53.300295,-102.971463
48246,-7.901514,5.756438,-1.316844,-0.496557,0.124194,0.038332,-0.091773,0.074054,0.071326,-0.079041,0.057530,-0.013166,1.000000,-0.000459,0.000370,0.000357,-0.044672,-0.656531,0.400801,0.637441,107.841903,53.243851,-102.934214
48247,-7.635425,5.658217,-1.412085,-0.396306,-0.000500,-0.213101,-0.220109,0.102580,0.054716,-0.076377,0.056546,-0.014144,0.999999,-0.001101,0.000513,0.000274,-0.045796,-0.656656,0.400292,0.637552,107.770352,53.191314,-102.865889
48248,-7.604230,5.540796,-1.487485,-0.273738,0.034223,-0.291068,-0.189963,0.164731,0.050925,-0.076069,0.055374,-0.014865,0.999999,-0.000950,0.000824,0.000255,-0.046932,-0.656992,0.399852,0.637399,107.762217,53.130183,-102.740125
48249,-7.723386,5.490332,-1.578994,-0.151430,0.106651,-0.207826,-0.178317,0.158168,0.059189,-0.077263,0.054866,-0.015778,0.999999,-0.000892,0.000791,0.000296,-0.048044,-0.657293,0.399477,0.637241,107.753777,53.065528,-102.622807
48250,-7.804950,5.408496,-1.623383,-0.061828,0.200635,-0.181470,-0.123279,0.143990,0.069110,-0.078080,0.054048,-0.016211,0.999999,-0.000616,0.000720,0.000346,-0.048976,-0.657541,0.399313,0.637017,107.764130,52.998109,-102.521511
48251,-7.825525,5.377152,-1.706023,0.029222,0.207574,-0.168042,-0.128840,0.131132,0.054848,-0.078281,0.053739,-0.017044,1.000000,-0.000644,0.000656,0.000274,-0.049858,-0.657775,0.399087,0.636849,107.765034,52.940554,-102.427700
48252,-7.830747,5.384792,-1.675507,0.001885,0.227830,-0.165304,-0.153852,0.126326,0.045960,-0.078330,0.053817,-0.016747,0.999999,-0.000769,0.000632,0.000230,-0.050782,-0.658004,0.398753,0.636748,107.750129,52.888855,-102.335951
48253,-7.826124,5.356153,-1.675421,0.017387,0.252229,-0.185657,-0.161876,0.124265,0.036104,-0.078281,0.053534,-0.016749,0.999999,-0.000809,0.000621,0.000181,-0.051699,-0.658243,0.398361,0.636672,107.731219,52.842742,-102.243147
48254,-7.805706,5.204328,-1.719741,0.126278,0.330327,-0.281343,-0.139657,0.105196,0.032411,-0.078075,0.052019,-0.017193,1.000000,-0.000698,0.000526,0.000162,-0.052491,-0.658435,0.398032,0.636615,107.712155,52.802157,-102.166713
48255,-7.811853,5.141033,-1.686409,0.128116,0.398163,-0.319305,-0.056465,0.082775,0.040848,-0.078136,0.051390,-0.016846,1.000000,-0.000282,0.000414,0.000204,-0.052993,-0.658559,0.398002,0.636464,107.722559,52.760747,-102.112951
48256,-7.714641,5.112858,-1.659512,0.105421,0.378751,-0.418199,-0.028089,0.059368,0.056660,-0.077166,0.051104,-0.016579,1.000000,-0.000140,0.000297,0.000283,-0.053404,-0.658585,0.398120,0.636329,107.728793,52.714919,-102.084965
48257,-7.726186,5.136685,-1.614398,0.056678,0.396980,-0.403918,0.008160,0.048574,0.064638,-0.077282,0.051343,-0.016123,1.000000,0.000041,0.000243,0.000323,-0.053701,-0.658571,0.398382,0.636155,107.746080,52.666448,-102.068817
48258,-7.732803,5.211584,-1.588723,0.000166,0.369689,-0.360481,0.047177,0.035492,0.069289,-0.077349,0.052093,-0.015861,1.000000,0.000236,0.000177,0.000346,-0.053857,-0.658516,0.398787,0.635945,107.775367,52.617892,-102.066046
48259,-7.729874,5.423009,-1.602127,-0.086431,0.227652,-0.238374,0.070555,0.027530,0.069271,-0.077320,0.054209,-0.015992,1.000000,0.000353,0.000138,0.000346,-0.053920,-0.658441,0.399268,0.635714,107.812274,52.570642,-102.070389
48260,-7.703114,5.530861,-1.604694,-0.138839,0.145991,-0.196927,0.079173,0.017983,0.064069,-0.077050,0.055290,-0.016018,1.000000,0.000396,0.000090,0.000320,-0.053919,-0.658349,0.399763,0.635499,107.848536,52.528003,-102.081921
48261,-7.705258,5.678955,-1.437236,-0.356516,0.128083,-0.140890,0.101265,0.014549,0.051158,-0.077068,0.056777,-0.014338,1.000000,0.000506,0.000073,0.000256,-0.053798,-0.658277,0.400285,0.635254,107.897856,52.492888,-102.092744
48262,-7.795986,5.703598,-1.307564,-0.470818,0.227307,-0.078993,0.026566,-0.024947,0.034133,-0.077968,0.057024,-0.013078,1.000000,0.000133,-0.000125,0.000171,-0.053789,-0.658094,0.400526,0.635294,107.880316,52.474134,-102.134116
48263,-7.995646,5.330493,-1.137186,-0.421502,0.673174,-0.168680,0.045721,-0.052513,0.000342,-0.079954,0.053307,-0.011381,1.000000,0.000229,-0.000263,0.000002,-0.053555,-0.657896,0.400723,0.635394,107.861820,52.478518,-102.190423
48264,-8.043040,5.027554,-1.301012,-0.131386,0.830933,-0.275826,0.063857,-0.052824,-0.039590,-0.080417,0.050296,-0.013015,1.000000,0.000319,-0.000264,-0.000198,-0.053133,-0.657782,0.400847,0.635470,107.862721,52.504856,-102.235477
48265,-7.832335,4.994352,-1.576182,0.097131,0.601580,-0.410452,0.037806,-0.029459,-0.077722,-0.078302,0.049977,-0.015764,1.000000,0.000189,-0.000147,-0.000389,-0.052724,-0.657811,0.400755,0.635532,107.873882,52.547779,-102.248500
48266,-7.573806,5.195244,-1.610587,-0.000460,0.291032,-0.492688,-0.005845,-0.007340,-0.079919,-0.075717,0.051982,-0.016110,1.000000,-0.000029,-0.000037,-0.000400,-0.052494,-0.657903,0.400512,0.635608,107.876425,52.588115,-102.241149
48267,-7.546258,5.523209,-1.484877,-0.265546,0.102038,-0.348239,-0.013483,-0.043618,-0.074734,-0.075439,0.055259,-0.014869,1.000000,-0.000067,-0.000218,-0.000374,-0.052234,-0.657868,0.400271,0.635818,107.847369,52.631898,-102.267915
48268,-7.736104,5.841288,-1.150822,-0.677557,0.138404,-0.075435,0.003111,-0.115011,-0.069449,-0.077334,0.058440,-0.011552,1.000000,0.000016,-0.000575,-0.000347,-0.051792,-0.657599,0.400119,0.636228,107.775615,52.685398,-102.360478
48269,-7.771049,6.014352,-1.390850,-0.535096,-0.075843,0.097106,-0.003314,-0.167490,-0.092714,-0.077671,0.060179,-0.013975,1.000000,-0.000017,-0.000837,-0.000464,-0.051194,-0.657207,0.399884,0.636829,107.667440,52.760565,-102.493998
48270,-7.603934,6.022888,-1.866493,-0.135107,-0.405465,0.056259,-0.063000,-0.124036,-0.106684,-0.075996,0.060264,-0.018731,1.000000,-0.000315,-0.000620,-0.000533,-0.050832,-0.656966,0.399401,0.637409,107.559203,52.835769,-102.584638
48271,-7.454012,6.165413,-2.049162,-0.054723,-0.683593,0.051560,-0.058975,-0.030539,-0.099342,-0.074506,0.061685,-0.020521,1.000000,-0.000295,-0.000153,-0.000497,-0.050669,-0.657009,0.398932,0.637672,107.518573,52.890632,-102.593258
48272,-7.480709,6.582981,-2.333287,0.013875,-1.083794,0.364054,-0.234334,0.035443,-0.050455,-0.074795,0.065821,-0.023397,0.999999,-0.001172,0.000177,-0.000252,-0.051368,-0.657120,0.398046,0.638055,107.414109,52.907538,-102.555964
48273,-7.719332,6.622911,-2.212405,-0.064177,-0.920726,0.555239,-0.306290,0.054938,-0.008156,-0.077197,0.066198,-0.022204,0.999999,-0.001531,0.000275,-0.000041,-0.052478,-0.657188,0.397065,0.638505,107.272757,52.897895,-102.513194
48274,-7.980971,6.485617,-1.748236,-0.358793,-0.472671,0.601883,-0.281993,0.024611,-0.005487,-0.079810,0.064834,-0.017564,0.999999,-0.001410,0.000123,-0.000027,-0.053456,-0.657160,0.396177,0.639005,107.122967,52.892129,-102.498492
48275,-8.052187,6.055837,-1.725476,-0.160990,-0.132535,0.407129,-0.221732,0.026820,-0.039906,-0.080512,0.060555,-0.017311,0.999999,-0.001109,0.000134,-0.000200,-0.054131,-0.657222,0.395367,0.639386,107.016805,52.904695,-102.472301
48276,-8.050647,5.841207,-1.962808,0.153614,-0.094615,0.324012,-0.164029,0.039195,-0.047000,-0.080497,0.058415,-0.019660,1.000000,-0.000820,0.000196,-0.000235,-0.054617,-0.657353,0.394714,0.639613,106.954402,52.919268,-102.432783
48277,-7.851139,5.930287,-1.951288,0.083676,-0.270520,0.214079,-0.129487,0.026919,-0.020927,-0.078508,0.059298,-0.019541,1.000000,-0.000647,0.000135,-0.000105,-0.055051,-0.657401,0.394261,0.639806,106.896940,52.921452,-102.411646
48278,-7.666258,6.012608,-1.636052,-0.247572,-0.299849,0.058909,-0.152933,0.005885,0.023658,-0.076670,0.060104,-0.016404,1.000000,-0.000765,0.000029,0.000118,-0.055660,-0.657289,0.393884,0.640101,106.801163,52.902867,-102.421933
48279,-7.467881,6.091009,-1.600500,-0.324410,-0.454025,-0.059748,-0.261124,-0.012136,0.057375,-0.074695,0.060868,-0.016089,0.999999,-0.001306,-0.000061,0.000287,-0.056699,-0.657020,0.393278,0.640658,106.622903,52.868573,-102.457980
48280,-7.495247,5.803524,-1.713451,-0.072168,-0.287866,-0.184218,-0.287316,-0.014809,0.073475,-0.074973,0.057983,-0.017223,0.999999,-0.001437,-0.000074,0.000367,-0.057869,-0.656703,0.392640,0.641269,106.424575,52.825962,-102.500341
48281,-7.570407,5.431476,-1.752837,0.155625,-0.002142,-0.333227,-0.198220,-0.010666,0.074787,-0.075723,0.054269,-0.017586,0.999999,-0.000991,-0.000053,0.000374,-0.058759,-0.656421,0.392291,0.641691,106.280078,52.781710,-102.539191
48282,-7.625570,5.245440,-1.957505,0.439762,0.075228,-0.362993,-0.132218,0.000077,0.066164,-0.076273,0.052416,-0.019610,1.000000,-0.000661,0.000000,0.000331,-0.059426,-0.656210,0.392120,0.641950,106.183319,52.740607,-102.565641
48283,-7.686653,5.198988,-1.990236,0.505431,0.134420,-0.336316,-0.063200,0.017160,0.055313,-0.076883,0.051962,-0.019912,1.000000,-0.000316,0.000086,0.000277,-0.059864,-0.656093,0.392133,0.642020,106.140705,52.702565,-102.574042
48284,-7.686944,5.361078,-1.901207,0.360635,0.066625,-0.257042,-0.061260,0.019138,0.051222,-0.076885,0.053585,-0.019021,1.000000,-0.000306,0.000096,0.000256,-0.060287,-0.655993,0.392136,0.642081,106.101648,52.666623,-102.579087
48285,-7.556628,5.456608,-1.734133,0.159120,0.000284,-0.333284,-0.104050,0.030363,0.056501,-0.075584,0.054536,-0.017358,1.000000,-0.000520,0.000152,0.000283,-0.060890,-0.655905,0.392015,0.642188,106.044975,52.625804,-102.575361
48286,-7.588079,5.412528,-1.614829,0.083161,0.105519,-0.354145,-0.102443,0.036058,0.063823,-0.075901,0.054093,-0.016162,1.000000,-0.000512,0.000180,0.000319,-0.061522,-0.655822,0.391922,0.642270,105.992001,52.580241,-102.568227
48287,-7.660814,5.350337,-1.527609,0.047849,0.234701,-0.347467,-0.068053,0.038368,0.064575,-0.076628,0.053473,-0.015280,1.000000,-0.000340,0.000192,0.000323,-0.062050,-0.655755,0.391940,0.642276,105.960126,52.533722,-102.559081
48288,-7.695799,5.250415,-1.646437,0.205864,0.280113,-0.358477,-0.066641,0.043330,0.049679,-0.076975,0.052480,-0.016465,1.000000,-0.000333,0.000217,0.000248,-0.062533,-0.655733,0.391912,0.642268,105.935846,52.494813,-102.541628
48289,-7.664600,5.306218,-1.657923,0.189375,0.224336,-0.348832,-0.021943,0.058970,0.034565,-0.076660,0.053047,-0.016562,1.000000,-0.000110,0.000295,0.000173,-0.062855,-0.655806,0.391972,0.642126,105.951335,52.461611,-102.505869
48290,-7.647269,5.463867,-1.713021,0.166976,0.088647,-0.261076,-0.024905,0.072609,0.028372,-0.076487,0.054626,-0.017109,1.000000,-0.000125,0.000363,0.000142,-0.063190,-0.655933,0.391999,0.641947,105.976265,52.429821,-102.456490
48291,-7.719703,5.552199,-1.725162,0.146246,0.072786,-0.149861,0.035082,0.071206,0.038201,-0.077214,0.055510,-0.017214,1.000000,0.000175,0.000356,0.000191,-0.063360,-0.656055,0.392251,0.641652,106.032327,52.392646,-102.410932
48292,-7.727779,5.831497,-1.702287,0.002414,-0.096468,0.016524,0.043451,0.044888,0.050573,-0.077296,0.058299,-0.016993,1.000000,0.000217,0.000224,0.000253,-0.063487,-0.656071,0.392579,0.641422,106.071892,52.352977,-102.392478
48293,-7.742091,5.801776,-1.568076,-0.104487,-0.004099,-0.012253,0.057038,0.016896,0.051436,-0.077437,0.058002,-0.015658,1.000000,0.000285,0.000084,0.000257,-0.063521,-0.656000,0.392962,0.641257,106.098929,52.317124,-102.399363
48294,-7.728498,5.719647,-1.442007,-0.185098,0.102961,-0.092679,0.075609,0.012830,0.037068,-0.077297,0.057188,-0.014393,1.000000,0.000378,0.000064,0.000185,-0.063437,-0.655949,0.393359,0.641074,106.136770,52.289976,-102.406357
48295,-7.678100,5.841172,-1.521574,-0.174356,-0.039655,-0.047662,-0.018838,0.018470,0.014174,-0.076787,0.058405,-0.015214,1.000000,-0.000094,0.000092,0.000071,-0.063603,-0.655932,0.393376,0.641065,106.129083,52.274370,-102.402280
48296,-7.586623,5.703395,-1.563741,-0.087787,-0.016658,-0.193807,-0.040583,0.028240,-0.009895,-0.075866,0.057035,-0.015638,1.000000,-0.000203,0.000141,-0.000049,-0.063779,-0.655986,0.393241,0.641074,106.120976,52.270619,-102.383199
48297,-7.509402,5.736646,-1.648643,-0.036216,-0.120901,-0.220903,-0.091371,0.078238,-0.029358,-0.075092,0.057370,-0.016483,1.000000,-0.000457,0.000391,-0.000147,-0.064161,-0.656223,0.392864,0.641025,106.123198,52.269464,-102.314046
48298,-7.540052,5.768469,-1.877175,0.157726,-0.218618,-0.139077,-0.143798,0.133549,-0.020503,-0.075407,0.057679,-0.018763,1.000000,-0.000719,0.000668,-0.000103,-0.064849,-0.656602,0.392330,0.640895,106.133021,52.254790,-102.197509
48299,-7.634628,5.856684,-1.819402,0.080711,-0.194890,-0.022181,-0.130716,0.116628,-0.004238,-0.076356,0.058557,-0.018188,1.000000,-0.000654,0.000583,-0.000021,-0.065516,-0.656899,0.391895,0.640788,106.134767,52.233689,-102.100297
48300,-7.586521,5.689387,-1.479188,-0.157080,0.036151,-0.216519,-0.044093,0.067520,0.013329,-0.075874,0.056886,-0.014779,1.000000,-0.000220,0.000338,0.000067,-0.065856,-0.657032,0.391813,0.640667,106.147740,52.210896,-102.051989
48301,-7.573960,5.587241,-1.513446,-0.084339,0.088087,-0.280753,-0.023771,0.044122,0.018034,-0.075748,0.055864,-0.015124,1.000000,-0.000119,0.000221,0.000090,-0.066101,-0.657088,0.391817,0.640582,106.154623,52.189088,-102.025800
48302,-7.692196,5.448805,-1.700023,0.155043,0.181193,-0.237064,0.041252,0.058157,0.031814,-0.076936,0.054479,-0.016967,1.000000,0.000206,0.000291,0.000159,-0.066201,-0.657183,0.392072,0.640318,106.205972,52.157599,-101.990783
48303,-7.717532,5.725408,-1.864634,0.181105,-0.053724,-0.025872,0.070908,0.072287,0.044755,-0.077195,0.057243,-0.018598,1.000000,0.000355,0.000361,0.000224,-0.066274,-0.657307,0.392460,0.639946,106.281431,52.116530,-101.946719
48304,-7.766183,5.936787,-1.713091,-0.046217,-0.096324,0.111137,0.101217,0.075943,0.064573,-0.077687,0.059351,-0.017071,1.000000,0.000506,0.000380,0.000323,-0.066317,-0.657414,0.393008,0.639495,106.372732,52.064108,-101.904570
48305,-7.723307,6.079803,-1.604565,-0.217039,-0.163977,0.142919,0.097959,0.051779,0.068305,-0.077258,0.060779,-0.015996,1.000000,0.000490,0.000259,0.000342,-0.066338,-0.657435,0.393565,0.639128,106.444091,52.013373,-101.884961
48306,-7.728895,5.807425,-1.577838,-0.127849,0.045814,-0.018142,0.118328,0.027842,0.065016,-0.077310,0.058058,-0.015733,1.000000,0.000592,0.000139,0.000325,-0.066231,-0.657393,0.394184,0.638801,106.510993,51.968456,-101.886165
48307,-7.749235,5.685591,-1.829396,0.145742,0.044709,-0.030048,0.137573,0.031415,0.049958,-0.077509,0.056849,-0.018243,1.000000,0.000688,0.000157,0.000250,-0.066022,-0.657398,0.394814,0.638429,106.594376,51.931089,-101.880187
48308,-7.804826,5.858580,-1.898455,0.131009,-0.059843,0.128220,0.152439,0.041591,0.050384,-0.078067,0.058581,-0.018924,1.000000,0.000762,0.000208,0.000252,-0.065784,-0.657438,0.395490,0.637993,106.693353,51.891951,-101.865472
48309,-7.722997,6.037919,-1.597591,-0.233866,-0.096156,0.116537,0.133536,0.039147,0.056740,-0.077250,0.060368,-0.015920,1.000000,0.000668,0.000196,0.000284,-0.065624,-0.657451,0.396128,0.637600,106.778223,51.849524,-101.854896
48310,-7.468681,6.059388,-1.508182,-0.360767,-0.218220,-0.086732,0.089469,0.025959,0.060111,-0.074707,0.060578,-0.015045,1.000000,0.000447,0.000130,0.000301,-0.065593,-0.657402,0.396639,0.637337,106.827991,51.807614,-101.856864
48311,-7.429657,5.869399,-1.699518,-0.115276,-0.185226,-0.195494,0.045655,0.044300,0.059615,-0.074318,0.058676,-0.016965,1.000000,0.000228,0.000222,0.000298,-0.065743,-0.657397,0.397002,0.637100,106.865347,51.762760,-101.842374
48312,-7.541918,5.665659,-1.739060,0.021315,0.012243,-0.220819,0.031752,0.052637,0.060987,-0.075441,0.056636,-0.017362,1.000000,0.000159,0.000263,0.000305,-0.065957,-0.657411,0.397324,0.636863,106.900339,51.715933,-101.821048
48313,-7.705011,5.742690,-1.547098,-0.165271,0.147968,-0.081809,0.072842,0.038396,0.058144,-0.077070,0.057410,-0.015435,1.000000,0.000364,0.000192,0.000291,-0.066000,-0.657398,0.397772,0.636591,106.949394,51.672865,-101.811734
48314,-7.612018,5.778072,-1.669728,-0.085698,0.023844,-0.111707,0.030396,0.032533,0.053901,-0.076138,0.057763,-0.016676,1.000000,0.000152,0.000163,0.000270,-0.066156,-0.657362,0.398072,0.636425,106.971047,51.633264,-101.806400
48315,-7.608413,5.850247,-1.675429,-0.113916,-0.022813,-0.070670,0.023514,0.039433,0.040364,-0.076099,0.058489,-0.016732,1.000000,0.000118,0.000197,0.000202,-0.066307,-0.657372,0.398304,0.636254,106.996230,51.599771,-101.791373
48316,-7.595255,5.748471,-1.710656,-0.041230,0.028973,-0.135052,0.022252,0.044617,0.035577,-0.075967,0.057473,-0.017083,1.000000,0.000111,0.000223,0.000178,-0.066455,-0.657408,0.398514,0.636070,107.025384,51.568181,-101.770505
48317,-7.615888,5.716199,-1.721974,-0.016093,0.064247,-0.136041,0.019854,0.041133,0.034308,-0.076172,0.057151,-0.017198,1.000000,0.000099,0.000206,0.000172,-0.066601,-0.657433,0.398714,0.635903,107.050846,51.537694,-101.752535
48318,-7.696215,5.579216,-1.786591,0.109920,0.183589,-0.142864,0.045178,0.025827,0.033003,-0.076974,0.055783,-0.017843,1.000000,0.000226,0.000129,0.000165,-0.066629,-0.657422,0.398995,0.635736,107.080657,51.510661,-101.747590
48319,-7.703552,5.547833,-1.685178,0.031236,0.256260,-0.174413,0.080811,0.021912,0.016600,-0.077042,0.055479,-0.016821,1.000000,0.000404,0.000110,0.000083,-0.066481,-0.657442,0.399337,0.635516,107.131481,51.493093,-101.741699
48320,-7.623871,5.579463,-1.775181,0.082599,0.151872,-0.201486,0.078013,0.018910,0.003180,-0.076241,0.055800,-0.017723,1.000000,0.000390,0.000095,0.000016,-0.066292,-0.657479,0.399626,0.635316,107.181621,51.483551,-101.734812
48321,-7.580223,5.643542,-1.914567,0.166960,0.026034,-0.171819,0.087793,0.031755,-0.007887,-0.075803,0.056447,-0.019109,1.000000,0.000439,0.000159,-0.000039,-0.066063,-0.657581,0.399905,0.635058,107.248404,51.477738,-101.713654
48322,-7.562018,5.693220,-1.899819,0.122223,-0.009907,-0.159132,0.105272,0.035440,-0.011421,-0.075620,0.056947,-0.018955,1.000000,0.000526,0.000177,-0.000057,-0.065771,-0.657709,0.400228,0.634753,107.328614,51.473359,-101.688295
48323,-7.566048,5.640657,-1.817926,0.064875,0.064683,-0.202352,0.117631,0.035391,-0.014170,-0.075660,0.056423,-0.018133,1.000000,0.000588,0.000177,-0.000071,-0.065431,-0.657845,0.400579,0.634425,107.416315,51.470322,-101.662177
48324,-7.551092,5.445897,-1.872020,0.187979,0.165553,-0.319612,0.154976,0.025678,-0.013504,-0.075510,0.054479,-0.018668,1.000000,0.000775,0.000128,-0.000068,-0.064949,-0.657961,0.401055,0.634053,107.518732,51.468711,-101.644832
48325,-7.528509,5.338763,-1.871825,0.222797,0.226058,-0.400790,0.166134,0.017444,-0.004582,-0.075285,0.053405,-0.018667,1.000000,0.000831,0.000087,-0.000023,-0.064445,-0.658037,0.401598,0.633683,107.619824,51.463494,-101.637131
48326,-7.603089,5.352560,-1.890394,0.231457,0.257696,-0.330575,0.239223,0.002436,0.008928,-0.076034,0.053545,-0.018839,0.999999,0.001196,0.000012,0.000045,-0.063710,-0.658060,0.402421,0.633210,107.749670,51.453643,-101.646429
48327,-7.595758,5.666504,-1.695254,-0.096563,0.131551,-0.187095,0.306982,-0.015688,0.025352,-0.075963,0.056681,-0.016872,0.999999,0.001535,-0.000078,0.000127,-0.062769,-0.658013,0.403519,0.632654,107.902176,51.437891,-101.676282
48328,-7.520125,5.816208,-1.783166,-0.110262,-0.045653,-0.140770,0.290803,-0.019852,0.036501,-0.075210,0.058174,-0.017755,0.999999,0.001454,-0.000099,0.000183,-0.061907,-0.657924,0.404601,0.632140,108.040178,51.416981,-101.712951
48329,-7.525706,5.998582,-1.936537,-0.071488,-0.222300,0.001326,0.296931,-0.009028,0.041136,-0.075269,0.059999,-0.019280,0.999999,0.001485,-0.000045,0.000206,-0.061062,-0.657861,0.405715,0.631575,108.187891,51.391560,-101.741575
48330,-7.625010,6.102728,-1.882597,-0.169479,-0.200125,0.130121,0.296909,-0.007243,0.028447,-0.076258,0.061044,-0.018738,0.999999,0.001485,-0.000036,0.000142,-0.060180,-0.657827,0.406785,0.631006,108.339704,51.372885,-101.765069
48331,-7.651500,6.186286,-1.894322,-0.209282,-0.237624,0.202489,0.266431,-0.007353,0.025988,-0.076522,0.061878,-0.018864,0.999999,0.001332,-0.000037,0.000130,-0.059391,-0.657787,0.407749,0.630499,108.474370,51.355477,-101.787966
48332,-7.602379,6.221081,-1.822443,-0.308380,-0.253959,0.170284,0.227379,-0.003820,0.003798,-0.076025,0.062230,-0.018155,0.999999,0.001137,-0.000019,0.000019,-0.058666,-0.657792,0.408516,0.630066,108.594193,51.349639,-101.801421
48333,-7.613051,6.253552,-1.803374,-0.350145,-0.257102,0.193755,0.158233,0.003908,-0.008410,-0.076128,0.062553,-0.017983,1.000000,0.000791,0.000020,-0.000042,-0.058147,-0.657824,0.409023,0.629751,108.682295,51.348875,-101.804677
48334,-7.480842,6.068035,-1.976816,-0.136976,-0.290342,0.015272,0.091769,0.011934,-0.022731,-0.074803,0.060698,-0.019736,1.000000,0.000459,0.000060,-0.000114,-0.057817,-0.657891,0.409271,0.629550,108.741187,51.354564,-101.796664
48335,-7.534108,6.013349,-1.978870,-0.108854,-0.222402,0.024881,0.044334,0.034264,-0.030786,-0.075335,0.060149,-0.019762,1.000000,0.000222,0.000171,-0.000154,-0.057664,-0.658031,0.409338,0.629375,108.789790,51.360349,-101.767101
48336,-7.665933,5.698819,-2.355866,0.380206,-0.099539,0.017812,0.013646,0.044929,-0.014201,-0.076661,0.056995,-0.023538,1.000000,0.000068,0.000225,-0.000071,-0.057685,-0.658162,0.409358,0.629223,108.824346,51.355308,-101.732937
48337,-7.756369,5.560919,-2.002341,0.141560,0.204459,-0.064221,0.110948,0.020349,0.010177,-0.077569,0.055616,-0.019985,1.000000,0.000555,0.000102,0.000051,-0.057414,-0.658194,0.409771,0.628945,108.892202,51.341433,-101.727352
48338,-7.622290,5.407145,-1.940058,0.135386,0.255171,-0.272410,0.180750,-0.018363,0.036419,-0.076231,0.054075,-0.019359,1.000000,0.000904,-0.000092,0.000182,-0.056915,-0.658070,0.410502,0.628644,108.967841,51.320676,-101.763184
48339,-7.584528,5.408847,-1.902601,0.088675,0.253592,-0.308562,0.272287,-0.026596,0.059801,-0.075859,0.054092,-0.018962,0.999999,0.001361,-0.000133,0.000299,-0.056172,-0.657897,0.411599,0.628174,109.084771,51.288688,-101.813214
48340,-7.699001,5.705300,-1.881804,-0.065362,0.147164,-0.048451,0.326507,-0.048531,0.079694,-0.077008,0.057053,-0.018744,0.999999,0.001633,-0.000243,0.000398,-0.055267,-0.657628,0.412936,0.627658,109.213386,51.250264,-101.888222
48341,-7.642381,6.128316,-1.760539,-0.390428,-0.100017,0.132125,0.327373,-0.062362,0.077718,-0.076442,0.061282,-0.017529,0.999999,0.001637,-0.000312,0.000389,-0.054326,-0.657318,0.414272,0.627184,109.333488,51.215482,-101.974617
48342,-7.435133,6.385816,-1.779271,-0.534461,-0.394099,0.126361,0.260929,-0.056816,0.062064,-0.074366,0.063858,-0.017731,0.999999,0.001305,-0.000284,0.000310,-0.053564,-0.657038,0.415346,0.626832,109.423079,51.188351,-102.051558
48343,-7.394008,6.498481,-1.911808,-0.486063,-0.545460,0.188454,0.141065,-0.023585,0.038367,-0.073950,0.064984,-0.019081,1.000000,0.000705,-0.000118,0.000192,-0.053193,-0.656879,0.415957,0.626626,109.471773,51.167577,-102.092591
48344,-7.486561,6.359880,-1.937722,-0.387982,-0.406487,0.184096,0.017304,0.019028,0.012142,-0.074871,0.063596,-0.019365,1.000000,0.000087,0.000095,0.000061,-0.053232,-0.656875,0.416083,0.626544,109.484535,51.153005,-102.089004
48345,-7.478704,6.013637,-1.947087,-0.213550,-0.189839,-0.024718,-0.096084,0.045311,-0.018187,-0.074786,0.060134,-0.019483,1.000000,-0.000480,0.000227,-0.000091,-0.053604,-0.656985,0.415747,0.626619,109.457010,51.149644,-102.053701
48346,-7.619729,5.639989,-2.127889,0.144603,0.057090,-0.098085,-0.135019,0.053908,-0.026003,-0.076196,0.056395,-0.021296,1.000000,-0.000675,0.000270,-0.000130,-0.054097,-0.657128,0.415261,0.626749,109.414935,51.149034,-102.008461
48347,-7.813795,5.346799,-2.149672,0.333189,0.356063,-0.115938,-0.119469,0.039274,-0.024028,-0.078136,0.053465,-0.021513,1.000000,-0.000597,0.000196,-0.000120,-0.054516,-0.657225,0.414834,0.626894,109.371325,51.149991,-101.976483
48348,-7.766873,5.317826,-2.055551,0.263122,0.386880,-0.189280,-0.055477,-0.012117,-0.017919,-0.077663,0.053180,-0.020575,1.000000,-0.000277,-0.000061,-0.000090,-0.054635,-0.657165,0.414641,0.627073,109.328607,51.157588,-101.990589
48349,-7.533323,5.227790,-2.060771,0.282707,0.297735,-0.423387,0.028549,-0.038087,-0.014094,-0.075326,0.052286,-0.020615,1.000000,0.000143,-0.000190,-0.000070,-0.054437,-0.657039,0.414733,0.627163,109.315551,51.167890,-102.028463
48350,-7.522892,5.361372,-2.102055,0.253524,0.184118,-0.343861,0.081170,-0.047737,-0.009576,-0.075221,0.053626,-0.021017,1.000000,0.000406,-0.000239,-0.000048,-0.054060,-0.656888,0.415006,0.627173,109.325217,51.177724,-102.075822
48351,-7.591654,5.431444,-2.057854,0.188693,0.199253,-0.257937,0.133117,-0.062574,-0.002815,-0.075909,0.054329,-0.020566,1.000000,0.000666,-0.000313,-0.000014,-0.053504,-0.656689,0.415468,0.627123,109.352947,51.186589,-102.138151
48352,-7.540476,5.546753,-1.833693,-0.071517,0.193204,-0.276166,0.177687,-0.075998,-0.001488,-0.075397,0.055484,-0.018316,1.000000,0.000888,-0.000380,-0.000007,-0.052776,-0.656458,0.416077,0.627023,109.396995,51.197451,-102.212341
48353,-7.517794,5.647383,-1.836638,-0.124010,0.112077,-0.233780,0.154197,-0.078868,0.002035,-0.075171,0.056487,-0.018352,1.000000,0.000771,-0.000394,0.000010,-0.052132,-0.656203,0.416625,0.626980,109.424668,51.206835,-102.290155
48354,-7.629420,5.693527,-1.897188,-0.081968,0.122397,-0.106920,0.145452,-0.069181,0.001014,-0.076288,0.056949,-0.018957,1.000000,0.000727,-0.000346,0.000005,-0.051532,-0.655978,0.417139,0.626923,109.454212,51.215097,-102.359239
48355,-7.648499,5.873388,-1.773381,-0.275900,0.073606,-0.011689,0.139167,-0.081444,0.005618,-0.076479,0.058744,-0.017724,1.000000,0.000696,-0.000407,0.000028,-0.050943,-0.655703,0.417652,0.626918,109.470682,51.223115,-102.440431
48356,-7.501763,6.066499,-1.687148,-0.465608,-0.102655,-0.030152,0.123666,-0.081872,-0.009886,-0.075008,0.060679,-0.016865,1.000000,0.000618,-0.000409,-0.000049,-0.050354,-0.655454,0.418064,0.626950,109.481768,51.239717,-102.517159
48357,-7.534088,6.110879,-1.755519,-0.424785,-0.145164,0.035442,0.065640,-0.059545,-0.021025,-0.075329,0.061122,-0.017558,1.000000,0.000328,-0.000298,-0.000105,-0.049968,-0.655284,0.418253,0.627033,109.477106,51.257950,-102.571365
48358,-7.683116,6.119388,-1.856298,-0.320470,-0.109090,0.177729,-0.005573,-0.039497,-0.026019,-0.076820,0.061203,-0.018580,1.000000,-0.000028,-0.000197,-0.000130,-0.049840,-0.655170,0.418197,0.627200,109.446441,51.275166,-102.606651
48359,-7.668254,6.033203,-1.821608,-0.307036,-0.050657,0.108154,-0.045302,-0.035930,-0.031613,-0.076670,0.060340,-0.018244,1.000000,-0.000227,-0.000180,-0.000158,-0.049833,-0.655067,0.417998,0.627440,109.396556,51.294572,-102.637419
48360,-7.529236,5.941132,-1.853115,-0.248568,-0.095908,-0.047981,-0.086878,-0.039963,-0.043620,-0.075276,0.059420,-0.018572,1.000000,-0.000434,-0.000200,-0.000218,-0.049916,-0.654968,0.417629,0.627783,109.323088,51.321352,-102.667841
48361,-7.514879,5.756919,-1.971367,-0.052841,-0.046038,-0.143308,-0.091223,-0.027405,-0.048865,-0.075132,0.057579,-0.019750,1.000000,-0.000456,-0.000137,-0.000244,-0.050024,-0.654917,0.417226,0.628096,109.256615,51.348427,-102.685935
48362,-7.629906,5.631190,-2.009622,0.061976,0.082064,-0.119712,-0.074155,-0.022513,-0.048375,-0.076283,0.056323,-0.020126,1.000000,-0.000371,-0.000113,-0.000242,-0.050086,-0.654885,0.416876,0.628356,109.203246,51.374444,-102.699934
48363,-7.704120,5.454947,-2.014326,0.164984,0.233411,-0.164593,-0.033230,-0.036777,-0.054530,-0.077023,0.054567,-0.020166,1.000000,-0.000166,-0.000184,-0.000273,-0.049966,-0.654831,0.416640,0.628579,109.164903,51.406330,-102.724678
48364,-7.668299,5.500118,-2.055572,0.176396,0.157812,-0.157458,-0.006870,-0.044363,-0.042054,-0.076667,0.055017,-0.020575,1.000000,-0.000034,-0.000222,-0.000210,-0.049783,-0.654734,0.416528,0.628769,109.133703,51.433020,-102.759623
48365,-7.673361,5.560769,-2.130076,0.214219,0.082545,-0.102531,0.006766,-0.044727,-0.037312,-0.076718,0.055623,-0.021316,1.000000,0.000034,-0.000224,-0.000187,-0.049569,-0.654628,0.416476,0.628930,109.108734,51.457046,-102.796581
48366,-7.619675,5.653785,-1.988893,0.041265,0.049786,-0.118553,0.037293,-0.062987,-0.032509,-0.076181,0.056554,-0.019902,1.000000,0.000186,-0.000315,-0.000163,-0.049232,-0.654463,0.416539,0.629086,109.087849,51.482039,-102.850661
48367,-7.462009,5.717366,-2.012198,0.010373,-0.102560,-0.199771,0.029903,-0.065868,-0.032365,-0.074604,0.057189,-0.020138,1.000000,0.000150,-0.000329,-0.000162,-0.048915,-0.654286,0.416581,0.629267,109.060512,51.507323,-102.907611
48368,-7.441730,5.748994,-2.005021,-0.013098,-0.136553,-0.198554,0.044355,-0.052527,-0.034968,-0.074402,0.057507,-0.020057,1.000000,0.000222,-0.000263,-0.000175,-0.048569,-0.654161,0.416656,0.629375,109.051279,51.531666,-102.951938
48369,-7.547657,5.849973,-2.007265,-0.044577,-0.142629,-0.055839,0.017151,-0.043694,-0.026515,-0.075464,0.058511,-0.020084,1.000000,0.000086,-0.000218,-0.000133,-0.048357,-0.654038,0.416671,0.629509,109.030292,51.549616,-102.991426
48370,-7.526453,5.882836,-2.000179,-0.068040,-0.176608,-0.054606,0.013844,-0.039734,-0.019245,-0.075255,0.058837,-0.020013,1.000000,0.000069,-0.000199,-0.000096,-0.048187,-0.653913,0.416698,0.629634,109.008544,51.563036,-103.029390
48371,-7.556670,5.933745,-1.992128,-0.093132,-0.190351,-0.002679,-0.005525,-0.038903,-0.017889,-0.075558,0.059344,-0.019938,1.000000,-0.000028,-0.000195,-0.000089,-0.048086,-0.653781,0.416670,0.629797,108.975771,51.575406,-103.067446
48372,-7.475815,5.902487,-1.923929,-0.145090,-0.190417,-0.098196,-0.011931,-0.041753,-0.016397,-0.074749,0.059030,-0.019258,1.000000,-0.000060,-0.000209,-0.000082,-0.048005,-0.653637,0.416625,0.629982,108.937161,51.587633,-103.108068
48373,-7.542303,5.916195,-1.959071,-0.107920,-0.178488,-0.030962,-0.039786,-0.036967,-0.020585,-0.075413,0.059166,-0.019616,1.000000,-0.000199,-0.000185,-0.000103,-0.048012,-0.653510,0.416479,0.630211,108.886659,51.601077,-103.143486
48374,-7.601193,5.956859,-2.101284,0.008739,-0.238781,0.067627,-0.064905,-0.032040,-0.026801,-0.076001,0.059572,-0.021044,1.000000,-0.000325,-0.000160,-0.000134,-0.048092,-0.653405,0.416231,0.630476,108.826718,51.617102,-103.172584
48375,-7.647512,5.994726,-2.038914,-0.051159,-0.210890,0.113603,-0.073382,-0.028104,-0.032334,-0.076463,0.059952,-0.020422,1.000000,-0.000367,-0.000141,-0.000162,-0.048190,-0.653322,0.415938,0.630749,108.765723,51.635245,-103.196893
48376,-7.591159,5.762145,-2.123448,0.132555,-0.138115,-0.050496,-0.104095,-0.028470,-0.043001,-0.075896,0.057627,-0.021275,1.000000,-0.000520,-0.000142,-0.000215,-0.048354,-0.653253,0.415512,0.631088,108.689465,51.659364,-103.218149
48377,-7.617591,5.588009,-2.111982,0.215952,-0.008931,-0.134501,-0.065491,-0.022552,-0.042017,-0.076162,0.055889,-0.021147,1.000000,-0.000327,-0.000113,-0.000210,-0.048409,-0.653209,0.415211,0.631328,108.638955,51.681696,-103.234654
48378,-7.687715,5.417420,-2.043872,0.253056,0.171047,-0.193253,-0.038245,-0.034992,-0.036862,-0.076864,0.054184,-0.020463,1.000000,-0.000191,-0.000175,-0.000184,-0.048363,-0.653122,0.415014,0.631550,108.594436,51.703648,-103.263532
48379,-7.767853,5.455365,-1.958364,0.174974,0.229866,-0.124949,0.021557,-0.051954,-0.026935,-0.077666,0.054566,-0.019598,1.000000,0.000108,-0.000260,-0.000135,-0.048119,-0.652975,0.415045,0.631701,108.570040,51.723145,-103.310449
48380,-7.674268,5.563413,-1.860681,0.026951,0.144609,-0.154196,0.065456,-0.080775,-0.011721,-0.076732,0.055645,-0.018620,1.000000,0.000327,-0.000404,-0.000059,-0.047720,-0.652716,0.415269,0.631851,108.547542,51.739772,-103.386941
48381,-7.580247,5.603087,-1.758576,-0.092015,0.106403,-0.224803,0.072500,-0.085709,-0.004769,-0.075794,0.056039,-0.017598,1.000000,0.000362,-0.000429,-0.000024,-0.047310,-0.652428,0.415540,0.632002,108.523894,51.753361,-103.469981
48382,-7.649687,5.783298,-1.880138,-0.061465,-0.028023,-0.040554,0.056392,-0.085693,-0.001294,-0.076488,0.057839,-0.018818,1.000000,0.000282,-0.000428,-0.000006,-0.046962,-0.652130,0.415770,0.632184,108.490327,51.765175,-103.553925
48383,-7.617672,5.946450,-1.750324,-0.253647,-0.096557,0.004602,0.045727,-0.097882,-0.014185,-0.076164,0.059474,-0.017527,1.000000,0.000229,-0.000489,-0.000071,-0.046584,-0.651816,0.415929,0.632431,108.445014,51.786020,-103.645059
48384,-7.473409,6.043477,-1.814823,-0.261463,-0.281347,-0.039177,-0.005376,-0.083869,-0.027325,-0.074718,0.060444,-0.018181,1.000000,-0.000027,-0.000419,-0.000137,-0.046360,-0.651563,0.415878,0.632742,108.383186,51.811570,-103.719886
48385,-7.539176,5.825917,-1.920758,-0.049816,-0.155411,-0.094501,-0.058161,-0.047055,-0.036720,-0.075377,0.058267,-0.019242,1.000000,-0.000291,-0.000235,-0.000184,-0.046356,-0.651433,0.415622,0.633044,108.318476,51.835373,-103.759717
48386,-7.757113,5.700195,-1.952804,0.076662,0.036570,0.009290,-0.079328,-0.042091,-0.037463,-0.077556,0.057009,-0.019567,1.000000,-0.000397,-0.000210,-0.000187,-0.046427,-0.651315,0.415295,0.633374,108.245350,51.858823,-103.794978
48387,-7.759868,5.629915,-1.940587,0.106646,0.084147,-0.032149,-0.065401,-0.043225,-0.034789,-0.077585,0.056306,-0.019441,1.000000,-0.000327,-0.000216,-0.000174,-0.046459,-0.651191,0.415021,0.633679,108.178599,51.880845,-103.832233
48388,-7.633685,5.605884,-2.018990,0.173496,-0.017384,-0.130488,-0.065561,-0.046790,-0.027197,-0.076324,0.056063,-0.020226,1.000000,-0.000328,-0.000234,-0.000136,-0.046509,-0.651040,0.414772,0.633993,108.107650,51.899491,-103.874732
48389,-7.446859,5.448218,-2.035001,0.240766,-0.038095,-0.367022,-0.025476,-0.041636,-0.020955,-0.074459,0.054487,-0.020372,1.000000,-0.000127,-0.000208,-0.000105,-0.046457,-0.650901,0.414671,0.634206,108.061656,51.913646,-103.914899
48390,-7.424902,5.223573,-1.757434,0.107520,0.222276,-0.569177,0.058750,-0.036250,-0.005626,-0.074244,0.052243,-0.017572,1.000000,0.000294,-0.000181,-0.000028,-0.046192,-0.650768,0.414884,0.634224,108.064303,51.918632,-103.954370
48391,-7.464907,4.748204,-1.594086,0.199553,0.631376,-0.847593,0.166558,-0.067900,-0.000988,-0.074643,0.047496,-0.015927,1.000000,0.000833,-0.000340,-0.000005,-0.045526,-0.650549,0.415460,0.634119,108.105522,51.926599,-104.023136
48392,-7.874713,4.915585,-1.863305,0.406393,0.642451,-0.375099,0.258043,-0.047910,0.012375,-0.078746,0.049175,-0.018588,0.999999,0.001290,-0.000240,0.000062,-0.044646,-0.650386,0.416365,0.633755,108.210150,51.923908,-104.078107
48393,-8.246598,5.528053,-1.959239,0.238124,0.425570,0.295059,0.302100,-0.057630,0.035608,-0.082470,0.055295,-0.019533,0.999999,0.001510,-0.000288,0.000178,-0.043675,-0.650151,0.417488,0.633325,108.327825,51.910260,-104.148613
48394,-7.890174,6.081026,-1.506461,-0.484750,0.072681,0.250258,0.323901,-0.108083,0.033345,-0.078904,0.060821,-0.015009,0.999999,0.001620,-0.000540,0.000167,-0.042521,-0.649765,0.418681,0.633011,108.423627,51.907164,-104.262756
48395,-7.406865,6.320558,-1.533700,-0.661136,-0.380344,0.014904,0.280080,-0.121223,0.018315,-0.074065,0.063220,-0.015293,0.999999,0.001400,-0.000606,0.000092,-0.041433,-0.649357,0.419690,0.632834,108.488557,51.914614,-104.384374
48396,-7.561050,6.437159,-1.976600,-0.322470,-0.573464,0.290806,0.171519,-0.072977,-0.000134,-0.075603,0.064389,-0.019738,1.000000,0.000858,-0.000365,-0.000001,-0.040742,-0.649118,0.420283,0.632731,108.529122,51.923486,-104.457756
48397,-7.832020,6.730009,-1.958090,-0.444121,-0.592296,0.671568,0.055777,-0.055492,-0.015048,-0.078310,0.067311,-0.019584,1.000000,0.000279,-0.000277,-0.000075,-0.040417,-0.648941,0.420458,0.632817,108.518780,51.937147,-104.511366
48398,-7.577515,6.907734,-1.891243,-0.624594,-0.830368,0.561930,-0.088904,-0.034880,-0.028585,-0.075762,0.069080,-0.018956,1.000000,-0.000445,-0.000174,-0.000143,-0.040560,-0.648829,0.420126,0.633143,108.443119,51.954539,-104.542831
48399,-7.126136,6.564177,-1.658708,-0.711197,-0.773965,-0.039423,-0.289130,0.007066,-0.039977,-0.071249,0.065632,-0.016679,0.999999,-0.001446,0.000035,-0.000200,-0.041405,-0.648831,0.419117,0.633755,108.284321,51.970387,-104.534316
48400,-7.165653,5.084704,-1.301199,-0.270920,0.366151,-0.942150,-0.213967,-0.022873,-0.069968,-0.071637,0.050858,-0.013075,0.999999,-0.001070,-0.000114,-0.000350,-0.041848,-0.648817,0.418252,0.634311,108.154710,52.008061,-104.543291
48401,-7.596631,4.418847,-1.766297,0.527240,0.823345,-0.902080,-0.128479,-0.003626,-0.095860,-0.075945,0.044214,-0.017693,1.000000,-0.000642,-0.000018,-0.000479,-0.041973,-0.648934,0.417571,0.634632,108.093139,52.056218,-104.528018
48402,-8.378598,4.530264,-2.238393,1.001499,0.985678,-0.129711,-0.097460,0.005748,-0.059448,-0.083773,0.045317,-0.022404,1.000000,-0.000487,0.000029,-0.000297,-0.042132,-0.649012,0.417104,0.634849,108.047741,52.083060,-104.514847
48403,-8.511067,5.312622,-1.699511,0.180257,0.808896,0.329489,0.053212,-0.082716,-0.007935,-0.085102,0.053134,-0.017016,1.000000,0.000266,-0.000414,-0.000040,-0.041781,-0.648732,0.417301,0.635028,108.014869,52.097395,-104.595162
48404,-7.818318,6.014680,-1.610505,-0.340359,-0.019602,0.176305,0.071342,-0.164986,0.018211,-0.078175,0.060145,-0.016148,1.000000,0.000357,-0.000825,0.000091,-0.041282,-0.648141,0.417657,0.635430,107.928954,52.112110,-104.755902
48405,-7.314600,6.249775,-1.957389,-0.228609,-0.640903,-0.018230,0.081119,-0.176661,0.021462,-0.073135,0.062498,-0.019613,1.000000,0.000406,-0.000883,0.000107,-0.040738,-0.647507,0.418057,0.635849,107.839454,52.126825,-104.928249
48406,-7.465720,6.519668,-2.249876,-0.079758,-0.870146,0.313589,0.073144,-0.142068,0.015154,-0.074646,0.065199,-0.022528,1.000000,0.000366,-0.000710,0.000076,-0.040271,-0.646995,0.418403,0.636172,107.771156,52.138906,-105.067919
48407,-7.610359,6.963556,-2.319320,-0.208001,-1.108242,0.699993,-0.013956,-0.091305,0.013582,-0.076098,0.069629,-0.023233,1.000000,-0.000070,-0.000457,0.000068,-0.040187,-0.646628,0.418458,0.636514,107.688742,52.142743,-105.162306
48408,-7.448119,6.950863,-2.078644,-0.421901,-1.083672,0.519658,-0.160128,-0.051745,0.018036,-0.074482,0.069485,-0.020861,1.000000,-0.000801,-0.000259,0.000090,-0.040673,-0.646349,0.418053,0.637033,107.549517,52.137307,-105.222511
48409,-7.093724,6.427257,-1.300961,-0.868739,-0.587740,-0.209415,-0.370861,-0.045033,0.002922,-0.070935,0.064247,-0.013145,0.999998,-0.001854,-0.000225,0.000015,-0.041807,-0.646078,0.416926,0.637972,107.297465,52.138672,-105.272585
48410,-7.079572,3.794555,-0.834420,0.023637,1.324997,-1.846568,-0.099202,-0.125666,-0.078219,-0.070776,0.037969,-0.008408,1.000000,-0.000496,-0.000628,-0.000391,-0.041635,-0.645776,0.416418,0.638620,107.162092,52.198205,-105.372087
48411,-7.647897,3.897983,-1.879690,0.968396,1.082496,-1.146187,-0.070188,-0.030248,-0.143879,-0.076448,0.039028,-0.018822,1.000000,-0.000351,-0.000151,-0.000719,-0.041359,-0.645919,0.415773,0.638914,107.124605,52.277311,-105.368709
48412,-8.721346,4.462958,-2.982764,1.817918,0.814098,0.232669,-0.188522,0.074981,-0.076362,-0.087208,0.044635,-0.029837,0.999999,-0.000943,0.000375,-0.000382,-0.041899,-0.646234,0.414944,0.639099,107.079248,52.301884,-105.289574
48413,-8.774119,5.931400,-1.794484,0.101262,0.452494,0.919127,-0.070512,-0.056173,0.036688,-0.087747,0.059292,-0.017990,1.000000,-0.000353,-0.000281,0.000183,-0.042149,-0.645920,0.414884,0.639439,106.983850,52.286471,-105.358910
48414,-7.619878,6.496740,-1.072164,-0.966574,-0.253099,0.208359,0.064982,-0.230940,0.089437,-0.076215,0.064937,-0.010789,0.999999,0.000325,-0.001155,0.000447,-0.041765,-0.644966,0.415465,0.640050,106.831072,52.271295,-105.599193
48415,-6.899714,6.226867,-1.593574,-0.494632,-0.750754,-0.425936,0.163975,-0.231379,0.076584,-0.069003,0.062255,-0.015965,0.999999,0.000820,-0.001157,0.000383,-0.041020,-0.644055,0.416321,0.640459,106.737420,52.262787,-105.836477
48416,-7.449785,5.768803,-2.384667,0.499182,-0.508081,-0.119510,0.271169,-0.124358,0.052899,-0.074498,0.057701,-0.023815,0.999999,0.001356,-0.000622,0.000264,-0.040077,-0.643557,0.417420,0.640303,106.786318,52.249670,-105.971189
48417,-8.075815,6.152238,-2.276962,0.317184,-0.331558,0.581678,0.341630,-0.087494,0.068977,-0.080769,0.061533,-0.022700,0.999998,0.001708,-0.000437,0.000345,-0.039035,-0.643156,0.418789,0.639877,106.898157,52.221587,-106.077411
48418,-7.840238,6.806755,-1.912187,-0.362165,-0.707476,0.714706,0.235110,-0.105077,0.104928,-0.078428,0.068049,-0.019083,0.999999,0.001176,-0.000525,0.000525,-0.038414,-0.642601,0.419935,0.639721,106.929014,52.176954,-106.208912
48419,-7.382944,6.947940,-1.546374,-0.819511,-0.880123,0.371947,0.089797,-0.122944,0.125964,-0.073864,0.069440,-0.015478,1.000000,0.000449,-0.000615,0.000630,-0.038290,-0.641916,0.420686,0.639923,106.859572,52.123575,-106.362059
48420,-7.257938,6.487601,-1.558303,-0.592588,-0.657368,0.006254,-0.057304,-0.108483,0.111550,-0.072607,0.064831,-0.015641,1.000000,-0.000287,-0.000542,0.000558,-0.038622,-0.641279,0.420917,0.640390,106.719577,52.075698,-106.497933
48421,-7.422221,5.749162,-1.786055,0.008399,-0.194333,-0.257879,-0.122213,-0.059383,0.079700,-0.074240,0.057451,-0.017918,1.000000,-0.000611,-0.000297,0.000399,-0.039164,-0.640852,0.420829,0.640842,106.583824,52.036848,-106.581251
48422,-7.625347,5.216892,-1.809367,0.337693,0.258644,-0.407649,-0.139092,-0.007503,0.057004,-0.076268,0.052135,-0.018133,1.000000,-0.000695,-0.000038,0.000285,-0.039796,-0.640637,0.420602,0.641167,106.479986,52.002095,-106.611950
48423,-7.777573,4.931555,-1.767952,0.479657,0.554499,-0.463945,-0.166538,0.001756,0.042894,-0.077786,0.049284,-0.017720,1.000000,-0.000833,0.000009,0.000214,-0.040491,-0.640474,0.420241,0.641522,106.369834,51.973393,-106.630666
48424,-7.681295,4.905190,-1.731869,0.455241,0.534247,-0.562288,-0.156054,0.010719,0.040257,-0.076824,0.049023,-0.017353,1.000000,-0.000780,0.000054,0.000201,-0.041161,-0.640348,0.419903,0.641827,106.272746,51.944845,-106.640480
48425,-7.552169,4.967043,-1.912542,0.565204,0.334833,-0.596777,-0.145922,0.080335,0.054095,-0.075543,0.049636,-0.019131,1.000000,-0.000730,0.000402,0.000270,-0.041992,-0.640417,0.419626,0.641885,106.227419,51.897343,-106.591694
48426,-7.860812,5.041989,-1.701675,0.406109,0.580628,-0.346555,-0.055830,0.104125,0.087018,-0.078639,0.050381,-0.016990,1.000000,-0.000279,0.000521,0.000435,-0.042688,-0.640513,0.419739,0.641670,106.243739,51.828099,-106.530343
48427,-8.065142,5.083028,-1.498729,0.249725,0.785727,-0.197588,0.048396,0.033297,0.119727,-0.080684,0.050786,-0.014962,1.000000,0.000242,0.000166,0.000599,-0.043007,-0.640334,0.420306,0.641455,106.263345,51.752054,-106.540581
48428,-7.964291,5.196680,-1.485163,0.167301,0.671851,-0.212597,0.147244,-0.031514,0.133376,-0.079675,0.051925,-0.014826,0.999999,0.000736,-0.000158,0.000667,-0.042917,-0.639940,0.421248,0.641237,106.291755,51.679069,-106.611935
48429,-7.735794,5.526554,-1.577616,0.048678,0.291652,-0.180100,0.189308,-0.085979,0.146309,-0.077392,0.055224,-0.015757,0.999999,0.000947,-0.000430,0.000732,-0.042619,-0.639352,0.422376,0.641101,106.303781,51.607616,-106.734846
48430,-7.514642,5.906455,-1.461583,-0.272330,-0.014020,-0.147393,0.197829,-0.083343,0.147504,-0.075184,0.059024,-0.014589,0.999999,0.000989,-0.000417,0.000738,-0.042303,-0.638771,0.423535,0.640937,106.322617,51.535231,-106.855559
48431,-7.654269,6.365376,-1.236226,-0.660517,-0.102789,0.196671,0.188192,-0.139076,0.109534,-0.076569,0.063623,-0.012356,0.999999,0.000941,-0.000695,0.000548,-0.041777,-0.638087,0.424553,0.640979,106.305155,51.492575,-107.015752
48432,-7.549517,6.776185,-1.344660,-0.779558,-0.476174,0.379738,0.032753,-0.173280,0.058287,-0.075503,0.067742,-0.013501,1.000000,0.000164,-0.000866,0.000291,-0.041511,-0.637370,0.424916,0.641469,106.185601,51.483593,-107.192593
48433,-7.486972,6.817844,-1.280807,-0.851018,-0.512067,0.345647,-0.143423,-0.101757,0.016604,-0.074869,0.068163,-0.012895,1.000000,-0.000717,-0.000509,0.000083,-0.041825,-0.636934,0.424565,0.642114,106.022798,51.485781,-107.295618
48434,-7.386872,6.544115,-1.245016,-0.746077,-0.388465,0.098609,-0.353066,-0.036072,-0.018380,-0.073860,0.065426,-0.012579,0.999998,-0.001765,-0.000180,-0.000092,-0.042832,-0.636738,0.423415,0.643001,105.792388,51.496848,-107.331620
48435,-7.282825,5.853715,-1.206406,-0.439217,-0.004144,-0.401634,-0.515483,0.014692,-0.068595,-0.072809,0.058531,-0.012210,0.999997,-0.002577,0.000073,-0.000343,-0.044304,-0.636772,0.421571,0.644078,105.513650,51.527508,-107.310426
48436,-7.373469,5.222574,-1.301595,-0.015575,0.392692,-0.692217,-0.510725,0.046606,-0.112358,-0.073708,0.052234,-0.013132,0.999997,-0.002554,0.000233,-0.000562,-0.045686,-0.637000,0.419592,0.645048,105.268248,51.577714,-107.250200
48437,-7.561155,5.216371,-1.631232,0.325743,0.332943,-0.494668,-0.568025,0.047974,-0.142224,-0.075578,0.052171,-0.016442,0.999996,-0.002840,0.000240,-0.000711,-0.047156,-0.637275,0.417331,0.646136,104.996245,51.644264,-107.182063
48438,-7.710824,5.283491,-1.920041,0.590119,0.224305,-0.291130,-0.492558,0.063996,-0.141423,-0.077077,0.052842,-0.019306,0.999997,-0.002463,0.000320,-0.000707,-0.048422,-0.637615,0.415308,0.647010,104.778497,51.708331,-107.099959
48439,-7.840868,5.773955,-1.746970,0.250333,0.050709,0.076923,-0.364147,0.045760,-0.125165,-0.078377,0.057757,-0.017557,0.999998,-0.001821,0.000229,-0.000626,-0.049293,-0.637888,0.413755,0.647669,104.618209,51.766063,-107.038350
48440,-7.820885,6.008979,-1.464484,-0.092678,0.005245,0.157776,-0.328809,-0.001962,-0.095490,-0.078180,0.060103,-0.014744,0.999999,-0.001644,-0.000010,-0.000477,-0.050048,-0.637954,0.412421,0.648397,104.439176,51.814452,-107.026505
48441,-7.764099,6.065185,-1.303696,-0.251338,-0.003331,0.122306,-0.271814,-0.072388,-0.068382,-0.077616,0.060661,-0.013147,0.999999,-0.001359,-0.000362,-0.000342,-0.050565,-0.637746,0.411376,0.649225,104.237812,51.857666,-107.084656
48442,-7.669746,6.013137,-1.269145,-0.254706,-0.021873,0.012186,-0.241068,-0.124578,-0.034007,-0.076679,0.060129,-0.012812,0.999999,-0.001205,-0.000623,-0.000170,-0.050986,-0.637306,0.410552,0.650145,104.010884,51.889088,-107.197616
48443,-7.713598,5.914662,-1.557761,0.070169,-0.077778,0.031013,-0.155833,-0.157134,-0.008077,-0.077121,0.059138,-0.015684,0.999999,-0.000779,-0.000786,-0.000040,-0.051155,-0.636727,0.410096,0.650986,103.804745,51.910187,-107.346117
48444,-7.740438,5.895235,-1.635413,0.168252,-0.093465,0.051677,0.022807,-0.197657,0.026750,-0.077396,0.058944,-0.016424,0.999999,0.000114,-0.000988,0.000134,-0.050784,-0.635991,0.410341,0.651581,103.666163,51.917260,-107.538859
48445,-7.884915,6.196944,-1.477373,-0.067687,-0.137144,0.323053,0.157180,-0.256141,0.057390,-0.078848,0.061958,-0.014826,0.999999,0.000786,-0.001281,0.000287,-0.049966,-0.635032,0.411137,0.652077,103.557545,51.914748,-107.791408
48446,-8.011266,6.350431,-1.184795,-0.356279,-0.027598,0.472467,0.226418,-0.323611,0.084397,-0.080120,0.063484,-0.011906,0.999998,0.001132,-0.001618,0.000422,-0.048877,-0.633815,0.412259,0.652635,103.436239,51.906053,-108.110431
48447,-8.083995,6.453960,-0.890415,-0.629126,0.084939,0.550438,0.233132,-0.406888,0.085188,-0.080849,0.064516,-0.008993,0.999997,0.001166,-0.002034,0.000426,-0.047597,-0.632321,0.413424,0.653441,103.259333,51.907290,-108.505054
48448,-7.951047,6.638948,-0.701794,-0.882533,-0.028492,0.531759,0.192926,-0.452592,0.069351,-0.079517,0.066369,-0.007134,0.999997,0.000965,-0.002263,0.000347,-0.046298,-0.630699,0.414415,0.654473,103.029543,51.922585,-108.937507
48449,-7.804511,6.634252,-0.851485,-0.753898,-0.192274,0.436376,0.054355,-0.438672,0.064695,-0.078048,0.066320,-0.008668,0.999998,0.000272,-0.002193,0.000323,-0.045450,-0.629095,0.414933,0.655747,102.730570,51.937323,-109.356794
48450,-7.702897,6.542455,-1.020861,-0.555085,-0.285596,0.325889,-0.022771,-0.415565,0.066293,-0.077029,0.065398,-0.010376,0.999998,-0.000114,-0.002078,0.000331,-0.044897,-0.627544,0.415195,0.657103,102.403616,51.947022,-109.755530
48451,-7.634958,6.458085,-1.055733,-0.468064,-0.298763,0.227510,-0.027506,-0.402843,0.074379,-0.076352,0.064551,-0.010720,0.999998,-0.000138,-0.002014,0.000372,-0.044413,-0.626014,0.415463,0.658426,102.081430,51.949082,-110.144560
48452,-7.436693,6.365857,-0.900521,-0.569827,-0.287505,-0.002895,-0.045711,-0.378474,0.080440,-0.074375,0.063627,-0.009160,0.999998,-0.000229,-0.001892,0.000402,-0.044055,-0.624545,0.415682,0.659705,101.765589,51.943698,-110.512469
48453,-7.342996,6.459991,-0.836955,-0.659181,-0.379481,-0.026320,-0.065329,-0.298033,0.080511,-0.073443,0.064568,-0.008500,0.999999,-0.000327,-0.001490,0.000403,-0.043926,-0.623333,0.415819,0.660773,101.496065,51.927640,-110.807297
48454,-7.343762,6.450325,-0.795124,-0.664993,-0.357162,-0.035166,-0.091865,-0.223079,0.085812,-0.073456,0.064468,-0.008063,0.999999,-0.000459,-0.001115,0.000429,-0.044052,-0.622353,0.415866,0.661658,101.264797,51.899522,-111.034322
48455,-7.312099,6.469615,-0.892405,-0.573475,-0.438379,-0.035265,-0.138555,-0.151002,0.099630,-0.073146,0.064653,-0.009024,0.999999,-0.000693,-0.000755,0.000498,-0.044521,-0.621569,0.415786,0.662413,101.056574,51.854924,-111.198012
48456,-7.459275,6.268107,-0.968616,-0.359505,-0.260328,-0.031527,-0.167792,-0.117248,0.111080,-0.074622,0.062631,-0.009782,0.999999,-0.000839,-0.000586,0.000555,-0.045187,-0.620868,0.415636,0.663120,100.854852,51.800030,-111.332386
48457,-7.547972,6.014470,-1.079071,-0.101924,-0.099455,-0.102396,-0.276491,-0.130874,0.113153,-0.075507,0.060087,-0.010923,0.999999,-0.001382,-0.000654,0.000566,-0.046171,-0.620089,0.415134,0.664094,100.581052,51.744858,-111.479139
48458,-7.541247,5.536598,-1.172806,0.223535,0.158841,-0.388011,-0.324195,-0.104684,0.086857,-0.075430,0.055314,-0.011857,0.999998,-0.001621,-0.000523,0.000434,-0.047267,-0.619441,0.414385,0.665089,100.302899,51.701566,-111.596914
48459,-7.550248,5.332335,-1.319372,0.471150,0.221334,-0.490147,-0.366833,-0.048102,0.050299,-0.075513,0.053280,-0.013310,0.999998,-0.001834,-0.000241,0.000251,-0.048493,-0.619043,0.413367,0.666004,100.045498,51.672614,-111.657029
48460,-7.675273,5.146841,-1.407361,0.681829,0.366500,-0.497045,-0.414052,0.014284,-0.005711,-0.076752,0.051441,-0.014175,0.999998,-0.002070,0.000071,-0.000029,-0.049806,-0.618956,0.412001,0.666834,99.813025,51.669160,-111.651028
48461,-7.755469,5.051439,-1.259434,0.634572,0.539445,-0.509097,-0.419482,-0.002352,-0.046382,-0.077543,0.050506,-0.012701,0.999998,-0.002097,-0.000012,-0.000232,-0.050967,-0.618893,0.410493,0.667735,99.570286,51.690111,-111.653924
48462,-7.557764,5.064501,-1.352019,0.683574,0.360575,-0.647559,-0.423374,-0.014083,-0.077172,-0.075557,0.050645,-0.013633,0.999998,-0.002117,-0.000070,-0.000386,-0.052011,-0.618850,0.408878,0.668684,99.320717,51.729745,-111.662903
48463,-7.413774,4.990197,-1.438554,0.774898,0.272211,-0.798201,-0.360470,0.008874,-0.109551,-0.074111,0.049917,-0.014472,0.999998,-0.001802,0.000044,-0.000548,-0.052801,-0.618964,0.407366,0.669439,99.127012,51.785399,-111.646504
48464,-7.490220,4.861584,-1.667358,1.058289,0.279314,-0.794901,-0.250976,0.003169,-0.118636,-0.074874,0.048639,-0.016733,0.999999,-0.001255,0.000016,-0.000593,-0.053208,-0.619105,0.406192,0.669990,98.993023,51.846899,-111.634093
48465,-7.550135,4.663796,-1.756315,1.238813,0.391207,-0.859897,-0.034378,-0.039596,-0.122599,-0.075469,0.046681,-0.017586,1.000000,-0.000172,-0.000198,-0.000613,-0.052845,-0.619167,0.405743,0.670233,98.952456,51.914308,-111.660584
48466,-7.525323,4.676002,-1.447336,0.954799,0.506345,-0.900773,0.113448,-0.050785,-0.120413,-0.075221,0.046814,-0.014466,1.000000,0.000567,-0.000254,-0.000602,-0.052009,-0.619226,0.405798,0.670210,98.988382,51.981646,-111.697574
48467,-7.584242,4.783959,-1.551300,1.005059,0.408248,-0.777385,0.153591,-0.070800,-0.128708,-0.075806,0.047900,-0.015503,0.999999,0.000768,-0.000354,-0.000644,-0.050980,-0.619245,0.405968,0.670170,99.033592,52.055349,-111.751819
48468,-7.578616,4.996594,-1.502504,0.859914,0.276171,-0.656097,0.237103,-0.104420,-0.128777,-0.075746,0.050033,-0.015005,0.999999,0.001186,-0.000522,-0.000644,-0.049624,-0.619172,0.406424,0.670062,99.102359,52.132301,-111.836909
48469,-7.568622,5.434852,-1.370119,0.540848,0.031638,-0.410276,0.263084,-0.142487,-0.132078,-0.075641,0.054416,-0.013684,0.999999,0.001315,-0.000712,-0.000660,-0.048099,-0.618982,0.406967,0.670019,99.158467,52.214519,-111.956715
48470,-7.387068,5.732711,-1.340383,0.330921,-0.266283,-0.376113,0.259569,-0.112078,-0.139552,-0.073823,0.057396,-0.013371,0.999999,0.001298,-0.000560,-0.000698,-0.046621,-0.618908,0.407465,0.669889,99.235614,52.298384,-112.047297
48471,-7.350518,5.878124,-1.220057,0.138757,-0.333596,-0.328995,0.232840,-0.021964,-0.138640,-0.073463,0.058846,-0.012140,0.999999,0.001164,-0.000110,-0.000693,-0.045413,-0.619126,0.407856,0.669533,99.363254,52.373379,-112.054624
48472,-7.572704,6.038560,-1.176672,0.064177,-0.300804,-0.060766,0.188387,-0.015692,-0.149761,-0.075681,0.060453,-0.011716,0.999999,0.000942,-0.000078,-0.000749,-0.044318,-0.619377,0.408061,0.669250,99.471652,52.454191,-112.054111
48473,-7.630158,6.024625,-1.192918,0.085281,-0.278051,-0.022189,0.049503,-0.020126,-0.166704,-0.076250,0.060313,-0.011922,1.000000,0.000248,-0.000101,-0.000834,-0.043588,-0.619615,0.407749,0.669266,99.499341,52.544874,-112.054944
48474,-7.652252,5.784388,-1.244077,0.232214,-0.144965,-0.143724,0.016578,0.027031,-0.193068,-0.076468,0.057919,-0.012426,1.000000,0.000083,0.000135,-0.000965,-0.042966,-0.620058,0.407235,0.669209,99.546436,52.646107,-112.007683
48475,-7.766476,5.837530,-1.238081,0.216650,-0.126619,-0.021633,0.028456,0.061295,-0.201808,-0.077610,0.058455,-0.012349,0.999999,0.000142,0.000306,-0.001009,-0.042349,-0.620635,0.406726,0.669023,99.627063,52.748856,-111.926859
48476,-7.727913,5.976853,-1.255744,0.146274,-0.263127,0.032598,0.025925,0.063854,-0.209099,-0.077221,0.059851,-0.012525,0.999999,0.000130,0.000319,-0.001045,-0.041720,-0.621235,0.406185,0.668835,99.709569,52.855527,-111.841995
48477,-7.569690,6.156572,-1.141717,-0.082846,-0.429105,0.001388,-0.005452,0.084342,-0.206104,-0.075638,0.061643,-0.011387,0.999999,-0.000027,0.000422,-0.001031,-0.041241,-0.621890,0.405543,0.668646,99.789413,52.958318,-111.737975
48478,-7.600889,6.230629,-1.063837,-0.187860,-0.436552,0.061527,-0.099655,0.098570,-0.193377,-0.075954,0.062374,-0.010632,0.999999,-0.000498,0.000493,-0.000967,-0.041126,-0.622546,0.404622,0.668600,99.824789,53.052600,-111.622261
48479,-7.608810,6.196918,-1.185408,-0.071894,-0.483509,0.059597,-0.190963,0.109479,-0.186054,-0.076037,0.062029,-0.011872,0.999999,-0.000955,0.000547,-0.000930,-0.041342,-0.623204,0.403417,0.668702,99.815379,53.141526,-111.497204
48480,-7.689658,5.959992,-1.175108,0.039385,-0.288162,-0.017350,-0.192438,0.115486,-0.169886,-0.076853,0.059654,-0.011764,0.999999,-0.000962,0.000577,-0.000849,-0.041627,-0.623848,0.402254,0.668784,99.807889,53.220889,-111.368895
48481,-7.757337,5.929579,-1.240906,0.119729,-0.272800,0.025365,-0.115114,0.113560,-0.143533,-0.077538,0.059344,-0.012399,0.999999,-0.000576,0.000568,-0.000718,-0.041757,-0.624448,0.401433,0.668709,99.840041,53.285395,-111.246481
48482,-7.787832,6.028825,-1.039809,-0.100264,-0.232610,0.087519,-0.038716,0.098520,-0.113985,-0.077849,0.060331,-0.010371,1.000000,-0.000194,0.000493,-0.000570,-0.041716,-0.624954,0.400962,0.668522,99.900999,53.334790,-111.142866
48483,-7.760513,6.024116,-0.967303,-0.175328,-0.213943,0.055175,0.001399,0.074733,-0.080198,-0.077585,0.060272,-0.009644,1.000000,0.000007,0.000374,-0.000401,-0.041616,-0.625320,0.400735,0.668322,99.962557,53.367244,-111.067132
48484,-7.775756,6.037213,-0.922736,-0.223471,-0.194830,0.070321,-0.006619,0.070541,-0.053373,-0.077745,0.060393,-0.009202,1.000000,-0.000033,0.000353,-0.000267,-0.041621,-0.625618,0.400566,0.668144,100.012898,53.385091,-110.999748
48485,-7.731568,6.067142,-1.024026,-0.163372,-0.288861,0.062831,-0.023854,0.079979,-0.034652,-0.077309,0.060684,-0.010217,1.000000,-0.000119,0.000400,-0.000173,-0.041762,-0.625905,0.400397,0.667968,100.058009,53.391237,-110.926547
48486,-7.815525,6.081507,-0.996687,-0.181174,-0.236496,0.135769,0.014154,0.090717,-0.013452,-0.078156,0.060821,-0.009927,1.000000,0.000071,0.000454,-0.000067,-0.041875,-0.626194,0.400418,0.667678,100.130243,53.384464,-110.846728
48487,-7.886034,6.079080,-1.021815,-0.149862,-0.202604,0.193578,0.020267,0.104346,0.008621,-0.078868,0.060788,-0.010171,1.000000,0.000101,0.000522,0.000043,-0.042072,-0.626485,0.400526,0.667327,100.213209,53.363625,-110.757790
48488,-7.886420,6.028996,-1.013675,-0.141173,-0.157002,0.163653,0.018187,0.119119,0.030406,-0.078879,0.060279,-0.010084,1.000000,0.000091,0.000596,0.000152,-0.042377,-0.626781,0.400691,0.666930,100.303135,53.329091,-110.658755
48489,-7.905672,6.156278,-0.836430,-0.354354,-0.138351,0.234915,0.059103,0.077418,0.031917,-0.079070,0.061553,-0.008316,1.000000,0.000296,0.000387,0.000160,-0.042475,-0.626943,0.401007,0.666582,100.384523,53.297731,-110.599493
48490,-7.661145,6.147718,-0.804444,-0.433448,-0.246974,0.030373,-0.014315,0.069505,0.031139,-0.076624,0.061465,-0.008022,1.000000,-0.000072,0.000348,0.000156,-0.042784,-0.627066,0.401077,0.666405,100.417938,53.267768,-110.547642
48491,-7.659841,6.029964,-0.788858,-0.395855,-0.154788,-0.041543,-0.071701,0.111657,0.029769,-0.076612,0.060285,-0.007867,1.000000,-0.000359,0.000558,0.000149,-0.043355,-0.627318,0.400943,0.666211,100.450327,53.234003,-110.455935
48492,-7.760489,5.870740,-0.974187,-0.143596,-0.073404,-0.034456,-0.068440,0.113452,0.032946,-0.077620,0.058691,-0.009718,1.000000,-0.000342,0.000567,0.000165,-0.043928,-0.627571,0.400828,0.666004,100.485450,53.198411,-110.363186
48493,-7.820194,5.874471,-0.925815,-0.178164,-0.010371,0.010251,-0.005084,0.136411,0.053339,-0.078224,0.058724,-0.009206,1.000000,-0.000025,0.000682,0.000267,-0.044418,-0.627873,0.400984,0.665593,100.571039,53.148681,-110.252559
48494,-7.853636,5.814106,-0.766779,-0.287775,0.137361,-0.016276,-0.010656,0.144471,0.082295,-0.078566,0.058108,-0.007614,1.000000,-0.000053,0.000722,0.000411,-0.045036,-0.628142,0.401210,0.665162,100.655217,53.081883,-110.139751
48495,-7.739564,5.930613,-0.611300,-0.502528,0.082129,-0.056283,-0.000032,0.129246,0.087752,-0.077426,0.059272,-0.006063,1.000000,-0.000000,0.000646,0.000439,-0.045609,-0.628351,0.401491,0.664755,100.732870,53.013348,-110.042526
48496,-7.564773,5.928858,-0.379695,-0.738990,0.105242,-0.222894,-0.174187,0.131173,0.073624,-0.075672,0.059257,-0.003799,0.999999,-0.000871,0.000656,0.000368,-0.046686,-0.628556,0.401149,0.664694,100.714045,52.952719,-109.941176
48497,-7.471758,5.614073,-0.915595,-0.141534,0.015572,-0.423171,-0.397554,0.161859,0.048147,-0.074739,0.056104,-0.009207,0.999998,-0.001988,0.000809,0.000241,-0.048442,-0.628858,0.399975,0.664989,100.593485,52.903063,-109.806728
48498,-7.598736,5.128551,-1.254309,0.403885,0.260595,-0.572283,-0.390595,0.236657,0.019704,-0.076007,0.051254,-0.012553,0.999997,-0.001953,0.001183,0.000099,-0.050230,-0.629466,0.398715,0.665038,100.536587,52.861892,-109.597494
48499,-7.924049,4.796515,-1.425741,0.763931,0.598225,-0.491294,-0.210396,0.275769,-0.009462,-0.079258,0.047954,-0.014199,0.999998,-0.001052,0.001379,-0.000047,-0.051433,-0.630303,0.397952,0.664610,100.615712,52.832836,-109.346951
48500,-8.068213,5.069793,-1.479994,0.710163,0.479231,-0.207730,-0.028110,0.250022,-0.030859,-0.080693,0.050708,-0.014706,0.999999,-0.000141,0.001250,-0.000154,-0.051938,-0.631144,0.397732,0.663904,100.783047,52.818414,-109.116797
48501,-7.836673,5.125808,-1.315437,0.480214,0.393363,-0.376992,0.024431,0.194555,-0.025551,-0.078373,0.051270,-0.013072,1.000000,0.000122,0.000973,-0.000128,-0.052185,-0.631803,0.397717,0.663267,100.938345,52.806436,-108.939411
48502,-7.526910,5.461708,-0.989873,-0.027635,0.146469,-0.461632,0.098812,0.171795,-0.014594,-0.075274,0.054627,-0.009807,1.000000,0.000494,0.000859,-0.000073,-0.052187,-0.632383,0.397989,0.662550,101.117805,52.790643,-108.785251
48503,-7.484456,5.547536,-0.979253,-0.097086,0.076822,-0.445947,0.045426,0.176149,-0.010407,-0.074850,0.055481,-0.009714,1.000000,0.000227,0.000881,-0.000052,-0.052381,-0.632955,0.398097,0.661924,101.269058,52.771602,-108.628025
48504,-7.621975,5.594409,-1.049033,-0.042980,0.099037,-0.300552,0.064592,0.159565,-0.017418,-0.076223,0.055954,-0.010411,1.000000,0.000323,0.000798,-0.000087,-0.052458,-0.633491,0.398249,0.661313,101.420024,52.758260,-108.484958
48505,-7.863877,5.448888,-1.091175,0.089430,0.323742,-0.189342,0.111576,0.136340,-0.022650,-0.078640,0.054504,-0.010828,1.000000,0.000558,0.000682,-0.000113,-0.052323,-0.633971,0.398546,0.660684,101.581346,52.750114,-108.362620
48506,-7.964696,5.392607,-1.010747,0.044942,0.462972,-0.152366,0.246403,0.094823,-0.036753,-0.079642,0.053953,-0.010003,0.999999,0.001232,0.000474,-0.000184,-0.051630,-0.634378,0.399254,0.659920,101.791500,52.754618,-108.276038
48507,-7.868167,5.536845,-1.416066,0.301454,0.127420,-0.093489,0.171883,0.081802,-0.048286,-0.078674,0.055400,-0.014081,1.000000,0.000859,0.000409,-0.000241,-0.051111,-0.634745,0.399683,0.659349,101.951079,52.766830,-108.199265
48508,-7.701304,5.638493,-1.319520,0.121979,0.009781,-0.177917,0.230419,0.085220,-0.077320,-0.076997,0.056430,-0.013097,0.999999,0.001152,0.000426,-0.000387,-0.050316,-0.635195,0.400210,0.658656,102.151487,52.794879,-108.113453
48509,-7.547699,5.830873,-0.996508,-0.295104,-0.057226,-0.227831,0.179800,0.095378,-0.083745,-0.075457,0.058349,-0.009877,0.999999,0.000899,0.000477,-0.000419,-0.049682,-0.635678,0.400548,0.658033,102.331513,52.824996,-108.016712
48510,-7.555523,5.745297,-1.369316,0.054054,-0.167155,-0.224230,0.089000,0.117851,-0.078459,-0.075541,0.057489,-0.013623,1.000000,0.000445,0.000589,-0.000392,-0.049398,-0.636201,0.400597,0.657518,102.475533,52.849347,-107.900046
48511,-7.698623,5.807770,-1.244553,-0.072548,-0.067909,-0.089622,0.130468,0.113569,-0.070953,-0.076973,0.058113,-0.012364,1.000000,0.000652,0.000568,-0.000355,-0.048999,-0.636704,0.400808,0.656932,102.638967,52.869698,-107.788735
48512,-7.709491,5.713123,-1.312721,0.016435,-0.028332,-0.127742,0.080667,0.095934,-0.066691,-0.077082,0.057162,-0.013067,1.000000,0.000403,0.000480,-0.000333,-0.048736,-0.637129,0.400872,0.656500,102.760377,52.889868,-107.694503
48513,-7.790092,5.636154,-1.309677,0.048911,0.072198,-0.109111,0.127890,0.093186,-0.066088,-0.077888,0.056396,-0.013024,1.000000,0.000639,0.000466,-0.000330,-0.048321,-0.637555,0.401094,0.655982,102.906715,52.909780,-107.602738
48514,-7.866150,5.711107,-1.434826,0.124129,0.008749,0.012601,0.105560,0.094677,-0.057978,-0.078652,0.057141,-0.014281,1.000000,0.000528,0.000473,-0.000290,-0.048004,-0.637963,0.401268,0.655502,103.040206,52.924974,-107.511288
48515,-7.814979,5.808141,-1.473963,0.089266,-0.102674,0.034262,0.198871,0.074870,-0.069614,-0.078135,0.058123,-0.014653,0.999999,0.000994,0.000374,-0.000348,-0.047314,-0.638352,0.401715,0.654899,103.214530,52.948955,-107.435522
48516,-7.687654,6.043429,-0.980275,-0.491802,-0.103128,0.002172,0.266625,0.057690,-0.091820,-0.076852,0.060483,-0.009700,0.999999,0.001333,0.000288,-0.000459,-0.046299,-0.638744,0.402316,0.654220,103.419144,52.987569,-107.370640
