// General information: 
//  MT Manager version: 2022.0.0 
//  XDA version: 2022.0.0 build 7085 rev 119802 built on 2022-11-08
// Device information: 
//  DeviceId: 00B4737C
//  ProductCode: MTW2-3A7G6
//  Firmware Version: 4.14.0
//  Hardware Version: 2.0.0
// Device settings: 
//  Filter Profile: human(46.1)
//  Option Flags: Orientation Smoother Disabled, Position/Velocity Smoother Disabled, Continuous Zero Rotation Update Disabled, AHS Disabled, ICC Disabled
// Coordinate system: ENU
PacketCounter,Acc_X,Acc_Y,Acc_Z,FreeAcc_E,FreeAcc_N,FreeAcc_U,Gyr_X,Gyr_Y,Gyr_Z,VelInc_X,VelInc_Y,VelInc_Z,OriInc_q0,OriInc_q1,OriInc_q2,OriInc_q3,Quat_q0,Quat_q1,Quat_q2,Quat_q3,Roll,Pitch,Yaw
47998,-1.056257,4.281719,9.088964,-0.510970,-0.316459,0.271797,0.027364,0.032242,-0.011773,-0.010545,0.042805,0.090897,1.000000,0.000137,0.000161,-0.000059,-0.920027,-0.193907,-0.093910,-0.327309,24.753499,2.628773,39.744030
47999,-0.776313,4.313315,8.972307,-0.347657,-0.079679,0.166412,-0.016392,0.007785,-0.013489,-0.007757,0.043141,0.089720,1.000000,-0.000082,0.000039,-0.000067,-0.920049,-0.193789,-0.093895,-0.327321,24.739837,2.631557,39.744746
48000,-0.536338,3.976616,8.768517,-0.034218,-0.102862,-0.170267,-0.015582,0.028260,-0.020348,-0.005347,0.039774,0.087683,1.000000,-0.000078,0.000141,-0.000102,-0.920073,-0.193639,-0.093978,-0.327320,24.726738,2.646292,39.746632
48001,-0.669564,4.125551,8.900081,-0.178353,-0.118830,0.017572,0.036760,0.050296,-0.024987,-0.006668,0.041240,0.089010,1.000000,0.000184,0.000251,-0.000125,-0.920043,-0.193690,-0.094256,-0.327294,24.743753,2.673970,39.751469
48002,-0.626714,4.337378,9.026382,-0.222706,0.023288,0.218815,0.014709,0.048758,-0.016442,-0.006242,0.043368,0.090269,1.000000,0.000074,0.000244,-0.000082,-0.920021,-0.193647,-0.094480,-0.327317,24.748338,2.698434,39.760315
48003,-0.578959,4.233303,8.991320,-0.134635,-0.007531,0.141291,0.001859,0.041651,-0.009669,-0.005769,0.042332,0.089915,1.000000,0.000009,0.000208,-0.000048,-0.920003,-0.193559,-0.094646,-0.327370,24.745603,2.717934,39.771046
48004,-0.419711,4.171966,9.012368,0.031214,0.046552,0.127187,0.011292,0.041365,-0.010478,-0.004176,0.041715,0.090127,1.000000,0.000056,0.000207,-0.000052,-0.919978,-0.193516,-0.094825,-0.327414,24.748299,2.737121,39.781225
48005,-0.432497,4.211214,9.073624,0.020882,0.050040,0.199760,0.016549,0.043339,-0.016581,-0.004302,0.042105,0.090741,1.000000,0.000083,0.000217,-0.000083,-0.919957,-0.193490,-0.095030,-0.327430,24.753844,2.759158,39.788784
48006,-0.415062,4.209361,9.116189,0.051673,0.049372,0.236730,0.011477,0.046025,-0.020276,-0.004125,0.042089,0.091165,1.000000,0.000057,0.000230,-0.000101,-0.919945,-0.193435,-0.095239,-0.327434,24.756461,2.783118,39.794981
48007,-0.546128,4.128835,9.119495,0.001162,-0.090632,0.212406,0.017074,0.042164,-0.015607,-0.005439,0.041281,0.091200,1.000000,0.000085,0.000211,-0.000078,-0.919923,-0.193413,-0.095438,-0.327452,24.762329,2.804306,39.802664
48008,-0.523070,4.258802,9.168430,-0.036455,0.003174,0.310048,0.023754,0.033360,-0.016109,-0.005212,0.042578,0.091690,1.000000,0.000119,0.000167,-0.000081,-0.919899,-0.193438,-0.095606,-0.327457,24.771942,2.820676,39.807994
48009,-0.582268,4.179632,9.190250,-0.027478,-0.096411,0.299632,0.014618,0.031769,-0.018403,-0.005804,0.041790,0.091906,1.000000,0.000073,0.000159,-0.000092,-0.919888,-0.193420,-0.095756,-0.327454,24.776206,2.837124,39.811864
48010,-0.476519,4.187838,9.161787,0.042515,-0.014563,0.272023,0.025756,0.009661,-0.010453,-0.004759,0.041867,0.091623,1.000000,0.000129,0.000048,-0.000052,-0.919863,-0.193496,-0.095812,-0.327461,24.786834,2.839807,39.814444
48011,-0.330420,4.207556,9.141403,0.138855,0.098866,0.254532,0.008819,0.021186,-0.017834,-0.003291,0.042072,0.091416,1.000000,0.000044,0.000106,-0.000089,-0.919862,-0.193469,-0.095904,-0.327454,24.787666,2.850613,39.816083
48012,-0.410819,4.160676,9.149883,0.107873,0.012913,0.246564,0.007300,0.024742,-0.020814,-0.004093,0.041604,0.091501,1.000000,0.000036,0.000124,-0.000104,-0.919866,-0.193430,-0.096009,-0.327436,24.787631,2.863629,39.816895
48013,-0.364939,4.195572,9.154392,0.126295,0.067076,0.262949,0.007302,0.020159,-0.017702,-0.003636,0.041953,0.091546,1.000000,0.000037,0.000101,-0.000089,-0.919866,-0.193398,-0.096093,-0.327428,24.787556,2.873854,39.818185
48014,-0.279148,4.181351,9.108032,0.187146,0.126697,0.210625,0.001317,0.018677,-0.016675,-0.002779,0.041813,0.091081,1.000000,0.000007,0.000093,-0.000083,-0.919872,-0.193343,-0.096156,-0.327427,24.784129,2.882720,39.819694
48015,-0.338711,4.215823,9.194289,0.149148,0.089080,0.306238,0.007412,0.018217,-0.014111,-0.003376,0.042155,0.091945,1.000000,0.000037,0.000091,-0.000071,-0.919867,-0.193317,-0.096228,-0.327435,24.784220,2.891072,39.822690
48016,-0.408816,4.191337,9.199812,0.111371,0.025702,0.304521,0.006069,0.003496,-0.011303,-0.004084,0.041911,0.091999,1.000000,0.000030,0.000017,-0.000057,-0.919866,-0.193311,-0.096225,-0.327442,24.783472,2.890752,39.823345
48017,-0.542668,4.208953,9.324306,0.035432,-0.084893,0.431530,0.010919,-0.022801,0.003902,-0.005438,0.042084,0.093245,1.000000,0.000055,-0.000114,0.000020,-0.919848,-0.193377,-0.096096,-0.327491,24.785544,2.873432,39.825739
48018,-0.384816,4.153347,9.159029,0.134503,0.022000,0.250493,0.007303,-0.052444,0.000371,-0.003872,0.041530,0.091591,1.000000,0.000037,-0.000262,0.000002,-0.919854,-0.193474,-0.095826,-0.327496,24.785135,2.841208,39.819022
48019,-0.332434,4.067073,9.045905,0.185349,0.024137,0.109261,0.009128,-0.044119,-0.009090,-0.003342,0.040667,0.090460,1.000000,0.000046,-0.000221,-0.000045,-0.919869,-0.193560,-0.095609,-0.327467,24.785578,2.815913,39.809602
48020,-0.450559,4.117679,9.056011,0.066425,-0.021581,0.145462,0.021292,-0.041079,-0.017844,-0.004521,0.041168,0.090564,1.000000,0.000106,-0.000205,-0.000089,-0.919885,-0.193694,-0.095432,-0.327393,24.792860,2.793977,39.796130
48021,-0.471473,4.237012,9.075800,-0.013605,0.040981,0.214417,0.010558,-0.041136,-0.012837,-0.004731,0.042366,0.090759,1.000000,0.000053,-0.000206,-0.000064,-0.919904,-0.193780,-0.095234,-0.327346,24.794086,2.771135,39.785253
48022,-0.442131,4.244323,9.007767,-0.018983,0.082705,0.154379,-0.000797,-0.038067,-0.012414,-0.004436,0.042444,0.090077,1.000000,-0.000004,-0.000190,-0.000062,-0.919932,-0.193811,-0.095029,-0.327311,24.788893,2.749463,39.775333
48023,-0.490206,4.233878,8.978451,-0.062221,0.051484,0.125727,-0.000251,-0.034035,-0.003787,-0.004917,0.042339,0.089784,1.000000,-0.000001,-0.000170,-0.000019,-0.919942,-0.193840,-0.094838,-0.327319,24.784242,2.728136,39.771038
48024,-0.518068,4.275087,8.997139,-0.104573,0.055500,0.161241,0.003526,-0.032458,0.000999,-0.005195,0.042749,0.089971,1.000000,0.000018,-0.000162,0.000005,-0.919941,-0.193887,-0.094653,-0.327348,24.781929,2.706158,39.769454
48025,-0.444309,4.246006,8.986428,-0.038113,0.083053,0.135856,-0.000204,-0.033400,0.006962,-0.004460,0.042460,0.089863,1.000000,-0.000001,-0.000167,0.000035,-0.919934,-0.193920,-0.094454,-0.327405,24.777602,2.682586,39.770641
48026,-0.622039,4.292097,9.000770,-0.200496,-0.003599,0.176440,-0.013806,-0.035457,0.005581,-0.006238,0.042927,0.090004,1.000000,-0.000069,-0.000177,0.000028,-0.919944,-0.193895,-0.094223,-0.327460,24.765437,2.657947,39.770728
48027,-0.519378,4.214899,8.917621,-0.107365,0.029811,0.063885,0.001127,-0.042223,0.008958,-0.005214,0.042148,0.089175,1.000000,0.000006,-0.000211,0.000045,-0.919936,-0.193950,-0.093984,-0.327518,24.761828,2.629308,39.770997
48028,-0.616961,4.254955,8.917914,-0.209076,-0.006749,0.085328,-0.000796,-0.039429,0.008583,-0.006189,0.042550,0.089178,1.000000,-0.000004,-0.000197,0.000043,-0.919930,-0.193993,-0.093752,-0.327577,24.757147,2.601882,39.771699
48029,-0.565292,4.199060,8.834117,-0.166229,0.008404,-0.016485,0.017672,-0.036154,0.006441,-0.005670,0.041983,0.088344,1.000000,0.000088,-0.000181,0.000032,-0.919907,-0.194112,-0.093571,-0.327622,24.763025,2.577006,39.772234
48030,-0.696047,4.336277,8.857039,-0.340160,0.011692,0.067550,0.021641,-0.039094,0.007651,-0.006979,0.043353,0.088574,1.000000,0.000108,-0.000195,0.000038,-0.919880,-0.194257,-0.093379,-0.327667,24.771179,2.549979,39.772528
48031,-0.521288,4.177576,8.757037,-0.148513,0.036839,-0.097433,0.014953,-0.030296,0.008159,-0.005228,0.041769,0.087573,1.000000,0.000075,-0.000151,0.000041,-0.919855,-0.194356,-0.093218,-0.327725,24.775589,2.527740,39.775143
48032,-0.649654,4.176335,8.740762,-0.252341,-0.044629,-0.107066,0.037894,-0.012199,0.006525,-0.006503,0.041747,0.087415,1.000000,0.000189,-0.000061,0.000033,-0.919801,-0.194530,-0.093177,-0.327784,24.793314,2.514973,39.781308
48033,-0.658440,4.272212,8.805906,-0.293837,-0.005343,-0.007436,0.036497,-0.015167,0.010253,-0.006593,0.042706,0.088066,1.000000,0.000182,-0.000076,0.000051,-0.919744,-0.194704,-0.093119,-0.327857,24.810292,2.500107,39.788791
48034,-0.703172,4.246690,8.854425,-0.299671,-0.069397,0.027793,0.016872,-0.009553,0.003723,-0.007037,0.042459,0.088547,1.000000,0.000084,-0.000048,0.000019,-0.919714,-0.194777,-0.093059,-0.327915,24.815934,2.489387,39.794127
48035,-0.668311,4.037250,8.767159,-0.181017,-0.171077,-0.140714,0.008941,-0.003670,0.001295,-0.006685,0.040369,0.087673,1.000000,0.000045,-0.000018,0.000006,-0.919693,-0.194801,-0.093017,-0.327971,24.817021,2.482655,39.799661
48036,-0.698551,4.110426,8.814430,-0.231584,-0.154124,-0.065874,0.029222,-0.001249,-0.004094,-0.006985,0.041092,0.088150,1.000000,0.000146,-0.000006,-0.000020,-0.919660,-0.194913,-0.093023,-0.327995,24.829647,2.478133,39.802926
48037,-0.590201,4.149481,8.814736,-0.169866,-0.059064,-0.053909,0.021882,-0.003705,-0.009582,-0.005902,0.041485,0.088152,1.000000,0.000109,-0.000019,-0.000048,-0.919645,-0.194992,-0.093014,-0.327995,24.837949,2.474022,39.802818
48038,-0.517791,4.097902,8.827719,-0.080638,-0.054313,-0.066915,0.017614,0.005694,-0.010824,-0.005173,0.040972,0.088281,1.000000,0.000088,0.000028,-0.000054,-0.919631,-0.195036,-0.093038,-0.328000,24.843845,2.474728,39.804252
48039,-0.518205,4.161303,8.885220,-0.098111,-0.028302,0.011857,0.041517,0.009642,-0.004764,-0.005177,0.041595,0.088861,1.000000,0.000208,0.000048,-0.000024,-0.919582,-0.195185,-0.093118,-0.328027,24.863636,2.476397,39.809973
48040,-0.449871,4.250295,8.936127,-0.079159,0.061142,0.092451,0.028248,0.006342,0.001555,-0.004496,0.042490,0.089367,1.000000,0.000141,0.000032,0.000008,-0.919537,-0.195283,-0.093152,-0.328085,24.875910,2.474457,39.818004
48041,-0.400408,4.201359,8.905943,-0.021663,0.066514,0.042396,0.005197,0.018922,0.002449,-0.003996,0.042011,0.089061,1.000000,0.000026,0.000095,0.000012,-0.919507,-0.195253,-0.093207,-0.328171,24.875131,2.479204,39.829686
48042,-0.494705,4.115816,8.975444,-0.023977,-0.074531,0.073522,0.007733,0.022166,0.001169,-0.004937,0.041155,0.089757,1.000000,0.000039,0.000111,0.000006,-0.919475,-0.195230,-0.093280,-0.328252,24.875808,2.485581,39.841334
48043,-0.593200,4.139629,9.053777,-0.088291,-0.143882,0.158812,0.018821,0.020989,0.003790,-0.005923,0.041388,0.090542,1.000000,0.000094,0.000105,0.000019,-0.919429,-0.195260,-0.093366,-0.328338,24.882903,2.491082,39.854010
48044,-0.635771,4.213706,9.079451,-0.154844,-0.126695,0.215070,0.005372,0.000029,-0.002523,-0.006357,0.042135,0.090796,1.000000,0.000027,0.000000,-0.000013,-0.919417,-0.195261,-0.093337,-0.328381,24.881913,2.486842,39.858395
48045,-0.512138,4.139774,9.093661,-0.015280,-0.103481,0.191498,-0.019375,-0.006084,-0.014130,-0.005121,0.041407,0.090932,1.000000,-0.000097,-0.000030,-0.000071,-0.919449,-0.195152,-0.093253,-0.328378,24.866439,2.482598,39.855442
48046,-0.513182,3.867916,9.049788,0.123042,-0.282315,0.037589,-0.010665,-0.005874,-0.020026,-0.005131,0.038684,0.090496,1.000000,-0.000053,-0.000029,-0.000100,-0.919484,-0.195081,-0.093188,-0.328343,24.855805,2.479507,39.849299
48047,-0.462461,4.058141,9.035236,0.049438,-0.111062,0.102104,0.028123,-0.004741,-0.024476,-0.004622,0.040569,0.090358,1.000000,0.000141,-0.000024,-0.000122,-0.919487,-0.195183,-0.093198,-0.328271,24.867315,2.478453,39.841190
48048,-0.397293,4.139313,9.032650,0.053735,-0.011748,0.131029,0.012939,0.005886,-0.035034,-0.003963,0.041388,0.090329,1.000000,0.000065,0.000029,-0.000175,-0.919517,-0.195194,-0.093240,-0.328167,24.869989,2.485093,39.830073
48049,-0.486535,4.306274,9.225712,-0.050679,-0.006615,0.380048,-0.006405,0.009595,-0.044650,-0.004851,0.043067,0.092256,1.000000,-0.000032,0.000048,-0.000223,-0.919581,-0.195104,-0.093279,-0.328032,24.861353,2.496336,39.814871
48050,-0.479907,4.323398,9.389199,-0.008295,-0.036134,0.535152,-0.041615,-0.023992,-0.039195,-0.004802,0.043254,0.093882,1.000000,-0.000208,-0.000120,-0.000196,-0.919685,-0.194911,-0.093098,-0.327905,24.832361,2.488438,39.794386
48051,-0.269724,4.162686,9.246340,0.195261,0.030905,0.329128,-0.079396,-0.042518,-0.044957,-0.002708,0.041664,0.092446,1.000000,-0.000397,-0.000213,-0.000225,-0.919844,-0.194571,-0.092779,-0.327751,24.781412,2.472652,39.766467
48052,-0.125605,3.952091,9.134683,0.385170,0.011611,0.133605,-0.064708,-0.031632,-0.058172,-0.001259,0.039551,0.091334,1.000000,-0.000324,-0.000158,-0.000291,-0.920005,-0.194276,-0.092543,-0.327541,24.738692,2.465303,39.734277
48053,-0.249414,4.051152,9.152283,0.235211,0.001360,0.196458,-0.025665,-0.023166,-0.071962,-0.002490,0.040524,0.091517,1.000000,-0.000128,-0.000116,-0.000360,-0.920147,-0.194138,-0.092427,-0.327258,24.718089,2.466000,39.697094
48054,-0.285632,4.228809,9.210760,0.122197,0.089853,0.325336,-0.022428,-0.021022,-0.078959,-0.002849,0.042300,0.092103,1.000000,-0.000112,-0.000105,-0.000395,-0.920296,-0.194011,-0.092330,-0.326942,24.699239,2.469123,39.656625
48055,-0.291908,4.273917,9.162568,0.075527,0.135524,0.300678,-0.034269,-0.021367,-0.076399,-0.002913,0.042756,0.091618,1.000000,-0.000171,-0.000107,-0.000382,-0.920452,-0.193829,-0.092212,-0.326643,24.673636,2.471787,39.617368
48056,-0.347060,4.284187,9.109966,0.009638,0.126941,0.259550,-0.028450,-0.010139,-0.066235,-0.003461,0.042856,0.091093,1.000000,-0.000142,-0.000051,-0.000331,-0.920581,-0.193661,-0.092142,-0.326399,24.651729,2.477502,39.586132
48057,-0.524366,4.339465,9.234217,-0.123636,0.020179,0.403035,-0.036166,-0.014753,-0.048074,-0.005240,0.043413,0.092334,1.000000,-0.000181,-0.000074,-0.000240,-0.920689,-0.193473,-0.092024,-0.326237,24.625753,2.476808,39.563245
48058,-0.561941,4.178724,9.135046,-0.094729,-0.086197,0.247639,-0.031874,-0.025533,-0.025781,-0.005626,0.041803,0.091343,1.000000,-0.000159,-0.000128,-0.000129,-0.920762,-0.193333,-0.091839,-0.326166,24.602637,2.464824,39.549419
48059,-0.348995,4.209125,9.000711,0.008597,0.110892,0.129091,-0.003944,-0.033014,-0.001477,-0.003504,0.042093,0.090006,1.000000,-0.000020,-0.000165,-0.000007,-0.920772,-0.193344,-0.091644,-0.326188,24.595986,2.443490,39.546648
48060,-0.332731,4.186998,8.881694,-0.004192,0.139873,0.011088,-0.002624,-0.011087,-0.006885,-0.003331,0.041871,0.088816,1.000000,-0.000013,-0.000055,-0.000034,-0.920779,-0.193324,-0.091555,-0.326205,24.590203,2.434522,39.546127
48061,-0.390373,4.069339,8.821185,-0.000703,0.037192,-0.090350,0.008983,0.008157,-0.004445,-0.003899,0.040690,0.088214,1.000000,0.000045,0.000041,-0.000022,-0.920762,-0.193327,-0.091574,-0.326245,24.591313,2.435339,39.551480
48062,-0.473880,4.131826,8.839179,-0.093478,0.022619,-0.044454,0.035601,0.022700,-0.008952,-0.004727,0.041303,0.088400,1.000000,0.000178,0.000114,-0.000045,-0.920720,-0.193427,-0.091705,-0.326268,24.607728,2.444465,39.557946
48063,-0.421362,4.306532,8.902993,-0.130252,0.161132,0.083985,0.019864,0.027896,-0.007093,-0.004200,0.043057,0.089035,1.000000,0.000099,0.000139,-0.000035,-0.920688,-0.193446,-0.091835,-0.326310,24.615227,2.456196,39.566646
48064,-0.777135,4.242194,8.971267,-0.345609,-0.130516,0.134538,0.007975,0.032106,-0.007622,-0.007755,0.042419,0.089716,1.000000,0.000040,0.000161,-0.000038,-0.920666,-0.193404,-0.091962,-0.326360,24.615943,2.469902,39.576056
48065,-0.911729,4.198551,9.037584,-0.404863,-0.267462,0.182389,0.013923,-0.015535,0.017901,-0.009128,0.041978,0.090378,1.000000,0.000070,-0.000078,0.000090,-0.920619,-0.193478,-0.091859,-0.326480,24.620174,2.453053,39.587516
48066,-0.604097,4.140435,8.875015,-0.185684,-0.068960,-0.002754,0.030714,-0.049253,0.022320,-0.006067,0.041390,0.088755,1.000000,0.000154,-0.000246,0.000112,-0.920564,-0.193687,-0.091620,-0.326579,24.633750,2.417234,39.593095
48067,-0.477144,4.098801,8.696823,-0.119167,0.029333,-0.187330,0.046696,-0.037369,0.015666,-0.004791,0.040967,0.086977,1.000000,0.000233,-0.000187,0.000078,-0.920498,-0.193947,-0.091472,-0.326652,24.656457,2.389550,39.598228
48068,-0.507498,4.198982,8.718017,-0.192871,0.068916,-0.125022,0.064997,-0.017724,0.011307,-0.005085,0.041961,0.087193,1.000000,0.000325,-0.000089,0.000057,-0.920413,-0.194257,-0.091445,-0.326715,24.689745,2.372776,39.605587
48069,-0.437189,4.290477,8.767896,-0.174383,0.158458,-0.044382,0.053001,-0.006361,0.014842,-0.004378,0.042881,0.087690,1.000000,0.000265,-0.000032,0.000074,-0.920328,-0.194495,-0.091450,-0.326810,24.716360,2.361428,39.617518
48070,-0.345891,4.286861,8.773332,-0.099133,0.208611,-0.044636,0.037334,0.011260,0.021741,-0.003459,0.042852,0.087742,1.000000,0.000187,0.000056,0.000109,-0.920239,-0.194635,-0.091501,-0.326962,24.734305,2.357231,39.637248
48071,-0.421387,4.248152,8.835685,-0.115066,0.112695,-0.001074,0.024082,0.039285,0.031415,-0.004203,0.042470,0.088363,1.000000,0.000120,0.000196,0.000157,-0.920134,-0.194673,-0.091654,-0.327192,24.745177,2.365656,39.668946
48072,-0.574392,4.222071,8.966465,-0.177149,-0.043465,0.113038,0.028412,0.035121,0.040297,-0.005737,0.042207,0.089672,1.000000,0.000142,0.000176,0.000201,-0.920013,-0.194742,-0.091782,-0.327457,24.758649,2.369413,39.704066
48073,-0.485423,4.186537,8.943251,-0.093441,-0.006223,0.073449,0.025576,0.038333,0.041536,-0.004846,0.041853,0.089439,1.000000,0.000128,0.000192,0.000208,-0.919891,-0.194792,-0.091922,-0.327730,24.770600,2.374903,39.740561
48074,-0.621083,4.175261,9.038330,-0.161097,-0.130268,0.160629,0.024440,0.032846,0.031407,-0.006203,0.041741,0.090389,1.000000,0.000122,0.000164,0.000157,-0.919789,-0.194843,-0.092042,-0.327953,24.781587,2.379597,39.770507
48075,-0.709837,4.282625,9.172080,-0.249341,-0.151359,0.330621,0.008852,0.013305,0.009869,-0.007094,0.042822,0.091723,1.000000,0.000044,0.000067,0.000049,-0.919746,-0.194842,-0.092071,-0.328066,24.783013,2.379662,39.784689
48076,-0.684452,4.254683,9.240823,-0.196006,-0.174574,0.380189,-0.038119,-0.027144,-0.017920,-0.006853,0.042565,0.092399,1.000000,-0.000191,-0.000136,-0.000090,-0.919813,-0.194681,-0.091860,-0.328032,24.756494,2.364990,39.774537
48077,-0.538324,4.136113,9.217313,-0.030776,-0.154493,0.303204,-0.092495,-0.053102,-0.042650,-0.005399,0.041405,0.092153,1.000000,-0.000462,-0.000266,-0.000213,-0.919986,-0.194299,-0.091468,-0.327884,24.698067,2.343107,39.745295
48078,-0.238152,3.929087,8.999046,0.243543,-0.039873,0.006496,-0.081145,-0.067167,-0.069264,-0.002398,0.039328,0.089974,1.000000,-0.000406,-0.000336,-0.000346,-0.920197,-0.193982,-0.091053,-0.327595,24.645426,2.319859,39.698834
48079,-0.104299,3.842115,8.982865,0.384556,-0.006538,-0.049662,-0.062132,-0.027676,-0.091346,-0.001038,0.038450,0.089817,1.000000,-0.000311,-0.000138,-0.000457,-0.920407,-0.193676,-0.090875,-0.327235,24.603621,2.322787,39.650555
48080,-0.399309,4.107402,9.154234,0.055363,-0.053138,0.228443,-0.006903,-0.017729,-0.091233,-0.003982,0.041079,0.091541,1.000000,-0.000035,-0.000089,-0.000456,-0.920559,-0.193609,-0.090830,-0.326859,24.593537,2.330476,39.604471
48081,-0.340065,4.263216,9.133450,0.005144,0.104697,0.271933,-0.038070,-0.025593,-0.081748,-0.003395,0.042651,0.091326,1.000000,-0.000190,-0.000128,-0.000409,-0.920729,-0.193415,-0.090692,-0.326533,24.565739,2.332160,39.561551
48082,-0.333494,4.130083,8.984956,0.039341,0.062444,0.081392,-0.042531,-0.011073,-0.068629,-0.003326,0.041321,0.089841,1.000000,-0.000213,-0.000055,-0.000343,-0.920875,-0.193183,-0.090597,-0.326284,24.535780,2.337897,39.528836
48083,-0.506112,4.231035,9.081777,-0.123873,0.000621,0.218321,-0.030020,0.007775,-0.067839,-0.005043,0.042326,0.090812,1.000000,-0.000150,0.000039,-0.000339,-0.921000,-0.192977,-0.090612,-0.326050,24.513186,2.353615,39.501111
48084,-0.628124,4.219472,9.090822,-0.211444,-0.081586,0.226743,-0.079218,-0.013108,-0.074153,-0.006272,0.042233,0.090891,1.000000,-0.000396,-0.000066,-0.000371,-0.921191,-0.192578,-0.090454,-0.325790,24.462056,2.359568,39.465023
48085,-0.862835,4.240574,9.246209,-0.365208,-0.252584,0.386437,-0.107858,-0.034527,-0.110636,-0.008621,0.042460,0.092438,1.000000,-0.000539,-0.000173,-0.000553,-0.921478,-0.192063,-0.090188,-0.325354,24.393544,2.363322,39.404945
48086,-0.879403,4.300325,9.377792,-0.386182,-0.245863,0.531369,-0.212058,-0.101750,-0.164504,-0.008806,0.043110,0.093728,0.999999,-0.001060,-0.000509,-0.000823,-0.921983,-0.191155,-0.089492,-0.324652,24.263504,2.344222,39.300689
48087,-0.394905,3.735744,9.073317,0.198697,-0.234524,0.002722,-0.303855,-0.132855,-0.245261,-0.003963,0.037500,0.090674,0.999998,-0.001519,-0.000664,-0.001226,-0.922717,-0.189835,-0.088583,-0.323587,24.078890,2.327905,39.147030
48088,-0.164799,3.362827,8.912566,0.521129,-0.286920,-0.303974,-0.299939,-0.100625,-0.348939,-0.001634,0.033765,0.089074,0.999997,-0.001500,-0.000503,-0.001745,-0.923597,-0.188436,-0.087925,-0.322072,23.894594,2.351733,38.946526
48089,-0.266424,3.581245,8.934638,0.311526,-0.171863,-0.189934,-0.304286,-0.061552,-0.467191,-0.002608,0.035954,0.089291,0.999996,-0.001521,-0.000308,-0.002336,-0.924647,-0.186900,-0.087553,-0.320047,23.705428,2.423112,38.693038
48090,-0.329372,4.239172,9.132026,-0.061304,0.249937,0.257393,-0.443774,-0.037263,-0.640675,-0.003174,0.042605,0.091225,0.999992,-0.002219,-0.000186,-0.003203,-0.926085,-0.184603,-0.087229,-0.317300,23.432188,2.545589,38.353521
48091,-0.010196,4.315908,9.148758,0.134175,0.568144,0.286099,-0.799838,0.001379,-0.868423,0.000087,0.043524,0.091314,0.999983,-0.003999,0.000007,-0.004342,-0.928173,-0.180490,-0.086730,-0.313682,22.948815,2.737928,37.901860
48092,0.099936,3.717860,9.040028,0.495885,0.326237,-0.055584,-1.116174,0.093624,-1.108207,0.001249,0.037676,0.090190,0.999969,-0.005581,0.000468,-0.005541,-0.930838,-0.174654,-0.086372,-0.309156,22.276851,3.026956,37.341512
48093,-0.303103,3.141424,9.202578,0.503543,-0.266856,-0.100764,-1.284241,0.163133,-1.309700,-0.002748,0.032023,0.091824,0.999958,-0.006421,0.000816,-0.006548,-0.933862,-0.167827,-0.086250,-0.303804,21.500002,3.389222,36.685158
48094,-0.670770,3.032075,9.518052,0.318004,-0.507966,0.181090,-1.319308,0.193220,-1.456158,-0.006392,0.030995,0.094984,0.999951,-0.006596,0.000966,-0.007281,-0.937041,-0.160713,-0.086328,-0.297780,20.693878,3.788344,35.951173
48095,-0.838620,2.889142,9.835653,0.302190,-0.638922,0.448335,-1.416906,0.145616,-1.582006,-0.008082,0.029652,0.098154,0.999943,-0.007084,0.000728,-0.007910,-0.940408,-0.153141,-0.086132,-0.291139,19.821013,4.176425,35.133795
48096,-0.462427,2.079580,9.301559,0.854008,-0.777358,-0.340517,-1.415083,0.108199,-1.688862,-0.004394,0.021491,0.092868,0.999939,-0.007075,0.000541,-0.008444,-0.943835,-0.145569,-0.085832,-0.283932,18.938328,4.551706,34.245105
48097,-0.483520,2.318267,9.295276,0.681043,-0.457587,-0.255726,-1.228590,0.181090,-1.792500,-0.004540,0.023795,0.092812,0.999941,-0.006143,0.000905,-0.008962,-0.947129,-0.138708,-0.086208,-0.276181,18.151991,4.972791,33.308004
48098,-1.323817,2.722219,10.043416,-0.063220,-0.598715,0.659577,-1.255871,0.194859,-1.882959,-0.012879,0.027975,0.100273,0.999935,-0.006279,0.000974,-0.009415,-0.950444,-0.131646,-0.086661,-0.267983,17.338504,5.403834,32.316701
48099,-1.677254,2.083460,10.008797,-0.089166,-1.140123,0.483908,-1.244779,0.109713,-1.892673,-0.016516,0.021614,0.099964,0.999936,-0.006224,0.000549,-0.009463,-0.953680,-0.124727,-0.086722,-0.259648,16.521636,5.776019,31.299600
48100,-2.005915,1.696824,10.267347,-0.166131,-1.533288,0.672589,-1.002890,0.019980,-1.824347,-0.019890,0.017665,0.102588,0.999946,-0.005014,0.000100,-0.009122,-0.956604,-0.119096,-0.086614,-0.251443,15.839552,6.074355,30.299942
48101,-2.427681,1.748948,10.321113,-0.581431,-1.592355,0.798778,-0.635809,-0.159849,-1.667715,-0.024210,0.018019,0.103135,0.999960,-0.003179,-0.000799,-0.008338,-0.959099,-0.115501,-0.086010,-0.243704,15.369654,6.239719,29.356733
48102,-2.122191,2.330993,10.239209,-0.632600,-0.854244,0.847911,-0.303599,-0.352048,-1.455534,-0.021231,0.023620,0.102319,0.999971,-0.001518,-0.001760,-0.007278,-0.961162,-0.113819,-0.084757,-0.236706,15.098215,6.260390,28.500409
48103,-1.369994,3.215118,9.825944,-0.477032,0.375161,0.598589,-0.066201,-0.490522,-1.237711,-0.013741,0.032269,0.098215,0.999978,-0.000331,-0.002453,-0.006189,-0.962842,-0.113523,-0.082992,-0.230564,14.973670,6.169358,27.744639
48104,-0.742851,4.171012,9.695098,-0.375212,1.531580,0.649509,-0.030426,-0.498967,-1.025520,-0.007456,0.041763,0.096926,0.999984,-0.000152,-0.002495,-0.005128,-0.964225,-0.113498,-0.081103,-0.225414,14.884065,6.040685,27.106062
48105,-0.653603,4.345283,9.505586,-0.424214,1.769550,0.500098,-0.146359,-0.483039,-0.807066,-0.006590,0.043549,0.095008,0.999989,-0.000732,-0.002415,-0.004035,-0.965393,-0.112975,-0.079034,-0.221373,14.741859,5.887691,26.592585
48106,-0.278460,4.037439,9.171621,-0.055127,1.742957,0.059297,-0.234725,-0.414899,-0.588097,-0.002856,0.040490,0.091663,0.999993,-0.001174,-0.002074,-0.002940,-0.966326,-0.112041,-0.077071,-0.218453,14.564457,5.739166,26.210952
48107,-0.245282,3.549494,8.960716,0.105067,1.382209,-0.271623,-0.230108,-0.313230,-0.359325,-0.002529,0.035603,0.089562,0.999996,-0.001151,-0.001566,-0.001797,-0.966955,-0.111102,-0.075478,-0.216697,14.404489,5.613449,25.972756
48108,-0.378603,3.371398,9.181475,0.077380,1.139275,-0.091310,-0.174806,-0.209845,-0.183545,-0.003851,0.033798,0.091781,0.999999,-0.000874,-0.001049,-0.000918,-0.967321,-0.110387,-0.074344,-0.215820,14.287873,5.519283,25.846967
48109,-0.656828,3.142376,9.309653,-0.075113,0.801429,0.001977,-0.125337,-0.157205,-0.037864,-0.006635,0.031483,0.093072,0.999999,-0.000627,-0.000786,-0.000189,-0.967480,-0.109908,-0.073441,-0.215661,14.208276,5.433968,25.810492
48110,-0.693596,2.919216,9.266565,-0.043495,0.599306,-0.091008,-0.065006,-0.111204,0.075177,-0.006998,0.029220,0.092652,1.000000,-0.000325,-0.000556,0.000376,-0.967467,-0.109714,-0.072759,-0.216049,14.169855,5.357916,25.843269
48111,-1.131313,3.085889,9.490739,-0.473624,0.514509,0.206676,-0.028995,-0.071154,0.132165,-0.011367,0.030865,0.094899,1.000000,-0.000145,-0.000356,0.000661,-0.967357,-0.109670,-0.072282,-0.216722,14.155480,5.296470,25.913608
48112,-1.506319,2.948823,9.681171,-0.733620,0.196946,0.390871,-0.135960,-0.100008,0.139705,-0.015132,0.029543,0.096784,0.999999,-0.000680,-0.000500,0.000699,-0.967307,-0.109143,-0.071542,-0.217454,14.079778,5.217661,25.984050
48113,-1.251952,2.250314,9.395754,-0.296058,-0.250093,-0.078148,-0.175413,-0.131251,0.120177,-0.012595,0.022578,0.093930,0.999999,-0.000877,-0.000656,0.000601,-0.967310,-0.108453,-0.070623,-0.218087,13.980140,5.124730,26.039407
48114,-1.031424,1.920687,9.276156,-0.005853,-0.416436,-0.292894,-0.124347,-0.116596,0.086791,-0.010377,0.019260,0.092744,1.000000,-0.000622,-0.000583,0.000434,-0.967315,-0.107982,-0.069844,-0.218549,13.908077,5.044217,26.078230
48115,-0.987461,1.834408,9.252205,0.049329,-0.464817,-0.340363,-0.086774,-0.100518,0.022558,-0.009923,0.018383,0.092509,1.000000,-0.000434,-0.000503,0.000113,-0.967363,-0.107651,-0.069223,-0.218697,13.854572,4.981887,26.083698
48116,-0.977362,1.706734,9.183949,0.087270,-0.557982,-0.437501,-0.048731,-0.075849,-0.043732,-0.009805,0.017092,0.091832,1.000000,-0.000244,-0.000379,-0.000219,-0.967455,-0.107456,-0.068794,-0.218523,13.819944,4.942000,26.055381
48117,-1.089393,1.892640,9.101966,-0.109555,-0.427595,-0.462831,0.006813,-0.051077,-0.108070,-0.010907,0.018929,0.091018,1.000000,0.000034,-0.000255,-0.000540,-0.967578,-0.107478,-0.068584,-0.218033,13.814292,4.925033,25.994705
48118,-1.241151,2.299235,9.205989,-0.395550,-0.151918,-0.252476,-0.025099,-0.045018,-0.165062,-0.012413,0.023014,0.092054,1.000000,-0.000125,-0.000225,-0.000825,-0.967778,-0.107322,-0.068395,-0.217280,13.787776,4.918866,25.902885
48119,-1.462788,2.557538,9.366386,-0.674712,-0.039803,-0.017122,-0.116354,-0.046240,-0.230000,-0.014620,0.025647,0.093646,0.999999,-0.000582,-0.000231,-0.001150,-0.968096,-0.106702,-0.068140,-0.216243,13.705884,4.921189,25.774601
48120,-1.595135,2.520246,9.535371,-0.759180,-0.138007,0.148432,-0.285791,-0.088269,-0.308553,-0.015954,0.025363,0.095311,0.999998,-0.001429,-0.000441,-0.001543,-0.968602,-0.105280,-0.067536,-0.214861,13.522640,4.909992,25.596748
48121,-1.352053,1.896956,9.370202,-0.338265,-0.523459,-0.177409,-0.377818,-0.118637,-0.375456,-0.013540,0.019172,0.093658,0.999996,-0.001889,-0.000593,-0.001877,-0.969232,-0.103422,-0.066725,-0.213168,13.283100,4.890477,25.377529
48122,-1.230382,1.434432,9.207284,-0.093605,-0.820672,-0.449828,-0.329317,-0.122887,-0.433308,-0.012329,0.014523,0.092041,0.999996,-0.001647,-0.000614,-0.002167,-0.969893,-0.101784,-0.065971,-0.211175,13.068696,4.874905,25.125388
48123,-0.993924,1.388741,8.984907,0.082803,-0.697201,-0.693913,-0.221493,-0.104528,-0.481770,-0.009953,0.014011,0.089828,0.999996,-0.001107,-0.000523,-0.002409,-0.970537,-0.100631,-0.065447,-0.208920,12.913976,4.875458,24.848608
48124,-0.955514,2.237588,9.138635,-0.197529,0.075372,-0.358075,-0.213971,-0.034118,-0.577858,-0.009506,0.022501,0.091361,0.999995,-0.001070,-0.000171,-0.002889,-0.971247,-0.099411,-0.065317,-0.206230,12.759633,4.926390,24.526851
48125,-1.141172,2.743377,9.419143,-0.517223,0.447634,0.040255,-0.464471,0.031123,-0.711840,-0.011299,0.027693,0.094129,0.999991,-0.002322,0.000156,-0.003559,-0.972185,-0.096860,-0.065315,-0.203000,12.455432,5.029707,24.137905
48126,-1.357424,2.170758,9.585744,-0.475610,-0.110197,0.097020,-0.738909,0.046902,-0.830481,-0.013460,0.022118,0.095779,0.999985,-0.003695,0.000235,-0.004152,-0.973347,-0.092919,-0.065164,-0.199286,11.987469,5.153203,23.683368
48127,-0.936035,1.303855,9.393607,0.186762,-0.609637,-0.304328,-0.808719,0.052346,-0.891015,-0.009276,0.013460,0.093885,0.999982,-0.004044,0.000262,-0.004455,-0.974568,-0.088608,-0.064998,-0.195297,11.475154,5.283285,23.194464
48128,-0.670443,1.095511,9.216337,0.463409,-0.589455,-0.537568,-0.706867,0.093199,-0.905462,-0.006611,0.011311,0.092127,0.999983,-0.003534,0.000466,-0.004527,-0.975711,-0.084749,-0.065132,-0.191215,11.019766,5.433464,22.700567
48129,-0.500943,1.419654,9.435121,0.532430,-0.188444,-0.274946,-0.599122,0.165725,-0.905756,-0.004866,0.014501,0.094312,0.999985,-0.002996,0.000829,-0.004529,-0.976755,-0.081340,-0.065724,-0.187122,10.625055,5.621194,22.213192
48130,-0.907940,1.605803,9.668384,0.133731,-0.133125,0.028278,-0.547752,0.204660,-0.890519,-0.008908,0.016363,0.096648,0.999986,-0.002739,0.001023,-0.004453,-0.977722,-0.078150,-0.066543,-0.183096,10.259468,5.825701,21.737012
48131,-0.665144,1.874409,9.715229,0.281952,0.266993,0.096416,-0.542253,0.208872,-0.851836,-0.006469,0.019035,0.097108,0.999987,-0.002711,0.001044,-0.004259,-0.978624,-0.074992,-0.067373,-0.179256,9.897243,6.026017,21.281991
48132,-0.907521,2.267090,9.924915,-0.029407,0.590833,0.391073,-0.595434,0.256027,-0.842408,-0.008852,0.023004,0.099192,0.999986,-0.002977,0.001280,-0.004212,-0.979495,-0.071535,-0.068378,-0.175491,9.504051,6.248739,20.835147
48133,-0.906835,2.138464,9.962325,0.032844,0.555553,0.401655,-0.781713,0.255946,-0.849300,-0.008849,0.021812,0.099550,0.999983,-0.003909,0.001280,-0.004246,-0.980408,-0.067159,-0.069222,-0.171752,9.001477,6.468860,20.382747
48134,-0.685097,1.173693,9.632785,0.509808,-0.134499,-0.098847,-0.858446,0.289795,-0.839448,-0.006661,0.012178,0.096286,0.999981,-0.004292,0.001449,-0.004197,-0.981291,-0.062381,-0.070159,-0.168092,8.454171,6.702873,19.936414
48135,-0.557793,0.851069,9.368792,0.699497,-0.277007,-0.418907,-0.733876,0.360610,-0.842730,-0.005372,0.008877,0.093666,0.999983,-0.003669,0.001803,-0.004214,-0.982078,-0.058148,-0.071547,-0.164388,7.976182,6.973592,19.491800
48136,0.176298,1.806724,9.202476,1.084228,0.967522,-0.546168,-0.830865,0.534960,-0.984105,0.002099,0.018440,0.091943,0.999976,-0.004154,0.002675,-0.004920,-0.982906,-0.053246,-0.073748,-0.160068,7.431685,7.349958,18.976983
48137,0.883544,2.746508,8.914308,1.466328,2.227960,-0.830906,-1.425896,0.932802,-1.413973,0.009447,0.028034,0.088901,0.999939,-0.007129,0.004664,-0.007070,-0.984006,-0.044935,-0.077538,-0.153948,6.511564,7.976116,18.238202
48138,0.758979,0.516301,8.660890,2.035163,0.274472,-1.349114,-2.307992,1.395255,-1.918821,0.008249,0.006085,0.086486,0.999863,-0.011539,0.006976,-0.009594,-0.985320,-0.031727,-0.083020,-0.145759,5.035742,8.879353,17.220807
48139,-0.311096,-4.407050,7.769012,2.292564,-4.508602,-2.444562,-2.264606,1.696874,-2.194997,-0.002926,-0.043154,0.078208,0.999840,-0.011322,0.008484,-0.010974,-0.986410,-0.018388,-0.090041,-0.136197,3.539055,9.940535,16.030524
48140,-1.343684,-5.050698,7.675908,1.475886,-5.258906,-2.302781,-1.034760,1.881707,-2.330528,-0.013296,-0.049953,0.077144,0.999874,-0.005174,0.009408,-0.011652,-0.987116,-0.010923,-0.098796,-0.125390,2.706627,11.087453,14.741413
48141,-2.444815,-1.370340,9.709312,0.005179,-1.836205,0.124654,-0.443497,1.991707,-2.501589,-0.023647,-0.013189,0.097361,0.999870,-0.002217,0.009958,-0.012507,-0.987591,-0.006217,-0.108450,-0.113422,2.163136,12.286411,13.335912
48142,-3.480312,-0.482551,10.164115,-0.932143,-1.036588,0.850628,-0.579133,1.902480,-2.576502,-0.033890,-0.004090,0.101979,0.999868,-0.002896,0.009512,-0.012882,-0.987903,-0.000853,-0.117560,-0.101124,1.499908,13.420891,11.865593
48143,-4.045305,0.396202,10.244087,-1.465305,-0.112353,1.109695,-0.317389,1.705822,-2.406767,-0.039525,0.004604,0.102774,0.999890,-0.001587,0.008529,-0.012033,-0.988007,0.003024,-0.125802,-0.089486,0.978556,14.425933,10.474374
48144,-3.833520,3.572763,10.670833,-1.533102,3.223128,1.526734,-0.371817,1.476064,-2.056832,-0.037175,0.036313,0.106918,0.999918,-0.001859,0.007380,-0.010284,-0.987909,0.006842,-0.132866,-0.079596,0.453386,15.284240,9.273612
48145,-2.469733,4.929607,9.754493,-0.495674,4.913511,0.244965,-1.155731,1.392624,-1.704910,-0.023594,0.050064,0.097424,0.999923,-0.005779,0.006963,-0.008524,-0.987544,0.014267,-0.139198,-0.071957,-0.485751,16.080125,8.266270
48146,-0.549429,2.660825,7.526655,1.200533,3.000129,-2.492411,-1.826238,1.581901,-1.363401,-0.004715,0.027328,0.075059,0.999904,-0.009131,0.007909,-0.006817,-0.986706,0.024827,-0.146222,-0.066443,-1.771270,16.969055,7.440557
48147,0.364153,0.198664,6.203726,2.139511,0.725367,-4.020250,-1.742267,2.036715,-0.953043,0.004284,0.002507,0.061975,0.999899,-0.008711,0.010183,-0.004765,-0.985214,0.034822,-0.155541,-0.062824,-2.959379,18.110949,6.825524
48148,-0.315688,-0.788845,6.082129,1.713733,-0.233334,-3.920274,-1.230375,2.519578,-0.466321,-0.002408,-0.007508,0.060902,0.999899,-0.006152,0.012597,-0.002332,-0.983085,0.042059,-0.167452,-0.061107,-3.786010,19.534748,6.461742
48149,-2.373329,0.151283,6.887669,0.090412,0.647643,-2.555689,-0.728208,2.896385,-0.027305,-0.022732,0.001768,0.069205,0.999889,-0.003641,0.014481,-0.000137,-0.980404,0.046568,-0.181425,-0.061036,-4.253981,21.187670,6.328806
48150,-5.815149,0.813448,8.360534,-2.428998,1.195845,0.038112,-0.623139,3.037336,0.261585,-0.056884,0.008322,0.084450,0.999879,-0.003116,0.015186,0.001308,-0.977303,0.050330,-0.196146,-0.062238,-4.606244,22.932855,6.352914
48151,-10.356229,0.483718,10.980568,-5.228226,0.819092,4.330874,-0.679217,2.604029,0.381184,-0.102131,0.005018,0.111125,0.999908,-0.003396,0.013020,0.001906,-0.974366,0.054105,-0.208721,-0.064175,-4.955693,24.436605,6.462798
48152,-11.260151,0.150565,12.741007,-4.990319,0.748520,6.425422,-1.010007,1.644257,0.313058,-0.111552,0.001977,0.128321,0.999952,-0.005050,0.008221,0.001565,-0.972228,0.059246,-0.216466,-0.066377,-5.492113,25.389756,6.573284
48153,-8.967798,-2.341274,11.829763,-2.748694,-1.449417,4.890614,-1.261785,0.758612,0.136221,-0.089212,-0.022725,0.118781,0.999973,-0.006309,0.003793,0.000681,-0.970957,0.065505,-0.219757,-0.068249,-6.199881,25.829196,6.618528
48154,-6.155810,-4.050242,10.194709,-0.580678,-2.959450,2.399353,-0.937443,0.206628,-0.080140,-0.061469,-0.039999,0.102199,0.999988,-0.004687,0.001033,-0.000401,-0.970436,0.070235,-0.220395,-0.068892,-6.766296,25.940452,6.561169
48155,-3.916952,-3.775447,9.613900,1.138771,-2.470525,0.893523,-0.503393,0.071663,-0.340189,-0.039199,-0.037446,0.096248,0.999995,-0.002517,0.000358,-0.001701,-0.970289,0.073099,-0.220438,-0.067842,-7.152137,25.956922,6.348741
48156,-2.946305,-3.397443,8.775352,1.587012,-2.103199,-0.310686,-0.115529,0.106956,-0.490445,-0.029499,-0.033851,0.087789,0.999997,-0.000578,0.000535,-0.002452,-0.970289,0.074257,-0.220723,-0.065621,-7.358524,25.981132,6.038303
48157,-3.072886,-1.585752,8.835466,1.211339,-0.315892,-0.407606,0.193643,0.219778,-0.506162,-0.030672,-0.015865,0.088373,0.999996,0.000968,0.001099,-0.002531,-0.970277,0.073972,-0.221652,-0.062941,-7.396854,26.068104,5.708484
48158,-3.733818,-0.180238,9.319932,0.624476,1.092177,0.149850,0.106760,0.257861,-0.425100,-0.037222,-0.001773,0.093246,0.999997,0.000534,0.001289,-0.002125,-0.970158,0.074027,-0.222764,-0.060735,-7.464132,26.182039,5.426449
48159,-4.164576,0.142665,9.349314,0.225163,1.392501,0.325551,-0.063038,0.222668,-0.262838,-0.041540,0.001511,0.093539,0.999998,-0.000315,0.001113,-0.001314,-0.969962,0.074717,-0.223715,-0.059519,-7.582969,26.288105,5.249627
48160,-4.408791,-0.119109,9.350515,0.061757,1.143500,0.462148,-0.307287,0.154453,-0.114288,-0.044016,-0.001022,0.093541,0.999998,-0.001536,0.000772,-0.000571,-0.969704,0.076402,-0.224315,-0.059322,-7.797594,26.366006,5.172277
48161,-4.317975,-1.048404,9.216666,0.233081,0.258113,0.413252,-0.499310,0.120519,-0.035154,-0.043126,-0.010246,0.092218,0.999997,-0.002497,0.000603,-0.000176,-0.969382,0.078920,-0.224726,-0.059736,-8.099135,26.430953,5.147627
48162,-4.121111,-2.240377,8.791188,0.415603,-0.922881,0.100092,-0.486226,0.128415,-0.035253,-0.041159,-0.022183,0.087992,0.999997,-0.002431,0.000642,-0.000176,-0.969050,0.081376,-0.225174,-0.060132,-8.393492,26.499908,5.121797
48163,-3.977048,-2.702465,8.750729,0.609689,-1.327344,0.064648,-0.379962,0.193367,-0.096232,-0.039699,-0.026839,0.087597,0.999998,-0.001900,0.000967,-0.000481,-0.968701,0.083406,-0.225945,-0.060086,-8.647448,26.600711,5.050782
48164,-4.156068,-2.837735,8.622445,0.432609,-1.461301,0.053899,-0.233770,0.259375,-0.198191,-0.041477,-0.028235,0.086311,0.999998,-0.001169,0.001297,-0.000991,-0.968365,0.084861,-0.227034,-0.059352,-8.849630,26.729423,4.908208
48165,-4.379546,-2.546751,8.747874,0.262710,-1.139604,0.228421,-0.115243,0.313029,-0.297551,-0.043696,-0.025352,0.087562,0.999998,-0.000576,0.001565,-0.001488,-0.968043,0.085873,-0.228378,-0.057981,-9.015655,26.879566,4.696604
48166,-4.408544,-1.777313,8.954555,0.232534,-0.324934,0.317388,-0.016780,0.324924,-0.339063,-0.043970,-0.017691,0.089619,0.999997,-0.000084,0.001625,-0.001695,-0.967758,0.086456,-0.229785,-0.056290,-9.138243,27.031899,4.456775
48167,-4.368553,-0.895233,9.245277,0.288872,0.617845,0.429166,-0.024208,0.312063,-0.317310,-0.043555,-0.008872,0.092522,0.999998,-0.000121,0.001560,-0.001587,-0.967472,0.087049,-0.231140,-0.054719,-9.259427,27.178796,4.231352
48168,-4.163602,-0.486006,9.244281,0.436120,1.053170,0.273395,-0.103491,0.284835,-0.225702,-0.041510,-0.004765,0.092504,0.999998,-0.000517,0.001424,-0.001129,-0.967156,0.087908,-0.232377,-0.053693,-9.398493,27.318051,4.066424
48169,-4.049416,-0.248856,9.255518,0.532266,1.318994,0.192369,-0.196703,0.274191,-0.102227,-0.040368,-0.002377,0.092613,0.999998,-0.000984,0.001371,-0.000511,-0.966773,0.089075,-0.233593,-0.053378,-9.555268,27.462837,3.980553
48170,-3.892365,-0.411228,9.019275,0.614250,1.151592,-0.067773,-0.308763,0.285776,0.013303,-0.038794,-0.003976,0.090254,0.999998,-0.001544,0.001429,0.000067,-0.966294,0.090648,-0.234884,-0.053747,-9.742948,27.624755,3.966467
48171,-3.832489,-0.873851,8.762772,0.647546,0.683196,-0.254888,-0.362335,0.330384,0.102145,-0.038176,-0.008599,0.087707,0.999997,-0.001812,0.001652,0.000511,-0.965708,0.092390,-0.236418,-0.054588,-9.937868,27.820758,4.003432
48172,-3.874188,-1.110014,8.444643,0.536575,0.416899,-0.480402,-0.377731,0.402464,0.158841,-0.038563,-0.010971,0.084545,0.999996,-0.001889,0.002012,0.000794,-0.965007,0.094155,-0.238317,-0.055686,-10.128376,28.062951,4.067828
48173,-4.033988,-1.299480,8.205838,0.358952,0.202312,-0.586233,-0.357551,0.504335,0.209439,-0.040119,-0.012890,0.082183,0.999995,-0.001788,0.002522,0.001047,-0.964171,0.095793,-0.240737,-0.056957,-10.297871,28.368122,4.152122
48174,-4.401950,-1.208499,8.065764,0.009880,0.263958,-0.548558,-0.323017,0.596939,0.269787,-0.043762,-0.012014,0.080808,0.999993,-0.001615,0.002985,0.001349,-0.963211,0.097214,-0.243637,-0.058431,-10.433904,28.731686,4.263645
48175,-4.815314,-0.925565,7.970794,-0.380656,0.514815,-0.476351,-0.334324,0.661073,0.333894,-0.047874,-0.009202,0.079882,0.999992,-0.001672,0.003305,0.001669,-0.962134,0.098631,-0.246872,-0.060196,-10.559989,29.138506,4.408209
48176,-5.139618,-0.925034,7.937573,-0.613636,0.508996,-0.344827,-0.406649,0.689997,0.402442,-0.051103,-0.009192,0.079571,0.999990,-0.002033,0.003450,0.002012,-0.960948,0.100317,-0.250252,-0.062364,-10.706622,29.568951,4.593069
48177,-5.284554,-0.938920,7.810128,-0.728154,0.480136,-0.376322,-0.438638,0.712974,0.473459,-0.052544,-0.009342,0.078309,0.999988,-0.002193,0.003565,0.002367,-0.959673,0.102074,-0.253764,-0.064902,-10.849294,30.020575,4.820682
48178,-5.261384,-1.051192,7.675997,-0.681224,0.364301,-0.479368,-0.471018,0.721307,0.542881,-0.052308,-0.010473,0.076974,0.999987,-0.002355,0.003607,0.002714,-0.958325,0.103896,-0.257333,-0.067807,-10.986599,30.484670,5.092265
48179,-5.072947,-1.347731,7.463947,-0.491911,0.062138,-0.701414,-0.457570,0.778728,0.606911,-0.050397,-0.013459,0.074867,0.999985,-0.002288,0.003894,0.003035,-0.956861,0.105590,-0.261210,-0.070970,-11.096640,30.988851,5.398585
48180,-5.317122,-1.369630,7.387127,-0.651146,0.017441,-0.631599,-0.360940,0.843642,0.654361,-0.052814,-0.013736,0.074119,0.999984,-0.001805,0.004218,0.003272,-0.955317,0.106778,-0.265447,-0.074197,-11.136410,31.534850,5.728656
48181,-5.654615,-1.231833,7.587661,-0.777091,0.178517,-0.303311,-0.319241,0.867349,0.677951,-0.056174,-0.012388,0.076141,0.999984,-0.001596,0.004337,0.003390,-0.953724,0.107742,-0.269818,-0.077467,-11.142239,32.097190,6.072949
48182,-5.869315,-1.235128,7.702131,-0.808347,0.188520,-0.086047,-0.292521,0.846234,0.689923,-0.058324,-0.012440,0.077287,0.999984,-0.001463,0.004231,0.003450,-0.952138,0.108549,-0.274095,-0.080767,-11.122834,32.648660,6.430167
48183,-6.127039,-1.184578,7.784266,-0.902855,0.233775,0.120498,-0.249357,0.788058,0.682357,-0.060922,-0.011957,0.078098,0.999986,-0.001247,0.003940,0.003412,-0.950628,0.109136,-0.278102,-0.084001,-11.073266,33.166731,6.792503
48184,-6.253798,-1.204182,7.807671,-0.907505,0.204946,0.219942,-0.232448,0.693266,0.664089,-0.062227,-0.012158,0.078307,0.999988,-0.001162,0.003466,0.003320,-0.949242,0.109623,-0.281645,-0.087173,-11.009722,33.628864,7.157630
48185,-5.877300,-1.191471,7.483620,-0.690132,0.165090,-0.249066,-0.169457,0.630817,0.689589,-0.058495,-0.012053,0.075031,0.999989,-0.000847,0.003154,0.003448,-0.947943,0.109748,-0.284930,-0.090411,-10.892130,34.058527,7.551007
48186,-5.411950,-0.388474,7.201708,-0.572943,0.900685,-0.859207,-0.124288,0.657800,0.717265,-0.053868,-0.004033,0.072197,0.999988,-0.000621,0.003289,0.003586,-0.946597,0.109626,-0.288368,-0.093697,-10.735547,34.505203,7.962984
48187,-5.549934,-0.425261,7.101371,-0.658489,0.817142,-0.851087,-0.300951,0.777462,0.705621,-0.055207,-0.004341,0.071235,0.999985,-0.001505,0.003887,0.003528,-0.944960,0.110412,-0.292279,-0.097116,-10.688923,35.017793,8.354854
48188,-5.875619,-1.048362,6.891443,-0.798360,0.127905,-0.731962,-0.292351,0.851537,0.706228,-0.058425,-0.010589,0.069179,0.999984,-0.001462,0.004258,0.003531,-0.943191,0.111188,-0.296533,-0.100481,-10.637821,35.571489,8.740577
48189,-6.274475,-1.038802,7.162003,-0.885284,0.160779,-0.276855,-0.241221,0.883679,0.702140,-0.062391,-0.010521,0.071909,0.999983,-0.001206,0.004418,0.003511,-0.941372,0.111742,-0.300954,-0.103730,-10.556453,36.142914,9.122856
48190,-6.414140,-1.042097,7.226804,-0.865905,0.154434,-0.133873,-0.193565,0.862711,0.696557,-0.063792,-0.010573,0.072554,0.999984,-0.000968,0.004314,0.003483,-0.939583,0.112065,-0.305285,-0.106889,-10.443035,36.700995,9.507846
48191,-6.067721,-0.436941,7.420781,-0.555731,0.824102,-0.268711,-0.175340,0.856450,0.739162,-0.060342,-0.004528,0.074471,0.999984,-0.000877,0.004282,0.003696,-0.937760,0.112231,-0.309614,-0.110220,-10.294980,37.259693,9.928189
48192,-5.532648,-0.169573,7.158880,-0.266014,1.072834,-0.831256,-0.257809,0.917521,0.870273,-0.054989,-0.001843,0.071844,0.999979,-0.001289,0.004588,0.004351,-0.935690,0.112609,-0.314243,-0.114255,-10.135527,37.864788,10.439031
48193,-5.580846,-0.196668,6.983084,-0.299337,0.982564,-0.930566,-0.250908,1.028108,1.040029,-0.055438,-0.002168,0.070119,0.999972,-0.001255,0.005140,0.005200,-0.933306,0.112747,-0.319476,-0.119007,-9.896396,38.548257,11.065030
48194,-6.069679,-0.001151,7.278584,-0.455468,1.162822,-0.418112,-0.240660,1.097428,1.194432,-0.060295,-0.000285,0.073118,0.999966,-0.001203,0.005487,0.005972,-0.930669,0.112623,-0.325103,-0.124415,-9.573805,39.282945,11.804833
48195,-6.714640,-0.048565,7.662473,-0.587385,1.109484,0.297946,-0.335734,1.125937,1.192866,-0.066710,-0.000755,0.077002,0.999965,-0.001679,0.005630,0.005964,-0.927867,0.112955,-0.330783,-0.129947,-9.292883,40.031034,12.553073
48196,-6.956962,-1.174540,7.782205,-0.213688,0.036731,0.689365,-0.438680,1.068331,1.128345,-0.069085,-0.011965,0.078218,0.999967,-0.002193,0.005342,0.005642,-0.925082,0.113826,-0.336067,-0.135372,-9.082440,40.737684,13.272366
48197,-7.255485,-1.787773,7.900941,-0.030384,-0.558731,1.047721,-0.292628,0.988997,1.013968,-0.072071,-0.018128,0.079393,0.999974,-0.001463,0.004945,0.005070,-0.922535,0.114152,-0.341001,-0.140061,-8.824562,41.387471,13.926592
48198,-7.227233,-1.679404,8.236912,0.280655,-0.356015,1.264014,-0.199162,0.889179,0.857306,-0.071832,-0.017020,0.082706,0.999980,-0.000996,0.004446,0.004286,-0.920279,0.114240,-0.345432,-0.143918,-8.572664,41.964462,14.483448
48199,-6.951969,-1.506015,8.105222,0.452488,-0.189953,0.960001,-0.121266,0.820891,0.739177,-0.069130,-0.015267,0.081346,0.999985,-0.000606,0.004104,0.003696,-0.918237,0.114120,-0.349528,-0.147131,-8.321976,42.491457,14.966117
48200,-6.522040,-1.189708,7.604005,0.443383,0.022985,0.265776,-0.074810,0.794879,0.693939,-0.064876,-0.012094,0.076303,0.999986,-0.000374,0.003974,0.003470,-0.916274,0.113843,-0.353499,-0.150065,-8.058483,42.997919,15.423750
48201,-6.520447,-0.668732,7.322660,0.182593,0.406178,0.004932,0.036916,0.824416,0.739088,-0.064877,-0.006941,0.073493,0.999985,0.000185,0.004122,0.003695,-0.914260,0.112993,-0.357708,-0.152988,-7.700637,43.523320,15.921213
48202,-6.571056,0.243254,7.363224,-0.059677,1.235444,-0.018592,0.001814,0.851079,0.830534,-0.065406,0.002160,0.073911,0.999982,0.000009,0.004255,0.004153,-0.912080,0.112157,-0.362048,-0.156370,-7.305444,44.067862,16.496870
48203,-6.725651,0.132175,7.269917,-0.085429,1.052357,0.035558,-0.133182,0.889947,0.926653,-0.066937,0.001060,0.072997,0.999979,-0.000666,0.004450,0.004633,-0.909642,0.111788,-0.366503,-0.160409,-6.925199,44.638941,17.155936
48204,-7.332791,-0.326070,7.346222,-0.174012,0.507768,0.558136,-0.178595,0.879971,0.992493,-0.072987,-0.003558,0.073787,0.999978,-0.000893,0.004400,0.004962,-0.907105,0.111493,-0.370894,-0.164828,-6.520056,45.205080,17.880605
48205,-7.636579,-0.803510,7.364889,-0.073665,-0.011210,0.826766,-0.177622,0.830048,0.956517,-0.076020,-0.008334,0.073972,0.999980,-0.000888,0.004150,0.004783,-0.904650,0.111213,-0.375026,-0.169103,-6.117728,45.737318,18.593544
48206,-7.998001,-1.321571,7.569533,0.127622,-0.516715,1.265588,-0.166017,0.744220,0.823114,-0.079642,-0.013481,0.076003,0.999984,-0.000830,0.003721,0.004116,-0.902443,0.111055,-0.378688,-0.172794,-5.769869,46.209015,19.215552
48207,-7.905775,-1.800842,7.312146,0.309308,-1.036350,1.051998,-0.027683,0.616843,0.694483,-0.078769,-0.018272,0.073367,0.999989,-0.000138,0.003084,0.003472,-0.900640,0.110403,-0.381818,-0.175710,-5.402153,46.598619,19.750945
48208,-7.570846,-0.992504,7.387386,0.334315,-0.216517,0.804141,0.118825,0.543658,0.575646,-0.075478,-0.010186,0.074073,0.999992,0.000594,0.002718,0.002878,-0.899146,0.109252,-0.384669,-0.177846,-5.011186,46.937406,20.199952
48209,-7.495856,-0.465072,7.365896,0.226263,0.253688,0.701334,0.073888,0.481258,0.508983,-0.074769,-0.004868,0.073837,0.999994,0.000369,0.002406,0.002545,-0.897793,0.108373,-0.387162,-0.179802,-4.677417,47.235809,20.603596
48210,-7.145750,-0.223100,7.043726,0.200511,0.431776,0.212215,0.054588,0.451753,0.501186,-0.071292,-0.002429,0.070598,0.999994,0.000273,0.002259,0.002506,-0.896483,0.107569,-0.389493,-0.181773,-4.353518,47.515007,21.007070
48211,-6.880605,0.051820,6.902841,0.220444,0.680906,-0.092498,0.001468,0.472326,0.589461,-0.068644,0.000315,0.069191,0.999993,0.000007,0.002362,0.002947,-0.895012,0.106848,-0.391913,-0.184231,-4.000532,47.808428,21.489115
48212,-6.948027,0.155065,6.647719,0.027631,0.650612,-0.217540,-0.011546,0.504047,0.717000,-0.069317,0.001306,0.066652,0.999990,-0.000058,0.002520,0.003585,-0.893340,0.105963,-0.394521,-0.187264,-3.569725,48.122182,22.083773
48213,-7.274185,0.020278,6.654904,-0.046912,0.422592,0.037220,-0.074956,0.517338,0.799922,-0.072569,-0.000063,0.066737,0.999989,-0.000375,0.002587,0.004000,-0.891510,0.105207,-0.397169,-0.190782,-3.114525,48.443600,22.756691
48214,-7.407884,-0.564478,6.395575,0.017294,-0.260563,-0.013198,-0.017737,0.500806,0.877128,-0.073893,-0.005963,0.064141,0.999987,-0.000089,0.002504,0.004386,-0.889649,0.104026,-0.399824,-0.194534,-2.567486,48.753446,23.505203
48215,-7.582307,-0.209377,6.551122,-0.060280,0.024195,0.209662,0.093277,0.471433,0.945622,-0.075657,-0.002482,0.065689,0.999986,0.000466,0.002357,0.004728,-0.887812,0.102181,-0.402485,-0.198380,-1.901067,49.043117,24.324147
48216,-7.567910,0.017250,6.388755,-0.182901,0.122280,0.088857,0.132425,0.435709,1.025317,-0.075539,-0.000257,0.064052,0.999984,0.000662,0.002179,0.005127,-0.885963,0.099964,-0.405051,-0.202512,-1.148995,49.306489,25.223369
48217,-7.487548,0.399537,6.260708,-0.314563,0.383735,-0.057048,0.149845,0.437944,1.053499,-0.074758,0.003554,0.062774,0.999983,0.000749,0.002190,0.005267,-0.884058,0.097612,-0.407649,-0.206726,-0.357319,49.563778,26.157912
48218,-7.474409,0.372081,6.199641,-0.260166,0.280753,-0.102205,0.125598,0.455545,1.078242,-0.074621,0.003279,0.062169,0.999983,0.000628,0.002278,0.005391,-0.882051,0.095331,-0.410294,-0.211083,0.447422,49.822286,27.124391
48219,-7.532452,0.324299,6.010064,-0.322035,0.093795,-0.176792,0.172311,0.479426,1.107761,-0.075196,0.002774,0.060284,0.999981,0.000862,0.002397,0.005539,-0.879953,0.092805,-0.413097,-0.215456,1.311007,50.085448,28.128876
48220,-7.729040,0.487089,6.055177,-0.392236,0.125095,0.009222,0.259798,0.465842,1.162710,-0.077175,0.004343,0.060737,0.999980,0.001299,0.002329,0.005814,-0.877831,0.089763,-0.415940,-0.219887,2.273607,50.329158,29.193463
48221,-7.734611,0.564670,6.065063,-0.336279,0.111914,0.026067,0.386413,0.402910,1.280629,-0.077257,0.005034,0.060816,0.999976,0.001932,0.002015,0.006403,-0.875725,0.085846,-0.418683,-0.224591,3.400354,50.521409,30.373325
48222,-7.888721,0.852379,6.197358,-0.370817,0.252357,0.245268,0.598641,0.291975,1.491441,-0.078856,0.007750,0.062113,0.999967,0.002993,0.001460,0.007457,-0.873656,0.080430,-0.421241,-0.229808,4.798911,50.624660,31.745340
48223,-7.931685,1.228759,6.268201,-0.424121,0.443805,0.352531,0.847936,0.121016,1.823724,-0.079385,0.011298,0.062779,0.999949,0.004240,0.000605,0.009118,-0.871590,0.073020,-0.423441,-0.236001,6.564108,50.587843,33.406043
48224,-7.739672,2.052838,6.371253,-0.538822,1.070766,0.349381,1.097929,-0.035717,2.197959,-0.077625,0.019326,0.063807,0.999925,0.005490,-0.000179,0.010990,-0.869397,0.063536,-0.425331,-0.243322,8.707829,50.397242,35.374599
48225,-7.578419,2.762245,6.436422,-0.644360,1.534236,0.371350,1.137770,-0.109556,2.500124,-0.076154,0.026305,0.064475,0.999906,0.005689,-0.000548,0.012500,-0.866855,0.053133,-0.426976,-0.251854,11.047820,50.086721,37.575577
48226,-7.589320,2.850726,6.428130,-0.596608,1.347853,0.427721,1.054504,-0.145873,2.648708,-0.076306,0.027159,0.064371,0.999898,0.005272,-0.000729,0.013243,-0.864012,0.042720,-0.428310,-0.261167,13.395129,49.680211,39.860336
48227,-7.686395,2.510315,6.495376,-0.328486,0.771681,0.524727,0.982453,-0.171577,2.719628,-0.077249,0.023735,0.065006,0.999895,0.004912,-0.000858,0.013598,-0.860934,0.032421,-0.429369,-0.270893,15.695441,49.190137,42.152409
48228,-7.806163,2.249601,6.613396,-0.067186,0.262892,0.658853,1.013279,-0.216346,2.751703,-0.078430,0.021083,0.066158,0.999892,0.005066,-0.001082,0.013758,-0.857732,0.021856,-0.430186,-0.280639,17.967945,48.610857,44.403089
48229,-7.849086,2.482965,6.667442,-0.058203,0.178852,0.779067,1.049152,-0.278495,2.741211,-0.078911,0.023400,0.066690,0.999891,0.005246,-0.001392,0.013706,-0.854492,0.011065,-0.430696,-0.290210,20.178935,47.942666,46.565079
48230,-7.874211,2.847560,6.976331,0.073461,0.272028,1.081999,1.020578,-0.342146,2.667614,-0.079229,0.027065,0.069769,0.999897,0.005103,-0.001711,0.013338,-0.851315,0.000462,-0.430793,-0.299467,22.247451,47.202289,48.580829
48231,-7.696452,2.832221,6.962647,0.241557,0.073451,0.942090,0.885018,-0.407942,2.532105,-0.077454,0.027036,0.069590,0.999908,0.004425,-0.002040,0.012660,-0.848312,-0.009374,-0.430325,-0.308383,24.080282,46.412107,50.404471
48232,-7.525957,2.798588,6.754386,0.257390,-0.167769,0.675124,0.835436,-0.436366,2.340740,-0.075725,0.026819,0.067493,0.999920,0.004177,-0.002182,0.011703,-0.845523,-0.018627,-0.429591,-0.316538,25.711988,45.615808,52.012799
48233,-6.944019,3.062862,6.624892,0.338290,0.107535,0.255075,0.690623,-0.427321,2.135776,-0.069902,0.029655,0.066203,0.999935,0.003453,-0.002137,0.010679,-0.842926,-0.026813,-0.428626,-0.324093,27.105054,44.847322,53.423003
48234,-7.308775,2.357915,7.065018,0.939839,-0.757756,0.552218,0.631979,-0.315057,2.094529,-0.073439,0.022588,0.070607,0.999939,0.003160,-0.001575,0.010472,-0.840059,-0.034476,-0.427986,-0.331572,28.428673,44.123326,54.801176
48235,-7.084386,3.093161,6.461280,0.270400,-0.394619,0.250678,0.969387,-0.329868,2.032337,-0.071258,0.029896,0.064642,0.999935,0.004847,-0.001649,0.010161,-0.837160,-0.043445,-0.427803,-0.338024,29.871287,43.385852,56.089588
48236,-6.388879,4.400597,6.629918,0.060034,0.862964,0.355251,0.768262,-0.225699,1.992554,-0.064396,0.043111,0.066393,0.999942,0.003841,-0.001128,0.009963,-0.834047,-0.051304,-0.427669,-0.344721,31.169090,42.689247,57.352383
48237,-6.411819,4.306265,6.540451,0.100054,0.573863,0.291305,0.577093,-0.093930,1.928139,-0.064559,0.042253,0.065497,0.999949,0.002885,-0.000470,0.009641,-0.830720,-0.057998,-0.427728,-0.351554,32.332058,42.056662,58.593050
48238,-6.478980,4.116605,6.341900,0.090367,0.185078,0.142140,0.433226,0.011731,1.845705,-0.065161,0.040428,0.063511,0.999955,0.002166,0.000059,0.009228,-0.827274,-0.063723,-0.427952,-0.358348,33.377188,41.482972,59.795700
48239,-6.527881,4.156559,6.642022,0.339574,0.096256,0.379475,0.359357,0.061082,1.708137,-0.065610,0.040887,0.066514,0.999962,0.001797,0.000305,0.008541,-0.823922,-0.068759,-0.428259,-0.364718,34.313091,40.961262,60.909300
48240,-6.710753,3.958633,6.780969,0.541913,-0.268535,0.498442,0.186310,0.086862,1.524420,-0.067377,0.039010,0.067875,0.999970,0.000932,0.000434,0.007622,-0.820855,-0.072633,-0.428387,-0.370684,35.062502,40.499341,61.900725
48241,-6.625948,3.320996,6.541271,0.790629,-0.821887,0.006622,0.142421,0.109876,1.389736,-0.066452,0.032702,0.065473,0.999975,0.000712,0.000549,0.006949,-0.817956,-0.075995,-0.428556,-0.376181,35.725787,40.083628,62.806183
48242,-6.405891,3.599692,6.425586,0.679626,-0.592667,-0.093260,0.260335,0.146552,1.284506,-0.064241,0.035501,0.064349,0.999978,0.001302,0.000733,0.006422,-0.815096,-0.079538,-0.429115,-0.380990,36.413277,39.712307,63.652077
48243,-6.344429,4.017651,6.514084,0.592383,-0.331434,0.105222,0.278537,0.160003,1.198937,-0.063631,0.039705,0.065247,0.999981,0.001393,0.000800,0.005995,-0.812326,-0.082945,-0.429781,-0.385401,37.072726,39.368876,64.443360
48244,-6.357464,4.202071,6.325229,0.397134,-0.337027,0.077263,0.297587,0.166580,1.137207,-0.063759,0.041564,0.063367,0.999982,0.001488,0.000833,0.005686,-0.809626,-0.086279,-0.430518,-0.389508,37.712224,39.043042,65.192032
48245,-6.381851,4.659557,6.331636,0.192786,-0.124987,0.310333,0.278770,0.142266,1.057170,-0.064018,0.046169,0.063426,0.999985,0.001394,0.000711,0.005286,-0.807112,-0.089411,-0.431142,-0.393309,38.297264,38.728266,65.875769
48246,-6.287226,4.681777,6.125399,0.099172,-0.161780,0.133776,0.203046,0.127511,0.989057,-0.063063,0.046444,0.061341,0.999987,0.001015,0.000638,0.004945,-0.804777,-0.092115,-0.431574,-0.396980,38.802660,38.426175,66.506512
48247,-6.150097,4.707131,5.882923,-0.016122,-0.166683,-0.088442,0.202635,0.140665,0.961156,-0.061685,0.046715,0.058920,0.999988,0.001013,0.000703,0.004806,-0.802446,-0.094731,-0.432061,-0.400536,39.296099,38.135692,67.121919
48248,-6.145273,5.061080,5.872878,-0.179377,-0.002454,0.078564,0.187892,0.152857,0.951017,-0.061647,0.050263,0.058823,0.999988,0.000939,0.000764,0.004755,-0.800099,-0.097236,-0.432560,-0.404078,39.774628,37.850240,67.731321
48249,-6.197462,5.024751,5.705463,-0.264124,-0.167562,-0.009085,0.126748,0.154120,0.955318,-0.062170,0.049915,0.057134,0.999988,0.000634,0.000771,0.004777,-0.797748,-0.099504,-0.432930,-0.407761,40.214866,37.559884,68.338798
48250,-6.248642,5.069655,5.767531,-0.221074,-0.232371,0.082161,0.068577,0.150136,0.926046,-0.062677,0.050387,0.057740,0.999989,0.000343,0.000751,0.004630,-0.795477,-0.101480,-0.433168,-0.411441,40.604841,37.275222,68.922943
48251,-6.271081,4.832141,5.725846,-0.094895,-0.472507,-0.054166,-0.001470,0.132106,0.867666,-0.062882,0.048049,0.057300,0.999990,-0.000007,0.000661,0.004338,-0.793383,-0.103088,-0.433212,-0.415023,40.926053,37.001677,69.462845
48252,-6.191462,4.611183,5.742546,0.092709,-0.606192,-0.210724,-0.003468,0.135559,0.811223,-0.062062,0.045861,0.057467,0.999992,-0.000017,0.000678,0.004056,-0.791386,-0.104554,-0.433285,-0.418379,41.224013,36.748580,69.969787
48253,-6.276239,4.695571,5.699467,0.014283,-0.678474,-0.145078,0.025390,0.113281,0.769580,-0.062910,0.046707,0.057036,0.999992,0.000127,0.000566,0.003848,-0.789495,-0.106092,-0.433347,-0.421489,41.515752,36.499581,70.441001
48254,-6.199558,4.868153,5.852649,0.079437,-0.534772,-0.009913,0.016861,0.097244,0.735438,-0.062146,0.048448,0.058561,0.999993,0.000084,0.000486,0.003677,-0.787705,-0.107552,-0.433337,-0.424468,41.783355,36.254884,70.883082
48255,-6.171187,4.790962,5.723657,0.055787,-0.638304,-0.149028,0.047028,0.080178,0.737023,-0.061865,0.047668,0.057273,0.999993,0.000235,0.000401,0.003685,-0.785919,-0.109170,-0.433319,-0.427373,42.061276,36.000626,71.315422
48256,-6.113847,5.126328,5.785079,-0.049647,-0.432182,0.032917,0.082436,0.066967,0.757810,-0.061313,0.051007,0.057892,0.999993,0.000412,0.000335,0.003789,-0.784088,-0.110998,-0.433305,-0.430270,42.358278,35.731000,71.748993
48257,-5.956249,5.341977,5.702684,-0.173412,-0.254764,0.007645,0.053112,0.052034,0.774151,-0.059754,0.053174,0.057057,0.999992,0.000266,0.000260,0.003871,-0.782257,-0.112778,-0.433156,-0.433279,42.636266,35.447013,72.181131
48258,-5.799600,5.381243,5.681905,-0.151917,-0.172023,-0.074915,0.020759,0.051810,0.767050,-0.058187,0.053584,0.056840,0.999993,0.000104,0.000259,0.003835,-0.780450,-0.114413,-0.432931,-0.436323,42.889456,35.164038,72.606008
48259,-5.800380,5.418108,5.693111,-0.146222,-0.205081,-0.048052,-0.010116,0.050905,0.756519,-0.058194,0.053964,0.056943,0.999993,-0.000051,0.000255,0.003783,-0.778672,-0.115908,-0.432637,-0.439387,43.118761,34.883381,73.022494
48260,-5.994901,5.521003,5.873128,-0.094840,-0.318391,0.227396,-0.004829,0.056067,0.772506,-0.060145,0.054979,0.058747,0.999993,-0.000024,0.000280,0.003863,-0.776835,-0.117442,-0.432356,-0.442497,43.353298,34.597187,73.446389
48261,-7.065435,5.995990,6.509925,-0.106945,-0.832214,1.480970,0.086736,-0.064473,0.896983,-0.070943,0.059614,0.065102,0.999990,0.000434,-0.000322,0.004485,-0.774913,-0.119867,-0.431732,-0.445814,43.639798,34.210269,73.872436
48262,-7.546879,6.694983,7.310902,0.010360,-0.764456,2.622806,0.029501,-0.361972,1.093861,-0.075966,0.066524,0.072982,0.999983,0.000148,-0.001810,0.005469,-0.773209,-0.123154,-0.429694,-0.449826,43.862971,33.620611,74.249739
48263,-7.005727,6.341293,7.121602,0.187874,-0.717457,1.996508,-0.077344,-0.684932,1.303809,-0.070712,0.062981,0.070950,0.999973,-0.000387,-0.003425,0.006519,-0.771756,-0.127201,-0.426022,-0.454661,43.991431,32.813356,74.572295
48264,-6.230025,6.157861,7.019759,0.365804,-0.385041,1.400008,-0.058487,-0.921099,1.439158,-0.063064,0.061147,0.069890,0.999963,-0.000292,-0.004605,0.007196,-0.770439,-0.132136,-0.421366,-0.459799,44.098983,31.854286,74.843989
48265,-5.688673,6.406802,7.020521,0.301827,0.004711,1.259867,-0.087398,-1.052274,1.482457,-0.057728,0.063673,0.069875,0.999959,-0.000437,-0.005261,0.007412,-0.769255,-0.137344,-0.416078,-0.465041,44.163030,30.823761,75.070977
48266,-6.118936,6.908422,7.334075,0.097321,-0.237755,1.972309,-0.158550,-1.155888,1.546563,-0.062144,0.068664,0.072929,0.999953,-0.000793,-0.005779,0.007733,-0.768119,-0.142638,-0.410142,-0.470564,44.171801,29.724833,75.277007
48267,-5.899125,8.313590,7.951470,-0.307506,0.535763,3.100616,-0.326181,-1.347026,1.648576,-0.060208,0.082772,0.078977,0.999942,-0.001631,-0.006735,0.008243,-0.767171,-0.147934,-0.402965,-0.476637,44.061665,28.506858,75.442841
48268,-7.436457,6.205792,7.235883,-0.013762,-2.200400,2.075195,-0.825571,-1.591812,1.768216,-0.075482,0.061690,0.071506,0.999921,-0.004128,-0.007959,0.008841,-0.766696,-0.152117,-0.393511,-0.483928,43.638505,27.140836,75.558819
48269,-5.514446,5.679316,7.288349,0.652402,-1.052631,0.875764,-0.577407,-1.935489,1.898048,-0.056382,0.056471,0.072178,0.999904,-0.002887,-0.009677,0.009490,-0.766257,-0.158312,-0.383175,-0.490881,43.318668,25.581585,75.592469
48270,-3.492376,4.463675,6.091077,0.876904,-0.248298,-1.543004,-0.535376,-1.927406,1.803180,-0.035909,0.044478,0.060449,0.999909,-0.002677,-0.009637,0.009016,-0.765860,-0.164436,-0.372973,-0.497304,43.008574,24.062934,75.594680
48271,-3.056242,4.089201,5.816515,0.937809,-0.249583,-2.134825,-0.180168,-1.730614,1.564720,-0.031383,0.040701,0.057859,0.999932,-0.000901,-0.008653,0.007823,-0.765272,-0.170960,-0.364546,-0.502233,42.894738,22.720095,75.577957
48272,-3.467415,5.754158,6.290581,0.060735,-0.014978,-0.609543,-0.037891,-1.568786,1.301310,-0.035540,0.057324,0.062618,0.999948,-0.000189,-0.007844,0.006506,-0.764837,-0.177121,-0.357274,-0.505973,42.843897,21.547694,75.511942
48273,-3.811861,6.937565,6.796109,-0.485660,0.044377,0.608743,-0.250671,-1.490732,1.104958,-0.039006,0.069247,0.067586,0.999956,-0.001253,-0.007454,0.005525,-0.764872,-0.181904,-0.349904,-0.509361,42.653733,20.484547,75.393282
48274,-3.428514,6.829851,6.760991,-0.441416,0.176102,0.379652,-0.533154,-1.435807,1.014822,-0.035115,0.068301,0.067178,0.999958,-0.002666,-0.007179,0.005074,-0.765233,-0.185291,-0.342074,-0.512905,42.299368,19.478796,75.262695
48275,-2.552419,6.042130,6.423008,-0.053625,0.487824,-0.645673,-0.626955,-1.331542,0.989152,-0.026249,0.060493,0.063867,0.999961,-0.003135,-0.006658,0.004946,-0.765503,-0.187995,-0.334400,-0.516565,41.906281,18.526628,75.170841
48276,-1.985118,5.729902,6.221739,0.061893,0.749896,-1.157356,-0.540756,-1.133635,0.960382,-0.020478,0.057369,0.061947,0.999969,-0.002704,-0.005668,0.004802,-0.765382,-0.190455,-0.327707,-0.520120,41.586339,17.669337,75.152016
48277,-1.777856,5.862241,6.417361,0.084451,0.896168,-0.986721,-0.533443,-0.927601,0.864409,-0.018329,0.058715,0.063933,0.999976,-0.002667,-0.004638,0.004322,-0.765123,-0.192240,-0.321897,-0.523463,41.284180,16.936997,75.176964
48278,-1.797714,5.853882,6.432234,0.022498,0.788777,-0.966798,-0.591957,-0.722161,0.721349,-0.018420,0.058663,0.064083,0.999983,-0.002960,-0.003611,0.003607,-0.764932,-0.193024,-0.316841,-0.526529,40.953715,16.347234,75.222217
48279,-2.449273,5.996162,6.898086,0.013093,0.185828,-0.352190,-0.627181,-0.571102,0.606217,-0.024871,0.060102,0.068722,0.999986,-0.003136,-0.002855,0.003031,-0.764814,-0.193089,-0.312373,-0.529338,40.605915,15.866459,75.277985
48280,-2.745390,5.953076,7.079910,0.019026,-0.158786,-0.165144,-0.658169,-0.542684,0.540662,-0.027807,0.059688,0.070528,0.999987,-0.003291,-0.002713,0.002703,-0.764836,-0.192851,-0.307985,-0.531959,40.235308,15.422681,75.317866
48281,-2.770346,5.841718,7.352513,0.197283,-0.270370,-0.027640,-0.658468,-0.558364,0.523783,-0.028062,0.058585,0.073254,0.999987,-0.003292,-0.002792,0.002619,-0.764905,-0.192624,-0.303546,-0.534487,39.861788,14.978603,75.347137
48282,-2.678562,5.823998,7.357331,0.157633,-0.249124,-0.058905,-0.625500,-0.614460,0.484889,-0.027153,0.058404,0.073308,0.999987,-0.003127,-0.003072,0.002424,-0.765113,-0.192607,-0.299008,-0.536748,39.497377,14.524112,75.340197
48283,-2.396482,5.749767,7.294932,0.160404,-0.069688,-0.221668,-0.625633,-0.644021,0.394848,-0.024313,0.057678,0.072691,0.999988,-0.003128,-0.003220,0.001974,-0.765587,-0.192531,-0.294439,-0.538623,39.121142,14.089271,75.284177
48284,-2.502655,5.716392,7.390608,0.143575,-0.231381,-0.143837,-0.607679,-0.657804,0.296693,-0.025354,0.057351,0.073649,0.999989,-0.003038,-0.003289,0.001483,-0.766311,-0.192411,-0.289949,-0.540069,38.743921,13.683173,75.180889
48285,-2.745258,5.823818,7.508908,0.005455,-0.472106,0.067259,-0.580793,-0.716030,0.245566,-0.027792,0.058422,0.074821,0.999989,-0.002904,-0.003580,0.001228,-0.767213,-0.192473,-0.285355,-0.541212,38.373378,13.268715,75.035703
48286,-2.653734,5.943270,7.512553,-0.133345,-0.401161,0.118261,-0.530481,-0.785393,0.231469,-0.026901,0.059601,0.074862,0.999988,-0.002652,-0.003927,0.001157,-0.768187,-0.192891,-0.280635,-0.542150,38.025862,12.827028,74.861566
48287,-2.919642,6.022741,7.662764,-0.240516,-0.686512,0.335497,-0.491732,-0.873302,0.244672,-0.029604,0.060379,0.076351,0.999987,-0.002459,-0.004366,0.001223,-0.769190,-0.193710,-0.275665,-0.542985,37.697354,12.340081,74.664998
48288,-2.487636,6.086285,7.618859,-0.283563,-0.328405,0.241614,-0.502398,-0.970433,0.225747,-0.025314,0.061025,0.075913,0.999984,-0.002512,-0.004852,0.001129,-0.770367,-0.194719,-0.270300,-0.543652,37.355683,11.814346,74.428135
48289,-2.221839,5.793195,7.397347,-0.218147,-0.246291,-0.163374,-0.480509,-1.010391,0.208841,-0.022652,0.058086,0.073720,0.999984,-0.002403,-0.005052,0.001044,-0.771596,-0.195892,-0.264851,-0.544168,37.025378,11.275056,74.173013
48290,-1.858898,5.824944,7.365809,-0.239753,0.035142,-0.242889,-0.445684,-1.020818,0.193065,-0.019020,0.058395,0.073432,0.999984,-0.002228,-0.005104,0.000965,-0.772825,-0.197201,-0.259461,-0.544550,36.715608,10.734844,73.910295
48291,-1.573320,5.793848,7.253540,-0.277493,0.227053,-0.403724,-0.395691,-0.959436,0.198027,-0.016138,0.058066,0.072344,0.999986,-0.001978,-0.004797,0.000990,-0.773886,-0.198536,-0.254434,-0.544929,36.442110,10.220065,73.674597
48292,-1.943478,6.300941,7.567637,-0.626476,-0.037843,0.204969,-0.278980,-0.918351,0.263216,-0.019865,0.063089,0.075498,0.999988,-0.001395,-0.004592,0.001316,-0.774582,-0.200288,-0.249809,-0.545438,36.245388,9.700974,73.486012
48293,-1.896892,6.587734,7.861808,-0.713267,0.009424,0.593785,-0.368493,-0.954709,0.308559,-0.019445,0.065992,0.078404,0.999986,-0.001842,-0.004774,0.001543,-0.775267,-0.201845,-0.244751,-0.546183,36.001326,9.149226,73.308704
48294,-2.255762,6.351866,8.172921,-0.524282,-0.506079,0.756097,-0.370091,-0.980583,0.377422,-0.023078,0.063626,0.081499,0.999984,-0.001850,-0.004903,0.001887,-0.775775,-0.203543,-0.239508,-0.547155,35.761739,8.561412,73.157471
48295,-2.861050,6.488539,8.674062,-0.582260,-1.164788,1.315145,-0.355677,-1.168302,0.438898,-0.029259,0.064976,0.086455,0.999979,-0.001778,-0.005841,0.002194,-0.776295,-0.205878,-0.233508,-0.548137,35.527970,7.865276,72.974669
48296,-1.911048,5.991811,8.571808,-0.088542,-0.531244,0.805111,-0.560624,-1.371627,0.404741,-0.019818,0.060118,0.085415,0.999971,-0.002803,-0.006858,0.002024,-0.777319,-0.207923,-0.226178,-0.548988,35.168274,7.084292,72.711628
48297,-1.036010,4.830454,7.910921,0.566124,-0.124926,-0.504008,-0.586049,-1.424941,0.298252,-0.010995,0.048520,0.078890,0.999969,-0.002930,-0.007125,0.001491,-0.778673,-0.209884,-0.218671,-0.549364,34.790676,6.311874,72.386254
48298,-1.219618,4.707866,8.027838,0.586048,-0.452606,-0.455981,-0.321813,-1.394693,0.240261,-0.012812,0.047193,0.080115,0.999974,-0.001609,-0.006973,0.001201,-0.779832,-0.212713,-0.212051,-0.549227,34.566992,5.570647,72.047752
48299,-1.397826,5.566749,8.268557,-0.061013,-0.497949,0.240090,-0.150100,-1.474654,0.264636,-0.014661,0.055710,0.082537,0.999972,-0.000750,-0.007373,0.001323,-0.780782,-0.216447,-0.205558,-0.548886,34.445494,4.783033,71.697539
48300,-1.028739,6.197541,8.397769,-0.424054,-0.102100,0.665776,-0.125165,-1.515473,0.345560,-0.011030,0.062009,0.083857,0.999970,-0.000626,-0.007577,0.001728,-0.781480,-0.220460,-0.198871,-0.548760,34.344912,3.948965,71.374282
48301,-0.697480,6.229161,8.323213,-0.457160,0.092669,0.596209,-0.257427,-1.570001,0.391515,-0.007750,0.062384,0.083093,0.999966,-0.001287,-0.007850,0.001958,-0.782200,-0.224137,-0.191548,-0.548848,34.174131,3.073807,71.057623
48302,0.210449,5.307498,7.811430,0.189301,0.619567,-0.388737,-0.406731,-1.523605,0.368128,0.001412,0.053237,0.078019,0.999967,-0.002034,-0.007618,0.001841,-0.783056,-0.227066,-0.184006,-0.549004,33.922519,2.226703,70.748134
48303,0.319518,4.587614,7.508073,0.549502,0.445068,-1.036687,-0.273755,-1.398358,0.311710,0.002599,0.045983,0.075037,0.999973,-0.001369,-0.006992,0.001559,-0.783754,-0.230106,-0.177376,-0.548926,33.752377,1.456375,70.455144
48304,-0.021560,4.853966,7.850869,0.356619,0.038357,-0.589464,-0.060425,-1.283988,0.290816,-0.000790,0.048563,0.078490,0.999978,-0.000302,-0.006420,0.001454,-0.784124,-0.233638,-0.171791,-0.548681,33.708403,0.746346,70.190037
48305,-0.569055,5.795698,8.215249,-0.413206,-0.382020,0.241482,0.082162,-1.277457,0.307189,-0.006304,0.057914,0.082137,0.999978,0.000411,-0.006387,0.001536,-0.784241,-0.237716,-0.166601,-0.548362,33.749847,0.034496,69.934943
48306,-0.173891,6.090864,8.431854,-0.442525,-0.087084,0.580587,-0.103436,-1.326232,0.331388,-0.002399,0.060949,0.084273,0.999977,-0.000517,-0.006631,0.001657,-0.784519,-0.241208,-0.160670,-0.548209,33.687849,-0.708624,69.675923
48307,0.727547,5.101990,7.723924,0.219797,0.512151,-0.544089,-0.269359,-1.276903,0.277860,0.006711,0.051133,0.077214,0.999978,-0.001347,-0.006384,0.001389,-0.785067,-0.243861,-0.154539,-0.548014,33.534589,-1.411405,69.408431
48308,0.805433,4.759306,7.656870,0.428387,0.410233,-0.780812,-0.175509,-1.144166,0.194578,0.007570,0.047668,0.076571,0.999983,-0.000878,-0.005721,0.000973,-0.785596,-0.246443,-0.149277,-0.547559,33.437687,-2.025320,69.144496
48309,0.337010,5.044911,8.058890,0.197802,-0.125660,-0.301918,-0.041161,-1.081622,0.171497,0.002891,0.050468,0.080595,0.999985,-0.000206,-0.005408,0.000857,-0.785949,-0.249358,-0.144657,-0.546973,33.420499,-2.602026,68.889843
48310,0.514778,5.666645,8.212481,-0.189854,0.086320,0.176127,-0.059184,-1.094901,0.148329,0.004656,0.056694,0.082134,0.999985,-0.000296,-0.005474,0.000742,-0.786374,-0.252213,-0.139955,-0.546275,33.395941,-3.178146,68.619940
48311,0.559123,5.652614,8.098853,-0.261053,0.062895,0.075853,-0.115903,-1.053225,0.171177,0.005116,0.056578,0.080984,0.999986,-0.000580,-0.005266,0.000856,-0.786756,-0.254740,-0.135233,-0.545743,33.340462,-3.741428,68.374448
48312,0.415212,5.871751,8.192603,-0.486573,-0.121780,0.262837,-0.111850,-1.069136,0.199503,0.003656,0.058767,0.081914,0.999985,-0.000559,-0.005346,0.000998,-0.787042,-0.257337,-0.130416,-0.545283,33.288754,-4.321755,68.137854
48313,0.533768,5.873304,8.192521,-0.495329,-0.100130,0.269066,-0.207736,-1.079501,0.219995,0.004831,0.058824,0.081891,0.999984,-0.001039,-0.005397,0.001100,-0.787378,-0.259592,-0.125270,-0.544936,33.184326,-4.913507,67.908499
48314,1.026753,5.373751,7.871321,-0.125557,0.222218,-0.230247,-0.267539,-1.063803,0.224411,0.009789,0.053854,0.078694,0.999984,-0.001338,-0.005319,0.001122,-0.787745,-0.261562,-0.120010,-0.544647,33.046861,-5.499888,67.687217
48315,0.928610,5.184650,7.845135,-0.078798,0.008453,-0.363768,-0.214075,-1.005371,0.215815,0.008836,0.051940,0.078441,0.999986,-0.001070,-0.005027,0.001079,-0.788007,-0.263572,-0.115137,-0.544352,32.941097,-6.055668,67.481178
48316,1.006697,5.284713,7.939042,-0.134324,0.002916,-0.223562,-0.187989,-0.970004,0.191664,0.009631,0.052931,0.079388,0.999987,-0.000940,-0.004850,0.000958,-0.788259,-0.265566,-0.110498,-0.543979,32.851806,-6.587571,67.275236
48317,0.751768,5.406510,8.076870,-0.313350,-0.315517,-0.074467,-0.165939,-0.959733,0.193378,0.007078,0.054139,0.080758,0.999988,-0.000830,-0.004799,0.000967,-0.788451,-0.267614,-0.105960,-0.543600,32.776902,-7.115043,67.073910
48318,0.796966,5.734020,8.261620,-0.523024,-0.321528,0.256615,-0.187417,-0.981934,0.182124,0.007512,0.057425,0.082600,0.999987,-0.000937,-0.004910,0.000911,-0.788694,-0.269624,-0.101283,-0.543145,32.692665,-7.650316,66.860660
48319,0.866759,5.449481,8.327015,-0.295436,-0.430229,0.162990,-0.321537,-1.014069,0.137128,0.008208,0.054634,0.083225,0.999986,-0.001608,-0.005070,0.000686,-0.789234,-0.271164,-0.096178,-0.542521,32.538267,-8.187299,66.616343
48320,0.839852,4.738175,8.308338,0.191817,-0.709126,-0.239616,-0.397252,-1.069000,0.044747,0.007944,0.047549,0.083032,0.999984,-0.001986,-0.005345,0.000224,-0.790130,-0.272499,-0.090769,-0.541479,32.351288,-8.723507,66.311067
48321,1.138830,4.188823,8.090363,0.594301,-0.581782,-0.669121,-0.362510,-1.109791,-0.103907,0.010961,0.042029,0.080889,0.999983,-0.001813,-0.005549,-0.000520,-0.791373,-0.274007,-0.085497,-0.539759,32.200550,-9.234500,65.921441
48322,1.152762,4.060687,8.214645,0.702010,-0.715490,-0.631561,-0.287703,-1.135012,-0.252641,0.011113,0.040711,0.082152,0.999982,-0.001439,-0.005675,-0.001263,-0.792897,-0.275804,-0.080523,-0.537366,32.108819,-9.713569,65.451407
48323,1.198524,4.355330,8.318156,0.479902,-0.701814,-0.385405,-0.206442,-1.174057,-0.373698,0.011578,0.043617,0.083205,0.999980,-0.001032,-0.005870,-0.001868,-0.794621,-0.277970,-0.075781,-0.534385,32.080213,-10.174817,64.909520
48324,1.310602,5.206956,8.376303,-0.178066,-0.459606,0.124568,-0.198415,-1.215342,-0.450394,0.012714,0.052124,0.083789,0.999979,-0.000992,-0.006077,-0.002252,-0.796522,-0.280237,-0.070995,-0.531018,32.069391,-10.633366,64.316364
48325,1.873106,5.505191,8.048332,-0.355811,0.178552,0.108621,-0.326092,-1.216774,-0.475293,0.018372,0.055139,0.080506,0.999977,-0.001630,-0.006084,-0.002376,-0.798633,-0.281978,-0.065901,-0.527571,31.992869,-11.085044,63.709944
48326,2.302118,5.404185,7.887402,-0.196215,0.530796,0.005431,-0.373082,-1.142560,-0.457230,0.022694,0.054137,0.078903,0.999979,-0.001865,-0.005713,-0.002286,-0.800703,-0.283330,-0.060946,-0.524294,31.887429,-11.507503,63.135223
48327,2.206115,4.890619,7.980870,0.168264,0.207377,-0.199796,-0.368859,-1.083733,-0.432488,0.021734,0.049006,0.079837,0.999981,-0.001844,-0.005419,-0.002162,-0.802653,-0.284541,-0.056206,-0.521177,31.782628,-11.909397,62.590922
48328,2.340334,5.036514,8.013896,0.082946,0.300844,-0.067512,-0.318689,-1.037075,-0.435554,0.023097,0.050442,0.080179,0.999983,-0.001593,-0.005185,-0.002178,-0.804498,-0.285820,-0.051780,-0.518081,31.707200,-12.288911,62.059329
48329,2.215551,4.982095,8.070683,0.052033,0.104467,-0.073491,-0.343069,-0.991542,-0.452994,0.021868,0.049910,0.080730,0.999984,-0.001715,-0.004958,-0.002265,-0.806385,-0.286869,-0.047503,-0.514969,31.620346,-12.641281,61.532869
48330,2.233754,5.030652,7.954276,-0.059600,0.138090,-0.140834,-0.314972,-0.963797,-0.475280,0.022074,0.050379,0.079570,0.999984,-0.001575,-0.004819,-0.002376,-0.808255,-0.287946,-0.043436,-0.511785,31.552961,-12.974541,61.003566
48331,2.279518,5.867854,8.151765,-0.674786,0.315786,0.459797,-0.384325,-0.934215,-0.518771,0.022567,0.058776,0.081511,0.999984,-0.001922,-0.004671,-0.002594,-0.810305,-0.288648,-0.039376,-0.508465,31.451976,-13.280660,60.461368
48332,2.070496,5.446526,8.162666,-0.479831,-0.025849,0.204775,-0.561142,-0.911379,-0.578343,0.020491,0.054635,0.081567,0.999982,-0.002806,-0.004557,-0.002892,-0.812730,-0.288554,-0.035040,-0.504955,31.257339,-13.559633,59.896361
48333,1.482818,6.288190,8.863967,-1.256481,-0.567884,1.068873,-0.624884,-0.954786,-0.647233,0.014609,0.063111,0.088513,0.999978,-0.003124,-0.004774,-0.003236,-0.815395,-0.288287,-0.030469,-0.501093,31.040510,-13.841001,59.283707
48334,1.465123,5.238774,9.426794,-0.327245,-1.187622,1.001061,-1.035572,-1.104304,-0.765115,0.014333,0.052820,0.094075,0.999964,-0.005178,-0.005521,-0.003826,-0.818923,-0.286686,-0.024423,-0.496568,30.616363,-14.165090,58.566875
48335,2.382543,3.651039,8.453107,0.983653,-0.556573,-0.368989,-1.097904,-1.221694,-0.921978,0.023479,0.036865,0.084473,0.999956,-0.005489,-0.006108,-0.004610,-0.822879,-0.285078,-0.017970,-0.491201,30.189047,-14.506336,57.736358
48336,2.919314,3.468718,8.201281,1.246063,-0.099204,-0.525470,-0.923477,-1.179986,-1.042215,0.028891,0.034915,0.082023,0.999958,-0.004617,-0.005900,-0.005211,-0.826806,-0.284051,-0.012281,-0.485341,29.877939,-14.798122,56.857663
48337,2.817387,4.068658,8.168587,0.643612,0.023625,-0.283660,-0.802708,-1.139814,-1.091154,0.027931,0.040862,0.081682,0.999961,-0.004013,-0.005699,-0.005456,-0.830613,-0.283399,-0.007125,-0.479288,29.643761,-15.059532,55.965939
48338,3.185617,4.484873,7.965672,0.407183,0.547612,-0.156170,-0.742668,-1.058330,-1.059671,0.031673,0.044976,0.079658,0.999965,-0.003713,-0.005292,-0.005298,-0.834194,-0.282781,-0.002401,-0.473445,29.436928,-15.293049,55.114325
48339,3.383655,4.924562,7.479264,0.003290,1.090220,-0.302106,-0.679937,-0.945661,-0.995983,0.033728,0.049332,0.074785,0.999971,-0.003400,-0.004728,-0.004980,-0.837481,-0.282141,0.001790,-0.467995,29.251913,-15.490493,54.328487
48340,3.543744,5.039893,7.615858,0.012324,1.194362,-0.089866,-0.695593,-0.751502,-0.933983,0.035387,0.050498,0.076116,0.999976,-0.003478,-0.003757,-0.004670,-0.840602,-0.280965,0.005296,-0.463054,29.036048,-15.611217,53.631195
48341,2.835427,5.124040,7.609630,-0.485138,0.690211,-0.247643,-0.620018,-0.656193,-0.845388,0.028322,0.051356,0.076030,0.999981,-0.003100,-0.003281,-0.004227,-0.843378,-0.279873,0.008347,-0.458601,28.845168,-15.710661,53.007551
48342,3.184568,5.590138,7.913787,-0.598567,1.026822,0.316794,-0.685173,-0.551457,-0.817204,0.031856,0.056042,0.079034,0.999982,-0.003426,-0.002757,-0.004086,-0.846154,-0.278253,0.011149,-0.454394,28.605342,-15.767935,52.428743
48343,2.436441,5.097499,8.195211,-0.624178,0.136438,0.120780,-0.792523,-0.504454,-0.832285,0.024371,0.051198,0.081811,0.999980,-0.003963,-0.002522,-0.004161,-0.849085,-0.276064,0.013971,-0.450165,28.303249,-15.799628,51.855513
48344,1.958175,4.500832,8.763252,-0.367253,-0.732079,0.198077,-0.786334,-0.546635,-0.848366,0.019534,0.045270,0.087508,0.999980,-0.003932,-0.002733,-0.004242,-0.852006,-0.273985,0.016939,-0.445793,28.010291,-15.851565,51.262073
48345,1.731428,4.455875,8.659457,-0.543750,-0.852448,0.026841,-0.672065,-0.683550,-0.838486,0.017206,0.044777,0.086503,0.999980,-0.003360,-0.003418,-0.004192,-0.854702,-0.272687,0.020244,-0.441266,27.793073,-15.977557,50.635625
48346,2.711954,4.612900,8.346761,-0.179680,0.111758,0.099779,-0.752109,-0.718011,-0.865210,0.027020,0.046326,0.083391,0.999977,-0.003761,-0.003590,-0.004326,-0.857526,-0.271114,0.023840,-0.436552,27.537551,-16.116875,49.985680
48347,2.751744,4.083565,7.818011,0.101622,0.160299,-0.575116,-0.771706,-0.649206,-0.907715,0.027450,0.041012,0.078111,0.999977,-0.003858,-0.003246,-0.004539,-0.860439,-0.269299,0.027120,-0.431725,27.273338,-16.212310,49.332382
48348,2.463145,4.652519,8.368417,-0.445102,-0.024036,0.063779,-0.730792,-0.570465,-0.949935,0.024615,0.046714,0.083584,0.999978,-0.003654,-0.002852,-0.004750,-0.863360,-0.267483,0.029921,-0.426810,27.033235,-16.259829,48.678334
48349,2.377368,4.009489,8.516983,-0.034504,-0.445216,-0.113867,-0.966957,-0.590146,-1.012765,0.023727,0.040386,0.085045,0.999971,-0.004835,-0.002951,-0.005064,-0.866684,-0.264687,0.033219,-0.421540,26.669484,-16.303938,47.985624
48350,2.502379,3.224316,8.276894,0.543793,-0.607573,-0.620297,-0.866281,-0.562345,-1.084127,0.024967,0.032466,0.082699,0.999972,-0.004331,-0.002812,-0.005421,-0.869981,-0.262264,0.036093,-0.415991,26.372013,-16.319892,47.262394
48351,1.955012,3.949367,9.123275,-0.263780,-1.006776,0.265523,-0.749380,-0.592957,-1.132463,0.019504,0.039725,0.091142,0.999973,-0.003747,-0.002965,-0.005662,-0.873172,-0.260408,0.038787,-0.410189,26.151576,-16.341917,46.505208
48352,2.282801,3.777337,8.786630,-0.016646,-0.682893,-0.003636,-0.819796,-0.699237,-1.133029,0.022736,0.038004,0.087790,0.999969,-0.004099,-0.003496,-0.005665,-0.876384,-0.258447,0.042092,-0.404209,25.899131,-16.422059,45.719777
48353,3.010258,3.770226,8.254663,0.364082,0.085795,-0.258854,-0.724316,-0.675002,-1.122515,0.030036,0.037832,0.082511,0.999972,-0.003622,-0.003375,-0.005613,-0.879406,-0.256838,0.045103,-0.398303,25.699228,-16.494697,44.946347
48354,2.720662,4.412870,8.284127,-0.318462,0.242196,-0.048361,-0.623306,-0.589627,-1.087583,0.027203,0.044239,0.082784,0.999976,-0.003117,-0.002948,-0.005438,-0.882202,-0.255482,0.047586,-0.392663,25.546077,-16.534767,44.213799
48355,2.528643,4.890803,8.758892,-0.761040,0.172508,0.503471,-0.673652,-0.582209,-1.023715,0.025283,0.049073,0.087497,0.999977,-0.003368,-0.002911,-0.005119,-0.884898,-0.253863,0.050208,-0.387283,25.354517,-16.588242,43.517600
48356,2.914947,4.353930,8.140053,-0.205518,0.443999,-0.144460,-0.654897,-0.594426,-0.898751,0.029104,0.043675,0.081344,0.999980,-0.003274,-0.002972,-0.004494,-0.887287,-0.252308,0.053010,-0.382429,25.155902,-16.681463,42.885779
48357,3.473562,4.517123,7.908512,0.027604,1.028492,-0.119596,-0.526886,-0.486905,-0.789251,0.034722,0.045242,0.079051,0.999986,-0.002634,-0.002435,-0.003946,-0.889305,-0.251077,0.055222,-0.378217,25.006801,-16.746709,42.340601
48358,3.437490,4.748244,7.926638,-0.170471,1.146211,-0.022342,-0.505111,-0.364258,-0.696481,0.034396,0.047563,0.079209,0.999989,-0.002526,-0.001821,-0.003482,-0.891130,-0.249680,0.056967,-0.374569,24.846895,-16.772648,41.876740
48359,3.280816,4.437827,8.130687,-0.059236,0.782856,-0.017295,-0.492257,-0.239980,-0.614874,0.032847,0.044477,0.081237,0.999992,-0.002461,-0.001200,-0.003074,-0.892806,-0.248080,0.058230,-0.371435,24.672888,-16.754237,41.488427
48360,2.695549,4.410617,8.519569,-0.440475,0.229883,0.139984,-0.415021,-0.190929,-0.519935,0.026989,0.044213,0.085130,0.999994,-0.002075,-0.000955,-0.002600,-0.894210,-0.246701,0.059253,-0.368804,24.524315,-16.734530,41.163981
48361,2.881694,4.202453,8.691558,-0.163571,0.160446,0.259820,-0.414221,-0.183964,-0.459213,0.028834,0.042138,0.086855,0.999995,-0.002071,-0.000920,-0.002296,-0.895494,-0.245294,0.060312,-0.366448,24.366447,-16.725856,40.874277
48362,2.156687,3.871388,8.964030,-0.457433,-0.610231,0.157825,-0.291453,-0.185274,-0.379722,0.021557,0.038804,0.089604,0.999997,-0.001457,-0.000926,-0.001899,-0.896473,-0.244412,0.061254,-0.364481,24.266219,-16.737807,40.627593
48363,2.487342,4.374930,9.090775,-0.570431,-0.147018,0.561417,-0.251422,-0.286221,-0.317881,0.024813,0.043824,0.090888,0.999997,-0.001257,-0.001431,-0.001589,-0.897255,-0.243873,0.062646,-0.362677,24.186869,-16.816819,40.389808
48364,3.197664,3.737237,8.379631,0.315522,0.246444,-0.104449,-0.292072,-0.274821,-0.292402,0.031916,0.037448,0.083786,0.999997,-0.001460,-0.001374,-0.001462,-0.898038,-0.243121,0.064096,-0.360988,24.079358,-16.896804,40.168792
48365,2.901632,3.936741,8.440287,-0.048436,0.159519,-0.059327,-0.161432,-0.217499,-0.268727,0.028977,0.039397,0.084403,0.999998,-0.000807,-0.001087,-0.001344,-0.898633,-0.242844,0.065076,-0.359513,24.039430,-16.952000,39.974724
48366,2.918146,4.181840,8.683538,-0.201049,0.205887,0.253313,-0.199360,-0.208465,-0.239074,0.029141,0.041870,0.086824,0.999998,-0.000997,-0.001042,-0.001195,-0.899221,-0.242370,0.066125,-0.358170,23.972240,-17.010154,39.799105
48367,2.842341,4.100617,8.583406,-0.221541,0.158739,0.111753,-0.172539,-0.209536,-0.207656,0.028376,0.041051,0.085828,0.999999,-0.000863,-0.001048,-0.001038,-0.899717,-0.242007,0.067163,-0.356974,23.915976,-17.075753,39.640411
48368,3.306428,3.909678,8.345519,0.222733,0.437705,-0.033908,-0.181626,-0.188964,-0.191481,0.033023,0.039141,0.083451,0.999999,-0.000908,-0.000945,-0.000957,-0.900199,-0.241560,0.068150,-0.355873,23.850241,-17.135090,39.495627
48369,3.442267,3.847414,8.242583,0.349483,0.530707,-0.107627,-0.106826,-0.142054,-0.162502,0.034395,0.038490,0.082430,0.999999,-0.000534,-0.000710,-0.000813,-0.900554,-0.241357,0.068821,-0.354982,23.819801,-17.176078,39.378080
48370,3.630650,3.920686,8.105004,0.428917,0.757211,-0.143812,-0.055934,-0.058159,-0.140119,0.036310,0.039204,0.081050,1.000000,-0.000280,-0.000291,-0.000701,-0.900836,-0.241225,0.069057,-0.354311,23.808574,-17.178899,39.293168
48371,3.103605,4.351636,8.667302,-0.222403,0.440103,0.358255,-0.004815,0.006848,-0.087021,0.031058,0.043505,0.086671,1.000000,-0.000024,0.000034,-0.000435,-0.900984,-0.241191,0.068969,-0.353975,23.813758,-17.159390,39.253080
48372,2.977392,4.366778,8.620210,-0.327459,0.397229,0.285660,-0.008903,-0.006641,-0.004232,0.029772,0.043671,0.086201,1.000000,-0.000045,-0.000033,-0.000021,-0.900985,-0.241133,0.069054,-0.353995,23.803776,-17.166644,39.255198
48373,3.070291,4.630577,8.749250,-0.433390,0.560433,0.527351,-0.049130,0.007255,0.027190,0.030700,0.046331,0.087480,1.000000,-0.000246,0.000036,0.000136,-0.900985,-0.240860,0.069179,-0.354158,23.765080,-17.173333,39.277859
48374,2.878022,3.861927,8.674523,-0.071014,0.003144,0.108994,-0.181565,0.017868,-0.004865,0.028789,0.038697,0.086708,1.000000,-0.000908,0.000089,-0.000024,-0.901203,-0.239980,0.069458,-0.354144,23.654524,-17.167579,39.285553
48375,2.608501,3.592199,8.935954,-0.085421,-0.442885,0.155060,-0.152473,0.016298,-0.096292,0.026110,0.035978,0.089330,1.000000,-0.000762,0.000081,-0.000481,-0.901548,-0.239268,0.069578,-0.353726,23.576015,-17.141114,39.242554
48376,2.234945,3.567450,9.344242,-0.336364,-0.866011,0.393849,-0.241310,-0.059139,-0.196329,0.022357,0.035765,0.093406,0.999999,-0.001207,-0.000296,-0.000982,-0.902147,-0.238321,0.070080,-0.352735,23.467682,-17.132010,39.126540
48377,2.398017,3.214818,9.164578,-0.000982,-0.892766,0.151146,-0.264599,-0.150396,-0.296021,0.023959,0.032234,0.091621,0.999998,-0.001323,-0.000752,-0.001480,-0.902916,-0.237466,0.070911,-0.351176,23.369008,-17.147800,38.933852
48378,2.796185,3.413278,8.951217,0.139724,-0.415239,0.157340,-0.258091,-0.192543,-0.379265,0.027940,0.034195,0.089495,0.999997,-0.001290,-0.000963,-0.001896,-0.903803,-0.236741,0.071826,-0.349193,23.290175,-17.167745,38.685387
48379,2.747378,3.541476,8.893403,0.003059,-0.324480,0.141077,-0.311313,-0.195320,-0.437714,0.027465,0.035493,0.088906,0.999996,-0.001557,-0.000977,-0.002189,-0.904848,-0.235801,0.072772,-0.346920,23.190973,-17.175693,38.404030
48380,2.762597,3.600552,8.899950,-0.039059,-0.267521,0.173899,-0.350853,-0.221792,-0.461337,0.027610,0.036098,0.088967,0.999995,-0.001754,-0.001109,-0.002307,-0.905962,-0.234733,0.073883,-0.344492,23.074500,-17.193391,38.103446
48381,3.079205,3.572585,8.619525,0.195218,0.049594,0.010778,-0.393967,-0.197285,-0.501571,0.030797,0.035818,0.086155,0.999994,-0.001970,-0.000986,-0.002508,-0.907197,-0.233441,0.074904,-0.341890,22.938562,-17.189153,37.786394
48382,2.487473,3.803624,8.923820,-0.408913,-0.267874,0.189843,-0.443621,-0.179847,-0.579097,0.024905,0.038162,0.089176,0.999993,-0.002218,-0.000899,-0.002895,-0.908617,-0.231919,0.075845,-0.338935,22.785184,-17.159850,37.430618
48383,2.418671,3.420295,9.049287,-0.228083,-0.590670,0.139042,-0.611659,-0.231896,-0.685426,0.024200,0.034397,0.090416,0.999989,-0.003058,-0.001159,-0.003427,-0.910376,-0.229759,0.077176,-0.335366,22.556607,-17.135067,37.003906
48384,2.732245,2.910341,8.689735,0.312489,-0.551078,-0.270921,-0.638245,-0.262988,-0.817586,0.027328,0.029269,0.086840,0.999986,-0.003191,-0.001315,-0.004088,-0.912352,-0.227574,0.078546,-0.331141,22.335906,-17.100085,36.496850
48385,2.835902,3.173315,8.531896,0.206178,-0.209639,-0.282789,-0.663958,-0.237571,-0.976945,0.028413,0.031878,0.085247,0.999982,-0.003320,-0.001188,-0.004885,-0.914602,-0.225286,0.079652,-0.326198,22.124501,-17.018226,35.907161
48386,3.157413,3.367171,8.446099,0.324423,0.183676,-0.194761,-0.850918,-0.192542,-1.178918,0.031692,0.033844,0.084348,0.999973,-0.004255,-0.000963,-0.005895,-0.917369,-0.222139,0.080633,-0.320293,21.834324,-16.872278,35.215390
48387,3.340560,2.908051,8.176892,0.754500,0.140656,-0.545091,-1.009377,-0.088021,-1.387417,0.033572,0.029260,0.081636,0.999963,-0.005047,-0.000440,-0.006937,-0.920630,-0.218168,0.081145,-0.313462,21.478170,-16.629648,34.430609
48388,3.027894,2.845487,8.564429,0.546992,-0.185349,-0.311087,-1.072801,0.009412,-1.593911,0.030511,0.028671,0.085489,0.999954,-0.005364,0.000047,-0.007969,-0.924247,-0.213818,0.081082,-0.305737,21.108349,-16.297474,33.551614
48389,2.492547,2.501873,9.430945,0.314092,-1.026752,0.200377,-1.100103,0.039776,-1.741027,0.025164,0.025319,0.094166,0.999947,-0.005500,0.000199,-0.008705,-0.928040,-0.209334,0.080750,-0.297323,20.739011,-15.923753,32.596513
48390,0.152219,2.156695,10.519331,-1.421213,-2.887677,0.432882,-0.794938,-0.127614,-1.656161,0.001636,0.021972,0.105108,0.999958,-0.003975,-0.000638,-0.008281,-0.931231,-0.206461,0.080827,-0.289223,20.536033,-15.662148,31.653148
48391,1.837636,4.258950,10.004975,-1.245194,-0.182166,1.143190,-0.634200,-0.499475,-1.509703,0.018449,0.042767,0.099960,0.999963,-0.003171,-0.002497,-0.007548,-0.933822,-0.204797,0.082542,-0.281463,20.421786,-15.631259,30.713999
48392,4.133268,3.960157,8.001471,0.903516,1.615296,-0.150148,-0.869001,-0.390240,-1.433621,0.041461,0.039652,0.079923,0.999963,-0.004345,-0.001951,-0.007168,-0.936522,-0.201838,0.084156,-0.274052,20.154626,-15.560548,29.839904
48393,3.383556,3.432534,7.985249,0.586510,0.890524,-0.546742,-0.743543,-0.117091,-1.374592,0.034025,0.034389,0.079745,0.999969,-0.003718,-0.000585,-0.006873,-0.939068,-0.199054,0.084366,-0.267228,19.933744,-15.357246,29.054753
48394,2.269009,3.802640,8.512911,-0.555284,0.480668,-0.245114,-0.663029,-0.040702,-1.237764,0.022909,0.038167,0.085007,0.999975,-0.003315,-0.000204,-0.006189,-0.941331,-0.196477,0.084248,-0.261142,19.731973,-15.142908,28.361398
48395,3.455460,4.180725,8.053318,0.307914,1.563597,-0.234867,-0.705714,0.030927,-1.131576,0.034804,0.041895,0.080380,0.999978,-0.003529,0.000155,-0.005658,-0.943484,-0.193551,0.083943,-0.255596,19.484230,-14.912231,27.741546
48396,3.741666,4.030993,7.401191,0.709330,1.896916,-0.816878,-0.855634,0.279385,-1.133680,0.037749,0.040413,0.073787,0.999974,-0.004278,0.001397,-0.005668,-0.945843,-0.189593,0.082657,-0.250205,19.135377,-14.550650,27.168777
48397,4.168338,3.794975,7.095638,1.271983,2.093782,-1.087894,-1.118195,0.559934,-1.287182,0.042126,0.038075,0.070626,0.999960,-0.005591,0.002800,-0.006436,-0.948698,-0.184093,0.080217,-0.244229,18.640274,-14.011971,26.562268
48398,3.615821,2.681876,8.573556,1.322366,0.480386,-0.231915,-1.295770,0.927559,-1.502033,0.036758,0.027098,0.085391,0.999940,-0.006479,0.004638,-0.007510,-0.952030,-0.177370,0.076049,-0.237477,18.049548,-13.240840,25.900250
48399,-1.240498,0.690542,11.513347,-2.096246,-4.189359,0.799835,-0.920982,0.854270,-1.397710,-0.011862,0.007520,0.115151,0.999956,-0.004605,0.004271,-0.006988,-0.954780,-0.172460,0.071865,-0.231275,17.656495,-12.533057,25.278612
48400,-1.776538,2.679672,11.854164,-3.490635,-2.774344,1.631790,-0.246870,0.125138,-1.110540,-0.017542,0.027041,0.118519,0.999984,-0.001234,0.000626,-0.005553,-0.956297,-0.171497,0.070631,-0.226043,17.638001,-12.275936,24.686429
48401,2.535073,4.988793,10.268223,-0.612097,1.541649,1.763132,-0.443006,-0.204966,-0.890512,0.025468,0.050002,0.102598,0.999987,-0.002215,-0.001025,-0.004453,-0.957591,-0.169887,0.071376,-0.221504,17.492016,-12.237193,24.158846
48402,3.857693,3.428995,8.061819,1.412287,1.576789,-0.477175,-0.615031,-0.031698,-0.716473,0.038687,0.034399,0.080519,0.999989,-0.003075,-0.000158,-0.003582,-0.958876,-0.167195,0.071635,-0.217879,17.219805,-12.136141,23.758872
48403,3.316876,3.161289,7.788461,1.084221,1.265362,-0.931319,-0.360269,0.254134,-0.560296,0.033356,0.031660,0.077785,0.999994,-0.001801,0.001271,-0.002801,-0.959864,-0.165354,0.070369,-0.215329,17.064147,-11.905688,23.495568
48404,3.009961,4.357638,8.242574,0.292446,2.049617,-0.236568,-0.449030,0.433793,-0.446261,0.030376,0.043694,0.082262,0.999993,-0.002245,0.002169,-0.002231,-0.960853,-0.162852,0.068437,-0.213441,16.837110,-11.597422,23.326205
48405,3.531022,4.397742,7.747504,0.817462,2.528744,-0.605717,-0.893045,0.637409,-0.513925,0.035670,0.044231,0.077165,0.999982,-0.004465,0.003187,-0.002570,-0.962321,-0.158019,0.065937,-0.211236,16.355978,-11.166671,23.151213
48406,4.584496,3.639543,6.979350,2.193621,2.647235,-1.377439,-1.452818,0.991698,-0.793603,0.046335,0.036717,0.069299,0.999953,-0.007264,0.004958,-0.003968,-0.964581,-0.150199,0.062104,-0.207768,15.571840,-10.499246,22.871717
48407,4.030362,2.069988,7.558268,2.394001,1.036332,-1.395579,-1.907866,1.483715,-1.183215,0.040986,0.021177,0.075080,0.999909,-0.009539,0.007418,-0.005916,-0.967607,-0.139777,0.056066,-0.202620,14.550201,-9.505558,22.437772
48408,0.757706,-0.539993,11.347787,0.372624,-3.395013,1.048565,-1.791927,1.782272,-1.462311,0.008553,-0.004444,0.113447,0.999893,-0.008959,0.008911,-0.007311,-0.970729,-0.129662,0.048264,-0.196323,13.606652,-8.314970,21.873196
48409,-8.146953,-3.251022,15.080239,-6.828249,-9.877152,2.843005,-0.721378,1.115945,-1.159732,-0.080811,-0.031495,0.151369,0.999961,-0.003607,0.005580,-0.005799,-0.972559,-0.125306,0.042831,-0.191293,13.257752,-7.541954,21.377210
48410,-4.825171,2.271819,14.235917,-5.853750,-3.412405,3.795898,0.241036,-0.522964,-1.018130,-0.048508,0.022793,0.142260,0.999983,0.001205,-0.002615,-0.005091,-0.973245,-0.127159,0.044537,-0.186120,13.475946,-7.702238,20.741321
48411,4.343607,5.578046,10.018368,1.531832,3.888989,1.714602,-0.540418,-0.841759,-0.995969,0.043292,0.055835,0.100215,0.999975,-0.002702,-0.004209,-0.004980,-0.974297,-0.125493,0.048525,-0.180671,13.253255,-8.042127,20.075021
48412,5.663165,2.967450,6.777027,3.860160,2.839002,-1.822415,-1.018322,-0.179915,-1.053944,0.056727,0.029720,0.067670,0.999973,-0.005092,-0.000900,-0.005270,-0.975811,-0.120911,0.049690,-0.175229,12.750850,-8.010288,19.464029
48413,2.187419,2.223876,8.172907,0.828244,0.702996,-1.132468,-0.766346,0.372873,-1.081722,0.022147,0.022432,0.081602,0.999976,-0.003832,0.001864,-0.005409,-0.977284,-0.117075,0.047912,-0.170039,12.383590,-7.669675,18.907020
48414,0.834966,3.021843,9.408091,-0.745902,0.777256,0.045275,-0.958723,0.322469,-1.036543,0.008659,0.030625,0.093921,0.999974,-0.004794,0.001612,-0.005183,-0.978771,-0.112325,0.046574,-0.164986,11.900649,-7.367611,18.367254
48415,3.142530,3.200292,8.225856,1.465653,2.044530,-0.787572,-1.361025,0.374228,-1.101369,0.031757,0.032387,0.081980,0.999960,-0.006805,0.001871,-0.005507,-0.980486,-0.105571,0.045269,-0.159541,11.188566,-7.033908,17.794073
48416,4.738833,2.541906,6.787614,3.316859,2.341569,-2.163929,-1.833402,0.775850,-1.263436,0.047812,0.025738,0.067456,0.999931,-0.009167,0.003879,-0.006317,-0.982562,-0.096207,0.042288,-0.153389,10.207458,-6.466044,17.167653
48417,4.595421,1.607037,6.424697,3.567094,1.607319,-2.765178,-2.037591,1.386060,-1.445218,0.046515,0.016387,0.063760,0.999898,-0.010188,0.006930,-0.007226,-0.984837,-0.085395,0.036366,-0.146567,9.107113,-5.546924,16.487615
48418,2.365171,1.713803,8.189507,1.439803,0.916833,-1.287397,-2.173988,1.899740,-1.646614,0.024572,0.017825,0.081473,0.999862,-0.010869,0.009498,-0.008233,-0.987175,-0.073549,0.027925,-0.138914,7.923321,-4.333818,15.719750
48419,0.624054,0.775501,9.371502,0.128002,-0.390274,-0.397846,-2.528425,2.073878,-1.816696,0.007288,0.008875,0.093536,0.999825,-0.012641,0.010369,-0.009083,-0.989477,-0.059836,0.018796,-0.130393,6.526931,-3.026721,14.841684
48420,0.040115,-1.036228,9.508030,0.162045,-2.020675,-0.465972,-2.490655,2.147821,-1.927992,0.001331,-0.009187,0.095189,0.999818,-0.012453,0.010738,-0.009639,-0.991495,-0.046249,0.009240,-0.121300,5.135387,-1.692985,13.873957
48421,-0.528169,-1.558803,9.700328,-0.141371,-2.422477,-0.278005,-2.069699,2.200835,-2.001862,-0.004362,-0.014536,0.097209,0.999836,-0.010348,0.011004,-0.010009,-0.993121,-0.034705,-0.000857,-0.111831,3.963809,-0.347249,12.837524
48422,-1.570525,-0.888713,10.659860,-1.152801,-1.819008,0.781811,-1.734777,2.153766,-2.044199,-0.014639,-0.007808,0.106831,0.999852,-0.008673,0.010768,-0.010220,-0.994403,-0.024839,-0.010912,-0.102107,2.959779,0.952818,11.750026
48423,-1.939543,-0.567890,10.818108,-1.416040,-1.335180,1.018768,-1.641672,1.964581,-2.058256,-0.018382,-0.004597,0.108406,0.999865,-0.008208,0.009822,-0.010291,-0.995412,-0.015523,-0.020076,-0.092257,1.984664,2.126366,10.627152
48424,-1.562853,-0.472950,10.088446,-0.948779,-0.919500,0.321009,-1.559791,1.775658,-2.012643,-0.014773,-0.003790,0.101050,0.999880,-0.007799,0.008878,-0.010063,-0.996159,-0.006703,-0.028326,-0.082586,1.034895,3.171593,9.507176
48425,-0.433802,0.032819,9.478680,0.185614,-0.035932,-0.326134,-1.447825,1.791420,-1.964818,-0.003481,0.001052,0.094815,0.999885,-0.007239,0.008957,-0.009824,-0.996647,0.001562,-0.036696,-0.073120,0.129478,4.207840,8.396849
48426,0.128853,-0.219350,8.546692,0.853900,-0.059742,-1.305351,-1.321475,1.925878,-1.756069,0.002095,-0.001645,0.085461,0.999893,-0.006607,0.009629,-0.008780,-0.996815,0.009206,-0.045772,-0.064653,-0.715553,5.304171,7.388831
48427,-0.178869,0.719042,8.324580,0.567122,0.945083,-1.528406,-0.973837,2.128917,-1.447697,-0.000849,0.007604,0.083222,0.999905,-0.004869,0.010644,-0.007238,-0.996653,0.015113,-0.055981,-0.057622,-1.365278,6.507293,6.540131
48428,-1.559212,1.856209,9.467366,-0.607097,2.082085,-0.283863,-1.016129,2.222308,-1.100745,-0.014435,0.019125,0.094742,0.999910,-0.005080,0.011111,-0.005504,-0.996179,0.021156,-0.066656,-0.052313,-2.034479,7.759523,5.874078
48429,-2.840526,1.564307,9.890011,-1.571857,1.838348,0.310141,-1.281471,2.108227,-0.799792,-0.027297,0.016388,0.099088,0.999916,-0.006407,0.010541,-0.003999,-0.995463,0.028387,-0.076717,-0.048595,-2.846718,8.945590,5.366752
48430,-2.579436,0.718826,9.705189,-1.062413,1.188172,0.127878,-1.524072,1.981826,-0.596234,-0.024808,0.008004,0.097242,0.999917,-0.007620,0.009909,-0.002981,-0.994547,0.036712,-0.086102,-0.045992,-3.791096,10.057812,4.961731
48431,-2.074919,-0.479572,8.963644,-0.401310,0.156167,-0.609852,-1.561999,1.965982,-0.463045,-0.019876,-0.004048,0.089868,0.999919,-0.007810,0.009830,-0.002315,-0.993436,0.045157,-0.095415,-0.044065,-4.754130,11.160418,4.614701
48432,-2.126141,-1.231513,8.683426,-0.265068,-0.464562,-0.804426,-1.370286,2.044458,-0.389274,-0.020395,-0.011679,0.087127,0.999922,-0.006851,0.010222,-0.001946,-0.992157,0.052626,-0.105156,-0.042386,-5.610111,12.305514,4.287297
48433,-3.085618,-1.686762,9.261206,-0.859522,-0.774315,0.025654,-1.206901,2.105667,-0.370725,-0.029909,-0.016251,0.093030,0.999925,-0.006034,0.010528,-0.001854,-0.990733,0.059279,-0.115230,-0.040693,-6.381320,13.482520,3.948931
48434,-5.236717,-2.097423,10.301605,-2.478524,-1.048923,1.619580,-0.938722,1.935803,-0.343797,-0.051402,-0.020400,0.103613,0.999941,-0.004694,0.009679,-0.001719,-0.989348,0.064547,-0.124504,-0.039022,-7.002730,14.559981,3.621687
48435,-5.832843,-1.453621,11.255795,-2.694546,-0.179864,2.658514,-0.789220,1.531044,-0.381316,-0.057491,-0.013981,0.113056,0.999961,-0.003946,0.007655,-0.001907,-0.988173,0.069012,-0.131787,-0.037200,-7.544901,15.402138,3.290082
48436,-5.424438,-1.690338,11.257390,-2.131570,-0.258296,2.612996,-0.835221,1.092449,-0.395660,-0.053661,-0.016326,0.112937,0.999974,-0.004176,0.005462,-0.001978,-0.987211,0.073629,-0.136875,-0.035486,-8.112698,15.990339,2.975937
48437,-4.097730,-1.721401,10.548017,-0.945767,-0.217362,1.592236,-0.702173,0.763185,-0.392874,-0.040607,-0.016763,0.105695,0.999985,-0.003511,0.003816,-0.001964,-0.986481,0.077526,-0.140365,-0.033815,-8.600229,16.390261,2.685640
48438,-2.781512,-1.648598,9.931161,0.205780,-0.097111,0.629060,-0.633278,0.623038,-0.376138,-0.027536,-0.016119,0.099449,0.999988,-0.003166,0.003115,-0.001881,-0.985847,0.081045,-0.143170,-0.032231,-9.044673,16.709074,2.414107
48439,-2.489246,-1.516306,9.796732,0.490196,0.097540,0.396183,-0.579088,0.602508,-0.350528,-0.024623,-0.014836,0.098085,0.999990,-0.002895,0.003013,-0.001753,-0.985224,0.084274,-0.145898,-0.030743,-9.455399,17.017669,2.156811
48440,-2.549170,-1.706450,9.726492,0.480594,-0.033694,0.374666,-0.578049,0.581473,-0.310669,-0.025235,-0.016744,0.097387,0.999990,-0.002890,0.002907,-0.001553,-0.984592,0.087464,-0.148528,-0.029458,-9.860028,17.315470,1.922441
48441,-2.488664,-1.640847,9.627903,0.554222,0.081357,0.250514,-0.536098,0.559250,-0.266925,-0.024639,-0.016117,0.096392,0.999992,-0.002680,0.002796,-0.001335,-0.983970,0.090410,-0.151080,-0.028367,-10.234080,17.604519,1.713827
48442,-2.431132,-1.590341,9.582749,0.641132,0.186938,0.178415,-0.544358,0.566812,-0.209431,-0.024056,-0.015617,0.095939,0.999992,-0.002722,0.002834,-0.001047,-0.983315,0.093352,-0.153683,-0.027561,-10.604434,17.901545,1.536062
48443,-2.132775,-1.767827,9.373448,0.929039,0.042020,-0.082834,-0.565999,0.596892,-0.153209,-0.021061,-0.017397,0.093847,0.999991,-0.002830,0.002984,-0.000766,-0.982600,0.096361,-0.156462,-0.027034,-10.979580,18.221315,1.385891
48444,-1.819173,-2.012505,9.303479,1.282532,-0.143303,-0.208092,-0.581522,0.670226,-0.070552,-0.017887,-0.019848,0.093153,0.999990,-0.002908,0.003351,-0.000353,-0.981793,0.099389,-0.159628,-0.026888,-11.352485,18.589649,1.273580
48445,-2.592176,-2.279243,9.712728,0.765104,-0.274614,0.463005,-0.589503,0.728956,0.004560,-0.025567,-0.022506,0.097288,0.999989,-0.002948,0.003645,0.000023,-0.980903,0.102402,-0.163122,-0.027089,-11.719551,18.999656,1.195970
48446,-3.783658,-2.514751,10.347598,-0.070423,-0.322900,1.483448,-0.692807,0.636857,0.009832,-0.037505,-0.024790,0.103682,0.999989,-0.003464,0.003184,0.000049,-0.980014,0.105903,-0.166143,-0.027445,-12.142482,19.357349,1.129841
48447,-3.835078,-3.050024,10.259328,-0.039747,-0.780522,1.529826,-0.779954,0.465369,-0.036970,-0.038117,-0.030093,0.102800,0.999990,-0.003900,0.002327,-0.000185,-0.979205,0.109844,-0.168290,-0.027736,-12.618590,19.613584,1.055198
48448,-3.282056,-3.102861,9.802334,0.380625,-0.840412,0.940619,-0.713155,0.360245,-0.086769,-0.032657,-0.030664,0.098192,0.999992,-0.003566,0.001801,-0.000434,-0.978512,0.113483,-0.169895,-0.027783,-13.062573,19.803417,0.962920
48449,-2.729610,-2.723160,9.427407,0.776688,-0.474263,0.331952,-0.651386,0.367774,-0.122942,-0.027139,-0.026908,0.094412,0.999993,-0.003257,0.001839,-0.000615,-0.977836,0.116851,-0.171528,-0.027597,-13.479810,19.992781,0.846510
48450,-2.383533,-2.124081,9.024745,0.948008,0.081438,-0.287289,-0.576559,0.441084,-0.116499,-0.023648,-0.020967,0.090360,0.999993,-0.002883,0.002205,-0.000582,-0.977127,0.119855,-0.173525,-0.027334,-13.857281,20.222319,0.721807
48451,-2.283078,-1.512550,8.713715,0.924116,0.656884,-0.749402,-0.555813,0.582297,-0.055816,-0.022581,-0.014877,0.087245,0.999992,-0.002779,0.002911,-0.000279,-0.976284,0.122724,-0.176254,-0.027265,-14.218978,20.538694,0.610340
48452,-2.135145,-0.898035,8.413378,0.957758,1.230718,-1.226784,-0.549956,0.753339,0.057882,-0.021032,-0.008755,0.084238,0.999989,-0.002750,0.003767,0.000289,-0.975261,0.125483,-0.179880,-0.027639,-14.563981,20.964865,0.537965
48453,-2.105966,-0.646417,7.848779,0.835587,1.377289,-1.821413,-0.547926,0.972040,0.243863,-0.020670,-0.006274,0.078606,0.999984,-0.002740,0.004860,0.001219,-0.973989,0.128093,-0.184688,-0.028782,-14.881840,21.539493,0.539120
48454,-2.478104,-0.286831,7.723747,0.494499,1.730687,-1.898218,-0.557632,1.211124,0.451610,-0.024306,-0.002708,0.077393,0.999975,-0.002788,0.006056,0.002258,-0.972421,0.130587,-0.190781,-0.030790,-15.174451,22.276699,0.622601
48455,-3.094222,-0.387806,7.561107,-0.017894,1.623108,-1.796523,-0.604039,1.422774,0.661732,-0.030391,-0.003750,0.075840,0.999965,-0.003020,0.007114,0.003309,-0.970528,0.133130,-0.198025,-0.033725,-15.458642,23.163568,0.793750
48456,-3.959788,-0.626710,7.690330,-0.609325,1.453980,-1.284687,-0.639545,1.580948,0.849385,-0.038962,-0.006187,0.077233,0.999955,-0.003198,0.007905,0.004247,-0.968346,0.135676,-0.206135,-0.037497,-15.727338,24.166860,1.047860
48457,-4.747414,-1.029032,7.841433,-1.067123,1.131118,-0.720687,-0.689950,1.665009,0.981793,-0.046769,-0.010250,0.078841,0.999947,-0.003450,0.008325,0.004909,-0.965922,0.138330,-0.214717,-0.041902,-15.994255,25.238840,1.364831
48458,-5.533817,-1.861634,7.879662,-1.476396,0.360431,-0.124271,-0.713584,1.659719,1.047966,-0.054584,-0.018621,0.079318,0.999945,-0.003568,0.008298,0.005240,-0.963370,0.141013,-0.223286,-0.046650,-16.252719,26.319200,1.720430
48459,-6.096385,-2.346949,8.113215,-1.626922,-0.021370,0.475559,-0.636288,1.577895,1.044897,-0.060198,-0.023526,0.081684,0.999950,-0.003181,0.007889,0.005224,-0.960863,0.143290,-0.231460,-0.051352,-16.455574,27.356021,2.087483
48460,-6.408917,-2.646111,8.178390,-1.646202,-0.273291,0.778574,-0.567938,1.441280,0.970921,-0.063369,-0.026537,0.082318,0.999958,-0.002840,0.007206,0.004855,-0.958494,0.145279,-0.238914,-0.055710,-16.623865,28.306135,2.433132
48461,-6.546086,-2.860312,8.082277,-1.603619,-0.490607,0.842891,-0.511472,1.275731,0.878013,-0.064817,-0.028681,0.081311,0.999967,-0.002557,0.006379,0.004390,-0.956315,0.147049,-0.245512,-0.059674,-16.767716,29.151741,2.751870
48462,-6.366013,-2.681903,7.911134,-1.409158,-0.349564,0.589007,-0.417095,1.125948,0.781569,-0.063108,-0.026901,0.079524,0.999974,-0.002085,0.005630,0.003908,-0.954364,0.148435,-0.251330,-0.063165,-16.869663,29.898996,3.038567
48463,-6.106856,-2.658163,7.490308,-1.255855,-0.433505,0.121996,-0.383297,1.014864,0.700559,-0.060594,-0.026650,0.075262,0.999979,-0.001916,0.005074,0.003503,-0.952556,0.149718,-0.256564,-0.066309,-16.963643,30.573231,3.296063
48464,-5.697534,-2.388017,7.247736,-0.960151,-0.224537,-0.340574,-0.274523,0.970684,0.664314,-0.056543,-0.023969,0.072785,0.999982,-0.001373,0.004853,0.003322,-0.950862,0.150510,-0.261579,-0.069170,-17.000090,31.216490,3.539698
48465,-5.744499,-2.015943,7.194845,-0.998833,0.111201,-0.441552,-0.200665,0.943058,0.673928,-0.057037,-0.020280,0.072238,0.999983,-0.001003,0.004715,0.003370,-0.949220,0.150922,-0.266495,-0.072000,-16.984739,31.847319,3.796645
48466,-5.856404,-1.596119,7.325059,-1.020851,0.539862,-0.369853,-0.137216,0.904320,0.711663,-0.058175,-0.016118,0.073525,0.999983,-0.000686,0.004522,0.003558,-0.947634,0.150965,-0.271260,-0.074949,-16.912671,32.461994,4.087773
48467,-5.937531,-1.171497,7.481581,-1.010309,0.979043,-0.293195,-0.182797,0.854940,0.751878,-0.059010,-0.011869,0.075079,0.999983,-0.000914,0.004275,0.003759,-0.946031,0.151143,-0.275805,-0.078187,-16.842735,33.057129,4.417993
48468,-5.836895,-1.317400,7.481568,-0.799883,0.844083,-0.303442,-0.287796,0.821720,0.771879,-0.058010,-0.013290,0.075074,0.999983,-0.001439,0.004109,0.003859,-0.944356,0.151775,-0.280148,-0.081685,-16.818111,33.635985,4.770498
48469,-5.670883,-1.685908,7.246616,-0.600484,0.430356,-0.487017,-0.285201,0.825538,0.791191,-0.056342,-0.016979,0.072723,0.999983,-0.001426,0.004128,0.003956,-0.942635,0.152361,-0.284525,-0.085268,-16.780270,34.221200,5.138093
48470,-5.643692,-1.795820,7.215923,-0.471236,0.318669,-0.494889,-0.263910,0.880182,0.791071,-0.056047,-0.018085,0.072430,0.999982,-0.001320,0.004401,0.003955,-0.940821,0.152867,-0.289148,-0.088772,-16.732022,34.834917,5.497493
48471,-5.874772,-2.053561,7.096405,-0.553756,0.017252,-0.390313,-0.190919,0.943135,0.754244,-0.058334,-0.020688,0.071259,0.999981,-0.000955,0.004716,0.003771,-0.938950,0.153102,-0.294071,-0.091949,-16.657620,35.478075,5.823425
48472,-6.208304,-1.874812,7.283546,-0.664441,0.214611,-0.085436,-0.057866,0.965834,0.727039,-0.061662,-0.018952,0.073139,0.999982,-0.000289,0.004829,0.003635,-0.937128,0.152761,-0.299120,-0.094779,-16.515615,36.127474,6.130113
48473,-6.408488,-1.436462,7.601168,-0.663459,0.704068,0.185962,-0.020263,0.943802,0.719253,-0.063673,-0.014586,0.076314,0.999982,-0.000101,0.004719,0.003596,-0.935334,0.152235,-0.304077,-0.097533,-16.346379,36.764149,6.441045
48474,-6.384453,-1.073620,7.754097,-0.554107,1.085549,0.214951,-0.069719,0.905963,0.723612,-0.063453,-0.010939,0.077833,0.999983,-0.000349,0.004530,0.003618,-0.933528,0.151914,-0.308815,-0.100404,-16.194112,37.378685,6.766961
48475,-6.224323,-1.287356,7.729989,-0.276303,0.882405,0.152066,-0.117789,0.885994,0.769146,-0.061850,-0.013066,0.077582,0.999983,-0.000589,0.004430,0.003846,-0.931658,0.151727,-0.313471,-0.103578,-16.041126,37.990145,7.133810
48476,-6.315814,-1.295567,7.941555,-0.124059,0.931035,0.373241,-0.146639,0.881845,0.782534,-0.062756,-0.013143,0.079702,0.999982,-0.000733,0.004409,0.003913,-0.929736,0.151651,-0.318080,-0.106855,-15.892870,38.599298,7.515484
48477,-6.475728,-2.047151,7.861526,0.035740,0.181264,0.574535,-0.178905,0.854114,0.759805,-0.064342,-0.020646,0.078909,0.999983,-0.000895,0.004271,0.003799,-0.927810,0.151735,-0.322526,-0.110098,-15.762451,39.190250,7.892347
48478,-6.729753,-2.235375,8.110683,0.145047,0.061184,0.959682,-0.096512,0.804262,0.702302,-0.066892,-0.022550,0.081387,0.999986,-0.000483,0.004021,0.003511,-0.926033,0.151503,-0.326721,-0.112973,-15.599412,39.742677,8.242535
48479,-6.584582,-2.200746,8.138204,0.361993,0.109718,0.877800,-0.052815,0.732308,0.652832,-0.065475,-0.022200,0.081628,0.999988,-0.000264,0.003662,0.003264,-0.924406,0.151098,-0.330573,-0.115603,-15.418407,40.248335,8.576981
48480,-6.431834,-2.005684,8.179923,0.533096,0.311017,0.766575,-0.009896,0.681794,0.629769,-0.063975,-0.020255,0.082019,0.999989,-0.000049,0.003409,0.003149,-0.922891,0.150507,-0.334179,-0.118087,-15.212953,40.720373,8.908717
48481,-6.325592,-1.778645,8.159104,0.615913,0.512709,0.632639,-0.019070,0.655277,0.645203,-0.062930,-0.017982,0.081799,0.999989,-0.000095,0.003276,0.003226,-0.921380,0.149908,-0.337673,-0.120678,-14.995793,41.180408,9.262333
48482,-6.366363,-1.797118,8.071887,0.625134,0.445579,0.595273,-0.045851,0.635178,0.673178,-0.063346,-0.018166,0.080925,0.999989,-0.000229,0.003176,0.003366,-0.919850,0.149375,-0.341062,-0.123452,-14.773456,41.631111,9.644650
48483,-6.586752,-1.776717,8.092900,0.552164,0.429450,0.748901,-0.054766,0.607366,0.693660,-0.065559,-0.017973,0.081133,0.999989,-0.000274,0.003037,0.003468,-0.918324,0.148821,-0.344334,-0.126358,-14.535722,42.069427,10.053459
48484,-6.823341,-1.921451,8.026009,0.469664,0.227132,0.882828,-0.105999,0.578437,0.671510,-0.067936,-0.019400,0.080467,0.999990,-0.000530,0.002892,0.003358,-0.916809,0.148526,-0.347408,-0.129265,-14.330236,42.486133,10.455512
48485,-6.974118,-2.212077,7.990478,0.516991,-0.086559,1.008776,-0.088839,0.530805,0.638418,-0.069458,-0.022307,0.080099,0.999991,-0.000444,0.002654,0.003192,-0.915389,0.148169,-0.350253,-0.132028,-14.119263,42.871790,10.847152
48486,-6.562953,-1.958681,7.756869,0.658392,0.102579,0.513656,-0.024616,0.487262,0.653512,-0.065376,-0.019791,0.077731,0.999992,-0.000123,0.002436,0.003268,-0.914071,0.147468,-0.352936,-0.134773,-13.854239,43.232983,11.262261
48487,-6.626605,-1.592433,7.631238,0.479806,0.362974,0.401082,0.001010,0.501678,0.707750,-0.066017,-0.016159,0.076478,0.999991,0.000005,0.002508,0.003539,-0.912690,0.146553,-0.355745,-0.137711,-13.541194,43.609103,11.722114
48488,-6.850387,-1.206440,7.546753,0.204201,0.629281,0.429315,-0.023551,0.502222,0.733648,-0.068269,-0.012306,0.075641,0.999990,-0.000118,0.002511,0.003668,-0.911257,0.145709,-0.358543,-0.140805,-13.223513,43.986044,12.206756
48489,-7.094077,-1.590216,7.336141,0.113302,0.141095,0.514001,-0.118032,0.482198,0.705790,-0.070707,-0.016109,0.073542,0.999991,-0.000590,0.002411,0.003529,-0.909790,0.145322,-0.361164,-0.143957,-12.965034,44.347447,12.679930
48490,-7.208893,-1.974792,7.243487,0.186411,-0.283756,0.590214,-0.053517,0.438159,0.683972,-0.071862,-0.019975,0.072598,0.999992,-0.000268,0.002191,0.003420,-0.908452,0.144653,-0.363601,-0.146918,-12.671682,44.678821,13.148165
48491,-6.916196,-1.598611,7.083760,0.217144,0.019849,0.213328,0.077444,0.399710,0.723310,-0.068962,-0.016263,0.070969,0.999991,0.000387,0.001999,0.003617,-0.907231,0.143279,-0.365989,-0.149849,-12.269630,44.992508,13.660534
48492,-6.432297,-0.723260,6.632828,0.003171,0.695589,-0.571062,0.111208,0.407178,0.852270,-0.064156,-0.007543,0.066455,0.999989,0.000556,0.002036,0.004261,-0.905908,0.141527,-0.368513,-0.153292,-11.771274,45.321922,14.279519
48493,-5.788451,0.028235,6.206584,-0.045171,1.290511,-1.424566,0.117158,0.543333,1.114845,-0.057716,-0.000076,0.062223,0.999981,0.000586,0.002717,0.005574,-0.904106,0.139356,-0.371842,-0.157815,-11.124387,45.754228,15.096791
48494,-6.146261,0.757222,6.014685,-0.612950,1.767867,-1.385089,0.030716,0.742074,1.344763,-0.061288,0.007150,0.060376,0.999971,0.000154,0.003710,0.006724,-0.901651,0.137306,-0.376133,-0.163388,-10.400831,46.315195,16.083500
48495,-7.213793,-0.347230,6.167738,-0.685161,0.567080,-0.357102,-0.217662,0.874618,1.397456,-0.071841,-0.003908,0.061996,0.999965,-0.001088,0.004373,0.006987,-0.898672,0.136367,-0.380839,-0.169569,-9.778546,46.949039,17.115748
48496,-8.087015,-1.948513,6.204029,-0.451383,-1.090768,0.497076,-0.110836,0.849694,1.322126,-0.080475,-0.019983,0.062394,0.999969,-0.000554,0.004248,0.006611,-0.895821,0.135070,-0.385439,-0.175209,-9.116296,47.552833,18.109834
48497,-8.284645,-1.716543,6.477431,-0.366478,-0.875013,0.800387,0.105245,0.729467,1.230640,-0.082502,-0.017708,0.065066,0.999974,0.000526,0.003647,0.006153,-0.893372,0.132860,-0.389615,-0.180098,-8.351282,48.073052,19.065527
48498,-8.123922,-1.286938,6.475357,-0.330278,-0.520752,0.637331,0.203406,0.583599,1.202268,-0.080970,-0.013423,0.064977,0.999977,0.001017,0.002918,0.006011,-0.891257,0.130137,-0.393180,-0.184753,-7.517078,48.498328,20.032611
48499,-7.899011,-0.690477,6.315462,-0.447921,-0.071790,0.313963,0.304528,0.475482,1.233290,-0.078795,-0.007487,0.063331,0.999977,0.001523,0.002377,0.006166,-0.889348,0.126788,-0.396368,-0.189414,-6.577010,48.855234,21.056628
48500,-7.572326,-0.304594,6.135835,-0.442089,0.199080,-0.073844,0.296467,0.387414,1.281643,-0.075582,-0.003622,0.061500,0.999976,0.001482,0.001937,0.006408,-0.887523,0.123299,-0.399160,-0.194348,-5.589852,49.152552,22.145106
48501,-7.444960,-0.242427,6.019561,-0.384728,0.159472,-0.244679,0.211159,0.384323,1.274385,-0.074316,-0.002962,0.060336,0.999977,0.001056,0.001922,0.006372,-0.885614,0.120185,-0.401841,-0.199418,-4.640082,49.436561,23.242895
48502,-7.214352,-0.583678,5.638801,-0.262672,-0.303222,-0.646353,0.210140,0.432313,1.243382,-0.071983,-0.006344,0.056537,0.999978,0.001051,0.002162,0.006217,-0.883602,0.117189,-0.404688,-0.204310,-3.702041,49.733947,24.322367
48503,-7.282916,-0.360833,5.610749,-0.336206,-0.203973,-0.620523,0.233442,0.498835,1.211952,-0.072665,-0.004115,0.056284,0.999978,0.001167,0.002494,0.006060,-0.881457,0.114207,-0.407825,-0.208972,-2.757753,50.057762,25.386513
48504,-7.413530,-0.403287,5.502536,-0.372103,-0.388820,-0.587174,0.295310,0.536314,1.256812,-0.073960,-0.004579,0.055217,0.999976,0.001477,0.002682,0.006284,-0.879187,0.110904,-0.411189,-0.213670,-1.734127,50.391318,26.503751
48505,-7.687359,0.207772,5.687349,-0.587958,0.059904,-0.266289,0.418606,0.536069,1.362508,-0.076732,0.001435,0.057083,0.999971,0.002093,0.002680,0.006812,-0.876821,0.106826,-0.414729,-0.218572,-0.546456,50.713006,27.735576
48506,-7.931352,0.670709,5.925376,-0.676076,0.387981,0.079576,0.397417,0.500313,1.452423,-0.079210,0.006014,0.059464,0.999969,0.001987,0.002502,0.007262,-0.874370,0.102618,-0.418102,-0.223913,0.708718,50.996479,29.065860
48507,-7.850304,0.867852,6.062091,-0.529778,0.539761,0.114844,0.250022,0.490861,1.416500,-0.078412,0.008047,0.060824,0.999971,0.001250,0.002454,0.007082,-0.871845,0.099104,-0.421235,-0.229401,1.873305,51.258114,30.382009
48508,-8.054586,-0.301219,5.857273,-0.116898,-0.710024,0.124894,0.189290,0.455708,1.361347,-0.080389,-0.003615,0.058753,0.999974,0.000946,0.002279,0.006807,-0.869384,0.095933,-0.424085,-0.234777,2.975450,51.483684,31.659428
48509,-8.001803,0.019983,6.060407,-0.004853,-0.424966,0.216055,0.370389,0.437512,1.306842,-0.079884,-0.000435,0.060779,0.999975,0.001852,0.002188,0.006534,-0.867062,0.092056,-0.427029,-0.239533,4.156747,51.685733,32.900487
48510,-8.098928,0.573490,6.282960,-0.078549,0.019547,0.453245,0.301974,0.408287,1.158328,-0.080892,0.005171,0.063003,0.999980,0.001510,0.002041,0.005792,-0.864913,0.088762,-0.429667,-0.243789,5.198443,51.862179,34.011669
48511,-8.195750,0.108320,6.307951,0.207865,-0.484481,0.516559,0.292218,0.343454,1.065964,-0.081853,0.000554,0.063221,0.999983,0.001461,0.001717,0.005330,-0.862974,0.085617,-0.431966,-0.247691,6.173738,51.995608,35.042092
48512,-8.231416,0.475145,6.451042,0.186775,-0.207579,0.652439,0.375508,0.257834,1.039873,-0.082254,0.004202,0.064625,0.999984,0.001878,0.001289,0.005199,-0.861265,0.082069,-0.433962,-0.251324,7.173844,52.070259,36.043151
48513,-8.012607,0.938375,6.567998,0.218050,0.226171,0.585451,0.387180,0.176357,1.062874,-0.080116,0.008831,0.065768,0.999984,0.001936,0.000882,0.005314,-0.859675,0.078308,-0.435628,-0.255060,8.194658,52.086799,37.060219
48514,-7.725827,1.487316,6.517164,0.109601,0.700634,0.378986,0.291538,0.180175,1.031202,-0.077274,0.014380,0.065262,0.999985,0.001458,0.000901,0.005156,-0.858057,0.075037,-0.437151,-0.258854,9.136262,52.096761,38.047311
48515,-7.941470,0.909476,6.344160,0.234330,-0.011047,0.389606,0.156361,0.147180,0.956678,-0.079410,0.008665,0.063507,0.999988,0.000782,0.000736,0.004783,-0.856529,0.072455,-0.438328,-0.262634,9.944912,52.086584,38.962869
48516,-8.202872,0.365471,6.462963,0.528678,-0.608400,0.605571,0.284982,0.081445,0.980061,-0.082019,0.003161,0.064668,0.999987,0.001425,0.000407,0.004900,-0.855144,0.069193,-0.439380,-0.266245,10.831775,52.027949,39.885775
48517,-8.497798,0.946638,6.706729,0.321730,-0.244167,1.046613,0.496494,-0.065503,1.114485,-0.085050,0.008826,0.067062,0.999981,0.002482,-0.000328,0.005572,-0.853943,0.064523,-0.440127,-0.270012,11.913193,51.862474,40.902089
48518,-8.709197,1.736664,7.070029,0.129846,0.328902,1.532978,0.615946,-0.277412,1.320574,-0.087301,0.016573,0.070631,0.999972,0.003080,-0.001387,0.006603,-0.852934,0.058610,-0.440167,-0.274448,13.161790,51.539529,42.048794
48519,-8.826276,2.218771,7.415967,0.121010,0.623678,1.909746,0.681042,-0.540728,1.594128,-0.088635,0.021230,0.073994,0.999959,0.003405,-0.002704,0.007971,-0.852084,0.051443,-0.439232,-0.279969,14.571698,51.016682,43.359976
48520,-8.726098,2.636070,7.504193,0.045880,0.821777,1.965434,0.706799,-0.796044,1.844258,-0.087795,0.025288,0.074784,0.999943,0.003534,-0.003980,0.009221,-0.851371,0.043264,-0.437257,-0.286534,16.076398,50.293649,44.787449
48521,-8.667087,2.882095,7.786169,0.158938,0.891189,2.154939,0.554774,-1.014914,1.953904,-0.087339,0.027755,0.077498,0.999936,0.002774,-0.005074,0.009769,-0.850839,0.035163,-0.434111,-0.293913,17.471793,49.410149,46.201269
48522,-8.357055,2.548091,7.723187,0.416821,0.485050,1.830614,0.387154,-1.185425,1.901093,-0.084263,0.024533,0.076782,0.999935,0.001936,-0.005927,0.009505,-0.850618,0.027645,-0.429919,-0.301420,18.642901,48.422575,47.466245
48523,-7.928362,2.169664,7.659466,0.729748,0.129731,1.398029,0.214399,-1.283213,1.718728,-0.079955,0.020930,0.076106,0.999942,0.001072,-0.006416,0.008593,-0.850749,0.021092,-0.424981,-0.308502,19.534918,47.401694,48.506897
48524,-7.380064,1.731630,7.351512,0.941611,-0.243447,0.702040,0.103338,-1.322137,1.512352,-0.074412,0.016717,0.073033,0.999949,0.000517,-0.006611,0.007562,-0.851180,0.015397,-0.419629,-0.314908,20.192153,46.390448,49.331767
