PacketCounter,Acc_X,Acc_Y,Acc_Z,FreeAcc_E,FreeAcc_N,FreeAcc_U,Gyr_X,Gyr_Y,Gyr_Z,VelInc_X,VelInc_Y,VelInc_Z,OriInc_q0,OriInc_q1,OriInc_q2,OriInc_q3,Quat_q0,Quat_q1,Quat_q2,Quat_q3,Roll,Pitch,Yaw
64725,-2.262878,2.784473,10.186907,0.237710,0.380758,0.978300,0.013632,0.202548,-0.385854,-0.022472,0.027881,0.101894,0.999998,0.000068,0.001013,-0.001929,0.833028,0.044553,0.178531,0.521734,15.612521,14.533916,66.121694
64726,-2.292977,2.554394,9.810720,0.298501,0.238798,0.574165,0.007761,0.183811,-0.444446,-0.022783,0.025591,0.098129,0.999997,0.000039,0.000919,-0.002222,0.833994,0.043700,0.179380,0.519969,15.558035,14.699954,65.903584
64727,-2.492981,2.273143,9.738797,0.438145,-0.042566,0.484517,0.016601,0.196170,-0.522341,-0.024775,0.022788,0.097414,0.999996,0.000083,0.000981,-0.002612,0.835142,0.042779,0.180313,0.517876,15.496322,14.884154,65.642971
64728,-2.880097,2.361391,9.958972,0.287345,-0.282138,0.812281,0.016871,0.192106,-0.631205,-0.028631,0.023696,0.099619,0.999995,0.000084,0.000961,-0.003156,0.836569,0.041774,0.181258,0.515318,15.418247,15.082820,65.318656
64729,-2.987553,2.339543,10.257884,0.363170,-0.310908,1.114087,-0.022306,0.168446,-0.794166,-0.029696,0.023525,0.102601,0.999992,-0.000112,0.000842,-0.003971,0.838434,0.040514,0.182028,0.512107,15.290289,15.292175,64.897014
64730,-2.974525,2.197016,10.622982,0.601926,-0.277298,1.415980,-0.094624,0.108877,-1.030155,-0.029574,0.022173,0.106235,0.999986,-0.000473,0.000544,-0.005151,0.840955,0.038892,0.182413,0.507944,15.081447,15.503212,64.329319
64731,-2.400616,2.355035,10.896215,0.782833,0.375087,1.557579,-0.057428,-0.018655,-1.273149,-0.023866,0.023734,0.108953,0.999980,-0.000287,-0.000093,-0.006366,0.844173,0.037523,0.182392,0.502689,14.848154,15.677089,63.601408
64732,-1.978595,3.153042,10.981028,0.318954,1.171742,1.718347,0.220579,-0.229298,-1.418387,-0.019688,0.031549,0.109822,0.999974,0.001103,-0.001146,-0.007092,0.847859,0.037728,0.182205,0.496500,14.741801,15.753853,62.756535
64733,-0.717642,5.076526,10.239147,-0.949751,3.150635,1.155335,0.408156,-0.395461,-1.484844,-0.007003,0.050609,0.102481,0.999968,0.002041,-0.001977,-0.007424,0.851776,0.039073,0.181775,0.489804,14.724395,15.746850,61.848414
64734,-0.676934,4.866694,9.547278,-0.953608,3.015796,0.448349,0.414355,-0.375244,-1.496840,-0.006585,0.048519,0.095561,0.999968,0.002072,-0.001876,-0.007484,0.855651,0.040385,0.181444,0.483020,14.710259,15.753052,60.936047
64735,-1.605323,4.816710,9.608769,-1.280755,2.232311,0.745838,0.513668,-0.354102,-1.458287,-0.015873,0.048036,0.096183,0.999969,0.002568,-0.001770,-0.007291,0.859339,0.042103,0.181417,0.476289,14.759234,15.764929,60.049394
64736,-1.812796,5.794962,9.492690,-2.162753,2.599327,0.936487,0.496698,-0.391918,-1.357958,-0.017921,0.057836,0.095035,0.999972,0.002483,-0.001960,-0.006790,0.862777,0.043928,0.181162,0.469964,14.813233,15.742642,59.214427
64737,-1.155256,6.232395,9.196904,-2.250562,3.378186,0.593229,0.351494,-0.413239,-1.148231,-0.011385,0.062228,0.092055,0.999980,0.001757,-0.002066,-0.005741,0.865732,0.045365,0.180413,0.464652,14.816198,15.677427,58.497346
64738,-0.757325,6.420539,8.680793,-2.347022,3.770421,0.057892,0.382410,-0.468582,-0.773129,-0.007529,0.064068,0.086913,0.999988,0.001912,-0.002343,-0.003866,0.867831,0.047400,0.179412,0.460905,14.894296,15.527742,57.987552
64739,0.868406,7.469604,7.897289,-2.585914,5.610687,-0.826627,0.420929,-0.526349,-0.269290,0.008576,0.074518,0.079153,0.999993,0.002105,-0.002632,-0.001346,0.868796,0.050191,0.178120,0.459291,15.070733,15.271615,57.758477
64740,1.858068,6.591078,7.270081,-1.597124,5.820387,-1.855259,0.447282,-0.475417,0.291146,0.018312,0.065775,0.072892,0.999994,0.002236,-0.002377,0.001456,0.868411,0.053474,0.176973,0.460091,15.348906,14.961214,57.857371
64741,1.403805,5.995905,7.410886,-1.312964,5.048580,-1.711456,0.631759,-0.388399,0.857246,0.013637,0.059784,0.074325,0.999984,0.003159,-0.001942,0.004286,0.866577,0.057866,0.176466,0.463201,15.818070,14.609869,58.291076
64742,0.060894,5.462031,7.971485,-1.372710,3.578949,-0.942084,0.732019,-0.337043,1.353312,0.000106,0.054330,0.079915,0.999969,0.003660,-0.001685,0.006766,0.863479,0.063000,0.176269,0.468363,16.412718,14.205236,59.010934
64743,-0.937126,4.309881,7.917317,-0.967585,1.990394,-1.024177,0.794806,-0.268568,1.750978,-0.009853,0.042699,0.079330,0.999953,0.003974,-0.001343,0.008755,0.859302,0.068602,0.176368,0.475172,17.094539,13.763293,59.961242
64744,-1.987007,1.431572,7.876507,0.839847,-0.553418,-1.625862,0.953758,-0.088833,2.041238,-0.020047,0.013736,0.078823,0.999936,0.004769,-0.000444,0.010206,0.854126,0.074696,0.177505,0.483095,17.903896,13.359046,61.098875
64745,-4.168977,0.992761,9.106085,0.745024,-2.694053,-0.144688,1.244656,0.025459,2.193350,-0.041780,0.008903,0.091124,0.999920,0.006223,0.000127,0.010966,0.848250,0.081892,0.179742,0.491385,18.895134,12.970584,62.334090
64746,-5.638691,2.074731,9.688065,-0.403952,-3.532147,1.018489,1.038752,-0.046119,2.140510,-0.056623,0.019639,0.096972,0.999929,0.005194,-0.000231,0.010702,0.842524,0.088319,0.181172,0.499530,19.747688,12.535650,63.517560
64747,-5.444584,0.916399,9.175250,0.558665,-4.068418,0.076806,0.611161,-0.104351,1.957908,-0.054578,0.008350,0.091750,0.999947,0.003056,-0.000522,0.009789,0.837390,0.092924,0.181340,0.507207,20.321205,12.089567,64.581042
64748,-5.679823,0.768693,8.973740,0.609885,-4.448170,-0.157668,0.397690,-0.181840,1.842115,-0.056946,0.006984,0.089700,0.999955,0.001988,-0.000909,0.009210,0.832637,0.096708,0.180685,0.514505,20.746139,11.617459,65.559341
64749,-4.621935,1.291478,7.955735,0.280065,-3.379450,-1.162606,0.157211,-0.220621,1.771570,-0.046419,0.012442,0.079516,0.999960,0.000786,-0.001103,0.008858,0.828145,0.099524,0.179262,0.521666,21.015375,11.132170,66.486437
64750,-4.201808,0.961317,6.849695,0.329284,-3.234719,-2.401525,-0.005746,-0.068857,1.738196,-0.042123,0.009249,0.068482,0.999962,-0.000029,-0.000344,0.008691,0.823620,0.101226,0.178051,0.528867,21.185991,10.732441,67.423927
64751,-5.173387,1.747096,6.914085,-0.608138,-3.838818,-1.906121,-0.028724,0.119767,1.755240,-0.051843,0.017026,0.069169,0.999961,-0.000144,0.000599,0.008776,0.818830,0.102346,0.177529,0.536215,21.346413,10.426423,68.408324
64752,-5.387736,2.044914,7.060939,-0.809755,-3.964690,-1.646222,-0.156891,0.246839,1.741649,-0.053966,0.020035,0.070660,0.999961,-0.000784,0.001234,0.008708,0.813964,0.102576,0.177181,0.543643,21.432010,10.189767,69.410765
64753,-6.001953,0.708807,7.493050,0.362256,-5.074334,-1.640122,-0.129127,0.319323,1.669771,-0.059956,0.006636,0.075022,0.999964,-0.000646,0.001597,0.008349,0.809153,0.102653,0.177224,0.550750,21.525546,10.004799,70.388739
64754,-6.675493,0.680564,8.031831,0.472028,-5.714199,-1.057119,-0.063925,0.358600,1.505818,-0.066660,0.006329,0.080436,0.999970,-0.000320,0.001793,0.007529,0.804671,0.102731,0.177681,0.557118,21.639829,9.874067,71.285564
64755,-6.598290,-0.049693,9.322176,1.727637,-5.869152,-0.168482,-0.143555,0.292151,1.246251,-0.065842,-0.000841,0.093319,0.999979,-0.000718,0.001461,0.006231,0.800970,0.102437,0.177772,0.562450,21.679953,9.761545,72.027471
64756,-4.544410,0.017513,10.637975,2.873702,-3.872689,0.702183,-0.117887,0.096932,0.939943,-0.045393,0.000024,0.106402,0.999989,-0.000589,0.000485,0.004700,0.798265,0.102520,0.177305,0.566414,21.698368,9.609685,72.561528
64757,-2.963613,0.982095,12.383644,3.215034,-2.001925,2.383952,-0.103433,-0.046792,0.560469,-0.029693,0.009802,0.123824,0.999996,-0.000517,-0.000234,0.002802,0.796742,0.102725,0.176497,0.568770,21.684091,9.461855,72.859908
64758,-1.351290,2.630375,13.840553,2.811431,0.096786,4.057859,-0.169042,-0.272730,0.115308,-0.013717,0.026413,0.138365,0.999999,-0.000845,-0.001364,0.000577,0.796713,0.102922,0.174830,0.569288,21.584882,9.287814,72.869338
64759,0.774215,3.719911,13.366094,2.251285,2.406236,3.686609,-0.246918,-0.524428,-0.312540,0.007450,0.037352,0.133635,0.999995,-0.001235,-0.002622,-0.001563,0.798156,0.103144,0.172156,0.568041,21.394948,9.069618,72.595067
64760,1.706921,3.724912,10.591957,1.400317,3.156018,1.006580,-0.170070,-0.650723,-0.512579,0.016820,0.037296,0.105943,0.999991,-0.000850,-0.003254,-0.002563,0.800226,0.103865,0.169299,0.565852,21.230073,8.824622,72.186513
64761,0.154515,3.032926,8.463101,0.691695,1.373401,-0.953688,0.013788,-0.437861,-0.404465,0.001421,0.030320,0.084636,0.999996,0.000069,-0.002189,-0.002022,0.801702,0.104803,0.167752,0.564048,21.186911,8.670134,71.882182
64762,-2.492812,2.975791,8.567171,-0.029365,-1.154270,-0.478202,0.261750,-0.225898,-0.122990,-0.025007,0.029661,0.085682,0.999998,0.001309,-0.001129,-0.000615,0.802073,0.106379,0.167609,0.563267,21.316762,8.570656,71.773902
64763,-2.232961,2.613823,8.744240,0.451146,-1.052952,-0.487045,0.317393,-0.133438,0.032074,-0.022392,0.025996,0.087469,0.999999,0.001587,-0.000667,0.000160,0.801896,0.108041,0.167906,0.563114,21.493102,8.488291,71.769066
64764,-1.739614,2.623072,9.331361,0.852272,-0.599693,-0.020092,0.397316,-0.114941,0.009199,-0.017451,0.026044,0.093355,0.999998,0.001987,-0.000575,0.000046,0.801724,0.109958,0.168518,0.562805,21.714799,8.420695,71.755073
64765,-1.569684,3.239523,9.629966,0.519394,-0.249487,0.451937,0.385131,-0.181138,-0.106634,-0.015767,0.032218,0.096348,0.999998,0.001926,-0.000906,-0.000533,0.801935,0.111908,0.168890,0.562008,21.917448,8.342576,71.664837
64766,-1.603861,3.855406,9.318390,-0.118604,-0.100151,0.397342,0.389662,-0.263290,-0.196062,-0.016124,0.038388,0.093238,0.999997,0.001948,-0.001316,-0.000980,0.802462,0.114037,0.168998,0.560795,22.114196,8.240368,71.507977
64767,-1.572302,4.064435,8.628748,-0.541113,-0.028975,-0.161090,0.331345,-0.292064,-0.223794,-0.015804,0.040519,0.086332,0.999997,0.001657,-0.001460,-0.001119,0.803117,0.115982,0.168838,0.559505,22.273864,8.129356,71.330230
64768,-1.849628,3.887182,8.625587,-0.459367,-0.374083,-0.190784,0.313661,-0.256985,-0.190083,-0.018570,0.038754,0.086293,0.999997,0.001568,-0.001285,-0.000950,0.803656,0.117792,0.168753,0.558377,22.428212,8.030096,71.177441
64769,-1.687552,4.308767,8.778869,-0.690105,-0.097171,0.086610,0.277844,-0.222520,-0.135732,-0.016944,0.042977,0.087830,0.999998,0.001389,-0.001113,-0.000679,0.804030,0.119401,0.168670,0.557521,22.566491,7.937549,71.061640
64770,-1.077047,4.369472,8.801002,-0.521007,0.475777,0.046931,0.228623,-0.194862,-0.105951,-0.010833,0.043600,0.088049,0.999999,0.001143,-0.000974,-0.000530,0.804326,0.120767,0.168546,0.556836,22.680616,7.853322,70.967188
64771,-0.857339,4.290670,8.738539,-0.393597,0.637060,-0.068656,0.208567,-0.137492,-0.064668,-0.008620,0.042818,0.087424,0.999999,0.001043,-0.000687,-0.000323,0.804469,0.121920,0.168569,0.556373,22.787282,7.790449,70.907928
64772,-1.124408,4.352523,8.876431,-0.462039,0.392984,0.118668,0.203261,-0.092596,-0.024261,-0.011280,0.043436,0.088803,0.999999,0.001016,-0.000463,-0.000121,0.804464,0.122968,0.168736,0.556098,22.896032,7.742408,70.879672
64773,-1.380391,4.363905,8.844842,-0.553802,0.144684,0.129783,0.171907,-0.066737,0.017568,-0.013837,0.043562,0.088481,1.000000,0.000860,-0.000334,0.000088,0.804339,0.123846,0.168890,0.556037,22.989845,7.698689,70.879903
64774,-1.305699,4.016329,8.960414,-0.173573,0.079672,0.091265,0.151917,-0.044863,0.039971,-0.013085,0.040093,0.089632,1.000000,0.000760,-0.000224,0.000200,0.804146,0.124609,0.169067,0.556093,23.075208,7.661513,70.896464
64775,-1.389657,3.859877,9.156716,0.025010,-0.067568,0.220758,0.157745,-0.046843,0.053004,-0.013928,0.038523,0.091594,1.000000,0.000789,-0.000234,0.000265,0.803912,0.125405,0.169240,0.556198,23.164028,7.620306,70.919894
64776,-1.539868,3.774477,9.124782,0.047239,-0.249291,0.178065,0.138110,-0.052677,0.041795,-0.015431,0.037679,0.091270,1.000000,0.000691,-0.000263,0.000209,0.803728,0.126135,0.169345,0.556267,23.241335,7.578554,70.935530
64777,-1.095034,3.739220,8.884698,0.131163,0.148794,-0.113235,0.111207,-0.045967,0.014216,-0.010973,0.037342,0.088865,1.000000,0.000556,-0.000230,0.000071,0.803631,0.126709,0.169416,0.556256,23.300760,7.546541,70.938453
64778,-1.010078,3.878819,8.896760,0.053226,0.270339,-0.058616,0.109591,-0.008690,0.000858,-0.010105,0.038739,0.088988,1.000000,0.000548,-0.000043,0.000004,0.803541,0.127167,0.169645,0.556212,23.360168,7.537185,70.942336
64779,-1.439297,4.106464,9.043029,-0.209725,-0.059708,0.220430,0.110755,-0.004816,0.017241,-0.014399,0.041013,0.090453,1.000000,0.000554,-0.000024,0.000086,0.803400,0.127627,0.169878,0.556239,23.420775,7.526101,70.956237
64780,-1.163842,3.867943,8.883503,0.024137,0.113474,-0.054682,0.081013,0.005848,0.018264,-0.011639,0.038642,0.088851,1.000000,0.000405,0.000029,0.000091,0.803267,0.127944,0.170074,0.556298,23.465452,7.520413,70.972673
64781,-0.983926,4.152358,8.907098,-0.143149,0.378318,0.055593,0.072339,0.020717,0.011605,-0.009832,0.041491,0.089087,1.000000,0.000362,0.000104,0.000058,0.803144,0.128175,0.170307,0.556351,23.504435,7.524012,70.989442
64782,-1.156923,3.919117,8.803377,-0.038198,0.137007,-0.108195,0.042226,0.057764,0.013211,-0.011546,0.039172,0.088045,1.000000,0.000211,0.000289,0.000066,0.803006,0.128188,0.170607,0.556456,23.528110,7.546733,71.015166
64783,-1.058474,3.958071,8.787116,-0.041993,0.247623,-0.120576,0.017763,0.094939,0.000863,-0.010543,0.039573,0.087880,1.000000,0.000089,0.000475,0.000004,0.802884,0.127983,0.170993,0.556560,23.537361,7.591751,71.043365
64784,-0.653878,4.024060,8.654751,-0.019566,0.660163,-0.268625,-0.000530,0.116541,-0.025813,-0.006483,0.040242,0.086551,1.000000,-0.000003,0.000583,-0.000129,0.802831,0.127628,0.171434,0.556582,23.535636,7.654266,71.061988
64785,-1.006764,4.319422,9.048815,-0.216411,0.439014,0.252721,-0.007369,0.151247,-0.056252,-0.009987,0.043200,0.090494,1.000000,-0.000037,0.000756,-0.000281,0.802836,0.127117,0.172012,0.556514,23.528255,7.741898,71.072906
64786,-2.604714,4.317814,9.682779,-0.460589,-1.056578,1.043452,0.005752,0.073467,-0.015734,-0.026008,0.043177,0.096839,1.000000,0.000029,0.000367,-0.000079,0.802787,0.126915,0.172292,0.556543,23.529552,7.779483,71.086927
64787,-2.245293,3.784736,9.361638,-0.028489,-0.897853,0.492597,-0.062320,-0.005973,0.003315,-0.022456,0.037876,0.093604,1.000000,-0.000312,-0.000030,0.000017,0.802796,0.126672,0.172049,0.556661,23.490083,7.770932,71.093118
64788,-1.549731,3.808742,9.143182,0.076953,-0.235353,0.209520,-0.043769,-0.026440,0.005039,-0.015510,0.038107,0.091421,1.000000,-0.000219,-0.000132,0.000025,0.802807,0.126568,0.171777,0.556753,23.461382,7.751285,71.095107
64789,-1.478288,3.996067,9.096060,-0.085765,-0.103786,0.230921,-0.063500,-0.018926,0.014340,-0.014794,0.039988,0.090947,1.000000,-0.000317,-0.000095,0.000072,0.802797,0.126366,0.171471,0.556908,23.421611,7.733459,71.104183
64790,-1.205247,3.934501,8.900434,-0.034696,0.133233,-0.008011,-0.076670,0.007223,0.033873,-0.012056,0.039377,0.088990,1.000000,-0.000383,0.000036,0.000169,0.802720,0.126060,0.171224,0.557165,23.377160,7.724954,71.129231
64791,-0.924754,4.091050,8.966171,-0.058307,0.452356,0.075490,-0.081072,0.041798,0.038770,-0.009237,0.040945,0.089647,1.000000,-0.000405,0.000209,0.000194,0.802600,0.125639,0.171098,0.557471,23.330948,7.733536,71.165216
64792,-1.383595,4.326368,8.981940,-0.406356,0.107139,0.243675,-0.084308,0.040739,0.045995,-0.013828,0.043298,0.089804,1.000000,-0.000422,0.000204,0.000230,0.802464,0.125219,0.170956,0.557804,23.284024,7.739959,71.204383
64793,-1.418889,4.071588,9.074296,-0.170078,-0.011596,0.232453,-0.096335,0.052836,0.075182,-0.014180,0.040754,0.090727,1.000000,-0.000482,0.000264,0.000376,0.802243,0.124738,0.170809,0.558275,23.232047,7.746159,71.262202
64794,-2.506281,4.341629,9.927788,-0.398377,-0.950010,1.261198,-0.002433,-0.027558,0.147198,-0.025108,0.043399,0.099274,1.000000,-0.000012,-0.000138,0.000736,0.801831,0.124923,0.170559,0.558901,23.237152,7.693799,71.339550
64795,-2.386534,3.524345,9.674456,0.225803,-1.130490,0.693626,-0.076974,-0.141699,0.171143,-0.023964,0.035260,0.096714,0.999999,-0.000385,-0.000708,0.000856,0.801495,0.125145,0.169625,0.559618,23.197055,7.575974,71.403990
64796,-1.446892,2.916140,9.315512,0.885657,-0.470770,0.004140,-0.001011,-0.156846,0.164181,-0.014566,0.029150,0.093144,0.999999,-0.000005,-0.000784,0.000821,0.801143,0.125712,0.168850,0.560229,23.200029,7.451742,71.460922
64797,-1.091553,3.294958,9.228498,0.632919,-0.025229,0.026630,0.018121,-0.142875,0.128807,-0.011003,0.032934,0.092280,1.000000,0.000091,-0.000714,0.000644,0.800864,0.126280,0.168204,0.560694,23.211169,7.342913,71.502640
64798,-0.948889,3.585032,8.948598,0.312088,0.194415,-0.133068,0.043519,-0.120463,0.099822,-0.009561,0.035826,0.089488,1.000000,0.000218,-0.000602,0.000499,0.800632,0.126869,0.167739,0.561032,23.236145,7.252354,71.533612
64799,-0.613719,3.776496,8.580338,0.100947,0.567529,-0.435668,0.021162,-0.064682,0.081918,-0.006180,0.037753,0.085805,1.000000,0.000106,-0.000323,0.000410,0.800416,0.127191,0.167444,0.561355,23.247978,7.195249,71.568202
64800,-0.753581,3.878943,8.596521,-0.025372,0.464295,-0.362923,-0.004601,0.002538,0.055175,-0.007545,0.038789,0.085964,1.000000,-0.000023,0.000013,0.000276,0.800236,0.127205,0.167365,0.561632,23.245863,7.179527,71.603477
64801,-0.777073,3.667042,8.756834,0.211788,0.370474,-0.296855,-0.058065,0.070237,0.009941,-0.007742,0.036695,0.087560,1.000000,-0.000290,0.000351,0.000050,0.800159,0.126771,0.167433,0.561819,23.211365,7.209694,71.630603
64802,-1.220391,3.619537,9.043734,0.225917,-0.057808,0.001850,-0.104810,0.087690,-0.049459,-0.012155,0.036246,0.090424,1.000000,-0.000524,0.000438,-0.000247,0.800265,0.126057,0.167480,0.561815,23.147308,7.262460,71.629703
64803,-1.355840,3.333688,9.235506,0.499319,-0.272237,0.082913,-0.100011,0.066037,-0.098791,-0.013511,0.033390,0.092343,1.000000,-0.000500,0.000330,-0.000494,0.800523,0.125376,0.167481,0.561600,23.081356,7.314907,71.598062
64804,-1.634616,3.717916,9.291827,0.101175,-0.397270,0.319679,-0.011681,0.021985,-0.070226,-0.016323,0.037190,0.092918,1.000000,-0.000058,0.000110,-0.000351,0.800683,0.125202,0.167539,0.561393,23.067340,7.337701,71.571152
64805,-1.136127,3.810005,8.916395,0.024532,0.111509,-0.050721,0.002078,0.027799,-0.038273,-0.011342,0.038101,0.089166,1.000000,0.000010,0.000139,-0.000191,0.800739,0.125087,0.167636,0.561310,23.062825,7.356395,71.562989
64806,-1.234433,3.893418,9.185801,0.035565,0.046798,0.240074,0.052671,0.051877,-0.003725,-0.012320,0.038910,0.091871,1.000000,0.000263,0.000259,-0.000019,0.800647,0.125142,0.167953,0.561334,23.091060,7.380011,71.578191
64807,-1.649231,3.784571,9.255077,0.032532,-0.379957,0.314206,0.049584,0.027960,0.008780,-0.016481,0.037822,0.092562,1.000000,0.000248,0.000140,0.000044,0.800541,0.125257,0.168155,0.561399,23.116983,7.388211,71.595079
64808,-1.522075,3.570530,9.235697,0.253054,-0.333528,0.196719,0.064235,0.008560,0.002945,-0.015217,0.035675,0.092369,1.000000,0.000321,0.000043,0.000015,0.800459,0.125485,0.168327,0.561413,23.151044,7.387488,71.604017
64809,-1.324623,3.578777,9.151776,0.278211,-0.145779,0.097843,0.055452,-0.001248,-0.015367,-0.013244,0.035763,0.091528,1.000000,0.000277,-0.000006,-0.000077,0.800441,0.125685,0.168443,0.561359,23.177814,7.385749,71.601457
64810,-1.126342,3.728136,8.966110,0.140790,0.092093,-0.038719,0.060846,0.002974,-0.027029,-0.011257,0.037256,0.089673,1.000000,0.000304,0.000015,-0.000135,0.800451,0.125890,0.168602,0.561252,23.207724,7.388838,71.593206
64811,-0.813390,3.821289,8.703280,0.056269,0.421651,-0.282211,0.061121,0.029442,-0.043981,-0.008113,0.038188,0.087046,1.000000,0.000306,0.000147,-0.000220,0.800484,0.126002,0.168875,0.561098,23.236674,7.409722,71.582451
64812,-0.660135,4.076374,8.534993,-0.176809,0.658300,-0.355728,0.057186,0.082403,-0.048233,-0.006556,0.040741,0.085364,1.000000,0.000286,0.000412,-0.000241,0.800488,0.125952,0.169354,0.560959,23.265367,7.459429,71.581062
64813,-1.142144,4.367793,8.660990,-0.517361,0.309916,-0.064296,0.056234,0.133684,-0.011551,-0.011361,0.043654,0.086630,1.000000,0.000281,0.000668,-0.000058,0.800344,0.125780,0.170010,0.561004,23.296874,7.527807,71.611337
64814,-1.580152,3.896458,9.113255,-0.055165,-0.257217,0.220331,0.051569,0.158719,0.036623,-0.015736,0.038938,0.091155,1.000000,0.000258,0.000794,0.000183,0.800048,0.125565,0.170726,0.561257,23.330579,7.598429,71.672501
64815,-2.263982,3.997302,9.616362,-0.134248,-0.865772,0.808558,0.106382,0.102184,0.092849,-0.022609,0.039911,0.096196,1.000000,0.000532,0.000511,0.000464,0.799606,0.125771,0.171331,0.561656,23.397303,7.626481,71.751045
64816,-1.548436,3.132548,9.213783,0.671958,-0.480215,0.006792,0.081976,0.062726,0.070934,-0.015467,0.031282,0.092156,1.000000,0.000410,0.000314,0.000355,0.799276,0.125976,0.171726,0.561959,23.448010,7.638705,71.808496
64817,-1.178364,3.491886,9.289784,0.521563,-0.011697,0.167780,0.119996,0.055794,0.030469,-0.011763,0.034861,0.092922,1.000000,0.000600,0.000279,0.000152,0.799039,0.126312,0.172223,0.562068,23.516736,7.656503,71.843363
64818,-1.220794,3.589388,9.083389,0.351280,-0.016921,0.023892,0.119694,0.055918,-0.013503,-0.012180,0.035840,0.090859,1.000000,0.000598,0.000280,-0.000068,0.798928,0.126615,0.172750,0.561997,23.582913,7.684355,71.854524
64819,-1.362298,3.921922,9.352390,0.149410,-0.039153,0.418669,0.138291,0.062183,-0.027181,-0.013589,0.039156,0.093555,1.000000,0.000691,0.000311,-0.000136,0.798836,0.126957,0.173361,0.561863,23.658238,7.718650,71.860395
64820,-1.933873,4.225300,9.265673,-0.309408,-0.474681,0.537417,0.114760,0.021958,-0.013593,-0.019326,0.042201,0.092683,1.000000,0.000574,0.000110,-0.000068,0.798756,0.127335,0.173738,0.561774,23.720541,7.728678,71.863690
64821,-1.411067,3.756924,8.967419,0.135513,-0.138977,0.009864,0.091314,0.012889,-0.023841,-0.014100,0.037530,0.089692,1.000000,0.000457,0.000064,-0.000119,0.798727,0.127630,0.174017,0.561662,23.767662,7.736358,71.859924
64822,-1.583638,4.072061,9.319874,-0.029568,-0.200486,0.478502,0.099298,-0.003694,-0.027136,-0.015833,0.040676,0.093219,1.000000,0.000496,-0.000018,-0.000136,0.798717,0.128006,0.174258,0.561516,23.819339,7.736062,71.850087
64823,-1.450345,3.848114,8.994097,0.071353,-0.150862,0.075559,0.067522,-0.032336,-0.036714,-0.014511,0.038453,0.089952,1.000000,0.000338,-0.000162,-0.000184,0.798778,0.128322,0.174298,0.561344,23.850490,7.723037,71.828961
64824,-1.134558,3.697729,8.832513,0.233348,0.094329,-0.173685,0.065634,-0.019657,-0.054876,-0.011344,0.036951,0.088336,1.000000,0.000328,-0.000098,-0.000274,0.798882,0.128585,0.174397,0.561106,23.880409,7.720820,71.800721
64825,-1.233329,3.656800,8.967382,0.299789,-0.014481,-0.054760,0.068930,0.004301,-0.072944,-0.012318,0.036542,0.089687,1.000000,0.000345,0.000022,-0.000365,0.799011,0.128772,0.174611,0.560812,23.910938,7.735416,71.769014
64826,-1.500423,3.620214,9.045299,0.288377,-0.278809,0.036868,0.101691,0.006047,-0.077727,-0.014987,0.036162,0.090472,1.000000,0.000508,0.000030,-0.000389,0.799133,0.129086,0.174929,0.560467,23.960690,7.752005,71.734724
64827,-1.170662,3.498828,8.787619,0.392480,-0.006153,-0.290061,0.082928,0.007250,-0.112193,-0.011684,0.034958,0.087891,1.000000,0.000415,0.000036,-0.000561,0.799360,0.129286,0.175219,0.560006,23.996494,7.777333,71.683003
64828,-0.956831,3.637235,8.901015,0.398081,0.243481,-0.160988,0.106036,0.014430,-0.168350,-0.009531,0.036333,0.089030,1.000000,0.000530,0.000072,-0.000842,0.799725,0.129516,0.175641,0.559300,24.042478,7.819494,71.602837
64829,-1.252187,3.894795,8.869005,0.083014,0.058225,-0.046093,0.108499,0.001126,-0.208148,-0.012481,0.038913,0.088711,0.999999,0.000542,0.000006,-0.001041,0.800208,0.129750,0.176039,0.558428,24.085736,7.864093,71.499039
64830,-1.234565,4.127568,8.664443,-0.186220,0.162560,-0.139403,0.106962,0.022661,-0.204660,-0.012294,0.041242,0.086668,0.999999,0.000535,0.000113,-0.001023,0.800664,0.129928,0.176520,0.557580,24.129763,7.919178,71.401694
64831,-1.519151,5.138503,8.775768,-1.072840,0.248153,0.410500,0.135905,0.034087,-0.124604,-0.015145,0.051335,0.087795,1.000000,0.000680,0.000170,-0.000623,0.800866,0.130254,0.177072,0.557039,24.195734,7.961583,71.349842
64832,-1.339127,5.187274,8.404986,-1.205977,0.442381,0.071379,0.051300,0.070192,-0.012095,-0.013359,0.051852,0.084068,1.000000,0.000256,0.000351,-0.000060,0.800779,0.130247,0.177463,0.557041,24.223402,7.996434,71.365464
64833,-1.027963,4.458454,8.588571,-0.405895,0.485239,-0.101979,0.036548,0.141195,0.093249,-0.010240,0.044564,0.085901,1.000000,0.000183,0.000706,0.000466,0.800344,0.130070,0.178025,0.557529,24.252061,8.043626,71.453982
64834,-1.405480,3.838909,8.772328,0.084773,-0.077388,-0.135232,0.015288,0.166707,0.100076,-0.014001,0.038375,0.087738,1.000000,0.000076,0.000834,0.000500,0.799881,0.129749,0.178629,0.558075,24.270661,8.102470,71.551768
64835,-1.275792,2.033034,9.107718,1.801407,-0.566444,-0.585258,-0.052430,0.159592,-0.034098,-0.012682,0.020356,0.091082,1.000000,-0.000262,0.000798,-0.000170,0.799841,0.129052,0.179099,0.558143,24.239654,8.189210,71.577486
64836,-2.422829,0.991715,10.362830,2.869742,-1.998861,0.287361,0.123179,0.071293,-0.207488,-0.024181,0.009878,0.103643,0.999999,0.000616,0.000356,-0.001037,0.800251,0.129153,0.179821,0.557300,24.293857,8.270631,71.490293
64837,-2.285951,2.033302,10.076022,1.915609,-1.509465,0.431240,0.174898,-0.132872,-0.429152,-0.022883,0.020294,0.100763,0.999997,0.000874,-0.000664,-0.002146,0.801424,0.129824,0.180009,0.555394,24.352904,8.297909,71.238064
64838,-1.102592,2.085771,9.585704,2.047982,-0.390676,-0.163597,0.324860,-0.209087,-0.560645,-0.011068,0.020733,0.095879,0.999994,0.001624,-0.001045,-0.002803,0.802929,0.131194,0.180395,0.552767,24.485974,8.316937,70.897758
64839,-1.760342,4.387543,9.409370,-0.150535,-0.199057,0.714573,0.414769,-0.212397,-0.580685,-0.017576,0.043731,0.094166,0.999993,0.002074,-0.001062,-0.002903,0.804421,0.132907,0.181023,0.549975,24.667789,8.340003,70.546773
64840,-1.459954,5.959168,8.267628,-1.834447,0.661367,0.296424,0.371533,-0.194828,-0.479110,-0.014538,0.059473,0.082773,0.999995,0.001858,-0.000974,-0.002396,0.805640,0.134496,0.181538,0.547631,24.834120,8.348839,70.252888
64841,-0.834509,7.067920,7.603926,-2.811659,1.662029,0.076890,0.284569,-0.055870,-0.240726,-0.008281,0.070581,0.076137,0.999998,0.001423,-0.000279,-0.001204,0.806131,0.135562,0.182209,0.546421,24.972750,8.373210,70.118699
64842,-1.507140,6.486992,8.244217,-2.244250,0.809722,0.513361,0.264410,0.077250,0.044995,-0.015054,0.064757,0.082534,0.999999,0.001322,0.000386,0.000225,0.805733,0.136451,0.183171,0.546465,25.127330,8.397644,70.166536
64843,-1.624315,5.396366,8.607991,-1.194933,0.289012,0.402266,0.136246,0.112653,0.165947,-0.016239,0.053892,0.086126,0.999999,0.000681,0.000563,0.000830,0.805058,0.136831,0.183840,0.547140,25.218330,8.410897,70.286997
64844,-1.351896,4.149929,8.820818,0.037917,0.083728,0.028446,0.050583,0.126811,0.122762,-0.013488,0.041469,0.088227,1.000000,0.000253,0.000634,0.000614,0.804546,0.136794,0.184363,0.547726,25.258206,8.441863,70.387903
64845,-1.574296,4.382092,8.994357,-0.146976,-0.036608,0.314338,-0.028227,0.119487,0.031884,-0.015696,0.043831,0.089947,1.000000,-0.000141,0.000597,0.000159,0.804342,0.136371,0.184701,0.548017,25.245062,8.491265,70.439821
64846,-1.838556,5.008558,9.076455,-0.722409,-0.047294,0.690828,-0.119347,0.100329,0.008600,-0.018342,0.050139,0.090744,1.000000,-0.000597,0.000502,0.000043,0.804283,0.135617,0.184730,0.548281,25.177902,8.536411,70.474363
64847,-1.539859,4.968229,8.736491,-0.756927,0.233058,0.324049,-0.245880,0.076896,0.045902,-0.015376,0.049786,0.087310,0.999999,-0.001229,0.000384,0.000230,0.804227,0.134448,0.184291,0.548799,25.039678,8.560449,70.523029
64848,-1.115323,3.700087,8.894898,0.489971,0.181158,-0.128636,-0.238102,0.121463,0.061310,-0.011111,0.037103,0.088912,0.999999,-0.001191,0.000607,0.000307,0.804081,0.133207,0.184043,0.549397,24.909393,8.603962,70.590244
64849,-1.842438,3.423595,9.463413,0.715230,-0.588543,0.376217,-0.218553,0.096200,0.015181,-0.018381,0.034338,0.094605,0.999999,-0.001093,0.000481,0.000076,0.804070,0.132067,0.183776,0.549778,24.785175,8.645640,70.627342
64850,-2.066928,3.653689,9.575071,0.482016,-0.705825,0.607153,-0.152738,-0.001773,-0.024552,-0.020666,0.036613,0.095723,1.000000,-0.000764,-0.000009,-0.000123,0.804216,0.131428,0.183324,0.549869,24.692562,8.645885,70.619305
64851,-1.665882,3.834874,9.117699,0.245214,-0.258073,0.211638,-0.144478,-0.045973,-0.041617,-0.016672,0.038418,0.091145,1.000000,-0.000722,-0.000230,-0.000208,0.804441,0.130923,0.182726,0.549859,24.601066,8.627253,70.592013
64852,-1.646117,4.059833,9.086010,0.033913,-0.157093,0.273030,-0.130088,-0.064496,-0.038568,-0.016483,0.040661,0.090828,1.000000,-0.000650,-0.000322,-0.000193,0.804666,0.130536,0.182093,0.549831,24.518066,8.598124,70.561481
64853,-1.899808,4.009996,9.225828,0.038216,-0.415480,0.416249,-0.102179,-0.100903,-0.018477,-0.019041,0.040149,0.092228,1.000000,-0.000511,-0.000505,-0.000092,0.804850,0.130373,0.181375,0.549839,24.450687,8.545287,70.533266
64854,-1.384242,3.705576,8.872019,0.294056,-0.045302,-0.103331,-0.125182,-0.105959,-0.047901,-0.013881,0.037115,0.088690,1.000000,-0.000626,-0.000530,-0.000240,0.805134,0.130110,0.180595,0.549742,24.368359,8.496656,70.487968
64855,-0.961989,3.154137,8.794028,0.846170,0.148632,-0.460104,-0.141035,-0.083023,-0.116441,-0.009638,0.031609,0.087914,0.999999,-0.000705,-0.000415,-0.000582,0.805595,0.129653,0.179905,0.549401,24.271768,8.476199,70.412473
64856,-1.468315,3.724329,9.147617,0.339369,-0.117699,0.166112,-0.093456,-0.063649,-0.172601,-0.014680,0.037299,0.091454,0.999999,-0.000467,-0.000318,-0.000863,0.806161,0.129289,0.179463,0.548800,24.199446,8.478867,70.311520
64857,-1.935109,4.223006,9.235697,-0.211209,-0.366929,0.516749,-0.140785,-0.082127,-0.179101,-0.019351,0.042312,0.092319,0.999999,-0.000704,-0.000411,-0.000896,0.806791,0.128773,0.178818,0.548206,24.098135,8.473323,70.203206
64858,-1.778857,3.909248,9.225475,0.081510,-0.331908,0.357815,-0.151651,-0.091114,-0.146529,-0.017802,0.039175,0.092217,0.999999,-0.000758,-0.000456,-0.000733,0.807347,0.128273,0.178088,0.547743,23.993568,8.455202,70.109557
64859,-2.141863,3.904181,9.475692,0.051022,-0.673565,0.635404,-0.141392,-0.130915,-0.126248,-0.021456,0.039122,0.094715,0.999999,-0.000707,-0.000655,-0.000631,0.807873,0.127935,0.177210,0.547330,23.894417,8.411458,70.017786
64860,-1.460813,3.673797,9.050606,0.272458,-0.122657,0.059238,-0.156662,-0.170497,-0.137253,-0.014660,0.036819,0.090465,0.999999,-0.000783,-0.000852,-0.000686,0.808475,0.127640,0.176139,0.546856,23.785135,8.349254,69.910556
64861,-1.127167,3.493702,8.824537,0.421763,0.120590,-0.265098,-0.127516,-0.151992,-0.163624,-0.011310,0.035003,0.088214,0.999999,-0.000638,-0.000760,-0.000818,0.809111,0.127382,0.175238,0.546265,23.690535,8.302768,69.794257
64862,-1.276589,3.737325,8.958769,0.206107,0.068895,-0.024452,-0.124236,-0.140965,-0.206311,-0.012790,0.037442,0.089555,0.999999,-0.000621,-0.000705,-0.001032,0.809851,0.127077,0.174418,0.545500,23.595748,8.271568,69.657498
64863,-1.636950,3.930874,9.105320,-0.035281,-0.195873,0.237119,-0.105114,-0.153439,-0.214244,-0.016397,0.039374,0.091020,0.999999,-0.000526,-0.000767,-0.001071,0.810609,0.126869,0.173603,0.544682,23.510235,8.235521,69.514185
64864,-1.304728,4.233460,8.742471,-0.343560,0.231924,-0.020678,-0.139339,-0.148523,-0.217288,-0.013066,0.042410,0.087385,0.999999,-0.000697,-0.000743,-0.001086,0.811393,0.126512,0.172719,0.543879,23.405891,8.202415,69.369981
64865,-1.074263,4.474552,8.465282,-0.599851,0.545363,-0.211678,-0.179448,-0.100975,-0.211022,-0.010738,0.044833,0.084607,0.999999,-0.000897,-0.000505,-0.001055,0.812141,0.125863,0.171911,0.543169,23.279927,8.192713,69.240558
64866,-0.748946,4.703786,8.229981,-0.796481,0.948444,-0.384797,-0.258333,-0.010335,-0.180716,-0.007451,0.047151,0.082239,0.999999,-0.001292,-0.000052,-0.000904,0.812777,0.124679,0.171241,0.542701,23.114732,8.223479,69.147480
64867,-0.939028,4.294273,8.435696,-0.458460,0.632711,-0.332555,-0.321925,0.087777,-0.139746,-0.009323,0.043085,0.084292,0.999998,-0.001610,0.000439,-0.000699,0.813255,0.122999,0.170768,0.542518,22.918667,8.296580,69.098760
64868,-1.296946,4.063791,8.862089,-0.241619,0.231986,0.016899,-0.333367,0.122620,-0.112382,-0.012892,0.040793,0.088561,0.999998,-0.001667,0.000613,-0.000562,0.813634,0.121207,0.170391,0.542472,22.719856,8.381769,69.071782
64869,-1.594431,3.876532,9.140844,-0.101031,-0.093401,0.242446,-0.308179,0.109821,-0.086323,-0.015877,0.038913,0.091357,0.999999,-0.001541,0.000549,-0.000432,0.813934,0.119569,0.170011,0.542504,22.536396,8.454398,69.055988
64870,-1.528436,3.591796,9.134334,0.135286,-0.120361,0.119096,-0.280343,0.078642,-0.072117,-0.015235,0.036051,0.091299,0.999999,-0.001402,0.000393,-0.000361,0.814205,0.118145,0.169573,0.542547,22.369562,8.507316,69.040277
64871,-1.342379,3.462688,8.948366,0.213539,0.021885,-0.126650,-0.240153,0.087489,-0.075091,-0.013372,0.034739,0.089448,0.999999,-0.001201,0.000437,-0.000375,0.814449,0.116853,0.169280,0.542551,22.225147,8.565577,69.025166
64872,-1.390043,3.452089,9.022214,0.216293,-0.008440,-0.055507,-0.242212,0.089442,-0.088411,-0.013845,0.034636,0.090186,0.999999,-0.001211,0.000447,-0.000442,0.814729,0.115542,0.168998,0.542500,22.079132,8.627664,69.002785
64873,-1.529950,2.785229,9.385517,0.858729,-0.377092,0.051719,-0.198818,0.108868,-0.085470,-0.015236,0.027952,0.093836,0.999999,-0.000994,0.000544,-0.000427,0.814957,0.114351,0.168909,0.542437,21.958171,8.699429,68.986457
64874,-1.660422,2.825657,9.375384,0.759591,-0.463845,0.079077,-0.179236,0.072871,-0.148228,-0.016549,0.028353,0.093734,0.999999,-0.000896,0.000364,-0.000741,0.815375,0.113290,0.168765,0.542077,21.842714,8.765393,68.928037
64875,-0.837160,3.354619,8.668129,0.310283,0.519822,-0.500102,-0.169715,0.098026,-0.203645,-0.008295,0.033628,0.086657,0.999999,-0.000849,0.000490,-0.001018,0.815913,0.112147,0.168777,0.541501,21.728174,8.856456,68.845488
64876,-0.432845,4.499572,7.978746,-0.797999,1.362012,-0.779309,-0.207652,0.209550,-0.188432,-0.004202,0.045083,0.079745,0.999998,-0.001038,0.001048,-0.000942,0.816336,0.110565,0.169135,0.541076,21.597367,9.003463,68.794351
64877,-0.284039,4.335229,7.979795,-0.616803,1.471053,-0.868002,-0.297531,0.390819,-0.131701,-0.002656,0.043473,0.079739,0.999997,-0.001488,0.001954,-0.000659,0.816498,0.108169,0.169955,0.541060,21.425148,9.235033,68.812404
64878,-2.857772,4.149937,9.848705,-0.651473,-0.911606,1.193228,-0.258272,0.389095,-0.046104,-0.028377,0.041633,0.098489,0.999997,-0.001291,0.001945,-0.000231,0.816404,0.106014,0.170830,0.541352,21.283491,9.447881,68.875339
64879,-2.889892,2.999763,9.897988,0.317730,-1.349951,0.836104,-0.298507,0.244726,-0.038578,-0.028772,0.030151,0.098970,0.999998,-0.001493,0.001224,-0.000193,0.816430,0.104087,0.170999,0.541634,21.113943,9.582207,68.911841
64880,-1.806453,2.804602,9.447853,0.673743,-0.405404,0.175938,-0.251513,0.179913,-0.091036,-0.017967,0.028173,0.094459,0.999999,-0.001258,0.000900,-0.000455,0.816627,0.102488,0.171060,0.541622,20.964903,9.692772,68.905628
64881,-1.390607,3.143906,9.016954,0.348786,0.130238,-0.169830,-0.235961,0.181503,-0.153032,-0.013800,0.031556,0.090145,0.999999,-0.001180,0.000908,-0.000765,0.816980,0.100889,0.171198,0.541347,20.818414,9.816875,68.866181
64882,-1.195280,3.772200,8.545589,-0.314683,0.578207,-0.418444,-0.272825,0.229475,-0.179082,-0.011821,0.037849,0.085418,0.999998,-0.001364,0.001147,-0.000895,0.817379,0.098992,0.171448,0.541016,20.650557,9.971824,68.821679
64883,-0.777314,4.200117,8.144201,-0.703118,1.159365,-0.716835,-0.354263,0.322767,-0.173941,-0.007605,0.042152,0.081380,0.999997,-0.001771,0.001614,-0.000870,0.817718,0.096508,0.171853,0.540823,20.438993,10.175657,68.798877
64884,-1.143609,3.830257,8.554462,-0.380759,0.736919,-0.406881,-0.423232,0.462304,-0.148569,-0.011210,0.038492,0.085489,0.999995,-0.002116,0.002312,-0.000743,0.817897,0.093392,0.172630,0.540852,20.195835,10.449314,68.816917
64885,-2.382658,3.572688,9.450687,-0.281547,-0.412389,0.555867,-0.463946,0.457418,-0.131542,-0.023587,0.035962,0.094478,0.999994,-0.002320,0.002287,-0.000658,0.818044,0.090131,0.173265,0.540980,19.930170,10.717032,68.842429
64886,-2.112669,2.868156,9.390019,0.365698,-0.387936,0.216149,-0.475803,0.419372,-0.155930,-0.020907,0.028921,0.093876,0.999995,-0.002379,0.002097,-0.000780,0.818287,0.086907,0.173724,0.540993,19.654225,10.969123,68.845424
64887,-2.758903,3.102088,9.854540,0.084975,-0.808596,0.849634,-0.420129,0.355684,-0.149600,-0.027390,0.031248,0.098529,0.999996,-0.002101,0.001778,-0.000748,0.818535,0.084084,0.174067,0.540955,19.407665,11.185609,68.838650
64888,-2.152642,2.678698,9.542485,0.517787,-0.389519,0.308985,-0.410076,0.293522,-0.161358,-0.021365,0.027000,0.095401,0.999996,-0.002050,0.001468,-0.000807,0.818859,0.081463,0.174188,0.540825,19.163623,11.370683,68.812099
64889,-1.687650,2.059723,9.683839,1.241769,-0.160233,0.152225,-0.339434,0.298242,-0.201886,-0.016711,0.020778,0.096828,0.999997,-0.001697,0.001491,-0.001009,0.819254,0.079078,0.174532,0.540470,18.954929,11.565810,68.763652
64890,-2.104529,1.244103,10.740794,2.171434,-0.764854,0.959556,-0.186770,0.287065,-0.233872,-0.020876,0.012566,0.107426,0.999998,-0.000934,0.001435,-0.001169,0.819682,0.077325,0.175257,0.539840,18.830026,11.760654,68.694408
64891,-2.670575,2.416216,11.091106,1.096624,-0.750836,1.772488,0.071412,0.206261,-0.251545,-0.026561,0.024156,0.110947,0.999999,0.000357,0.001031,-0.001258,0.820124,0.076827,0.176351,0.538883,18.846914,11.914890,68.600297
64892,-1.537334,4.725195,9.365099,-1.106704,1.136327,0.669672,0.055875,0.159421,-0.244751,-0.015241,0.047244,0.093676,0.999999,0.000279,0.000797,-0.001224,0.820594,0.076403,0.177212,0.537944,18.854352,12.042486,68.500642
64893,-0.965500,6.305348,8.373964,-2.616574,2.266474,0.128611,-0.079515,0.275905,-0.138667,-0.009496,0.063093,0.083728,0.999999,-0.000398,0.001380,-0.000693,0.820725,0.075198,0.178142,0.537607,18.800200,12.213586,68.482173
64894,-1.510725,5.644833,8.778954,-2.099090,1.563390,0.403278,-0.255128,0.433218,0.018821,-0.014922,0.056559,0.087750,0.999997,-0.001276,0.002166,0.000094,0.820356,0.072996,0.179188,0.538126,18.671034,12.441041,68.580090
64895,-1.668886,4.838606,9.322041,-1.278186,1.177380,0.679093,-0.428185,0.540256,0.085381,-0.016458,0.048578,0.093161,0.999994,-0.002141,0.002701,0.000427,0.819767,0.069851,0.180180,0.539109,18.454906,12.714706,68.734740
64896,-0.945000,4.211806,9.713826,-0.367440,1.676934,0.677452,-0.593758,0.628842,-0.003233,-0.009144,0.042406,0.097042,0.999991,-0.002969,0.003144,-0.000016,0.819382,0.065711,0.181119,0.539899,18.137599,13.053273,68.854866
64897,-0.274771,4.874479,10.133357,-0.594191,2.682202,1.094766,-0.788319,0.685683,-0.193685,-0.002353,0.049146,0.101149,0.999986,-0.003942,0.003428,-0.000968,0.819504,0.060444,0.181821,0.540093,17.686561,13.457020,68.876694
64898,0.247561,5.248811,10.262161,-0.753076,3.433818,1.167436,-1.006163,0.744150,-0.389330,0.002960,0.052998,0.102345,0.999979,-0.005031,0.003721,-0.001947,0.820139,0.053949,0.182230,0.539679,17.086769,13.926553,68.794710
64899,1.300217,6.228390,12.156032,-0.654404,5.125478,2.897568,-1.227540,0.675674,-0.256295,0.013492,0.063011,0.121130,0.999975,-0.006138,0.003378,-0.001281,0.820498,0.046849,0.181713,0.539970,16.373381,14.335298,68.770822
64900,1.494910,3.651396,10.600615,1.003096,4.168542,0.654215,-1.061613,0.513088,-0.160537,0.015250,0.037064,0.105772,0.999982,-0.005308,0.002565,-0.000803,0.820673,0.040955,0.180950,0.540441,15.760937,14.639374,68.769667
64901,2.215245,5.102638,10.078644,-0.256352,5.432217,0.333636,-0.601178,0.499888,-0.185358,0.022451,0.051308,0.100577,0.999992,-0.003006,0.002499,-0.000927,0.820810,0.036963,0.181372,0.540378,15.407290,14.939330,68.749703
64902,1.491331,6.083579,10.515447,-1.258794,5.317568,1.139337,-0.507719,0.505621,-0.209753,0.015243,0.061087,0.104961,0.999993,-0.002539,0.002528,-0.001049,0.820979,0.033316,0.182077,0.540121,15.103391,15.246654,68.714739
64903,1.196124,4.990273,10.355184,-0.493181,4.651528,0.755318,-0.510295,0.547219,-0.223026,0.012300,0.050153,0.103391,0.999992,-0.002551,0.002736,-0.001115,0.821135,0.029537,0.182940,0.539813,14.797050,15.577816,68.676802
64904,0.518169,5.111452,10.799074,-0.714288,4.238335,1.347111,-0.395430,0.536130,-0.349049,0.005560,0.051318,0.107875,0.999993,-0.001977,0.002681,-0.001745,0.821612,0.026140,0.184089,0.538871,14.535653,15.921895,68.562823
64905,1.776041,5.952346,10.696106,-1.057598,5.777003,1.073016,-0.389899,0.357895,-0.610344,0.018134,0.059677,0.106813,0.999992,-0.001949,0.001789,-0.003052,0.822945,0.023012,0.184544,0.536820,14.227414,16.202453,68.269532
64906,3.614284,5.553326,10.088814,-0.250349,7.213438,-0.138500,-0.271929,0.136218,-0.904525,0.036463,0.055506,0.100788,0.999989,-0.001360,0.000681,-0.004523,0.825242,0.020686,0.184442,0.533413,13.928022,16.400550,67.771857
64907,5.012256,6.179857,9.779496,-0.344752,8.714611,-0.708404,-0.019847,-0.105320,-1.176294,0.050433,0.061512,0.097815,0.999983,-0.000099,-0.000527,-0.005881,0.828438,0.019803,0.184029,0.528613,13.717495,16.497712,67.080621
64908,5.983760,6.445012,9.762114,-0.123597,9.704620,-0.955693,0.193020,-0.375549,-1.364665,0.060092,0.063946,0.097796,0.999974,0.000965,-0.001878,-0.006823,0.832323,0.020332,0.183080,0.522787,13.586131,16.469540,66.241612
64909,6.454305,6.662059,9.709075,-0.013920,10.199114,-1.078666,0.413226,-0.644644,-1.441995,0.064706,0.065953,0.097436,0.999967,0.002066,-0.003223,-0.007210,0.836588,0.022424,0.181572,0.516380,13.559940,16.298595,65.320237
64910,6.396708,6.704654,9.730396,0.087291,10.141412,-0.998349,0.516685,-0.826325,-1.491378,0.064060,0.066317,0.097740,0.999960,0.002583,-0.004132,-0.007457,0.841072,0.025356,0.179576,0.509615,13.580837,16.035243,64.346052
64911,4.497635,5.852648,10.589563,0.456178,8.145721,0.190180,0.837064,-1.058048,-1.479409,0.044844,0.057750,0.106376,0.999950,0.004185,-0.005290,-0.007397,0.845620,0.030256,0.177389,0.502538,13.785123,15.640317,63.346899
64912,3.643482,6.659845,10.468928,-0.474334,7.698134,0.566954,1.096589,-1.329802,-1.470034,0.036221,0.065755,0.105293,0.999936,0.005483,-0.006649,-0.007350,0.850248,0.036918,0.174698,0.495172,14.135982,15.100437,62.314832
64913,3.118854,5.335242,9.869328,0.338603,6.395360,-0.087619,1.148335,-1.479841,-1.554794,0.030866,0.052543,0.099226,0.999926,0.005742,-0.007399,-0.007774,0.855093,0.044120,0.171473,0.487305,14.509774,14.492360,61.210979
64914,2.137463,4.689306,9.812738,0.524565,5.084355,0.021882,1.329730,-1.596095,-1.671039,0.020976,0.046062,0.098604,0.999911,0.006648,-0.007980,-0.008355,0.860140,0.052247,0.168208,0.478681,14.976758,13.847875,60.022175
64915,1.578179,5.380250,9.650067,-0.230719,4.830385,0.245760,1.362096,-1.689070,-1.780495,0.015438,0.053005,0.096995,0.999902,0.006810,-0.008445,-0.008902,0.865361,0.060664,0.164599,0.469445,15.459008,13.174523,58.754225
64916,1.389559,5.734038,9.460065,-0.549283,4.728729,0.268857,1.265963,-1.684062,-1.815177,0.013612,0.056615,0.095076,0.999903,0.006330,-0.008420,-0.009076,0.870517,0.068584,0.160784,0.460049,15.893978,12.522680,57.465858
64917,0.989075,6.500935,9.354207,-1.277474,4.714785,0.525498,1.249910,-1.607631,-1.706876,0.009687,0.064339,0.094024,0.999912,0.006249,-0.008038,-0.008534,0.875210,0.076365,0.157178,0.451077,16.351008,11.901826,56.248426
64918,0.611684,6.949458,9.006250,-1.835918,4.562398,0.463183,1.245807,-1.498658,-1.463978,0.005945,0.068888,0.090538,0.999926,0.006229,-0.007493,-0.007320,0.879128,0.084028,0.153941,0.443142,16.846621,11.314616,55.183386
64919,0.353839,7.153910,9.090616,-2.002838,4.366411,0.716495,1.334905,-1.415916,-1.108363,0.003287,0.070911,0.091405,0.999937,0.006674,-0.007079,-0.005542,0.882039,0.092197,0.151077,0.436672,17.446591,10.718898,54.326799
64920,0.828968,6.813266,8.704026,-1.515227,4.421384,0.238198,1.481241,-1.363025,-0.652973,0.007915,0.067459,0.087596,0.999944,0.007406,-0.006815,-0.003265,0.883742,0.101194,0.148556,0.432077,18.183214,10.085798,53.727632
64921,0.824353,6.153506,8.875289,-0.883986,3.853746,0.270957,1.562546,-1.188968,-0.243082,0.007788,0.060829,0.089277,0.999951,0.007813,-0.005945,-0.001215,0.884298,0.110507,0.146738,0.429270,19.018282,9.476610,53.378171
64922,-0.335007,5.547604,9.944730,-0.663532,2.315056,1.322042,1.621754,-1.054421,0.124538,-0.003910,0.054665,0.099873,0.999953,0.008109,-0.005272,0.000623,0.883848,0.120013,0.145444,0.428084,19.922844,8.879024,53.248075
64923,-1.126881,5.516248,10.827073,-0.718356,1.382868,2.290678,1.536220,-1.065004,0.462560,-0.011973,0.054302,0.108628,0.999954,0.007681,-0.005325,0.002313,0.882651,0.129439,0.143684,0.428402,20.808484,8.206491,53.289277
64924,-0.581628,4.896949,10.192001,-0.129422,1.290589,1.434923,1.429185,-1.116013,0.801711,-0.006580,0.048214,0.102231,0.999951,0.007146,-0.005580,0.004008,0.880749,0.138693,0.141256,0.430224,21.651243,7.439738,53.493337
64925,0.144263,4.609293,10.060385,0.491827,1.498301,1.141172,1.373257,-1.024617,1.134465,0.000667,0.045406,0.100922,0.999947,0.006866,-0.005123,0.005672,0.878014,0.147765,0.138844,0.433566,22.485109,6.643011,53.882469
64926,-1.133909,3.927083,10.888313,0.577408,-0.268848,1.799899,1.442691,-1.059522,1.518076,-0.012210,0.038394,0.109099,0.999931,0.007213,-0.005297,0.007590,0.874314,0.157425,0.136150,0.438469,23.369681,5.740515,54.455794
64927,-0.855929,3.017755,10.854619,1.422062,-0.800693,1.367370,1.451441,-1.108708,1.822295,-0.009431,0.029306,0.108710,0.999917,0.007257,-0.005543,0.009111,0.869838,0.167454,0.132978,0.444586,24.264907,4.729018,55.161538
64928,-1.878228,1.014058,11.317351,2.527587,-3.050672,1.001107,1.449196,-1.064471,1.992411,-0.019479,0.009129,0.113140,0.999910,0.007246,-0.005322,0.009962,0.864807,0.177419,0.129849,0.451409,25.149356,3.693075,55.951049
64929,-2.983150,1.031953,11.598465,2.073948,-4.235058,1.243798,1.348229,-1.060324,2.004988,-0.030542,0.009234,0.115889,0.999913,0.006741,-0.005301,0.010025,0.859678,0.186952,0.126454,0.458271,25.963749,2.640507,56.730553
64930,-3.687944,0.861744,11.327106,1.772303,-5.070323,0.854694,1.055398,-1.050640,1.911135,-0.037550,0.007664,0.113117,0.999927,0.005277,-0.005253,0.009555,0.854895,0.195077,0.122518,0.464854,26.591323,1.611095,57.451500
64931,-4.888473,-0.188521,10.497615,1.649102,-6.603975,-0.442719,0.992731,-1.034960,1.850107,-0.049404,-0.002861,0.104709,0.999932,0.004964,-0.005175,0.009250,0.850180,0.202866,0.118524,0.471160,27.171615,0.594034,58.133008
64932,-5.956380,0.278484,9.642142,0.471075,-7.257824,-1.116447,0.987632,-0.972365,1.763230,-0.060050,0.001782,0.096141,0.999937,0.004938,-0.004862,0.008816,0.845528,0.210374,0.114877,0.477104,27.734868,-0.371076,58.777666
64933,-6.713489,-0.211714,9.309060,0.400115,-8.199211,-1.788772,0.896363,-0.869726,1.672465,-0.067516,-0.003097,0.092785,0.999946,0.004482,-0.004349,0.008362,0.841026,0.217203,0.111509,0.482766,28.237551,-1.269392,59.394127
64934,-7.254319,-0.502885,9.065105,0.337556,-8.860500,-2.300829,0.860558,-0.799903,1.569986,-0.072860,-0.005989,0.090336,0.999952,0.004303,-0.003999,0.007850,0.836688,0.223604,0.108467,0.488046,28.709727,-2.106180,59.971531
64935,-7.143727,-0.478194,8.703324,0.312412,-8.767943,-2.739333,0.683085,-0.675406,1.412733,-0.071693,-0.005584,0.086773,0.999964,0.003415,-0.003377,0.007064,0.832790,0.228879,0.105662,0.492860,29.075879,-2.844281,60.497848
64936,-7.925151,-0.744376,8.434826,0.104915,-9.570255,-3.262463,0.589578,-0.531625,1.277997,-0.079425,-0.008199,0.084114,0.999972,0.002948,-0.002658,0.006390,0.829204,0.233299,0.103390,0.497296,29.382472,-3.472773,60.993736
64937,-7.594419,-0.421651,7.874748,-0.133280,-9.065615,-3.675912,0.493905,-0.373199,1.174605,-0.076064,-0.004857,0.078594,0.999978,0.002470,-0.001866,0.005873,0.825859,0.236883,0.101637,0.501511,29.630930,-3.998036,61.479418
64938,-8.736599,-1.419643,7.958078,0.222087,-10.526458,-4.261341,0.506368,-0.118575,1.042754,-0.087337,-0.014853,0.079492,0.999983,0.002532,-0.000593,0.005214,0.822671,0.239784,0.101135,0.505459,29.881386,-4.358704,61.970503
64939,-9.261612,-1.080809,7.923738,-0.202351,-10.890211,-4.236649,0.542506,0.016127,0.914443,-0.092558,-0.011446,0.079214,0.999986,0.002713,0.000081,0.004572,0.819667,0.242434,0.101416,0.509005,30.152641,-4.619952,62.434637
64940,-9.631295,-1.444913,7.925442,0.012674,-11.374319,-4.494215,0.329569,0.255766,0.677023,-0.096162,-0.014906,0.079353,0.999992,0.001648,0.001279,0.003385,0.817388,0.243463,0.102435,0.511966,30.303878,-4.693828,62.849724
64941,-9.698928,-1.346708,7.670602,-0.119672,-11.329419,-4.679414,0.113908,0.379867,0.420143,-0.096815,-0.013714,0.076882,0.999996,0.000570,0.001899,0.002101,0.815954,0.243165,0.103712,0.514133,30.339238,-4.633961,63.173107
64942,-8.495217,-1.723127,6.850188,0.435631,-10.142418,-5.453313,-0.035715,0.597615,0.185338,-0.084731,-0.017298,0.068758,0.999995,-0.000179,0.002988,0.000927,0.815187,0.241566,0.105786,0.515679,30.293616,-4.397190,63.443225
64943,-8.573056,0.257930,6.976381,-1.063002,-9.523733,-4.298925,-0.277081,0.807008,0.048844,-0.085449,0.002655,0.070105,0.999991,-0.001385,0.004035,0.000244,0.814940,0.238370,0.108250,0.517044,30.111661,-4.017458,63.705619
64944,-8.560947,0.084036,7.349069,-0.725343,-9.626617,-3.972626,-0.786345,1.091120,0.050002,-0.085207,0.001109,0.073952,0.999977,-0.003932,0.005456,0.000250,0.815119,0.232355,0.110555,0.519009,29.634832,-3.494801,64.047389
64945,-1.363311,1.543524,8.521862,1.769365,-2.870760,-1.720094,-0.682644,1.213968,-0.164521,-0.013103,0.015737,0.085246,0.999975,-0.003413,0.006070,-0.000823,0.815626,0.226311,0.113872,0.520164,29.224849,-2.847800,64.312574
64946,15.922179,24.529240,23.176010,-2.793539,17.670512,22.931820,-0.934641,1.569412,-1.788837,0.163220,0.244920,0.229345,0.999918,-0.004673,0.007847,-0.008944,0.820356,0.217370,0.119811,0.515182,28.703025,-1.569826,63.855853
64947,-7.392510,1.230064,10.480861,0.024644,-8.483218,-0.115946,-3.813708,0.982569,-0.741728,-0.073359,0.014573,0.104906,0.999799,-0.019067,0.004913,-0.003708,0.825636,0.198699,0.114751,0.515438,26.516335,-0.879451,63.745243
64948,1.502899,-0.142984,3.883862,2.307248,0.522657,-6.382488,-0.851516,1.998463,0.373313,0.015419,-0.001236,0.038691,0.999939,-0.004257,0.009992,0.001867,0.824301,0.190224,0.120384,0.519471,26.019436,0.047828,64.448940
64949,-4.341174,3.827825,13.436849,0.403495,-4.848897,3.984641,-0.521383,2.165396,0.869610,-0.042121,0.038444,0.134729,0.999929,-0.002607,0.010827,0.004348,0.821153,0.182948,0.127073,0.525442,25.725150,0.941727,65.444040
64950,-3.547662,0.709868,12.396772,2.919119,-4.927923,1.761437,-0.997599,1.461364,0.509934,-0.034589,0.007629,0.124185,0.999958,-0.004988,0.007307,0.002550,0.819740,0.175318,0.129937,0.529534,25.163434,1.567503,66.072945
64951,-0.337904,-1.327018,9.935268,4.925842,-2.225591,-1.364867,-0.509950,1.381059,0.246326,-0.002677,-0.013020,0.099406,0.999972,-0.002550,0.006905,0.001232,0.818591,0.169712,0.133983,0.532123,24.882341,2.220144,66.541400
64952,-1.761215,1.465174,10.830011,2.446601,-2.457182,0.699792,-0.216904,1.401706,0.156508,-0.016864,0.014756,0.108404,0.999975,-0.001085,0.007008,0.000783,0.817376,0.165185,0.138964,0.534134,24.773146,2.906653,66.965677
64953,-3.192813,2.517530,10.635889,0.983963,-3.221808,1.064095,-0.235973,1.214350,0.002825,-0.031282,0.025300,0.106520,0.999981,-0.001180,0.006072,0.000014,0.816679,0.160960,0.143247,0.535358,24.650011,3.533437,67.264341
64954,-2.806513,2.873995,10.333481,0.754235,-2.585160,0.942041,-0.148245,1.036451,-0.089101,-0.027516,0.028829,0.103457,0.999986,-0.000741,0.005182,-0.000446,0.816260,0.157505,0.147109,0.535977,24.574916,4.089878,67.470973
64955,-2.403745,4.680841,10.631030,-0.436520,-1.466678,1.950161,-0.134072,0.807458,-0.157020,-0.023571,0.046898,0.106375,0.999991,-0.000670,0.004037,-0.000785,0.816160,0.154659,0.150124,0.536121,24.502021,4.543682,67.587546
64956,-2.710758,4.557480,10.040628,-0.673020,-1.662131,1.399670,-0.132432,0.632616,-0.140541,-0.026758,0.045660,0.100461,0.999995,-0.000662,0.003163,-0.000703,0.816136,0.152307,0.152416,0.536184,24.429033,4.902250,67.669921
64957,-2.948769,4.299450,10.454213,-0.366727,-1.951291,1.699427,-0.151295,0.495750,-0.083513,-0.029211,0.043086,0.104582,0.999997,-0.000756,0.002479,-0.000418,0.816070,0.150278,0.154054,0.536390,24.344511,5.176423,67.749874
64958,-2.737158,4.071748,10.609685,-0.027296,-1.810412,1.735393,-0.087163,0.295523,-0.025093,-0.027210,0.040767,0.106119,0.999999,-0.000436,0.001478,-0.000125,0.815950,0.149101,0.155003,0.536627,24.296372,5.331956,67.812057
64959,-1.320618,3.710409,9.391472,0.304238,-0.522281,0.353214,-0.073952,0.181787,-0.010302,-0.013119,0.037139,0.093913,1.000000,-0.000370,0.000909,-0.000052,0.815866,0.148285,0.155512,0.536833,24.253192,5.425180,67.855657
64960,-0.872102,4.310379,8.803666,-0.265945,0.180233,0.023024,-0.019072,0.193275,-0.002916,-0.008635,0.043112,0.088041,1.000000,-0.000095,0.000966,-0.000015,0.815714,0.147677,0.156210,0.537030,24.243092,5.522157,67.905134
64961,-0.651697,4.554905,8.656139,-0.443372,0.504237,-0.032619,-0.036118,0.232276,0.023732,-0.006422,0.045564,0.086561,0.999999,-0.000181,0.001161,0.000119,0.815470,0.146906,0.157001,0.537381,24.224630,5.633795,67.978475
64962,-0.780416,4.796576,8.548572,-0.732831,0.503243,-0.019632,-0.043774,0.270119,0.070452,-0.007706,0.047982,0.085486,0.999999,-0.000219,0.001351,0.000352,0.815076,0.146048,0.157891,0.537952,24.206185,5.753713,68.084591
64963,-0.984394,4.624587,8.783913,-0.564978,0.253333,0.143695,-0.064419,0.285230,0.100955,-0.009742,0.046269,0.087838,0.999999,-0.000322,0.001426,0.000505,0.814600,0.145080,0.158765,0.538677,24.177234,5.874931,68.210903
64964,-0.634168,4.243847,8.612635,-0.189336,0.464295,-0.203398,-0.095574,0.269835,0.098109,-0.006246,0.042477,0.086115,0.999999,-0.000478,0.001349,0.000491,0.814166,0.144033,0.159493,0.539398,24.131035,5.988329,68.331405
64965,-0.153286,3.310084,8.781446,0.833914,0.571312,-0.481446,-0.111059,0.338830,0.053941,-0.001393,0.033149,0.087799,0.999998,-0.000555,0.001694,0.000270,0.813803,0.142692,0.160493,0.540005,24.074662,6.148762,68.445440
64966,-1.438561,3.081256,9.771075,0.968574,-0.731788,0.461736,-0.070130,0.297756,-0.039820,-0.014234,0.030850,0.097721,0.999999,-0.000351,0.001489,-0.000199,0.813697,0.141562,0.161502,0.540162,24.036484,6.309188,68.499779
64967,-1.493796,3.062752,9.651203,0.917449,-0.756040,0.353149,-0.053357,0.193643,-0.145717,-0.014822,0.030664,0.096518,0.999999,-0.000267,0.000968,-0.000729,0.813946,0.140686,0.162207,0.539804,23.998244,6.440346,68.474467
64968,-1.335558,3.431788,9.218779,0.491321,-0.426312,0.093049,0.000208,0.137069,-0.185655,-0.013261,0.034330,0.092197,0.999999,0.000001,0.000685,-0.000928,0.814311,0.140158,0.162854,0.539196,23.987647,6.550695,68.414149
64969,-0.588215,3.077928,8.761059,0.873574,0.173433,-0.550801,-0.011513,0.168531,-0.235623,-0.005772,0.030791,0.087614,0.999999,-0.000058,0.000843,-0.001178,0.814790,0.139447,0.163633,0.538419,23.967061,6.689637,68.335499
64970,-0.880511,2.872223,8.983072,1.037273,-0.163494,-0.398983,0.017507,0.195431,-0.315665,-0.008672,0.028728,0.089842,0.999998,0.000088,0.000977,-0.001578,0.815443,0.138725,0.164655,0.537306,23.959599,6.860766,68.220218
64971,-0.660610,2.755411,8.692374,1.103560,0.035427,-0.737067,0.019130,0.221808,-0.430469,-0.006450,0.027560,0.086934,0.999997,0.000096,0.001109,-0.002152,0.816375,0.137834,0.165867,0.535744,23.945069,7.072862,68.051187
64972,-0.213371,3.445121,8.426787,0.600197,0.761102,-0.758106,0.023380,0.306796,-0.507274,-0.001917,0.034446,0.084275,0.999996,0.000117,0.001534,-0.002536,0.817436,0.136678,0.167489,0.533914,23.930662,7.346804,67.860678
64973,-0.458654,4.137061,8.451528,-0.035101,0.851635,-0.430407,0.012672,0.416430,-0.506676,-0.004306,0.041376,0.084527,0.999995,0.000063,0.002082,-0.002533,0.818402,0.135174,0.169528,0.532172,23.911443,7.678388,67.696692
64974,-1.551303,4.036888,9.237395,-0.009638,-0.169326,0.385518,0.067761,0.446629,-0.454864,-0.015215,0.040372,0.092422,0.999995,0.000339,0.002233,-0.002274,0.819160,0.133869,0.171802,0.530604,23.928577,8.013333,67.566317
64975,-2.269229,3.649194,9.544636,0.191528,-0.942008,0.610450,0.073340,0.382496,-0.439917,-0.022429,0.036506,0.095503,0.999996,0.000367,0.001912,-0.002200,0.819921,0.132758,0.173815,0.529050,23.946140,8.311645,67.429495
64976,-1.783558,3.705175,9.029542,0.129646,-0.412667,0.099665,0.045224,0.310460,-0.475650,-0.017607,0.037073,0.090331,0.999996,0.000226,0.001552,-0.002378,0.820852,0.131700,0.175481,0.527317,23.942684,8.580173,67.256054
64977,-1.206618,3.438990,8.840347,0.503820,0.054719,-0.264007,0.027023,0.340215,-0.546911,-0.011822,0.034411,0.088428,0.999995,0.000135,0.001701,-0.002735,0.821949,0.130415,0.177266,0.525328,23.922185,8.881229,67.052376
64978,-1.849993,4.338952,9.121091,-0.345125,-0.115356,0.449407,-0.024808,0.318265,-0.609831,-0.018222,0.043457,0.091235,0.999994,-0.000124,0.001591,-0.003049,0.823257,0.128927,0.178865,0.523100,23.865880,9.184836,66.809083
64979,-1.683788,4.944787,8.437243,-1.059132,0.363673,0.047273,-0.099734,0.319413,-0.592929,-0.016556,0.049539,0.084374,0.999994,-0.000499,0.001597,-0.002965,0.824556,0.127132,0.180259,0.521010,23.765709,9.485211,66.575109
64980,-1.762394,4.907263,8.787938,-0.901645,0.326735,0.360567,-0.106147,0.383849,-0.456216,-0.017343,0.049159,0.087887,0.999995,-0.000531,0.001919,-0.002281,0.825440,0.125275,0.181814,0.519519,23.676294,9.787086,66.427530
64981,-2.252383,4.298153,9.097130,-0.461296,-0.327688,0.482200,-0.123890,0.366237,-0.366549,-0.022278,0.043079,0.090986,0.999996,-0.000619,0.001831,-0.001833,0.826109,0.123460,0.183191,0.518404,23.582412,10.059294,66.323647
64982,-1.526355,3.262119,8.912715,0.588890,-0.067324,-0.218098,-0.168635,0.362069,-0.397399,-0.015037,0.032726,0.089127,0.999996,-0.000843,0.001810,-0.001987,0.826885,0.121453,0.184454,0.517191,23.460198,10.335769,66.201082
64983,-1.575600,3.173821,9.004503,0.681498,-0.100498,-0.160642,-0.143671,0.364555,-0.468896,-0.015517,0.031839,0.090051,0.999995,-0.000718,0.001823,-0.002344,0.827820,0.119465,0.185833,0.515662,23.343708,10.629975,66.040792
64984,-2.022814,3.703844,9.022172,0.083047,-0.215200,0.145040,-0.154911,0.353244,-0.532496,-0.019970,0.037162,0.090228,0.999995,-0.000775,0.001766,-0.002662,0.828930,0.117410,0.187173,0.513863,23.213945,10.931883,65.842392
64985,-2.533073,4.366767,9.090383,-0.630624,-0.318650,0.561349,-0.198256,0.325940,-0.547171,-0.025063,0.043827,0.090901,0.999994,-0.000991,0.001630,-0.002736,0.830119,0.115220,0.188294,0.512028,23.054407,11.222612,65.629508
64986,-2.826708,4.333911,9.163237,-0.700028,-0.536219,0.673499,-0.237308,0.274284,-0.500350,-0.028033,0.043518,0.091619,0.999995,-0.001187,0.001371,-0.002502,0.831251,0.113054,0.189073,0.510383,22.874958,11.474605,65.428331
64987,-2.457161,4.101442,9.122257,-0.392492,-0.258409,0.475849,-0.249136,0.235769,-0.454265,-0.024371,0.041184,0.091200,0.999996,-0.001246,0.001179,-0.002271,0.832301,0.110969,0.189634,0.508921,22.689962,11.695832,65.242895
64988,-1.850263,4.008381,8.619671,-0.297905,0.284076,-0.136962,-0.280907,0.237399,-0.450640,-0.018310,0.040246,0.086162,0.999996,-0.001405,0.001187,-0.002253,0.833352,0.108760,0.190117,0.507495,22.487348,11.916073,65.058275
64989,-1.868881,3.888484,8.854262,-0.122130,0.265930,0.032367,-0.285194,0.295435,-0.434919,-0.018473,0.039051,0.088514,0.999996,-0.001426,0.001477,-0.002175,0.834302,0.106390,0.190820,0.506171,22.284845,12.163422,64.894739
64990,-2.821868,3.829450,9.312855,-0.288005,-0.545451,0.626478,-0.274170,0.268376,-0.392829,-0.028018,0.038477,0.093114,0.999996,-0.001371,0.001342,-0.001964,0.835160,0.104184,0.191416,0.504988,22.092342,12.386320,64.746474
64991,-1.942150,3.235401,8.888193,0.360697,-0.005649,-0.163366,-0.291981,0.259246,-0.373620,-0.019246,0.032520,0.088860,0.999996,-0.001460,0.001296,-0.001868,0.835980,0.101934,0.191916,0.503899,21.889750,12.600186,64.606303
64992,-2.053953,3.620062,8.980268,0.031149,0.126850,0.084359,-0.261797,0.285885,-0.384678,-0.020341,0.036357,0.089784,0.999996,-0.001309,0.001429,-0.001923,0.836783,0.099742,0.192608,0.502740,21.704646,12.829670,64.464492
64993,-2.056500,3.398877,8.885824,0.155757,0.067488,-0.080761,-0.296622,0.306456,-0.389929,-0.020362,0.034160,0.088839,0.999996,-0.001483,0.001532,-0.001950,0.837588,0.097337,0.193299,0.501604,21.498192,13.071170,64.323880
64994,-1.917022,3.480745,9.036444,0.200870,0.286212,0.052675,-0.283679,0.335460,-0.386645,-0.018951,0.034972,0.090347,0.999996,-0.001418,0.001677,-0.001933,0.838346,0.094926,0.194142,0.500474,21.301131,13.326546,64.189729
64995,-1.861542,2.873499,8.943435,0.662810,0.093845,-0.259730,-0.287805,0.374421,-0.401163,-0.018390,0.028901,0.089427,0.999995,-0.001439,0.001872,-0.002006,0.839094,0.092375,0.195142,0.499307,21.099951,13.605687,64.055389
64996,-1.719984,1.838694,9.377865,1.729344,-0.210589,-0.260293,-0.238349,0.429665,-0.438390,-0.016958,0.018536,0.093793,0.999995,-0.001192,0.002148,-0.002192,0.839852,0.089866,0.196513,0.497950,20.925041,13.921193,63.910579
64997,-1.890665,0.352301,11.863554,3.901254,-0.917156,1.517863,0.033867,0.496883,-0.481905,-0.018603,0.003548,0.118683,0.999994,0.000169,0.002484,-0.002410,0.840520,0.088279,0.198861,0.496174,20.901633,14.281690,63.755736
64998,-2.594092,5.007525,12.438683,0.166711,0.837202,3.818024,0.333877,0.347673,-0.361747,-0.025634,0.049914,0.124515,0.999995,0.001669,0.001738,-0.001809,0.840898,0.088451,0.201271,0.494527,21.059066,14.537530,63.635300
64999,0.533512,6.118054,9.115634,-0.738601,3.974366,0.408299,0.135441,0.488832,-0.262627,0.005638,0.061112,0.091184,0.999996,0.000677,0.002444,-0.001313,0.840968,0.087529,0.203737,0.493562,21.122664,14.848913,63.600730
65000,-0.960832,6.600179,10.038631,-1.334000,3.037260,1.774133,-0.099628,0.719197,-0.354918,-0.009130,0.066068,0.100387,0.999992,-0.000498,0.003596,-0.001775,0.841125,0.084965,0.206632,0.492537,21.052009,15.302175,63.563518
65001,-1.914387,7.849948,11.905383,-1.923761,3.076439,4.110570,-0.565079,0.755133,-0.659121,-0.018435,0.078897,0.118902,0.999983,-0.002825,0.003776,-0.003296,0.842171,0.080030,0.208652,0.490722,20.669497,15.836707,63.363437
65002,2.726647,10.893751,14.888710,-1.143871,9.019394,6.469663,-1.547013,0.611227,-0.865042,0.028194,0.109964,0.147954,0.999956,-0.007735,0.003056,-0.004325,0.844215,0.071103,0.207731,0.488972,19.681526,16.332076,63.010817
65003,4.879722,4.289419,11.530999,3.505195,7.401876,0.584299,-1.750322,0.416754,-1.330616,0.049325,0.043574,0.114828,0.999937,-0.008751,0.002084,-0.006653,0.847581,0.061297,0.205630,0.485351,18.484626,16.802588,62.346918
65004,7.108508,9.491562,11.158230,0.189729,12.116105,1.063252,-0.757076,0.306711,-1.872296,0.072143,0.094665,0.111114,0.999948,-0.003785,0.001534,-0.009361,0.851975,0.055409,0.205620,0.478319,17.752769,17.299144,61.343686
65005,6.530782,12.540053,11.383716,-2.277791,13.433497,2.180675,-0.348193,0.030076,-1.811475,0.066458,0.125000,0.113609,0.999957,-0.001741,0.000150,-0.009057,0.856313,0.051980,0.205366,0.471010,17.240978,17.622735,60.317867
65006,7.659628,10.495897,9.599251,-0.715675,13.166756,-0.479901,-0.327071,-0.034111,-1.548262,0.077390,0.104519,0.095834,0.999969,-0.001635,-0.000171,-0.007741,0.860031,0.049061,0.204811,0.464750,16.778324,17.859581,59.427359
65007,6.139730,8.163566,9.927835,0.630567,10.695236,-0.425756,0.171754,-0.118669,-1.418198,0.061915,0.081113,0.099385,0.999974,0.000859,-0.000593,-0.007091,0.863362,0.048621,0.204997,0.458496,16.616546,18.022376,58.595083
65008,5.894052,7.943282,10.124603,0.910388,10.398614,-0.253359,0.494213,-0.376566,-1.479941,0.059334,0.078744,0.101553,0.999968,0.002471,-0.001883,-0.007400,0.866972,0.050090,0.204823,0.451551,16.613026,18.054154,57.681833
65009,5.878729,6.613293,9.779290,1.948182,9.544990,-0.923103,0.562802,-0.599841,-1.694505,0.059049,0.065358,0.098154,0.999956,0.002814,-0.002999,-0.008472,0.871212,0.052151,0.203861,0.443521,16.599344,17.996122,56.606442
65010,6.814262,6.085059,9.930915,3.076614,9.920285,-1.198522,0.630431,-0.851972,-1.814252,0.068265,0.059918,0.099790,0.999945,0.003152,-0.004260,-0.009071,0.875871,0.054924,0.201976,0.434786,16.591576,17.821266,55.419178
65011,8.054456,7.060520,9.677060,3.113964,11.381905,-1.498724,0.570357,-1.052365,-1.620810,0.080600,0.069675,0.097394,0.999949,0.002852,-0.005262,-0.008104,0.880237,0.058079,0.198990,0.426863,16.579053,17.501709,54.310840
65012,8.682185,6.744013,9.102665,3.634490,11.532811,-2.229673,0.443252,-1.090437,-1.273677,0.086750,0.066685,0.091648,0.999962,0.002216,-0.005452,-0.006368,0.883859,0.061077,0.195466,0.420542,16.557531,17.107037,53.397764
65013,7.683238,6.511106,9.432073,3.487576,10.531186,-1.607878,0.569660,-1.150838,-0.811722,0.076550,0.064530,0.094946,0.999971,0.002848,-0.005754,-0.004059,0.886473,0.065232,0.191764,0.416097,16.690927,16.600803,52.741357
65014,7.514376,6.617019,9.260901,3.327271,10.349724,-1.577102,0.660787,-1.166709,-0.349205,0.074716,0.065732,0.093263,0.999976,0.003304,-0.005833,-0.001746,0.888063,0.070240,0.188043,0.413583,16.954719,16.014887,52.346339
65015,6.161607,6.301287,10.174699,3.158863,9.017439,-0.331088,0.762767,-1.125422,0.067331,0.061020,0.062644,0.102331,0.999977,0.003814,-0.005627,0.000337,0.888675,0.076033,0.184534,0.412823,17.347989,15.379187,52.193405
65016,5.148653,6.517596,10.680417,2.613956,8.246179,0.590349,0.808251,-1.218005,0.476215,0.050679,0.064864,0.107377,0.999970,0.004041,-0.006090,0.002381,0.888464,0.082564,0.180570,0.413776,17.821954,14.627470,52.250412
65017,4.732398,5.469341,10.413118,2.983673,7.089490,0.265787,0.822410,-1.209246,0.808610,0.046472,0.054453,0.104638,0.999965,0.004112,-0.006046,0.004043,0.887493,0.089466,0.176494,0.416175,18.349592,13.816195,52.489024
65018,3.071997,5.156412,11.027115,2.431765,5.428065,1.243612,0.938209,-1.171460,1.111348,0.029787,0.051213,0.110688,0.999956,0.004691,-0.005857,0.005557,0.885737,0.097031,0.172708,0.419793,18.977138,12.972386,52.894251
65019,1.641719,5.542611,10.710000,1.159609,4.370061,1.486588,0.903018,-1.140786,1.373377,0.015426,0.055050,0.107439,0.999950,0.004515,-0.005704,0.006867,0.883337,0.104627,0.168807,0.424585,19.610736,12.086073,53.439829
65020,0.463475,5.281788,10.147457,0.405218,3.108918,1.198670,0.805122,-0.964547,1.604641,0.003723,0.052441,0.101706,0.999948,0.004026,-0.004823,0.008023,0.880259,0.111567,0.165371,0.430522,20.208968,11.249097,54.136083
65021,-0.906692,6.699788,10.173233,-1.439132,2.674120,2.018540,0.553730,-0.811528,1.805710,-0.010083,0.066628,0.101878,0.999947,0.002769,-0.004058,0.009028,0.876667,0.117261,0.161904,0.437599,20.679764,10.442260,54.963561
65022,-0.671571,6.433938,9.371026,-1.493818,2.571883,1.178841,0.084314,-0.658989,1.934166,-0.007646,0.064229,0.093713,0.999948,0.000422,-0.003295,0.009671,0.872854,0.120620,0.158019,0.445654,20.885329,9.691676,55.885434
65023,-2.375911,4.695223,10.545529,-0.773274,-0.057062,1.947198,-0.032731,-0.556416,2.027858,-0.024527,0.046723,0.105380,0.999945,-0.000164,-0.002782,0.010139,0.868724,0.123336,0.154213,0.454230,21.024847,8.968492,56.875010
65024,-3.869330,4.319757,10.831574,-1.225414,-1.712931,2.291642,0.356401,-0.884487,2.254872,-0.039654,0.042561,0.108218,0.999925,0.001782,-0.004422,0.011274,0.863980,0.128610,0.149740,0.463224,21.378559,8.024369,57.913151
65025,-2.699879,4.575550,10.148959,-1.086114,-0.766163,1.565158,0.419306,-0.981754,2.273248,-0.028013,0.045228,0.101449,0.999921,0.002096,-0.004909,0.011366,0.859088,0.134410,0.144923,0.472121,21.749762,7.012579,58.931775
65026,-4.721317,3.496981,10.019862,-1.337568,-3.264707,1.253691,0.665469,-1.055648,2.179245,-0.048116,0.034116,0.100061,0.999921,0.003327,-0.005278,0.010896,0.854173,0.141316,0.140443,0.480306,22.233842,5.979685,59.874555
65027,-3.839175,5.165716,9.297158,-2.452895,-1.844506,1.070173,0.775687,-1.173928,1.958591,-0.039438,0.050914,0.092941,0.999927,0.003878,-0.005869,0.009793,0.849659,0.148835,0.135824,0.487319,22.750622,4.919062,60.662764
65028,-3.212151,3.595797,8.291757,-1.267576,-2.159907,-0.553884,0.969535,-1.107340,1.723621,-0.032887,0.035275,0.082909,0.999936,0.004848,-0.005537,0.008618,0.845414,0.156800,0.132150,0.493179,23.353841,3.943991,61.330409
65029,-5.473121,4.314733,9.847921,-2.260596,-4.247309,1.250597,1.531522,-1.063588,1.616054,-0.055597,0.041946,0.098509,0.999924,0.007657,-0.005318,0.008080,0.840841,0.166973,0.130079,0.498182,24.265524,3.002864,61.937556
65030,-6.805209,6.929480,10.184099,-4.727830,-4.602068,2.617198,1.599143,-1.383082,1.520618,-0.069277,0.067956,0.101912,0.999915,0.007995,-0.006915,0.007603,0.836525,0.178104,0.126925,0.502389,25.197871,1.913879,62.403028
65031,-5.046284,4.067449,8.138581,-2.359418,-4.210296,-0.595996,1.353593,-1.412410,1.243530,-0.051286,0.039807,0.081297,0.999933,0.006768,-0.007062,0.006218,0.833011,0.188109,0.123229,0.505493,25.978013,0.866697,62.700848
65032,-6.365598,4.768741,8.185423,-3.445447,-5.304363,-0.312612,1.348242,-1.217235,0.907531,-0.064368,0.046845,0.081782,0.999948,0.006741,-0.006086,0.004538,0.830135,0.197339,0.120663,0.507321,26.747849,0.006042,62.862172
65033,-7.140773,4.957137,7.994499,-3.982568,-6.046117,-0.482238,0.904939,-1.082387,0.544272,-0.071974,0.049015,0.079779,0.999971,0.004525,-0.005412,0.002721,0.828465,0.204180,0.117854,0.508002,27.263662,-0.697414,62.862835
65034,-8.801109,2.759644,7.909261,-3.006138,-8.504397,-1.672150,0.933507,-0.864446,0.323291,-0.088396,0.027085,0.078838,0.999978,0.004668,-0.004322,0.001616,0.827162,0.210417,0.116267,0.507947,27.795635,-1.227213,62.803177
65035,-10.304299,2.551917,7.894810,-3.505034,-10.017531,-1.914527,1.040275,-0.805365,0.305497,-0.103399,0.024952,0.078663,0.999977,0.005201,-0.004027,0.001527,0.825716,0.216951,0.115186,0.507796,28.390473,-1.725551,62.744547
65036,-10.962617,-0.001105,7.393441,-1.960643,-11.561851,-3.703713,1.091874,-0.665204,0.363978,-0.109871,-0.000613,0.073567,0.999978,0.005459,-0.003326,0.001820,0.823952,0.223341,0.114769,0.507986,29.012017,-2.165083,62.749351
65037,-11.315861,-1.309107,6.631362,-1.372697,-12.245732,-5.133589,0.985745,-0.478644,0.276229,-0.113298,-0.013573,0.065976,0.999984,0.004929,-0.002393,0.001381,0.822388,0.228782,0.114927,0.508064,29.573589,-2.489884,62.757438
65038,-13.129326,-3.444218,7.209980,-0.263088,-14.848706,-5.853919,0.680497,-0.241389,0.028666,-0.131375,-0.034706,0.071823,0.999993,0.003402,-0.001207,0.000143,0.821650,0.232196,0.115583,0.507559,29.961806,-2.623262,62.707800
65039,-14.171468,-4.307368,6.398514,-0.415476,-15.900825,-7.107949,0.606953,-0.271992,-0.098797,-0.141823,-0.043197,0.063661,0.999994,0.003035,-0.001360,-0.000494,0.821326,0.235325,0.116061,0.506533,30.312059,-2.737024,62.584875
65040,-13.291078,-4.451118,5.612220,-0.258329,-14.969206,-7.858649,0.270185,-0.085188,-0.222547,-0.132984,-0.044439,0.056006,0.999998,0.001351,-0.000426,-0.001113,0.821600,0.236509,0.116611,0.505409,30.469162,-2.719840,62.454809
65041,-11.842639,-5.297137,4.769905,0.680562,-13.778269,-8.943293,0.042612,0.061677,-0.221572,-0.118470,-0.052850,0.047724,0.999999,0.000213,0.000308,-0.001108,0.822052,0.236394,0.117179,0.504596,30.493935,-2.631480,62.367937
65042,-9.102746,-6.318416,4.032903,2.421952,-11.539781,-9.930645,-0.237522,0.501416,-0.112652,-0.090961,-0.063085,0.040632,0.999996,-0.001188,0.002507,-0.000563,0.822300,0.234073,0.118728,0.504911,30.349832,-2.356283,62.462602
65043,-10.395492,-4.050320,5.308224,0.660621,-12.148608,-7.662713,-0.408645,0.821018,0.194310,-0.103696,-0.040495,0.053591,0.999989,-0.002043,0.004105,0.000972,0.821770,0.230422,0.120792,0.506960,30.098626,-2.011619,62.800938
65044,-11.041631,-5.205285,2.738266,0.225041,-12.496676,-10.351146,-0.974985,1.272164,-0.011003,-0.110241,-0.051910,0.028338,0.999968,-0.004875,0.006361,-0.000055,0.822107,0.223165,0.123511,0.509001,29.525387,-1.381222,63.162815
65045,33.104713,12.405375,4.514677,7.719265,33.240946,0.456015,1.347136,2.153857,-3.884136,0.333835,0.117296,0.042367,0.999731,0.006735,0.010768,-0.019419,0.828917,0.220745,0.140046,0.494525,30.299486,0.793302,61.854697
65046,-21.070219,34.210916,54.638458,-12.383546,-14.569204,55.240192,-6.069257,3.345147,-3.251932,-0.195868,0.361808,0.538962,0.999268,-0.030339,0.016722,-0.016256,0.840685,0.184878,0.142345,0.488678,26.791564,3.361868,61.138477
65047,-11.307795,-21.752311,-9.604361,7.128413,-18.343700,-27.303621,-1.085307,0.771261,-2.144071,-0.115771,-0.216807,-0.094423,0.999920,-0.005426,0.003856,-0.010720,0.846291,0.176879,0.144859,0.481166,26.105424,4.299479,60.238772
65048,-5.575946,0.957733,15.401323,3.067546,-6.660336,4.864491,0.099532,2.979634,0.388016,-0.053475,0.009395,0.154826,0.999887,0.000498,0.014898,0.001940,0.842996,0.170382,0.157305,0.485368,26.242594,5.728739,61.200127
65049,-8.593747,4.739249,17.615868,-0.176846,-7.457817,8.921495,-1.207059,1.410385,-0.487351,-0.084576,0.048664,0.176467,0.999954,-0.006035,0.007052,-0.002437,0.844038,0.161461,0.160685,0.485501,25.557648,6.573051,61.308397
65050,-1.346454,-4.800131,8.338873,6.635143,-4.401630,-4.245727,0.226505,1.324561,-0.719473,-0.013085,-0.048048,0.083422,0.999971,0.001133,0.006623,-0.003597,0.844493,0.158608,0.167359,0.483390,25.678820,7.430794,61.269722
65051,-4.167983,5.543437,12.252311,-0.829657,-2.174703,4.072577,0.087469,1.125791,-0.598940,-0.040823,0.055504,0.122779,0.999980,0.000437,0.005629,-0.002995,0.844890,0.155729,0.172754,0.481731,25.720357,8.156519,61.246090
65052,-6.162721,5.511339,10.650926,-2.375429,-3.645458,2.949081,0.282768,0.817969,-0.497194,-0.061054,0.055115,0.106838,0.999988,0.001414,0.004090,-0.002486,0.845131,0.154512,0.177235,0.480070,25.871461,8.697624,61.198202
65053,-5.281234,6.912278,9.997496,-3.243748,-2.053243,2.871264,0.095808,0.556236,-0.342872,-0.052415,0.069165,0.100154,0.999995,0.000479,0.002781,-0.001714,0.845361,0.153253,0.180039,0.479024,25.916045,9.066006,61.166280
65054,-4.362562,8.103001,9.729028,-3.792786,-0.594630,3.017184,-0.021360,0.342554,-0.087936,-0.043423,0.081060,0.097356,0.999998,-0.000107,0.001713,-0.000440,0.845259,0.152253,0.181462,0.478986,25.907270,9.259729,61.212475
65055,-3.196627,7.630209,8.984948,-3.214554,0.265772,1.967117,-0.199819,0.219186,0.178108,-0.031936,0.076363,0.089808,0.999999,-0.000999,0.001096,0.000891,0.844764,0.151022,0.181736,0.480145,25.812541,9.324306,61.366973
65056,-2.790660,5.898955,8.868508,-1.781466,-0.220499,1.050719,-0.290267,0.198221,0.393412,-0.027935,0.059063,0.088627,0.999997,-0.001451,0.000991,0.001967,0.843835,0.149668,0.181538,0.482271,25.684621,9.323863,61.627958
65057,-3.545256,3.968922,10.132453,-0.116024,-1.920814,1.469368,-0.243490,0.108243,0.526089,-0.035502,0.039719,0.101295,0.999996,-0.001217,0.000541,0.002630,0.842626,0.148834,0.180976,0.484848,25.589865,9.245539,61.936353
65058,-2.451811,2.154310,9.916896,1.666147,-1.841781,0.327777,-0.179571,-0.051259,0.494741,-0.024597,0.021571,0.099143,0.999997,-0.000898,-0.000256,0.002474,0.841583,0.148640,0.179915,0.487108,25.523153,9.091956,62.187815
65059,-0.624797,0.982991,9.133632,3.044138,-0.760542,-1.156207,-0.038679,-0.076812,0.314624,-0.006299,0.009838,0.091332,0.999999,-0.000193,-0.000384,0.001573,0.840892,0.148924,0.179227,0.488466,25.519661,8.970857,62.339256
65060,-0.516604,2.055883,9.054363,2.231857,-0.156693,-0.786654,0.086792,-0.081567,0.078448,-0.005211,0.020517,0.090550,1.000000,0.000434,-0.000408,0.000392,0.840689,0.149549,0.178997,0.488710,25.569520,8.904510,62.365159
65061,-0.004674,3.273509,8.317844,1.206545,0.920640,-1.003653,0.111670,-0.055283,-0.119222,-0.000050,0.032689,0.083197,1.000000,0.000558,-0.000276,-0.000596,0.840924,0.150023,0.179088,0.488127,25.617355,8.901670,62.294994
65062,0.034294,4.439138,7.837978,0.126526,1.550080,-0.940132,0.117697,0.066641,-0.185570,0.000410,0.044345,0.078406,0.999999,0.000588,0.000333,-0.000928,0.841208,0.150180,0.179754,0.487343,25.669233,8.977298,62.219934
65063,-0.401544,5.499581,7.731445,-0.918277,1.696500,-0.514274,0.106614,0.154157,-0.157769,-0.003912,0.054958,0.077347,0.999999,0.000533,0.000771,-0.000789,0.841352,0.150087,0.180742,0.486758,25.719116,9.092188,62.182270
65064,-0.069341,5.752912,7.614495,-0.996773,2.137162,-0.564972,-0.006527,0.277997,-0.157348,-0.000542,0.057532,0.076144,0.999999,-0.000033,0.001390,-0.000787,0.841467,0.149231,0.181973,0.486363,25.710361,9.269998,62.175239
65065,-1.908260,6.215621,8.547810,-1.767087,0.717325,0.756286,-0.111712,0.334493,-0.108248,-0.018906,0.062214,0.085475,0.999998,-0.000559,0.001672,-0.000541,0.841486,0.147827,0.183150,0.486317,25.646651,9.465614,62.208716
65066,-1.837199,5.047766,8.372676,-0.922952,0.263080,0.088614,-0.269422,0.290632,-0.071462,-0.018232,0.050597,0.083685,0.999998,-0.001347,0.001453,-0.000357,0.841571,0.145912,0.183730,0.486530,25.495138,9.628696,62.249406
65067,-1.291062,3.601270,8.720951,0.584432,0.053075,-0.307611,-0.239161,0.343903,-0.037850,-0.012754,0.036119,0.087188,0.999998,-0.001196,0.001720,-0.000189,0.841498,0.144013,0.184584,0.486898,25.365204,9.812010,62.321289
65068,-1.532209,3.285187,9.095862,0.881624,-0.293959,-0.065329,-0.236435,0.367382,-0.086201,-0.015141,0.032966,0.090948,0.999998,-0.001182,0.001837,-0.000431,0.841517,0.142035,0.185576,0.487070,25.234673,10.018646,62.372567
65069,-1.608157,2.860200,8.945194,1.104368,-0.514522,-0.362879,-0.201047,0.387549,-0.147097,-0.015887,0.028704,0.089454,0.999997,-0.001005,0.001938,-0.000735,0.841634,0.140087,0.186783,0.486970,25.118689,10.251510,62.397006
65070,-1.419271,3.120442,8.771467,0.914607,-0.168108,-0.441180,-0.206444,0.420340,-0.218059,-0.013974,0.031310,0.087712,0.999997,-0.001032,0.002102,-0.001090,0.841894,0.137981,0.188161,0.486591,24.995420,10.517841,62.390954
65071,-1.616042,3.826492,8.847483,0.321836,0.052538,-0.044115,-0.183529,0.449228,-0.275280,-0.015909,0.038368,0.088476,0.999996,-0.000918,0.002246,-0.001376,0.842243,0.135835,0.189756,0.485972,24.879710,10.813796,62.361881
65072,-3.264798,4.465502,9.570803,-0.587838,-1.047847,1.176222,-0.164455,0.363437,-0.270183,-0.032414,0.044778,0.095730,0.999997,-0.000822,0.001817,-0.001351,0.842643,0.133994,0.191030,0.485289,24.772349,11.063050,62.313176
65073,-2.888920,4.297156,9.414214,-0.358765,-0.751592,0.899226,-0.185765,0.242975,-0.235416,-0.028724,0.043093,0.094137,0.999998,-0.000929,0.001215,-0.001177,0.843083,0.132374,0.191722,0.484696,24.649216,11.242013,62.253648
65074,-2.345343,4.390086,9.045802,-0.352143,-0.184077,0.504388,-0.157291,0.218068,-0.161347,-0.023319,0.043991,0.090449,0.999999,-0.000786,0.001090,-0.000807,0.843348,0.131019,0.192327,0.484364,24.549843,11.389388,62.226340
65075,-2.265210,3.928855,9.033444,0.029436,-0.312901,0.290349,-0.151311,0.218997,-0.107168,-0.022532,0.039369,0.090329,0.999999,-0.000757,0.001095,-0.000536,0.843473,0.129726,0.192917,0.484259,24.458402,11.525192,62.228482
65076,-2.060159,3.392050,9.116113,0.568254,-0.376832,0.106425,-0.159779,0.187908,-0.147284,-0.020491,0.034008,0.091153,0.999999,-0.000799,0.000940,-0.000736,0.843731,0.128446,0.193378,0.483968,24.357409,11.653411,62.200845
65077,-2.365468,3.061987,9.391122,0.802177,-0.786913,0.281945,-0.112376,0.165630,-0.206138,-0.023545,0.030697,0.093914,0.999999,-0.000562,0.000828,-0.001031,0.844119,0.127350,0.193900,0.483372,24.274835,11.784710,62.136913
65078,-2.903565,3.806203,9.468605,0.017901,-0.858905,0.762485,-0.071179,0.099057,-0.205909,-0.028950,0.038126,0.094687,0.999999,-0.000356,0.000495,-0.001030,0.844545,0.126602,0.194238,0.482688,24.213614,11.880225,62.056228
65079,-1.625085,4.687492,8.556441,-0.484673,0.732322,0.038958,-0.096053,0.102368,-0.139215,-0.016174,0.046927,0.085550,1.000000,-0.000480,0.000512,-0.000696,0.844820,0.125791,0.194489,0.482318,24.144296,11.962629,62.012530
65080,-1.474622,4.954139,8.432176,-0.676728,1.017921,0.001865,-0.086003,0.209605,-0.006628,-0.014656,0.049578,0.084316,0.999999,-0.000430,0.001048,-0.000033,0.844665,0.124908,0.195132,0.482559,24.101964,12.069120,62.064592
65081,-2.177120,3.900458,8.898575,0.020595,-0.109757,0.143494,-0.107735,0.244710,0.054224,-0.021673,0.039047,0.088991,0.999999,-0.000539,0.001224,0.000271,0.844340,0.123893,0.195834,0.483105,24.054718,12.180652,62.158200
65082,-1.578139,2.459255,8.771545,1.345011,-0.292441,-0.670267,-0.099711,0.235256,-0.005954,-0.015677,0.024637,0.087722,0.999999,-0.000499,0.001176,-0.000030,0.844164,0.122890,0.196551,0.483377,24.006079,12.300492,62.216615
65083,-1.446011,1.087670,9.224907,2.668112,-0.852279,-0.838969,-0.020450,0.248921,-0.190161,-0.014335,0.010900,0.092266,0.999999,-0.000102,0.001245,-0.000951,0.844368,0.121992,0.197632,0.482806,23.981323,12.471288,62.180204
65084,-1.809478,0.701085,9.439003,2.905764,-1.342823,-0.723473,0.084675,0.202867,-0.452632,-0.017983,0.007012,0.094411,0.999997,0.000423,0.001014,-0.002263,0.845186,0.121404,0.198929,0.480988,23.984813,12.678245,61.991286
65085,-2.111470,1.456976,9.147975,2.072308,-1.196382,-0.618087,0.223214,0.160730,-0.673621,-0.020992,0.014538,0.091513,0.999993,0.001116,0.000804,-0.003368,0.846483,0.121267,0.200515,0.478075,24.037056,12.915576,61.674427
65086,-2.610191,3.217282,8.658074,0.301085,-0.690613,-0.244065,0.284471,0.123984,-0.795533,-0.025920,0.032153,0.086643,0.999991,0.001422,0.000620,-0.003978,0.848060,0.121367,0.202161,0.474548,24.107716,13.161693,61.282440
65087,-2.261801,4.660365,8.298776,-0.763247,0.398077,-0.067782,0.246725,0.148482,-0.834440,-0.022362,0.046595,0.083062,0.999990,0.001234,0.000742,-0.004172,0.849710,0.121192,0.203842,0.470908,24.150038,13.430918,60.876129
65088,-2.735097,5.587640,8.585511,-1.521786,0.527597,0.666768,0.161977,0.181653,-0.754713,-0.027062,0.055909,0.085925,0.999992,0.000810,0.000908,-0.003774,0.851177,0.120674,0.205413,0.467697,24.155308,13.698149,60.519507
65089,-2.572672,5.294121,8.469549,-1.255291,0.560284,0.409334,0.055275,0.209743,-0.630353,-0.025471,0.052998,0.084737,0.999994,0.000276,0.001049,-0.003152,0.852377,0.119747,0.206776,0.465144,24.113947,13.951623,60.236917
65090,-1.800690,4.766470,8.486155,-0.465983,0.974464,0.026500,-0.020155,0.259643,-0.582082,-0.017758,0.047725,0.084880,0.999995,-0.000101,0.001298,-0.002910,0.853450,0.118447,0.208145,0.462892,24.038664,14.218838,59.991029
65091,-2.379838,4.063538,8.802523,-0.065418,0.152591,0.168925,-0.054760,0.291365,-0.565745,-0.023555,0.040726,0.088049,0.999995,-0.000274,0.001457,-0.002829,0.854464,0.116926,0.209558,0.460766,23.944970,14.499266,59.761601
65092,-2.452747,3.288393,8.988558,0.568400,-0.284980,0.047291,-0.064866,0.295614,-0.583020,-0.024299,0.032984,0.089911,0.999995,-0.000324,0.001478,-0.002915,0.855511,0.115348,0.210973,0.458569,23.843431,14.784784,59.522344
65093,-2.103177,2.744089,8.914473,1.116346,-0.246593,-0.319849,-0.027886,0.303287,-0.657307,-0.020806,0.027522,0.089173,0.999993,-0.000139,0.001516,-0.003287,0.856688,0.113816,0.212547,0.456021,23.750382,15.091850,59.244488
65094,-2.703190,2.914271,9.121881,0.804386,-0.600787,0.086843,-0.002627,0.289890,-0.761631,-0.026788,0.029246,0.091257,0.999992,-0.000013,0.001449,-0.003808,0.858092,0.112326,0.214176,0.452978,23.655686,15.414730,58.905071
65095,-2.497963,2.857131,8.784794,0.800598,-0.411557,-0.285618,-0.018227,0.270179,-0.871946,-0.024736,0.028688,0.087879,0.999990,-0.000091,0.001351,-0.004360,0.859759,0.110677,0.215744,0.449466,23.530983,15.752648,58.500371
65096,-2.306824,1.913262,9.246133,1.808508,-0.741526,-0.291542,0.026144,0.290111,-0.988937,-0.022839,0.019234,0.092497,0.999987,0.000131,0.001451,-0.004945,0.861624,0.109061,0.217557,0.445397,23.414069,16.126199,58.034285
65097,-3.425366,0.077297,12.549001,4.139372,-2.657810,2.229656,0.316198,0.303938,-1.081885,-0.034059,0.000759,0.125543,0.999983,0.001581,0.001520,-0.005409,0.863496,0.108543,0.220119,0.440614,23.445027,16.528537,57.520114
65098,-3.487586,4.953202,11.938212,0.378183,0.188824,3.567872,0.435044,0.047426,-1.029951,-0.034593,0.049451,0.119498,0.999984,0.002175,0.000237,-0.005150,0.865445,0.109173,0.221801,0.435764,23.533314,16.784058,56.972089
65099,0.086552,4.194567,10.150228,1.980026,2.634453,0.664318,0.308386,0.250110,-1.104605,0.001224,0.041783,0.101565,0.999983,0.001542,0.001251,-0.005523,0.867372,0.108710,0.224116,0.430836,23.546362,17.164225,56.431706
65100,-0.795650,6.438767,12.675845,1.219703,3.372416,3.967944,-0.071145,0.197614,-1.412439,-0.007376,0.064486,0.126743,0.999975,-0.000356,0.000988,-0.007062,0.870193,0.106382,0.225545,0.424944,23.285093,17.585132,55.706348
65101,3.603864,7.998057,14.098090,3.229252,7.925150,4.416675,-0.663392,0.012188,-1.801169,0.036768,0.080119,0.140713,0.999954,-0.003317,0.000061,-0.009006,0.874300,0.101409,0.225097,0.417908,22.597057,17.989628,54.717628
65102,9.290151,10.146602,16.859018,6.177698,13.862409,5.780691,-1.588361,-0.417191,-1.683344,0.093408,0.102017,0.167976,0.999931,-0.007942,-0.002086,-0.008417,0.879015,0.093427,0.220756,0.412154,21.364102,18.124507,53.688586
65103,11.347123,6.777976,10.526603,6.690552,13.222716,-1.694612,-1.040896,-0.704690,-1.671860,0.113665,0.067378,0.105315,0.999945,-0.005204,-0.003523,-0.008359,0.883658,0.088433,0.216239,0.405672,20.424410,18.084094,52.602310
65104,11.171112,12.949425,10.347939,2.458182,17.127290,0.195841,-0.334739,-0.597560,-1.654650,0.112469,0.128739,0.103599,0.999960,-0.001674,-0.002988,-0.008273,0.887756,0.086364,0.213608,0.398501,19.901391,18.085192,51.547875
65105,10.407976,12.729705,11.352522,2.763826,16.432336,1.214071,-0.197405,-0.620868,-1.125313,0.104441,0.126822,0.113724,0.999979,-0.000987,-0.003104,-0.005627,0.890710,0.085506,0.210890,0.393510,19.548581,17.962188,50.790265
65106,9.525573,9.592319,10.530013,4.039359,13.623233,-0.235586,-0.017191,-0.658425,-0.544111,0.095169,0.095673,0.105605,0.999991,-0.000086,-0.003292,-0.002721,0.892457,0.086140,0.208120,0.390878,19.401634,17.706236,50.355341
65107,6.174964,6.595454,11.342584,4.370088,9.085954,0.609969,0.081058,-0.606738,-0.340356,0.061517,0.065804,0.113639,0.999994,0.000405,-0.003034,-0.001702,0.893696,0.087325,0.205662,0.389083,19.350629,17.436342,50.048318
65108,4.488030,5.423691,11.841375,4.326124,6.993902,1.239299,0.059251,-0.781090,-0.442928,0.044537,0.054103,0.118604,0.999990,0.000296,-0.003905,-0.002215,0.895310,0.088642,0.202444,0.386756,19.262023,17.093674,49.648513
65109,7.376627,6.310347,10.985297,5.165075,9.637772,-0.048136,-0.150115,-0.975093,-0.777599,0.073474,0.062900,0.110164,0.999980,-0.000751,-0.004875,-0.003888,0.897831,0.089061,0.198071,0.383060,18.989956,16.704586,49.024304
65110,13.102546,6.911649,9.736414,7.898951,14.105630,-2.540863,-0.201175,-1.366757,-1.030092,0.130710,0.068541,0.098189,0.999963,-0.001006,-0.006834,-0.005150,0.901198,0.089741,0.191967,0.378070,18.633310,16.149469,48.184555
65111,16.613417,8.098091,7.118573,8.454949,17.345242,-5.351246,0.246375,-1.719377,-1.006896,0.165918,0.080056,0.072712,0.999950,0.001232,-0.008597,-0.005034,0.904578,0.093129,0.185064,0.372581,18.529023,15.391471,47.297381
65112,16.327931,7.444707,6.479168,8.637848,16.539148,-5.832862,0.415739,-1.585086,-0.930210,0.163102,0.073552,0.066238,0.999956,0.002079,-0.007925,-0.004651,0.907529,0.097084,0.179059,0.367292,18.551448,14.695747,46.481057
65113,9.663561,6.173802,11.571086,7.170926,10.536616,0.333252,0.947964,-1.548856,-0.682749,0.095943,0.060858,0.116746,0.999953,0.004740,-0.007744,-0.003414,0.909649,0.103620,0.174023,0.362654,18.925078,13.971772,45.811868
65114,4.934156,7.120032,13.556208,4.222421,7.522138,3.766303,1.313877,-1.976480,-0.343226,0.048117,0.070222,0.136505,0.999928,0.006569,-0.009882,-0.001716,0.911230,0.112859,0.167547,0.358958,19.541559,12.963121,45.243205
65115,1.610131,4.813679,12.817515,3.057091,3.342240,3.207684,0.859966,-1.989397,-0.363955,0.014911,0.047557,0.128533,0.999940,0.004300,-0.009947,-0.001820,0.912991,0.120044,0.160145,0.355514,19.903993,11.950512,44.655684
65116,-2.982140,2.551977,13.336414,1.338747,-1.730407,3.915887,0.719477,-1.879079,-0.507558,-0.031009,0.025118,0.133167,0.999946,0.003597,-0.009395,-0.002538,0.914903,0.126241,0.153106,0.351531,20.182912,11.034470,44.006099
65117,-5.116349,2.723380,12.978564,-0.552193,-3.210297,4.022825,0.473460,-1.787796,-0.471724,-0.052257,0.027050,0.129386,0.999954,0.002367,-0.008939,-0.002359,0.916741,0.131190,0.145973,0.347946,20.338289,10.156949,43.394722
65118,-5.185606,2.868034,12.064424,-1.173901,-3.175385,3.195070,0.285067,-1.636696,-0.228469,-0.052809,0.028569,0.120255,0.999965,0.001425,-0.008183,-0.001142,0.918101,0.135156,0.139075,0.345662,20.421584,9.319161,42.944562
65119,-2.995323,5.091823,10.613033,-1.562592,-0.009836,2.232662,0.258928,-1.546506,0.292220,-0.030847,0.050736,0.105960,0.999968,0.001295,-0.007732,0.001461,0.918447,0.139221,0.132145,0.345846,20.543699,8.420562,42.796874
65120,0.059930,6.354955,8.855264,-0.818598,3.112182,0.601073,0.067225,-1.275488,0.975144,-0.000275,0.063520,0.088574,0.999968,0.000336,-0.006377,0.004876,0.917514,0.142358,0.125684,0.349436,20.616409,7.535668,43.071283
65121,0.856068,6.372114,8.291713,-0.572059,3.638448,0.011805,0.019366,-0.935157,1.745638,0.007616,0.063782,0.082960,0.999951,0.000097,-0.004676,0.008728,0.914972,0.145176,0.120102,0.356826,20.718120,6.671372,43.830977
65122,0.346073,5.135881,8.808169,-0.144980,2.202358,0.147566,0.027567,-0.689528,2.406939,0.002539,0.051381,0.088099,0.999922,0.000138,-0.003448,0.012034,0.910986,0.147949,0.115203,0.367347,20.856273,5.808205,44.992509
65123,-1.184083,4.149581,9.728741,-0.416544,0.136797,0.820961,0.158492,-0.656216,2.704385,-0.012719,0.041251,0.097279,0.999903,0.000792,-0.003281,0.013521,0.906169,0.151425,0.110414,0.379128,21.067327,4.892634,46.317740
65124,-2.076641,4.274893,10.468159,-0.971126,-0.732389,1.619140,0.115048,-0.740855,2.614805,-0.021710,0.042409,0.104627,0.999908,0.000575,-0.003704,0.013074,0.901434,0.154762,0.105247,0.390369,21.226005,3.951838,47.571151
65125,-3.391489,4.322508,10.335052,-2.013866,-1.829481,1.571216,0.023626,-0.824896,2.421769,-0.034861,0.042795,0.103213,0.999918,0.000118,-0.004124,0.012109,0.897025,0.157746,0.099613,0.400674,21.304556,2.998022,48.701823
65126,-4.045810,5.381566,10.148803,-3.318430,-1.809140,1.764826,-0.163305,-0.865059,2.251184,-0.041499,0.053435,0.101266,0.999927,-0.000817,-0.004325,0.011256,0.892992,0.159838,0.093584,0.410194,21.252509,2.063660,49.730377
65127,-5.048146,4.013362,9.246386,-3.349199,-3.420986,0.393301,-0.008059,-0.983700,2.266039,-0.051386,0.039559,0.092211,0.999924,-0.000040,-0.004918,0.011330,0.888717,0.162872,0.087278,0.419568,21.271853,1.057698,50.743113
65128,-3.499531,5.537138,7.821644,-3.936188,-1.212218,-0.479018,0.192335,-0.958487,2.332051,-0.036012,0.054880,0.078098,0.999920,0.000962,-0.004792,0.011660,0.883997,0.166724,0.081476,0.429084,21.388369,0.055691,51.793559
65129,-5.186605,5.214537,7.877318,-4.773432,-2.954233,-0.613421,0.176192,-0.842230,2.403112,-0.052818,0.051445,0.078598,0.999919,0.000881,-0.004211,0.012015,0.878939,0.170278,0.076044,0.438964,21.477389,-0.906239,52.905518
65130,-5.472669,5.245897,8.217488,-4.892981,-3.470577,-0.378422,0.191729,-0.823061,2.425719,-0.055695,0.051709,0.081997,0.999918,0.000959,-0.004115,0.012128,0.873673,0.173817,0.070735,0.448865,21.556183,-1.859163,54.031360
65131,-9.379931,4.170208,9.648020,-5.933703,-7.819068,0.291790,0.504624,-0.970610,2.597728,-0.094795,0.040232,0.096125,0.999901,0.002523,-0.004853,0.012988,0.867633,0.179103,0.065287,0.459210,21.792040,-2.934921,55.216527
65132,-8.074623,5.860698,7.933661,-6.911808,-5.754794,-0.780017,0.424209,-1.133956,2.636926,-0.081957,0.057364,0.078997,0.999895,0.002121,-0.005670,0.013184,0.861457,0.184371,0.058931,0.469496,21.959516,-4.105281,56.384171
65133,-8.317397,2.742661,6.538726,-4.911304,-7.372456,-3.411385,0.208510,-0.821576,2.463271,-0.083771,0.026329,0.065072,0.999915,0.001043,-0.004108,0.012316,0.855623,0.187907,0.053534,0.479306,21.983736,-5.078514,57.526686
65134,-9.086502,2.779533,6.636174,-5.219133,-8.216874,-3.522467,0.386609,-0.639618,2.339454,-0.091393,0.026600,0.066122,0.999925,0.001933,-0.003198,0.011697,0.849738,0.191689,0.049479,0.488623,22.094394,-5.925683,58.642234
65135,-8.488645,1.752751,6.271354,-4.048005,-8.230998,-4.306368,0.384514,-0.345705,2.150370,-0.085176,0.016492,0.062599,0.999939,0.001923,-0.001728,0.010752,0.844121,0.194684,0.046817,0.497359,22.193268,-6.581557,59.721206
65136,-11.226811,1.229795,8.414764,-4.237240,-11.546757,-2.951629,0.575513,-0.093192,1.946159,-0.112418,0.010962,0.084128,0.999948,0.002878,-0.000466,0.009731,0.838678,0.197773,0.045914,0.505369,22.397504,-7.058508,60.745348
65137,-11.847010,2.213722,8.545923,-5.134502,-11.857881,-2.649761,0.455178,-0.274896,1.677073,-0.118766,0.020948,0.085345,0.999961,0.002276,-0.001374,0.008385,0.833992,0.200746,0.044186,0.512060,22.547133,-7.578626,61.585924
65138,-9.577386,-0.548336,6.591815,-2.169309,-10.498388,-5.278845,0.146487,-0.131679,1.168816,-0.095783,-0.006091,0.065851,0.999982,0.000732,-0.000658,0.005844,0.830844,0.201933,0.042794,0.516807,22.546254,-7.909613,62.186399
65139,-10.502742,-0.976942,7.053529,-2.018351,-11.644894,-5.193563,0.280956,0.023330,0.666901,-0.104986,-0.010219,0.070533,0.999993,0.001405,0.000117,0.003334,0.828799,0.203169,0.042883,0.519592,22.651939,-8.050600,62.553932
65140,-9.871767,-0.983013,6.987036,-1.682728,-11.094106,-5.194697,0.339770,0.027284,0.245012,-0.098696,-0.010070,0.069867,0.999998,0.001699,0.000136,0.001225,0.827787,0.204542,0.043585,0.520607,22.822728,-8.094982,62.696273
65141,-9.054788,-1.213748,6.931118,-1.106284,-10.450809,-5.223626,0.316351,0.173584,-0.211490,-0.090501,-0.012151,0.069371,0.999998,0.001582,0.000868,-0.001057,0.827947,0.205337,0.045288,0.519894,23.008894,-7.961967,62.628957
65142,-9.931816,-0.244153,7.216100,-2.249170,-10.925788,-4.680367,0.163399,0.284924,-0.666205,-0.099223,-0.002170,0.072301,0.999993,0.000817,0.001425,-0.003331,0.829418,0.205105,0.047531,0.517434,23.137293,-7.666756,62.344512
65143,-9.591202,-0.749363,6.978548,-1.786885,-10.711802,-4.984020,-0.054455,0.403259,-1.089793,-0.095810,-0.006952,0.069981,0.999983,-0.000272,0.002016,-0.005449,0.832158,0.203552,0.050128,0.513388,23.163673,-7.213935,61.863552
65144,-10.872736,-0.381970,6.852439,-2.809134,-11.599180,-5.028938,0.076769,0.405231,-1.301211,-0.108610,-0.003139,0.068743,0.999977,0.000384,0.002026,-0.006506,0.835277,0.202485,0.053289,0.508402,23.275600,-6.711210,61.270950
65145,-9.966162,0.373617,6.463935,-3.203754,-10.329001,-4.883972,0.031597,0.439564,-1.428140,-0.099489,0.004437,0.064859,0.999972,0.000158,0.002198,-0.007141,0.838710,0.201088,0.056604,0.502917,23.361571,-6.160432,60.621620
65146,-9.313288,2.136926,5.841496,-4.583461,-8.784048,-4.591782,0.185268,0.479775,-1.265919,-0.092855,0.021903,0.058658,0.999977,0.000926,0.002399,-0.006330,0.841530,0.200279,0.060309,0.498074,23.520667,-5.624295,60.067953
65147,0.527284,1.297929,6.233438,1.089938,-0.682881,-3.554607,-0.450725,0.977697,-1.187792,0.005655,0.013087,0.062278,0.999968,-0.002254,0.004888,-0.005939,0.844595,0.195554,0.064446,0.494231,23.293615,-4.843610,59.670756
65148,38.618067,24.056408,25.459413,8.416648,37.234503,25.693185,0.791058,2.263684,-2.992015,0.392567,0.233725,0.251108,0.999816,0.003955,0.011318,-0.014959,0.850310,0.192286,0.078829,0.483513,23.814618,-2.974188,58.620544
65149,-29.348672,7.562464,19.254022,-15.304903,-26.019576,9.626965,-3.411963,1.837881,-0.943416,-0.291338,0.080302,0.193881,0.999801,-0.017059,0.009189,-0.004717,0.854954,0.172906,0.079237,0.482575,21.858366,-1.798922,58.537278
65150,4.433166,-8.089587,2.779101,9.605823,-0.654755,-10.153884,0.148699,1.873247,-0.410000,0.044423,-0.081007,0.027315,0.999954,0.000743,0.009366,-0.002050,0.855012,0.168836,0.087912,0.482410,21.935542,-0.719914,58.725110
65151,-8.296479,1.180580,16.113292,-0.036542,-9.714707,5.532457,0.680456,2.081145,0.098730,-0.081288,0.011215,0.162023,0.999940,0.003402,0.010406,0.000494,0.853211,0.166732,0.098320,0.484319,22.318761,0.359365,59.233093
65152,-1.313423,-4.530517,11.109717,6.600432,-5.323783,-1.223940,-0.323790,1.446057,-0.836774,-0.012519,-0.045072,0.111262,0.999964,-0.001619,0.007230,-0.004184,0.854745,0.161417,0.104357,0.482147,22.127528,1.303187,59.108078
65153,0.192974,0.032664,11.045737,3.836834,-1.713429,0.404306,0.811812,1.337032,-1.145933,0.002668,-0.000136,0.110441,0.999953,0.004059,0.006685,-0.005730,0.856091,0.161027,0.112907,0.477944,22.577502,2.257675,58.798767
65154,-4.069268,2.973470,11.216467,-0.466622,-3.845151,1.857957,0.802065,1.127318,-1.230706,-0.039877,0.029531,0.112510,0.999957,0.004010,0.005637,-0.006153,0.857693,0.161051,0.120594,0.473162,23.014636,3.121792,58.403942
65155,-4.335438,7.397375,10.016937,-4.316844,-1.549268,2.549257,0.715404,0.849333,-1.175503,-0.042493,0.073866,0.100615,0.999967,0.003577,0.004247,-0.005877,0.859336,0.161364,0.126831,0.468421,23.393187,3.830711,57.982633
65156,-3.685318,8.865727,8.587634,-5.497076,0.084306,1.836478,0.530136,0.769123,-0.842946,-0.036149,0.088582,0.086251,0.999980,0.002651,0.003846,-0.004215,0.860358,0.161289,0.132014,0.465126,23.674171,4.422963,57.720462
65157,-2.128786,11.267096,8.570780,-6.399478,2.729304,2.698661,0.182609,0.703800,-0.475558,-0.020718,0.112642,0.085884,0.999991,0.000913,0.003519,-0.002378,0.860823,0.160092,0.135810,0.463584,23.766654,4.898186,57.639386
65158,-2.539566,9.480650,8.201095,-5.360264,1.584394,1.691529,-0.131021,0.723917,-0.051526,-0.025074,0.094867,0.082040,0.999993,-0.000655,0.003620,-0.000258,0.860531,0.157801,0.138622,0.464080,23.700630,5.285129,57.785213
65159,-2.740496,7.184824,9.115648,-3.368618,0.147970,1.626602,-0.378289,0.718381,0.267532,-0.027174,0.071984,0.091118,0.999991,-0.001891,0.003592,0.001338,0.859682,0.154664,0.140587,0.466113,23.508433,5.597446,58.097965
65160,-3.721949,3.406403,11.115278,-0.245545,-2.854868,2.053023,-0.357188,0.543682,0.402638,-0.036986,0.034188,0.111193,0.999993,-0.001786,0.002718,0.002013,0.858612,0.152131,0.141738,0.468564,23.333858,5.786985,58.440523
65161,-2.095180,1.008768,10.932324,2.358736,-2.642812,0.788016,-0.282285,0.281102,0.306492,-0.020814,0.010210,0.109338,0.999997,-0.001411,0.001406,0.001532,0.857886,0.150450,0.142016,0.470349,23.190650,5.862309,58.672685
65162,-0.095668,0.067156,9.707780,3.640331,-1.245098,-0.899083,-0.093873,0.207184,0.046440,-0.000856,0.000717,0.097078,0.999999,-0.000469,0.001036,0.000232,0.857680,0.149581,0.142608,0.470823,23.140891,5.956396,58.749638
65163,-0.235203,1.750858,9.324740,2.142211,-0.435416,-0.577272,0.064885,0.218908,-0.169610,-0.002235,0.017480,0.093256,0.999999,0.000324,0.001095,-0.000848,0.857852,0.149195,0.143791,0.470271,23.169205,6.106657,58.715635
65164,-0.373125,3.459236,8.819508,0.591028,0.403547,-0.358746,0.124914,0.269739,-0.208770,-0.003576,0.034541,0.088222,0.999998,0.000625,0.001349,-0.001044,0.858035,0.148934,0.145357,0.469539,23.232135,6.291246,58.671700
65165,-0.501655,4.327293,8.472590,-0.244449,0.804376,-0.322956,0.158577,0.353582,-0.147743,-0.004835,0.043209,0.084769,0.999998,0.000793,0.001768,-0.000739,0.857984,0.148647,0.147320,0.469111,23.318575,6.507456,58.680308
65166,-0.725586,4.124054,8.561911,-0.138925,0.523636,-0.297070,0.146601,0.406515,-0.118833,-0.007057,0.041182,0.085664,0.999997,0.000733,0.002033,-0.000594,0.857832,0.148223,0.149456,0.468847,23.402765,6.743677,58.715762
65167,-0.661302,4.047576,8.462799,-0.057867,0.581018,-0.426631,0.048895,0.436255,-0.184009,-0.006391,0.040461,0.084652,0.999997,0.000244,0.002181,-0.000920,0.857878,0.147244,0.151542,0.468402,23.426502,7.011556,58.724621
65168,-0.249595,3.793619,8.409320,0.350927,0.845173,-0.629398,-0.024739,0.488911,-0.306342,-0.002232,0.037950,0.084094,0.999996,-0.000124,0.002445,-0.001532,0.858220,0.145748,0.153765,0.467518,23.402844,7.333759,58.679883
65169,-1.360864,4.302254,8.967537,-0.359621,0.160396,0.218399,-0.059562,0.507266,-0.369510,-0.013302,0.043074,0.089697,0.999995,-0.000298,0.002536,-0.001848,0.858711,0.143995,0.156035,0.466404,23.353796,7.681109,58.606440
65170,-2.138086,3.956873,9.373223,-0.315481,-0.663405,0.557734,-0.096395,0.440002,-0.367640,-0.021102,0.039653,0.093760,0.999996,-0.000482,0.002200,-0.001838,0.859272,0.142256,0.157924,0.465269,23.282519,7.991404,58.517333
65171,-1.657455,3.893075,9.165548,-0.086450,-0.219006,0.279626,-0.090037,0.384489,-0.353283,-0.016329,0.039001,0.091669,0.999996,-0.000450,0.001922,-0.001766,0.859830,0.140668,0.159581,0.464154,23.212346,8.270298,58.423532
65172,-0.820837,3.843239,8.547998,0.148483,0.566719,-0.422848,-0.139509,0.417491,-0.367098,-0.007959,0.038507,0.085470,0.999996,-0.000698,0.002087,-0.001835,0.860424,0.138794,0.161270,0.463032,23.114617,8.568374,58.328608
65173,-0.772618,4.190894,8.326885,-0.163244,0.866538,-0.500346,-0.165502,0.531531,-0.351334,-0.007431,0.041991,0.083254,0.999995,-0.000828,0.002658,-0.001757,0.860898,0.136540,0.163381,0.462080,23.005278,8.924019,58.268146
65174,-1.424910,4.278609,8.760401,-0.374824,0.392153,0.025340,-0.205916,0.609012,-0.320137,-0.013914,0.042899,0.087603,0.999994,-0.001030,0.003045,-0.001601,0.861256,0.133973,0.165705,0.461336,22.878986,9.312295,58.240295
65175,-2.457844,4.209660,9.190857,-0.667263,-0.477934,0.558428,-0.201703,0.574304,-0.257951,-0.024260,0.042221,0.091936,0.999995,-0.001009,0.002872,-0.001290,0.861485,0.131539,0.167850,0.460834,22.757724,9.669488,58.237784
65176,-1.952551,3.362502,9.153591,0.228803,-0.445287,0.119892,-0.228159,0.557320,-0.250847,-0.019228,0.033754,0.091551,0.999995,-0.001141,0.002787,-0.001254,0.861721,0.129050,0.169849,0.460363,22.622406,10.015000,58.233720
65177,-1.917213,3.560409,9.316327,0.178953,-0.256647,0.338566,-0.186108,0.533502,-0.262861,-0.018877,0.035716,0.093181,0.999995,-0.000931,0.002668,-0.001314,0.861968,0.126770,0.171854,0.459790,22.507677,10.351694,58.217828
65178,-2.334970,3.713861,9.420477,-0.095904,-0.467894,0.568150,-0.191855,0.503352,-0.267257,-0.023063,0.037260,0.094227,0.999995,-0.000959,0.002517,-0.001336,0.862248,0.124545,0.173712,0.459175,22.389037,10.672199,58.191427
65179,-2.584836,3.973678,9.602692,-0.332424,-0.486480,0.880102,-0.171066,0.449224,-0.221361,-0.025589,0.039847,0.096051,0.999996,-0.000855,0.002246,-0.001107,0.862449,0.122557,0.175359,0.458706,22.283168,10.955137,58.177836
65180,-2.698232,4.441193,9.192955,-0.900796,-0.255789,0.705776,-0.140111,0.366323,-0.124069,-0.026786,0.044493,0.091948,0.999998,-0.000701,0.001832,-0.000620,0.862476,0.120993,0.176654,0.458572,22.202729,11.171821,58.197307
65181,-1.099926,2.164264,8.778272,1.465394,-0.115592,-0.824304,-0.164876,0.424885,-0.074071,-0.010805,0.021719,0.087788,0.999997,-0.000824,0.002124,-0.000370,0.862347,0.119216,0.178119,0.458714,22.114693,11.410008,58.257105
65182,-1.937028,1.027310,9.843917,2.345881,-1.445293,-0.111248,0.023042,0.445627,-0.165704,-0.019142,0.010278,0.098483,0.999997,0.000115,0.002228,-0.000829,0.862295,0.118135,0.180153,0.458298,22.126787,11.677809,58.271044
65183,-2.044705,1.390810,9.605179,1.943284,-1.289348,-0.172370,0.082303,0.362551,-0.382382,-0.020246,0.013907,0.096094,0.999996,0.000412,0.001813,-0.001912,0.862772,0.117287,0.182095,0.456848,22.143727,11.949469,58.150019
65184,-1.778212,3.511588,8.776165,0.177992,0.174598,-0.197491,0.134985,0.361462,-0.485069,-0.017538,0.035099,0.087817,0.999995,0.000675,0.001807,-0.002425,0.863448,0.116591,0.184208,0.454897,22.179923,12.241625,57.972268
65185,-1.605666,4.973930,8.157485,-1.048510,1.198770,-0.256224,0.077880,0.449435,-0.427803,-0.015767,0.049741,0.081630,0.999995,0.000389,0.002247,-0.002139,0.863936,0.115483,0.186540,0.453300,22.191842,12.569294,57.845829
65186,-2.548159,5.365827,8.415731,-1.687075,0.685021,0.326046,-0.037649,0.533840,-0.335320,-0.025167,0.053716,0.084215,0.999995,-0.000188,0.002669,-0.001677,0.864197,0.113787,0.188915,0.452248,22.153475,12.920564,57.787368
65187,-3.762978,4.502804,9.412526,-1.229081,-0.771287,1.183904,-0.121131,0.493732,-0.268707,-0.037337,0.045135,0.094190,0.999996,-0.000606,0.002469,-0.001344,0.864382,0.111866,0.190893,0.451541,22.071693,13.237259,57.756574
65188,-3.838330,3.774189,9.748811,-0.572972,-1.200335,1.243863,-0.157945,0.336507,-0.228786,-0.038176,0.037863,0.097523,0.999998,-0.000790,0.001683,-0.001144,0.864645,0.110196,0.192080,0.450945,21.966914,13.460674,57.711595
65189,-2.394895,3.169976,9.133131,0.359383,-0.303434,0.136031,-0.183364,0.263884,-0.253354,-0.023788,0.031814,0.091334,0.999998,-0.000917,0.001319,-0.001267,0.865041,0.108538,0.192914,0.450231,21.839067,13.651868,57.637374
65190,-1.727326,3.142120,8.840874,0.601657,0.272784,-0.295278,-0.180188,0.292825,-0.312669,-0.017095,0.031528,0.088405,0.999997,-0.000901,0.001464,-0.001563,0.865539,0.106788,0.193906,0.449266,21.707773,13.869679,57.535820
65191,-1.594198,3.745134,8.554914,0.106597,0.774608,-0.371158,-0.190640,0.341944,-0.328515,-0.015734,0.037559,0.085540,0.999997,-0.000953,0.001710,-0.001643,0.866023,0.104849,0.195099,0.448271,21.569055,14.117961,57.436306
65192,-1.726728,3.663579,8.478011,0.069839,0.668849,-0.441049,-0.210077,0.430656,-0.309541,-0.017028,0.036751,0.084778,0.999996,-0.001050,0.002153,-0.001548,0.866384,0.102662,0.196617,0.447415,21.427231,14.408115,57.365033
65193,-2.037871,3.206711,8.713634,0.352752,0.205868,-0.315519,-0.235862,0.501756,-0.300551,-0.020112,0.032200,0.087149,0.999995,-0.001179,0.002509,-0.001503,0.866660,0.100196,0.198383,0.446661,21.273803,14.735301,57.313819
65194,-2.244043,2.726979,8.951468,0.711560,-0.179813,-0.217796,-0.203426,0.544083,-0.325937,-0.022152,0.027397,0.089547,0.999994,-0.001017,0.002720,-0.001630,0.866926,0.097766,0.200412,0.445776,21.138489,15.089086,57.256070
65195,-3.508762,2.337765,9.972106,0.797373,-1.363045,0.898307,-0.097395,0.511984,-0.358883,-0.034790,0.023489,0.099799,0.999995,-0.000487,0.002560,-0.001794,0.867235,0.095817,0.202555,0.444628,21.055393,15.433515,57.173062
65196,-3.258481,2.367596,9.803861,0.850676,-1.088997,0.695838,-0.071051,0.396484,-0.415748,-0.032341,0.023778,0.098094,0.999996,-0.000355,0.001982,-0.002079,0.867769,0.094197,0.204278,0.443141,20.973046,15.726620,57.032549
65197,-2.074553,1.194412,9.672046,2.288322,-0.781394,-0.146680,0.043409,0.392122,-0.500094,-0.020526,0.011975,0.096763,0.999995,0.000217,0.001961,-0.002500,0.868431,0.092978,0.206277,0.441172,20.940862,16.035683,56.844356
65198,-2.459583,0.082743,12.007364,3.959458,-1.671076,1.666124,0.342500,0.419132,-0.573423,-0.024342,0.000692,0.120126,0.999992,0.001712,0.002096,-0.002867,0.869079,0.092939,0.209081,0.438577,21.070697,16.373267,56.620380
65199,-3.046741,5.786440,12.455683,-0.208875,1.302751,4.193315,0.547572,0.243251,-0.575490,-0.030150,0.057610,0.124752,0.999991,0.002738,0.001216,-0.002877,0.869804,0.094155,0.211570,0.435676,21.304332,16.619077,56.358854
65200,1.045816,5.357828,9.724911,1.117347,4.281538,0.424177,0.260254,0.376696,-0.627135,0.010809,0.053418,0.097299,0.999992,0.001301,0.001883,-0.003136,0.870624,0.093793,0.214033,0.432905,21.373963,16.946459,56.097081
65201,-0.531352,7.790962,12.137626,-0.308179,4.631447,3.853214,-0.082350,0.491434,-0.788000,-0.004708,0.077979,0.121356,0.999989,-0.000412,0.002457,-0.003940,0.871813,0.091500,0.216326,0.429852,21.224653,17.369277,55.770426
65202,2.809864,9.450222,15.140200,1.678048,8.505667,6.038559,-0.937954,0.256414,-1.081769,0.028805,0.095056,0.150920,0.999974,-0.004690,0.001282,-0.005409,0.874249,0.085678,0.215881,0.426314,20.518534,17.723014,55.223761
65203,8.859521,4.831670,14.844933,7.995258,10.515266,2.340883,-1.983330,-0.190603,-1.051042,0.088711,0.049320,0.148048,0.999937,-0.009916,-0.000953,-0.005255,0.877469,0.076252,0.211220,0.423817,19.185211,17.820994,54.596633
65204,10.134156,5.492487,11.133785,6.561013,11.813414,-1.197258,-0.763115,-0.470719,-1.497880,0.101489,0.054590,0.111368,0.999962,-0.003816,-0.002354,-0.007489,0.881379,0.072307,0.208066,0.417913,18.456642,17.838426,53.657919
65205,10.411809,12.003220,11.296514,2.314124,16.207547,0.772714,-0.393246,-0.514008,-1.801071,0.104904,0.119312,0.112999,0.999954,-0.001966,-0.002570,-0.009005,0.885759,0.069751,0.205578,0.410248,17.882438,17.875810,52.538222
65206,11.307837,12.837193,10.885615,2.253395,17.435236,0.291242,-0.474494,-0.571801,-1.524304,0.113742,0.127765,0.108877,0.999964,-0.002372,-0.002859,-0.007621,0.889589,0.067243,0.202562,0.403828,17.308556,17.823495,51.565671
65207,10.625959,11.501598,9.990794,2.520365,16.012024,-0.742076,-0.419916,-0.500755,-0.961355,0.106561,0.114714,0.099933,0.999983,-0.002100,-0.002504,-0.004807,0.892145,0.065399,0.199759,0.399870,16.869521,17.705605,50.931171
65208,9.089308,10.376028,9.638993,2.271598,14.106986,-0.923345,-0.337498,-0.403789,-0.467591,0.090941,0.103710,0.096398,0.999994,-0.001687,-0.002019,-0.002338,0.893570,0.064222,0.197401,0.398045,16.571411,17.557164,50.598251
65209,7.774746,8.805098,9.520830,2.502782,12.067521,-1.052916,-0.192327,-0.373090,-0.139510,0.077631,0.088088,0.095268,0.999998,-0.000962,-0.001865,-0.000698,0.894257,0.063963,0.195344,0.397559,16.415824,17.368548,50.461148
65210,7.491748,7.598043,9.650249,3.189527,11.033262,-1.147946,-0.059634,-0.338014,0.087071,0.074721,0.076042,0.096606,0.999998,-0.000298,-0.001690,0.000435,0.894414,0.064442,0.193652,0.397956,16.377470,17.164760,50.460179
65211,6.714316,7.218065,11.163999,3.549722,10.230735,0.412206,0.099889,-0.429764,0.266723,0.066807,0.072214,0.111820,0.999997,0.000499,-0.002149,0.001334,0.894246,0.066003,0.191786,0.398981,16.456408,16.878320,50.547548
65212,6.194330,6.334221,12.069537,4.156690,9.216301,1.230223,0.213940,-0.820131,0.428544,0.061312,0.063345,0.121015,0.999989,0.001070,-0.004101,0.002143,0.894079,0.068994,0.188368,0.400474,16.607185,16.354049,50.659789
65213,6.772316,6.205418,11.342485,4.255819,9.432571,0.479788,0.323766,-1.167388,0.466150,0.066915,0.062027,0.113917,0.999979,0.001619,-0.005837,0.002331,0.894096,0.073221,0.183572,0.401911,16.809118,15.628892,50.732682
65214,7.028690,6.766960,11.007339,3.830789,9.863253,0.404604,0.298369,-1.396365,0.453326,0.069362,0.067663,0.110661,0.999972,0.001492,-0.006982,0.002267,0.894314,0.077762,0.177724,0.403199,16.982115,14.783916,50.755331
65215,6.545264,6.729508,10.745352,3.390797,9.326264,0.439518,0.424215,-1.555445,0.556342,0.064426,0.067246,0.108100,0.999964,0.002121,-0.007777,0.002782,0.894358,0.083295,0.171335,0.404759,17.234242,13.829923,50.805950
65216,5.499327,7.057434,10.280939,2.272830,8.591754,0.519707,0.545163,-1.607294,0.734469,0.053905,0.070492,0.103438,0.999957,0.002726,-0.008036,0.003672,0.893965,0.089598,0.164902,0.406947,17.573953,12.821284,50.941515
65217,3.966090,6.404457,10.075620,1.635891,6.829876,0.624607,0.636231,-1.534141,0.855460,0.038612,0.063890,0.101258,0.999956,0.003181,-0.007671,0.004277,0.893145,0.096276,0.158879,0.409610,17.980049,11.825512,51.151201
65218,1.439624,5.813466,10.774047,0.684311,4.301061,1.718893,0.692528,-1.435698,0.918415,0.013355,0.057824,0.108039,0.999958,0.003463,-0.007178,0.004592,0.892015,0.103021,0.153401,0.412509,18.422873,10.875612,51.404857
65219,-0.658038,5.588438,11.314070,-0.312533,2.301361,2.607989,0.716603,-1.465815,0.948513,-0.007674,0.055444,0.113286,0.999955,0.003583,-0.007329,0.004742,0.890753,0.109977,0.147772,0.415484,18.876744,9.896559,51.661764
65220,-1.762240,4.862291,11.160191,-0.592927,0.776215,2.448577,0.656082,-1.517002,0.951482,-0.018699,0.048170,0.111621,0.999955,0.003280,-0.007585,0.004757,0.889478,0.116734,0.141812,0.418439,19.287933,8.892729,51.901719
65221,-2.293184,5.044012,10.630693,-1.297277,0.291967,2.101137,0.736329,-1.610679,1.021973,-0.024044,0.049928,0.106301,0.999948,0.003682,-0.008053,0.005110,0.887983,0.124111,0.135511,0.421567,19.743550,7.817639,52.154204
65222,-1.183864,5.567008,9.729974,-1.380167,1.348803,1.293026,0.582482,-1.620013,1.140327,-0.012943,0.055315,0.097359,0.999947,0.002912,-0.008100,0.005702,0.886250,0.130863,0.128793,0.425262,20.112108,6.718059,52.460163
65223,-1.006380,5.023029,9.284229,-1.110859,0.999719,0.685073,0.581161,-1.565193,1.318037,-0.011120,0.049889,0.092903,0.999943,0.002906,-0.007826,0.006590,0.884002,0.137622,0.122148,0.429744,20.485731,5.605278,52.865669
65224,-1.682728,4.975828,9.167253,-1.593360,0.236668,0.629046,0.624812,-1.527893,1.480710,-0.017894,0.049342,0.091693,0.999939,0.003124,-0.007639,0.007403,0.881251,0.144547,0.115672,0.434883,20.883090,4.482273,53.357624
65225,-2.566301,4.390705,8.921897,-1.828885,-0.990574,0.243864,0.673447,-1.467018,1.552991,-0.026656,0.043402,0.089173,0.999937,0.003367,-0.007335,0.007765,0.878156,0.151607,0.109467,0.440311,21.302697,3.368079,53.892361
65226,-3.304209,4.021297,9.008928,-2.001114,-2.020979,0.195149,0.657562,-1.348318,1.517888,-0.033951,0.039662,0.089993,0.999943,0.003288,-0.006741,0.007589,0.874985,0.158269,0.103798,0.445621,21.702000,2.326112,54.424518
65227,-5.625127,2.582010,9.621072,-2.089420,-5.026528,0.248997,0.826831,-1.315619,1.481045,-0.057070,0.025002,0.095942,0.999942,0.004134,-0.006578,0.007405,0.871638,0.165589,0.098630,0.450665,22.189016,1.300140,54.935765
65228,-5.664543,3.303692,8.733480,-2.922002,-4.710352,-0.402874,1.091547,-1.329419,1.461858,-0.057462,0.032143,0.087132,0.999936,0.005458,-0.006647,0.007309,0.868021,0.174036,0.094039,0.455420,22.817237,0.271343,55.423517
65229,-6.265664,3.617653,8.504077,-3.538679,-5.206328,-0.591374,1.086274,-1.106542,1.412520,-0.063378,0.035269,0.084885,0.999945,0.005431,-0.005533,0.007062,0.864307,0.181935,0.090401,0.460110,23.434985,-0.638969,55.924252
65230,-7.636269,5.337935,9.455120,-5.264965,-5.905320,0.845972,0.931351,-1.016424,1.427815,-0.077219,0.052390,0.094406,0.999951,0.004657,-0.005082,0.007139,0.860572,0.188919,0.086805,0.464962,23.954984,-1.505636,56.444753
65231,-7.256347,4.635732,9.142981,-4.587814,-6.081097,0.172621,0.544164,-1.037904,1.488450,-0.073378,0.045565,0.091175,0.999955,0.002721,-0.005189,0.007442,0.856985,0.194318,0.082123,0.470185,24.245205,-2.405706,56.985965
65232,-7.246307,2.771730,8.728044,-3.248042,-7.051160,-1.089279,0.515787,-0.957539,1.573939,-0.073094,0.026919,0.087002,0.999954,0.002579,-0.004788,0.007870,0.853117,0.199401,0.077656,0.475815,24.507018,-3.282327,57.586960
65233,-8.261500,3.241695,8.445233,-4.200502,-7.785418,-1.337926,0.565709,-0.850727,1.660099,-0.083237,0.031489,0.084189,0.999953,0.002829,-0.004254,0.008300,0.848868,0.204478,0.073645,0.481859,24.784775,-4.130522,58.254722
65234,-8.952073,1.601093,7.727740,-3.424684,-9.070037,-2.853986,0.439624,-0.622260,1.687631,-0.089891,0.015084,0.077032,0.999957,0.002198,-0.003111,0.008438,0.844525,0.208439,0.070291,0.488251,24.975148,-4.865524,58.989425
65235,-9.486581,-0.035813,6.767671,-2.594951,-10.079632,-4.572255,0.460892,-0.276171,1.637790,-0.094951,-0.001291,0.067543,0.999963,0.002304,-0.001381,0.008189,0.840087,0.211629,0.068474,0.494750,25.164958,-5.414399,59.780603
65236,-11.074789,-0.390020,7.355800,-2.766912,-11.843513,-4.429085,0.359482,0.125500,1.489761,-0.110668,-0.004857,0.073619,0.999970,0.001797,0.000627,0.007449,0.835933,0.213317,0.068267,0.501051,25.288284,-5.717921,60.592455
65237,-13.344794,-1.241922,8.047252,-2.775376,-14.421054,-4.454447,0.295377,0.335066,1.381605,-0.133222,-0.013459,0.080676,0.999974,0.001477,0.001675,0.006908,0.831995,0.214174,0.068871,0.507119,25.372251,-5.890277,61.399409
65238,-12.617739,-1.167318,7.098980,-2.615223,-13.530724,-5.225420,0.084362,0.534017,1.186378,-0.125915,-0.012451,0.071321,0.999979,0.000422,0.002670,0.005932,0.828674,0.213560,0.069989,0.512634,25.339132,-5.909660,62.153898
65239,-13.626610,-3.323370,7.372507,-1.050516,-15.338202,-5.976496,-0.017718,0.772514,0.889229,-0.135830,-0.033832,0.074253,0.999983,-0.000089,0.003863,0.004446,0.826104,0.211805,0.072138,0.517191,25.258188,-5.733470,62.812486
65240,-13.587448,-3.112251,8.316832,-0.733719,-15.477543,-4.977388,0.099103,0.723534,0.515408,-0.135492,-0.031513,0.083643,0.999990,0.000496,0.003618,0.002577,0.824375,0.210512,0.074791,0.520093,25.266937,-5.489366,63.263842
65241,-12.744512,-3.959431,7.963788,0.317558,-14.931422,-5.514688,0.079976,0.570515,0.058113,-0.127206,-0.039663,0.079985,0.999996,0.000400,0.002853,0.000291,0.823899,0.209363,0.077238,0.520953,25.291921,-5.213280,63.440099
65242,-9.837519,-3.339186,6.071117,0.479045,-11.594074,-6.629447,0.179704,0.616897,-0.380373,-0.098251,-0.033260,0.060984,0.999993,0.000899,0.003084,-0.001902,0.824435,0.208334,0.080600,0.520007,25.394532,-4.805339,63.399478
65243,-10.244656,-1.694750,6.083648,-1.043368,-11.323170,-5.871582,0.315023,0.829312,-0.618763,-0.102245,-0.016727,0.061234,0.999985,0.001575,0.004147,-0.003094,0.825346,0.207201,0.085436,0.518240,25.578859,-4.228353,63.289732
65244,-10.411846,0.265132,5.725284,-2.835210,-10.608181,-5.264858,0.392921,0.870826,-0.581252,-0.103860,0.002840,0.057711,0.999984,0.001965,0.004354,-0.002906,0.826038,0.206301,0.090604,0.516616,25.805496,-3.639170,63.210925
65245,-9.240668,1.354043,6.479062,-2.887308,-9.290826,-3.935254,0.260042,1.058464,-0.508362,-0.092027,0.013690,0.065296,0.999982,0.001300,0.005292,-0.002542,0.826566,0.204380,0.096129,0.515536,25.948936,-2.970195,63.219835
65246,-5.497417,1.127956,9.290202,0.075879,-6.652772,-1.237392,0.334516,0.904514,-0.457483,-0.054527,0.011249,0.093168,0.999986,0.001673,0.004523,-0.002287,0.826935,0.203195,0.101151,0.514450,26.136835,-2.394333,63.217006
65247,40.016304,21.029926,19.599741,9.073749,39.437177,18.291771,1.500277,1.376600,-2.759721,0.404344,0.203275,0.194766,0.999853,0.007501,0.006883,-0.013798,0.831670,0.204401,0.113453,0.503661,27.022378,-0.984779,62.161708
65248,-19.633652,20.187998,27.526726,-14.575444,-14.565452,23.742212,-3.418082,2.579194,-1.678410,-0.191066,0.208191,0.274232,0.999736,-0.017089,0.012895,-0.008391,0.837686,0.182675,0.117211,0.501172,25.060320,0.760220,61.951614
65249,-3.065315,-11.202482,-3.428190,6.157821,-6.937340,-17.597125,-0.212114,0.641723,-0.842984,-0.031235,-0.111930,-0.034064,0.999985,-0.001061,0.003209,-0.004215,0.839582,0.179659,0.120096,0.498399,24.929102,1.293655,61.675071
65250,-10.394253,4.272028,13.767292,-2.938209,-9.671603,4.803819,0.205660,2.348930,0.169856,-0.102352,0.042490,0.138925,0.999930,0.001028,0.011744,0.000849,0.837484,0.174746,0.130265,0.501114,25.064785,2.467565,62.337564
65251,1.054062,0.250764,12.595601,5.255545,-0.909162,1.649118,-0.542490,1.343509,-0.536663,0.011394,0.002819,0.125874,0.999970,-0.002712,0.006717,-0.002683,0.838380,0.168727,0.134960,0.500436,24.751429,3.291812,62.389113
65252,-0.603085,-3.738793,10.099603,6.709697,-3.644813,-2.194367,0.313062,1.255894,-0.939357,-0.005573,-0.037519,0.100973,0.999968,0.001565,0.006279,-0.004697,0.839571,0.166246,0.141754,0.497382,24.915108,4.166151,62.207739
65253,-1.870407,1.302119,10.991050,2.588739,-2.528150,0.812856,0.475913,1.161567,-1.165659,-0.017990,0.012866,0.110047,0.999963,0.002380,0.005808,-0.005828,0.841198,0.164493,0.148739,0.493159,25.156629,5.048280,61.889722
65254,-3.889169,5.806346,9.610399,-2.335992,-1.932387,1.676667,0.626814,0.959428,-1.300251,-0.038052,0.058011,0.096470,0.999962,0.003134,0.004797,-0.006501,0.843123,0.163779,0.155342,0.488046,25.470515,5.858967,61.454548
65255,-4.375847,10.185494,8.999137,-6.096819,-0.076442,3.098412,0.303762,0.869205,-1.050114,-0.042831,0.101944,0.090334,0.999976,0.001519,0.004346,-0.005251,0.844719,0.162088,0.160566,0.484145,25.603792,6.564264,61.130898
65256,-5.034100,11.617487,8.590591,-7.605282,0.221306,3.461939,-0.014019,0.799827,-0.462229,-0.049728,0.116296,0.086097,0.999989,-0.000070,0.003999,-0.002311,0.845178,0.159710,0.164242,0.482899,25.587589,7.087167,61.094959
65257,-3.616216,10.122937,9.089231,-5.541422,0.767208,3.105076,-0.374575,0.729500,0.049432,-0.035856,0.101391,0.090834,0.999992,-0.001873,0.003647,0.000247,0.844730,0.156377,0.166345,0.484052,25.394650,7.449033,61.308184
65258,-3.317205,5.931045,9.250687,-2.129423,-0.949679,1.426518,-0.561628,0.647372,0.321923,-0.032968,0.059517,0.092447,0.999990,-0.002808,0.003237,0.001610,0.843823,0.152694,0.167425,0.486432,25.112882,7.701034,61.641367
65259,-3.925297,1.943062,11.211932,1.487281,-3.524164,1.600411,-0.473782,0.458815,0.346414,-0.039030,0.019629,0.112163,0.999993,-0.002369,0.002294,0.001732,0.842931,0.149842,0.167911,0.488693,24.876944,7.852382,61.940995
65260,-3.271586,0.877330,11.307576,2.649224,-3.430567,1.166704,-0.256618,0.142511,0.225161,-0.032645,0.008882,0.113088,0.999998,-0.001283,0.000713,0.001126,0.842431,0.148591,0.167675,0.490016,24.747633,7.867624,62.099093
