PacketCounter,Acc_X,Acc_Y,Acc_Z,FreeAcc_E,FreeAcc_N,FreeAcc_U,Gyr_X,Gyr_Y,Gyr_Z,VelInc_X,VelInc_Y,VelInc_Z,OriInc_q0,OriInc_q1,OriInc_q2,OriInc_q3,Quat_q0,Quat_q1,Quat_q2,Quat_q3,Roll,Pitch,Yaw
07703,-9.694951,-0.649301,-2.492410,-0.307790,1.057824,0.157871,-0.006454,0.126038,-0.051416,-0.096967,-0.006469,-0.024863,1.000000,-0.000032,0.000630,-0.000257,0.096277,0.786295,0.088103,-0.603912,169.878977,75.165568,4.988797
07704,-9.666632,-0.474022,-2.719995,-0.053105,0.937575,0.196556,0.197939,0.104090,-0.048821,-0.096682,-0.004690,-0.027154,0.999999,0.000990,0.000520,-0.000244,0.095304,0.786699,0.087757,-0.603589,170.138623,75.108398,5.140737
07705,-9.460339,0.459295,-2.461145,-0.011955,-0.039698,-0.026755,0.379270,0.081124,-0.044334,-0.094612,0.004661,-0.024564,0.999998,0.001896,0.000406,-0.000222,0.093650,0.787106,0.086829,-0.603452,170.478068,75.066294,5.268131
07706,-9.210783,1.334298,-2.240604,0.056334,-0.950822,-0.287357,0.323784,0.093727,-0.041033,-0.092116,0.013398,-0.022341,0.999999,0.001619,0.000469,-0.000205,0.092210,0.787539,0.086068,-0.603219,170.786693,75.013870,5.396189
07707,-9.193560,1.184356,-2.227447,0.001548,-0.817610,-0.314410,-0.055632,0.120665,-0.032354,-0.091947,0.011852,-0.022222,1.000000,-0.000278,0.000603,-0.000162,0.092286,0.787865,0.086423,-0.602730,170.862833,74.948013,5.509022
07708,-9.473851,0.051581,-3.003980,0.362059,0.463883,0.108710,-0.272489,0.123858,-0.043739,-0.094757,0.000496,-0.029982,0.999999,-0.001362,0.000619,-0.000219,0.093174,0.788109,0.087482,-0.602120,170.843217,74.878702,5.651076
07709,-9.448863,-0.721543,-3.193846,0.339943,1.259218,0.102004,-0.120634,0.112405,-0.042186,-0.094508,-0.007215,-0.031881,1.000000,-0.000603,0.000562,-0.000211,0.093480,0.788375,0.088068,-0.601640,170.898688,74.818388,5.781150
07710,-9.483626,-0.874171,-3.186393,0.275169,1.399112,0.128298,0.069751,0.098508,-0.019590,-0.094853,-0.008721,-0.031820,1.000000,0.000349,0.000493,-0.000098,0.093102,0.788712,0.087991,-0.601268,171.015327,74.761133,5.861248
07711,-9.519288,-0.609509,-2.987797,0.141486,1.083638,0.123156,0.299926,0.073389,-0.006059,-0.095204,-0.006047,-0.029852,0.999999,0.001500,0.000367,-0.000030,0.091876,0.789071,0.087152,-0.601108,171.222257,74.719563,5.898613
07712,-9.483690,-0.071583,-2.675934,-0.009877,0.474360,0.030126,0.422809,0.056858,-0.000427,-0.094844,-0.000659,-0.026734,0.999998,0.002114,0.000284,-0.000002,0.090179,0.789451,0.085920,-0.601043,171.487230,74.684085,5.922758
07713,-9.384282,0.546690,-2.609506,0.101614,-0.151308,-0.058719,0.458774,0.053691,-0.002773,-0.093850,0.005528,-0.026057,0.999997,0.002294,0.000268,-0.000014,0.088343,0.789818,0.084580,-0.601023,171.770858,74.653322,5.945293
07714,-9.321810,1.102756,-2.279059,-0.064160,-0.782252,-0.185109,0.449823,0.063383,-0.002738,-0.093225,0.011080,-0.022736,0.999997,0.002249,0.000317,-0.000014,0.086529,0.790221,0.083278,-0.600939,172.056755,74.614299,5.975090
07715,-9.454059,1.153103,-2.080327,-0.281427,-0.891773,-0.108968,0.168813,0.083497,-0.014124,-0.094548,0.011555,-0.020754,1.000000,0.000844,0.000417,-0.000071,0.085792,0.790541,0.082867,-0.600681,172.205010,74.567458,6.029542
07716,-9.363406,0.379366,-2.607286,0.045740,-0.018536,-0.085777,-0.048327,0.086262,-0.018967,-0.093645,0.003796,-0.026033,1.000000,-0.000242,0.000431,-0.000095,0.085889,0.790788,0.083134,-0.600305,172.243750,74.516739,6.099090
07717,-9.302245,-0.258903,-3.030231,0.299803,0.700837,-0.055637,-0.009434,0.082219,-0.002141,-0.093035,-0.002589,-0.030264,1.000000,-0.000047,0.000411,-0.000011,0.085893,0.791032,0.083210,-0.599972,172.264291,74.469668,6.127016
07718,-9.448955,-0.525119,-2.902274,0.070933,0.922191,0.042576,0.136604,0.079309,0.021195,-0.094500,-0.005241,-0.028989,1.000000,0.000683,0.000397,0.000106,0.085381,0.791354,0.082761,-0.599683,172.324636,74.419783,6.109025
07719,-9.597657,-0.560133,-2.910936,0.024833,0.950652,0.187211,0.142978,0.073132,0.024965,-0.095987,-0.005593,-0.029078,1.000000,0.000715,0.000366,0.000125,0.084867,0.791647,0.082269,-0.599437,172.374447,74.375791,6.076687
07720,-9.546769,-0.627100,-3.144523,0.235907,1.066570,0.198748,0.212011,0.065074,0.013752,-0.095477,-0.006244,-0.031421,0.999999,0.001060,0.000325,0.000069,0.084039,0.791953,0.081617,-0.599238,172.489477,74.334574,6.070568
07721,-9.511765,-0.151799,-2.952963,0.172477,0.552403,0.131246,0.398691,0.049120,0.014682,-0.095125,-0.001466,-0.029509,0.999998,0.001993,0.000246,0.000073,0.082491,0.792275,0.080389,-0.599194,172.699789,74.305023,6.052747
07722,-9.332979,0.564834,-2.752154,0.191338,-0.196970,-0.069871,0.406863,0.040717,0.014983,-0.093336,0.005697,-0.027491,0.999998,0.002034,0.000204,0.000075,0.080904,0.792585,0.079139,-0.599166,172.917307,74.277565,6.037084
07723,-9.292445,0.949929,-2.691048,0.225818,-0.594283,-0.112715,0.303002,0.046869,0.013473,-0.092931,0.009534,-0.026874,0.999999,0.001515,0.000234,0.000067,0.079733,0.792855,0.078201,-0.599089,173.074007,74.249413,6.020519
07724,-9.197545,0.779507,-2.820641,0.329310,-0.403263,-0.174875,0.120061,0.057767,0.008898,-0.091984,0.007808,-0.028175,1.000000,0.000600,0.000289,0.000044,0.079257,0.793096,0.077841,-0.598881,173.142904,74.212708,6.021191
07725,-9.378985,0.048702,-3.151273,0.424487,0.374165,0.065473,0.018603,0.065025,0.007336,-0.093800,0.000487,-0.031482,1.000000,0.000093,0.000325,0.000037,0.079188,0.793303,0.077786,-0.598622,173.153181,74.174658,6.021795
07726,-9.417808,-0.368214,-3.360980,0.514561,0.821577,0.146585,0.162105,0.044884,-0.000806,-0.094186,-0.003655,-0.033592,1.000000,0.000811,0.000224,-0.000004,0.078522,0.793518,0.077333,-0.598484,173.262249,74.145910,6.039188
07727,-9.375240,-0.178689,-3.200468,0.415048,0.594871,0.068806,0.325653,0.032296,0.005814,-0.093758,-0.001738,-0.031992,0.999999,0.001628,0.000161,0.000029,0.077242,0.793746,0.076352,-0.598475,173.443380,74.126588,6.034519
07728,-9.532842,0.181960,-2.793825,0.066813,0.140142,0.121573,0.412205,0.018837,0.004761,-0.095331,0.001875,-0.027925,0.999998,0.002061,0.000094,0.000024,0.075609,0.793979,0.075118,-0.598530,173.678445,74.112232,6.033901
07729,-9.434364,0.690817,-2.719845,0.130720,-0.381976,0.021894,0.440943,-0.002555,-0.007416,-0.094343,0.006972,-0.027184,0.999998,0.002205,-0.000013,-0.000037,0.073844,0.794135,0.073831,-0.598703,173.944012,74.113590,6.048342
07730,-9.224586,1.188878,-2.558628,0.136989,-0.910083,-0.210294,0.426645,0.004986,-0.025739,-0.092245,0.011955,-0.025559,0.999998,0.002133,0.000025,-0.000129,0.072068,0.794313,0.072669,-0.598825,174.245027,74.108956,6.107702
07731,-9.194492,1.610978,-2.477339,0.150550,-1.351430,-0.251196,0.260829,0.024071,-0.039310,-0.091945,0.016160,-0.024741,0.999999,0.001304,0.000120,-0.000197,0.070912,0.794467,0.072057,-0.598834,174.476548,74.096890,6.194045
07732,-9.197409,1.293926,-2.477603,0.082951,-1.049276,-0.257729,-0.013515,0.041646,-0.053296,-0.091976,0.012962,-0.024758,1.000000,-0.000068,0.000208,-0.000266,0.070789,0.794584,0.072335,-0.598659,174.586598,74.072761,6.317141
07733,-9.147377,0.603672,-3.166973,0.604693,-0.236884,-0.135556,-0.195599,0.041855,-0.060066,-0.091479,0.006033,-0.031656,0.999999,-0.000978,0.000209,-0.000300,0.071379,0.794620,0.073178,-0.598438,174.601030,74.051574,6.449701
07734,-9.211933,-0.303507,-3.333973,0.556386,0.682660,-0.050946,-0.180018,0.050265,-0.055922,-0.092129,-0.003039,-0.033314,1.000000,-0.000900,0.000251,-0.000280,0.071907,0.794703,0.073966,-0.598169,174.621571,74.022605,6.578989
07735,-9.442820,-0.885418,-3.500042,0.525970,1.276795,0.202015,-0.073589,0.039327,-0.054077,-0.094437,-0.008842,-0.034979,1.000000,-0.000368,0.000197,-0.000270,0.072030,0.794776,0.074420,-0.598000,174.693015,74.002501,6.698169
07736,-9.276182,-1.017827,-3.697428,0.728701,1.445540,0.093569,0.150233,0.006053,-0.039629,-0.092765,-0.010132,-0.036979,1.000000,0.000751,0.000030,-0.000198,0.071311,0.794850,0.074140,-0.598022,174.862194,73.997728,6.785226
07737,-9.334263,-0.376055,-3.178845,0.359946,0.697932,0.023890,0.524050,-0.008317,-0.011196,-0.093342,-0.003672,-0.031802,0.999997,0.002620,-0.000042,-0.000056,0.069204,0.795008,0.072619,-0.598247,175.181897,74.002479,6.806456
07738,-9.355722,0.648210,-2.334949,-0.234890,-0.488992,-0.163471,0.603542,-0.000853,-0.010557,-0.093557,0.006557,-0.023330,0.999995,0.003018,-0.000004,-0.000053,0.066771,0.795224,0.070866,-0.598446,175.552234,73.999992,6.832543
07739,-9.384235,1.242881,-2.002208,-0.443908,-1.149549,-0.215869,0.331458,0.016143,-0.025306,-0.093842,0.012474,-0.019994,0.999999,0.001657,0.000081,-0.000127,0.065378,0.795376,0.069985,-0.598503,175.793563,73.991311,6.887035
07740,-9.260638,1.255448,-2.122794,-0.297130,-1.142579,-0.302270,0.013301,0.025955,-0.041222,-0.092607,0.012575,-0.021215,1.000000,0.000067,0.000130,-0.000206,0.065191,0.795460,0.070128,-0.598394,175.890100,73.974828,6.980150
07741,-9.160256,0.817712,-2.337521,-0.153141,-0.671922,-0.348649,-0.180028,0.061286,-0.048173,-0.091608,0.008178,-0.023355,1.000000,-0.000900,0.000306,-0.000241,0.065748,0.795570,0.070882,-0.598098,175.890020,73.941230,7.088396
07742,-9.389363,0.104032,-2.698024,-0.019929,0.089637,-0.043253,-0.362680,0.086272,-0.055680,-0.093905,0.001018,-0.026942,0.999998,-0.001813,0.000431,-0.000278,0.066993,0.795704,0.072226,-0.597620,175.807479,73.890954,7.219411
07743,-9.545540,-0.700707,-3.250259,0.290396,0.982928,0.243257,-0.346805,0.069166,-0.065029,-0.095469,-0.007032,-0.032457,0.999998,-0.001734,0.000346,-0.000325,0.068160,0.795772,0.073548,-0.597236,175.745948,73.853625,7.363206
07744,-9.391428,-0.931881,-3.566530,0.577470,1.275867,0.178616,-0.007016,0.033812,-0.049998,-0.093923,-0.009297,-0.035649,1.000000,-0.000035,0.000169,-0.000250,0.068025,0.795869,0.073790,-0.597093,175.848136,73.833110,7.474416
07745,-9.380096,-0.237473,-3.224050,0.394935,0.519803,0.087358,0.285416,0.034352,-0.033768,-0.093807,-0.002313,-0.032228,0.999999,0.001427,0.000172,-0.000169,0.066783,0.796058,0.073088,-0.597068,176.081548,73.814287,7.548180
07746,-9.262535,0.330816,-2.887784,0.221711,-0.110451,-0.107950,0.259052,0.016910,-0.040904,-0.092627,0.003364,-0.028866,0.999999,0.001295,0.000085,-0.000205,0.065621,0.796196,0.072494,-0.597085,176.315788,73.802811,7.638141
07747,-9.127532,0.636335,-2.903281,0.331889,-0.411798,-0.228008,0.160764,0.021552,-0.030105,-0.091277,0.006400,-0.029018,1.000000,0.000804,0.000108,-0.000151,0.064890,0.796305,0.072145,-0.597062,176.468374,73.791022,7.702120
07748,-8.993229,0.917482,-2.966656,0.480054,-0.676981,-0.334701,0.081953,0.032175,-0.015456,-0.089936,0.009194,-0.029648,1.000000,0.000410,0.000161,-0.000077,0.064504,0.796439,0.071983,-0.596945,176.552385,73.769788,7.741331
07749,-9.095566,0.897851,-2.678408,0.172606,-0.719195,-0.317305,-0.052202,0.059194,-0.028270,-0.090962,0.008984,-0.026760,1.000000,-0.000261,0.000296,-0.000141,0.064614,0.796590,0.072274,-0.596695,176.583481,73.736353,7.805877
07750,-9.649411,-0.090517,-2.374287,-0.465286,0.171462,0.112566,-0.306622,0.093148,-0.040543,-0.096505,-0.000922,-0.023697,0.999999,-0.001533,0.000466,-0.000203,0.065679,0.796771,0.073390,-0.596202,176.500465,73.681100,7.903076
07751,-9.886237,-1.181891,-2.984596,-0.179613,1.351132,0.491901,-0.330213,0.038196,-0.071994,-0.098872,-0.011833,-0.029808,0.999999,-0.001651,0.000191,-0.000360,0.066773,0.796751,0.074678,-0.595947,176.454950,73.661241,8.053802
07752,-9.364167,-1.291323,-3.263090,0.201839,1.529182,0.067786,0.104126,0.012994,-0.062191,-0.093648,-0.012867,-0.032632,1.000000,0.000521,0.000065,-0.000311,0.066166,0.796818,0.074630,-0.595931,176.640097,73.652633,8.185202
07753,-9.273541,-0.180968,-2.751046,-0.033455,0.332922,-0.143789,0.460822,0.031146,-0.026115,-0.092740,-0.001734,-0.027500,0.999997,0.002304,0.000156,-0.000131,0.064248,0.797053,0.073375,-0.595982,176.956980,73.635102,8.241286
07754,-9.452766,0.692712,-2.304709,-0.336403,-0.630250,-0.084588,0.350142,0.043470,-0.036370,-0.094531,0.006985,-0.023014,0.999998,0.001751,0.000217,-0.000182,0.062725,0.797298,0.072502,-0.595924,177.235772,73.607955,8.323360
07755,-9.286311,0.805337,-2.513296,-0.075921,-0.704563,-0.184675,0.052209,0.041983,-0.047419,-0.092866,0.008082,-0.025111,1.000000,0.000261,0.000210,-0.000237,0.062368,0.797424,0.072553,-0.595786,177.360261,73.584660,8.422952
07756,-9.085219,0.453551,-3.036361,0.402293,-0.258380,-0.234703,-0.036722,0.034753,-0.034979,-0.090857,0.004546,-0.030349,1.000000,-0.000184,0.000174,-0.000175,0.062395,0.797520,0.072823,-0.595622,177.412834,73.562427,8.500325
07757,-9.095801,0.069626,-3.190397,0.467628,0.145661,-0.185788,-0.058282,0.042141,-0.007943,-0.090965,0.000691,-0.031885,1.000000,-0.000291,0.000211,-0.000040,0.062596,0.797627,0.073045,-0.595431,177.397076,73.537965,8.519717
07758,-9.116269,-0.299191,-3.364316,0.549944,0.541822,-0.121533,-0.110228,0.036934,0.024641,-0.091169,-0.003022,-0.033625,1.000000,-0.000551,0.000185,0.000123,0.063093,0.797727,0.073297,-0.595212,177.292047,73.512879,8.476686
07759,-9.490648,-0.918572,-3.127476,0.097984,1.094195,0.161801,-0.028531,0.041885,0.045338,-0.094911,-0.009212,-0.031254,1.000000,-0.000143,0.000209,0.000227,0.063334,0.797862,0.073218,-0.595016,177.190547,73.487110,8.388880
07760,-9.591620,-1.167498,-3.498389,0.367995,1.406802,0.360141,0.077362,-0.006897,0.042373,-0.095913,-0.011682,-0.034992,1.000000,0.000387,-0.000034,0.000212,0.063151,0.797898,0.072828,-0.595035,177.155323,73.486529,8.306508
07761,-9.271944,-0.931058,-3.248050,0.271303,1.138788,-0.013953,0.383692,-0.011203,0.057288,-0.092715,-0.009275,-0.032504,0.999998,0.001918,-0.000056,0.000286,0.061802,0.798008,0.071458,-0.595196,177.262051,73.490793,8.189537
07762,-9.508906,-0.204920,-2.552194,-0.310855,0.280623,0.025991,0.552725,0.012877,0.057574,-0.095090,-0.002006,-0.025521,0.999996,0.002764,0.000064,0.000288,0.059759,0.798251,0.069599,-0.595298,177.472292,73.478535,8.079054
07763,-9.588552,0.406712,-2.472002,-0.296857,-0.345757,0.087255,0.402811,-0.001543,0.035391,-0.095886,0.004100,-0.024713,0.999998,0.002014,-0.000008,0.000177,0.058265,0.798380,0.068262,-0.595428,177.633192,73.478005,8.007155
07764,-9.396474,0.674297,-2.543857,-0.128485,-0.595814,-0.073688,0.291173,0.003479,0.011669,-0.093966,0.006775,-0.025427,0.999999,0.001456,0.000017,0.000058,0.057132,0.798495,0.067362,-0.595487,177.781284,73.472455,7.988156
07765,-9.168217,0.836768,-2.847605,0.248839,-0.699970,-0.204704,0.147241,0.023736,0.006515,-0.091686,0.008386,-0.028459,1.000000,0.000736,0.000119,0.000033,0.056563,0.798612,0.066908,-0.595435,177.853352,73.458176,7.976336
07766,-9.270682,0.573314,-3.033722,0.345345,-0.415177,-0.056353,-0.044767,0.050465,-0.003849,-0.092714,0.005728,-0.030315,1.000000,-0.000224,0.000252,-0.000019,0.056710,0.798764,0.067082,-0.595197,177.841861,73.426109,7.991688
07767,-9.239274,-0.186285,-3.411550,0.572311,0.399878,0.013304,-0.126603,0.055310,-0.005488,-0.092402,-0.001882,-0.034089,1.000000,-0.000633,0.000277,-0.000027,0.057188,0.798894,0.067501,-0.594930,177.782456,73.394015,8.006397
07768,-9.308072,-0.446695,-3.676574,0.751603,0.698958,0.152426,0.058995,0.039048,0.004513,-0.093088,-0.004458,-0.036749,1.000000,0.000295,0.000195,0.000023,0.056950,0.799045,0.067329,-0.594770,177.813473,73.368260,8.004076
07769,-9.150601,-0.042425,-3.473452,0.673550,0.267212,-0.051791,0.287171,0.022417,0.020233,-0.091510,-0.000384,-0.034725,0.999999,0.001436,0.000112,0.000101,0.055863,0.799201,0.066405,-0.594766,177.939364,73.354449,7.964747
07770,-9.082537,0.320989,-3.064790,0.367527,-0.163626,-0.230068,0.236608,0.036192,0.033560,-0.090831,0.003231,-0.030628,0.999999,0.001183,0.000181,0.000168,0.055001,0.799403,0.065589,-0.594667,178.016300,73.329661,7.904118
07771,-9.308942,0.486751,-3.134351,0.393729,-0.328050,0.008455,0.139365,0.027925,0.024179,-0.093094,0.004878,-0.031327,1.000000,0.000697,0.000140,0.000121,0.054514,0.799534,0.065089,-0.594590,178.050295,73.312649,7.857254
07772,-9.577066,0.337022,-2.562256,-0.251094,-0.288268,0.099567,0.095191,0.028388,-0.001949,-0.095774,0.003383,-0.025607,1.000000,0.000476,0.000142,-0.000010,0.054116,0.799661,0.064833,-0.594484,178.113308,73.293023,7.866684
07773,-9.818571,0.061276,-2.374960,-0.544436,-0.059877,0.274360,-0.020266,0.007210,-0.040253,-0.098186,0.000630,-0.023746,1.000000,-0.000101,0.000036,-0.000201,0.054082,0.799666,0.065060,-0.594455,178.177450,73.289095,7.946784
07774,-9.331607,0.075352,-2.857212,0.052039,0.020354,-0.053328,-0.043900,-0.010427,-0.064898,-0.093314,0.000778,-0.028577,1.000000,-0.000220,-0.000052,-0.000324,0.054066,0.799619,0.065458,-0.594476,178.278289,73.292901,8.078927
07775,-9.218646,0.322642,-2.656852,-0.062418,-0.256979,-0.217039,0.010322,0.014102,-0.061374,-0.092187,0.003256,-0.026562,1.000000,0.000052,0.000071,-0.000307,0.053845,0.799646,0.065681,-0.594436,178.400577,73.285298,8.201438
07776,-9.398909,0.316330,-2.719518,-0.056971,-0.251759,-0.026539,-0.176444,0.020756,-0.062402,-0.093991,0.003169,-0.027188,1.000000,-0.000882,0.000104,-0.000312,0.054356,0.799655,0.066471,-0.594288,178.422179,73.271114,8.330163
07777,-9.364801,-0.107797,-3.150376,0.285488,0.238501,0.061400,-0.232999,0.006016,-0.075500,-0.093649,-0.001079,-0.031500,0.999999,-0.001165,0.000030,-0.000377,0.055068,0.799587,0.067471,-0.594202,178.431363,73.268311,8.480158
07778,-9.206598,-0.173761,-3.175634,0.342227,0.312998,-0.083288,-0.132039,-0.004018,-0.074277,-0.092066,-0.001724,-0.031757,1.000000,-0.000660,-0.000020,-0.000371,0.055374,0.799529,0.068169,-0.594171,178.499556,73.268470,8.630980
07779,-9.282318,-0.136633,-2.993466,0.155476,0.240409,-0.062869,-0.137092,0.003757,-0.057328,-0.092824,-0.001360,-0.029932,1.000000,-0.000685,0.000019,-0.000287,0.055758,0.799485,0.068811,-0.594121,178.528924,73.266625,8.744674
07780,-9.338348,-0.375508,-2.972823,0.077505,0.468434,-0.016873,-0.140647,-0.009761,-0.051256,-0.093383,-0.003752,-0.029730,1.000000,-0.000703,-0.000049,-0.000256,0.056169,0.799416,0.069442,-0.594102,178.548097,73.269664,8.849460
07781,-9.231735,-0.501262,-2.882176,0.000447,0.580686,-0.145943,-0.089857,-0.008239,-0.037327,-0.092317,-0.005008,-0.028823,1.000000,-0.000449,-0.000041,-0.000187,0.056427,0.799355,0.069860,-0.594110,178.565862,73.274377,8.922775
07782,-9.448295,-0.425987,-2.850795,-0.077500,0.490615,0.053014,-0.059493,-0.002561,-0.024138,-0.094483,-0.004257,-0.028508,1.000000,-0.000297,-0.000013,-0.000121,0.056592,0.799339,0.070143,-0.594083,178.580434,73.272894,8.974180
07783,-9.400311,-0.202823,-2.720683,-0.145733,0.248979,-0.028727,-0.008389,-0.009395,-0.034539,-0.094002,-0.002013,-0.027211,1.000000,-0.000042,-0.000047,-0.000173,0.056533,0.799299,0.070307,-0.594123,178.639538,73.278211,9.041919
07784,-9.215134,0.144365,-2.592620,-0.151138,-0.109817,-0.240524,-0.015706,0.005649,-0.041599,-0.092152,0.001461,-0.025924,1.000000,-0.000079,0.000028,-0.000208,0.056467,0.799313,0.070533,-0.594084,178.712986,73.272268,9.128595
07785,-9.380929,0.193302,-2.418439,-0.354106,-0.197945,-0.131599,-0.107166,0.015620,-0.034250,-0.093811,0.001936,-0.024178,1.000000,-0.000536,0.000078,-0.000171,0.056796,0.799319,0.070997,-0.593989,178.716014,73.263217,9.196879
07786,-9.405374,0.121222,-2.722067,-0.090046,-0.075756,-0.021286,-0.167702,0.017026,-0.047863,-0.094056,0.001212,-0.027214,1.000000,-0.000839,0.000085,-0.000239,0.057315,0.799321,0.071702,-0.593852,178.714564,73.250885,9.296300
07787,-9.266852,0.050125,-2.834786,0.040363,0.020212,-0.121916,-0.163049,0.027376,-0.050439,-0.092672,0.000502,-0.028336,1.000000,-0.000815,0.000137,-0.000252,0.057814,0.799339,0.072400,-0.593694,178.716770,73.235307,9.397174
07788,-9.257958,0.092904,-2.940790,0.147045,-0.002969,-0.099550,-0.167189,0.035940,-0.046090,-0.092585,0.000926,-0.029392,1.000000,-0.000836,0.000180,-0.000230,0.058330,0.799396,0.073101,-0.593481,178.712752,73.212146,9.493627
07789,-9.255888,0.067375,-3.081354,0.272038,0.047472,-0.061048,-0.154565,0.026184,-0.048965,-0.092563,0.000673,-0.030802,1.000000,-0.000773,0.000131,-0.000245,0.058800,0.799413,0.073767,-0.593329,178.716739,73.197233,9.591304
07790,-9.173639,0.266337,-3.167554,0.411384,-0.129741,-0.113517,-0.095754,0.022073,-0.053110,-0.091739,0.002673,-0.031667,1.000000,-0.000479,0.000110,-0.000266,0.059014,0.799446,0.074281,-0.593199,178.766077,73.182085,9.700769
07791,-9.082126,0.394262,-2.929417,0.235685,-0.296361,-0.269179,-0.109380,0.036306,-0.051100,-0.090826,0.003950,-0.029280,1.000000,-0.000547,0.000182,-0.000255,0.059294,0.799505,0.074825,-0.593024,178.800150,73.161365,9.802847
07792,-9.442318,-0.040602,-2.744165,-0.128452,0.078171,0.019243,-0.241040,0.053601,-0.046910,-0.094431,-0.000417,-0.027416,0.999999,-0.001205,0.000268,-0.000235,0.060096,0.799590,0.075753,-0.592711,178.755262,73.128049,9.900892
07793,-9.584073,-0.688297,-2.917146,-0.136190,0.738984,0.200968,-0.209860,0.026646,-0.065203,-0.095847,-0.006882,-0.029151,0.999999,-0.001049,0.000133,-0.000326,0.060739,0.799583,0.076648,-0.592539,178.757710,73.113052,10.030110
07794,-9.384305,-0.627410,-2.895381,-0.091171,0.681586,0.004093,-0.006118,0.030092,-0.060672,-0.093849,-0.006247,-0.028939,1.000000,-0.000031,0.000150,-0.000303,0.060570,0.799663,0.076929,-0.592413,178.872271,73.093375,10.154122
07795,-9.365598,-0.147944,-2.540341,-0.327297,0.139493,-0.114076,0.042692,0.026928,-0.049897,-0.093660,-0.001451,-0.025391,1.000000,0.000213,0.000135,-0.000249,0.060248,0.799738,0.077014,-0.592332,178.990175,73.077939,10.252797
07796,-9.340671,0.118903,-2.617685,-0.198053,-0.111806,-0.114089,-0.078270,0.033135,-0.060203,-0.093411,0.001207,-0.026162,1.000000,-0.000391,0.000166,-0.000301,0.060367,0.799805,0.077507,-0.592166,179.062298,73.056427,10.375667
07797,-9.260939,0.026791,-2.682107,-0.136116,-0.008473,-0.172106,-0.125007,0.047603,-0.055392,-0.092616,0.000277,-0.026799,1.000000,-0.000625,0.000238,-0.000277,0.060692,0.799889,0.078117,-0.591939,179.094683,73.029122,10.485411
07798,-9.204356,-0.018277,-2.863800,0.036499,0.071268,-0.173422,-0.166329,0.052954,-0.048470,-0.092051,-0.000184,-0.028613,1.000000,-0.000832,0.000265,-0.000242,0.061190,0.799991,0.078830,-0.591655,179.094381,72.996152,10.585344
07799,-9.218652,-0.159151,-3.064503,0.186777,0.246381,-0.101639,-0.171140,0.059655,-0.049122,-0.092196,-0.001595,-0.030616,1.000000,-0.000856,0.000298,-0.000246,0.061713,0.800098,0.079556,-0.591360,179.088522,72.961880,10.682772
07800,-9.138761,-0.050208,-3.110048,0.267838,0.150615,-0.163986,-0.079808,0.064970,-0.050673,-0.091398,-0.000491,-0.031071,1.000000,-0.000399,0.000325,-0.000253,0.061854,0.800260,0.080025,-0.591062,179.141771,72.922045,10.786919
07801,-9.293349,-0.218929,-2.636824,-0.260117,0.212607,-0.155864,-0.086774,0.074043,-0.042109,-0.092944,-0.002181,-0.026333,1.000000,-0.000434,0.000370,-0.000211,0.062054,0.800437,0.080477,-0.590739,179.171004,72.879438,10.870529
07802,-9.398842,-0.524324,-2.946710,-0.069785,0.562675,0.034889,-0.074861,0.071244,-0.042831,-0.094000,-0.005234,-0.029432,1.000000,-0.000374,0.000356,-0.000214,0.062196,0.800622,0.080903,-0.590416,179.212014,72.835927,10.958947
07803,-9.494917,-0.332015,-2.881034,-0.125483,0.348823,0.108331,0.207428,0.066867,-0.047688,-0.094960,-0.003268,-0.028782,0.999999,0.001037,0.000334,-0.000238,0.061205,0.800866,0.080506,-0.590242,179.419192,72.797402,11.052413
07804,-9.534922,0.470393,-2.586646,-0.255795,-0.511485,0.061505,0.366505,0.068399,-0.080173,-0.095356,0.004790,-0.025825,0.999998,0.001833,0.000342,-0.000401,0.059470,0.801161,0.079778,-0.590118,179.780903,72.755501,11.211831
07805,-9.206772,1.267635,-2.889599,0.275910,-1.233699,-0.162652,0.182345,0.068575,-0.099407,-0.092071,0.012748,-0.028853,0.999999,0.000912,0.000343,-0.000497,0.058426,0.801380,0.079662,-0.589941,-179.932704,72.715745,11.403338
07806,-8.821247,1.194000,-3.223330,0.680488,-1.086272,-0.432557,-0.194195,0.088192,-0.102922,-0.088221,0.011954,-0.032206,0.999999,-0.000971,0.000441,-0.000515,0.058863,0.801556,0.080684,-0.589519,-179.852985,72.662131,11.604035
07807,-8.988898,0.311035,-3.516244,0.723122,-0.176149,-0.184236,-0.382351,0.097036,-0.103979,-0.089904,0.003090,-0.035125,0.999998,-0.001912,0.000485,-0.000520,0.060057,0.801689,0.082260,-0.589001,-179.883482,72.605856,11.802624
07808,-9.281311,-0.534573,-3.607508,0.541144,0.653448,0.123246,-0.342566,0.085413,-0.092816,-0.092831,-0.005364,-0.036026,0.999998,-0.001713,0.000427,-0.000464,0.061120,0.801813,0.083676,-0.588523,-179.908938,72.553764,11.982310
07809,-9.193560,-0.815691,-3.573980,0.468946,0.927264,0.030102,-0.196441,0.048230,-0.083077,-0.091948,-0.008154,-0.035710,0.999999,-0.000982,0.000241,-0.000415,0.061650,0.801862,0.084606,-0.588268,-179.871842,72.525499,12.140196
07810,-9.343906,-1.035830,-2.947376,-0.211893,1.005067,-0.014040,-0.054330,0.055993,-0.058156,-0.093450,-0.010339,-0.029445,1.000000,-0.000272,0.000280,-0.000291,0.061672,0.802000,0.085027,-0.588016,-179.795717,72.490218,12.253326
07811,-9.767407,-1.227777,-2.684721,-0.625352,1.107231,0.311559,0.052872,0.041190,-0.056613,-0.097683,-0.012243,-0.026830,1.000000,0.000264,0.000206,-0.000283,0.061283,0.802116,0.085115,-0.587886,-179.664556,72.465925,12.360112
07812,-9.558296,-0.456593,-2.839590,-0.258841,0.385012,0.158145,0.338199,0.022524,-0.072540,-0.095588,-0.004483,-0.028393,0.999998,0.001691,0.000113,-0.000363,0.059701,0.802268,0.084430,-0.587940,-179.337372,72.449589,12.500636
07813,-9.328203,0.990569,-2.655670,-0.066741,-1.070758,-0.122581,0.446256,0.060061,-0.082631,-0.093286,0.010003,-0.026506,0.999997,0.002231,0.000300,-0.000413,0.057649,0.802543,0.083471,-0.587906,-178.935340,72.413929,12.655152
07814,-8.786713,2.011728,-3.008133,0.620242,-1.983457,-0.539962,-0.088061,0.144599,-0.116770,-0.087877,0.020155,-0.030027,0.999999,-0.000440,0.000723,-0.000584,0.057596,0.802908,0.084251,-0.587301,-178.778466,72.326738,12.873303
07815,-8.770202,0.953718,-3.161471,0.540255,-0.915892,-0.501933,-0.813360,0.237354,-0.121229,-0.087734,0.009462,-0.031549,0.999991,-0.004067,0.001187,-0.000606,0.060412,0.803315,0.087197,-0.586031,-179.037073,72.188908,13.092086
07816,-9.363945,-0.771382,-3.867179,0.631682,0.886240,0.289244,-0.985374,0.185906,-0.111862,-0.093680,-0.007852,-0.038546,0.999987,-0.004927,0.000930,-0.000559,0.063960,0.803518,0.090599,-0.584860,-179.406138,72.078508,13.298227
07817,-9.386109,-1.857955,-4.336916,0.791999,2.061524,0.457787,-0.708725,0.096596,-0.091416,-0.093891,-0.018690,-0.043258,0.999994,-0.003544,0.000483,-0.000457,0.066503,0.803529,0.093073,-0.584171,-179.653441,72.022196,13.466129
07818,-9.409221,-2.076783,-4.223173,0.612808,2.253859,0.445297,-0.008967,0.062297,-0.043425,-0.094110,-0.020749,-0.042201,1.000000,-0.000045,0.000311,-0.000217,0.066381,0.803703,0.093304,-0.583909,-179.581102,71.983198,13.548264
07819,-9.273926,-0.845367,-3.405079,0.175850,0.876352,0.062330,0.539836,0.027050,-0.010342,-0.092744,-0.008357,-0.034061,0.999996,0.002699,0.000135,-0.000052,0.064176,0.803955,0.091783,-0.584049,-179.255584,71.967101,13.566329
07820,-9.699310,-0.075765,-1.803674,-1.264988,-0.255873,-0.031588,0.461865,0.054733,0.000022,-0.096998,-0.000716,-0.018012,0.999997,0.002309,0.000274,0.000000,0.062290,0.804277,0.090462,-0.584017,-178.990151,71.932486,13.567735
07821,-9.656646,0.232905,-1.709352,-1.274612,-0.578950,-0.103562,-0.093170,0.020318,-0.032999,-0.096568,0.002337,-0.017085,1.000000,-0.000466,0.000102,-0.000165,0.062567,0.804294,0.090877,-0.583898,-178.987757,71.919975,13.627420
07822,-9.140234,-0.473134,-2.449338,-0.593000,0.303046,-0.361577,-0.467073,0.060482,-0.025218,-0.091410,-0.004777,-0.024455,0.999997,-0.002335,0.000302,-0.000126,0.064341,0.804325,0.092373,-0.583428,-179.210654,71.882099,13.675105
07823,-9.411790,-1.116545,-3.163660,-0.168981,1.068709,0.120413,-0.360866,0.080390,-0.005804,-0.094131,-0.011220,-0.031579,0.999998,-0.001804,0.000402,-0.000029,0.065745,0.804442,0.093478,-0.582934,-179.410468,71.835464,13.683428
07824,-9.440730,-1.227006,-3.659195,0.244718,1.285114,0.302213,-0.089441,0.055908,0.000199,-0.094418,-0.012287,-0.036560,1.000000,-0.000447,0.000280,0.000001,0.066075,0.804589,0.093768,-0.582647,-179.460558,71.800469,13.685211
07825,-9.385570,-0.600499,-3.815109,0.545256,0.709354,0.296916,0.256479,0.023706,0.011722,-0.093860,-0.005962,-0.038148,0.999999,0.001282,0.000119,0.000059,0.065074,0.804750,0.092986,-0.582663,-179.335964,71.786420,13.662690
07826,-9.042919,0.343465,-3.618016,0.680173,-0.237259,-0.093456,0.353375,0.006567,0.017201,-0.090431,0.003491,-0.036171,0.999998,0.001767,0.000033,0.000086,0.063694,0.804905,0.091901,-0.582773,-179.160772,71.779762,13.634505
07827,-8.902579,0.595088,-3.448741,0.621168,-0.514661,-0.280996,0.140086,0.017617,0.030342,-0.089030,0.005962,-0.034475,1.000000,0.000700,0.000088,0.000152,0.063218,0.805017,0.091380,-0.582752,-179.135267,71.769390,13.577869
07828,-9.165148,-0.005424,-3.541929,0.492424,0.071805,0.000446,-0.062364,0.013626,0.029009,-0.091654,-0.000079,-0.035413,1.000000,-0.000312,0.000068,0.000145,0.063543,0.805065,0.091462,-0.582638,-179.219223,71.758748,13.527659
07829,-9.218261,-0.510510,-3.379397,0.211654,0.529814,0.002188,0.027678,0.016098,0.035862,-0.092184,-0.005117,-0.033787,1.000000,0.000138,0.000080,0.000179,0.063536,0.805139,0.091246,-0.582570,-179.267563,71.749258,13.461076
07830,-9.218019,-0.566700,-3.258709,0.086591,0.560080,-0.035621,0.151304,-0.000724,0.048422,-0.092179,-0.005665,-0.032592,1.000000,0.000757,-0.000004,0.000242,0.063064,0.805222,0.090622,-0.582605,-179.262327,71.746935,13.375888
07831,-9.239233,-0.780698,-3.185767,-0.033373,0.752214,-0.037459,0.191662,0.002832,0.064345,-0.092390,-0.007806,-0.031864,0.999999,0.000958,0.000014,0.000322,0.062486,0.805321,0.089809,-0.582655,-179.265852,71.745248,13.257557
07832,-9.779837,-1.032197,-2.930244,-0.487376,0.904460,0.397180,0.352792,-0.000916,0.061343,-0.097795,-0.010300,-0.029321,0.999998,0.001764,-0.000005,0.000307,0.061239,0.805470,0.088546,-0.582776,-179.167286,71.743139,13.148994
07833,-9.486463,-0.038104,-3.084632,-0.035841,-0.023056,0.162659,0.606485,-0.043767,0.038380,-0.094858,-0.000306,-0.030868,0.999995,0.003032,-0.000219,0.000192,0.058935,0.805544,0.086615,-0.583201,-178.886718,71.768048,13.079543
07834,-9.094024,0.824122,-2.636813,-0.150595,-0.937493,-0.355856,0.421764,0.004400,0.040952,-0.090943,0.008278,-0.026349,0.999998,0.002109,0.000022,0.000205,0.057348,0.805711,0.085233,-0.583332,-178.713340,71.762944,13.008095
07835,-9.797991,0.163760,-2.256377,-0.856464,-0.416748,0.197881,-0.025270,0.021215,0.016402,-0.097982,0.001627,-0.022554,1.000000,-0.000126,0.000106,0.000082,0.057496,0.805775,0.085251,-0.583226,-178.758658,71.750462,12.976637
07836,-9.209228,-0.833251,-3.204181,-0.000564,0.788355,-0.058229,-0.271084,-0.047738,0.013437,-0.092084,-0.008382,-0.032052,0.999999,-0.001355,-0.000239,0.000067,0.058642,0.805577,0.085985,-0.583278,-178.932858,71.775010,12.957227
07837,-9.091513,-1.523928,-3.471319,0.141062,1.531438,-0.083205,0.058638,-0.000909,0.062214,-0.090910,-0.015257,-0.034718,1.000000,0.000293,-0.000005,0.000311,0.058595,0.805620,0.085567,-0.583284,-179.008993,71.775633,12.842713
07838,-9.381519,-1.149197,-3.599082,0.252664,1.166539,0.230334,0.516815,-0.004563,0.086166,-0.093809,-0.011439,-0.036023,0.999997,0.002584,-0.000023,0.000431,0.056761,0.805806,0.083724,-0.583476,-178.859363,71.776206,12.688932
07839,-9.306230,-0.359470,-2.914554,-0.197410,0.259215,-0.059555,0.645773,0.020091,0.091994,-0.093064,-0.003543,-0.029148,0.999995,0.003229,0.000100,0.000460,0.054426,0.806085,0.081479,-0.583632,-178.651645,71.765305,12.519089
07840,-9.224093,0.208834,-3.185988,0.193141,-0.251156,-0.056784,0.491809,-0.019179,0.104435,-0.092239,0.002119,-0.031864,0.999997,0.002459,-0.000096,0.000522,0.052750,0.806217,0.079630,-0.583859,-178.546961,71.774791,12.333019
07841,-8.973631,0.638765,-3.588881,0.728644,-0.591357,-0.172485,0.454544,-0.026087,0.097375,-0.089735,0.006426,-0.035886,0.999997,0.002273,-0.000130,0.000487,0.051219,0.806299,0.077908,-0.584113,-178.456330,71.790656,12.155270
07842,-8.953532,1.182341,-3.184877,0.457521,-1.199613,-0.322760,0.307520,-0.017703,0.084287,-0.089537,0.011835,-0.031839,0.999999,0.001538,-0.000089,0.000421,0.050227,0.806372,0.076678,-0.584262,-178.422741,71.799172,12.005648
07843,-9.375522,0.529124,-2.874011,-0.081787,-0.633122,-0.013056,-0.218848,-0.015102,0.056741,-0.093755,0.005233,-0.028753,0.999999,-0.001094,-0.000076,0.000284,0.051288,0.806296,0.077089,-0.584220,-178.647858,71.808117,11.901685
07844,-9.233254,-0.648947,-3.551699,0.377727,0.666311,0.071745,-0.422194,-0.067619,0.041363,-0.092319,-0.006584,-0.035534,0.999998,-0.002111,-0.000338,0.000207,0.053132,0.806019,0.078149,-0.584298,-178.956645,71.844412,11.831732
07845,-9.133784,-1.357991,-3.778777,0.488315,1.424269,0.050492,-0.083970,-0.056724,0.073981,-0.091322,-0.013630,-0.037808,1.000000,-0.000420,-0.000284,0.000370,0.053716,0.805862,0.078085,-0.584469,-179.133989,71.877077,11.696755
07846,-9.829433,-1.090506,-3.645729,0.209744,1.094979,0.668501,0.480966,-0.050840,0.072747,-0.098281,-0.010853,-0.036508,0.999997,0.002405,-0.000254,0.000364,0.052005,0.805882,0.076386,-0.584820,-178.980911,71.903914,11.568405
07847,-9.717148,0.312047,-2.962087,-0.126210,-0.408866,0.341679,0.806700,-0.082353,0.029466,-0.097160,0.003226,-0.029648,0.999992,0.004033,-0.000412,0.000147,0.048879,0.805858,0.073890,-0.585443,-178.568867,71.950912,11.516655
07848,-9.192337,1.294998,-2.390402,-0.322437,-1.453572,-0.343091,0.496805,-0.089214,0.012662,-0.091914,0.013004,-0.023913,0.999997,0.002484,-0.000446,0.000063,0.046942,0.805735,0.072377,-0.585961,-178.298694,71.999254,11.501934
07849,-9.145108,0.675161,-2.610860,-0.201523,-0.806626,-0.314573,-0.166834,-0.090246,0.002053,-0.091439,0.006729,-0.026155,1.000000,-0.000834,-0.000451,0.000010,0.047660,0.805434,0.072840,-0.586259,-178.394851,72.050438,11.502349
07850,-9.189180,-0.450054,-3.627825,0.550857,0.473628,0.050218,-0.365693,-0.107368,-0.005870,-0.091872,-0.004564,-0.036319,0.999998,-0.001828,-0.000537,-0.000029,0.049150,0.805042,0.073922,-0.586538,-178.586036,72.108978,11.522147
07851,-8.879498,-0.769239,-4.129621,1.065875,0.899496,-0.089221,-0.056856,-0.108890,0.006767,-0.088772,-0.007707,-0.041342,1.000000,-0.000284,-0.000544,0.000034,0.049446,0.804713,0.074038,-0.586949,-178.627473,72.170907,11.513849
07852,-9.334125,-0.558655,-3.178748,0.084284,0.505283,0.050375,0.291057,-0.063300,0.019428,-0.093331,-0.005549,-0.031825,0.999999,0.001455,-0.000317,0.000097,0.048350,0.804620,0.073103,-0.587286,-178.489283,72.204449,11.484290
07853,-9.450198,0.251871,-2.954864,-0.009476,-0.341142,0.086021,0.198880,-0.103077,0.006816,-0.094487,0.002545,-0.029595,0.999999,0.000994,-0.000515,0.000034,0.047615,0.804370,0.072470,-0.587767,-178.384036,72.263057,11.476163
07854,-9.031515,0.650455,-3.066793,0.298585,-0.692408,-0.282315,0.047771,-0.093791,-0.004480,-0.090301,0.006514,-0.030709,1.000000,0.000239,-0.000469,-0.000022,0.047439,0.804118,0.072338,-0.588142,-178.340608,72.313743,11.493537
07855,-8.979651,0.740685,-3.220803,0.481159,-0.752132,-0.285931,-0.066500,-0.054357,-0.006130,-0.089788,0.007399,-0.032235,1.000000,-0.000333,-0.000272,-0.000031,0.047715,0.803943,0.072549,-0.588333,-178.366434,72.344237,11.507431
07856,-9.042470,0.546362,-3.258628,0.468665,-0.554317,-0.212869,-0.167820,-0.043495,-0.001834,-0.090418,0.005437,-0.032611,1.000000,-0.000839,-0.000217,-0.000009,0.048396,0.803788,0.073052,-0.588427,-178.454347,72.366156,11.516626
07857,-8.791719,0.097093,-3.595410,0.780514,-0.031734,-0.345877,-0.385575,0.027742,0.003559,-0.087922,0.000900,-0.035944,0.999998,-0.001928,0.000139,0.000018,0.049953,0.803778,0.074182,-0.588168,-178.684470,72.349780,11.507977
07858,-9.169564,-0.681959,-3.556368,0.487089,0.716624,0.007848,-0.259851,0.026493,0.010022,-0.091700,-0.006870,-0.035543,0.999999,-0.001299,0.000132,0.000050,0.051013,0.803809,0.074924,-0.587942,-178.849829,72.331704,11.491233
07859,-9.003234,-0.174135,-3.432672,0.509995,0.210761,-0.191499,0.072752,-0.016846,0.022338,-0.090029,-0.001739,-0.034335,1.000000,0.000364,-0.000084,0.000112,0.050800,0.803789,0.074620,-0.588026,-178.849259,72.341073,11.449096
07860,-9.670001,-0.201890,-2.264553,-0.790311,0.000564,0.089498,-0.002264,0.039279,0.025167,-0.096704,-0.002031,-0.022627,1.000000,-0.000011,0.000196,0.000126,0.050865,0.803928,0.074548,-0.587840,-178.894479,72.315794,11.403608
07861,-9.879081,-0.426523,-2.189993,-0.963681,0.198336,0.267303,-0.139214,-0.036761,-0.014728,-0.098787,-0.004273,-0.021915,1.000000,-0.000696,-0.000184,-0.000074,0.051402,0.803781,0.075011,-0.587935,-178.948056,72.336157,11.432103
07862,-8.785877,-0.476566,-2.619128,-0.247636,0.388345,-0.643912,-0.136215,0.059459,-0.006920,-0.087867,-0.004780,-0.026162,1.000000,-0.000681,0.000297,-0.000035,0.051903,0.803932,0.075466,-0.587626,-179.012784,72.299093,11.446630
07863,-8.755940,0.737654,-4.148679,1.399286,-0.537311,-0.211885,-0.267230,0.282374,-0.023397,-0.087617,0.007331,-0.041373,0.999998,-0.001336,0.001412,-0.000117,0.052809,0.804684,0.076422,-0.586391,-179.133790,72.136571,11.481358
07864,-9.150540,1.184347,-2.853024,0.121111,-1.230281,-0.234250,0.011388,0.354552,-0.050273,-0.091553,0.011868,-0.028367,0.999998,0.000057,0.001773,-0.000251,0.052477,0.805720,0.076696,-0.584960,-179.045839,71.930013,11.567503
07865,-8.990074,1.457826,-2.986869,0.322446,-1.465585,-0.346108,-0.433372,0.182026,0.007552,-0.089928,0.014510,-0.029818,0.999997,-0.002167,0.000910,0.000038,0.054182,0.806142,0.077985,-0.584053,-179.313438,71.825254,11.548214
07866,-9.373943,-0.055006,-3.795533,0.653977,0.160120,0.278222,-0.973981,0.184634,-0.041279,-0.093775,-0.000715,-0.037866,0.999988,-0.004870,0.000923,-0.000206,0.057912,0.806406,0.081055,-0.582912,-179.800224,71.716331,11.623861
07867,-9.507962,-1.098237,-4.213902,0.775862,1.275755,0.537911,-0.548741,0.038828,-0.038732,-0.095090,-0.011079,-0.042090,0.999996,-0.002744,0.000194,-0.000194,0.060003,0.806344,0.082825,-0.582537,179.950916,71.693514,11.693910
07868,-8.977405,-1.108178,-3.547246,0.308396,1.197214,-0.175448,0.048400,0.045408,-0.006912,-0.089782,-0.011070,-0.035455,1.000000,0.000242,0.000227,-0.000035,0.059767,0.806502,0.082737,-0.582355,179.992732,71.664466,11.709383
07869,-9.620330,-0.647600,-2.510260,-0.762543,0.500089,0.109005,0.257564,0.046930,-0.005168,-0.096209,-0.006441,-0.025088,0.999999,0.001288,0.000235,-0.000026,0.058701,0.806715,0.082025,-0.582269,-179.852351,71.637032,11.718134
07870,-9.507361,-0.201433,-1.888712,-1.217648,-0.054131,-0.194365,0.157520,0.017856,-0.012171,-0.095075,-0.001994,-0.018880,1.000000,0.000788,0.000089,-0.000061,0.058020,0.806822,0.081632,-0.582244,-179.738837,71.623772,11.743219
07871,-9.388381,-0.202020,-2.193370,-0.899952,0.010802,-0.211471,-0.153024,0.029490,0.000736,-0.093887,-0.002037,-0.021918,1.000000,-0.000765,0.000147,0.000004,0.058634,0.806866,0.082087,-0.582057,-179.829462,71.606338,11.741127
07872,-9.906873,-0.997036,-2.662179,-0.789785,0.849666,0.428490,-0.248376,0.033492,0.008204,-0.099073,-0.010007,-0.026593,0.999999,-0.001242,0.000167,0.000041,0.059643,0.806907,0.082798,-0.581797,-179.983489,71.584304,11.729345
07873,-9.600659,-0.770523,-3.819055,0.422916,0.872489,0.502905,-0.000450,-0.014101,-0.023649,-0.096005,-0.007694,-0.038197,1.000000,-0.000002,-0.000071,-0.000118,0.059589,0.806858,0.082895,-0.581857,-179.944509,71.591834,11.771714
07874,-8.826860,0.339125,-4.095962,1.143258,-0.118021,-0.143955,0.207593,0.058646,-0.027545,-0.088280,0.003446,-0.040930,0.999999,0.001038,0.000293,-0.000138,0.058644,0.807092,0.082432,-0.581694,-179.775702,71.555400,11.824898
07875,-8.759045,0.778529,-3.794550,0.966595,-0.608590,-0.303697,0.000280,0.086039,-0.008744,-0.087606,0.007789,-0.037908,1.000000,0.000001,0.000430,-0.000044,0.058589,0.807341,0.082495,-0.581345,-179.762624,71.505543,11.839533
07876,-9.162946,0.117874,-3.668771,0.582254,-0.007067,0.040955,-0.306205,0.072134,0.028089,-0.091643,0.001110,-0.036656,0.999999,-0.001531,0.000361,0.000140,0.059873,0.807486,0.083304,-0.580898,-179.983859,71.461309,11.791794
07877,-9.299784,-0.869969,-3.742992,0.398373,0.978671,0.194125,-0.313343,0.019418,0.039385,-0.093000,-0.008777,-0.037407,0.999999,-0.001567,0.000097,0.000197,0.061252,0.807466,0.084065,-0.580672,179.767928,71.449599,11.720367
07878,-9.315064,-1.195829,-3.407949,0.011438,1.238948,0.100910,0.045692,-0.003345,0.046567,-0.093147,-0.011972,-0.034084,1.000000,0.000228,-0.000017,0.000233,0.061200,0.807504,0.083755,-0.580670,179.717116,71.448422,11.639707
07879,-9.167962,-0.535972,-2.676096,-0.482867,0.457707,-0.270275,0.444954,-0.012219,0.054230,-0.091677,-0.005325,-0.026778,0.999997,0.002225,-0.000061,0.000271,0.059573,0.807627,0.082244,-0.580883,179.877909,71.454772,11.541417
07880,-9.352152,0.173029,-1.758598,-1.248212,-0.428405,-0.386989,0.392498,0.023220,0.063047,-0.093524,0.001735,-0.017572,0.999998,0.001962,0.000116,0.000315,0.058157,0.807850,0.080867,-0.580910,179.998015,71.438475,11.431285
07881,-9.654310,0.148961,-1.932041,-1.189495,-0.388203,-0.045648,-0.107716,0.025725,0.064226,-0.096546,0.001448,-0.019309,1.000000,-0.000539,0.000129,0.000321,0.058775,0.807922,0.080932,-0.580739,179.825352,71.423138,11.315261
07882,-9.551134,-0.560178,-2.963451,-0.344437,0.517883,0.183969,-0.294823,-0.007479,0.043295,-0.095509,-0.005666,-0.029630,0.999999,-0.001474,-0.000037,0.000216,0.060091,0.807843,0.081623,-0.580618,179.585504,71.424565,11.241026
07883,-9.334327,-0.909745,-3.759302,0.390288,1.036664,0.230352,-0.077199,-0.030272,0.049691,-0.093335,-0.009135,-0.037604,1.000000,-0.000386,-0.000151,0.000248,0.060567,0.807754,0.081642,-0.580689,179.454620,71.441128,11.150632
07884,-9.075520,-0.326721,-4.440156,1.223233,0.613208,0.203024,0.242692,-0.022227,0.038017,-0.090750,-0.003231,-0.044416,0.999999,0.001213,-0.000111,0.000190,0.059702,0.807791,0.080788,-0.580847,179.531402,71.450950,11.085444
07885,-8.991897,0.462262,-3.973696,0.975266,-0.251756,-0.022712,0.370637,0.015775,0.056657,-0.089923,0.004671,-0.039721,0.999998,0.001853,0.000079,0.000283,0.058370,0.807971,0.079492,-0.580910,179.645776,71.441137,10.983101
07886,-9.156021,0.338683,-3.293961,0.266313,-0.270123,-0.083673,0.061536,-0.001874,0.079915,-0.091561,0.003360,-0.032939,1.000000,0.000308,-0.000009,0.000400,0.058350,0.808029,0.079002,-0.580899,179.547741,71.439068,10.843095
07887,-9.323146,-0.504956,-3.623488,0.355632,0.617420,0.177207,-0.137052,-0.045966,0.074124,-0.093221,-0.005109,-0.036253,1.000000,-0.000685,-0.000230,0.000371,0.059145,0.807886,0.079091,-0.581004,179.340424,71.464449,10.708263
07888,-9.371315,-0.420707,-3.884673,0.604866,0.585139,0.305660,0.265568,-0.071786,0.054355,-0.093698,-0.004181,-0.038886,0.999999,0.001328,-0.000359,0.000272,0.058253,0.807791,0.078091,-0.581362,179.401540,71.502320,10.612623
07889,-9.287277,0.754148,-3.052487,0.091441,-0.726414,-0.034964,0.697603,-0.061750,0.043937,-0.092865,0.007628,-0.030527,0.999994,0.003488,-0.000309,0.000220,0.055594,0.807829,0.075871,-0.581863,179.723642,71.536965,10.531824
07890,-9.298304,1.437337,-1.851245,-0.900646,-1.623539,-0.405007,0.393088,-0.064971,0.015376,-0.092978,0.014403,-0.018514,0.999998,0.001965,-0.000325,0.000077,0.054071,0.807767,0.074660,-0.582249,179.925479,71.571271,10.507732
07891,-9.299657,0.674381,-2.321596,-0.598603,-0.787300,-0.254967,-0.532077,-0.055691,0.005154,-0.092990,0.006680,-0.023260,0.999996,-0.002660,-0.000278,0.000026,0.056262,0.807463,0.076177,-0.582267,179.609888,71.602625,10.497434
07892,-9.625262,-1.139811,-3.134030,-0.284677,1.140957,0.305815,-0.802371,-0.082331,0.005465,-0.096239,-0.011526,-0.031334,0.999992,-0.004012,-0.000412,0.000027,0.059545,0.807006,0.078477,-0.582268,179.141802,71.646967,10.489005
07893,-9.654637,-1.900815,-3.985665,0.347044,2.069890,0.594316,-0.519606,-0.140669,0.029861,-0.096515,-0.019126,-0.039875,0.999996,-0.002598,-0.000703,0.000149,0.061790,0.806453,0.079831,-0.582617,178.786548,71.726698,10.429408
07894,-9.012581,-1.579878,-4.123070,0.744081,1.831172,0.026798,0.165469,-0.114368,0.064761,-0.090097,-0.015794,-0.041295,0.999999,0.000827,-0.000572,0.000324,0.061353,0.806209,0.079066,-0.583104,178.767923,71.788707,10.310604
07895,-8.768077,-0.722786,-3.108141,0.057513,0.809727,-0.517358,0.558312,-0.056013,0.125373,-0.087668,-0.007196,-0.031126,0.999996,0.002792,-0.000280,0.000627,0.059497,0.806266,0.076919,-0.583506,178.865860,71.818766,10.077982
07896,-9.096544,-0.007138,-2.813269,-0.172074,0.035025,-0.292666,0.377183,-0.069133,0.160344,-0.090956,-0.000091,-0.028164,0.999998,0.001886,-0.000346,0.000802,0.058465,0.806250,0.075164,-0.583861,178.803314,71.853674,9.785068
07897,-9.298876,-0.059814,-2.619021,-0.419475,0.049453,-0.161080,0.121158,-0.085897,0.151248,-0.092977,-0.000653,-0.026231,0.999999,0.000606,-0.000429,0.000756,0.058458,0.806093,0.074179,-0.584203,178.603171,71.900371,9.502450
07898,-9.135360,-0.074218,-2.645617,-0.341702,0.087257,-0.308204,0.194070,-0.075938,0.143401,-0.091343,-0.000782,-0.026492,0.999999,0.000970,-0.000380,0.000717,0.058116,0.805994,0.073025,-0.584520,178.463412,71.939011,9.238851
07899,-9.131124,0.619814,-2.628043,-0.223931,-0.590446,-0.311665,0.312232,-0.057834,0.138979,-0.091308,0.006176,-0.026297,0.999998,0.001561,-0.000289,0.000695,0.057293,0.805968,0.071540,-0.584821,178.393757,71.969406,8.978453
07900,-9.399726,1.073357,-2.277488,-0.549716,-1.106277,-0.160337,0.233137,-0.045895,0.107961,-0.093998,0.010709,-0.022784,0.999999,0.001166,-0.000229,0.000540,0.056679,0.805951,0.070422,-0.585040,178.338902,71.991240,8.780631
07901,-9.334672,0.597166,-2.509623,-0.395563,-0.584302,-0.153857,-0.228413,-0.068467,0.088240,-0.093341,0.005902,-0.025135,0.999999,-0.001142,-0.000342,0.000441,0.057889,0.805719,0.070719,-0.585205,178.047166,72.028309,8.612509
07902,-9.105591,-0.288698,-3.751461,0.677242,0.535307,0.001758,-0.455878,-0.073633,0.068471,-0.091041,-0.003004,-0.037541,0.999997,-0.002279,-0.000368,0.000342,0.059947,0.805406,0.071768,-0.585301,177.663796,72.066434,8.484556
07903,-9.034289,-0.714208,-4.088995,0.938504,1.034498,0.030959,-0.051261,-0.071424,0.071787,-0.090326,-0.007185,-0.040920,1.000000,-0.000256,-0.000357,0.000359,0.060396,0.805209,0.071611,-0.585544,177.500538,72.105037,8.344858
07904,-8.752736,0.115142,-3.822720,0.934750,0.184100,-0.308521,0.423031,-0.049301,0.070577,-0.087518,0.001201,-0.038246,0.999998,0.002115,-0.000247,0.000353,0.058912,0.805229,0.070087,-0.585853,177.617967,72.128911,8.214105
07905,-9.084182,0.917715,-2.604131,-0.157808,-0.841159,-0.356810,0.433195,-0.014697,0.096820,-0.090844,0.009190,-0.026028,0.999998,0.002166,-0.000073,0.000484,0.057464,0.805348,0.068428,-0.586030,177.691741,72.134507,8.031849
07906,-9.473002,1.191214,-2.080981,-0.717191,-1.216819,-0.143550,0.111239,-0.051336,0.065819,-0.094729,0.011893,-0.020828,1.000000,0.000556,-0.000257,0.000329,0.057222,0.805264,0.067835,-0.586237,177.638564,72.159704,7.909509
07907,-9.099087,0.514759,-2.483189,-0.343373,-0.457444,-0.384145,-0.290005,-0.046654,0.053854,-0.090986,0.005087,-0.024861,0.999999,-0.001450,-0.000233,0.000269,0.058570,0.805064,0.068458,-0.586306,177.371506,72.184518,7.804533
07908,-9.488076,-0.399969,-3.072889,-0.072200,0.543661,0.153526,-0.349303,-0.030901,0.059624,-0.094875,-0.004082,-0.030736,0.999998,-0.001747,-0.000155,0.000298,0.060159,0.804903,0.069247,-0.586274,177.066015,72.198047,7.694649
07909,-9.687577,-0.789859,-3.438621,0.139447,0.995930,0.448200,-0.053468,-0.047036,0.050374,-0.096866,-0.007932,-0.034407,1.000000,-0.000267,-0.000235,0.000252,0.060546,0.804768,0.069191,-0.586425,176.939748,72.222901,7.595226
07910,-9.308802,-0.331005,-3.214993,0.133191,0.521927,0.026489,0.283428,-0.052664,0.048245,-0.093079,-0.003287,-0.032179,0.999999,0.001417,-0.000263,0.000241,0.059560,0.804728,0.068162,-0.586702,177.014770,72.249031,7.503938
07911,-9.310566,0.250436,-3.098925,0.133832,-0.074032,0.002062,0.315472,-0.043100,0.056630,-0.093100,0.002527,-0.031005,0.999999,0.001577,-0.000216,0.000283,0.058479,0.804716,0.067000,-0.586961,177.088847,72.271475,7.392947
07912,-9.452837,0.612942,-3.248079,0.299435,-0.415722,0.188280,0.288894,-0.069641,0.026247,-0.094518,0.006164,-0.032505,0.999999,0.001444,-0.000348,0.000131,0.057412,0.804617,0.066038,-0.587312,177.204950,72.308036,7.341564
07913,-9.340820,1.106080,-3.146927,0.330590,-0.922267,0.057348,0.348144,-0.088384,-0.005884,-0.093394,0.011118,-0.031491,0.999998,0.001741,-0.000442,-0.000029,0.056031,0.804456,0.065018,-0.587778,177.406096,72.358230,7.344332
07914,-9.068560,1.218012,-2.636972,-0.040336,-1.115048,-0.355891,0.165090,-0.085477,-0.022602,-0.090673,0.012212,-0.026398,1.000000,0.000825,-0.000427,-0.000113,0.055322,0.804256,0.064610,-0.588164,177.538222,72.405110,7.383954
07915,-9.535936,0.557587,-2.844457,-0.088450,-0.450507,0.143473,-0.108859,-0.098212,-0.047691,-0.095344,0.005583,-0.028494,1.000000,-0.000544,-0.000491,-0.000238,0.055659,0.803924,0.065099,-0.588532,177.553039,72.461952,7.465929
07916,-9.367881,0.001311,-3.156115,0.171910,0.152661,0.069892,0.055196,-0.134557,-0.076188,-0.093658,0.000058,-0.031624,1.000000,0.000276,-0.000673,-0.000381,0.055252,0.803531,0.065215,-0.589094,177.716116,72.538229,7.604139
07917,-9.222692,0.189010,-2.990338,0.103647,-0.065738,-0.116255,0.349063,-0.082040,-0.089009,-0.092214,0.001983,-0.029938,0.999998,0.001745,-0.000410,-0.000445,0.053622,0.803358,0.064526,-0.589557,178.071419,72.586530,7.767934
07918,-8.894817,1.267909,-3.985654,1.325277,-0.969097,-0.121698,0.057851,-0.057393,-0.111569,-0.088930,0.012740,-0.039878,1.000000,0.000289,-0.000287,-0.000558,0.053075,0.803181,0.064798,-0.589818,178.308201,72.618856,7.981658
07919,-9.213032,0.869062,-2.553568,-0.180822,-0.828803,-0.250453,-0.214985,0.072620,-0.109500,-0.092135,0.008714,-0.025512,0.999999,-0.001075,0.000363,-0.000548,0.053599,0.803304,0.065895,-0.589480,178.387490,72.578528,8.194844
07920,-9.495531,0.397802,-3.120378,0.187378,-0.283324,0.184548,-0.491601,-0.014566,-0.101240,-0.094951,0.003949,-0.031220,0.999997,-0.002458,-0.000073,-0.000506,0.055277,0.803106,0.067757,-0.589384,178.292501,72.585968,8.391057
07921,-9.102643,-0.884408,-3.504753,0.438930,1.073328,-0.087521,-0.783878,-0.026353,-0.094893,-0.091026,-0.008938,-0.035025,0.999992,-0.003919,-0.000132,-0.000474,0.058161,0.802776,0.070444,-0.589242,178.013705,72.602266,8.570573
07922,-9.386464,-1.671462,-3.807025,0.489788,1.900811,0.264016,-0.411325,-0.054476,-0.072495,-0.093860,-0.016759,-0.038061,0.999998,-0.002057,-0.000272,-0.000362,0.059616,0.802481,0.071942,-0.589317,177.909647,72.632350,8.709120
07923,-9.100548,-1.122318,-3.886818,0.754788,1.387239,0.020560,0.249383,-0.063009,-0.037332,-0.090995,-0.011158,-0.038911,0.999999,0.001247,-0.000315,-0.000187,0.058535,0.802358,0.071342,-0.589665,178.115497,72.668625,8.776094
07924,-8.931668,0.095862,-2.795800,0.012657,-0.010654,-0.453196,0.542760,-0.032292,-0.018281,-0.089312,0.001043,-0.027970,0.999996,0.002714,-0.000161,-0.000091,0.056313,0.802425,0.069819,-0.589973,178.461486,72.684809,8.813652
07925,-9.495897,0.789785,-1.636634,-1.114954,-0.928498,-0.253966,0.163169,-0.013338,0.004097,-0.094958,0.007909,-0.016366,1.000000,0.000816,-0.000067,0.000020,0.055682,0.802435,0.069322,-0.590078,178.545336,72.691842,8.804564
07926,-9.777185,0.297823,-2.339445,-0.622021,-0.332449,0.220139,-0.544775,-0.058374,-0.025113,-0.097765,0.002927,-0.023431,0.999996,-0.002724,-0.000292,-0.000126,0.057812,0.802112,0.071026,-0.590110,178.279268,72.723144,8.853601
07927,-9.438569,-0.575073,-3.609712,0.511713,0.781501,0.265739,-0.665920,-0.048077,-0.038141,-0.094378,-0.005853,-0.036100,0.999994,-0.003330,-0.000240,-0.000191,0.060395,0.801762,0.073133,-0.590070,177.963642,72.750846,8.923637
07928,-9.121400,-0.685195,-4.057879,1.000952,1.002153,0.093351,-0.344371,-0.021562,-0.021010,-0.091210,-0.006912,-0.040577,0.999999,-0.001722,-0.000108,-0.000105,0.061717,0.801598,0.074234,-0.590018,177.806167,72.761034,8.965544
07929,-9.268556,0.022030,-3.462720,0.534765,0.194627,0.065227,0.100163,0.004541,0.002413,-0.092686,0.000237,-0.034625,1.000000,0.000501,0.000023,0.000012,0.061328,0.801646,0.073935,-0.590031,177.857971,72.757835,8.960704
07930,-9.284776,0.527988,-2.799201,0.005607,-0.427226,-0.110171,-0.023155,-0.020834,-0.000565,-0.092845,0.005277,-0.028002,1.000000,-0.000116,-0.000104,-0.000003,0.061425,0.801589,0.074013,-0.590088,177.847375,72.767216,8.964398
07931,-9.291351,0.071297,-2.745699,-0.131020,0.015238,-0.124770,-0.270783,-0.050544,-0.004899,-0.092907,0.000678,-0.027481,0.999999,-0.001354,-0.000253,-0.000024,0.062522,0.801357,0.074820,-0.590187,177.696195,72.795715,8.969558
07932,-8.796266,-0.356484,-3.028257,0.198616,0.518815,-0.519513,-0.217588,-0.063183,0.009262,-0.087953,-0.003602,-0.030306,0.999999,-0.001088,-0.000316,0.000046,0.063443,0.801117,0.075419,-0.590337,177.552676,72.829108,8.950761
07933,-8.859237,-0.094676,-2.630968,-0.138133,0.189535,-0.573530,-0.056777,-0.022382,0.022505,-0.088589,-0.000964,-0.026319,1.000000,-0.000284,-0.000112,0.000113,0.063753,0.801044,0.075493,-0.590394,177.475194,72.840812,8.904722
07934,-9.647104,-0.217640,-1.988909,-0.993631,0.156776,-0.011776,-0.211198,-0.002339,0.037314,-0.096470,-0.002215,-0.019888,0.999999,-0.001056,-0.000012,0.000187,0.064709,0.800995,0.075981,-0.590293,177.288058,72.838650,8.836535
07935,-10.039799,-0.937783,-2.389378,-0.876232,0.931179,0.470855,-0.268752,-0.056923,0.033112,-0.100390,-0.009427,-0.023910,0.999999,-0.001344,-0.000285,0.000166,0.065912,0.800754,0.076627,-0.590403,177.066015,72.869742,8.766318
07936,-9.499545,-0.971130,-3.088056,-0.067116,1.130137,0.159214,0.123159,-0.079114,0.024451,-0.094982,-0.009704,-0.030924,1.000000,0.000616,-0.000396,0.000122,0.065518,0.800583,0.076151,-0.590742,177.086829,72.911857,8.714879
07937,-9.129484,-0.000724,-2.865002,0.032708,0.147981,-0.245413,0.463693,-0.045840,0.033296,-0.091288,0.000044,-0.028671,0.999997,0.002318,-0.000229,0.000166,0.063785,0.800612,0.074637,-0.591085,177.284842,72.936605,8.645102
07938,-9.358935,0.999503,-2.691298,0.002363,-0.884858,-0.063391,0.393394,-0.049025,0.026812,-0.093584,0.010035,-0.026916,0.999998,0.001967,-0.000245,0.000134,0.062303,0.800613,0.073362,-0.591401,177.459547,72.961489,8.592448
07939,-8.968496,1.614856,-2.876739,0.411927,-1.442276,-0.375132,0.091335,-0.087050,-0.015654,-0.089671,0.016169,-0.028799,1.000000,0.000457,-0.000435,-0.000078,0.061930,0.800381,0.073132,-0.591783,177.532594,73.011161,8.615118
07940,-8.624379,1.481165,-2.816789,0.436787,-1.306038,-0.723598,-0.239440,-0.052900,-0.036311,-0.086234,0.014794,-0.028208,0.999999,-0.001197,-0.000265,-0.000182,0.062796,0.800148,0.073977,-0.591901,177.461712,73.039895,8.684664
07941,-9.171340,0.633397,-2.950562,0.247599,-0.465004,-0.171996,-0.459658,-0.049142,-0.041444,-0.091705,0.006285,-0.029543,0.999997,-0.002298,-0.000246,-0.000207,0.064538,0.799843,0.075491,-0.591935,177.270504,73.068564,8.761103
07942,-9.512984,-0.394768,-2.930299,-0.067659,0.533647,0.134674,-0.420805,-0.081601,-0.046827,-0.095119,-0.003987,-0.029333,0.999998,-0.002104,-0.000408,-0.000234,0.066115,0.799457,0.076914,-0.592099,177.112937,73.114244,8.849817
07943,-9.513512,-1.257711,-2.902065,-0.261655,1.381262,0.113761,-0.267477,-0.126353,-0.027584,-0.095119,-0.012603,-0.029064,0.999999,-0.001337,-0.000632,-0.000138,0.067158,0.798986,0.077779,-0.592505,176.998080,73.186806,8.890942
07944,-9.612813,-1.897561,-2.967405,-0.348658,2.020629,0.217661,-0.013134,-0.145007,-0.009255,-0.096107,-0.018973,-0.029742,1.000000,-0.000066,-0.000725,-0.000046,0.067238,0.798559,0.077819,-0.593065,176.996820,73.267668,8.898329
07945,-9.919104,-1.694196,-3.005197,-0.336660,1.810954,0.526421,0.565052,-0.178548,-0.005905,-0.099165,-0.016854,-0.030188,0.999996,0.002825,-0.000893,-0.000030,0.065041,0.798216,0.076110,-0.593993,177.313456,73.369461,8.891907
07946,-9.788499,-0.284992,-2.502713,-0.461885,0.319607,0.279086,1.110433,-0.200929,-0.024359,-0.097860,-0.002699,-0.025141,0.999984,0.005552,-0.001005,-0.000122,0.060607,0.797971,0.072853,-0.595199,177.984132,73.482649,8.928155
07947,-9.674046,1.263792,-1.970334,-0.618366,-1.318582,0.033401,1.072906,-0.211718,-0.051342,-0.096716,0.012769,-0.019737,0.999985,0.005365,-0.001059,-0.000257,0.056257,0.797638,0.069804,-0.596437,178.684979,73.604212,9.018954
07948,-9.516655,2.000580,-1.782818,-0.605816,-2.089511,-0.168291,0.455168,-0.220120,-0.113535,-0.095135,0.020100,-0.017887,0.999997,0.002276,-0.001101,-0.000568,0.054178,0.797077,0.068851,-0.597488,179.163083,73.729332,9.246316
07949,-9.471590,1.241584,-2.690062,0.151679,-1.196492,0.037913,-0.216866,-0.205933,-0.131905,-0.094680,0.012449,-0.027012,0.999999,-0.001084,-0.001030,-0.000660,0.054726,0.796359,0.069973,-0.598265,179.291744,73.847789,9.510707
07950,-9.412106,0.186096,-3.800401,1.055419,0.033916,0.284357,-0.320998,-0.247795,-0.167222,-0.094072,0.001879,-0.038124,0.999998,-0.001605,-0.001239,-0.000836,0.055588,0.795481,0.071542,-0.599168,179.437782,73.988535,9.854669
07951,-9.195043,-0.444612,-4.024998,1.239435,0.697618,0.133375,0.037995,-0.246870,-0.179183,-0.091905,-0.004356,-0.040364,0.999999,0.000190,-0.001234,-0.000896,0.054995,0.794689,0.072077,-0.600208,179.814197,74.130108,10.224498
07952,-9.320374,-0.573071,-3.533009,0.745212,0.714105,0.117798,0.372244,-0.235302,-0.156011,-0.093166,-0.005592,-0.035450,0.999997,0.001861,-0.001177,-0.000780,0.053129,0.794039,0.071524,-0.601301,-179.653108,74.262316,10.556770
07953,-9.518992,-0.491556,-3.159094,0.382649,0.537763,0.207142,0.406370,-0.246016,-0.154526,-0.095155,-0.004778,-0.031718,0.999997,0.002032,-0.001230,-0.000773,0.051146,0.793353,0.070854,-0.602458,-179.100767,74.401763,10.889607
07954,-9.575585,-0.381466,-3.091995,0.354392,0.389988,0.243154,0.515854,-0.252773,-0.176572,-0.095720,-0.003650,-0.031051,0.999995,0.002579,-0.001264,-0.000883,0.048653,0.792669,0.069947,-0.603669,-178.426762,74.541884,11.282982
07955,-9.338599,0.294344,-2.700901,0.190158,-0.356328,-0.095298,0.710808,-0.264325,-0.178506,-0.093347,0.003123,-0.027122,0.999992,0.003554,-0.001322,-0.000893,0.045397,0.791978,0.068448,-0.605000,-177.630735,74.689189,11.687191
07956,-9.341990,0.941409,-1.990433,-0.356519,-1.132688,-0.288472,0.557498,-0.226852,-0.171624,-0.093389,0.009550,-0.019984,0.999995,0.002787,-0.001134,-0.000858,0.042745,0.791368,0.067403,-0.606108,-176.925469,74.811911,12.087927
07957,-9.525086,0.980548,-2.086785,-0.282699,-1.186753,-0.088745,0.047563,-0.220994,-0.191995,-0.095218,0.009902,-0.020971,0.999999,0.000238,-0.001105,-0.000960,0.042057,0.790645,0.067975,-0.607035,-176.466717,74.931452,12.535916
07958,-9.247468,0.477158,-2.629885,0.249710,-0.605843,-0.209032,-0.224468,-0.212288,-0.204182,-0.092442,0.004836,-0.026402,0.999998,-0.001122,-0.001061,-0.001021,0.042395,0.789895,0.069428,-0.607823,-176.128649,75.042848,13.019633
07959,-9.215230,-0.192866,-2.635221,0.175746,0.049881,-0.227874,-0.299899,-0.184484,-0.193534,-0.092130,-0.001879,-0.026434,0.999998,-0.001499,-0.000922,-0.000968,0.043062,0.789204,0.071069,-0.608483,-175.859016,75.140018,13.477470
07960,-9.567871,-0.757967,-3.080873,0.436552,0.647015,0.237249,-0.315145,-0.163452,-0.214760,-0.095662,-0.007526,-0.030875,0.999998,-0.001576,-0.000817,-0.001074,0.043709,0.788573,0.072852,-0.609044,-175.546890,75.221740,13.987926
07961,-9.479320,-0.884336,-3.361715,0.723468,0.808173,0.225444,-0.018520,-0.187831,-0.231651,-0.094772,-0.008737,-0.033705,0.999999,-0.000093,-0.000939,-0.001158,0.043152,0.787914,0.073785,-0.609824,-175.022508,75.317561,14.542094
07962,-9.367758,-0.174288,-2.654509,0.217257,-0.018633,-0.076978,0.362061,-0.176889,-0.217904,-0.093656,-0.001593,-0.026631,0.999997,0.001810,-0.000884,-0.001090,0.041124,0.787383,0.073513,-0.610683,-174.300434,75.404282,15.074732
07963,-9.486362,0.478070,-2.126511,-0.186178,-0.775033,-0.111850,0.197230,-0.184897,-0.214681,-0.094839,0.004904,-0.021348,0.999999,0.000986,-0.000924,-0.001073,0.039767,0.786781,0.073722,-0.611522,-173.675203,75.496235,15.604924
07964,-9.299634,-0.161135,-2.231289,-0.126803,-0.133403,-0.249535,-0.166847,-0.171563,-0.205995,-0.092979,-0.001534,-0.022391,0.999999,-0.000834,-0.000858,-0.001030,0.039851,0.786160,0.075019,-0.612158,-173.270116,75.577760,16.122380
07965,-9.405107,-1.032714,-2.538609,0.012281,0.754548,-0.045520,-0.251314,-0.147139,-0.196010,-0.094042,-0.010267,-0.025442,0.999998,-0.001257,-0.000736,-0.000980,0.040302,0.785587,0.076533,-0.612675,-172.941904,75.647459,16.610867
07966,-9.485278,-1.573436,-2.663040,0.031882,1.290221,0.080355,-0.161937,-0.116031,-0.180550,-0.094851,-0.015670,-0.026673,0.999999,-0.000810,-0.000580,-0.000903,0.040427,0.785142,0.077725,-0.613088,-172.598551,75.697848,17.061580
07967,-9.461072,-1.806404,-2.719015,0.063576,1.518385,0.079656,0.027881,-0.127589,-0.149092,-0.094607,-0.017990,-0.027253,1.000000,0.000139,-0.000638,-0.000745,0.039917,0.784700,0.078203,-0.613625,-172.213637,75.758508,17.443262
07968,-9.660345,-1.655121,-2.716587,0.057113,1.339278,0.269205,0.287735,-0.120230,-0.126960,-0.096598,-0.016451,-0.027248,0.999999,0.001439,-0.000601,-0.000635,0.038443,0.784350,0.077807,-0.614217,-171.724066,75.814000,17.779022
07969,-9.830512,-1.140268,-2.445366,-0.134190,0.757428,0.352312,0.487452,-0.135430,-0.142075,-0.098297,-0.011273,-0.024548,0.999997,0.002437,-0.000677,-0.000710,0.036155,0.783973,0.076845,-0.614959,-171.081574,75.878046,18.154588
07970,-9.762945,-0.429881,-2.434919,0.010807,0.036341,0.258419,0.611892,-0.153325,-0.147232,-0.097614,-0.004152,-0.024437,0.999995,0.003059,-0.000767,-0.000736,0.033358,0.783563,0.075525,-0.615802,-170.340023,75.948492,18.558243
07971,-9.405393,0.296641,-2.072303,-0.119600,-0.730702,-0.205631,0.628744,-0.151840,-0.151008,-0.094036,0.003103,-0.020785,0.999994,0.003144,-0.000759,-0.000755,0.030494,0.783142,0.074159,-0.616651,-169.579754,76.018572,18.971536
07972,-9.197818,0.285501,-1.625745,-0.488454,-0.785007,-0.513786,0.261979,-0.124220,-0.121127,-0.091966,0.002932,-0.016311,0.999999,0.001310,-0.000621,-0.000606,0.029137,0.782765,0.073821,-0.617236,-169.099343,76.073055,19.312682
07973,-9.721701,-0.848296,-2.560894,0.132302,0.411123,0.267130,-0.139783,-0.112564,-0.111294,-0.097207,-0.008447,-0.025658,0.999999,-0.000699,-0.000563,-0.000556,0.029389,0.782359,0.074675,-0.617636,-168.878830,76.123685,19.623347
07974,-9.767424,-1.855587,-3.042404,0.444087,1.460185,0.471894,0.025626,-0.141785,-0.119688,-0.097664,-0.018494,-0.030496,1.000000,0.000128,-0.000709,-0.000598,0.028970,0.781891,0.075056,-0.618202,-168.524800,76.187426,19.973633
07975,-9.745062,-2.101550,-2.562727,-0.029456,1.625166,0.351377,0.417057,-0.146230,-0.098219,-0.097442,-0.020914,-0.025742,0.999997,0.002085,-0.000731,-0.000491,0.027098,0.781463,0.074134,-0.618938,-167.993717,76.257510,20.275406
07976,-10.230681,-1.329352,-2.724609,0.161007,0.823647,0.824656,0.627757,-0.173140,-0.107702,-0.102290,-0.013153,-0.027376,0.999995,0.003139,-0.000866,-0.000539,0.024370,0.780981,0.072599,-0.619842,-167.297390,76.338588,20.622344
07977,-10.375971,-0.336649,-2.371475,-0.039230,-0.243191,0.833305,0.809646,-0.213878,-0.170129,-0.103737,-0.003182,-0.023839,0.999991,0.004048,-0.001069,-0.000851,0.020766,0.780351,0.070731,-0.620982,-166.328315,76.435175,21.143118
07978,-10.501200,0.717088,-1.891183,-0.361226,-1.390307,0.784594,0.837977,-0.211364,-0.250843,-0.104983,0.007382,-0.018992,0.999990,0.004190,-0.001057,-0.001254,0.016789,0.779696,0.069102,-0.622107,-165.141895,76.514540,21.870569
07979,-10.200558,2.226503,-2.831950,0.831077,-2.798019,0.604066,0.608597,-0.261229,-0.364837,-0.101928,0.022537,-0.028384,0.999993,0.003043,-0.001306,-0.001824,0.013378,0.778806,0.068613,-0.623358,-163.785035,76.602282,22.908110
07980,-10.089660,2.719285,-2.623755,0.734248,-3.354989,0.399285,0.466063,-0.192680,-0.526171,-0.100799,0.027519,-0.026271,0.999993,0.002330,-0.000963,-0.002631,0.009986,0.778063,0.069207,-0.624283,-162.170312,76.617036,24.294059
07981,-10.643968,3.001436,-3.139857,1.176062,-3.702156,1.007280,0.185548,-0.197170,-0.679042,-0.106306,0.030405,-0.031475,0.999993,0.000928,-0.000986,-0.003395,0.007220,0.777219,0.071264,-0.625140,-160.366382,76.598621,26.040112
07982,-10.352197,3.774463,-4.824219,3.000113,-4.348410,0.993669,0.075384,-0.242662,-0.873467,-0.103297,0.038214,-0.048353,0.999990,0.000377,-0.001213,-0.004367,0.004283,0.776156,0.074425,-0.626118,-158.156615,76.548816,28.268499
07983,-9.804792,5.076474,-4.868998,3.346584,-5.673616,0.297725,0.504832,-0.223892,-1.049127,-0.097725,0.051401,-0.048670,0.999982,0.002524,-0.001119,-0.005246,-0.000871,0.775065,0.076914,-0.627182,-155.360337,76.429026,30.847850
07984,-10.645160,6.341842,-4.210221,2.702556,-7.215784,0.765152,0.538728,-0.093271,-1.160086,-0.106061,0.064148,-0.041980,0.999979,0.002694,-0.000466,-0.005800,-0.006559,0.774324,0.079724,-0.627713,-152.509667,76.182209,33.464825
07985,-11.753608,7.136851,-4.592114,2.972210,-8.251242,1.730690,0.023826,-0.081817,-1.333061,-0.117038,0.072155,-0.045961,0.999978,0.000119,-0.000409,-0.006665,-0.010796,0.773521,0.084815,-0.627977,-149.721492,75.853820,36.325008
07986,-12.545766,6.373679,-4.607205,2.792170,-7.758890,2.485548,-0.370604,0.035941,-1.493996,-0.124986,0.064586,-0.046169,0.999970,-0.001853,0.000180,-0.007470,-0.014058,0.773013,0.091757,-0.627561,-147.139800,75.385858,39.210866
07987,-12.696112,4.868515,-5.953771,3.936208,-6.333148,3.022250,-0.451881,0.114345,-1.590476,-0.126603,0.049558,-0.059577,0.999966,-0.002259,0.000572,-0.007952,-0.017347,0.772651,0.099315,-0.626774,-144.701758,74.820456,42.002544
07988,-10.972017,4.827559,-6.388758,4.715216,-6.116747,1.361181,0.290701,0.141810,-1.578394,-0.109379,0.049232,-0.063739,0.999968,0.001453,0.000709,-0.007892,-0.023467,0.772278,0.104488,-0.626194,-142.100575,74.214575,44.530922
07989,-11.046631,6.710618,-5.957262,4.515851,-8.201355,0.905951,0.839791,0.254800,-1.500656,-0.110033,0.068182,-0.059147,0.999962,0.004199,0.001274,-0.007503,-0.031533,0.772167,0.107623,-0.625445,-139.632211,73.558266,46.600326
07990,-10.846992,8.238453,-3.305091,2.112233,-10.056826,-0.281302,1.070910,0.269492,-1.272062,-0.107986,0.083247,-0.032461,0.999965,0.005354,0.001347,-0.006360,-0.039765,0.772149,0.109137,-0.624736,-137.555069,72.959421,48.131069
07991,-9.354164,8.236210,-2.111715,1.195317,-9.936987,-2.091224,0.247131,0.278026,-0.964957,-0.093172,0.082838,-0.020885,0.999987,0.001236,0.001390,-0.004825,-0.043878,0.772434,0.112038,-0.623592,-136.465573,72.465612,49.124812
07992,-7.859360,7.410270,-1.680696,0.960299,-8.881170,-3.511199,-0.180138,0.388985,-0.554118,-0.078420,0.074305,-0.016721,0.999994,-0.000901,0.001945,-0.002771,-0.045095,0.773394,0.114642,-0.621840,-136.347724,72.085311,49.359501
07993,-7.048841,7.417472,-1.979664,1.411657,-8.689969,-4.234537,-0.401171,0.382863,0.015668,-0.070532,0.074129,-0.019810,0.999996,-0.002006,0.001914,0.000078,-0.043707,0.774684,0.115746,-0.620126,-137.063393,71.931527,48.849722
07994,-6.018145,7.826200,-0.905771,0.625168,-8.907966,-5.506323,-0.321937,0.298117,0.682691,-0.060462,0.078041,-0.009093,0.999992,-0.001610,0.001491,0.003413,-0.040477,0.776091,0.114017,-0.618906,-138.512436,72.068318,47.522847
07995,-5.084514,7.351033,1.068959,-1.162679,-8.351821,-6.662038,-0.574947,0.277289,1.441157,-0.051359,0.073172,0.010550,0.999969,-0.002875,0.001386,0.007206,-0.033936,0.777867,0.110148,-0.617770,-141.138997,72.479395,45.112272
07996,-6.065702,5.719056,-0.305578,-0.238673,-6.776467,-4.953393,-1.593159,0.234954,2.232429,-0.061294,0.056482,-0.003436,0.999905,-0.007966,0.001175,0.011162,-0.020926,0.780041,0.106314,-0.616276,-145.653405,73.135023,41.345361
07997,-8.028969,3.817948,-2.436125,1.129087,-4.906750,-2.091433,-1.296380,0.074738,2.882018,-0.080836,0.036858,-0.024573,0.999875,-0.006482,0.000374,0.014409,-0.007020,0.781844,0.099051,-0.615515,-151.241711,73.963015,36.294445
07998,-9.933274,4.508732,-2.170083,0.503501,-5.646623,-0.244069,-0.226139,-0.027564,3.367086,-0.100070,0.043382,-0.021764,0.999858,-0.001131,-0.000138,0.016835,0.004289,0.783345,0.086545,-0.615518,-157.604658,74.811282,29.825863
07999,-11.793523,5.654657,-1.828133,-0.157278,-6.695952,1.568209,-0.582627,-0.046717,3.576868,-0.118916,0.054372,-0.018470,0.999836,-0.002913,-0.000234,0.017883,0.017605,0.784611,0.074318,-0.615267,-165.241357,75.490531,22.272556
08000,-12.159342,3.969870,-2.653306,0.257759,-4.533936,2.435031,-1.034900,-0.048616,3.598640,-0.122273,0.037365,-0.026760,0.999825,-0.005174,-0.000243,0.017992,0.032803,0.785589,0.063337,-0.614624,-173.801514,75.892162,14.054140
08001,-11.865246,2.356945,-2.663395,0.055560,-2.470784,2.324361,-0.979796,-0.009753,3.529759,-0.119041,0.021340,-0.026748,0.999832,-0.004899,-0.000049,0.017648,0.047503,0.786387,0.052476,-0.613666,177.564734,75.963801,5.733948
08002,-11.520749,1.082159,-2.500031,-0.260383,-0.793647,1.995633,-1.095745,0.066146,3.404081,-0.115376,0.008722,-0.025014,0.999840,-0.005478,0.000331,0.017019,0.062285,0.787114,0.042429,-0.612186,169.244362,75.697777,-2.196350
08003,-11.243091,-0.130150,-2.648008,-0.288971,0.829295,1.704751,-1.189894,0.066939,3.279926,-0.112397,-0.003302,-0.026427,0.999848,-0.005949,0.000335,0.016399,0.076991,0.787526,0.033182,-0.610552,161.590613,75.185957,-9.397887
08004,-10.546001,-1.390860,-2.519640,-0.484357,2.401429,0.840386,-1.260405,0.000133,3.234703,-0.105215,-0.015770,-0.025101,0.999849,-0.006302,0.000001,0.016173,0.091870,0.787474,0.024255,-0.608979,154.499453,74.486577,-15.993321
08005,-10.271009,-2.782666,-2.429867,-0.766623,4.079515,0.281859,-1.112135,-0.040741,3.172143,-0.102245,-0.029585,-0.024158,0.999859,-0.005560,-0.000204,0.015860,0.105906,0.787115,0.015134,-0.607458,148.234236,73.634481,-21.844766
08006,-10.461725,-3.953190,-1.727391,-1.715205,5.433918,-0.036223,-0.640188,0.013559,3.090191,-0.103990,-0.041197,-0.017137,0.999876,-0.003201,0.000068,0.015450,0.117847,0.786966,0.004892,-0.605618,143.045632,72.621813,-26.880558
08007,-9.743768,-3.322091,-1.956946,-1.244236,5.049900,-0.715991,-0.264296,-0.015824,2.852563,-0.096949,-0.034632,-0.019532,0.999897,-0.001321,-0.000079,0.014262,0.127521,0.786753,-0.005537,-0.603927,138.940577,71.598966,-31.033693
08008,-9.624250,-2.616999,-0.762665,-2.271153,4.358427,-1.100791,-0.140196,0.058398,2.532265,-0.095903,-0.027391,-0.007580,0.999920,-0.000701,0.000292,0.012661,0.135755,0.786717,-0.015065,-0.602013,135.799830,70.585296,-34.266318
08009,-10.315350,-3.050010,-1.038489,-2.290181,5.170255,-0.603653,-0.659863,0.033671,2.134804,-0.102822,-0.031633,-0.010264,0.999938,-0.003299,0.000168,0.010674,0.144778,0.786163,-0.021448,-0.600439,133.088074,69.697835,-36.746389
08010,-10.072223,-4.500692,-2.253941,-1.308239,6.932456,-1.037027,-0.922196,-0.077144,1.654433,-0.100336,-0.045941,-0.022368,0.999955,-0.004611,-0.000386,0.008272,0.153396,0.785060,-0.025262,-0.599593,130.784186,69.016462,-38.641704
08011,-9.282196,-6.038165,-1.607323,-1.956146,8.208339,-2.464435,-0.697999,-0.093967,1.245526,-0.092436,-0.061014,-0.015905,0.999974,-0.003490,-0.000470,0.006228,0.159862,0.784067,-0.028125,-0.599076,129.099080,68.503370,-40.019489
08012,-9.439030,-6.681954,-2.211459,-1.547000,9.069072,-2.464765,-0.439245,-0.052082,0.894195,-0.094084,-0.067289,-0.021992,0.999988,-0.002196,-0.000260,0.004471,0.164288,0.783433,-0.030376,-0.598597,127.982094,68.116196,-40.949069
08013,-10.784721,-5.966373,-1.698947,-2.306901,8.667399,-1.190144,0.231328,-0.022333,0.555113,-0.107679,-0.059943,-0.017071,0.999995,0.001157,-0.000112,0.002776,0.165047,0.783470,-0.033256,-0.598187,127.607157,67.872235,-41.495385
08014,-11.751471,-4.155555,-0.957371,-3.004888,7.073889,0.046974,0.321956,-0.019155,0.216642,-0.117469,-0.041667,-0.009652,0.999998,0.001610,-0.000096,0.001083,0.164458,0.783650,-0.035098,-0.598009,127.582376,67.776394,-41.719966
08015,-12.074311,-3.004970,-0.315631,-3.529761,5.936363,0.541965,0.005551,-0.078895,-0.129960,-0.120761,-0.029971,-0.003205,1.000000,0.000028,-0.000394,-0.000650,0.164041,0.783443,-0.034665,-0.598420,127.608965,67.862504,-41.693648
08016,-11.342077,-2.470899,-0.299581,-3.255480,5.219946,0.035746,-0.613014,-0.152728,-0.414568,-0.113469,-0.024483,-0.003007,0.999993,-0.003065,-0.000764,-0.002073,0.165197,0.782557,-0.031342,-0.599443,127.442580,68.100790,-41.493017
08017,-10.743116,-3.524095,-0.878945,-2.701702,6.146163,-0.673133,-1.153335,-0.170668,-0.640427,-0.107536,-0.034947,-0.008679,0.999978,-0.005767,-0.000853,-0.003202,0.167768,0.781177,-0.025515,-0.600803,127.144381,68.451488,-41.101646
08018,-9.735719,-5.076077,-1.565805,-2.053483,7.467698,-1.874261,-1.174180,-0.163498,-0.819597,-0.097552,-0.050452,-0.015441,0.999974,-0.005871,-0.000817,-0.004098,0.169885,0.779793,-0.018929,-0.602249,127.004388,68.879935,-40.528555
08019,-8.643821,-5.939800,-2.824315,-0.755667,8.276716,-2.819975,-0.822457,-0.141626,-0.881381,-0.086679,-0.059132,-0.028061,0.999982,-0.004112,-0.000708,-0.004407,0.170429,0.778738,-0.013131,-0.603613,127.161109,69.331272,-39.855372
08020,-8.837052,-5.288604,-2.693594,-0.813954,7.617638,-2.421717,0.347097,-0.128632,-0.898694,-0.088589,-0.052441,-0.027084,0.999988,0.001735,-0.000643,-0.004493,0.166367,0.778703,-0.010790,-0.604836,128.047075,69.782192,-39.121192
08021,-9.266844,-2.400469,-1.316773,-1.658301,4.569437,-1.461653,1.159646,-0.096292,-0.953961,-0.092775,-0.023485,-0.013350,0.999972,0.005798,-0.000481,-0.004770,0.158965,0.779407,-0.010658,-0.605921,129.534611,70.242317,-38.244317
08022,-10.213616,-0.136232,0.304980,-3.007500,2.145951,-0.284919,1.301060,-0.155117,-1.093380,-0.102144,-0.000823,0.002964,0.999964,0.006505,-0.000776,-0.005467,0.150576,0.780010,-0.010459,-0.607291,131.237670,70.775603,-37.227763
08023,-9.449932,1.581655,1.166678,-3.305402,0.053441,-0.744384,0.457296,-0.182645,-1.371684,-0.094399,0.016438,0.011618,0.999973,0.002286,-0.000913,-0.006858,0.144621,0.779852,-0.006631,-0.608992,132.809399,71.429047,-35.842445
08024,-9.790724,2.806056,-4.450664,2.191694,0.072408,1.083706,-1.639869,0.280401,-1.438832,-0.097766,0.028399,-0.044601,0.999940,-0.008199,0.001402,-0.007194,0.146642,0.779527,0.004180,-0.608947,133.933251,71.916889,-33.667970
08025,-14.455209,8.160878,-25.894156,22.301646,1.204982,11.333691,-4.383915,1.174167,-1.516134,-0.145480,0.077020,-0.259811,0.999714,-0.021917,0.005870,-0.007580,0.159052,0.779634,0.024300,-0.605213,134.769469,72.067319,-30.146515
08026,-16.239152,-0.873836,-6.230438,1.355898,4.880501,6.849270,6.269501,0.210023,-0.064576,-0.162459,-0.006731,-0.062366,0.999508,0.031342,0.001050,-0.000323,0.134324,0.784877,0.005740,-0.604890,138.702805,72.002700,-29.787265
08027,-24.386562,6.313014,8.025077,-13.338921,-3.787437,12.695741,9.460622,-0.551176,-0.213609,-0.244026,0.059524,0.082451,0.998877,0.047285,-0.002755,-0.001068,0.096437,0.788677,-0.022396,-0.606784,143.805540,72.324952,-30.120117
08028,0.513204,11.358096,10.692526,-9.282123,-12.495319,-10.955062,1.238607,-0.942024,-1.620471,0.005543,0.112872,0.107651,0.999937,0.006193,-0.004710,-0.008102,0.086531,0.786558,-0.020213,-0.611089,145.969767,73.298802,-28.596945
08029,3.222070,7.511494,2.296439,-0.650905,-8.107670,-12.243121,-4.729311,0.499818,-1.365179,0.032789,0.075406,0.021102,0.999694,-0.023644,0.002499,-0.006825,0.100989,0.785938,-0.000169,-0.610002,145.971494,73.498692,-25.766581
08030,-12.711626,5.473292,-1.071055,-1.515999,-3.675413,3.486982,-3.858732,1.304790,-1.196342,-0.126858,0.055283,-0.010945,0.999775,-0.019292,0.006523,-0.005981,0.112496,0.787800,0.016958,-0.605334,147.054911,73.251476,-22.327440
08031,-16.716349,-1.370891,-2.292828,-2.559172,3.553872,6.539402,-4.719596,0.419579,-1.289168,-0.167297,-0.013161,-0.022262,0.999699,-0.023596,0.002098,-0.006445,0.127121,0.786070,0.036554,-0.603820,146.859267,73.452196,-19.708197
08032,-8.713170,-11.343340,-10.699258,4.963885,14.573654,-0.758623,-5.627812,-0.142010,-0.733735,-0.087480,-0.116064,-0.103813,0.999597,-0.028135,-0.000710,-0.003668,0.147011,0.781618,0.056320,-0.603563,144.657459,73.754429,-18.640936
08033,-5.017764,-20.711367,-15.275828,7.438822,24.620750,-4.717573,1.126587,0.076130,-0.947522,-0.051214,-0.206008,-0.153901,0.999973,0.005633,0.000381,-0.004738,0.139731,0.782390,0.056682,-0.604259,146.941981,74.022988,-16.933913
08034,-8.614367,-3.124337,-5.390418,2.090275,5.046407,-0.692887,6.856189,-0.089568,-0.642780,-0.086215,-0.029094,-0.054965,0.999407,0.034274,-0.000448,-0.003213,0.110915,0.786273,0.038399,-0.606628,151.899341,74.252924,-15.863631
08035,-13.538734,10.345494,-2.074014,0.123872,-8.766150,4.942682,6.901413,0.040482,-0.387601,-0.135189,0.104350,-0.017122,0.999403,0.034500,0.000202,-0.001938,0.082546,0.789681,0.018997,-0.607643,156.599729,74.327940,-15.087514
08036,-9.461398,14.838238,12.156579,-12.210469,-15.820017,-2.190149,1.060828,-0.375119,-0.974178,-0.094121,0.148195,0.122175,0.999972,0.005304,-0.001876,-0.004871,0.075432,0.788876,0.019474,-0.609595,158.783166,74.736898,-13.452111
08037,-8.225236,5.742220,-1.073257,-0.216627,-5.007778,-1.057884,-6.169967,0.603841,-1.182602,-0.081948,0.057545,-0.012259,0.999502,-0.030845,0.003019,-0.005912,0.096072,0.787883,0.043163,-0.606751,158.015578,74.664083,-10.581872
08038,-9.933745,-2.397808,-11.144161,7.389205,5.365234,2.237362,-6.691188,0.106407,-1.599047,-0.099604,-0.026891,-0.110521,0.999408,-0.033449,0.000532,-0.007994,0.117505,0.784188,0.069785,-0.605287,157.387906,74.953954,-7.258687
08039,-4.546990,-12.216579,-12.120199,6.858461,15.263551,-3.747393,-2.618391,0.206728,-0.526932,-0.045918,-0.123618,-0.119543,0.999910,-0.013092,0.001034,-0.002635,0.126101,0.783023,0.079894,-0.603814,157.093332,74.960962,-6.009257
08040,-11.220792,-7.455348,-7.220415,1.792329,9.479995,2.042095,1.855549,0.173859,-0.442700,-0.112435,-0.073631,-0.072792,0.999954,0.009278,0.000869,-0.002213,0.117426,0.784516,0.076139,-0.604110,159.174268,74.960917,-4.954724
08041,-10.249626,-1.913264,-2.282497,-0.993276,2.656103,0.477243,2.873032,0.076965,-0.348611,-0.102538,-0.018624,-0.023055,0.999895,0.014365,0.000385,-0.001743,0.105069,0.786222,0.068871,-0.605039,161.575495,74.985898,-4.171896
08042,-10.546892,0.346522,1.781383,-4.317962,-0.578096,-0.037651,2.188466,0.023897,-0.311059,-0.105461,0.003434,0.017864,0.999939,0.010942,0.000119,-0.001555,0.095507,0.787301,0.063493,-0.605808,163.485175,75.024255,-3.492522
08043,-10.760555,1.444460,3.435548,-5.699437,-2.038772,-0.167032,0.364744,0.058363,-0.486343,-0.107560,0.014643,0.034413,0.999995,0.001824,0.000292,-0.002432,0.092586,0.787496,0.064334,-0.605919,164.730859,75.067830,-2.418486
08044,-10.036618,0.183712,0.641262,-3.148400,-0.247257,-0.262571,-1.337579,0.165701,-0.568937,-0.100355,0.002166,0.006482,0.999973,-0.006688,0.000828,-0.002845,0.096071,0.787184,0.070713,-0.605071,165.241755,75.058978,-1.096001
08045,-9.836079,-1.195569,-1.651026,-1.268331,1.578808,0.026124,-1.177783,0.165600,-0.587433,-0.098409,-0.011763,-0.016359,0.999978,-0.005889,0.000828,-0.002937,0.098876,0.786897,0.076670,-0.604267,165.875613,75.050464,0.259490
08046,-9.069855,-1.164389,-3.804080,0.930682,2.047139,-0.167376,-0.661873,0.174426,-0.537389,-0.090763,-0.011526,-0.037923,0.999991,-0.003309,0.000872,-0.002687,0.099785,0.786891,0.080881,-0.603576,166.709144,75.024915,1.515348
08047,-8.850280,-1.278788,-5.156968,2.206188,2.477539,-0.037640,-0.377556,0.120812,-0.451363,-0.088563,-0.012685,-0.051492,0.999995,-0.001888,0.000604,-0.002257,0.099867,0.786883,0.083861,-0.603166,167.491544,75.014608,2.550202
08048,-8.829734,-1.179976,-5.605631,2.651845,2.460542,0.071282,0.337463,0.087532,-0.371100,-0.088343,-0.011541,-0.056037,0.999997,0.001687,0.000438,-0.001855,0.097378,0.787166,0.084359,-0.603134,168.506114,75.008119,3.400828
08049,-8.925564,0.062757,-4.460921,1.877977,0.902874,-0.054256,1.045408,0.092191,-0.314885,-0.089275,0.001001,-0.044563,0.999985,0.005227,0.000461,-0.001574,0.092281,0.787811,0.082494,-0.603351,169.802211,74.989624,4.123542
08050,-9.143801,1.545316,-3.185302,0.986466,-0.920750,-0.100736,1.091184,0.079770,-0.284767,-0.091428,0.015757,-0.031731,0.999984,0.005456,0.000399,-0.001424,0.087083,0.788435,0.080372,-0.603595,171.061145,74.969742,4.780136
08051,-9.544543,2.673315,-2.052200,0.072798,-2.348389,0.032920,0.649277,0.068969,-0.337110,-0.095407,0.026960,-0.020402,0.999993,0.003246,0.000345,-0.001686,0.083485,0.788788,0.079776,-0.603722,172.164662,74.958260,5.538573
08052,-9.451365,3.193758,-1.348162,-0.448193,-3.058892,-0.232078,-0.023658,0.073822,-0.441676,-0.094448,0.032145,-0.013451,0.999997,-0.000118,0.000369,-0.002208,0.082212,0.788833,0.081632,-0.603590,173.109661,74.946735,6.531672
08053,-9.183422,2.145799,-1.541408,-0.426893,-2.025641,-0.483698,-0.607531,0.124122,-0.511437,-0.091789,0.021646,-0.015423,0.999992,-0.003038,0.000621,-0.002557,0.083020,0.788745,0.085537,-0.603053,173.871261,74.908738,7.681892
08054,-9.628974,0.832063,-2.170538,-0.252423,-0.655366,0.067968,-0.506134,0.095687,-0.525251,-0.096278,0.008519,-0.021681,0.999993,-0.002531,0.000478,-0.002626,0.083389,0.788603,0.089184,-0.602659,174.714425,74.882145,8.856205
08055,-9.541791,0.241229,-2.257112,-0.286410,-0.102330,-0.009330,-0.082452,0.078759,-0.533108,-0.095420,0.002657,-0.022535,0.999996,-0.000412,0.000394,-0.002666,0.082079,0.788567,0.091572,-0.602527,175.805550,74.861859,10.036432
08056,-9.258680,0.073323,-2.149098,-0.350288,-0.003500,-0.314044,0.042479,0.073021,-0.553681,-0.092592,0.000994,-0.021457,0.999996,0.000212,0.000365,-0.002768,0.080208,0.788558,0.093667,-0.602470,177.011920,74.838009,11.261658
08057,-9.119665,-0.178896,-2.301464,-0.229617,0.232898,-0.411100,-0.048738,0.104604,-0.563809,-0.091213,-0.001537,-0.022967,0.999996,-0.000244,0.000523,-0.002819,0.078659,0.788588,0.096083,-0.602254,178.180898,74.791124,12.502858
08058,-9.426513,-0.258263,-2.857231,0.193909,0.374473,0.031681,-0.053405,0.098062,-0.544164,-0.094286,-0.002334,-0.028525,0.999996,-0.000267,0.000490,-0.002721,0.077182,0.788607,0.098438,-0.602039,179.302072,74.739831,13.697228
08059,-9.556131,0.054700,-3.010306,0.383976,0.048496,0.199034,-0.065112,0.104547,-0.558712,-0.095575,0.000804,-0.030053,0.999996,-0.000326,0.000523,-0.002794,0.075712,0.788621,0.100881,-0.601804,-179.565340,74.680120,14.911047
08060,-9.292380,0.439056,-3.322329,0.841374,-0.281993,0.025571,-0.198346,0.116535,-0.600428,-0.092929,0.004637,-0.033174,0.999995,-0.000992,0.000583,-0.003002,0.074627,0.788599,0.103899,-0.601454,-178.428452,74.605303,16.208544
08061,-8.662734,0.626078,-2.688042,0.460268,-0.619006,-0.753697,-0.171105,0.124152,-0.594621,-0.086625,0.006495,-0.026832,0.999995,-0.000856,0.000621,-0.002973,0.073455,0.788598,0.106809,-0.601090,-177.304787,74.520996,17.476962
08062,-8.788875,0.249418,-1.247630,-1.012307,-0.665234,-1.015210,-0.237933,0.197936,-0.556443,-0.087894,0.002724,-0.012392,0.999995,-0.001190,0.000990,-0.002782,0.072614,0.788814,0.109800,-0.600370,-176.317752,74.387917,18.643675
08063,-9.962210,-0.240386,-1.221430,-1.468698,-0.352374,0.112724,-0.421460,0.197034,-0.583898,-0.099641,-0.002139,-0.012111,0.999993,-0.002107,0.000985,-0.002919,0.072422,0.788929,0.113443,-0.599564,-175.401334,74.250629,19.847328
08064,-9.642162,-1.016260,-0.750435,-2.036331,0.249175,-0.306994,-0.288895,0.156306,-0.597820,-0.096457,-0.009885,-0.007415,0.999994,-0.001444,0.000782,-0.002989,0.071679,0.788958,0.116733,-0.598983,-174.388823,74.128965,21.072401
08065,-9.871201,-2.133894,-1.424576,-1.780136,1.414596,0.129810,-0.413191,0.184430,-0.581265,-0.098787,-0.021081,-0.014111,0.999993,-0.002066,0.000922,-0.002906,0.071467,0.789020,0.120333,-0.598214,-173.506859,73.988242,22.236847
08066,-10.038396,-3.951678,-2.619559,-1.239014,3.395162,0.684199,-0.649370,0.126952,-0.580211,-0.100515,-0.039310,-0.026004,0.999990,-0.003247,0.000635,-0.002901,0.072214,0.788819,0.124619,-0.597512,-172.761684,73.874440,23.400197
08067,-8.967496,-5.219797,-4.774191,0.654181,5.243524,0.313141,0.045443,0.050048,-0.522634,-0.089823,-0.051953,-0.047731,0.999997,0.000227,0.000250,-0.002613,0.070449,0.788659,0.126567,-0.597524,-171.726860,73.805100,24.451483
08068,-8.824443,-4.005332,-5.554647,1.805606,4.217370,0.371576,1.806933,0.074156,-0.408921,-0.088346,-0.039369,-0.055871,0.999957,0.009035,0.000371,-0.002045,0.062047,0.789232,0.122814,-0.598481,-169.917752,73.723772,25.258002
08069,-9.054938,-1.174764,-3.668113,0.827494,0.881440,-0.047254,2.944446,0.111285,-0.338333,-0.090589,-0.011053,-0.036797,0.999890,0.014722,0.000556,-0.001692,0.049348,0.790186,0.115364,-0.599885,-167.625899,73.622989,25.889226
08070,-9.076610,1.268650,-1.916005,-0.212999,-1.974160,-0.662712,2.697733,0.111414,-0.289063,-0.090758,0.013074,-0.018935,0.999908,0.013488,0.000557,-0.001445,0.037747,0.790955,0.108445,-0.601003,-165.580846,73.520266,26.410362
08071,-9.960001,1.414097,-0.605373,-1.661868,-2.543369,-0.203474,1.165506,0.136509,-0.390556,-0.099576,0.014370,-0.005902,0.999981,0.005827,0.000683,-0.001953,0.031897,0.791361,0.106515,-0.601153,-164.256312,73.386042,27.096484
08072,-10.316280,-0.912115,-2.341838,-0.603471,-0.060442,0.787962,-0.026243,0.099377,-0.461168,-0.103195,-0.008886,-0.023366,0.999997,-0.000131,0.000497,-0.002306,0.030556,0.791415,0.108447,-0.600805,-163.474776,73.255856,27.928625
08073,-10.227605,-3.188983,-4.198388,0.698325,2.455836,1.406983,-0.137054,-0.017687,-0.478454,-0.102348,-0.031674,-0.041971,0.999997,-0.000685,-0.000088,-0.002392,0.029678,0.791082,0.110753,-0.600868,-162.675760,73.185276,28.846195
08074,-9.850638,-5.264632,-5.721687,1.814711,4.747755,1.661380,0.479478,-0.053679,-0.445894,-0.098608,-0.052289,-0.057369,0.999995,0.002397,-0.000268,-0.002229,0.026466,0.790749,0.111081,-0.601396,-161.564258,73.133967,29.721031
08075,-9.173610,-4.922844,-7.055080,3.401152,4.637897,1.371337,1.844384,-0.153242,-0.438486,-0.091788,-0.048373,-0.071070,0.999955,0.009222,-0.000766,-0.002192,0.017946,0.790255,0.107248,-0.603052,-159.631806,73.132870,30.637094
08076,-8.693429,-2.169251,-6.142371,3.301555,1.703534,0.395328,2.853849,-0.169711,-0.410307,-0.086925,-0.020634,-0.061797,0.999896,0.014269,-0.000849,-0.002051,0.005513,0.789706,0.100254,-0.605213,-157.154716,73.134075,31.517372
08077,-8.794241,0.222756,-5.796122,3.416787,-0.899504,0.111835,3.015539,-0.162073,-0.388814,-0.087890,0.003273,-0.057988,0.999884,0.015077,-0.000810,-0.001944,-0.007482,0.789016,0.092652,-0.607300,-154.633510,73.127427,32.347480
08078,-9.146353,1.614440,-5.127854,2.902568,-2.576885,0.060975,2.626633,-0.218594,-0.450154,-0.091370,0.017023,-0.051159,0.999911,0.013133,-0.001093,-0.002251,-0.019118,0.787985,0.086469,-0.609292,-152.181472,73.121022,33.337731
08079,-9.458425,2.374950,-4.644452,2.448729,-3.577444,0.080560,2.343641,-0.313802,-0.596583,-0.094439,0.024575,-0.046308,0.999926,0.011718,-0.001569,-0.002983,-0.030025,0.786492,0.081707,-0.611435,-149.568865,73.111326,34.665726
08080,-9.424533,4.164028,-4.611871,2.564427,-5.509886,-0.299998,2.722398,-0.373325,-0.750169,-0.094001,0.042617,-0.045719,0.999899,0.013612,-0.001867,-0.003751,-0.042874,0.784568,0.076397,-0.613823,-146.437541,73.061999,36.308982
08081,-9.746275,7.832221,-3.352539,1.408772,-9.394501,-1.019243,3.160546,-0.494826,-0.917566,-0.097019,0.079287,-0.032518,0.999862,0.015802,-0.002474,-0.004588,-0.057886,0.781916,0.070396,-0.616685,-142.687365,72.987817,38.337611
08082,-11.836670,12.368044,-3.937062,1.551290,-14.412860,0.108544,1.586894,-0.554965,-1.269322,-0.117469,0.124737,-0.038710,0.999945,0.007934,-0.002775,-0.006346,-0.067806,0.779269,0.070634,-0.618994,-139.296596,72.774476,40.935165
08083,-11.746830,10.798690,-3.973589,1.577580,-13.021429,0.103753,0.237033,-0.684651,-1.618357,-0.116452,0.108979,-0.040007,0.999961,0.001185,-0.003423,-0.008092,-0.073486,0.776471,0.076439,-0.621168,-136.130346,72.440378,44.111717
08084,-10.030045,8.748797,-5.032713,3.049285,-10.817013,-1.085766,-0.241736,-0.762051,-1.808428,-0.099311,0.088328,-0.050813,0.999951,-0.001209,-0.003810,-0.009042,-0.077860,0.773479,0.084491,-0.623321,-133.037559,72.007132,47.506418
08085,-9.990397,7.022196,-2.791419,0.923298,-9.234947,-1.400260,0.128141,-0.576338,-1.989696,-0.099118,0.071229,-0.028155,0.999946,0.000641,-0.002882,-0.009948,-0.084302,0.770754,0.092010,-0.624792,-129.936621,71.371428,50.696286
08086,-12.509958,9.366035,-1.777312,-0.376750,-12.295333,-0.012032,-0.367767,-0.494830,-2.183194,-0.124023,0.094985,-0.018255,0.999936,-0.001839,-0.002474,-0.010916,-0.089454,0.768327,0.101774,-0.625551,-127.252317,70.569721,53.760423
08087,-14.353394,8.777912,-2.997493,0.622640,-12.449539,1.877642,-1.794973,-0.180424,-2.439150,-0.142424,0.089246,-0.030900,0.999885,-0.008975,-0.000902,-0.012195,-0.090079,0.767239,0.116830,-0.624164,-125.765001,69.507487,56.437890
08088,-14.163115,4.441072,-5.239300,2.750357,-8.431974,3.191095,-2.754829,0.177838,-2.648577,-0.141080,0.045555,-0.052890,0.999817,-0.013773,0.000889,-0.013242,-0.087837,0.767366,0.135478,-0.620549,-125.288562,68.213786,58.643247
08089,-13.177085,0.093433,-7.464041,4.734959,-4.070475,3.984649,-3.336186,0.325620,-2.693386,-0.131875,0.001467,-0.074447,0.999769,-0.016680,0.001628,-0.013466,-0.083588,0.767843,0.155991,-0.615709,-125.411511,66.846867,60.579734
08090,-10.604108,-3.097285,-10.540774,7.706320,-0.092111,3.368743,-2.258094,0.387146,-2.478608,-0.106627,-0.030840,-0.104853,0.999858,-0.011290,0.001936,-0.012392,-0.082807,0.767956,0.172263,-0.611320,-125.264521,65.561312,62.157138
08091,-9.851499,-4.509515,-11.244063,8.246761,1.327930,3.379454,1.405703,0.699543,-1.823263,-0.099309,-0.043402,-0.112403,0.999928,0.007028,0.003498,-0.009116,-0.094367,0.767890,0.174668,-0.609041,-123.896933,64.473563,62.778352
08092,-12.415170,-0.277147,-8.002167,5.251386,-4.202405,3.339843,4.506047,0.694718,-1.127714,-0.124435,-0.000273,-0.079615,0.999724,0.022528,0.003473,-0.005638,-0.115649,0.766708,0.164893,-0.609585,-121.301100,63.715821,62.797230
08093,-13.138726,4.697145,-4.777492,2.379124,-9.549287,1.171122,5.502009,0.449278,-0.900430,-0.131275,0.048847,-0.046153,0.999609,0.027506,0.002246,-0.004502,-0.139801,0.763859,0.151256,-0.611635,-118.086855,63.140097,62.867403
08094,-11.708646,7.627775,1.338416,-3.424521,-11.641453,-2.755368,4.088923,0.279276,-0.642791,-0.116821,0.076356,0.015108,0.999785,0.020443,0.001396,-0.003214,-0.157527,0.761234,0.140968,-0.613055,-115.710492,62.740781,62.908862
08095,-10.530022,7.917308,1.370953,-3.453797,-11.407173,-4.034349,1.656380,0.535207,-0.447141,-0.105085,0.079289,0.014647,0.999960,0.008282,0.002676,-0.002236,-0.165566,0.761229,0.137169,-0.611803,-115.085367,62.377750,62.544970
08096,-10.632564,5.419208,-0.548589,-1.756882,-9.340835,-2.575194,0.855433,0.599994,-0.124668,-0.106307,0.054280,-0.004935,0.999986,0.004277,0.003000,-0.000623,-0.169569,0.762290,0.134511,-0.609974,-115.143231,62.169833,61.929894
08097,-10.276564,5.058904,1.191351,-3.481112,-8.685208,-3.099449,0.938171,0.570681,0.244831,-0.102792,0.050406,0.012444,0.999984,0.004691,0.002853,0.001224,-0.172772,0.763392,0.130234,-0.608623,-115.281114,62.157390,61.167184
08098,-10.071987,4.851491,2.393232,-4.687188,-8.237923,-3.419277,0.021834,0.597052,0.595588,-0.100792,0.048212,0.024238,0.999991,0.000109,0.002985,0.002978,-0.171381,0.765600,0.127355,-0.606849,-116.149400,62.319859,60.175987
08099,-9.954766,2.546446,1.485326,-3.799650,-6.130020,-2.344571,-0.817037,0.631789,0.928371,-0.099617,0.025063,0.015065,0.999976,-0.004085,0.003159,0.004642,-0.165828,0.768795,0.125739,-0.604686,-117.701138,62.630120,58.955171
08100,-9.774170,0.474544,0.574328,-2.903035,-4.166759,-1.428264,-1.134572,0.558374,1.287420,-0.097753,0.004150,0.005992,0.999959,-0.005673,0.002792,0.006437,-0.157864,0.772229,0.123726,-0.602854,-119.604454,63.128072,57.551298
08101,-9.541713,-0.784984,-0.270051,-2.074195,-2.862707,-0.911363,-0.996225,0.411806,1.700371,-0.095351,-0.008673,-0.002462,0.999949,-0.004981,0.002059,0.008502,-0.149132,0.775273,0.119836,-0.601955,-121.578425,63.846571,55.984358
08102,-9.305204,-1.265430,-0.672005,-1.665980,-2.185920,-0.808103,-0.430061,0.316536,2.106624,-0.092922,-0.013648,-0.006544,0.999941,-0.002150,0.001583,0.010533,-0.141249,0.777788,0.112693,-0.601992,-123.508004,64.770685,54.120709
08103,-9.226225,-1.196669,-0.263845,-2.063466,-1.977769,-0.955431,0.012828,0.250298,2.462026,-0.092109,-0.013101,-0.002524,0.999923,0.000064,0.001251,0.012310,-0.134012,0.779864,0.102898,-0.602714,-125.498267,65.851971,51.923329
08104,-8.902613,-0.752271,0.241451,-2.483706,-2.015243,-1.467294,0.084905,0.183723,2.773169,-0.088908,-0.008757,0.002493,0.999903,0.000425,0.000919,0.013865,-0.126011,0.781736,0.091666,-0.603828,-127.839310,67.067698,49.320833
08105,-8.573314,-0.988155,0.533916,-2.687743,-1.416206,-1.717767,-0.116652,0.182747,3.079579,-0.085563,-0.011197,0.005424,0.999881,-0.000583,0.000914,0.015397,-0.116319,0.783683,0.079859,-0.604924,-130.836013,68.366269,46.155878
08106,-9.149622,-1.263169,-0.350712,-1.980051,-1.093231,-0.851091,-0.373450,0.172115,3.377677,-0.091268,-0.014181,-0.003403,0.999855,-0.001867,0.000861,0.016888,-0.104634,0.785676,0.067611,-0.605965,-134.691389,69.724212,42.260755
08107,-9.915499,-1.397663,-0.853655,-1.686374,-0.844737,0.058012,-0.379109,0.102007,3.621751,-0.098884,-0.015785,-0.008457,0.999834,-0.001895,0.000510,0.018108,-0.092182,0.787281,0.054472,-0.607226,-139.288471,71.097771,37.613482
08108,-10.380709,-1.338369,-0.776896,-1.871290,-0.604510,0.496206,-0.388327,0.046888,3.811909,-0.103529,-0.015374,-0.007716,0.999816,-0.001942,0.000234,0.019058,-0.079019,0.788514,0.040583,-0.608568,-144.814039,72.423586,32.034173
08109,-10.572253,-1.321335,-0.869695,-1.811457,-0.245954,0.719067,-0.580631,-0.041360,3.949582,-0.105432,-0.015323,-0.008676,0.999801,-0.002903,-0.000207,0.019747,-0.064681,0.789265,0.026791,-0.610048,-151.409344,73.640699,25.488543
08110,-10.399877,-1.216882,-0.357224,-2.240653,0.134168,0.420206,-0.625215,-0.064439,4.061423,-0.103722,-0.014288,-0.003563,0.999789,-0.003126,-0.000322,0.020306,-0.049746,0.789663,0.012654,-0.611390,-159.192035,74.649666,17.774917
08111,-10.948999,-0.712269,-0.697215,-2.045452,0.010833,0.988802,-1.072005,-0.036342,4.150682,-0.109309,-0.009430,-0.006946,0.999770,-0.005360,-0.000182,0.020752,-0.032805,0.789903,-0.000446,-0.612354,-168.312599,75.336550,8.970617
08112,-11.663289,-0.180213,-1.513399,-1.431604,-0.107040,1.860919,-1.418184,-0.067014,4.132604,-0.116556,-0.004319,-0.015148,0.999761,-0.007090,-0.000335,0.020661,-0.014488,0.789743,-0.012446,-0.613141,-178.237896,75.651757,-0.437652
08113,-12.535868,-0.106293,-0.809093,-2.309194,0.358932,2.529524,-1.615346,-0.017751,4.045072,-0.125301,-0.003663,-0.008079,0.999763,-0.008076,-0.000089,0.020224,0.004300,0.789369,-0.023458,-0.613455,171.815359,75.531142,-9.749442
08114,-13.510308,-1.151068,-1.782997,-1.561473,1.969076,3.629386,-2.629648,-0.051255,3.899515,-0.134837,-0.014375,-0.017688,0.999723,-0.013147,-0.000256,0.019496,0.026688,0.788487,-0.030809,-0.613700,161.959683,75.048269,-18.377133
08115,-13.156902,-2.955281,-3.660947,0.363459,4.324170,3.468060,-3.347635,-0.316062,3.632429,-0.130938,-0.032544,-0.036289,0.999694,-0.016736,-0.001580,0.018160,0.050980,0.786272,-0.034886,-0.614785,152.744214,74.412088,-25.939507
08116,-11.731679,-5.871451,-3.696425,0.659720,7.589777,1.487784,-3.291648,-0.445944,3.485296,-0.116182,-0.061346,-0.036229,0.999710,-0.016457,-0.002230,0.017425,0.074593,0.783230,-0.038603,-0.616033,144.427775,73.583333,-32.625516
08117,-10.961923,-10.002658,-8.167207,4.908309,12.362923,0.672409,-3.067437,-0.387015,3.392860,-0.107731,-0.103104,-0.080316,0.999737,-0.015336,-0.001935,0.016963,0.096967,0.780035,-0.042571,-0.616709,137.260546,72.526060,-38.278951
08118,-8.899808,-11.529876,-7.768692,4.909402,13.788244,-2.179982,0.261019,-0.583625,3.236049,-0.086891,-0.116614,-0.078094,0.999864,0.001305,-0.002918,0.016180,0.105836,0.777571,-0.056299,-0.617262,132.641510,71.444052,-43.290573
08119,-8.557958,-6.365747,-2.730665,0.489352,8.394321,-2.706004,1.955798,-0.286906,3.057417,-0.084556,-0.064683,-0.028058,0.999834,0.009778,-0.001434,0.015286,0.107577,0.776733,-0.074359,-0.616104,130.074624,70.236658,-47.192979
08120,-9.140536,-4.440463,-2.051049,-0.148827,6.806561,-1.994954,0.909480,0.010237,2.674650,-0.090803,-0.045528,-0.020711,0.999900,0.004547,0.000051,0.013373,0.112314,0.776188,-0.087555,-0.614209,128.001989,69.037579,-49.957612
08121,-8.961704,-4.495516,-3.443352,1.297850,7.070430,-2.021691,0.466872,0.057837,2.176640,-0.089131,-0.045846,-0.034514,0.999938,0.002334,0.000289,0.010883,0.117213,0.775628,-0.097393,-0.612516,126.418695,68.023694,-51.945271
08122,-9.230987,-4.272377,-2.531731,0.385865,7.013077,-2.031975,0.733215,0.103523,1.813850,-0.091931,-0.043466,-0.025428,0.999952,0.003666,0.000518,0.009069,0.120001,0.775461,-0.106623,-0.610648,125.473582,67.143168,-53.420496
08123,-9.742739,-3.860525,-1.817618,-0.400463,6.856309,-1.691278,0.393248,0.018209,1.427899,-0.097150,-0.039264,-0.018244,0.999973,0.001966,0.000091,0.007139,0.122850,0.774972,-0.113342,-0.609492,124.622209,66.466915,-54.590796
08124,-9.591606,-3.603314,-1.562430,-0.598493,6.645120,-1.881278,0.060066,-0.024793,1.021409,-0.095728,-0.036518,-0.015647,0.999987,0.000300,-0.000124,0.005107,0.125741,0.774351,-0.117508,-0.608902,123.881074,65.987466,-55.436937
08125,-9.224556,-3.083713,-1.484704,-0.596467,6.095065,-2.112031,-0.156687,0.015867,0.658523,-0.092145,-0.031152,-0.014815,0.999994,-0.000783,0.000079,0.003293,0.128369,0.773911,-0.119566,-0.608512,123.342654,65.667764,-55.927643
08126,-9.267927,-2.983261,-2.330356,0.201559,6.107430,-1.882789,-0.699654,0.063456,0.346892,-0.092635,-0.030075,-0.023169,0.999992,-0.003498,0.000317,0.001734,0.132190,0.773449,-0.118746,-0.608442,122.769988,65.478249,-56.115202
08127,-9.158440,-4.237955,-3.353813,1.212956,7.346236,-2.220161,-1.159415,0.068734,0.066402,-0.091582,-0.042603,-0.033260,0.999983,-0.005797,0.000344,0.000332,0.136923,0.772841,-0.115424,-0.608808,122.133589,65.424577,-56.083474
08128,-8.471093,-5.439869,-4.771426,2.709348,8.367598,-2.974524,-0.892956,0.097066,-0.165471,-0.084779,-0.054541,-0.047430,0.999990,-0.004465,0.000485,-0.000827,0.139941,0.772620,-0.112004,-0.609040,121.836052,65.472990,-55.847206
08129,-8.055335,-5.220389,-5.341628,3.319489,8.074191,-3.144688,-0.087736,0.166933,-0.255434,-0.080664,-0.052124,-0.053326,0.999999,-0.000439,0.000835,-0.001277,0.139603,0.773211,-0.110628,-0.608620,122.133904,65.546028,-55.463610
08130,-7.918352,-4.161252,-4.131472,2.158112,6.919529,-3.138266,0.327299,0.216228,-0.286058,-0.079288,-0.041432,-0.041297,0.999997,0.001636,0.001081,-0.001430,0.137597,0.774264,-0.110368,-0.607784,122.747964,65.615872,-54.994625
08131,-7.769864,-4.343070,-4.429471,2.471913,7.038012,-3.239321,0.317821,0.292133,-0.243136,-0.077816,-0.043266,-0.044250,0.999997,0.001589,0.001461,-0.001216,0.135797,0.775503,-0.110187,-0.606641,123.407318,65.640809,-54.469624
08132,-7.698147,-4.442539,-3.876341,1.949546,7.032759,-3.428103,0.959701,0.356610,-0.196347,-0.077094,-0.044163,-0.038838,0.999986,0.004798,0.001783,-0.000982,0.131680,0.777347,-0.112090,-0.604837,124.474003,65.618461,-53.901987
08133,-7.814405,-2.570496,-2.854579,0.907128,5.195994,-2.884524,1.656073,0.456700,-0.147714,-0.078228,-0.025411,-0.028578,0.999963,0.008280,0.002283,-0.000739,0.125056,0.779874,-0.116215,-0.602206,126.000845,65.536159,-53.266151
08134,-9.171907,-0.240785,-2.488349,0.121154,3.376244,-0.926774,2.418470,0.531136,-0.100136,-0.091786,-0.002063,-0.024666,0.999923,0.012092,0.002656,-0.000501,0.115624,0.782997,-0.122760,-0.598729,127.999627,65.397601,-52.592180
08135,-12.221540,3.442948,-0.161978,-3.201609,0.780693,2.450424,3.333360,0.448553,-0.234257,-0.122177,0.034590,-0.000770,0.999858,0.016666,0.002243,-0.001171,0.102140,0.786301,-0.131540,-0.594975,130.528433,65.338389,-51.910237
08136,-12.597784,8.158214,6.181438,-9.958433,-3.602359,2.488558,1.934580,0.060192,-0.883786,-0.125599,0.081534,0.062641,0.999943,0.009673,0.000301,-0.004419,0.091938,0.788018,-0.133775,-0.593868,132.434989,65.693863,-51.033227
08137,-11.275485,7.924937,5.800477,-9.227169,-3.967886,1.263993,-1.953823,0.162469,-1.431464,-0.112134,0.080616,0.057313,0.999926,-0.009769,0.000812,-0.007157,0.095496,0.788504,-0.122245,-0.595146,132.713109,66.234404,-49.501918
08138,-12.192718,4.750922,-0.696024,-2.825571,-0.887702,2.952138,-3.464260,0.200575,-1.810126,-0.121499,0.048481,-0.007672,0.999809,-0.017320,0.001003,-0.009050,0.103875,0.788409,-0.104676,-0.597213,132.547198,66.918895,-47.519055
08139,-20.954437,17.139222,-21.269762,14.552679,-9.091253,20.032275,-5.549083,1.503455,-1.677886,-0.209744,0.167192,-0.215799,0.999552,-0.027741,0.007516,-0.008388,0.121485,0.790542,-0.080663,-0.594792,132.391025,67.045951,-44.233271
08140,-22.023371,2.616984,0.990158,-7.034538,3.352937,10.975054,2.905214,-0.580246,-0.499491,-0.220196,0.026578,0.009647,0.999887,0.014526,-0.002901,-0.002497,0.108275,0.790704,-0.087669,-0.596136,133.946819,67.480455,-44.350651
08141,-23.157200,12.871527,17.277834,-23.501968,-6.730382,10.252501,7.594992,-0.280011,-0.193101,-0.231698,0.122265,0.177179,0.999278,0.037966,-0.001400,-0.000965,0.077487,0.793496,-0.109623,-0.593585,138.221576,67.672208,-44.432753
08142,0.852945,2.496926,8.586099,-8.147569,-2.807607,-12.341884,-5.836062,-0.308556,-2.729464,0.008760,0.027342,0.085100,0.999480,-0.029175,-0.001543,-0.013645,0.092338,0.791405,-0.081537,-0.598752,137.487554,68.852162,-41.622081
08143,1.440285,-2.345583,-1.082110,1.383994,2.037504,-11.448702,-7.406195,0.329669,-2.330336,0.014108,-0.024001,-0.009962,0.999245,-0.037022,0.001648,-0.011649,0.114735,0.789327,-0.049933,-0.601087,136.152850,69.627660,-38.510307
08144,-11.527069,-5.746452,-6.221566,2.293840,8.915860,1.134072,-4.725515,0.918886,-0.506942,-0.115698,-0.058612,-0.060309,0.999707,-0.023625,0.004594,-0.002534,0.132065,0.789273,-0.033186,-0.598754,134.987815,69.454616,-36.862795
08145,-13.765384,-11.115767,-14.704174,8.818125,16.168607,3.973674,-2.202584,0.298161,-0.900801,-0.138375,-0.112144,-0.145604,0.999928,-0.011013,0.001491,-0.004504,0.138108,0.788805,-0.022834,-0.598491,135.030171,69.698202,-35.469933
08146,-5.847467,-16.800679,-12.249628,7.854669,19.620070,-5.355906,0.579675,-0.003646,-0.751603,-0.059102,-0.167429,-0.122983,0.999989,0.002898,-0.000018,-0.003758,0.133571,0.789276,-0.021597,-0.598946,136.199730,70.000804,-34.577298
08147,-8.699989,-4.392568,-7.163080,3.933050,7.069348,-0.822038,4.737944,-0.099592,-0.784782,-0.087131,-0.041870,-0.072682,0.999712,0.023687,-0.000498,-0.003924,0.112483,0.792001,-0.032743,-0.599175,139.734306,70.343711,-33.704690
08148,-8.788268,11.617217,-8.776350,6.561553,-8.793398,3.178038,6.447807,0.145719,-0.642563,-0.087565,0.119200,-0.083889,0.999475,0.032233,0.000728,-0.003212,0.084984,0.795760,-0.049398,-0.597581,144.396412,70.504233,-32.677508
08149,-9.922516,17.033059,12.969915,-15.064324,-15.778607,-0.819787,2.967491,-0.103861,-0.748658,-0.098660,0.168752,0.132160,0.999883,0.014837,-0.000519,-0.003743,0.070913,0.796805,-0.055320,-0.597506,147.009725,70.794553,-31.708766
08150,-10.552950,7.637721,3.368836,-5.995513,-5.997667,0.632717,-6.155067,0.464123,-1.042727,-0.105051,0.077919,0.031550,0.999510,-0.030770,0.002320,-0.005213,0.092410,0.795912,-0.032580,-0.597430,145.341614,70.905870,-29.740843
08151,-13.145177,-2.470451,-9.369580,4.963408,5.778171,4.631859,-7.172315,0.211310,-1.738020,-0.131777,-0.026895,-0.092618,0.999319,-0.035853,0.001056,-0.008688,0.115734,0.792973,-0.004121,-0.598149,143.813065,71.383871,-27.012562
08152,-3.749191,-11.716555,-14.337811,10.845617,14.623333,-4.770380,-2.190902,-0.076377,-1.187788,-0.038139,-0.118502,-0.142099,0.999922,-0.010954,-0.000382,-0.005939,0.120858,0.791444,0.007107,-0.599132,144.138460,71.819173,-25.346148
08153,-7.449316,-4.513234,-6.973214,3.883877,6.650286,-1.740010,3.431711,0.059773,-0.513266,-0.074628,-0.043736,-0.070468,0.999849,0.017158,0.000299,-0.002566,0.105728,0.793562,-0.001103,-0.599233,146.904637,71.956871,-24.503486
08154,-9.831453,0.964203,-3.436579,0.601427,0.808504,0.597855,3.750546,0.186115,-0.340403,-0.098329,0.010450,-0.034083,0.999822,0.018752,0.000931,-0.001702,0.089802,0.795972,-0.010876,-0.598536,149.742606,71.967864,-23.778688
08155,-10.810701,3.036638,1.804900,-4.530797,-1.889744,0.446483,1.926331,-0.107843,-0.579458,-0.108029,0.030504,0.018284,0.999949,0.009631,-0.000539,-0.002897,0.080398,0.796508,-0.014378,-0.599087,151.647273,72.183694,-22.935864
08156,-9.788399,4.710686,2.645574,-4.935127,-3.817573,-0.535170,-0.160773,0.088857,-0.802380,-0.097682,0.047520,0.026461,0.999992,-0.000804,0.000444,-0.004012,0.078633,0.796769,-0.010651,-0.599052,152.908941,72.351897,-21.514376
08157,-9.596759,2.606449,0.072725,-2.554865,-1.552916,-0.328113,-1.806681,0.188801,-0.802972,-0.095861,0.026455,0.000580,0.999951,-0.009033,0.000944,-0.004015,0.083439,0.796629,-0.001962,-0.598678,153.321557,72.462902,-19.994566
08158,-9.820548,-0.095595,-2.381850,-0.525829,1.400990,0.181618,-2.280324,0.175540,-0.857700,-0.098230,-0.000806,-0.023723,0.999925,-0.011401,0.000878,-0.004288,0.089944,0.796159,0.008367,-0.598307,153.560086,72.592223,-18.374439
08159,-8.940864,-1.881936,-3.934974,0.953898,3.298106,-0.475817,-2.007646,0.049385,-0.807840,-0.089494,-0.018852,-0.039139,0.999941,-0.010038,0.000247,-0.004039,0.095520,0.795325,0.017614,-0.598351,153.779777,72.771608,-16.938389
08160,-8.576766,-2.707712,-5.297174,2.189784,4.306698,-0.560135,-0.864956,0.116654,-0.634703,-0.085884,-0.027033,-0.052805,0.999985,-0.004325,0.000583,-0.003174,0.097042,0.795200,0.022796,-0.598097,154.443418,72.869761,-15.724768
08161,-8.986054,-1.431212,-5.059236,2.028496,2.999478,-0.051480,0.680143,0.109632,-0.522350,-0.089925,-0.013905,-0.050591,0.999991,0.003401,0.000548,-0.002612,0.092769,0.795793,0.022896,-0.597982,155.801095,72.938117,-14.711031
08162,-8.797524,1.013250,-3.581057,1.039288,0.241240,-0.320161,1.489399,0.130793,-0.403745,-0.087978,0.010576,-0.035675,0.999970,0.007447,0.000654,-0.002019,0.085609,0.796813,0.020125,-0.597792,157.451657,72.960404,-13.877049
08163,-9.161666,2.863972,-1.907268,-0.424961,-1.901314,-0.222060,1.075907,0.103633,-0.399434,-0.091569,0.028925,-0.018870,0.999983,0.005380,0.000518,-0.001997,0.080124,0.797532,0.018549,-0.597644,158.833155,72.989933,-13.075934
08164,-9.469154,2.617243,-1.440487,-0.997889,-1.762771,-0.092270,-0.337352,0.118944,-0.537523,-0.094629,0.026403,-0.014393,0.999995,-0.001687,0.000595,-0.002688,0.079842,0.797706,0.021763,-0.597341,159.669166,73.034487,-11.999507
08165,-9.132638,0.866656,-3.388670,0.725439,0.209469,-0.062349,-0.975900,0.090013,-0.573148,-0.091317,0.008763,-0.033888,0.999984,-0.004879,0.000450,-0.002866,0.082019,0.797512,0.027003,-0.597091,160.180339,73.098202,-10.879670
08166,-8.861418,-0.122879,-4.059063,1.298078,1.255852,-0.233878,-0.482028,0.077180,-0.506927,-0.088633,-0.001102,-0.040554,0.999994,-0.002410,0.000386,-0.002535,0.082409,0.797480,0.030510,-0.596912,160.862640,73.152448,-9.877853
08167,-9.473492,0.121460,-3.140695,0.283838,0.855466,0.127796,0.027423,0.136787,-0.466225,-0.094753,0.001440,-0.031342,0.999997,0.000137,0.000684,-0.002331,0.080894,0.797828,0.032348,-0.596557,161.796296,73.163144,-8.917767
08168,-9.600144,0.839391,-2.457918,-0.296599,-0.006051,0.128165,-0.127110,0.100232,-0.485705,-0.095993,0.008611,-0.024537,0.999997,-0.000636,0.000501,-0.002429,0.079927,0.798002,0.034720,-0.596321,162.665424,73.192327,-7.933522
08169,-9.161685,0.786263,-2.260114,-0.367091,-0.045957,-0.350880,-0.333985,0.105585,-0.493786,-0.091609,0.008051,-0.022566,0.999995,-0.001670,0.000528,-0.002469,0.079776,0.798097,0.037732,-0.596032,163.428130,73.216388,-6.935939
08170,-9.198697,0.524376,-2.381681,-0.304997,0.196211,-0.303125,-0.256037,0.104301,-0.456153,-0.091987,0.005423,-0.023776,0.999996,-0.001280,0.000522,-0.002281,0.079410,0.798224,0.040372,-0.595737,164.176543,73.230803,-6.000845
08171,-9.601786,0.081792,-1.965089,-0.887898,0.532892,-0.066402,-0.233090,0.111399,-0.449402,-0.096027,0.001011,-0.019599,0.999997,-0.001165,0.000557,-0.002247,0.078986,0.798372,0.042908,-0.595417,164.922199,73.237311,-5.081600
08172,-9.542753,-0.350082,-3.100903,0.124207,1.119296,0.163982,-0.410671,0.128429,-0.493010,-0.095456,-0.003329,-0.030941,0.999995,-0.002053,0.000642,-0.002465,0.079121,0.798490,0.046165,-0.594998,165.663222,73.236738,-4.061759
08173,-9.209762,-0.889410,-3.079291,0.102438,1.601006,-0.194011,-0.142393,0.087507,-0.469153,-0.092132,-0.008700,-0.030746,0.999997,-0.000712,0.000438,-0.002346,0.078280,0.798586,0.048500,-0.594795,166.487229,73.252193,-3.115011
08174,-9.428841,-0.358849,-2.760485,-0.173619,0.980889,-0.032114,0.238608,0.100774,-0.420790,-0.094310,-0.003357,-0.027561,0.999997,0.001193,0.000504,-0.002104,0.076041,0.798882,0.049526,-0.594603,167.455219,73.249100,-2.246746
08175,-9.393559,0.785713,-2.986235,0.240811,-0.153657,0.071243,0.262470,0.112469,-0.448551,-0.093934,0.008107,-0.029799,0.999996,0.001312,0.000562,-0.002243,0.073639,0.799205,0.050584,-0.594383,168.483932,73.239075,-1.328468
08176,-9.123989,1.559950,-2.291952,-0.209406,-1.092586,-0.341898,0.285584,0.109496,-0.472376,-0.091215,0.015848,-0.022847,0.999996,0.001428,0.000547,-0.002362,0.071056,0.799520,0.051679,-0.594178,169.576593,73.227719,-0.358033
08177,-8.967939,2.156909,-2.020346,-0.323978,-1.775340,-0.544407,-0.024890,0.142707,-0.468975,-0.089643,0.021777,-0.020142,0.999997,-0.000124,0.000714,-0.002345,0.069732,0.799814,0.053682,-0.593762,170.485172,73.193140,0.606901
08178,-9.410706,1.770061,-2.128843,-0.416239,-1.418775,-0.115257,-0.466421,0.176986,-0.523514,-0.094079,0.017897,-0.021247,0.999993,-0.002332,0.000885,-0.002618,0.069986,0.800039,0.057237,-0.593097,171.256678,73.139289,1.692363
08179,-9.285840,1.072127,-2.889030,0.212239,-0.631630,-0.051608,-0.678946,0.179762,-0.568424,-0.092854,0.010887,-0.028844,0.999990,-0.003395,0.000899,-0.002842,0.070972,0.800166,0.061590,-0.592372,171.977166,73.084310,2.852868
08180,-9.134170,0.511802,-3.313148,0.546808,-0.035255,-0.098183,-0.664443,0.192361,-0.609647,-0.091358,0.005287,-0.033061,0.999989,-0.003322,0.000962,-0.003048,0.071756,0.800311,0.066079,-0.591598,172.786687,73.019986,4.097381
08181,-9.138130,0.070981,-2.971103,0.132088,0.289695,-0.208711,-0.438820,0.197270,-0.628018,-0.091408,0.000932,-0.029623,0.999992,-0.002194,0.000986,-0.003140,0.071596,0.800525,0.069965,-0.590879,173.744989,72.949370,5.363490
08182,-8.940084,0.264177,-3.009298,0.255729,0.062716,-0.379703,-0.184691,0.183297,-0.636263,-0.089419,0.002898,-0.030014,0.999994,-0.000923,0.000916,-0.003181,0.070383,0.800781,0.073137,-0.590295,174.859175,72.879551,6.640089
08183,-9.031917,0.882648,-1.903285,-0.687469,-0.825997,-0.602810,0.355242,0.191512,-0.625555,-0.090309,0.009143,-0.018930,0.999993,0.001776,0.000958,-0.003128,0.067051,0.801239,0.074664,-0.589869,176.246031,72.797387,7.879548
08184,-9.330597,2.401024,-0.685432,-1.623351,-2.629371,-0.661429,0.588690,0.209119,-0.593056,-0.093241,0.024307,-0.006686,0.999991,0.002943,0.001046,-0.002965,0.062857,0.801831,0.075387,-0.589434,177.701624,72.694116,9.050832
08185,-9.499829,2.773627,0.226376,-2.462675,-3.239256,-0.788659,-0.084727,0.241696,-0.643786,-0.094906,0.028043,0.002367,0.999994,-0.000424,0.001208,-0.003219,0.061215,0.802272,0.078297,-0.588627,178.843671,72.566261,10.299315
08186,-9.353648,0.251193,-1.566016,-1.250280,-0.474850,-0.420280,-1.393812,0.290917,-0.736942,-0.093549,0.002748,-0.015543,0.999968,-0.006969,0.001455,-0.003685,0.064516,0.802393,0.085455,-0.587112,179.395243,72.404705,11.715510
08187,-9.516454,-2.726621,-4.208124,0.481376,2.932545,0.525281,-2.002742,0.205190,-0.811925,-0.095318,-0.027298,-0.041710,0.999941,-0.010014,0.001026,-0.004060,0.070083,0.801958,0.094656,-0.585656,179.710960,72.290220,13.252025
08188,-8.741427,-5.815597,-6.218263,1.757863,6.430137,0.408018,-1.247122,0.210219,-0.661669,-0.087672,-0.058252,-0.061728,0.999975,-0.006236,0.001051,-0.003308,0.073038,0.801808,0.101046,-0.584430,-179.815997,72.168677,14.499477
08189,-8.991263,-6.538407,-7.420784,2.598133,7.329914,1.058450,1.192017,0.215770,-0.536125,-0.090167,-0.064699,-0.074498,0.999978,0.005960,0.001079,-0.002681,0.066589,0.802588,0.099793,-0.584345,-178.190081,72.039180,15.491367
08190,-8.943302,-3.404028,-3.336502,-0.329108,3.255102,-0.221233,3.036552,0.175977,-0.433113,-0.089535,-0.033336,-0.033796,0.999882,0.015182,0.000880,-0.002165,0.053032,0.803810,0.092722,-0.585218,-175.698949,71.923380,16.281565
08191,-9.254894,-0.598108,-1.682070,-1.309882,0.062475,-0.478887,3.363954,0.237412,-0.324485,-0.092578,-0.005548,-0.016807,0.999857,0.016819,0.001187,-0.001622,0.038453,0.805133,0.084237,-0.585821,-173.248780,71.769564,16.832724
08192,-10.100273,2.045179,-0.080473,-2.610693,-2.936023,-0.285453,2.817475,0.175048,-0.339659,-0.100968,0.020631,-0.000427,0.999899,0.014087,0.000875,-0.001698,0.026026,0.805969,0.077394,-0.586299,-171.086427,71.641803,17.410030
08193,-9.523775,1.725267,1.331038,-3.859618,-2.794649,-1.283703,0.911033,0.213986,-0.477311,-0.095182,0.017419,0.013491,0.999986,0.004555,0.001070,-0.002387,0.020879,0.806522,0.076678,-0.585838,-169.818404,71.475026,18.197467
08194,-10.251811,-1.443699,-2.428153,-1.038214,0.683668,0.748291,-0.824944,0.251917,-0.609298,-0.102592,-0.014224,-0.024093,0.999986,-0.004125,0.001260,-0.003046,0.022314,0.806933,0.081592,-0.584554,-169.344553,71.268407,19.196453
08195,-9.499012,-4.359091,-5.839605,1.896942,4.050912,1.292509,-0.783776,0.059135,-0.606668,-0.095139,-0.043531,-0.058197,0.999988,-0.003919,0.000296,-0.003033,0.023686,0.806764,0.086340,-0.584051,-168.810628,71.168773,20.235748
08196,-8.980796,-5.855382,-9.095706,4.877482,5.944306,1.957812,1.337757,0.093430,-0.489816,-0.089993,-0.057724,-0.091303,0.999975,0.006689,0.000467,-0.002449,0.016806,0.806968,0.084435,-0.584287,-167.268358,71.056530,21.055762
08197,-9.502809,-3.220119,-7.317118,3.565524,2.854380,1.734828,3.190069,-0.016348,-0.432145,-0.095090,-0.030823,-0.073678,0.999870,0.015950,-0.000082,-0.002161,0.002685,0.806904,0.076851,-0.585655,-164.736887,71.005246,21.800882
08198,-9.212272,-0.790772,-6.481783,3.267288,0.158963,0.994683,3.195828,-0.049049,-0.409741,-0.092121,-0.006682,-0.064954,0.999870,0.015978,-0.000245,-0.002049,-0.011405,0.806548,0.069154,-0.587000,-162.223360,70.963122,22.522703
08199,-9.205363,0.014167,-5.663186,2.614073,-0.897833,0.635678,2.470172,-0.130593,-0.455791,-0.092015,0.001051,-0.056683,0.999921,0.012351,-0.000653,-0.002279,-0.022650,0.805805,0.063748,-0.588304,-160.024020,70.948976,23.353148
08200,-9.129791,-0.706947,-5.613456,2.568668,-0.338603,0.610801,1.820034,-0.178857,-0.522697,-0.091265,-0.006319,-0.056276,0.999955,0.009100,-0.000894,-0.002613,-0.031477,0.804878,0.060537,-0.589505,-158.060158,70.934944,24.327672
08201,-9.103135,-0.638399,-5.157203,2.188398,-0.572426,0.422150,2.413815,-0.219688,-0.572668,-0.090991,-0.005500,-0.051742,0.999922,0.012069,-0.001098,-0.002863,-0.042802,0.803618,0.055760,-0.590980,-155.663417,70.921327,25.401285
08202,-11.844099,3.211726,-7.333266,3.597286,-5.013998,3.082475,3.303812,-0.182356,-0.587941,-0.118277,0.033672,-0.072893,0.999859,0.016518,-0.000912,-0.002940,-0.057771,0.802103,0.048411,-0.592410,-152.759135,70.866000,26.471713
08203,-14.284378,11.047877,-4.476354,0.012907,-13.312262,3.183303,4.677312,-0.764556,-0.869588,-0.142193,0.112113,-0.042699,0.999710,0.023384,-0.003822,-0.004348,-0.078894,0.798048,0.038255,-0.596181,-148.202516,71.001325,28.458325
08204,-9.831766,15.900174,3.345814,-6.614456,-16.918774,-4.274423,1.704954,-0.796645,-1.135998,-0.097549,0.159267,0.034426,0.999940,0.008525,-0.003983,-0.005680,-0.088933,0.794744,0.038032,-0.599188,-144.915047,71.020913,30.902400
08205,-8.066327,9.685458,-0.696740,-1.895729,-10.965707,-3.853551,-2.311187,-0.220766,-1.434509,-0.079958,0.097340,-0.008179,0.999907,-0.011556,-0.001104,-0.007172,-0.083989,0.794767,0.050755,-0.598928,-144.104805,70.646327,33.163112
08206,-11.958817,5.456111,-4.999760,1.460778,-7.924525,1.713135,-2.075733,-0.285958,-1.668330,-0.119058,0.055032,-0.050738,0.999910,-0.010378,-0.001430,-0.008341,-0.080653,0.794296,0.063723,-0.598772,-142.861465,70.207608,35.745916
08207,-13.740699,3.708462,-5.316108,1.405938,-6.713945,3.743208,-0.743318,-0.419196,-1.731302,-0.136968,0.038073,-0.053589,0.999953,-0.003717,-0.002096,-0.008656,-0.082740,0.792756,0.072993,-0.599470,-140.740164,69.782497,38.457624
08208,-14.442759,2.986215,-3.368931,-0.579467,-6.289361,3.933657,-0.154002,-0.334474,-1.896864,-0.144079,0.031204,-0.033954,0.999953,-0.000770,-0.001672,-0.009484,-0.087680,0.791098,0.081112,-0.599915,-138.288790,69.221401,41.170138
08209,-13.387074,1.846249,-2.695323,-0.913593,-5.146497,2.937248,-0.043779,-0.205645,-1.843432,-0.133665,0.019689,-0.027095,0.999957,-0.000219,-0.001028,-0.009217,-0.092942,0.789722,0.088625,-0.599872,-136.099588,68.589724,43.544417
08210,-11.241756,1.807999,-3.893741,0.836254,-4.820109,1.181463,0.036501,0.004616,-1.664796,-0.112263,0.019022,-0.038931,0.999965,0.000183,0.000023,-0.008324,-0.098065,0.788964,0.095085,-0.599065,-134.390744,67.915676,45.363183
08211,-11.396032,1.989994,-6.374330,3.192494,-5.303751,1.855107,0.175767,0.175091,-1.394685,-0.113873,0.020750,-0.063626,0.999975,0.000879,0.000875,-0.006973,-0.103010,0.788723,0.099975,-0.597754,-133.127542,67.268854,46.621634
08212,-12.973247,2.321696,-6.162108,2.549404,-6.249810,3.075364,1.580858,0.207112,-1.169545,-0.129655,0.024461,-0.061297,0.999951,0.007904,0.001036,-0.005848,-0.112821,0.787916,0.099749,-0.597084,-131.374643,66.692862,47.543854
08213,-12.933281,4.250065,-4.324177,0.759289,-8.182801,1.870264,2.384095,0.088007,-0.910519,-0.129155,0.043600,-0.042670,0.999918,0.011920,0.000440,-0.004552,-0.124959,0.786320,0.096164,-0.597360,-129.323139,66.262409,48.292531
08214,-12.298434,6.490181,-2.105477,-1.329450,-10.086507,-0.101986,2.678023,-0.028843,-0.671073,-0.122762,0.065588,-0.020197,0.999905,0.013390,-0.000144,-0.003355,-0.137444,0.784176,0.090808,-0.598273,-127.229485,65.971152,48.906312
08215,-11.041683,9.115403,-0.011852,-3.249919,-12.014009,-2.734098,2.491131,0.007843,-0.434835,-0.110218,0.091386,0.001023,0.999920,0.012455,0.000039,-0.002174,-0.148498,0.782232,0.085052,-0.599022,-125.482725,65.767663,49.257398
08216,-10.676811,10.572512,1.776447,-5.116491,-13.025675,-4.061231,1.373823,0.112931,-0.196910,-0.106654,0.105705,0.018551,0.999976,0.006869,0.000565,-0.000985,-0.154476,0.781462,0.081611,-0.598994,-124.678396,65.639556,49.278724
08217,-10.504676,9.271737,1.534606,-4.850615,-11.762247,-3.747268,0.152364,0.160073,0.091576,-0.105077,0.092657,0.015501,0.999999,0.000762,0.000800,0.000458,-0.154855,0.781865,0.080676,-0.598497,-124.825691,65.630217,49.022250
08218,-10.550356,6.919130,0.246979,-3.499475,-9.732499,-2.582384,-0.447664,0.197499,0.412342,-0.105644,0.068979,0.002420,0.999995,-0.002238,0.000987,0.002062,-0.151912,0.782978,0.080233,-0.597856,-125.598787,65.760652,48.458138
08219,-10.768542,5.075943,-0.545558,-2.686965,-8.129443,-1.523179,-0.650229,0.148500,0.766826,-0.107883,0.050328,-0.005540,0.999987,-0.003251,0.000742,0.003834,-0.147125,0.784217,0.079064,-0.597584,-126.706984,66.065041,47.653391
08220,-10.300904,3.500816,-1.074481,-1.958863,-6.489234,-1.235384,-0.749588,0.093763,1.103654,-0.103205,0.034399,-0.010826,0.999978,-0.003748,0.000469,0.005518,-0.140877,0.785480,0.076884,-0.597716,-128.120549,66.538080,46.581616
08221,-10.242326,1.909140,-1.579958,-1.371653,-4.904568,-0.587297,-0.701195,0.040284,1.481606,-0.102564,0.018276,-0.015844,0.999966,-0.003506,0.000201,0.007408,-0.133699,0.786641,0.073133,-0.598307,-129.815806,67.183416,45.176040
08222,-9.979964,1.050973,-2.257303,-0.598414,-3.933724,-0.327743,-0.373929,-0.085125,1.862591,-0.099882,0.009537,-0.022634,0.999955,-0.001870,-0.000426,0.009313,-0.126572,0.787293,0.066954,-0.599722,-131.643650,68.027735,43.433908
08223,-9.565753,0.683397,-1.679986,-1.006970,-3.216753,-0.678807,0.124774,-0.127879,2.231345,-0.095715,0.005777,-0.016857,0.999937,0.000624,-0.000639,0.011156,-0.120314,0.787532,0.057876,-0.601638,-133.638773,69.017757,41.214238
08224,-9.410731,1.480357,-0.981249,-1.663575,-3.653990,-1.118312,0.241254,-0.155264,2.562782,-0.094279,0.013608,-0.009869,0.999917,0.001206,-0.000776,0.012814,-0.113450,0.787606,0.047121,-0.603809,-136.129462,70.124829,38.412103
