// General information: 
//  MT Manager version: 2022.0.0 
//  XDA version: 2022.0.0 build 7085 rev 119802 built on 2022-11-08
// Device information: 
//  DeviceId: 00B472EF
//  ProductCode: MTW2-3A7G6
//  Firmware Version: 4.14.0
//  Hardware Version: 2.0.0
// Device settings: 
//  Filter Profile: human(46.1)
//  Option Flags: Orientation Smoother Disabled, Position/Velocity Smoother Disabled, Continuous Zero Rotation Update Disabled, AHS Disabled, ICC Disabled
// Coordinate system: ENU
PacketCounter,Acc_X,Acc_Y,Acc_Z,FreeAcc_E,FreeAcc_N,FreeAcc_U,Gyr_X,Gyr_Y,Gyr_Z,VelInc_X,VelInc_Y,VelInc_Z,OriInc_q0,OriInc_q1,OriInc_q2,OriInc_q3,Quat_q0,Quat_q1,Quat_q2,Quat_q3,Roll,Pitch,Yaw
23158,-8.355266,4.709156,-2.659403,1.534212,-0.155317,0.019953,1.977101,-0.482811,0.289759,-0.083557,0.047232,-0.026329,0.999947,0.009885,-0.002414,0.001449,-0.179500,-0.731437,0.157324,0.638772,104.455113,61.397547,-73.690426
23159,-8.462728,5.782223,-2.507645,1.305793,-1.089041,0.601178,1.845026,-0.403457,0.322614,-0.084671,0.057915,-0.024713,0.999954,0.009225,-0.002017,0.001613,-0.173436,-0.731516,0.164757,0.638482,105.018297,61.279044,-74.255766
23160,-8.479812,6.789793,-2.397005,1.095829,-1.987806,1.077737,1.621685,-0.337607,0.368431,-0.084883,0.067934,-0.023563,0.999964,0.008108,-0.001688,0.001842,-0.168372,-0.731518,0.171571,0.638041,105.508897,61.127994,-74.758797
23161,-8.378293,8.045952,-2.189373,0.771849,-3.145117,1.555615,1.341180,-0.268552,0.413793,-0.083920,0.080431,-0.021467,0.999974,0.006706,-0.001343,0.002069,-0.164530,-0.731416,0.177590,0.637512,105.894920,60.942864,-75.198317
23162,-7.867572,9.099384,-1.913781,0.430781,-4.295114,1.577043,0.888726,-0.188542,0.442515,-0.078859,0.090904,-0.018808,0.999987,0.004444,-0.000943,0.002213,-0.162497,-0.731146,0.182198,0.637043,106.094925,60.730477,-75.554996
23163,-7.197135,9.696837,-1.562655,0.072865,-5.102950,1.242788,0.441521,-0.039793,0.459284,-0.072191,0.096837,-0.015427,0.999995,0.002208,-0.000199,0.002296,-0.162287,-0.730956,0.185320,0.636414,106.180328,60.485504,-75.749762
23164,-6.509590,10.134298,-0.953930,-0.505854,-5.770240,0.790940,0.057564,0.129812,0.464983,-0.065337,0.101194,-0.009468,0.999997,0.000288,0.000649,0.002325,-0.163654,-0.730985,0.187102,0.635508,106.210262,60.210296,-75.755857
23165,-5.809736,10.373862,-0.749779,-0.633078,-6.265663,0.300297,-0.483981,0.284179,0.501456,-0.058368,0.103574,-0.007666,0.999993,-0.002420,0.001421,0.002507,-0.167259,-0.731018,0.187168,0.634512,106.066990,59.890518,-75.603628
23166,-5.418063,10.205623,-1.165246,-0.110050,-6.242508,-0.020557,-1.048133,0.436145,0.601167,-0.054513,0.101830,-0.012068,0.999979,-0.005241,0.002181,0.003006,-0.173381,-0.730950,0.185678,0.633384,105.718077,59.491946,-75.314732
23167,-5.461039,10.005454,-1.666324,0.478327,-5.951203,0.039274,-1.371189,0.538978,0.768409,-0.055040,0.099727,-0.017200,0.999965,-0.006856,0.002695,0.003842,-0.181298,-0.730729,0.183675,0.632004,105.236258,58.986704,-74.963649
23168,-5.778453,9.894763,-1.587057,0.460642,-5.585068,0.306989,-1.484881,0.585365,0.994363,-0.058323,0.098538,-0.016433,0.999956,-0.007424,0.002927,0.004972,-0.190376,-0.730290,0.182085,0.630301,104.677881,58.350588,-74.623888
23169,-6.232633,9.631662,-0.952287,-0.125813,-5.021205,0.545405,-1.533472,0.539191,1.236648,-0.062947,0.095853,-0.010090,0.999948,-0.007667,0.002696,0.006183,-0.200331,-0.729366,0.181251,0.628523,103.998395,57.589065,-74.391502
23170,-6.783303,9.078432,-0.777687,-0.273673,-4.113660,0.771973,-1.674251,0.487656,1.467392,-0.068516,0.090215,-0.008367,0.999935,-0.008371,0.002438,0.007337,-0.211460,-0.727846,0.180850,0.626752,103.155601,56.706859,-74.255401
23171,-7.413268,8.464803,-1.172637,0.124677,-3.036462,1.084279,-1.931191,0.416975,1.660193,-0.074857,0.083911,-0.012383,0.999917,-0.009656,0.002085,0.008301,-0.224028,-0.725550,0.180389,0.625179,102.088049,55.727871,-74.211081
23172,-8.222982,7.654398,-1.554519,0.465420,-1.654761,1.397265,-2.125215,0.436746,1.817604,-0.082955,0.075623,-0.016171,0.999900,-0.010626,0.002184,0.009088,-0.237774,-0.722825,0.179843,0.623414,100.925679,54.657961,-74.146316
23173,-9.269574,6.744659,-1.089795,-0.117788,-0.132830,1.701051,-1.942619,0.524292,1.920013,-0.093366,0.066444,-0.011302,0.999903,-0.009713,0.002621,0.009600,-0.251206,-0.720355,0.180092,0.620928,99.946575,53.523085,-73.983543
23174,-10.125785,6.070442,-0.248023,-1.093254,1.029410,1.899854,-1.550914,0.518629,1.965944,-0.101855,0.059685,-0.002682,0.999918,-0.007754,0.002593,0.009829,-0.263326,-0.718190,0.181703,0.617938,99.199327,52.363369,-73.809066
23175,-10.307277,5.559785,-0.002093,-1.399465,1.737313,1.683832,-1.159400,0.399954,1.962745,-0.103612,0.054582,-0.000132,0.999933,-0.005797,0.002000,0.009814,-0.273877,-0.716070,0.184636,0.614935,98.602783,51.218281,-73.725536
23176,-10.111054,4.988723,-0.630903,-0.809996,2.392107,1.193508,-0.735205,0.353894,1.948486,-0.101601,0.048876,-0.006310,0.999944,-0.003676,0.001769,0.009742,-0.282795,-0.714315,0.188867,0.611646,98.228285,50.084697,-73.667835
23177,-9.970236,4.554486,-1.428676,-0.078201,2.989144,0.828969,-0.213892,0.317669,1.974449,-0.100168,0.044542,-0.014176,0.999949,-0.001069,0.001588,0.009872,-0.289862,-0.713085,0.194812,0.607896,98.129500,48.940416,-73.639381
23178,-9.597977,4.162593,-1.787968,0.252122,3.313018,0.267084,0.442590,0.221357,2.038400,-0.096417,0.040684,-0.017682,0.999945,0.002213,0.001107,0.010192,-0.294662,-0.712378,0.203103,0.603690,98.337629,47.766960,-73.703099
23179,-9.202040,4.217127,-1.710681,0.177018,3.187580,-0.056019,1.099970,0.149109,2.104276,-0.092471,0.041293,-0.016809,0.999929,0.005500,0.000746,0.010521,-0.297204,-0.712264,0.213690,0.598904,98.865836,46.563474,-73.845158
23180,-9.265343,4.715529,-1.513434,-0.099321,3.011194,0.251714,1.500257,0.111714,2.125556,-0.093157,0.046279,-0.014733,0.999915,0.007501,0.000559,0.010627,-0.298302,-0.712500,0.225577,0.593696,99.590459,45.351860,-74.035990
23181,-9.510556,5.360954,-1.222418,-0.525031,2.851049,0.783359,1.695687,0.071955,2.082821,-0.095662,0.052716,-0.011740,0.999910,0.008478,0.000360,0.010414,-0.298477,-0.712832,0.237908,0.588372,100.398353,44.170862,-74.271475
23182,-9.558289,6.267056,-0.914803,-0.954789,2.388594,1.361021,1.737037,0.063889,1.996340,-0.096205,0.061788,-0.008578,0.999912,0.008685,0.000319,0.009981,-0.298190,-0.713179,0.250025,0.583049,101.225259,43.041374,-74.518807
23183,-9.345429,7.157433,-0.700136,-1.271766,1.783214,1.774108,1.604294,0.072386,1.878868,-0.094124,0.070745,-0.006398,0.999924,0.008021,0.000362,0.009394,-0.297992,-0.713382,0.261280,0.577944,101.984729,41.979957,-74.758356
23184,-8.900075,7.802019,-0.682889,-1.358174,1.208370,1.902259,1.353635,0.103258,1.739274,-0.089678,0.077286,-0.006258,0.999939,0.006768,0.000516,0.008696,-0.298287,-0.713386,0.271233,0.573182,102.625420,40.994718,-74.965336
23185,-8.378997,8.050839,-0.791047,-1.286300,0.848038,1.731668,1.069204,0.155413,1.583115,-0.084430,0.079882,-0.007417,0.999954,0.005346,0.000777,0.007915,-0.299185,-0.713250,0.279705,0.568794,103.140886,40.092081,-75.118069
23186,-7.882222,8.045543,-0.893459,-1.192922,0.652754,1.403672,0.806968,0.177100,1.435464,-0.079405,0.079922,-0.008541,0.999966,0.004035,0.000885,0.007177,-0.300607,-0.712934,0.286852,0.564869,103.529573,39.269465,-75.236901
23187,-7.446125,7.832118,-0.791969,-1.272451,0.595453,0.931544,0.553993,0.172560,1.301379,-0.074976,0.077856,-0.007639,0.999975,0.002770,0.000863,0.006507,-0.302526,-0.712373,0.292794,0.561493,103.784105,38.523014,-75.340440
23188,-7.108977,7.615714,-0.623851,-1.407464,0.588353,0.511914,0.243390,0.144350,1.185764,-0.071544,0.075741,-0.006095,0.999981,0.001217,0.000722,0.005929,-0.305174,-0.711402,0.297484,0.558820,103.860829,37.844654,-75.445429
23189,-6.832008,7.538093,-0.508001,-1.481600,0.529687,0.251133,-0.159852,0.095786,1.091675,-0.068733,0.075002,-0.005107,0.999985,-0.000799,0.000479,0.005458,-0.308909,-0.709795,0.300774,0.557046,103.697394,37.225546,-75.566844
23190,-6.564624,7.277598,-0.476913,-1.423902,0.592159,-0.122176,-0.620023,0.048024,1.013695,-0.066015,0.072427,-0.004978,0.999982,-0.003100,0.000240,0.005068,-0.313979,-0.707439,0.302572,0.556235,103.262174,36.655482,-75.703473
23191,-6.321144,6.807026,-0.442841,-1.327676,0.791434,-0.642167,-0.991763,0.022437,0.940188,-0.063531,0.067749,-0.004758,0.999977,-0.004959,0.000112,0.004701,-0.320107,-0.704510,0.303102,0.556171,102.615928,36.129033,-75.838530
23192,-6.159836,6.524761,-0.755877,-0.901413,0.968199,-0.905600,-1.397465,0.034236,0.862239,-0.061880,0.064926,-0.008003,0.999966,-0.006987,0.000171,0.004311,-0.327448,-0.701043,0.302195,0.556772,101.755304,35.643185,-75.944371
23193,-5.977572,6.073848,-1.466948,-0.055363,1.277136,-1.260536,-1.755705,0.057030,0.772796,-0.060014,0.060375,-0.015183,0.999954,-0.008778,0.000285,0.003864,-0.335803,-0.697132,0.299914,0.557938,100.712448,35.203948,-76.011716
23194,-5.844452,5.758134,-1.912234,0.514873,1.512361,-1.541258,-1.851973,0.096875,0.711327,-0.058658,0.057193,-0.019625,0.999951,-0.009260,0.000484,0.003557,-0.344351,-0.693197,0.297056,0.559159,99.640789,34.794212,-76.033789
23195,-5.739472,5.742254,-2.187939,0.897840,1.570732,-1.601273,-1.835981,0.116054,0.655623,-0.057595,0.057030,-0.022371,0.999952,-0.009180,0.000580,0.003278,-0.352682,-0.689358,0.293987,0.560332,98.594704,34.414175,-76.027221
23196,-5.501930,5.763311,-1.982020,0.832813,1.425520,-1.769780,-1.816576,0.107948,0.624081,-0.055209,0.057278,-0.020312,0.999954,-0.009083,0.000540,0.003120,-0.360813,-0.685514,0.290852,0.561507,97.563003,34.052710,-76.014808
23197,-5.363866,5.455651,-1.432346,0.405195,1.478879,-2.181536,-1.747332,0.080881,0.606294,-0.053809,0.054266,-0.014777,0.999957,-0.008737,0.000404,0.003031,-0.368585,-0.681683,0.287872,0.562657,96.565657,33.703638,-76.011801
23198,-5.292607,4.823611,-0.697085,-0.244057,1.712387,-2.828962,-1.471913,0.052430,0.575794,-0.053066,0.048030,-0.007311,0.999969,-0.007359,0.000262,0.002879,-0.375265,-0.678273,0.285594,0.563522,95.720390,33.373689,-76.019208
23199,-5.247500,4.585867,-0.531931,-0.350682,1.829808,-3.076382,-1.275315,0.042437,0.505670,-0.052592,0.045691,-0.005600,0.999976,-0.006377,0.000212,0.002528,-0.381046,-0.675268,0.283635,0.564242,94.989429,33.084302,-76.023561
23200,-5.111290,4.294373,-1.330646,0.487692,2.080220,-3.349554,-1.115438,0.070755,0.417431,-0.051207,0.042762,-0.013527,0.999982,-0.005577,0.000354,0.002087,-0.386062,-0.672744,0.281764,0.564783,94.365561,32.843954,-75.999568
23201,-5.128942,4.308721,-2.077206,1.242265,2.276772,-3.296643,-0.638248,0.074682,0.362254,-0.051375,0.042928,-0.020890,0.999993,-0.003191,0.000373,0.001811,-0.389313,-0.671214,0.281041,0.564733,94.019144,32.635152,-75.967869
23202,-5.100176,4.728535,-2.376618,1.575191,2.119035,-2.953565,-0.128841,0.043126,0.337058,-0.051086,0.047184,-0.023786,0.999998,-0.000644,0.000216,0.001685,-0.390736,-0.670617,0.281730,0.564116,93.954231,32.442185,-75.955440
23203,-5.044487,5.178401,-2.294904,1.523865,1.836099,-2.612980,0.340486,-0.000292,0.344726,-0.050534,0.051736,-0.022861,0.999997,0.001702,-0.000001,0.001724,-0.390544,-0.670800,0.283852,0.562967,94.141974,32.246500,-75.973137
23204,-5.003270,5.660422,-2.021438,1.261068,1.501515,-2.242067,0.734217,-0.029120,0.352698,-0.050130,0.056590,-0.020014,0.999992,0.003671,-0.000146,0.001763,-0.389007,-0.671653,0.287162,0.561333,94.544440,32.047740,-76.011658
23205,-5.036953,6.210468,-1.660103,0.875342,1.170985,-1.777827,1.041331,-0.072945,0.351113,-0.050473,0.062102,-0.016296,0.999985,0.005207,-0.000365,0.001756,-0.386364,-0.672965,0.291407,0.559396,95.106167,31.852132,-76.081653
23206,-5.022702,6.855334,-1.257187,0.435928,0.742095,-1.265037,1.258226,-0.099791,0.336858,-0.050336,0.068546,-0.012166,0.999979,0.006291,-0.000499,0.001684,-0.382896,-0.674619,0.296251,0.557239,95.782461,31.666961,-76.170845
23207,-4.974996,7.615554,-0.950721,0.075969,0.243771,-0.670196,1.298183,-0.099940,0.291659,-0.049856,0.076143,-0.009038,0.999978,0.006491,-0.000500,0.001458,-0.379152,-0.676385,0.301043,0.555086,96.481921,31.508281,-76.259567
23208,-4.838620,8.126352,-0.956343,0.018392,-0.140318,-0.307763,1.227899,-0.055319,0.226800,-0.048476,0.081265,-0.009078,0.999980,0.006139,-0.000277,0.001134,-0.375515,-0.678212,0.305322,0.552988,97.158770,31.384594,-76.315206
23209,-4.696257,8.544138,-1.033523,0.022288,-0.473460,-0.019846,1.185003,0.022068,0.148233,-0.047027,0.085466,-0.009824,0.999982,0.005925,0.000110,0.000741,-0.371912,-0.680265,0.309060,0.550820,97.840275,31.300112,-76.314397
23210,-4.551789,8.833562,-1.286411,0.194807,-0.717932,0.179872,1.066715,0.113281,0.078445,-0.045560,0.088385,-0.012367,0.999986,0.005334,0.000566,0.000392,-0.368647,-0.682438,0.312054,0.548635,98.488619,31.247984,-76.247321
23211,-4.630044,8.905670,-1.504921,0.295108,-0.672304,0.310219,0.940614,0.203427,0.030790,-0.046329,0.089119,-0.014583,0.999988,0.004703,0.001017,0.000154,-0.365813,-0.684680,0.314367,0.546414,99.097445,31.214122,-76.116621
23212,-4.856290,9.021741,-1.692812,0.338078,-0.534057,0.552677,0.854268,0.242226,0.014762,-0.048590,0.090285,-0.016484,0.999990,0.004271,0.001211,0.000074,-0.363283,-0.686882,0.316310,0.544212,99.671031,31.184709,-75.958740
23213,-5.119768,9.054271,-1.727395,0.231163,-0.343479,0.723145,0.756692,0.240784,0.012742,-0.051224,0.090604,-0.016870,0.999992,0.003783,0.001204,0.000064,-0.361076,-0.688892,0.317978,0.542165,100.187728,31.155132,-75.802210
23214,-5.379860,9.016059,-1.570833,-0.051609,-0.144592,0.802194,0.683692,0.212771,0.023852,-0.053826,0.090207,-0.015343,0.999994,0.003418,0.001064,0.000119,-0.359098,-0.690668,0.319532,0.540301,100.652460,31.121192,-75.665566
23215,-5.557816,9.025265,-1.206804,-0.513200,-0.067237,0.842493,0.610875,0.144398,0.032390,-0.055601,0.090280,-0.011752,0.999995,0.003054,0.000722,0.000162,-0.357284,-0.692106,0.321039,0.538769,101.051101,31.088805,-75.575541
23216,-5.416179,8.946169,-0.960150,-0.772933,-0.186243,0.659110,0.460009,0.072926,0.026858,-0.054177,0.089476,-0.009376,0.999997,0.002300,0.000365,0.000134,-0.355858,-0.693087,0.322244,0.537731,101.339629,31.067153,-75.531709
23217,-5.171072,8.786971,-0.882474,-0.822349,-0.320241,0.382935,0.287773,0.047507,0.010813,-0.051718,0.087879,-0.008686,0.999999,0.001439,0.000238,0.000054,-0.354944,-0.693714,0.322976,0.537087,101.521569,31.057107,-75.502772
23218,-4.897399,8.666427,-0.937049,-0.724870,-0.477698,0.148029,0.166414,0.054345,0.006510,-0.048979,0.086670,-0.009285,1.000000,0.000832,0.000272,0.000033,-0.354449,-0.694152,0.323354,0.536620,101.636854,31.048762,-75.468599
23219,-4.733220,8.527839,-0.968194,-0.662897,-0.536184,-0.048575,0.065117,0.070494,0.006530,-0.047338,0.085280,-0.009637,1.000000,0.000326,0.000352,0.000033,-0.354333,-0.694452,0.323431,0.536262,101.699248,31.038353,-75.424082
23220,-4.735136,8.289484,-1.196636,-0.429862,-0.372801,-0.208249,-0.033452,0.090438,0.001222,-0.047357,0.082893,-0.011959,1.000000,-0.000167,0.000452,0.000006,-0.354576,-0.694640,0.323190,0.536003,101.712504,31.028699,-75.365619
23221,-4.923883,8.129865,-1.324166,-0.335401,-0.110565,-0.222691,-0.093824,0.103809,-0.007322,-0.049243,0.081294,-0.013254,1.000000,-0.000469,0.000519,-0.000037,-0.355029,-0.694769,0.322734,0.535810,101.696022,31.022166,-75.297429
23222,-5.246552,8.012711,-1.457265,-0.264500,0.240855,-0.131494,-0.126359,0.093857,-0.016261,-0.052466,0.080122,-0.014599,1.000000,-0.000632,0.000469,-0.000081,-0.355553,-0.694830,0.322177,0.535720,101.658386,31.021944,-75.234379
23223,-5.476896,8.003994,-1.606514,-0.162923,0.458898,0.005869,-0.130877,0.063059,-0.034743,-0.054760,0.080039,-0.016100,1.000000,-0.000654,0.000315,-0.000174,-0.355994,-0.694828,0.321599,0.535777,101.608832,31.035580,-75.189167
23224,-5.578404,8.050965,-1.631192,-0.155951,0.520294,0.102068,-0.135565,0.029369,-0.042543,-0.055769,0.080510,-0.016358,1.000000,-0.000678,0.000147,-0.000213,-0.356376,-0.694740,0.321040,0.535971,101.545977,31.057636,-75.164828
23225,-5.538469,8.096962,-1.649123,-0.122433,0.463599,0.123364,-0.137667,0.007736,-0.043622,-0.055368,0.080970,-0.016545,1.000000,-0.000688,0.000039,-0.000218,-0.356728,-0.694591,0.320511,0.536247,101.474450,31.082664,-75.154708
23226,-5.420452,8.271129,-1.501577,-0.239025,0.247437,0.183774,-0.135021,-0.029628,-0.048487,-0.054182,0.082714,-0.015080,1.000000,-0.000675,-0.000148,-0.000242,-0.356997,-0.694356,0.320038,0.536656,101.392319,31.114834,-75.168327
23227,-5.346313,8.424621,-1.194195,-0.516393,0.054096,0.222939,-0.156776,-0.063694,-0.048211,-0.053439,0.084250,-0.012025,1.000000,-0.000784,-0.000318,-0.000241,-0.357288,-0.693988,0.319569,0.537217,101.285886,31.150513,-75.204563
23228,-5.179607,8.219608,-0.949466,-0.686806,-0.012378,-0.075137,-0.195677,-0.099873,-0.051795,-0.051770,0.082200,-0.009601,0.999999,-0.000978,-0.000499,-0.000259,-0.357645,-0.693459,0.319046,0.537972,101.145232,31.192335,-75.264057
23229,-5.103144,7.979911,-0.642743,-0.935454,0.004397,-0.364987,-0.147577,-0.109617,-0.063171,-0.051003,0.079810,-0.006514,1.000000,-0.000738,-0.000548,-0.000316,-0.357791,-0.693007,0.318631,0.538704,101.029263,31.241349,-75.328773
23230,-5.097183,7.921352,-0.910678,-0.647696,0.067868,-0.371594,-0.244723,-0.117311,-0.092428,-0.050930,0.079226,-0.009234,0.999999,-0.001224,-0.000587,-0.000462,-0.358180,-0.692406,0.317866,0.539668,100.856946,31.307691,-75.394901
23231,-4.978404,7.947676,-1.802254,0.275382,0.087520,-0.267291,-0.327318,-0.111770,-0.106907,-0.049731,0.079474,-0.018180,0.999998,-0.001637,-0.000559,-0.000535,-0.358825,-0.691693,0.316817,0.540770,100.639758,31.381226,-75.455990
23232,-4.959346,8.259579,-2.327047,0.805426,-0.020182,0.065659,-0.245611,-0.099426,-0.086257,-0.049546,0.082588,-0.023397,0.999999,-0.001228,-0.000497,-0.000431,-0.359260,-0.691127,0.316037,0.541661,100.472221,31.441836,-75.511700
23233,-5.017029,8.517696,-2.294038,0.770598,-0.119831,0.305422,-0.134695,-0.108290,-0.030859,-0.050145,0.085169,-0.023025,1.000000,-0.000673,-0.000541,-0.000154,-0.359450,-0.690646,0.315766,0.542307,100.361377,31.471853,-75.580296
23234,-5.041298,8.691558,-1.972237,0.460602,-0.243181,0.413566,-0.133370,-0.111860,0.001159,-0.050402,0.086902,-0.019809,1.000000,-0.000667,-0.000559,0.000006,-0.359714,-0.690108,0.315614,0.542905,100.248173,31.484239,-75.655049
23235,-5.197047,8.564451,-1.808355,0.291937,-0.067365,0.362747,-0.176021,-0.100639,0.018463,-0.051969,0.085624,-0.018185,0.999999,-0.000880,-0.000503,0.000092,-0.360191,-0.689494,0.315386,0.543500,100.113119,31.485425,-75.724608
23236,-5.389361,8.344319,-1.644727,0.120373,0.190314,0.253457,-0.169471,-0.088613,0.017427,-0.053894,0.083425,-0.016542,1.000000,-0.000847,-0.000443,0.000087,-0.360660,-0.688927,0.315149,0.544044,99.986239,31.486014,-75.785945
23237,-5.459308,8.325331,-1.727436,0.205748,0.274418,0.285904,-0.172432,-0.074602,-0.011905,-0.054582,0.083242,-0.017366,1.000000,-0.000862,-0.000373,-0.000060,-0.361083,-0.688438,0.314779,0.544598,99.864066,31.501503,-75.834766
23238,-5.335480,8.123142,-1.776123,0.304596,0.289518,0.058016,-0.163816,-0.049773,-0.038776,-0.053335,0.081227,-0.017841,1.000000,-0.000819,-0.000249,-0.000194,-0.361440,-0.688074,0.314294,0.545100,99.757209,31.529820,-75.863956
23239,-5.207466,7.866803,-1.520464,0.100600,0.279645,-0.261364,-0.003548,-0.027567,-0.057563,-0.052050,0.078683,-0.015213,1.000000,-0.000018,-0.000138,-0.000288,-0.361230,-0.688089,0.314142,0.545309,99.750744,31.566402,-75.876493
23240,-4.968419,7.893495,-1.610198,0.238871,0.074570,-0.351051,0.010627,-0.023415,-0.081488,-0.049650,0.078956,-0.016104,1.000000,0.000053,-0.000117,-0.000407,-0.360912,-0.688179,0.313937,0.545523,99.755490,31.616264,-75.883391
23241,-4.789852,7.808651,-2.029081,0.691122,0.030095,-0.455534,-0.037171,0.007132,-0.085406,-0.047866,0.078103,-0.020304,1.000000,-0.000186,0.000036,-0.000427,-0.360797,-0.688271,0.313534,0.545714,99.743473,31.665201,-75.869756
23242,-4.760372,7.849018,-2.117897,0.781195,-0.010241,-0.424219,0.070089,0.032743,-0.075099,-0.047578,0.078515,-0.021144,1.000000,0.000350,0.000164,-0.000375,-0.360379,-0.688612,0.313413,0.545630,99.801498,31.705993,-75.840087
23243,-4.823465,8.082142,-1.979341,0.616235,-0.114567,-0.215201,0.104766,0.021399,-0.058716,-0.048213,0.080846,-0.019746,1.000000,0.000524,0.000107,-0.000294,-0.359870,-0.688957,0.313463,0.545502,99.874238,31.738447,-75.819954
23244,-4.832667,7.925574,-1.911137,0.544590,-0.039663,-0.350993,0.114867,0.021892,-0.044501,-0.048311,0.079277,-0.019061,1.000000,0.000574,0.000109,-0.000223,-0.359365,-0.689300,0.313589,0.545329,99.952397,31.762967,-75.800871
23245,-4.847226,7.776669,-1.755284,0.382633,0.022327,-0.490334,0.189984,0.028449,-0.039244,-0.048459,0.077793,-0.017472,1.000000,0.000950,0.000142,-0.000196,-0.358626,-0.689786,0.313926,0.545008,100.075309,31.783679,-75.778213
23246,-4.824981,7.524655,-1.722984,0.349703,0.128329,-0.717042,0.212276,0.045732,-0.048940,-0.048235,0.075277,-0.017139,0.999999,0.001061,0.000229,-0.000245,-0.357809,-0.690375,0.314258,0.544607,100.217995,31.808225,-75.742638
23247,-4.837779,7.256072,-1.989183,0.599931,0.316450,-0.893527,0.242445,0.071633,-0.063803,-0.048362,0.072600,-0.019787,0.999999,0.001212,0.000358,-0.000319,-0.356889,-0.691110,0.314575,0.544096,100.387722,31.838259,-75.688232
23248,-4.828814,7.019231,-2.124627,0.719981,0.446952,-1.072959,0.355540,0.113662,-0.081699,-0.048271,0.070250,-0.021094,0.999998,0.001778,0.000568,-0.000408,-0.355594,-0.692188,0.315061,0.543291,100.638567,31.873968,-75.603344
23249,-5.004439,6.927096,-2.127228,0.653752,0.626069,-1.052857,0.525595,0.145084,-0.097689,-0.050026,0.069351,-0.021054,0.999996,0.002628,0.000725,-0.000488,-0.353715,-0.693674,0.315897,0.542137,100.998766,31.914756,-75.495601
23250,-5.187781,7.025390,-2.081215,0.517884,0.695623,-0.876901,0.612444,0.160444,-0.110961,-0.051855,0.070346,-0.020555,0.999995,0.003062,0.000802,-0.000555,-0.351518,-0.695371,0.316891,0.540809,101.415678,31.960843,-75.375280
23251,-5.431377,7.162646,-2.189928,0.510277,0.812284,-0.610588,0.689062,0.140992,-0.121581,-0.054285,0.071734,-0.021614,0.999994,0.003445,0.000705,-0.000608,-0.348993,-0.697157,0.318087,0.539440,101.870395,32.014191,-75.266197
23252,-5.525882,7.354084,-2.157486,0.385038,0.752529,-0.402177,0.819288,0.105403,-0.112195,-0.055229,0.073659,-0.021244,0.999991,0.004096,0.000527,-0.000561,-0.345976,-0.699052,0.319723,0.537963,102.387361,32.065976,-75.181055
23253,-5.437736,7.765331,-2.172169,0.320811,0.425878,-0.101719,0.858914,0.060469,-0.090316,-0.054349,0.077770,-0.021371,0.999991,0.004295,0.000302,-0.000452,-0.342803,-0.700843,0.321615,0.536534,102.909514,32.110315,-75.128528
23254,-5.259954,8.170073,-2.360841,0.441987,0.053618,0.176914,0.801394,0.019384,-0.057614,-0.052578,0.081810,-0.023276,0.999992,0.004007,0.000097,-0.000288,-0.339844,-0.702364,0.323531,0.535274,103.382371,32.141593,-75.107288
23255,-5.056560,8.553824,-2.228908,0.257287,-0.367487,0.360960,0.788461,-0.020137,-0.012239,-0.050558,0.085628,-0.021957,0.999992,0.003942,-0.000101,-0.000061,-0.336986,-0.703670,0.325635,0.534089,103.829860,32.152568,-75.119304
23256,-4.850905,8.963345,-1.949594,-0.074485,-0.817975,0.531334,0.736731,-0.048495,0.029585,-0.048518,0.089697,-0.019177,0.999993,0.003684,-0.000242,0.000148,-0.334368,-0.704737,0.327790,0.533008,104.234666,32.144516,-75.156352
23257,-4.735064,9.161042,-1.811614,-0.261836,-1.051188,0.601423,0.582942,-0.047516,0.059054,-0.047373,0.091649,-0.017860,0.999996,0.002915,-0.000238,0.000295,-0.332370,-0.705490,0.329634,0.532123,104.548580,32.119963,-75.198120
23258,-4.810567,9.187086,-1.841302,-0.297692,-1.005618,0.667508,0.424339,-0.015270,0.061744,-0.048133,0.091895,-0.018222,0.999998,0.002122,-0.000076,0.000309,-0.330988,-0.706060,0.331010,0.531375,104.782981,32.089577,-75.219038
23259,-5.059917,9.276608,-1.967977,-0.271546,-0.839541,0.899573,0.255105,0.029309,0.034078,-0.050618,0.092782,-0.019554,0.999999,0.001276,0.000147,0.000170,-0.330204,-0.706508,0.331764,0.530796,104.937945,32.067856,-75.206474
23260,-5.280880,9.248878,-2.059485,-0.246418,-0.634054,1.013584,0.085002,0.072756,0.002910,-0.052818,0.092497,-0.020536,1.000000,0.000425,0.000364,0.000015,-0.330009,-0.706844,0.331884,0.530395,105.013781,32.057061,-75.159828
23261,-5.413233,9.116075,-2.052839,-0.271007,-0.452817,0.973488,-0.072251,0.089320,-0.030362,-0.054128,0.091162,-0.020537,1.000000,-0.000361,0.000447,-0.000152,-0.330310,-0.707018,0.331442,0.530252,105.007934,32.062069,-75.096864
23262,-5.499694,8.787518,-2.025354,-0.271735,-0.201754,0.744520,-0.173315,0.095882,-0.056652,-0.054982,0.087873,-0.020303,0.999999,-0.000867,0.000479,-0.000283,-0.330908,-0.707087,0.330628,0.530295,104.949299,32.080792,-75.024716
23263,-5.468339,8.610331,-1.991057,-0.261918,-0.132933,0.575697,-0.305124,0.105926,-0.079867,-0.054660,0.086095,-0.020013,0.999999,-0.001526,0.000530,-0.000399,-0.331928,-0.706999,0.329365,0.530560,104.820402,32.110885,-74.942284
23264,-5.434232,8.308275,-2.012751,-0.173569,0.011583,0.315448,-0.428965,0.108112,-0.094731,-0.054314,0.083065,-0.020276,0.999997,-0.002145,0.000541,-0.000474,-0.333348,-0.706736,0.327717,0.531042,104.623046,32.149196,-74.855652
23265,-5.384800,7.916214,-1.832180,-0.266817,0.169815,-0.070033,-0.383017,0.094082,-0.089632,-0.053821,0.079151,-0.018448,0.999998,-0.001915,0.000470,-0.000448,-0.334595,-0.706498,0.326230,0.531489,104.446278,32.186835,-74.779476
23266,-5.295972,7.673205,-1.768878,-0.258071,0.225146,-0.329176,-0.358408,0.078788,-0.098051,-0.052929,0.076726,-0.017805,0.999998,-0.001792,0.000394,-0.000490,-0.335705,-0.706274,0.324803,0.531960,104.279371,32.231619,-74.711740
23267,-5.213436,7.531633,-2.040608,0.062446,0.271352,-0.432287,-0.373469,0.080083,-0.100879,-0.052105,0.075304,-0.020526,0.999998,-0.001867,0.000400,-0.000504,-0.336864,-0.706028,0.323323,0.532455,104.104156,32.277857,-74.643086
23268,-5.226549,7.667688,-2.223696,0.246805,0.228373,-0.276337,-0.315049,0.063006,-0.095334,-0.052236,0.076667,-0.022341,0.999999,-0.001575,0.000315,-0.000477,-0.337800,-0.705826,0.322046,0.532904,103.956268,32.323666,-74.586417
23269,-5.309471,7.878591,-2.149603,0.155225,0.165120,-0.074511,-0.222445,0.039150,-0.081850,-0.053067,0.078784,-0.021573,0.999999,-0.001112,0.000196,-0.000409,-0.338408,-0.705692,0.321103,0.533266,103.851488,32.365247,-74.548018
23270,-5.437238,8.048435,-1.880723,-0.136842,0.133227,0.078799,-0.123122,0.005401,-0.073454,-0.054343,0.080493,-0.018855,1.000000,-0.000616,0.000027,-0.000367,-0.338632,-0.705623,0.320510,0.533571,103.791346,32.406946,-74.532982
23271,-5.467151,8.083881,-1.601255,-0.408105,0.094247,0.067973,-0.090259,-0.022106,-0.075872,-0.054639,0.080852,-0.016055,1.000000,-0.000451,-0.000111,-0.000379,-0.338691,-0.705538,0.320044,0.533925,103.740130,32.453630,-74.536019
23272,-5.461082,8.116607,-1.515935,-0.481892,0.052787,0.074970,-0.108825,-0.039547,-0.086852,-0.054573,0.081182,-0.015214,1.000000,-0.000544,-0.000198,-0.000434,-0.338757,-0.705395,0.319518,0.534388,103.673372,32.508923,-74.548580
23273,-5.438654,7.982328,-1.464733,-0.502826,0.096210,-0.056671,-0.092558,-0.058511,-0.096820,-0.054344,0.079843,-0.014700,1.000000,-0.000463,-0.000293,-0.000484,-0.338709,-0.705241,0.319033,0.534910,103.609641,32.572184,-74.572427
23274,-5.238093,7.837320,-1.584973,-0.319686,0.023301,-0.259123,-0.019428,-0.062180,-0.094664,-0.052339,0.078396,-0.015874,1.000000,-0.000097,-0.000311,-0.000473,-0.338402,-0.705200,0.318757,0.535323,103.586589,32.634864,-74.598863
23275,-5.089561,8.084036,-1.774197,-0.120037,-0.220426,-0.099808,-0.003198,-0.025221,-0.085527,-0.050859,0.080862,-0.017750,1.000000,-0.000016,-0.000126,-0.000428,-0.338123,-0.705269,0.318494,0.535565,103.584869,32.687336,-74.602599
23276,-5.078607,8.328606,-1.720887,-0.190176,-0.383372,0.083587,0.037937,-0.016289,-0.059983,-0.050760,0.083305,-0.017197,1.000000,0.000190,-0.000081,-0.000300,-0.337779,-0.705392,0.318416,0.535666,103.608024,32.724520,-74.604256
23277,-5.045295,8.692682,-1.494927,-0.438280,-0.654007,0.318093,0.095678,-0.016621,-0.023863,-0.050441,0.086940,-0.014912,1.000000,0.000478,-0.000083,-0.000119,-0.337330,-0.705553,0.318621,0.535616,103.660703,32.741497,-74.612150
23278,-5.029344,9.035560,-1.257447,-0.703235,-0.896434,0.541958,0.087597,-0.002618,0.021681,-0.050303,0.090356,-0.012536,1.000000,0.000438,-0.000013,0.000108,-0.337052,-0.705666,0.318941,0.535451,103.710098,32.731348,-74.617872
23279,-5.110227,9.066795,-1.498079,-0.495717,-0.813660,0.659067,0.010060,0.005532,0.054821,-0.051128,0.090655,-0.014975,1.000000,0.000050,0.000028,0.000274,-0.337150,-0.705616,0.319157,0.535327,103.714795,32.701529,-74.623783
23280,-5.397278,9.188162,-1.686484,-0.384123,-0.616522,0.951582,-0.147179,0.043073,0.073702,-0.054010,0.091849,-0.016921,1.000000,-0.000736,0.000215,0.000369,-0.337913,-0.705372,0.318955,0.535288,103.641431,32.656196,-74.607688
23281,-5.771333,9.202362,-1.590436,-0.546160,-0.323000,1.147174,-0.270726,0.017664,0.049884,-0.057738,0.091988,-0.016024,0.999999,-0.001354,0.000088,0.000249,-0.339007,-0.704887,0.318381,0.535576,103.490061,32.627483,-74.604690
23282,-5.845878,9.156907,-1.505795,-0.610647,-0.239336,1.135388,-0.416987,-0.014010,-0.013874,-0.058451,0.091541,-0.015253,0.999998,-0.002085,-0.000070,-0.000069,-0.340394,-0.704170,0.317243,0.536315,103.249270,32.638588,-74.612345
23283,-5.756852,8.930831,-1.695842,-0.338623,-0.150934,0.940880,-0.668023,0.005503,-0.088947,-0.057529,0.089277,-0.017255,0.999994,-0.003340,0.000028,-0.000445,-0.342493,-0.703190,0.315132,0.537507,102.877604,32.688959,-74.595753
23284,-5.766070,8.599314,-1.681928,-0.263790,0.045993,0.673137,-0.829059,0.017176,-0.157039,-0.057595,0.085968,-0.017171,0.999991,-0.004145,0.000086,-0.000785,-0.344987,-0.702065,0.312324,0.539020,102.423334,32.776100,-74.561523
23285,-5.584941,8.521242,-1.789777,-0.034982,-0.040247,0.531538,-1.003942,0.050759,-0.241015,-0.055751,0.085188,-0.018311,0.999987,-0.005020,0.000254,-0.001205,-0.347915,-0.700842,0.308686,0.540822,101.886948,32.906401,-74.493844
23286,-5.376194,8.360297,-2.335943,0.642758,-0.033279,0.377486,-1.193389,0.125411,-0.307796,-0.053648,0.083544,-0.023824,0.999981,-0.005967,0.000627,-0.001539,-0.351429,-0.699573,0.304161,0.542753,101.273731,33.066233,-74.368369
23287,-5.208433,7.920676,-3.515909,1.947859,0.280600,0.104603,-1.372849,0.172633,-0.352280,-0.051976,0.079055,-0.035657,0.999975,-0.006864,0.000863,-0.001761,-0.355508,-0.698153,0.298898,0.544846,100.577271,33.247083,-74.207475
23288,-4.966760,7.419827,-3.948403,2.541835,0.465487,-0.398135,-1.512532,0.229920,-0.371106,-0.049576,0.073989,-0.039987,0.999969,-0.007563,0.001150,-0.001856,-0.360087,-0.696631,0.293069,0.546949,99.822645,33.434486,-74.007843
23289,-5.047815,6.796848,-3.499324,2.189552,0.827254,-0.955845,-1.440482,0.269252,-0.364311,-0.050402,0.067806,-0.035414,0.999971,-0.007202,0.001346,-0.001822,-0.364471,-0.695293,0.287373,0.548767,99.122537,33.616382,-73.784958
23290,-5.144711,5.766707,-2.787895,1.542096,1.368925,-1.860135,-0.983152,0.168057,-0.286786,-0.051388,0.057603,-0.028119,0.999987,-0.004916,0.000840,-0.001434,-0.367316,-0.694373,0.283373,0.550113,98.641610,33.765305,-73.640686
23291,-5.146511,5.044593,-1.922741,0.724975,1.610080,-2.566071,-0.277536,0.018058,-0.179165,-0.051422,0.050465,-0.019293,0.999999,-0.001388,0.000090,-0.000896,-0.367791,-0.694171,0.281960,0.550776,98.501331,33.866656,-73.610840
23292,-5.156177,4.825271,-1.177720,0.000210,1.586320,-2.831283,0.262673,-0.122236,-0.056798,-0.051541,0.048283,-0.011745,0.999999,0.001313,-0.000611,-0.000284,-0.366527,-0.694405,0.282716,0.550937,98.610682,33.910749,-73.688939
23293,-4.924604,4.807996,-0.721690,-0.401790,1.314929,-3.030440,0.621512,-0.202972,0.039089,-0.049248,0.048093,-0.007117,0.999995,0.003108,-0.001015,0.000195,-0.364167,-0.694932,0.284939,0.550693,98.888865,33.907693,-73.832419
23294,-4.730929,5.237636,-0.574814,-0.527523,0.881233,-2.806266,0.946017,-0.200912,0.098594,-0.047329,0.052380,-0.005548,0.999988,0.004730,-0.001005,0.000493,-0.360837,-0.695960,0.288254,0.549860,99.350669,33.871733,-73.980606
23295,-4.422328,6.156632,-0.683487,-0.404317,0.121934,-2.213370,1.084378,-0.185092,0.117141,-0.044253,0.061576,-0.006542,0.999985,0.005422,-0.000925,0.000586,-0.357092,-0.697234,0.291978,0.548725,99.895978,33.824689,-74.120862
23296,-4.459911,7.250687,-1.490152,0.292498,-0.343564,-1.182517,1.037074,-0.155892,0.117635,-0.044630,0.072557,-0.014560,0.999986,0.005185,-0.000779,0.000588,-0.353543,-0.698484,0.295512,0.547540,100.425496,33.775718,-74.241439
23297,-4.865824,8.444591,-2.132341,0.725945,-0.610856,0.118760,0.922457,-0.140207,0.104754,-0.048688,0.084518,-0.020968,0.999989,0.004612,-0.000701,0.000524,-0.350376,-0.699574,0.298653,0.546479,100.895518,33.733008,-74.350567
23298,-5.511519,9.919543,-2.095565,0.422412,-0.965390,1.678819,0.762073,-0.071174,0.058489,-0.055137,0.099258,-0.020597,0.999993,0.003810,-0.000356,0.000292,-0.347738,-0.700630,0.301066,0.545486,101.303307,33.709571,-74.406858
23299,-6.136374,11.071751,-2.338305,0.414490,-1.105408,3.005758,0.328017,0.067693,-0.027493,-0.061356,0.110764,-0.023181,0.999999,0.001640,0.000338,-0.000137,-0.346594,-0.701431,0.301752,0.544806,101.520380,33.718759,-74.358204
23300,-6.640790,10.876161,-2.491469,0.426008,-0.580013,3.151895,0.133198,0.213544,-0.122607,-0.066368,0.108819,-0.024771,0.999999,0.000666,0.001068,-0.000613,-0.346091,-0.702436,0.301319,0.544070,101.688376,33.764509,-74.197481
23301,-6.721471,10.221976,-2.055688,-0.016480,-0.230758,2.590502,0.199141,0.272704,-0.227942,-0.067126,0.102317,-0.020363,0.999998,0.000996,0.001364,-0.001140,-0.345160,-0.703869,0.300593,0.543209,101.924500,33.861804,-73.982029
23302,-6.364757,9.339606,-1.746209,-0.222442,-0.083966,1.621077,0.106086,0.284636,-0.266655,-0.063548,0.093490,-0.017322,0.999998,0.000530,0.001423,-0.001333,-0.344466,-0.705233,0.299455,0.542509,102.116141,33.978802,-73.751845
23303,-5.909050,8.738770,-0.997467,-0.830478,-0.244939,0.748003,0.011221,0.172077,-0.228633,-0.058999,0.087456,-0.009919,0.999999,0.000056,0.000860,-0.001143,-0.344042,-0.706066,0.298388,0.542283,102.207991,34.087517,-73.603021
23304,-5.635105,8.347855,-0.533303,-1.192186,-0.328747,0.197112,-0.256976,0.071582,-0.183683,-0.056276,0.083523,-0.005420,0.999999,-0.001285,0.000358,-0.000918,-0.344535,-0.706099,0.296923,0.542731,102.105122,34.183291,-73.528210
23305,-5.663245,7.941862,-0.315135,-1.360172,-0.115525,-0.149291,-0.525122,-0.022303,-0.163855,-0.056567,0.079456,-0.003366,0.999996,-0.002626,-0.000112,-0.000819,-0.345888,-0.705380,0.294962,0.543873,101.810664,34.279211,-73.520590
23306,-5.599587,7.383583,-0.400430,-1.190388,0.168720,-0.615554,-0.652998,-0.104649,-0.177931,-0.055928,0.073872,-0.004275,0.999994,-0.003265,-0.000523,-0.000890,-0.347528,-0.704231,0.292743,0.545513,101.412494,34.392669,-73.567350
23307,-5.206678,7.097329,-0.829335,-0.616990,0.092803,-0.993401,-0.724832,-0.043984,-0.206744,-0.051992,0.070996,-0.008562,0.999993,-0.003624,-0.000220,-0.001034,-0.349428,-0.703155,0.290117,0.547088,100.997696,34.515182,-73.570226
23308,-4.747992,7.061965,-1.337129,0.040969,-0.164143,-1.200266,-0.832446,0.060162,-0.216652,-0.047408,0.070615,-0.013651,0.999991,-0.004162,0.000301,-0.001083,-0.351823,-0.702180,0.286975,0.548460,100.562083,34.632213,-73.501456
23309,-4.684548,7.090690,-1.670457,0.435839,-0.169794,-1.164320,-0.848641,0.123870,-0.182579,-0.046791,0.070878,-0.016976,0.999990,-0.004243,0.000619,-0.000913,-0.354455,-0.701287,0.283792,0.549563,100.138805,34.723778,-73.394541
23310,-4.968558,6.952170,-1.922881,0.665352,0.186962,-1.081199,-0.707858,0.112482,-0.144569,-0.049646,0.069489,-0.019447,0.999993,-0.003539,0.000562,-0.000723,-0.356674,-0.700550,0.281143,0.550429,99.789228,34.795724,-73.300400
23311,-5.400546,6.810472,-2.107528,0.778195,0.648919,-0.926555,-0.438352,0.077123,-0.108400,-0.053977,0.068088,-0.021204,0.999997,-0.002192,0.000386,-0.000542,-0.357998,-0.700136,0.279424,0.550971,99.577275,34.850915,-73.235474
23312,-5.747150,6.791850,-1.965188,0.570556,0.902806,-0.763912,0.002911,0.021721,-0.063441,-0.057452,0.067937,-0.019645,1.000000,0.000015,0.000109,-0.000317,-0.357820,-0.700297,0.279176,0.551008,99.593750,34.886203,-73.213680
23313,-5.975304,7.247611,-1.496673,0.051361,0.715971,-0.328129,0.329569,-0.011851,-0.011811,-0.059748,0.072504,-0.014851,0.999999,0.001648,-0.000059,-0.000059,-0.356595,-0.700875,0.280069,0.550614,99.780341,34.895417,-73.221313
23314,-6.190376,7.572870,-1.101340,-0.408970,0.609088,0.002797,0.436934,-0.067866,0.010502,-0.061904,0.075749,-0.010869,0.999998,0.002185,-0.000339,0.000053,-0.354974,-0.701458,0.281434,0.550223,100.005320,34.897725,-73.269785
23315,-6.228485,7.809130,-0.940445,-0.600383,0.460815,0.191717,0.396594,-0.128628,-0.013584,-0.062274,0.078114,-0.009290,0.999998,0.001983,-0.000643,-0.000068,-0.353342,-0.701831,0.282710,0.550143,100.184513,34.919711,-73.357448
23316,-5.910240,8.148490,-0.847295,-0.635362,-0.016011,0.269117,0.272026,-0.169502,-0.043237,-0.059078,0.081509,-0.008412,0.999999,0.001360,-0.000848,-0.000216,-0.352006,-0.701913,0.283610,0.550432,100.278730,34.962934,-73.469188
23317,-5.570523,8.409187,-1.141203,-0.274842,-0.392209,0.327240,0.031100,-0.154140,-0.072388,-0.055666,0.084114,-0.011442,1.000000,0.000155,-0.000771,-0.000362,-0.351457,-0.701651,0.283718,0.551061,100.242532,35.020885,-73.567093
23318,-5.514764,8.538642,-1.426520,0.021338,-0.469568,0.440850,-0.018126,-0.068188,-0.088626,-0.055105,0.085410,-0.014292,1.000000,-0.000091,-0.000341,-0.000443,-0.351156,-0.701564,0.283481,0.551484,100.213525,35.079384,-73.603588
23319,-5.608843,8.686603,-1.439899,0.017007,-0.491251,0.615537,-0.021563,-0.017372,-0.117429,-0.056036,0.086897,-0.014413,1.000000,-0.000108,-0.000087,-0.000587,-0.350862,-0.701650,0.283046,0.551786,100.204308,35.148772,-73.601833
23320,-5.696987,8.488459,-1.790575,0.348372,-0.253922,0.556974,-0.125414,0.017769,-0.162200,-0.056903,0.084920,-0.017954,0.999999,-0.000627,0.000089,-0.000811,-0.350856,-0.701716,0.282104,0.552189,100.153116,35.240010,-73.570024
23321,-5.683080,8.204390,-1.816047,0.389678,-0.106265,0.323598,-0.105680,0.039081,-0.195852,-0.056754,0.082090,-0.018193,0.999999,-0.000528,0.000195,-0.000979,-0.350720,-0.701919,0.281062,0.552548,100.123788,35.347937,-73.519668
23322,-5.517016,7.839635,-1.573883,0.205226,-0.079380,-0.100530,-0.145268,0.067290,-0.209796,-0.055093,0.078443,-0.015777,0.999999,-0.000726,0.000336,-0.001049,-0.350721,-0.702152,0.279810,0.552887,100.084552,35.461064,-73.447766
23323,-5.572806,7.301409,-1.417309,0.051904,0.240926,-0.522115,-0.128077,0.084293,-0.203188,-0.055660,0.073062,-0.014196,0.999999,-0.000640,0.000421,-0.001016,-0.350706,-0.702449,0.278600,0.553130,100.061269,35.568646,-73.365186
23324,-5.559779,6.758153,-1.501569,0.143721,0.555654,-0.952153,-0.045270,0.058849,-0.196125,-0.055536,0.067633,-0.015015,0.999999,-0.000226,0.000294,-0.000981,-0.350381,-0.702812,0.277687,0.553333,100.075227,35.674944,-73.300710
23325,-5.450762,6.393222,-1.794985,0.455259,0.728284,-1.264682,0.041749,0.048605,-0.179067,-0.054455,0.063985,-0.017923,1.000000,0.000209,0.000243,-0.000895,-0.349785,-0.703273,0.277094,0.553422,100.133438,35.772470,-73.245625
23326,-5.272912,6.221518,-2.026265,0.715271,0.720497,-1.470873,0.157128,0.061117,-0.150801,-0.052688,0.062271,-0.020198,0.999999,0.000786,0.000306,-0.000754,-0.348876,-0.703933,0.276896,0.553256,100.261433,35.852886,-73.184769
23327,-5.270557,6.123626,-2.015538,0.686611,0.758480,-1.548721,0.420345,0.069588,-0.114588,-0.052677,0.061309,-0.020008,0.999998,0.002102,0.000348,-0.000573,-0.347154,-0.705021,0.277538,0.552632,100.540846,35.911672,-73.122589
23328,-5.257710,6.465387,-1.966107,0.604760,0.512557,-1.287332,0.601611,0.075328,-0.090864,-0.052555,0.064736,-0.019447,0.999995,0.003008,0.000377,-0.000454,-0.344861,-0.706404,0.278753,0.551690,100.925428,35.956392,-73.058691
23329,-5.514543,6.442603,-1.901823,0.435649,0.691634,-1.160183,0.769822,0.071644,-0.059931,-0.055133,0.064515,-0.018750,0.999992,0.003849,0.000358,-0.000300,-0.342053,-0.708012,0.280544,0.550467,101.402198,35.983551,-73.001544
23330,-6.020751,6.582834,-1.321879,-0.315302,0.871773,-0.842150,1.234449,-0.019716,-0.022323,-0.060199,0.065915,-0.012818,0.999981,0.006172,-0.000099,-0.000112,-0.337563,-0.710095,0.283895,0.548836,102.105526,36.000014,-73.012378
23331,-6.151911,6.899716,-1.141508,-0.610127,0.723365,-0.546672,1.292931,-0.132572,-0.024597,-0.061503,0.069077,-0.011009,0.999979,0.006465,-0.000663,-0.000123,-0.332688,-0.711938,0.287578,0.547505,102.796274,36.031586,-73.101109
23332,-6.167694,6.909529,-1.399377,-0.437545,0.742750,-0.485485,1.170546,-0.159601,-0.070456,-0.061642,0.069198,-0.013638,0.999982,0.005853,-0.000798,-0.000352,-0.328069,-0.713545,0.290796,0.546500,103.410946,36.093334,-73.200322
23333,-6.239645,7.522187,-1.750290,-0.215227,0.441240,0.103890,1.035856,-0.149304,-0.129607,-0.062335,0.075352,-0.017159,0.999986,0.005179,-0.000747,-0.000648,-0.323776,-0.715019,0.293410,0.545736,103.958264,36.187169,-73.282240
23334,-6.259224,7.999277,-2.035956,-0.036441,0.163853,0.545055,0.862435,-0.100701,-0.189344,-0.062506,0.080139,-0.020046,0.999990,0.004312,-0.000504,-0.000947,-0.320001,-0.716419,0.295249,0.545135,104.433095,36.308235,-73.318947
23335,-6.268098,8.336101,-2.120637,-0.041918,-0.070146,0.830130,0.837390,-0.055541,-0.240721,-0.062575,0.083524,-0.020874,0.999990,0.004187,-0.000278,-0.001204,-0.316238,-0.717960,0.296760,0.544481,104.917646,36.451177,-73.314506
23336,-6.052980,8.711468,-2.242195,0.037025,-0.501307,1.017944,0.673097,-0.005197,-0.293410,-0.060401,0.087278,-0.022130,0.999993,0.003365,-0.000026,-0.001467,-0.312989,-0.719448,0.297549,0.543964,105.335884,36.615997,-73.263794
23337,-5.937346,8.478398,-2.400313,0.193020,-0.469521,0.800458,0.408833,0.081199,-0.321089,-0.059247,0.084928,-0.023806,0.999997,0.002044,0.000406,-0.001605,-0.310743,-0.720789,0.297382,0.543568,105.641875,36.782326,-73.147301
23338,-6.139093,8.213578,-2.099616,-0.164248,-0.231436,0.650522,0.632467,0.064177,-0.336964,-0.061259,0.082305,-0.020716,0.999994,0.003162,0.000321,-0.001685,-0.307616,-0.722450,0.297788,0.542919,106.072567,36.959734,-73.037428
23339,-5.992622,8.317256,-1.674069,-0.602413,-0.509300,0.544343,0.669830,-0.013614,-0.339268,-0.059784,0.083330,-0.016466,0.999993,0.003349,-0.000068,-0.001696,-0.304232,-0.723948,0.298405,0.542492,106.493570,37.149982,-72.979193
23340,-5.725506,7.965198,-1.477252,-0.734439,-0.556212,0.064513,0.471114,-0.054098,-0.319852,-0.057124,0.079778,-0.014600,0.999996,0.002356,-0.000270,-0.001599,-0.301552,-0.724999,0.298609,0.542472,106.783013,37.336176,-72.950869
23341,-5.785794,7.751165,-1.464095,-0.762554,-0.412077,-0.068554,0.348311,-0.092115,-0.280389,-0.057742,0.077618,-0.014532,0.999997,0.001742,-0.000461,-0.001402,-0.299369,-0.725695,0.298680,0.542711,106.981362,37.506708,-72.956377
23342,-5.903968,7.458935,-1.452547,-0.784219,-0.166875,-0.223134,0.301286,-0.140636,-0.227721,-0.058945,0.074678,-0.014454,0.999998,0.001506,-0.000703,-0.001139,-0.297423,-0.726110,0.298884,0.543114,107.126298,37.656798,-73.005617
23343,-5.982824,7.297875,-1.156179,-1.083459,-0.060789,-0.367463,0.385343,-0.207545,-0.180105,-0.059751,0.073055,-0.011483,0.999997,0.001927,-0.001038,-0.000901,-0.295202,-0.726391,0.299589,0.543561,107.284552,37.792029,-73.111293
23344,-5.770253,7.328287,-1.203719,-0.999171,-0.258171,-0.464772,0.212507,-0.227470,-0.172005,-0.057626,0.073345,-0.012025,0.999998,0.001063,-0.001137,-0.000860,-0.293597,-0.726349,0.299880,0.544325,107.334471,37.926627,-73.232114
23345,-5.598213,7.296144,-1.646811,-0.518314,-0.341965,-0.490668,-0.131667,-0.140570,-0.207614,-0.055895,0.073009,-0.016555,0.999999,-0.000658,-0.000703,-0.001038,-0.293277,-0.726088,0.298978,0.545341,107.228285,38.065618,-73.285515
23346,-5.733852,7.446692,-2.195170,-0.010406,-0.299973,-0.165986,-0.351936,-0.042094,-0.251991,-0.057240,0.074500,-0.022095,0.999998,-0.001760,-0.000210,-0.001260,-0.293780,-0.725838,0.297168,0.546391,107.043978,38.212422,-73.261143
23347,-5.869250,7.749715,-2.880256,0.622011,-0.341709,0.301573,-0.437679,0.023728,-0.283764,-0.058586,0.077517,-0.028965,0.999997,-0.002188,0.000119,-0.001419,-0.294606,-0.725684,0.294911,0.547374,106.842592,38.365467,-73.184874
23348,-5.962875,8.094165,-3.304519,1.004867,-0.468166,0.711676,-0.304529,0.067661,-0.273019,-0.059529,0.080973,-0.033148,0.999998,-0.001523,0.000338,-0.001365,-0.295039,-0.725827,0.292990,0.547982,106.735456,38.505732,-73.080221
23349,-6.180835,8.405268,-2.905681,0.552251,-0.569230,0.988479,-0.091972,0.060987,-0.212426,-0.061728,0.084105,-0.029077,0.999999,-0.000460,0.000305,-0.001062,-0.294858,-0.726174,0.291881,0.548212,106.739082,38.613701,-72.993279
23350,-6.520166,8.334218,-2.352332,-0.054305,-0.346746,1.021611,0.114783,-0.018562,-0.126554,-0.065147,0.083397,-0.023482,1.000000,0.000574,-0.000093,-0.000633,-0.294043,-0.726482,0.291767,0.548301,106.815513,38.687859,-72.979894
23351,-6.825162,8.176530,-1.988037,-0.468901,-0.069059,1.011642,0.266101,-0.166065,-0.046028,-0.068216,0.081807,-0.019828,0.999999,0.001331,-0.000830,-0.000230,-0.292686,-0.726489,0.292578,0.548586,106.902824,38.742170,-73.087467
23352,-6.860848,8.013404,-1.552990,-0.887333,0.009668,0.813234,0.296177,-0.302673,-0.000917,-0.068585,0.080157,-0.015515,0.999998,0.001481,-0.001513,-0.000005,-0.291140,-0.726098,0.293833,0.549256,106.941448,38.794810,-73.300454
23353,-6.733872,7.735959,-1.145729,-1.220351,0.050639,0.434798,0.218447,-0.384034,-0.004177,-0.067315,0.077374,-0.011502,0.999998,0.001092,-0.001920,-0.000021,-0.289749,-0.725370,0.294980,0.550337,106.899448,38.862619,-73.570455
23354,-6.226784,7.536289,-1.221871,-0.996000,-0.194855,-0.013126,0.004105,-0.396259,-0.045403,-0.062226,0.075377,-0.012340,0.999998,0.000021,-0.001981,-0.000227,-0.289001,-0.724356,0.295404,0.551836,106.734433,38.954884,-73.840530
23355,-5.681994,7.541234,-1.596558,-0.483740,-0.576609,-0.266083,-0.238921,-0.326773,-0.088082,-0.056760,0.075418,-0.016148,0.999998,-0.001195,-0.001634,-0.000440,-0.289118,-0.723242,0.294902,0.553502,106.465588,39.058212,-74.053558
23356,-5.558236,7.576552,-1.984094,-0.044706,-0.662830,-0.231807,-0.364021,-0.237300,-0.110409,-0.055517,0.075760,-0.020045,0.999997,-0.001820,-0.001186,-0.000552,-0.289754,-0.722225,0.293841,0.555059,106.167299,39.158787,-74.199338
23357,-5.606093,7.584117,-2.648876,0.634325,-0.574939,-0.054073,-0.454209,-0.154659,-0.122241,-0.055994,0.075815,-0.026704,0.999997,-0.002271,-0.000773,-0.000611,-0.290805,-0.721320,0.292367,0.556464,105.855015,39.252020,-74.285034
23358,-5.686010,7.451342,-3.169410,1.178080,-0.380031,0.003929,-0.442368,-0.043414,-0.117637,-0.056809,0.074476,-0.031871,0.999997,-0.002212,-0.000217,-0.000588,-0.291986,-0.720731,0.290778,0.557440,105.598814,39.325266,-74.292897
23359,-6.047581,7.231740,-3.181684,1.163245,0.035115,0.068608,-0.285504,0.032124,-0.098294,-0.060445,0.072302,-0.031910,0.999999,-0.001428,0.000161,-0.000491,-0.292765,-0.720550,0.289586,0.557886,105.463808,39.376065,-74.251186
23360,-6.231603,7.132955,-2.960991,0.933779,0.213767,0.064648,-0.174472,0.039730,-0.078403,-0.062294,0.071328,-0.029660,1.000000,-0.000872,0.000199,-0.000392,-0.293209,-0.720524,0.288762,0.558112,105.393643,39.414909,-74.207805
23361,-6.361559,7.053975,-2.767691,0.731879,0.340872,0.048158,-0.076502,0.045078,-0.048048,-0.063605,0.070544,-0.027690,1.000000,-0.000383,0.000225,-0.000240,-0.293394,-0.720611,0.288314,0.558135,105.377954,39.436063,-74.166841
23362,-6.534410,7.161468,-2.482579,0.406110,0.365923,0.179785,0.093231,0.008713,-0.022340,-0.065337,0.071634,-0.024790,1.000000,0.000466,0.000044,-0.000112,-0.292985,-0.720810,0.288485,0.558004,105.440148,39.448674,-74.156635
23363,-6.517511,7.365490,-2.137687,0.046519,0.179853,0.250293,0.194633,-0.049105,0.018909,-0.065177,0.073670,-0.021321,0.999999,0.000973,-0.000246,0.000095,-0.292243,-0.720935,0.289173,0.557876,105.528641,39.447210,-74.196220
23364,-6.629076,7.365739,-1.895332,-0.226331,0.236958,0.271144,0.279204,-0.083633,0.063303,-0.066306,0.073663,-0.018878,0.999999,0.001396,-0.000418,0.000317,-0.291269,-0.721023,0.290306,0.557683,105.644676,39.426759,-74.269010
23365,-6.605311,7.217321,-1.931605,-0.187126,0.321026,0.152897,0.326374,-0.145292,0.083639,-0.066069,0.072177,-0.019246,0.999998,0.001632,-0.000726,0.000418,-0.290092,-0.720975,0.291733,0.557614,105.756824,39.404620,-74.390248
23366,-6.446531,7.131624,-2.053057,-0.042486,0.270002,0.013712,0.345874,-0.151904,0.071177,-0.064475,0.071329,-0.020456,0.999998,0.001729,-0.000760,0.000356,-0.288798,-0.720954,0.293178,0.557556,105.879124,39.390737,-74.513408
23367,-6.334962,7.141288,-1.847691,-0.233687,0.159194,-0.093441,0.292052,-0.149112,0.030450,-0.063347,0.071430,-0.018420,0.999999,0.001460,-0.000746,0.000152,-0.287589,-0.720918,0.294321,0.557624,105.976732,39.398875,-74.626624
23368,-6.127569,6.918111,-2.331412,0.297614,0.189206,-0.288063,0.101949,-0.131193,-0.016940,-0.061255,0.069198,-0.023319,1.000000,0.000510,-0.000656,-0.000085,-0.286958,-0.720730,0.294737,0.557974,105.979984,39.430543,-74.717115
23369,-6.025755,6.829092,-2.899971,0.881277,0.213750,-0.297767,0.089434,-0.077712,-0.042715,-0.060232,0.068317,-0.028993,1.000000,0.000447,-0.000389,-0.000214,-0.286380,-0.720708,0.294948,0.558187,106.003231,39.467806,-74.764523
23370,-6.027704,7.118137,-3.113670,1.053387,0.033675,-0.035916,0.148647,-0.024693,-0.038296,-0.060260,0.071216,-0.031091,1.000000,0.000743,-0.000123,-0.000191,-0.285677,-0.720914,0.295264,0.558113,106.084268,39.494451,-74.774659
23371,-6.094296,7.396998,-2.981340,0.867406,-0.119721,0.186195,0.242360,0.005493,0.000430,-0.060944,0.074006,-0.029722,0.999999,0.001212,0.000027,0.000002,-0.284790,-0.721279,0.295939,0.557738,106.227245,39.494809,-74.771535
23372,-6.201719,7.688786,-2.631188,0.450139,-0.266501,0.396534,0.337742,0.001493,0.045700,-0.062035,0.076918,-0.026182,0.999999,0.001689,0.000007,0.000229,-0.283678,-0.721701,0.297046,0.557169,106.417510,39.471074,-74.780319
23373,-6.292454,7.726117,-2.112867,-0.102852,-0.266094,0.369190,0.343966,-0.030648,0.077890,-0.062951,0.077273,-0.021005,0.999998,0.001720,-0.000153,0.000389,-0.282586,-0.721991,0.298333,0.556661,106.591987,39.434749,-74.819236
23374,-6.368807,7.485903,-1.891167,-0.327923,-0.065638,0.190567,0.291199,-0.066540,0.088040,-0.063715,0.074858,-0.018824,0.999999,0.001456,-0.000333,0.000440,-0.281656,-0.722091,0.299559,0.556344,106.719081,39.398971,-74.885526
23375,-6.377309,7.555339,-1.926909,-0.319445,-0.100057,0.254791,0.253738,-0.087476,0.086036,-0.063797,0.075550,-0.019201,0.999999,0.001269,-0.000437,0.000430,-0.280826,-0.722080,0.300703,0.556161,106.815087,39.367707,-74.966696
23376,-6.264536,7.730316,-1.889197,-0.366578,-0.299100,0.304002,0.163732,-0.067259,0.084746,-0.062672,0.077292,-0.018850,1.000000,0.000819,-0.000336,0.000424,-0.280346,-0.722001,0.301562,0.556041,106.869252,39.334024,-75.032899
23377,-6.231486,7.597157,-1.527193,-0.700672,-0.255267,0.103180,0.035373,-0.031523,0.080423,-0.062343,0.075949,-0.015268,1.000000,0.000177,-0.000158,0.000402,-0.280372,-0.721846,0.302000,0.555992,106.866112,39.296646,-75.073200
23378,-6.238130,7.174111,-1.589160,-0.584483,0.039868,-0.191651,-0.151541,-0.008920,0.045383,-0.062397,0.071715,-0.015949,1.000000,-0.000758,-0.000045,0.000227,-0.281008,-0.721546,0.301758,0.556191,106.771221,39.274851,-75.089589
23379,-6.246886,6.439014,-2.500560,0.399987,0.599753,-0.527345,-0.157456,0.024574,-0.006676,-0.062470,0.064373,-0.025049,1.000000,-0.000787,0.000123,-0.000033,-0.281572,-0.721407,0.301267,0.556352,106.694628,39.275937,-75.071430
23380,-6.193735,5.960558,-3.223133,1.168456,0.925579,-0.754145,0.152511,0.071200,-0.033783,-0.061939,0.059641,-0.032164,1.000000,0.000763,0.000356,-0.000169,-0.281012,-0.721876,0.301472,0.555915,106.820614,39.284342,-75.014109
23381,-6.155349,5.948437,-3.385980,1.309160,0.905954,-0.746140,0.524027,0.103817,-0.036631,-0.061560,0.059584,-0.033672,0.999996,0.002620,0.000519,-0.000183,-0.279152,-0.722957,0.302654,0.554804,107.174116,39.288505,-74.933361
23382,-6.197718,6.256830,-3.136327,0.972888,0.699768,-0.541241,0.721048,0.082519,-0.026310,-0.061982,0.062689,-0.031112,0.999993,0.003605,0.000413,-0.000132,-0.276572,-0.724234,0.304446,0.553449,107.630046,39.290416,-74.869494
23383,-6.189141,6.525293,-2.864267,0.621788,0.479732,-0.406736,0.759072,0.031842,-0.013983,-0.061891,0.065365,-0.028385,0.999993,0.003795,0.000159,-0.000070,-0.273809,-0.725392,0.306454,0.552197,108.082901,39.293934,-74.844527
23384,-6.095691,7.110795,-2.378363,0.034391,-0.023103,-0.149587,0.698697,0.008252,-0.009763,-0.060954,0.071193,-0.023532,0.999994,0.003493,0.000041,-0.000049,-0.271234,-0.726389,0.308337,0.551108,108.490614,39.299454,-74.836627
23385,-6.099690,7.573839,-1.863381,-0.579718,-0.368070,0.065053,0.522018,0.013607,-0.028636,-0.060987,0.075795,-0.018432,0.999997,0.002610,0.000068,-0.000143,-0.269257,-0.727180,0.309657,0.550294,108.801786,39.314001,-74.820920
23386,-6.112042,7.612059,-1.878688,-0.610938,-0.393929,0.102021,0.412205,0.048502,-0.031082,-0.061113,0.076169,-0.018615,0.999998,0.002061,0.000243,-0.000155,-0.267723,-0.727921,0.310615,0.549521,109.066493,39.323519,-74.779640
23387,-6.072754,7.728547,-2.313487,-0.235804,-0.489375,0.270259,0.386946,0.068908,-0.036272,-0.060721,0.077341,-0.022964,0.999998,0.001935,0.000345,-0.000181,-0.266299,-0.728687,0.311458,0.548720,109.326091,39.331662,-74.723204
23388,-6.110933,7.674148,-2.683647,0.086880,-0.417712,0.348802,0.425075,0.051080,-0.014024,-0.061111,0.076803,-0.026658,0.999998,0.002125,0.000255,-0.000070,-0.264767,-0.729420,0.312507,0.547891,109.596690,39.331165,-74.684247
23389,-6.137439,7.875109,-2.495097,-0.170413,-0.548039,0.462599,0.464473,-0.015606,0.030829,-0.061385,0.078799,-0.024773,0.999997,0.002322,-0.000078,0.000154,-0.263110,-0.729946,0.313916,0.547183,109.852793,39.319057,-74.703417
23390,-6.040789,7.966693,-2.195792,-0.483142,-0.696772,0.388385,0.289983,-0.062871,0.059616,-0.060425,0.079681,-0.021861,0.999999,0.001450,-0.000314,0.000298,-0.262092,-0.730067,0.315013,0.546879,109.983923,39.300872,-74.762402
23391,-6.011638,7.814440,-1.979741,-0.670122,-0.624034,0.201611,0.090603,-0.087688,0.066073,-0.060134,0.078134,-0.019788,1.000000,0.000453,-0.000438,0.000330,-0.261782,-0.729846,0.315621,0.546973,109.988377,39.283972,-74.840703
23392,-5.965547,7.596128,-1.856309,-0.735738,-0.513242,-0.018299,-0.130338,-0.076973,0.056187,-0.059670,0.075932,-0.018636,1.000000,-0.000652,-0.000385,0.000281,-0.262265,-0.729382,0.315573,0.547387,109.873006,39.270373,-74.908655
23393,-5.997158,7.227995,-2.337200,-0.197788,-0.220735,-0.138783,-0.260811,-0.012444,0.034784,-0.059983,0.072239,-0.023470,0.999999,-0.001304,-0.000062,0.000174,-0.263270,-0.728954,0.315007,0.547801,109.714333,39.255538,-74.926617
23394,-6.179877,6.986471,-2.704729,0.178226,0.097624,-0.103109,-0.216471,0.011902,0.031706,-0.061811,0.069826,-0.027119,0.999999,-0.001082,0.000060,0.000159,-0.264141,-0.728657,0.314517,0.548058,109.592706,39.237754,-74.926471
23395,-6.395270,6.873767,-2.838016,0.291688,0.344191,-0.014782,-0.072013,0.014859,0.021660,-0.063962,0.068721,-0.028400,1.000000,-0.000360,0.000074,0.000108,-0.264463,-0.728572,0.314383,0.548092,109.556357,39.224710,-74.922070
23396,-6.593013,7.098114,-2.941169,0.316746,0.349752,0.300614,-0.016713,-0.019488,0.010019,-0.065931,0.070975,-0.029424,1.000000,-0.000084,-0.000097,0.000050,-0.264497,-0.728487,0.314403,0.548177,109.538785,39.224661,-74.938378
23397,-6.667218,7.279036,-2.805414,0.142152,0.279266,0.444423,0.036278,-0.057170,0.002516,-0.066665,0.072795,-0.028060,1.000000,0.000181,-0.000286,0.000013,-0.264260,-0.728378,0.314591,0.548328,109.535730,39.235757,-74.979440
23398,-6.546015,7.615122,-2.430506,-0.250477,-0.051404,0.516028,0.063994,-0.103820,0.003602,-0.065449,0.076158,-0.024315,1.000000,0.000320,-0.000519,0.000018,-0.263850,-0.728178,0.314920,0.548602,109.528215,39.255337,-75.052952
23399,-6.333442,7.795199,-2.203286,-0.451961,-0.340205,0.454351,-0.026262,-0.120016,0.009738,-0.063325,0.077946,-0.022081,1.000000,-0.000131,-0.000600,0.000049,-0.263761,-0.727803,0.315046,0.549071,109.460411,39.274525,-75.139672
23400,-6.130068,7.821126,-2.086342,-0.514608,-0.513096,0.315118,-0.133058,-0.136936,0.023339,-0.061295,0.078190,-0.020957,1.000000,-0.000665,-0.000685,0.000117,-0.264070,-0.727220,0.314950,0.549749,109.322155,39.289592,-75.241281
23401,-5.999456,7.628551,-2.130664,-0.392040,-0.477526,0.104279,-0.210745,-0.139097,0.046156,-0.059997,0.076249,-0.021429,0.999999,-0.001054,-0.000695,0.000231,-0.264721,-0.726490,0.314726,0.550529,109.134458,39.292368,-75.350364
23402,-5.973465,7.467347,-2.205291,-0.262335,-0.380858,-0.009987,-0.246424,-0.142281,0.057159,-0.059740,0.074629,-0.022187,0.999999,-0.001232,-0.000711,0.000286,-0.265526,-0.725688,0.314447,0.551359,108.923573,39.289597,-75.464042
23403,-6.024884,7.209132,-2.422690,0.007233,-0.155144,-0.111345,-0.255123,-0.137636,0.067577,-0.060256,0.072040,-0.024360,0.999999,-0.001276,-0.000688,0.000338,-0.266399,-0.724866,0.314176,0.552172,108.707859,39.279877,-75.577229
23404,-6.112579,6.904384,-2.607221,0.243460,0.127231,-0.233740,-0.249291,-0.100301,0.049400,-0.061130,0.068996,-0.026189,0.999999,-0.001246,-0.000502,0.000247,-0.267258,-0.724185,0.313804,0.552863,108.515175,39.272989,-75.659586
23405,-6.257509,6.680313,-2.438291,0.107323,0.382824,-0.348536,-0.140944,-0.092403,0.033727,-0.062575,0.066775,-0.024459,1.000000,-0.000705,-0.000462,0.000169,-0.267695,-0.723692,0.313664,0.553376,108.390086,39.272908,-75.732985
23406,-6.219970,6.702745,-2.260332,-0.048919,0.334965,-0.399436,-0.057758,-0.092276,0.013777,-0.062194,0.067017,-0.022651,1.000000,-0.000289,-0.000461,0.000069,-0.267773,-0.723343,0.313681,0.553784,108.316005,39.283668,-75.801351
23407,-6.179266,6.751185,-2.690531,0.374227,0.289482,-0.284994,0.014114,-0.055925,0.006338,-0.061787,0.067512,-0.026918,1.000000,0.000071,-0.000280,0.000032,-0.267630,-0.723201,0.313823,0.553958,108.300000,39.291776,-75.842759
23408,-6.250232,7.040772,-2.640709,0.264350,0.147763,-0.039280,0.155064,-0.059230,0.017441,-0.062501,0.070423,-0.026371,1.000000,0.000775,-0.000296,0.000087,-0.267001,-0.723223,0.314398,0.553907,108.362013,39.294581,-75.888763
23409,-6.283517,7.236000,-2.346321,-0.066364,0.029785,0.053528,0.220207,-0.120567,0.031009,-0.062832,0.072376,-0.023421,0.999999,0.001101,-0.000603,0.000155,-0.266079,-0.723137,0.315285,0.553958,108.431677,39.301016,-75.981340
23410,-6.284801,7.130708,-2.425120,0.018420,0.100167,-0.003683,0.222143,-0.132453,0.043203,-0.062847,0.071320,-0.024214,0.999999,0.001111,-0.000662,0.000216,-0.265163,-0.723003,0.316236,0.554031,108.495726,39.303194,-76.084802
23411,-6.283782,7.144298,-2.877865,0.447817,0.102631,0.116962,0.209422,-0.139107,0.046140,-0.062834,0.071459,-0.028748,0.999999,0.001047,-0.000696,0.000231,-0.264291,-0.722826,0.317172,0.554144,108.548709,39.304939,-76.193945
23412,-6.258623,7.409035,-3.037126,0.556960,-0.089001,0.334734,0.185180,-0.140566,0.044900,-0.062582,0.074104,-0.030347,0.999999,0.000926,-0.000703,0.000225,-0.263499,-0.722615,0.318036,0.554300,108.587727,39.307825,-76.303490
23413,-6.181400,7.627839,-2.873848,0.371526,-0.297705,0.406216,0.150252,-0.121301,0.052782,-0.061817,0.076284,-0.028719,0.999999,0.000751,-0.000607,0.000264,-0.262888,-0.722396,0.318807,0.554433,108.613729,39.302824,-76.401704
23414,-6.047179,7.799657,-2.782974,0.281393,-0.512100,0.424819,-0.046196,-0.096997,0.063225,-0.060483,0.077971,-0.027877,1.000000,-0.000231,-0.000485,0.000316,-0.263051,-0.721972,0.319039,0.554775,108.536859,39.287801,-76.484955
23415,-6.014667,7.607505,-2.936977,0.481808,-0.398594,0.300924,-0.181715,-0.039162,0.076330,-0.060170,0.076025,-0.029451,0.999999,-0.000909,-0.000196,0.000382,-0.263834,-0.721506,0.318866,0.555108,108.405746,39.254921,-76.530968
23416,-6.099031,7.776850,-2.499585,0.030420,-0.448327,0.371788,-0.132024,-0.094430,0.090554,-0.061014,0.077724,-0.025076,1.000000,-0.000660,-0.000472,0.000453,-0.264388,-0.720931,0.318955,0.555541,108.276988,39.224281,-76.618614
23417,-5.973641,7.739034,-2.458608,0.037015,-0.508956,0.255150,-0.178210,-0.090082,0.096554,-0.059763,0.077340,-0.024682,0.999999,-0.000891,-0.000450,0.000483,-0.265132,-0.720295,0.318931,0.556025,108.122516,39.189337,-76.704822
23418,-6.190107,7.583265,-2.679905,0.258021,-0.225306,0.330677,-0.218121,-0.046529,0.106379,-0.061935,0.075770,-0.026896,0.999999,-0.001091,-0.000233,0.000532,-0.266116,-0.719712,0.318773,0.556400,107.963668,39.141195,-76.762138
23419,-6.384326,7.251673,-2.582451,0.199353,0.148361,0.184995,-0.107001,-0.088847,0.118647,-0.063875,0.072465,-0.025892,1.000000,-0.000535,-0.000444,0.000593,-0.266667,-0.719137,0.319025,0.556735,107.847698,39.093647,-76.852152
23420,-6.484844,6.825002,-2.220081,-0.092296,0.502945,-0.153436,0.053882,-0.126141,0.117117,-0.064874,0.068218,-0.022223,1.000000,0.000269,-0.000631,0.000586,-0.266575,-0.718677,0.319768,0.556947,107.808189,39.053442,-76.967510
23421,-6.343482,6.460507,-2.070579,-0.153077,0.635993,-0.547846,0.210878,-0.161085,0.105972,-0.063452,0.064593,-0.020689,0.999999,0.001054,-0.000805,0.000530,-0.265832,-0.718343,0.320955,0.557050,107.844412,39.025381,-77.105207
23422,-6.143748,6.476979,-2.325344,0.120686,0.482522,-0.600917,0.259008,-0.161230,0.090778,-0.061448,0.064772,-0.023219,0.999999,0.001295,-0.000806,0.000454,-0.264872,-0.718098,0.322221,0.557093,107.910803,39.005820,-77.239182
23423,-5.876718,6.655076,-2.860843,0.653089,0.177184,-0.509336,0.084126,-0.104818,0.074911,-0.058777,0.066541,-0.028611,1.000000,0.000421,-0.000524,0.000375,-0.264588,-0.717800,0.322867,0.557237,107.903775,38.984932,-77.330332
23424,-5.855131,7.148023,-2.734213,0.448114,-0.160480,-0.188439,0.126167,-0.068066,0.069283,-0.058567,0.071477,-0.027317,1.000000,0.000631,-0.000340,0.000346,-0.264194,-0.717672,0.323561,0.557187,107.938353,38.960757,-77.394018
23425,-5.741617,7.579010,-2.405160,0.069586,-0.530196,-0.019506,0.084569,-0.037064,0.066619,-0.057437,0.075781,-0.024030,1.000000,0.000423,-0.000185,0.000333,-0.263994,-0.717576,0.324089,0.557097,107.962698,38.932478,-77.435759
23426,-5.781327,7.937767,-2.517627,0.108799,-0.725737,0.298287,-0.039227,0.028071,0.067473,-0.057844,0.079353,-0.025184,1.000000,-0.000196,0.000140,0.000337,-0.264345,-0.717499,0.324189,0.556972,107.945157,38.892318,-77.431644
23427,-5.960413,8.098575,-2.857679,0.385120,-0.678754,0.611838,-0.124567,0.046303,0.078892,-0.059643,0.080944,-0.028613,1.000000,-0.000623,0.000232,0.000394,-0.265064,-0.717340,0.324068,0.556906,107.884652,38.842635,-77.417720
23428,-6.290685,8.014428,-2.808169,0.302531,-0.362815,0.745078,-0.126378,0.036533,0.083246,-0.062945,0.080100,-0.028121,1.000000,-0.000632,0.000183,0.000416,-0.265785,-0.717145,0.323971,0.556870,107.818715,38.792353,-77.411146
23429,-6.507381,7.436252,-2.528572,0.097915,0.181944,0.385098,-0.080038,0.015852,0.083322,-0.065107,0.074325,-0.025310,1.000000,-0.000400,0.000079,0.000417,-0.266308,-0.716952,0.324030,0.556835,107.769811,38.745607,-77.419408
23430,-6.620704,6.762952,-2.434241,0.103825,0.710990,-0.066894,-0.020065,-0.020638,0.078715,-0.066231,0.067601,-0.024356,1.000000,-0.000100,-0.000103,0.000394,-0.266542,-0.716746,0.324288,0.556837,107.740470,38.707787,-77.451698
23431,-6.617235,6.220335,-2.479549,0.243375,1.066257,-0.462158,-0.005016,-0.069109,0.060313,-0.066183,0.062183,-0.024820,1.000000,-0.000025,-0.000346,0.000302,-0.266594,-0.716453,0.324587,0.557015,107.700680,38.688408,-77.514147
23432,-6.435149,5.780191,-2.309670,0.184974,1.210441,-0.943812,0.150634,-0.120776,0.045245,-0.064351,0.057805,-0.023092,1.000000,0.000753,-0.000604,0.000226,-0.265961,-0.716250,0.325333,0.557143,107.730121,38.686341,-77.608912
23433,-6.167784,6.020719,-2.100467,-0.020338,0.844801,-0.981579,0.309772,-0.129219,0.032965,-0.061674,0.060230,-0.020951,0.999999,0.001549,-0.000646,0.000165,-0.264710,-0.716252,0.326490,0.557060,107.848256,38.692462,-77.707264
23434,-5.858716,6.506369,-2.197304,0.027335,0.292107,-0.790524,0.341421,-0.110642,0.026154,-0.058584,0.065093,-0.021894,0.999998,0.001707,-0.000553,0.000131,-0.263355,-0.716358,0.327684,0.556864,107.994126,38.699337,-77.790646
23435,-5.513700,7.219482,-2.365194,0.105016,-0.434615,-0.436333,0.274019,-0.065486,0.017546,-0.055136,0.072222,-0.023571,0.999999,0.001370,-0.000327,0.000088,-0.262293,-0.716511,0.328601,0.556629,108.121783,38.702898,-77.840981
23436,-5.411077,7.882392,-2.350149,-0.028338,-0.944094,-0.012539,0.203102,0.008799,0.028282,-0.054123,0.078840,-0.023419,0.999999,0.001016,0.000044,0.000141,-0.261634,-0.716762,0.329259,0.556227,108.240206,38.687554,-77.841504
23437,-5.367749,8.317730,-2.712899,0.240999,-1.253145,0.372042,0.003809,0.064558,0.041726,-0.053704,0.083167,-0.027110,1.000000,0.000019,0.000323,0.000209,-0.261821,-0.716882,0.329339,0.555937,108.266246,38.654755,-77.806728
23438,-5.505682,8.506818,-2.784821,0.250910,-1.261785,0.617013,-0.073425,0.122552,0.065218,-0.055102,0.085040,-0.027846,1.000000,-0.000367,0.000613,0.000326,-0.262444,-0.717025,0.329213,0.555534,108.270356,38.598825,-77.736555
23439,-5.772793,8.516188,-2.757084,0.181410,-1.051372,0.785132,-0.207078,0.157973,0.083965,-0.057785,0.085109,-0.027613,0.999999,-0.001035,0.000790,0.000420,-0.263657,-0.717057,0.328735,0.555200,108.209975,38.526294,-77.646499
23440,-6.022922,8.378244,-2.867081,0.281518,-0.752731,0.866489,-0.292927,0.178294,0.094006,-0.060294,0.083712,-0.028740,0.999998,-0.001465,0.000891,0.000470,-0.265237,-0.717017,0.328028,0.554918,108.108219,38.444778,-77.544125
23441,-6.275412,8.143466,-2.909194,0.336825,-0.387058,0.859562,-0.360760,0.177706,0.114654,-0.062827,0.081346,-0.029183,0.999998,-0.001804,0.000889,0.000573,-0.267118,-0.716846,0.327206,0.554722,107.963866,38.352279,-77.447174
23442,-6.445049,7.886567,-2.964983,0.427634,-0.067128,0.786380,-0.433949,0.153900,0.128282,-0.064524,0.078760,-0.029771,0.999997,-0.002170,0.000770,0.000641,-0.269257,-0.716488,0.326260,0.554707,107.765972,38.256734,-77.369144
23443,-6.436245,7.563704,-2.928098,0.473636,0.158459,0.529414,-0.449083,0.111710,0.155955,-0.064438,0.075521,-0.029415,0.999997,-0.002245,0.000559,0.000780,-0.271458,-0.715941,0.325427,0.554831,107.537077,38.153663,-77.326649
23444,-6.370345,7.292245,-2.767973,0.399908,0.303994,0.245511,-0.380841,0.055222,0.186484,-0.063779,0.072810,-0.027801,0.999998,-0.001904,0.000276,0.000932,-0.273404,-0.715279,0.324967,0.554998,107.319729,38.043699,-77.329131
23445,-6.217486,7.023462,-2.617306,0.344711,0.379068,-0.087779,-0.281970,0.022206,0.200377,-0.062248,0.070135,-0.026265,0.999998,-0.001410,0.000111,0.001002,-0.274983,-0.714632,0.324875,0.555105,107.142828,37.931757,-77.357517
23446,-5.961527,6.920841,-2.511638,0.318515,0.267074,-0.348368,-0.207681,0.005748,0.199156,-0.059685,0.069123,-0.025186,0.999999,-0.001038,0.000029,0.000996,-0.276263,-0.714046,0.325006,0.555147,107.002530,37.823176,-77.396137
23447,-5.748276,6.868833,-2.518473,0.380489,0.156467,-0.517691,-0.114171,0.006503,0.192726,-0.057550,0.068619,-0.025222,0.999999,-0.000571,0.000033,0.000964,-0.277194,-0.713596,0.325373,0.555046,106.916641,37.717947,-77.433037
23448,-5.613958,7.023134,-2.539117,0.403483,-0.025783,-0.478634,-0.051461,0.031029,0.188963,-0.056210,0.070172,-0.025401,1.000000,-0.000257,0.000155,0.000945,-0.277929,-0.713311,0.325865,0.554757,106.878321,37.610657,-77.451454
23449,-5.556976,7.183290,-2.636625,0.481401,-0.149908,-0.369320,0.004952,0.054451,0.188046,-0.055644,0.071781,-0.026349,1.000000,0.000025,0.000272,0.000940,-0.278500,-0.713166,0.326479,0.554296,106.881784,37.499976,-77.453921
23450,-5.625734,7.513198,-2.680077,0.453347,-0.285315,-0.066258,0.038490,0.081700,0.195360,-0.056342,0.075082,-0.026763,0.999999,0.000192,0.000409,0.000977,-0.279014,-0.713134,0.327173,0.553669,106.915571,37.380731,-77.438620
23451,-5.769280,7.770440,-2.699980,0.398462,-0.315939,0.222032,0.016926,0.107921,0.193795,-0.057783,0.077651,-0.026962,0.999999,0.000085,0.000540,0.000969,-0.279645,-0.713143,0.327764,0.552988,106.947442,37.257979,-77.405557
23452,-5.894355,7.921042,-2.741249,0.385879,-0.291140,0.422891,-0.044327,0.125469,0.188727,-0.059035,0.079149,-0.027393,0.999999,-0.000222,0.000627,0.000944,-0.280507,-0.713126,0.328144,0.552349,106.952685,37.135026,-77.358916
23453,-5.954994,8.024322,-2.910370,0.522295,-0.280050,0.578207,-0.159283,0.143301,0.171691,-0.059640,0.080169,-0.029125,0.999999,-0.000796,0.000717,0.000858,-0.281762,-0.713020,0.328119,0.551861,106.900869,37.018490,-77.297017
23454,-5.920222,7.850354,-2.829174,0.482676,-0.178245,0.405752,-0.247034,0.163061,0.156024,-0.059287,0.078422,-0.028340,0.999999,-0.001235,0.000815,0.000780,-0.283317,-0.712873,0.327769,0.551463,106.809510,36.907264,-77.217649
23455,-5.861708,7.380944,-2.906889,0.652679,0.096413,0.028685,-0.337699,0.175639,0.146635,-0.058697,0.073717,-0.029142,0.999998,-0.001688,0.000878,0.000733,-0.285190,-0.712641,0.327115,0.551185,106.671849,36.799300,-77.128117
23456,-5.823714,6.889300,-2.967518,0.806013,0.399467,-0.358853,-0.318420,0.161464,0.142367,-0.058310,0.068804,-0.029738,0.999998,-0.001592,0.000807,0.000712,-0.286958,-0.712406,0.326519,0.550925,106.540627,36.696098,-77.046645
23457,-5.815902,6.640682,-2.838375,0.727529,0.563257,-0.585925,-0.232951,0.165406,0.143641,-0.058230,0.066332,-0.028413,0.999999,-0.001165,0.000827,0.000718,-0.288431,-0.712296,0.326156,0.550513,106.459093,36.591746,-76.963191
23458,-5.925182,6.421915,-2.694525,0.602612,0.796004,-0.723548,-0.159750,0.158116,0.133753,-0.059316,0.064158,-0.026950,0.999999,-0.000799,0.000791,0.000669,-0.289602,-0.712290,0.325969,0.550016,106.418370,36.494026,-76.882070
23459,-6.002967,6.264566,-2.500323,0.420598,0.959623,-0.844174,-0.069474,0.127801,0.126082,-0.060085,0.062599,-0.024987,1.000000,-0.000347,0.000639,0.000630,-0.290383,-0.712340,0.326046,0.549494,106.417095,36.405509,-76.820798
23460,-5.939940,6.104009,-2.291420,0.244773,1.009910,-1.054116,0.080610,0.089468,0.121220,-0.059447,0.061013,-0.022863,1.000000,0.000403,0.000447,0.000606,-0.290551,-0.712513,0.326574,0.548866,106.487526,36.325839,-76.784179
23461,-5.848012,6.197406,-2.158757,0.104633,0.880879,-1.067380,0.204092,0.074260,0.107316,-0.058521,0.061965,-0.021503,0.999999,0.001020,0.000371,0.000537,-0.290217,-0.712842,0.327413,0.548115,106.623283,36.256252,-76.755976
23462,-5.704337,6.408778,-2.194391,0.113040,0.644679,-0.980994,0.318724,0.054323,0.101708,-0.057082,0.064094,-0.021826,0.999999,0.001594,0.000272,0.000509,-0.289424,-0.713295,0.328574,0.547250,106.818011,36.192994,-76.739791
23463,-5.606406,6.851711,-2.180672,0.022671,0.296796,-0.699818,0.390039,0.057909,0.091051,-0.056102,0.068534,-0.021657,0.999998,0.001950,0.000290,0.000455,-0.288355,-0.713871,0.329886,0.546273,107.055325,36.134901,-76.719948
23464,-5.604480,7.280156,-2.228538,-0.029571,0.035324,-0.358850,0.380418,0.074653,0.076072,-0.056081,0.072822,-0.022126,0.999998,0.001902,0.000373,0.000380,-0.287303,-0.714505,0.331093,0.545267,107.296284,36.082163,-76.685261
23465,-5.699377,7.663603,-2.133815,-0.232743,-0.130058,-0.030270,0.328719,0.096874,0.050456,-0.057023,0.076657,-0.021185,0.999999,0.001644,0.000484,0.000252,-0.286405,-0.715162,0.332034,0.544307,107.518651,36.039456,-76.631075
23466,-5.707453,7.909466,-2.155581,-0.281579,-0.274131,0.168631,0.223030,0.109668,0.020187,-0.057094,0.079113,-0.021436,0.999999,0.001115,0.000548,0.000101,-0.285820,-0.715754,0.332560,0.543514,107.690021,36.010963,-76.561307
23467,-5.748483,8.101671,-2.379573,-0.123364,-0.349878,0.395488,0.063911,0.136600,-0.009554,-0.057497,0.081027,-0.023731,1.000000,0.000320,0.000683,-0.000048,-0.285770,-0.716237,0.332509,0.542935,107.783780,35.993820,-76.467719
23468,-5.828418,8.240104,-2.536113,-0.018227,-0.364482,0.587719,-0.081355,0.154876,-0.032405,-0.058290,0.082400,-0.025350,1.000000,-0.000407,0.000774,-0.000162,-0.286207,-0.716603,0.331954,0.542561,107.805207,35.985902,-76.356254
23469,-5.961242,8.232875,-2.451694,-0.120911,-0.258674,0.639389,-0.223822,0.157873,-0.048806,-0.059612,0.082316,-0.024562,0.999999,-0.001119,0.000789,-0.000244,-0.287116,-0.716796,0.330950,0.542439,107.747481,35.986400,-76.239871
23470,-5.968069,7.781932,-2.321385,-0.162184,0.019023,0.263942,-0.314448,0.136189,-0.064914,-0.059671,0.077802,-0.023296,0.999998,-0.001572,0.000681,-0.000325,-0.288268,-0.716829,0.329673,0.542562,107.632062,35.999627,-76.134005
23471,-5.893426,7.403998,-2.344553,-0.046534,0.195501,-0.065474,-0.365513,0.124244,-0.083544,-0.058918,0.074022,-0.023544,0.999998,-0.001828,0.000621,-0.000418,-0.289534,-0.716780,0.328207,0.542842,107.484228,36.025273,-76.032874
23472,-5.839340,7.185584,-2.453846,0.125396,0.294470,-0.239319,-0.386609,0.093609,-0.093384,-0.058371,0.071836,-0.024650,0.999998,-0.001933,0.000468,-0.000467,-0.290795,-0.716634,0.326691,0.543274,107.314131,36.061797,-75.949791
23473,-5.745463,7.101599,-2.368523,0.095704,0.266858,-0.380162,-0.346500,0.080703,-0.095969,-0.057430,0.071002,-0.023785,0.999998,-0.001732,0.000404,-0.000480,-0.291885,-0.716510,0.325292,0.543693,107.161411,36.102092,-75.875621
23474,-5.713212,6.998421,-2.346243,0.114985,0.302421,-0.484299,-0.318419,0.084942,-0.096932,-0.057108,0.069974,-0.023550,0.999999,-0.001592,0.000425,-0.000485,-0.292876,-0.716441,0.323959,0.544046,107.027364,36.142385,-75.797826
23475,-5.648998,6.968662,-2.292978,0.096888,0.264477,-0.557861,-0.264411,0.070177,-0.100696,-0.056463,0.069685,-0.023002,0.999999,-0.001322,0.000351,-0.000503,-0.293641,-0.716412,0.322781,0.544373,106.918036,36.187308,-75.729975
23476,-5.546140,6.973821,-2.252885,0.092099,0.174099,-0.624079,-0.234627,0.054629,-0.105966,-0.055431,0.069741,-0.022596,0.999999,-0.001173,0.000273,-0.000530,-0.294257,-0.716395,0.321686,0.544710,106.820972,36.237850,-75.671018
23477,-5.457095,7.110823,-2.367493,0.214394,0.022957,-0.544343,-0.205367,0.071561,-0.110336,-0.054540,0.071114,-0.023728,0.999999,-0.001027,0.000358,-0.000552,-0.294785,-0.716469,0.320631,0.544949,106.747236,36.288013,-75.600346
23478,-5.492528,7.292433,-2.566059,0.386432,-0.052174,-0.337455,-0.223054,0.085170,-0.108318,-0.054897,0.072925,-0.025719,0.999999,-0.001115,0.000426,-0.000542,-0.295401,-0.716554,0.319513,0.545160,106.669435,36.334948,-75.520204
23479,-5.617196,7.414081,-2.520571,0.311383,-0.038289,-0.180640,-0.190795,0.096885,-0.107083,-0.056144,0.074147,-0.025249,0.999999,-0.000954,0.000484,-0.000535,-0.295925,-0.716711,0.318471,0.545279,106.613940,36.379311,-75.433002
23480,-5.761948,7.522016,-2.481949,0.239405,-0.000443,-0.020675,-0.194821,0.099232,-0.108513,-0.057591,0.075227,-0.024864,0.999999,-0.000974,0.000496,-0.000543,-0.296462,-0.716875,0.317408,0.545393,106.558134,36.424181,-75.343242
23481,-5.922222,7.458258,-2.525231,0.267304,0.162062,0.035023,-0.212965,0.096537,-0.121857,-0.059189,0.074592,-0.025303,0.999999,-0.001065,0.000483,-0.000609,-0.297024,-0.717019,0.316252,0.545568,106.491684,36.476859,-75.253292
23482,-6.008460,7.556660,-2.572469,0.293354,0.164975,0.172753,-0.212746,0.103806,-0.138353,-0.060046,0.075581,-0.025774,0.999999,-0.001064,0.000519,-0.000692,-0.297549,-0.717213,0.315025,0.545737,106.431202,36.537537,-75.154363
23483,-6.034718,7.636490,-2.682670,0.397785,0.137404,0.274601,-0.273509,0.105812,-0.153303,-0.060303,0.076374,-0.026899,0.999999,-0.001368,0.000529,-0.000767,-0.298256,-0.717340,0.313576,0.546019,106.337757,36.606178,-75.051756
23484,-6.081085,7.565112,-2.592037,0.324826,0.202697,0.226364,-0.281704,0.101478,-0.159972,-0.060764,0.075663,-0.025996,0.999999,-0.001409,0.000507,-0.000800,-0.298964,-0.717456,0.312085,0.546334,106.239574,36.679358,-74.950130
23485,-6.039291,7.498675,-2.310188,0.083757,0.178173,0.086875,-0.255813,0.084141,-0.169253,-0.060339,0.075008,-0.023172,0.999999,-0.001279,0.000421,-0.000846,-0.299528,-0.717571,0.310658,0.546687,106.149436,36.760512,-74.859306
23486,-5.985465,7.434231,-2.083133,-0.103920,0.145573,-0.045344,-0.206955,0.065837,-0.170677,-0.059798,0.074372,-0.020889,0.999999,-0.001035,0.000329,-0.000853,-0.299882,-0.717714,0.309385,0.547026,106.080879,36.845502,-74.780107
23487,-5.835498,7.454043,-2.063054,-0.081258,0.003601,-0.124275,-0.208622,0.061474,-0.175268,-0.058296,0.074570,-0.020690,0.999999,-0.001043,0.000307,-0.000876,-0.300224,-0.717845,0.308098,0.547394,106.009304,36.933746,-74.703762
23488,-5.691048,7.443752,-2.058081,-0.041543,-0.113633,-0.220059,-0.208669,0.071249,-0.174676,-0.056853,0.074466,-0.020638,0.999999,-0.001043,0.000356,-0.000873,-0.300580,-0.718004,0.306796,0.547721,105.942621,37.020242,-74.620125
23489,-5.567111,7.585810,-2.112231,0.034780,-0.304014,-0.173958,-0.235284,0.093505,-0.159559,-0.055620,0.075878,-0.021186,0.999999,-0.001176,0.000468,-0.000798,-0.301109,-0.718155,0.305443,0.547989,105.867353,37.094950,-74.524856
23490,-5.514387,7.554244,-2.143747,0.093019,-0.330445,-0.223482,-0.235778,0.118758,-0.155202,-0.055098,0.075560,-0.021494,0.999999,-0.001179,0.000594,-0.000776,-0.301688,-0.718370,0.304065,0.548155,105.802768,37.163433,-74.412295
23491,-5.609985,7.655533,-2.267401,0.195599,-0.316023,-0.061683,-0.280400,0.130554,-0.142225,-0.056060,0.076563,-0.022745,0.999999,-0.001402,0.000653,-0.000711,-0.302481,-0.718524,0.302593,0.548329,105.715245,37.223010,-74.294834
23492,-5.755151,7.573707,-2.318961,0.237407,-0.152803,-0.025928,-0.289830,0.146171,-0.130916,-0.057519,0.075741,-0.023257,0.999998,-0.001449,0.000731,-0.000655,-0.303360,-0.718693,0.301111,0.548439,105.628478,37.274084,-74.168062
23493,-5.879991,7.636489,-2.352006,0.250162,-0.097492,0.104474,-0.292361,0.156426,-0.122116,-0.058772,0.076366,-0.023586,0.999998,-0.001462,0.000782,-0.000611,-0.304289,-0.718865,0.299637,0.548505,105.542749,37.318864,-74.036609
23494,-6.011414,7.581800,-2.309988,0.198361,0.029445,0.132996,-0.264136,0.155190,-0.118980,-0.060087,0.075823,-0.023153,0.999999,-0.001321,0.000776,-0.000595,-0.305121,-0.719075,0.298253,0.548523,105.473261,37.362240,-73.905892
23495,-6.067273,7.502701,-2.174529,0.072064,0.102900,0.077465,-0.228898,0.147854,-0.115160,-0.060646,0.075037,-0.021786,0.999999,-0.001144,0.000739,-0.000576,-0.305826,-0.719307,0.296990,0.548512,105.419633,37.404740,-73.781718
23496,-6.066146,7.496490,-2.086148,-0.004648,0.091063,0.053375,-0.201475,0.128008,-0.105051,-0.060635,0.074976,-0.020898,0.999999,-0.001007,0.000640,-0.000525,-0.306429,-0.719514,0.295868,0.548510,105.373120,37.444756,-73.672531
23497,-5.983661,7.511555,-2.099280,0.033348,0.015891,0.017535,-0.190373,0.106353,-0.089919,-0.059814,0.075122,-0.021032,0.999999,-0.000952,0.000532,-0.000450,-0.307002,-0.719651,0.294864,0.548550,105.321219,37.479775,-73.582029
23498,-5.949152,7.548298,-2.100343,0.046451,-0.036871,0.024850,-0.166863,0.101665,-0.072848,-0.059475,0.075487,-0.021036,0.999999,-0.000834,0.000508,-0.000364,-0.307529,-0.719789,0.293992,0.548541,105.279744,37.506121,-73.497314
23499,-5.947173,7.577865,-2.078545,0.029121,-0.061952,0.041681,-0.137839,0.095097,-0.054144,-0.059461,0.075780,-0.020809,1.000000,-0.000689,0.000475,-0.000271,-0.307994,-0.719922,0.293278,0.548488,105.249089,37.523166,-73.421460
23500,-5.930806,7.625606,-2.132391,0.084923,-0.099579,0.079446,-0.102817,0.081355,-0.038445,-0.059302,0.076256,-0.021339,1.000000,-0.000514,0.000407,-0.000192,-0.308354,-0.720052,0.292737,0.548405,105.231748,37.533618,-73.357431
23501,-5.959699,7.624103,-2.049010,-0.002465,-0.088150,0.078502,-0.027091,0.085740,-0.026601,-0.059596,0.076246,-0.020475,1.000000,-0.000135,0.000429,-0.000133,-0.308483,-0.720289,0.292439,0.548181,105.257415,37.536869,-73.293319
23502,-5.971639,7.800880,-2.011166,-0.059926,-0.198003,0.213089,-0.026571,0.087822,-0.021055,-0.059717,0.078012,-0.020096,1.000000,-0.000133,0.000439,-0.000105,-0.308625,-0.720528,0.292160,0.547935,105.284504,37.536698,-73.228080
23503,-5.917844,7.809607,-2.010204,-0.052489,-0.245528,0.186749,-0.036613,0.098093,-0.022532,-0.059179,0.078099,-0.020087,1.000000,-0.000183,0.000490,-0.000113,-0.308817,-0.720777,0.291831,0.547674,105.309491,37.535787,-73.156131
23504,-5.923719,7.897804,-1.992494,-0.081366,-0.300628,0.254029,-0.048687,0.110117,-0.027053,-0.059237,0.078981,-0.019912,1.000000,-0.000243,0.000551,-0.000135,-0.309055,-0.721052,0.291435,0.547389,105.334058,37.535498,-73.074220
23505,-5.944825,7.942610,-2.108334,0.020435,-0.299122,0.325417,-0.081666,0.124020,-0.027751,-0.059450,0.079426,-0.021079,1.000000,-0.000408,0.000620,-0.000139,-0.309433,-0.721310,0.290924,0.547108,105.344843,37.533497,-72.983209
23506,-6.014595,8.020441,-2.232951,0.117091,-0.279652,0.453616,-0.080215,0.132633,-0.020471,-0.060153,0.080202,-0.022322,1.000000,-0.000401,0.000663,-0.000102,-0.309835,-0.721586,0.290430,0.546777,105.360113,37.526104,-72.886885
23507,-6.106784,8.056020,-2.381069,0.234248,-0.211402,0.568170,-0.095223,0.148736,-0.005921,-0.061083,0.080551,-0.023804,1.000000,-0.000476,0.000744,-0.000030,-0.310357,-0.721858,0.289923,0.546392,105.371035,37.508258,-72.782859
23508,-6.156507,8.060864,-2.408942,0.246127,-0.168987,0.608156,-0.078681,0.147300,0.021617,-0.061592,0.080593,-0.024076,1.000000,-0.000393,0.000736,0.000108,-0.310890,-0.722116,0.289562,0.545940,105.388413,37.475331,-72.684434
23509,-6.111004,8.042165,-2.566098,0.403880,-0.164408,0.599588,-0.010824,0.145269,0.054866,-0.061151,0.080403,-0.025621,1.000000,-0.000054,0.000726,0.000274,-0.311267,-0.722420,0.289509,0.545349,105.438969,37.424368,-72.594593
23510,-6.077157,8.101253,-2.575346,0.402956,-0.217978,0.626883,0.061442,0.155787,0.103407,-0.060833,0.080989,-0.025681,1.000000,0.000307,0.000779,0.000517,-0.311529,-0.722799,0.289813,0.544536,105.530389,37.344824,-72.506221
23511,-6.167335,7.876978,-2.216577,0.032114,-0.043955,0.433922,0.167323,0.120921,0.153067,-0.061747,0.078741,-0.022063,0.999999,0.000837,0.000605,0.000765,-0.311494,-0.723171,0.290637,0.543622,105.660831,37.243191,-72.452675
23512,-5.924927,8.057314,-2.252700,0.089605,-0.325222,0.433574,0.132157,0.083354,0.168699,-0.059327,0.080538,-0.022449,0.999999,0.000661,0.000417,0.000843,-0.311572,-0.723367,0.291481,0.542864,105.754167,37.138588,-72.427777
23513,-5.702819,7.880054,-1.732616,-0.365636,-0.437729,0.051085,0.155672,0.136961,0.165935,-0.057105,0.078767,-0.017226,0.999999,0.000778,0.000685,0.000830,-0.311637,-0.723743,0.292295,0.541887,105.882551,37.027192,-72.366312
23514,-5.732323,7.997039,-1.826689,-0.309143,-0.462613,0.179276,-0.019343,0.182066,0.147529,-0.057399,0.079926,-0.018222,0.999999,-0.000097,0.000910,0.000738,-0.312350,-0.723999,0.292497,0.541025,105.932121,36.918667,-72.269716
23515,-5.664622,8.072793,-1.935086,-0.202979,-0.532354,0.221148,-0.119113,0.221263,0.108930,-0.056712,0.080686,-0.019336,0.999999,-0.000596,0.001106,0.000545,-0.313377,-0.724256,0.292228,0.540232,105.944171,36.825311,-72.139443
23516,-5.835720,8.173796,-1.692687,-0.492211,-0.486152,0.348668,-0.166590,0.257337,0.073912,-0.058409,0.081702,-0.016920,0.999999,-0.000833,0.001287,0.000370,-0.314533,-0.724590,0.291647,0.539426,105.948563,36.745417,-71.976955
23517,-6.040829,8.146068,-1.708165,-0.522708,-0.297643,0.454057,-0.328477,0.250497,0.049275,-0.060450,0.081418,-0.017140,0.999998,-0.001642,0.001252,0.000246,-0.316198,-0.724680,0.290550,0.538923,105.859244,36.680405,-71.815104
23518,-6.071866,7.837854,-2.005209,-0.203866,-0.022137,0.300584,-0.466549,0.225473,0.030005,-0.060753,0.078322,-0.020166,0.999997,-0.002333,0.001127,0.000150,-0.318273,-0.724512,0.289049,0.538734,105.683461,36.630064,-71.666003
23519,-6.001477,7.472813,-2.219462,0.068485,0.201537,0.023029,-0.470847,0.236255,0.015279,-0.060047,0.074671,-0.022300,0.999997,-0.002354,0.001181,0.000076,-0.320339,-0.724380,0.287464,0.538537,105.510511,36.586703,-71.507207
23520,-5.940315,7.207671,-2.187098,0.088533,0.330923,-0.226036,-0.418814,0.239352,0.013917,-0.059434,0.072027,-0.021951,0.999997,-0.002094,0.001197,0.000070,-0.322214,-0.724340,0.286007,0.538248,105.369500,36.543823,-71.345330
23521,-5.866924,6.800810,-2.267383,0.225249,0.556542,-0.568644,-0.392608,0.230074,0.013653,-0.058700,0.067959,-0.022740,0.999997,-0.001963,0.001150,0.000068,-0.323979,-0.724310,0.284633,0.537957,105.238900,36.502947,-71.190379
23522,-5.814289,6.486909,-2.299920,0.299492,0.731049,-0.837642,-0.310452,0.198717,0.029884,-0.058175,0.064825,-0.023042,0.999998,-0.001552,0.000994,0.000149,-0.325443,-0.724306,0.283589,0.537629,105.141445,36.457921,-71.059364
23523,-5.765340,6.278194,-1.969289,0.008240,0.779585,-1.099184,-0.124885,0.169792,0.055681,-0.057688,0.062754,-0.019683,0.999999,-0.000624,0.000849,0.000278,-0.326264,-0.724485,0.283183,0.537105,105.134764,36.403182,-70.953707
23524,-5.767504,6.526869,-1.662153,-0.307266,0.580696,-0.969879,-0.026717,0.094143,0.063903,-0.057704,0.065248,-0.016603,1.000000,-0.000134,0.000471,0.000320,-0.326642,-0.724612,0.283194,0.536697,105.153281,36.355114,-70.900966
23525,-5.502786,6.682277,-1.708199,-0.201974,0.296590,-0.996642,-0.147304,0.049489,0.053108,-0.055050,0.066796,-0.017118,1.000000,-0.000737,0.000247,0.000266,-0.327367,-0.724434,0.282915,0.536644,105.084890,36.319804,-70.877542
23526,-5.585146,6.651321,-1.581439,-0.336478,0.364206,-0.998551,-0.206077,0.062742,0.028849,-0.055866,0.066489,-0.015865,0.999999,-0.001030,0.000314,0.000144,-0.328256,-0.724232,0.282368,0.536661,104.991677,36.295906,-70.839846
23527,-5.649450,6.582807,-1.669840,-0.253056,0.476541,-0.995270,-0.265485,0.061010,-0.021236,-0.056493,0.065812,-0.016769,0.999999,-0.001327,0.000305,-0.000106,-0.329224,-0.723994,0.281483,0.536853,104.868385,36.300117,-70.794759
23528,-5.861866,6.155871,-2.117302,0.151565,0.983802,-1.109334,-0.090694,0.087806,-0.056070,-0.058611,0.061566,-0.021175,1.000000,-0.000453,0.000439,-0.000280,-0.329502,-0.724168,0.280897,0.536755,104.860695,36.319678,-70.724274
23529,-6.267859,6.148599,-1.368767,-0.679906,1.158646,-1.028605,0.153398,-0.008510,-0.098158,-0.062648,0.061527,-0.013643,1.000000,0.000767,-0.000043,-0.000491,-0.328649,-0.724540,0.280971,0.536737,104.957473,36.376739,-70.712870
23530,-6.305537,6.001678,-1.682871,-0.384458,1.320863,-1.053722,0.151706,-0.082000,-0.131404,-0.063009,0.060071,-0.016809,0.999999,0.000759,-0.000410,-0.000657,-0.327608,-0.724762,0.281041,0.537037,105.027772,36.463099,-70.745149
23531,-6.111748,6.163627,-1.866072,-0.170835,1.086412,-1.002666,0.293037,-0.119026,-0.150209,-0.061060,0.061709,-0.018607,0.999998,0.001465,-0.000595,-0.000751,-0.325953,-0.725137,0.281483,0.537306,105.165226,36.565415,-70.799892
23532,-5.794507,6.909911,-1.572468,-0.423937,0.305956,-0.673625,0.364869,-0.153026,-0.137141,-0.057886,0.069167,-0.015643,0.999998,0.001824,-0.000765,-0.000686,-0.324022,-0.725521,0.282219,0.537570,105.329279,36.665834,-70.879615
23533,-5.519564,7.554692,-1.537899,-0.432314,-0.333066,-0.346630,0.147590,-0.115749,-0.129271,-0.055138,0.075594,-0.015355,0.999999,0.000738,-0.000579,-0.000646,-0.322954,-0.725636,0.282339,0.537995,105.382489,36.756283,-70.935623
23534,-5.248621,7.921107,-1.625374,-0.294846,-0.767921,-0.207629,-0.098716,-0.057622,-0.118466,-0.052435,0.079234,-0.016308,1.000000,-0.000494,-0.000288,-0.000592,-0.322887,-0.725497,0.281740,0.538536,105.318026,36.832037,-70.953043
23535,-5.230763,8.168954,-1.635508,-0.279861,-0.943666,-0.025005,-0.224385,0.017929,-0.106029,-0.052266,0.081699,-0.016442,0.999999,-0.001122,0.000090,-0.000530,-0.323419,-0.725336,0.280727,0.538962,105.210591,36.889402,-70.921372
23536,-5.555778,8.396302,-1.516928,-0.471521,-0.865104,0.321160,-0.293302,0.037467,-0.086120,-0.055524,0.083965,-0.015282,0.999999,-0.001467,0.000187,-0.000431,-0.324279,-0.725091,0.279567,0.539377,105.070210,36.932943,-70.879474
23537,-5.916523,8.297005,-1.751739,-0.306815,-0.490451,0.511041,-0.397397,0.033506,-0.086124,-0.059132,0.082961,-0.017672,0.999998,-0.001987,0.000168,-0.000431,-0.325512,-0.724661,0.278133,0.539954,104.867759,36.977116,-70.841031
23538,-6.248911,8.018778,-2.061522,-0.051040,-0.009926,0.560200,-0.394147,0.059327,-0.109237,-0.062451,0.080181,-0.020755,0.999998,-0.001971,0.000297,-0.000546,-0.326704,-0.724338,0.276580,0.540465,104.681102,37.030451,-70.780067
23539,-6.485158,7.733549,-2.153407,0.013626,0.361661,0.500954,-0.315155,0.083872,-0.148348,-0.064803,0.077350,-0.021629,0.999998,-0.001576,0.000419,-0.000742,-0.327538,-0.724259,0.275059,0.540843,104.553549,37.102026,-70.695638
23540,-6.598300,7.534998,-2.026441,-0.111188,0.541780,0.390954,-0.247701,0.060860,-0.174697,-0.065923,0.075382,-0.020338,0.999999,-0.001239,0.000304,-0.000873,-0.328022,-0.724265,0.273660,0.541250,104.458562,37.191684,-70.622021
23541,-6.568217,7.256038,-1.975198,-0.124578,0.675018,0.148325,-0.194967,0.009270,-0.188586,-0.065615,0.072603,-0.019820,0.999999,-0.000975,0.000046,-0.000943,-0.328209,-0.724232,0.272439,0.541797,104.372899,37.296466,-70.582503
23542,-6.372163,7.121738,-2.035386,0.005589,0.610578,-0.061096,-0.127944,-0.037838,-0.176301,-0.063655,0.071260,-0.020411,0.999999,-0.000640,-0.000189,-0.000882,-0.328119,-0.724168,0.271520,0.542398,104.305020,37.401223,-70.577651
23543,-6.052551,6.991133,-2.095805,0.164970,0.452602,-0.343283,-0.049389,-0.063733,-0.135153,-0.060472,0.069947,-0.020995,1.000000,-0.000247,-0.000319,-0.000676,-0.327823,-0.724102,0.271006,0.542922,104.265934,37.486729,-70.598896
23544,-5.820434,6.705436,-2.288279,0.425798,0.485168,-0.666113,0.080922,-0.034620,-0.081834,-0.058173,0.067087,-0.022866,1.000000,0.000405,-0.000173,-0.000409,-0.327237,-0.724259,0.270990,0.543074,104.308804,37.538608,-70.608730
23545,-5.741790,6.514444,-2.352707,0.504695,0.548102,-0.846853,0.352446,-0.029983,-0.046152,-0.057399,0.065199,-0.023421,0.999998,0.001762,-0.000150,-0.000231,-0.325773,-0.724820,0.271834,0.542784,104.504685,37.569948,-70.622158
23546,-5.654155,6.646343,-2.237306,0.383231,0.361659,-0.819852,0.611234,-0.064381,-0.018032,-0.056528,0.066537,-0.022188,0.999995,0.003056,-0.000322,-0.000090,-0.323395,-0.725671,0.273535,0.542214,104.831873,37.590854,-70.664031
23547,-5.652806,6.917296,-2.083485,0.180314,0.141278,-0.642551,0.810901,-0.100308,0.014727,-0.056523,0.069253,-0.020583,0.999992,0.004054,-0.000502,0.000074,-0.320331,-0.726688,0.275951,0.541445,105.253754,37.599082,-70.737563
23548,-5.667629,7.472193,-1.837945,-0.145863,-0.263915,-0.260595,0.909956,-0.095978,0.054411,-0.056688,0.074789,-0.018066,0.999989,0.004550,-0.000480,0.000272,-0.317012,-0.727811,0.278767,0.540447,105.730374,37.585315,-70.815055
23549,-5.789009,7.983877,-1.634093,-0.469871,-0.549921,0.157348,0.891085,-0.093642,0.091896,-0.057919,0.079884,-0.016012,0.999990,0.004455,-0.000468,0.000459,-0.313862,-0.728840,0.281659,0.539399,106.191820,37.550915,-70.899090
23550,-5.903446,8.371912,-1.451386,-0.767768,-0.751907,0.477645,0.816240,-0.098412,0.114053,-0.059075,0.083744,-0.014201,0.999991,0.004081,-0.000492,0.000570,-0.311030,-0.729696,0.284432,0.538425,106.606218,37.505726,-70.990661
23551,-5.901587,8.628948,-1.476071,-0.820408,-0.920383,0.672821,0.616522,-0.070802,0.106750,-0.059057,0.086303,-0.014516,0.999995,0.003083,-0.000354,0.000534,-0.308944,-0.730314,0.286594,0.537642,106.917872,37.460338,-71.062501
23552,-6.005013,8.485318,-1.705537,-0.656659,-0.719641,0.676376,0.427558,-0.020930,0.084962,-0.060084,0.084864,-0.016880,0.999998,0.002138,-0.000105,0.000425,-0.307556,-0.730802,0.288089,0.536975,107.145533,37.418863,-71.095037
23553,-6.243104,8.305603,-2.080110,-0.371553,-0.373388,0.770731,0.292016,-0.005833,0.069638,-0.062459,0.083065,-0.020682,0.999999,0.001460,-0.000029,0.000348,-0.306646,-0.731139,0.289141,0.536472,107.303109,37.383224,-71.114574
23554,-6.349525,8.068247,-2.448874,-0.045889,-0.090713,0.741918,0.277556,-0.004342,0.056920,-0.063518,0.080698,-0.024378,0.999999,0.001388,-0.000022,0.000285,-0.305753,-0.731477,0.290104,0.536000,107.455227,37.354384,-71.129983
23555,-6.403477,7.978867,-2.408011,-0.115290,-0.001150,0.696927,0.344214,-0.018783,0.054136,-0.064054,0.079813,-0.023949,0.999998,0.001721,-0.000094,0.000271,-0.304590,-0.731878,0.291257,0.535490,107.639227,37.329538,-71.155287
23556,-6.335392,8.052598,-2.334741,-0.199152,-0.114057,0.693493,0.273884,-0.036006,0.031938,-0.063363,0.080548,-0.023249,0.999999,0.001369,-0.000180,0.000160,-0.303597,-0.732159,0.292165,0.535175,107.779263,37.319925,-71.187162
23557,-6.133148,8.357654,-2.457123,-0.068767,-0.448681,0.831433,-0.055586,-0.002105,-0.002053,-0.061330,0.083570,-0.024595,1.000000,-0.000278,-0.000011,-0.000010,-0.303770,-0.732076,0.292017,0.535271,107.748560,37.322899,-71.188783
23558,-6.262557,7.888842,-2.639698,0.128570,-0.022041,0.599057,-0.168945,0.051816,-0.002275,-0.062632,0.078867,-0.026447,1.000000,-0.000845,0.000259,-0.000011,-0.304434,-0.731969,0.291481,0.535332,107.675947,37.316640,-71.152896
23559,-6.521598,7.897957,-1.956336,-0.603035,0.076415,0.597244,0.337369,-0.041582,0.049453,-0.065231,0.078996,-0.019444,0.999999,0.001687,-0.000208,0.000247,-0.303249,-0.732302,0.292632,0.534921,107.847118,37.298410,-71.192917
23560,-6.253316,8.212444,-1.185249,-1.334019,-0.431332,0.482326,0.478555,-0.191114,0.086840,-0.062558,0.082125,-0.011716,0.999997,0.002393,-0.000956,0.000434,-0.301424,-0.732394,0.294523,0.534788,108.032609,37.286341,-71.343311
23561,-5.772367,7.866763,-0.987652,-1.376546,-0.593496,-0.120705,0.122897,-0.222048,0.078570,-0.057744,0.078651,-0.009892,0.999999,0.000614,-0.001110,0.000393,-0.300835,-0.731874,0.295478,0.535305,108.002058,37.284370,-71.513494
23562,-5.644250,7.323190,-1.385015,-0.885804,-0.284643,-0.510044,-0.294746,-0.172102,0.025220,-0.056440,0.073204,-0.014007,0.999999,-0.001474,-0.000861,0.000126,-0.301703,-0.730938,0.295044,0.536334,107.760534,37.302432,-71.637301
23563,-5.654783,6.957680,-2.334086,0.101181,0.084243,-0.548977,-0.549693,-0.085372,-0.043775,-0.056523,0.069525,-0.023556,0.999996,-0.002748,-0.000427,-0.000219,-0.303446,-0.729946,0.293542,0.537524,107.417556,37.342607,-71.687038
23564,-5.626535,6.568259,-3.078474,0.906587,0.416275,-0.686811,-0.580457,-0.008673,-0.094697,-0.056233,0.065620,-0.030978,0.999996,-0.002902,-0.000043,-0.000473,-0.305272,-0.729185,0.291652,0.538551,107.095808,37.397430,-71.673069
23565,-5.550323,6.416292,-3.131030,1.025030,0.470275,-0.840156,-0.469551,0.050334,-0.097750,-0.055480,0.064116,-0.031447,0.999997,-0.002348,0.000252,-0.000489,-0.306772,-0.728749,0.289958,0.539204,106.862123,37.444053,-71.618401
23566,-5.565910,6.310470,-3.114686,1.037143,0.553259,-0.917696,-0.323016,0.084133,-0.063642,-0.055652,0.063072,-0.031225,0.999999,-0.001615,0.000421,-0.000318,-0.307875,-0.728578,0.288730,0.539465,106.722697,37.466571,-71.547266
23567,-5.666817,6.532326,-3.156796,1.040064,0.495608,-0.679117,-0.062095,0.086439,-0.012056,-0.056678,0.065317,-0.031564,1.000000,-0.000310,0.000432,-0.000060,-0.308172,-0.728737,0.288390,0.539262,106.726715,37.460411,-71.485668
23568,-5.806149,6.748696,-3.022725,0.845520,0.442247,-0.459474,0.245954,0.057246,0.044280,-0.058085,0.067511,-0.030128,0.999999,0.001230,0.000286,0.000221,-0.307454,-0.729214,0.289130,0.538631,106.888366,37.428184,-71.455570
23569,-5.922565,6.905470,-2.441918,0.209676,0.346047,-0.401982,0.579739,0.050592,0.113196,-0.059271,0.069092,-0.024204,0.999996,0.002899,0.000253,0.000566,-0.305695,-0.730079,0.291029,0.537436,107.228905,37.359157,-71.445288
23570,-6.391743,6.886836,-1.678468,-0.699247,0.605564,-0.312999,1.075421,-0.088959,0.193861,-0.063977,0.068895,-0.016443,0.999985,0.005377,-0.000445,0.000969,-0.302132,-0.731198,0.294762,0.535893,107.784919,37.270122,-71.548574
23571,-6.568758,7.387178,-0.811831,-1.706840,0.307884,-0.046963,1.385082,-0.310155,0.233863,-0.065762,0.073849,-0.007709,0.999974,0.006925,-0.001551,0.001169,-0.297208,-0.732100,0.299794,0.534622,108.420257,37.199467,-71.813637
23572,-6.189766,7.245497,-0.570916,-1.895960,0.090016,-0.456762,1.152196,-0.452286,0.206798,-0.061960,0.072423,-0.005432,0.999980,0.005761,-0.002261,0.001034,-0.292835,-0.732286,0.304300,0.534235,108.867712,37.171663,-72.169571
23573,-5.748961,7.157758,-0.791453,-1.605634,-0.159830,-0.740379,0.720874,-0.455188,0.136220,-0.057521,0.071567,-0.007787,0.999991,0.003604,-0.002276,0.000681,-0.289842,-0.731916,0.307392,0.534603,109.076215,37.184140,-72.511551
23574,-5.485117,7.350341,-1.736849,-0.669746,-0.392148,-0.510627,0.143658,-0.349977,0.062162,-0.054844,0.073499,-0.017412,0.999998,0.000718,-0.001750,0.000311,-0.288920,-0.731098,0.308514,0.535575,109.008018,37.217551,-72.764384
23575,-5.305002,7.556641,-3.027178,0.603817,-0.541317,-0.130128,-0.273246,-0.172350,-0.003928,-0.053022,0.075526,-0.030421,0.999999,-0.001366,-0.000862,-0.000020,-0.289620,-0.730251,0.308020,0.536634,108.782779,37.253155,-72.881407
23576,-5.139134,7.857979,-3.592820,1.172794,-0.804106,0.139438,-0.317811,0.020450,-0.039565,-0.051379,0.078533,-0.036048,0.999999,-0.001589,0.000102,-0.000198,-0.290682,-0.729912,0.306997,0.537108,108.616831,37.272500,-72.858621
23577,-5.283959,8.203283,-3.464935,0.988844,-0.921366,0.453426,-0.297856,0.169247,-0.053928,-0.052847,0.081995,-0.034727,0.999998,-0.001489,0.000846,-0.000270,-0.291862,-0.730020,0.305758,0.537029,108.525382,37.272399,-72.731341
23578,-5.585033,8.335757,-3.250680,0.709957,-0.790470,0.680903,-0.380160,0.257556,-0.063111,-0.055866,0.083313,-0.032593,0.999997,-0.001901,0.001288,-0.000316,-0.293449,-0.730258,0.304134,0.536762,108.425002,37.261493,-72.541320
23579,-6.007668,8.010258,-3.013715,0.439204,-0.275235,0.630976,-0.395278,0.261063,-0.057198,-0.060093,0.080060,-0.030217,0.999997,-0.001976,0.001305,-0.000286,-0.295113,-0.730468,0.302485,0.536496,108.316102,37.246945,-72.350606
23580,-6.311353,7.858438,-2.856790,0.250029,0.044260,0.660372,-0.367316,0.186165,-0.049653,-0.063121,0.078547,-0.028653,0.999998,-0.001837,0.000931,-0.000248,-0.296579,-0.730506,0.301047,0.536445,108.191675,37.242070,-72.212394
23581,-6.382834,7.822305,-2.804170,0.206141,0.124083,0.662734,-0.360409,0.084129,-0.013696,-0.063835,0.078177,-0.028156,0.999998,-0.001802,0.000421,-0.000068,-0.297963,-0.730221,0.299909,0.536703,108.023611,37.236036,-72.152398
23582,-6.368217,7.576823,-2.663752,0.125506,0.265056,0.432895,-0.274132,-0.019024,0.049788,-0.063698,0.075716,-0.026747,0.999999,-0.001371,-0.000095,0.000249,-0.299045,-0.729693,0.299387,0.537110,107.854243,37.213769,-72.176685
23583,-6.482848,7.168774,-2.092722,-0.390128,0.559813,0.053037,-0.000686,-0.147150,0.137235,-0.064862,0.071643,-0.020975,0.999999,-0.000003,-0.000736,0.000686,-0.299174,-0.729095,0.300110,0.537446,107.776443,37.166191,-72.308267
23584,-6.352028,6.937261,-1.606607,-0.795142,0.565322,-0.320417,0.240042,-0.298914,0.192976,-0.063563,0.069331,-0.016078,0.999998,0.001200,-0.001495,0.000965,-0.298345,-0.728367,0.301909,0.537888,107.767135,37.114715,-72.555436
23585,-6.082789,6.612827,-1.526000,-0.768969,0.569737,-0.749434,0.311954,-0.368989,0.186557,-0.060861,0.066095,-0.015269,0.999997,0.001560,-0.001845,0.000933,-0.297130,-0.727560,0.303981,0.538484,107.770709,37.078930,-72.849373
23586,-5.774936,6.243289,-1.763039,-0.418011,0.601980,-1.158225,0.223844,-0.397696,0.119804,-0.057752,0.062418,-0.017675,0.999997,0.001119,-0.001988,0.000599,-0.296010,-0.726645,0.305614,0.539413,107.721329,37.084593,-73.147913
23587,-5.372408,6.037090,-2.568392,0.487188,0.506614,-1.362135,0.121070,-0.306513,0.042523,-0.053698,0.060375,-0.025730,0.999999,0.000605,-0.001533,0.000213,-0.295194,-0.725936,0.306552,0.540281,107.660306,37.116234,-73.367601
23588,-5.302530,6.279142,-3.122064,1.015599,0.347726,-1.086900,0.038704,-0.165806,-0.019665,-0.052993,0.062803,-0.031252,1.000000,0.000194,-0.000829,-0.000098,-0.294722,-0.725581,0.306834,0.540854,107.618717,37.157376,-73.477164
23589,-5.362703,6.711869,-3.391720,1.213970,0.138128,-0.657430,-0.020033,-0.064707,-0.041399,-0.053602,0.067126,-0.033941,1.000000,-0.000100,-0.000324,-0.000207,-0.294562,-0.725445,0.306729,0.541184,107.587627,37.192682,-73.513143
23590,-5.636541,7.398271,-3.236100,0.919170,-0.108952,-0.008575,-0.033875,-0.001927,-0.025967,-0.056355,0.073985,-0.032374,1.000000,-0.000169,-0.000010,-0.000130,-0.294587,-0.725437,0.306550,0.541283,107.573117,37.208810,-73.509030
23591,-5.970103,7.884179,-3.127078,0.677828,-0.175120,0.535786,-0.019364,0.047297,0.003156,-0.059710,0.078838,-0.031264,1.000000,-0.000097,0.000236,0.000016,-0.294717,-0.725536,0.306444,0.541140,107.582966,37.200386,-73.477914
23592,-6.222583,8.119538,-2.744362,0.210713,-0.169473,0.775315,0.184877,0.059261,0.025324,-0.062244,0.081213,-0.027350,1.000000,0.000924,0.000296,0.000127,-0.294181,-0.725937,0.306952,0.540605,107.712442,37.177856,-73.442995
23593,-6.335692,8.270110,-2.259653,-0.331566,-0.229319,0.839969,0.436941,0.039769,0.031765,-0.063375,0.082740,-0.022403,0.999998,0.002185,0.000199,0.000159,-0.292719,-0.726641,0.308194,0.539746,107.976758,37.155036,-73.423399
23594,-6.438119,8.279072,-2.099125,-0.550733,-0.178839,0.867355,0.510551,-0.038236,0.033316,-0.064391,0.082833,-0.020792,0.999997,0.002553,-0.000191,0.000167,-0.290870,-0.727238,0.309751,0.539048,108.251346,37.145290,-73.457142
23595,-6.385575,8.176060,-1.990731,-0.664142,-0.169841,0.728495,0.455001,-0.121633,0.042954,-0.063861,0.081792,-0.019760,0.999997,0.002275,-0.000608,0.000215,-0.289120,-0.727508,0.311314,0.538725,108.457826,37.145367,-73.550453
23596,-6.380422,8.036351,-1.723247,-0.920712,-0.111323,0.550816,0.287757,-0.215585,0.051230,-0.063806,0.080372,-0.017186,0.999998,0.001439,-0.001078,0.000256,-0.287852,-0.727269,0.312591,0.538988,108.529179,37.158301,-73.709308
23597,-6.140712,7.723563,-1.707263,-0.832074,-0.096379,0.166032,-0.020470,-0.302390,0.039064,-0.061396,0.077222,-0.017173,0.999999,-0.000102,-0.001512,0.000195,-0.287536,-0.726367,0.313117,0.540066,108.389206,37.193420,-73.925063
23598,-5.828447,7.433161,-2.067333,-0.346298,-0.119813,-0.150277,-0.237951,-0.291776,0.007421,-0.058257,0.074305,-0.020847,0.999998,-0.001190,-0.001459,0.000037,-0.287940,-0.725231,0.312924,0.541488,108.133502,37.243365,-74.126342
23599,-5.624978,7.341943,-2.515278,0.179381,-0.180567,-0.231130,-0.337869,-0.187534,-0.031447,-0.056215,0.073386,-0.025329,0.999998,-0.001689,-0.000938,-0.000157,-0.288764,-0.724289,0.312169,0.542744,107.868147,37.295194,-74.248375
23600,-5.647365,7.276183,-2.977979,0.663367,-0.082900,-0.155724,-0.336184,-0.055200,-0.052217,-0.056446,0.072726,-0.029918,0.999999,-0.001681,-0.000276,-0.000261,-0.289729,-0.723741,0.311150,0.543545,107.661732,37.334923,-74.275047
23601,-5.782997,7.330089,-3.336571,0.995771,0.017402,0.052102,-0.237339,0.040581,-0.060149,-0.057815,0.073279,-0.033441,0.999999,-0.001187,0.000203,-0.000301,-0.290465,-0.723605,0.310233,0.543857,107.552360,37.362223,-74.234688
23602,-6.020023,7.534051,-3.306419,0.896149,0.065699,0.342489,-0.044527,0.051929,-0.038599,-0.060194,0.075345,-0.033065,1.000000,-0.000223,0.000260,-0.000193,-0.290578,-0.723748,0.309901,0.543796,107.555860,37.375905,-74.190838
23603,-6.240884,7.823522,-2.841585,0.351808,0.006986,0.584759,0.227275,-0.014428,0.004623,-0.062409,0.078266,-0.028331,0.999999,0.001136,-0.000072,0.000023,-0.289724,-0.724036,0.310561,0.543492,107.681193,37.377367,-74.202394
23604,-6.280145,8.162924,-1.990338,-0.546558,-0.254372,0.659729,0.365273,-0.090389,0.046784,-0.062812,0.081651,-0.019783,0.999998,0.001826,-0.000452,0.000234,-0.288364,-0.724253,0.311857,0.543184,107.848859,37.369206,-74.274949
23605,-6.317158,8.145337,-1.637942,-0.913418,-0.243935,0.581638,0.303565,-0.132918,0.070814,-0.063190,0.081456,-0.016298,0.999999,0.001518,-0.000665,0.000354,-0.287227,-0.724222,0.313134,0.543093,107.959686,37.355498,-74.382442
23606,-6.300801,7.896674,-1.740408,-0.787554,-0.088632,0.407805,0.214371,-0.167026,0.068868,-0.063021,0.078964,-0.017372,0.999999,0.001072,-0.000835,0.000344,-0.286353,-0.723975,0.314209,0.543264,108.005986,37.349077,-74.512518
23607,-6.205072,7.642769,-1.892507,-0.586622,0.012095,0.194917,0.141778,-0.193035,0.048534,-0.062051,0.076426,-0.018931,0.999999,0.000709,-0.000965,0.000243,-0.285646,-0.723581,0.315050,0.543673,108.002126,37.358304,-74.656275
23608,-6.032288,7.535463,-2.130865,-0.297796,-0.035131,0.067716,0.007398,-0.206391,0.027534,-0.060311,0.075347,-0.021368,0.999999,0.000037,-0.001032,0.000138,-0.285345,-0.722993,0.315468,0.544370,107.918932,37.381336,-74.804221
23609,-5.854343,7.461246,-2.883742,0.496590,-0.071636,0.087197,-0.164413,-0.197645,0.014454,-0.058520,0.074584,-0.028957,0.999999,-0.000822,-0.000988,0.000072,-0.285645,-0.722202,0.315359,0.545326,107.742133,37.409615,-74.943731
23610,-5.669838,7.528984,-3.350479,1.001402,-0.222168,0.137496,-0.201454,-0.155694,0.015228,-0.056678,0.075252,-0.033625,0.999999,-0.001007,-0.000778,0.000076,-0.286144,-0.721471,0.315091,0.546185,107.561838,37.429919,-75.054386
23611,-5.659774,7.734748,-3.102276,0.753551,-0.374866,0.225993,-0.111025,-0.098365,0.031901,-0.056595,0.077321,-0.031094,1.000000,-0.000555,-0.000492,0.000160,-0.286455,-0.720998,0.315048,0.546672,107.454619,37.430927,-75.129632
23612,-5.683061,7.750367,-2.813518,0.479514,-0.381758,0.182590,-0.091116,-0.074330,0.063268,-0.056845,0.077473,-0.028192,1.000000,-0.000456,-0.000372,0.000316,-0.286816,-0.720571,0.315138,0.546994,107.365261,37.410620,-75.194714
23613,-5.801966,7.636547,-2.828533,0.496514,-0.208916,0.171804,-0.089074,-0.065792,0.093334,-0.058046,0.076326,-0.028338,1.000000,-0.000445,-0.000329,0.000467,-0.287266,-0.720121,0.315329,0.547240,107.276290,37.372273,-75.260689
23614,-5.846107,7.488341,-2.596504,0.289258,-0.087327,0.031232,0.021171,-0.069569,0.116810,-0.058496,0.074852,-0.025977,1.000000,0.000106,-0.000348,0.000584,-0.287376,-0.719783,0.315912,0.547290,107.246480,37.321703,-75.333784
23615,-5.861592,7.493007,-2.299266,-0.004412,-0.089596,-0.025860,0.110922,-0.069177,0.128523,-0.058656,0.074905,-0.022971,1.000000,0.000555,-0.000346,0.000643,-0.287197,-0.719554,0.316782,0.547182,107.266308,37.264619,-75.409466
23616,-5.809919,7.434808,-2.307211,0.017740,-0.082950,-0.099420,0.078241,-0.064846,0.127640,-0.058139,0.074320,-0.023062,1.000000,0.000391,-0.000324,0.000638,-0.287139,-0.719294,0.317552,0.547109,107.269941,37.207321,-75.481528
23617,-5.883481,7.381788,-2.523726,0.217243,0.031156,-0.044005,0.071488,-0.044970,0.131815,-0.058878,0.073788,-0.025224,1.000000,0.000357,-0.000225,0.000659,-0.287149,-0.719068,0.318291,0.546971,107.276975,37.144335,-75.541194
23618,-5.846745,7.456402,-2.683350,0.365734,-0.024198,0.028470,0.066912,-0.066860,0.134694,-0.058509,0.074534,-0.026828,1.000000,0.000335,-0.000334,0.000673,-0.287147,-0.718774,0.319059,0.546912,107.272568,37.083525,-75.616031
23619,-5.783268,7.461023,-2.660025,0.353353,-0.067099,-0.011696,0.058240,-0.067966,0.148714,-0.057879,0.074575,-0.026598,1.000000,0.000291,-0.000340,0.000744,-0.287214,-0.718438,0.319854,0.546853,107.260515,37.015198,-75.694953
23620,-5.784262,7.445083,-2.561903,0.260246,-0.050031,-0.046416,0.031775,-0.081160,0.168829,-0.057895,0.074406,-0.025631,1.000000,0.000159,-0.000406,0.000844,-0.287408,-0.717999,0.320669,0.546851,107.225990,36.938099,-75.786652
23621,-5.750955,7.436317,-2.487471,0.197684,-0.060651,-0.090700,0.033885,-0.101148,0.187291,-0.057567,0.074313,-0.024891,0.999999,0.000169,-0.000506,0.000936,-0.287614,-0.717475,0.321583,0.546893,107.181761,36.854212,-75.896206
23622,-5.707830,7.368906,-2.414453,0.146682,-0.041139,-0.185307,0.043426,-0.090873,0.191739,-0.057138,0.073640,-0.024154,0.999999,0.000217,-0.000454,0.000959,-0.287813,-0.716987,0.322525,0.546874,107.147457,36.766107,-75.999041
23623,-5.650711,7.446036,-2.409559,0.142370,-0.118722,-0.161492,0.019857,-0.057082,0.183374,-0.056568,0.074411,-0.024104,1.000000,0.000099,-0.000285,0.000917,-0.288129,-0.716568,0.323323,0.546785,107.114179,36.676817,-76.077286
23624,-5.696427,7.548761,-2.413690,0.125393,-0.131398,-0.054308,-0.064354,-0.031751,0.163244,-0.057022,0.075433,-0.024170,1.000000,-0.000322,-0.000159,0.000816,-0.288731,-0.716132,0.323782,0.546768,107.046260,36.594242,-76.133391
23625,-5.802767,7.277323,-2.292900,0.033467,0.128300,-0.227734,-0.070651,-0.018121,0.138085,-0.058076,0.072725,-0.022960,1.000000,-0.000353,-0.000091,0.000690,-0.289310,-0.715761,0.324114,0.546751,106.982995,36.523106,-76.175218
23626,-5.905960,7.207977,-2.239391,-0.023557,0.260705,-0.232414,-0.059773,0.000246,0.101840,-0.059096,0.072043,-0.022415,1.000000,-0.000299,0.000001,0.000509,-0.289779,-0.715517,0.324319,0.546700,106.938568,36.468740,-76.196432
23627,-5.956088,7.294246,-2.545855,0.256305,0.273849,-0.064780,-0.093005,0.007166,0.068780,-0.059587,0.072910,-0.025490,1.000000,-0.000465,0.000036,0.000344,-0.290289,-0.715295,0.324305,0.546728,106.881460,36.431320,-76.206446
23628,-6.055652,7.287722,-2.678560,0.370960,0.370564,0.019991,-0.030636,-0.006212,0.055965,-0.060576,0.072856,-0.026799,1.000000,-0.000153,-0.000031,0.000280,-0.290518,-0.715150,0.324435,0.546719,106.856852,36.403166,-76.222446
23629,-5.995709,7.266660,-2.611666,0.319172,0.336807,-0.047527,0.103925,-0.048988,0.063294,-0.059974,0.072661,-0.026094,1.000000,0.000520,-0.000245,0.000316,-0.290218,-0.715069,0.325021,0.546637,106.890588,36.378088,-76.269537
23630,-5.926694,7.232179,-2.448553,0.171177,0.296503,-0.153065,0.207500,-0.083090,0.075787,-0.059284,0.072325,-0.024435,0.999999,0.001037,-0.000415,0.000379,-0.289524,-0.715026,0.325984,0.546486,106.968983,36.351926,-76.341982
23631,-5.861345,7.075869,-2.320140,0.069545,0.335959,-0.342280,0.293812,-0.109684,0.088962,-0.058632,0.070767,-0.023130,0.999999,0.001469,-0.000548,0.000445,-0.288516,-0.715011,0.327268,0.546273,107.083893,36.323070,-76.435748
23632,-5.862183,6.967804,-2.061209,-0.181164,0.389608,-0.486411,0.350396,-0.143529,0.085675,-0.058637,0.069689,-0.020532,0.999998,0.001752,-0.000718,0.000428,-0.287238,-0.714990,0.328742,0.546088,107.218635,36.301950,-76.551403
23633,-5.926623,6.852385,-1.884568,-0.362847,0.501518,-0.579680,0.378062,-0.172314,0.070505,-0.059274,0.068538,-0.018767,0.999998,0.001890,-0.000862,0.000353,-0.285773,-0.714949,0.330278,0.545983,107.358942,36.294202,-76.683898
23634,-5.964884,6.872228,-1.807687,-0.464300,0.512477,-0.560830,0.412896,-0.196243,0.043657,-0.059646,0.068746,-0.017993,0.999997,0.002064,-0.000981,0.000218,-0.284067,-0.714937,0.331845,0.545939,107.513566,36.305596,-76.826481
23635,-5.927442,7.042386,-1.718735,-0.588073,0.368084,-0.474460,0.392947,-0.200477,0.005428,-0.059259,0.070456,-0.017108,0.999998,0.001965,-0.001002,0.000027,-0.282322,-0.714942,0.333225,0.545998,107.659278,36.338821,-76.964175
23636,-5.874047,7.194923,-1.902372,-0.438152,0.229966,-0.344557,0.258040,-0.179598,-0.050506,-0.058705,0.071989,-0.018984,0.999999,0.001290,-0.000898,-0.000253,-0.280938,-0.714906,0.334006,0.546281,107.743741,36.399279,-77.075190
23637,-5.772903,7.233063,-2.237571,-0.104520,0.127214,-0.293065,0.069550,-0.123072,-0.107288,-0.057676,0.072369,-0.022386,1.000000,0.000348,-0.000615,-0.000536,-0.280169,-0.714851,0.333990,0.546758,107.749599,36.480805,-77.136001
23638,-5.729538,7.173145,-2.444939,0.120678,0.123735,-0.313770,-0.066192,-0.085341,-0.152554,-0.057230,0.071767,-0.024498,1.000000,-0.000331,-0.000427,-0.000763,-0.279822,-0.714787,0.333387,0.547387,107.699193,36.580565,-77.161062
23639,-5.658741,6.987671,-2.677114,0.403021,0.176859,-0.441343,-0.170791,-0.054730,-0.188150,-0.056514,0.069907,-0.026846,0.999999,-0.000854,-0.000274,-0.000941,-0.279804,-0.714715,0.332328,0.548133,107.605182,36.694285,-77.158187
23640,-5.613062,6.899843,-2.944835,0.698991,0.189808,-0.471290,-0.162625,0.016980,-0.219490,-0.056057,0.069036,-0.029500,0.999999,-0.000813,0.000085,-0.001097,-0.279787,-0.714906,0.331078,0.548650,107.549618,36.812853,-77.099416
23641,-5.792798,7.098415,-2.807446,0.510604,0.184307,-0.245502,-0.146788,0.040369,-0.228446,-0.057853,0.071030,-0.028115,0.999999,-0.000734,0.000202,-0.001142,-0.279729,-0.715193,0.329807,0.549070,107.513383,36.932180,-77.023189
23642,-5.992568,7.202037,-2.710987,0.374116,0.253109,-0.069711,-0.161730,0.021472,-0.238367,-0.059843,0.072070,-0.027162,0.999999,-0.000809,0.000107,-0.001192,-0.279664,-0.715425,0.328484,0.549594,107.462845,37.060363,-76.957286
23643,-6.157701,7.196998,-2.477499,0.127904,0.355610,-0.029579,-0.091836,0.002010,-0.234811,-0.061493,0.072031,-0.024807,0.999999,-0.000459,0.000010,-0.001174,-0.279328,-0.715692,0.327393,0.550068,107.443349,37.189844,-76.905935
23644,-6.218804,7.237469,-2.308648,-0.044337,0.350107,-0.001482,-0.097155,-0.055094,-0.221739,-0.062101,0.072432,-0.023139,0.999999,-0.000486,-0.000275,-0.001109,-0.278951,-0.715775,0.326413,0.550734,107.396083,37.322144,-76.896154
23645,-6.043324,6.902220,-2.213885,-0.039184,0.401608,-0.383964,-0.071414,-0.110982,-0.213611,-0.060347,0.069079,-0.022197,0.999999,-0.000357,-0.000555,-0.001068,-0.278415,-0.715722,0.325611,0.551548,107.338443,37.459418,-76.927198
23646,-5.827732,6.663050,-2.053106,-0.109063,0.359354,-0.733433,0.033205,-0.141630,-0.204603,-0.058195,0.066693,-0.020561,0.999999,0.000166,-0.000708,-0.001023,-0.277477,-0.715717,0.325171,0.552285,107.327170,37.597149,-76.981004
23647,-5.623210,6.656076,-2.112345,-0.008546,0.187044,-0.848830,0.090866,-0.168663,-0.198530,-0.056148,0.066626,-0.021141,0.999999,0.000454,-0.000843,-0.000993,-0.276307,-0.715704,0.324950,0.553019,107.335914,37.736005,-77.055378
23648,-5.493622,6.708882,-2.276524,0.168856,0.038085,-0.849343,0.116194,-0.182601,-0.187628,-0.054852,0.067154,-0.022776,0.999999,0.000581,-0.000913,-0.000938,-0.275051,-0.715671,0.324855,0.553743,107.352248,37.871475,-77.141383
23649,-5.390236,6.918600,-2.398041,0.271869,-0.192215,-0.726358,0.171116,-0.172337,-0.168471,-0.053823,0.069252,-0.023968,0.999999,0.000856,-0.000862,-0.000842,-0.273670,-0.715706,0.324967,0.554316,107.401044,37.994568,-77.224955
23650,-5.420227,7.399170,-2.472829,0.258725,-0.494053,-0.329523,0.147604,-0.127310,-0.154426,-0.054129,0.074052,-0.024708,0.999999,0.000738,-0.000637,-0.000772,-0.272482,-0.715813,0.325002,0.554743,107.454269,38.102493,-77.279838
23651,-5.587880,7.789132,-2.712251,0.398502,-0.625432,0.122166,0.018957,-0.071927,-0.141953,-0.055814,0.077934,-0.027135,1.000000,0.000095,-0.000360,-0.000710,-0.271881,-0.715874,0.324649,0.555165,107.455145,38.193926,-77.299451
23652,-5.933305,7.916062,-2.572818,0.185183,-0.460295,0.397179,0.028976,-0.066177,-0.109110,-0.059281,0.079197,-0.025736,1.000000,0.000145,-0.000331,-0.000546,-0.271342,-0.715914,0.324432,0.555504,107.460420,38.266563,-77.321766
23653,-6.230157,8.223091,-2.383500,-0.098346,-0.447583,0.765835,0.034973,-0.061257,-0.093022,-0.062256,0.082264,-0.023840,1.000000,0.000175,-0.000306,-0.000465,-0.270837,-0.715946,0.324284,0.555795,107.468380,38.329420,-77.344690
23654,-6.473605,8.360146,-2.431181,-0.110158,-0.358411,1.030266,-0.071400,-0.073715,-0.083258,-0.064692,0.083620,-0.024366,1.000000,-0.000357,-0.000369,-0.000416,-0.270718,-0.715787,0.323892,0.556287,107.409279,38.389188,-77.377992
23655,-6.522050,8.329988,-2.427776,-0.103775,-0.310808,1.036853,-0.106460,-0.087372,-0.081053,-0.065176,0.083313,-0.024351,1.000000,-0.000532,-0.000437,-0.000405,-0.270709,-0.715535,0.323428,0.556885,107.323107,38.449936,-77.421931
23656,-6.417904,8.377206,-2.398313,-0.106470,-0.430180,1.000386,-0.122924,-0.092030,-0.084381,-0.064133,0.083784,-0.024064,1.000000,-0.000615,-0.000460,-0.000422,-0.270741,-0.715255,0.322913,0.557527,107.226429,38.513342,-77.468075
23657,-6.267601,8.353967,-2.481879,0.023541,-0.535228,0.908518,-0.199837,-0.078696,-0.080830,-0.062632,0.083540,-0.024927,0.999999,-0.000999,-0.000393,-0.000404,-0.271081,-0.714899,0.322178,0.558243,107.090212,38.572375,-77.506347
23658,-6.144313,8.236948,-2.549706,0.152063,-0.557598,0.759295,-0.231741,-0.072653,-0.074082,-0.061403,0.082363,-0.025615,0.999999,-0.001159,-0.000363,-0.000370,-0.271562,-0.714508,0.321369,0.558976,106.937918,38.626697,-77.541565
23659,-6.062649,7.917181,-2.358920,0.051917,-0.423552,0.425468,-0.187945,-0.071961,-0.064258,-0.060593,0.079169,-0.023685,0.999999,-0.000940,-0.000360,-0.000321,-0.271916,-0.714159,0.320716,0.559625,106.808938,38.675375,-77.579071
23660,-6.012723,7.726620,-2.405815,0.154257,-0.340855,0.262105,-0.188977,-0.055305,-0.052290,-0.060100,0.077259,-0.024148,0.999999,-0.000945,-0.000277,-0.000261,-0.272331,-0.713838,0.320080,0.560196,106.685606,38.714718,-77.607073
23661,-6.073694,7.420139,-2.660187,0.457404,-0.090709,0.127500,-0.212470,-0.054910,-0.044858,-0.060713,0.074187,-0.026697,0.999999,-0.001062,-0.000275,-0.000224,-0.272854,-0.713470,0.319404,0.560796,106.547291,38.749819,-77.636975
23662,-6.095543,7.207622,-2.716428,0.555604,0.063065,-0.005968,-0.100908,-0.054635,-0.036026,-0.060935,0.072073,-0.027217,1.000000,-0.000505,-0.000273,-0.000180,-0.273002,-0.713244,0.319072,0.561201,106.472428,38.780011,-77.668124
23663,-6.145422,7.094794,-2.569731,0.427501,0.166820,-0.091821,0.012236,-0.045503,-0.013512,-0.061444,0.070954,-0.025707,1.000000,0.000061,-0.000228,-0.000068,-0.272826,-0.713158,0.319125,0.561365,106.462811,38.796301,-77.698066
23664,-6.111285,7.082360,-2.685498,0.548172,0.150559,-0.096908,0.047248,-0.039160,0.008937,-0.061111,0.070827,-0.026850,1.000000,0.000236,-0.000196,0.000045,-0.272596,-0.713106,0.319347,0.561417,106.473794,38.799257,-77.727692
23665,-6.085173,7.125990,-2.671175,0.527360,0.101504,-0.083565,0.138990,-0.036002,0.040785,-0.060861,0.071266,-0.026673,1.000000,0.000695,-0.000180,0.000204,-0.272135,-0.713133,0.319937,0.561271,106.533899,38.784186,-77.762264
23666,-6.040914,7.332013,-2.563000,0.385943,-0.067708,0.019223,0.224709,-0.019515,0.070508,-0.060432,0.073328,-0.025554,0.999999,0.001124,-0.000098,0.000353,-0.271477,-0.713278,0.320850,0.560884,106.647195,38.750171,-77.790925
23667,-6.031386,7.501709,-2.447829,0.231513,-0.184368,0.114926,0.251717,-0.005235,0.104241,-0.060352,0.075016,-0.024385,0.999999,0.001259,-0.000026,0.000521,-0.270841,-0.713441,0.321939,0.560360,106.777052,38.695307,-77.817295
23668,-6.062940,7.604465,-2.337028,0.081244,-0.223739,0.186919,0.286857,-0.003937,0.120368,-0.060675,0.076042,-0.023262,0.999999,0.001434,-0.000020,0.000602,-0.270124,-0.713631,0.323181,0.559748,106.926124,38.631457,-77.845766
23669,-6.152201,7.729268,-2.294699,-0.017331,-0.229787,0.326526,0.284311,0.002209,0.133042,-0.061574,0.077284,-0.022836,0.999999,0.001422,0.000011,0.000665,-0.269463,-0.713809,0.324453,0.559103,107.073915,38.559669,-77.873395
23670,-6.294055,7.714768,-2.257061,-0.096708,-0.104380,0.395487,0.250075,0.001192,0.131558,-0.062991,0.077134,-0.022474,0.999999,0.001250,0.000006,0.000658,-0.268916,-0.713943,0.325625,0.558514,107.202474,38.488928,-77.901048
23671,-6.369626,7.632297,-2.306159,-0.066325,0.015945,0.392104,0.219957,-0.011572,0.122665,-0.063742,0.076309,-0.022981,0.999999,0.001100,-0.000058,0.000613,-0.268432,-0.714010,0.326697,0.558035,107.308636,38.425258,-77.936411
23672,-6.255083,7.724733,-2.529565,0.139534,-0.119219,0.442192,0.162140,-0.014513,0.110232,-0.062592,0.077233,-0.025238,1.000000,0.000811,-0.000073,0.000551,-0.268113,-0.714014,0.327567,0.557673,107.382757,38.368943,-77.970663
23673,-6.075865,7.898557,-2.476632,0.078205,-0.360790,0.448928,0.077231,0.009581,0.106336,-0.060802,0.078963,-0.024733,1.000000,0.000386,0.000048,0.000532,-0.268128,-0.713974,0.328153,0.557372,107.418468,38.310647,-77.987861
23674,-5.896442,8.144496,-2.225158,-0.181547,-0.650723,0.463292,-0.054944,0.039015,0.090661,-0.059006,0.081412,-0.022262,1.000000,-0.000275,0.000195,0.000453,-0.268617,-0.713868,0.328276,0.557201,107.393996,38.255871,-77.980578
23675,-5.826353,8.113580,-2.371909,-0.013032,-0.669963,0.431992,-0.275991,0.093731,0.082615,-0.058308,0.081079,-0.023804,0.999999,-0.001380,0.000469,0.000413,-0.269964,-0.713626,0.327681,0.557210,107.266867,38.196170,-77.933916
23676,-5.883497,7.853849,-2.575663,0.239049,-0.440896,0.320472,-0.386489,0.116368,0.070720,-0.058878,0.078468,-0.025874,0.999998,-0.001932,0.000582,0.000354,-0.271706,-0.713318,0.326703,0.557331,107.088500,38.139206,-77.868230
23677,-5.959737,7.512523,-2.706745,0.433180,-0.144638,0.140920,-0.428552,0.149646,0.066661,-0.059643,0.075047,-0.027184,0.999997,-0.002143,0.000748,0.000333,-0.273642,-0.713046,0.325547,0.557408,106.900240,38.079099,-77.778865
23678,-6.124690,7.106698,-2.784285,0.567355,0.260465,-0.046448,-0.403053,0.146127,0.068088,-0.061291,0.070990,-0.027941,0.999998,-0.002015,0.000731,0.000340,-0.275483,-0.712797,0.324471,0.557448,106.725624,38.018954,-77.691533
23679,-6.196203,6.660803,-2.652392,0.511289,0.611255,-0.370265,-0.248727,0.103512,0.085165,-0.062004,0.066549,-0.026575,0.999999,-0.001244,0.000518,0.000426,-0.276752,-0.712608,0.323943,0.557367,106.618269,37.956670,-77.637875
