// General information: 
//  MT Manager version: 2022.0.0 
//  XDA version: 2022.0.0 build 7085 rev 119802 built on 2022-11-08
// Device information: 
//  DeviceId: 00B472EF
//  ProductCode: MTW2-3A7G6
//  Firmware Version: 4.14.0
//  Hardware Version: 2.0.0
// Device settings: 
//  Filter Profile: human(46.1)
//  Option Flags: Orientation Smoother Disabled, Position/Velocity Smoother Disabled, Continuous Zero Rotation Update Disabled, AHS Disabled, ICC Disabled
// Coordinate system: ENU
PacketCounter,Acc_X,Acc_Y,Acc_Z,FreeAcc_E,FreeAcc_N,FreeAcc_U,Gyr_X,Gyr_Y,Gyr_Z,VelInc_X,VelInc_Y,VelInc_Z,OriInc_q0,OriInc_q1,OriInc_q2,OriInc_q3,Quat_q0,Quat_q1,Quat_q2,Quat_q3,Roll,Pitch,Yaw
16897,-8.855406,3.707504,-1.243896,-0.169232,0.142237,-0.134767,0.037346,0.258839,0.023188,-0.088574,0.037067,-0.012317,0.999999,0.000187,0.001294,0.000116,-0.147944,-0.744355,0.138359,0.636321,110.275782,65.006956,-68.928705
16898,-8.835558,3.724408,-1.378306,-0.058610,0.126815,-0.126694,0.029969,0.270173,0.026085,-0.088379,0.037235,-0.013658,0.999999,0.000150,0.001351,0.000130,-0.148082,-0.745216,0.138355,0.635282,110.592951,64.940480,-68.599688
16899,-8.860821,3.786909,-1.465160,-0.003968,0.085312,-0.066192,0.040345,0.281616,0.022476,-0.088633,0.037862,-0.014519,0.999999,0.000202,0.001408,0.000112,-0.148176,-0.746123,0.138363,0.634192,110.929691,64.872733,-68.255640
16900,-8.868202,3.819533,-1.484186,-0.014238,0.060955,-0.043723,0.052767,0.285882,0.024817,-0.088708,0.038188,-0.014705,0.999999,0.000264,0.001429,0.000124,-0.148235,-0.747048,0.138415,0.633077,111.274852,64.802083,-67.909789
16901,-8.862947,3.820964,-1.511638,-0.014222,0.060687,-0.043722,0.075601,0.278110,0.029158,-0.088656,0.038202,-0.014979,0.999999,0.000378,0.001391,0.000146,-0.148216,-0.747963,0.138561,0.631969,111.621127,64.729764,-67.577133
16902,-8.896181,3.760067,-1.505182,-0.053312,0.131135,-0.038967,0.111525,0.275712,0.032499,-0.088989,0.037595,-0.014908,0.999999,0.000558,0.001379,0.000162,-0.148072,-0.748891,0.138834,0.630843,111.981164,64.655405,-67.251666
16903,-8.950036,3.782470,-1.562701,-0.035877,0.136030,0.027658,0.157264,0.270315,0.037649,-0.089528,0.037820,-0.015476,0.999999,0.000786,0.001352,0.000188,-0.147768,-0.749832,0.139275,0.629698,112.357682,64.578485,-66.936916
16904,-8.944697,3.727168,-1.676074,0.047882,0.191079,0.019389,0.162435,0.259241,0.034690,-0.089475,0.037270,-0.016615,0.999999,0.000812,0.001296,0.000173,-0.147428,-0.750741,0.139729,0.628593,112.723561,64.504803,-66.636816
16905,-8.922410,3.667000,-1.742927,0.089589,0.241368,-0.013314,0.178215,0.247240,0.035692,-0.089252,0.036670,-0.017286,0.999999,0.000891,0.001236,0.000178,-0.147022,-0.751622,0.140244,0.627519,113.083521,64.432339,-66.353331
16906,-8.839870,3.659590,-1.851990,0.182790,0.220732,-0.071868,0.193849,0.234216,0.030947,-0.088426,0.036600,-0.018381,0.999999,0.000969,0.001171,0.000155,-0.146534,-0.752475,0.140800,0.626486,113.438007,64.364682,-66.085468
16907,-8.808716,3.621121,-1.918441,0.226451,0.246718,-0.103198,0.216305,0.225314,0.040926,-0.088116,0.036214,-0.019046,0.999999,0.001082,0.001127,0.000205,-0.145986,-0.753309,0.141470,0.625460,113.789859,64.292994,-65.834862
16908,-8.768460,3.605460,-1.985917,0.272109,0.248403,-0.133158,0.239838,0.219584,0.047505,-0.087715,0.036057,-0.019720,0.999999,0.001199,0.001098,0.000238,-0.145366,-0.754134,0.142242,0.624435,114.143560,64.218652,-65.596764
16909,-8.757301,3.600256,-2.067964,0.326429,0.252662,-0.129806,0.270470,0.206888,0.057558,-0.087605,0.036005,-0.020540,0.999999,0.001352,0.001034,0.000288,-0.144651,-0.754933,0.143157,0.623425,114.495116,64.141297,-65.380649
16910,-8.754671,3.653839,-2.090063,0.318097,0.203979,-0.105973,0.310562,0.191261,0.067638,-0.087579,0.036541,-0.020760,0.999998,0.001553,0.000956,0.000338,-0.143806,-0.755702,0.144244,0.622437,114.845720,64.061985,-65.190749
16911,-8.804163,3.677386,-2.070349,0.260233,0.201926,-0.054909,0.339963,0.170994,0.072891,-0.088073,0.036777,-0.020566,0.999998,0.001700,0.000855,0.000364,-0.142849,-0.756424,0.145458,0.621497,115.187920,63.984226,-65.029044
16912,-8.770825,3.769250,-2.126069,0.289081,0.106811,-0.037221,0.365454,0.155927,0.075748,-0.087739,0.037698,-0.021123,0.999998,0.001827,0.000780,0.000379,-0.141795,-0.757111,0.146772,0.620593,115.525385,63.908398,-64.888533
16913,-8.743779,3.841157,-2.103610,0.240630,0.029090,-0.036465,0.389848,0.143309,0.069756,-0.087466,0.038422,-0.020899,0.999998,0.001949,0.000717,0.000349,-0.140619,-0.757778,0.148147,0.619718,115.865764,63.838302,-64.760484
16914,-8.686714,3.926578,-2.091618,0.206453,-0.073132,-0.055442,0.414461,0.146197,0.073462,-0.086897,0.039277,-0.020771,0.999998,0.002072,0.000731,0.000367,-0.139364,-0.758465,0.149609,0.618810,116.219662,63.765361,-64.632788
16915,-8.693486,4.038840,-2.056743,0.135347,-0.174744,-0.011147,0.400876,0.144200,0.074494,-0.086965,0.040397,-0.020424,0.999998,0.002004,0.000721,0.000372,-0.138160,-0.759132,0.151035,0.617915,116.562379,63.691927,-64.509019
16916,-8.782762,4.025910,-2.027607,0.061330,-0.128002,0.058272,0.399014,0.141056,0.073690,-0.087857,0.040267,-0.020134,0.999998,0.001995,0.000705,0.000368,-0.136959,-0.759784,0.152453,0.617032,116.899493,63.619517,-64.390021
16917,-8.835275,4.001780,-1.959862,-0.042442,-0.086186,0.082164,0.425535,0.124591,0.078046,-0.088381,0.040025,-0.019458,0.999997,0.002128,0.000623,0.000390,-0.135656,-0.760397,0.153980,0.616184,117.231883,63.548742,-64.293404
16918,-8.880418,4.019286,-1.995079,-0.045979,-0.083714,0.136566,0.424599,0.113425,0.072244,-0.088830,0.040203,-0.019815,0.999998,0.002123,0.000567,0.000361,-0.134330,-0.760976,0.155488,0.615382,117.553870,63.483740,-64.207541
16919,-8.898034,4.002147,-1.988823,-0.081214,-0.061868,0.144076,0.408689,0.104047,0.061507,-0.089003,0.040035,-0.019760,0.999998,0.002043,0.000520,0.000308,-0.133024,-0.761520,0.156913,0.614630,117.862487,63.426351,-64.126601
16920,-8.796151,4.015199,-1.994497,-0.082423,-0.116081,0.059081,0.383388,0.106586,0.053848,-0.087983,0.040166,-0.019821,0.999998,0.001917,0.000533,0.000269,-0.131792,-0.762057,0.158228,0.613893,118.162034,63.372082,-64.039338
16921,-8.722113,3.977445,-2.095107,0.008754,-0.112449,-0.000856,0.352079,0.109189,0.043458,-0.087241,0.039792,-0.020833,0.999998,0.001760,0.000546,0.000217,-0.130648,-0.762587,0.159406,0.613173,118.451615,63.322026,-63.943329
16922,-8.721203,3.943778,-2.170017,0.061157,-0.083926,0.001125,0.318003,0.119063,0.034508,-0.087232,0.039457,-0.021586,0.999999,0.001590,0.000595,0.000173,-0.129616,-0.763130,0.160437,0.612448,118.735274,63.273667,-63.831838
16923,-8.622788,3.925939,-2.224308,0.112262,-0.109316,-0.081890,0.293786,0.119344,0.035948,-0.086248,0.039276,-0.022134,0.999999,0.001469,0.000597,0.000180,-0.128679,-0.763655,0.161400,0.611738,119.004340,63.224149,-63.721318
16924,-8.675247,3.966653,-2.302318,0.152666,-0.126442,-0.001694,0.258137,0.116491,0.046216,-0.086775,0.039676,-0.022921,0.999999,0.001291,0.000582,0.000231,-0.127907,-0.764137,0.162293,0.611060,119.243366,63.170181,-63.621308
16925,-8.664728,3.957099,-2.375458,0.206963,-0.122228,0.001647,0.231823,0.108287,0.045201,-0.086669,0.039579,-0.023662,0.999999,0.001159,0.000541,0.000226,-0.127226,-0.764578,0.163108,0.610434,119.459621,63.118731,-63.530087
16926,-8.694116,3.997134,-2.380827,0.184348,-0.146432,0.045184,0.194286,0.103502,0.046359,-0.086963,0.039974,-0.023724,0.999999,0.000971,0.000518,0.000232,-0.126688,-0.764978,0.163815,0.609856,119.648036,63.068018,-63.445721
16927,-8.674716,4.011326,-2.452433,0.240578,-0.166525,0.049880,0.145707,0.099707,0.040082,-0.086767,0.040114,-0.024452,1.000000,0.000729,0.000499,0.000200,-0.126313,-0.765340,0.164353,0.609334,119.808398,63.021283,-63.361770
16928,-8.666027,3.979920,-2.494466,0.271974,-0.140375,0.039645,0.131753,0.094601,0.035906,-0.086679,0.039800,-0.024877,1.000000,0.000659,0.000473,0.000180,-0.125975,-0.765680,0.164835,0.608846,119.957296,62.978077,-63.281481
16929,-8.660912,4.002873,-2.532794,0.294905,-0.162629,0.053214,0.111619,0.087377,0.030579,-0.086626,0.040030,-0.025268,1.000000,0.000558,0.000437,0.000153,-0.125691,-0.765990,0.165240,0.608405,120.090731,62.939394,-63.205769
16930,-8.660944,4.057104,-2.541807,0.286505,-0.211337,0.077008,0.090392,0.081465,0.023741,-0.086625,0.040572,-0.025364,1.000000,0.000452,0.000407,0.000119,-0.125464,-0.766273,0.165557,0.608009,120.209433,62.905817,-63.132732
16931,-8.607713,4.037807,-2.542893,0.290074,-0.214390,0.022596,0.084028,0.069430,0.026962,-0.086091,0.040377,-0.025382,1.000000,0.000420,0.000347,0.000135,-0.125260,-0.766514,0.165876,0.607661,120.311238,62.873965,-63.074748
16932,-8.574576,4.050993,-2.561379,0.304321,-0.239191,0.002848,0.069985,0.066523,0.019422,-0.085758,0.040511,-0.025571,1.000000,0.000350,0.000333,0.000097,-0.125085,-0.766742,0.166124,0.607341,120.405876,62.846718,-63.015582
16933,-8.568897,3.996565,-2.571737,0.312744,-0.191095,-0.020955,0.057082,0.063541,0.019130,-0.085701,0.039965,-0.025679,1.000000,0.000285,0.000318,0.000096,-0.124955,-0.766954,0.166335,0.607043,120.490676,62.820358,-62.959329
16934,-8.578259,3.943256,-2.627884,0.363213,-0.138302,-0.020317,0.048525,0.061863,0.016488,-0.085794,0.039432,-0.026243,1.000000,0.000243,0.000309,0.000082,-0.124850,-0.767156,0.166509,0.606761,120.569943,62.795823,-62.903602
16935,-8.574405,3.865848,-2.611739,0.348708,-0.068251,-0.057683,0.060782,0.060533,0.018188,-0.085755,0.038659,-0.026080,1.000000,0.000304,0.000303,0.000091,-0.124701,-0.767362,0.166729,0.606471,120.654260,62.770732,-62.850252
16936,-8.572317,3.865178,-2.619570,0.348733,-0.068555,-0.057686,0.084417,0.056698,0.010484,-0.085733,0.038658,-0.026155,1.000000,0.000422,0.000283,0.000052,-0.124435,-0.767576,0.166993,0.606182,120.752337,62.750580,-62.796486
16937,-8.558200,3.831820,-2.632113,0.359093,-0.044758,-0.080129,0.092112,0.050677,0.010473,-0.085591,0.038326,-0.026282,1.000000,0.000461,0.000253,0.000052,-0.124134,-0.767777,0.167284,0.605908,120.849337,62.732096,-62.749041
16938,-8.535061,3.820737,-2.647113,0.371407,-0.045257,-0.101225,0.101997,0.049787,0.010710,-0.085359,0.038216,-0.026430,1.000000,0.000510,0.000249,0.000054,-0.123795,-0.767981,0.167606,0.605630,120.950580,62.713775,-62.703039
16939,-8.531590,3.841956,-2.680963,0.394333,-0.067524,-0.087660,0.104176,0.047177,0.013756,-0.085325,0.038428,-0.026769,1.000000,0.000521,0.000236,0.000069,-0.123455,-0.768176,0.167949,0.605358,121.049092,62.694637,-62.661654
16940,-8.618906,3.832179,-2.609934,0.299325,-0.023126,-0.030420,0.129490,0.043223,0.016890,-0.086198,0.038331,-0.026056,1.000000,0.000647,0.000216,0.000084,-0.123024,-0.768371,0.168382,0.605078,121.156145,62.675144,-62.626840
16941,-8.669892,3.912447,-2.549180,0.211987,-0.075933,0.032204,0.156869,0.023374,0.025352,-0.086707,0.039133,-0.025451,1.000000,0.000784,0.000117,0.000127,-0.122496,-0.768516,0.168943,0.604845,121.255426,62.657322,-62.618561
16942,-8.749181,3.916985,-2.556677,0.194214,-0.049013,0.106356,0.160727,0.007050,0.028461,-0.087498,0.039178,-0.025532,1.000000,0.000804,0.000035,0.000142,-0.121949,-0.768610,0.169537,0.604669,121.339320,62.642870,-62.629967
16943,-8.788560,3.965633,-2.498186,0.117241,-0.077713,0.146539,0.153297,-0.008329,0.022275,-0.087889,0.039666,-0.024955,1.000000,0.000766,-0.000042,0.000111,-0.121399,-0.768658,0.170094,0.604562,121.408250,62.635999,-62.653555
16944,-8.800349,3.995776,-2.498604,0.106886,-0.102123,0.168973,0.133196,-0.015532,0.017060,-0.088005,0.039967,-0.024966,1.000000,0.000666,-0.000078,0.000085,-0.120904,-0.768676,0.170575,0.604503,121.461572,62.633876,-62.681631
16945,-8.818353,4.048686,-2.546421,0.140438,-0.146171,0.217187,0.089105,-0.022596,0.000727,-0.088181,0.040498,-0.025456,1.000000,0.000446,-0.000113,0.000004,-0.120523,-0.768660,0.170864,0.604518,121.492686,62.641821,-62.706387
16946,-8.781230,4.059511,-2.533030,0.133654,-0.173306,0.185211,0.047048,-0.033130,-0.005132,-0.087807,0.040603,-0.025335,1.000000,0.000235,-0.000166,-0.000026,-0.120277,-0.768591,0.171009,0.604613,121.492853,62.655816,-62.738736
16947,-8.733885,4.115663,-2.545832,0.151689,-0.246714,0.168135,0.000878,-0.039760,-0.021031,-0.087329,0.041166,-0.025475,1.000000,0.000004,-0.000199,-0.000105,-0.120155,-0.768489,0.170959,0.604782,121.469759,62.679529,-62.767603
16948,-8.630260,4.144017,-2.600030,0.227622,-0.318364,0.099994,-0.062183,-0.040382,-0.024453,-0.086292,0.041443,-0.026031,1.000000,-0.000311,-0.000202,-0.000122,-0.120264,-0.768349,0.170704,0.605010,121.411586,62.705114,-62.795167
16949,-8.565713,4.146666,-2.563360,0.212091,-0.348023,0.034698,-0.102677,-0.034647,-0.034360,-0.085646,0.041468,-0.025670,1.000000,-0.000513,-0.000173,-0.000172,-0.120503,-0.768210,0.170285,0.605256,121.341578,62.733797,-62.810047
16950,-8.460984,4.099288,-2.590211,0.273552,-0.349286,-0.070780,-0.131253,-0.033287,-0.033616,-0.084599,0.040990,-0.025943,1.000000,-0.000656,-0.000166,-0.000168,-0.120856,-0.768058,0.169782,0.605520,121.255693,62.761711,-62.824262
16951,-8.461413,4.123134,-2.607513,0.296457,-0.371566,-0.057232,-0.165167,-0.026365,-0.031489,-0.084604,0.041223,-0.026120,1.000000,-0.000826,-0.000132,-0.000157,-0.121351,-0.767904,0.169181,0.605785,121.155916,62.786509,-62.832348
16952,-8.435306,4.007228,-2.608437,0.325674,-0.275231,-0.125873,-0.203685,-0.019486,-0.023154,-0.084346,0.040055,-0.026133,0.999999,-0.001018,-0.000097,-0.000116,-0.122026,-0.767739,0.168490,0.606051,121.035470,62.805169,-62.838762
16953,-8.475408,3.890024,-2.639005,0.370398,-0.149565,-0.129217,-0.232324,-0.013517,-0.014616,-0.084749,0.038876,-0.026441,0.999999,-0.001162,-0.000068,-0.000073,-0.122840,-0.767567,0.167741,0.606311,120.899608,62.817874,-62.844156
16954,-8.538221,3.760450,-2.636880,0.379935,-0.001720,-0.125016,-0.241682,-0.012709,-0.011450,-0.085378,0.037577,-0.026420,0.999999,-0.001208,-0.000064,-0.000057,-0.123701,-0.767388,0.166976,0.606574,120.757033,62.828760,-62.850981
16955,-8.659242,3.635799,-2.565618,0.308665,0.166341,-0.083301,-0.214084,-0.013717,-0.004753,-0.086590,0.036333,-0.025701,0.999999,-0.001070,-0.000069,-0.000024,-0.124475,-0.767217,0.166320,0.606813,120.625684,62.836652,-62.863048
16956,-8.728467,3.513989,-2.511826,0.263915,0.309730,-0.082429,-0.180749,-0.028337,-0.007820,-0.087280,0.035121,-0.025162,1.000000,-0.000904,-0.000142,-0.000039,-0.125100,-0.767023,0.165763,0.607081,120.500853,62.850283,-62.889179
16957,-8.786223,3.545250,-2.458656,0.206040,0.307678,-0.031360,-0.141890,-0.040492,-0.000260,-0.087857,0.035435,-0.024629,1.000000,-0.000709,-0.000202,-0.000001,-0.125588,-0.766811,0.165360,0.607359,120.382447,62.863704,-62.933180
16958,-8.862138,3.531082,-2.400813,0.144359,0.354242,0.017043,-0.107651,-0.053927,0.007871,-0.088616,0.035294,-0.024051,1.000000,-0.000538,-0.000270,0.000039,-0.125959,-0.766572,0.165101,0.607654,120.265826,62.876933,-62.997147
16959,-8.880393,3.597397,-2.359306,0.102596,0.303396,0.049685,-0.076518,-0.069030,0.012572,-0.088798,0.035959,-0.023637,1.000000,-0.000383,-0.000345,0.000063,-0.126212,-0.766303,0.164963,0.607979,120.149904,62.892146,-63.080428
16960,-8.898643,3.663392,-2.317850,0.060841,0.252558,0.082323,-0.045627,-0.075149,0.018362,-0.088981,0.036620,-0.023220,1.000000,-0.000228,-0.000376,0.000092,-0.126360,-0.766029,0.164946,0.608297,120.042221,62.906163,-63.174263
16961,-8.853189,3.684939,-2.196119,-0.042285,0.216365,0.022558,-0.003078,-0.083760,0.016554,-0.088526,0.036842,-0.021999,1.000000,-0.000015,-0.000419,0.000083,-0.126331,-0.765758,0.165056,0.608615,119.951648,62.923479,-63.276311
16962,-8.804851,3.751719,-2.125618,-0.099573,0.136216,-0.010107,0.015986,-0.099992,0.009908,-0.088040,0.037515,-0.021297,1.000000,0.000080,-0.000500,0.000050,-0.126196,-0.765454,0.165210,0.608983,119.859630,62.948657,-63.392168
16963,-8.742791,3.824667,-2.187502,-0.025349,0.042963,-0.022532,0.018653,-0.105086,0.005160,-0.087417,0.038246,-0.021917,1.000000,0.000093,-0.000525,0.000026,-0.126032,-0.765141,0.165356,0.609371,119.766796,62.977563,-63.510689
16964,-8.701079,3.914172,-2.164995,-0.038726,-0.056854,-0.029437,0.020158,-0.113225,0.003928,-0.086999,0.039142,-0.021695,1.000000,0.000101,-0.000566,0.000020,-0.125852,-0.764804,0.165507,0.609790,119.667162,63.009305,-63.637715
16965,-8.645843,3.994661,-2.172493,-0.018823,-0.154550,-0.045221,0.007826,-0.113122,-0.003517,-0.086445,0.039949,-0.021772,1.000000,0.000039,-0.000566,-0.000018,-0.125696,-0.764466,0.165592,0.610222,119.564601,63.044623,-63.760123
16966,-8.612007,4.084740,-2.172309,-0.011206,-0.252051,-0.039918,-0.022743,-0.105817,-0.001762,-0.086108,0.040846,-0.021773,1.000000,-0.000114,-0.000529,-0.000009,-0.125669,-0.764129,0.165586,0.610651,119.450253,63.076898,-63.876005
16967,-8.613207,4.209720,-2.235476,0.049030,-0.366738,0.024463,-0.084740,-0.098882,-0.000828,-0.086121,0.042088,-0.022415,1.000000,-0.000424,-0.000494,-0.000004,-0.125887,-0.763774,0.165390,0.611104,119.306582,63.106640,-63.984969
16968,-8.598973,4.249969,-2.303733,0.128147,-0.408892,0.042673,-0.164579,-0.088448,-0.004196,-0.085979,0.042482,-0.023110,1.000000,-0.000823,-0.000442,-0.000021,-0.126408,-0.763402,0.164930,0.611585,119.128850,63.134999,-64.080743
16969,-8.569494,4.290110,-2.323566,0.165232,-0.455678,0.036438,-0.206058,-0.085787,-0.008835,-0.085683,0.042881,-0.023317,0.999999,-0.001030,-0.000429,-0.000044,-0.127075,-0.763015,0.164324,0.612092,118.932425,63.164812,-64.170868
16970,-8.619563,4.360731,-2.365277,0.207469,-0.497273,0.117923,-0.259239,-0.089633,-0.008856,-0.086183,0.043580,-0.023748,0.999999,-0.001296,-0.000448,-0.000044,-0.127942,-0.762582,0.163557,0.612657,118.701211,63.195518,-64.265751
16971,-8.611918,4.327755,-2.426935,0.293160,-0.466727,0.111061,-0.320980,-0.090811,-0.016662,-0.086105,0.043246,-0.024378,0.999999,-0.001605,-0.000454,-0.000083,-0.129019,-0.762110,0.162572,0.613280,118.437489,63.230317,-64.357453
16972,-8.594293,4.342337,-2.513521,0.403669,-0.482474,0.119068,-0.390342,-0.088227,-0.021166,-0.085927,0.043383,-0.025258,0.999998,-0.001952,-0.000441,-0.000106,-0.130349,-0.761602,0.161355,0.613951,118.138390,63.266439,-64.444188
16973,-8.648012,4.286085,-2.550756,0.460985,-0.402953,0.151752,-0.458782,-0.084807,-0.027793,-0.086463,0.042814,-0.025642,0.999997,-0.002294,-0.000424,-0.000139,-0.131920,-0.761062,0.159899,0.614665,117.806719,63.304825,-64.523510
16974,-8.708346,4.256499,-2.634235,0.562230,-0.343119,0.210204,-0.516703,-0.081227,-0.025073,-0.087067,0.042508,-0.026488,0.999997,-0.002584,-0.000406,-0.000125,-0.133723,-0.760488,0.158273,0.615406,117.443297,63.340598,-64.601162
16975,-8.831848,4.154564,-2.646999,0.589288,-0.190323,0.281121,-0.541340,-0.088819,-0.023406,-0.088302,0.041484,-0.026622,0.999996,-0.002707,-0.000444,-0.000117,-0.135617,-0.759868,0.156581,0.616191,117.056770,63.377349,-64.688883
16976,-8.960055,4.083717,-2.629860,0.584957,-0.063934,0.362240,-0.574873,-0.093633,-0.031383,-0.089582,0.040775,-0.026458,0.999996,-0.002874,-0.000468,-0.000157,-0.137610,-0.759210,0.154758,0.617020,116.649463,63.419069,-64.778307
16977,-9.128175,4.020065,-2.726723,0.685677,0.073939,0.504473,-0.623079,-0.095619,-0.050096,-0.091259,0.040138,-0.027436,0.999995,-0.003115,-0.000478,-0.000250,-0.139724,-0.758521,0.152714,0.617901,116.221414,63.470685,-64.860027
16978,-9.101240,4.010903,-2.807950,0.806595,0.082271,0.490080,-0.633889,-0.110570,-0.076292,-0.090982,0.040054,-0.028257,0.999995,-0.003169,-0.000553,-0.000381,-0.141786,-0.757790,0.150547,0.618859,115.783863,63.539179,-64.945398
16979,-8.871562,3.972128,-2.908658,0.987609,0.035880,0.285131,-0.598647,-0.137917,-0.073649,-0.088681,0.039667,-0.029267,0.999995,-0.002993,-0.000690,-0.000368,-0.143701,-0.756990,0.148517,0.619887,115.335532,63.612861,-65.065303
16980,-8.650455,4.076481,-2.892504,1.044874,-0.140465,0.122253,-0.554621,-0.142525,-0.046311,-0.086474,0.040704,-0.029100,0.999996,-0.002773,-0.000713,-0.000232,-0.145529,-0.756180,0.146729,0.620873,114.892690,63.672964,-65.207190
16981,-8.563802,4.156115,-2.910651,1.110325,-0.236270,0.076455,-0.520545,-0.131939,-0.003812,-0.085618,0.041487,-0.029271,0.999996,-0.002603,-0.000660,-0.000019,-0.147366,-0.755391,0.145198,0.621759,114.458791,63.708024,-65.360797
16982,-8.503169,4.283937,-2.760480,1.002426,-0.369393,0.043013,-0.480100,-0.134986,0.045218,-0.085023,0.042754,-0.027765,0.999997,-0.002400,-0.000675,0.000226,-0.149201,-0.754582,0.143980,0.622587,114.020870,63.717545,-65.544757
16983,-8.350651,4.430647,-2.613252,0.914173,-0.553985,-0.063311,-0.454196,-0.163222,0.096080,-0.083506,0.044207,-0.026301,0.999997,-0.002271,-0.000816,0.000480,-0.151074,-0.753663,0.143054,0.623461,113.543837,63.706394,-65.788845
16984,-8.091984,4.615331,-2.522939,0.901729,-0.809911,-0.237851,-0.458699,-0.176768,0.147848,-0.080932,0.046035,-0.025407,0.999997,-0.002293,-0.000884,0.000739,-0.153116,-0.752657,0.142320,0.624346,113.026626,63.669980,-66.075011
16985,-7.898649,4.647810,-2.371573,0.821760,-0.900105,-0.424955,-0.472238,-0.172939,0.192404,-0.079011,0.046346,-0.023894,0.999996,-0.002361,-0.000865,0.000962,-0.155348,-0.751615,0.141706,0.625189,112.486954,63.608155,-66.377624
16986,-7.639583,4.554804,-2.077000,0.611727,-0.909448,-0.745055,-0.400955,-0.159974,0.232615,-0.076432,0.045417,-0.020922,0.999997,-0.002005,-0.000800,0.001163,-0.157447,-0.750637,0.141456,0.625896,111.986579,63.520793,-66.682270
16987,-7.381181,4.542978,-1.674087,0.286460,-1.000301,-1.046829,-0.320756,-0.122967,0.264797,-0.073862,0.045305,-0.016859,0.999998,-0.001604,-0.000615,0.001324,-0.159371,-0.749810,0.141547,0.626379,111.560366,63.407532,-66.955537
16988,-7.070105,4.602558,-1.780535,0.466223,-1.146300,-1.279884,-0.383510,-0.073525,0.296072,-0.070762,0.045887,-0.017919,0.999997,-0.001918,-0.000368,0.001480,-0.161663,-0.749062,0.141520,0.626693,111.140921,63.266154,-67.181420
16989,-6.952023,4.688087,-2.180345,0.899500,-1.211123,-1.281181,-0.475351,0.003202,0.358184,-0.069604,0.046704,-0.021913,0.999996,-0.002377,0.000016,0.001791,-0.164546,-0.748430,0.141373,0.626730,110.728231,63.075314,-67.340976
16990,-6.944024,4.834244,-2.299499,1.033033,-1.294864,-1.202632,-0.396456,0.040295,0.453991,-0.069554,0.048139,-0.023077,0.999995,-0.001982,0.000201,0.002270,-0.167459,-0.747906,0.141802,0.626487,110.366030,62.824871,-67.495047
16991,-6.979954,5.092012,-1.974109,0.713159,-1.486292,-1.104786,-0.210806,0.041327,0.572429,-0.069949,0.050699,-0.019780,0.999995,-0.001054,0.000207,0.002862,-0.170048,-0.747449,0.143252,0.626005,110.070172,62.510406,-67.694428
16992,-7.034421,5.420022,-1.583890,0.318106,-1.730292,-0.965485,-0.100945,0.042306,0.698498,-0.070536,0.053946,-0.015851,0.999994,-0.000505,0.000212,0.003492,-0.172620,-0.746991,0.145516,0.625325,109.797092,62.127082,-67.939977
16993,-7.100557,5.629975,-1.391056,0.109901,-1.837531,-0.831568,-0.063497,0.057024,0.811451,-0.071237,0.056007,-0.013908,0.999992,-0.000317,0.000285,0.004057,-0.175413,-0.746518,0.148302,0.624458,109.526561,61.679751,-68.207724
16994,-7.174832,5.881909,-1.346997,0.041884,-1.955507,-0.644096,-0.066269,0.105937,0.916333,-0.072024,0.058485,-0.013451,0.999989,-0.000331,0.000530,0.004582,-0.178578,-0.746103,0.151429,0.623305,109.274916,61.165494,-68.453548
16995,-7.446786,6.130015,-1.443960,0.073005,-1.957135,-0.258621,-0.105699,0.171046,1.003788,-0.074787,0.060918,-0.014408,0.999987,-0.000528,0.000855,0.005019,-0.182206,-0.745772,0.154694,0.621848,109.042957,60.591537,-68.652088
16996,-7.769381,6.474691,-1.509187,0.058675,-2.006598,0.213856,-0.149863,0.234909,1.090624,-0.078063,0.064311,-0.015049,0.999984,-0.000749,0.001175,0.005453,-0.186315,-0.745511,0.158086,0.620088,108.826295,59.957846,-68.805240
16997,-8.028260,6.808769,-1.702714,0.177583,-2.047769,0.650834,-0.176227,0.272922,1.158691,-0.080698,0.067606,-0.016977,0.999982,-0.000881,0.001365,0.005793,-0.190755,-0.745264,0.161606,0.618124,108.615750,59.280375,-68.934626
16998,-8.177296,7.107038,-1.887293,0.303582,-2.094185,0.979006,-0.156440,0.283242,1.224810,-0.082233,0.070553,-0.018812,0.999980,-0.000782,0.001416,0.006124,-0.195329,-0.744986,0.165421,0.616018,108.413050,58.564386,-69.069211
16999,-8.181787,7.429163,-1.985375,0.367062,-2.225570,1.186679,-0.180402,0.330003,1.281723,-0.082324,0.073747,-0.019785,0.999978,-0.000902,0.001650,0.006409,-0.200196,-0.744750,0.169318,0.613678,108.228210,57.809275,-69.167496
17000,-8.204781,7.663439,-2.039885,0.380959,-2.264199,1.364702,-0.255836,0.426198,1.323304,-0.082596,0.076063,-0.020321,0.999975,-0.001279,0.002131,0.006616,-0.205546,-0.744663,0.173039,0.610971,108.076443,57.013651,-69.176269
17001,-8.275915,7.798460,-2.097524,0.385529,-2.181401,1.536181,-0.345432,0.530316,1.373890,-0.083348,0.077377,-0.020889,0.999971,-0.001727,0.002652,0.006869,-0.211460,-0.744719,0.176553,0.607871,107.948894,56.172562,-69.094422
17002,-8.475273,7.795898,-2.143596,0.350481,-1.903673,1.739445,-0.405153,0.584952,1.427458,-0.085369,0.077308,-0.021344,0.999968,-0.002026,0.002925,0.007137,-0.217798,-0.744786,0.180022,0.604525,107.817629,55.292131,-68.975040
17003,-8.613625,7.685824,-2.105563,0.241704,-1.565067,1.814393,-0.433303,0.620540,1.489663,-0.086770,0.076168,-0.020953,0.999965,-0.002166,0.003103,0.007448,-0.224444,-0.744824,0.183582,0.600966,107.682018,54.372323,-68.839735
17004,-8.817366,7.594028,-1.947384,-0.002188,-1.210374,1.923549,-0.444251,0.617668,1.562024,-0.088823,0.075205,-0.019368,0.999962,-0.002221,0.003088,0.007810,-0.231332,-0.744720,0.187374,0.597301,107.520282,53.413019,-68.727603
17005,-9.010342,7.474362,-1.701320,-0.331923,-0.840579,1.982507,-0.447821,0.596731,1.629635,-0.090759,0.073968,-0.016909,0.999960,-0.002239,0.002984,0.008148,-0.238395,-0.744429,0.191411,0.593595,107.326789,52.421237,-68.651083
17006,-9.195479,7.304600,-1.553084,-0.565516,-0.415753,2.012277,-0.445851,0.562386,1.681341,-0.092608,0.072235,-0.015433,0.999958,-0.002229,0.002812,0.008407,-0.245554,-0.743928,0.195677,0.589902,107.101651,51.406449,-68.615349
17007,-9.276296,7.107602,-1.521482,-0.660383,-0.009657,1.953477,-0.465405,0.513188,1.722493,-0.093409,0.070238,-0.015140,0.999957,-0.002327,0.002566,0.008612,-0.252836,-0.743155,0.200078,0.586314,106.828140,50.378146,-68.626812
17008,-9.353190,7.029933,-1.489813,-0.751372,0.301992,1.954304,-0.490967,0.481990,1.745848,-0.094176,0.069443,-0.014843,0.999956,-0.002455,0.002410,0.008729,-0.260231,-0.742169,0.204517,0.582784,106.521533,49.341428,-68.662738
17009,-9.292781,6.919452,-1.500651,-0.764816,0.563786,1.831192,-0.486086,0.418324,1.768206,-0.093566,0.068333,-0.014978,0.999956,-0.002430,0.002092,0.008841,-0.267582,-0.740917,0.209113,0.579408,106.181334,48.303277,-68.747409
17010,-9.094450,6.886454,-1.522807,-0.730209,0.679322,1.652599,-0.430159,0.351230,1.782162,-0.091580,0.068018,-0.015215,0.999956,-0.002151,0.001756,0.008911,-0.274676,-0.739465,0.213999,0.576150,105.839011,47.267050,-68.879717
17011,-8.786302,6.857833,-1.592419,-0.619786,0.723336,1.405773,-0.368051,0.287292,1.795050,-0.088496,0.067757,-0.015923,0.999957,-0.001840,0.001436,0.008975,-0.281482,-0.737838,0.219177,0.572996,105.502762,46.233778,-69.054638
17012,-8.443405,6.955440,-1.734287,-0.428320,0.655177,1.235425,-0.322280,0.240444,1.801832,-0.085077,0.068762,-0.017352,0.999957,-0.001611,0.001202,0.009009,-0.288067,-0.736069,0.224562,0.569906,105.175677,45.202538,-69.256535
17013,-8.169148,7.068486,-1.852925,-0.275577,0.611748,1.127067,-0.297080,0.231743,1.808269,-0.082347,0.069915,-0.018538,0.999957,-0.001485,0.001159,0.009041,-0.294539,-0.734243,0.230031,0.566763,104.868193,44.168908,-69.454634
17014,-7.955044,7.148041,-1.837148,-0.268525,0.606286,1.018254,-0.274839,0.228753,1.812665,-0.080215,0.070730,-0.018378,0.999957,-0.001374,0.001144,0.009063,-0.300917,-0.732372,0.235569,0.563548,104.581218,43.131942,-69.645289
17015,-7.811402,7.289107,-1.579415,-0.513731,0.559598,0.960579,-0.275407,0.226541,1.811293,-0.078788,0.072158,-0.015805,0.999957,-0.001377,0.001133,0.009056,-0.307262,-0.730435,0.241079,0.560299,104.302465,42.096004,-69.826951
17016,-7.627098,7.368916,-1.421934,-0.648621,0.543396,0.853905,-0.324597,0.219287,1.812066,-0.076950,0.072971,-0.014254,0.999957,-0.001623,0.001096,0.009060,-0.313757,-0.728338,0.246450,0.557085,104.000799,41.059395,-70.004411
17017,-7.485094,7.470965,-1.397980,-0.659291,0.564959,0.819301,-0.417248,0.207168,1.812760,-0.075538,0.073998,-0.014057,0.999956,-0.002086,0.001036,0.009064,-0.320546,-0.725999,0.251557,0.553981,103.649571,40.023915,-70.180100
17018,-7.323876,7.416868,-1.392358,-0.636958,0.680693,0.661826,-0.541496,0.202055,1.808277,-0.073919,0.073464,-0.014049,0.999955,-0.002707,0.001010,0.009041,-0.327742,-0.723386,0.256295,0.551009,103.235000,38.990177,-70.347310
17019,-7.227634,7.326341,-1.433029,-0.578157,0.873768,0.524940,-0.648030,0.207608,1.810062,-0.072950,0.072558,-0.014491,0.999953,-0.003240,0.001038,0.009050,-0.335302,-0.720547,0.260709,0.548101,102.771927,37.954341,-70.498100
17020,-7.114190,7.186874,-1.540745,-0.442312,1.095217,0.347944,-0.768646,0.210522,1.784227,-0.071795,0.071170,-0.015607,0.999952,-0.003843,0.001053,0.008921,-0.343201,-0.717478,0.264673,0.545331,102.253537,36.931084,-70.629726
17021,-7.090518,6.926256,-1.701392,-0.271982,1.464315,0.133264,-0.889722,0.236308,1.740845,-0.071524,0.068565,-0.017236,0.999952,-0.004449,0.001182,0.008704,-0.351415,-0.714262,0.268079,0.542652,101.690384,35.928676,-70.723037
17022,-7.014768,6.828276,-1.919071,-0.031051,1.697026,0.017444,-0.908493,0.248832,1.659616,-0.070735,0.067610,-0.019411,0.999954,-0.004542,0.001244,0.008298,-0.359461,-0.711088,0.271099,0.540044,101.136847,34.969294,-70.783446
17023,-6.764535,6.678940,-1.710543,-0.155292,1.718923,-0.309425,-0.841289,0.246874,1.566590,-0.068187,0.066184,-0.017301,0.999960,-0.004206,0.001234,0.007833,-0.366982,-0.708095,0.273948,0.537474,100.635359,34.062543,-70.821393
17024,-6.458192,6.590284,-1.543258,-0.230097,1.648185,-0.606688,-0.709053,0.281802,1.466639,-0.065084,0.065372,-0.015574,0.999966,-0.003545,0.001409,0.007333,-0.373789,-0.705523,0.276716,0.534741,100.234992,33.207835,-70.814435
17025,-6.323171,6.484771,-1.526050,-0.214549,1.737123,-0.796125,-0.599525,0.285273,1.379701,-0.063699,0.064363,-0.015363,0.999971,-0.002998,0.001426,0.006898,-0.379955,-0.703241,0.279444,0.531975,99.907723,32.402312,-70.788241
17026,-6.218587,6.239618,-1.698988,-0.029439,1.957840,-1.057408,-0.509792,0.224654,1.294933,-0.062607,0.061948,-0.017078,0.999975,-0.002549,0.001123,0.006475,-0.385478,-0.701048,0.282215,0.529428,99.617827,31.650295,-70.787948
17027,-6.125928,5.889592,-1.679475,-0.035242,2.182569,-1.430023,-0.398571,0.173397,1.215220,-0.061630,0.058489,-0.016858,0.999979,-0.001993,0.000867,0.006076,-0.390308,-0.699015,0.285084,0.527034,99.380801,30.948559,-70.808557
17028,-6.212890,5.593890,-1.386589,-0.356790,2.437557,-1.704390,-0.235237,0.140273,1.108660,-0.062447,0.055577,-0.013888,0.999984,-0.001176,0.000701,0.005543,-0.394226,-0.697339,0.288067,0.524711,99.233740,30.309774,-70.836684
17029,-6.149203,5.410525,-1.144723,-0.588180,2.504618,-1.952836,-0.089153,0.077987,0.970210,-0.061758,0.053801,-0.011447,0.999988,-0.000446,0.000390,0.004851,-0.397170,-0.695968,0.291064,0.522653,99.158446,29.755266,-70.889153
17030,-5.837526,5.431369,-0.996487,-0.657160,2.269009,-2.132267,-0.000101,0.040918,0.815445,-0.058598,0.054075,-0.009953,0.999992,-0.000001,0.000205,0.004077,-0.399338,-0.694888,0.293824,0.520891,99.131065,29.291411,-70.948762
17031,-5.445851,5.490673,-1.022359,-0.536640,1.975630,-2.285491,0.061891,0.057971,0.656064,-0.054641,0.054731,-0.010191,0.999995,0.000309,0.000290,0.003280,-0.400894,-0.694201,0.296152,0.519291,99.153194,28.916389,-70.980382
17032,-5.088886,5.643888,-0.977912,-0.494941,1.632308,-2.342948,0.112916,0.098650,0.513486,-0.051038,0.056313,-0.009722,0.999996,0.000565,0.000493,0.002567,-0.401960,-0.693926,0.298035,0.517754,99.224367,28.618154,-70.971170
17033,-4.812934,5.915795,-0.982720,-0.430716,1.298838,-2.246042,0.131700,0.126113,0.398561,-0.048253,0.059068,-0.009758,0.999998,0.000658,0.000631,0.001993,-0.402702,-0.693928,0.299510,0.516323,99.320239,28.382515,-70.932680
17034,-4.613458,6.066912,-1.136731,-0.244368,1.119487,-2.192284,0.086204,0.127998,0.307546,-0.046235,0.060603,-0.011312,0.999999,0.000431,0.000640,0.001538,-0.403368,-0.693977,0.300546,0.515134,99.394805,28.197999,-70.883861
17035,-4.560161,6.214589,-1.171176,-0.210949,1.029276,-2.087153,0.049087,0.116620,0.245077,-0.045685,0.062093,-0.011670,0.999999,0.000245,0.000583,0.001225,-0.403983,-0.694014,0.301293,0.514165,99.447556,28.049917,-70.835963
17036,-4.608899,6.437604,-1.109854,-0.295201,0.959969,-1.881246,0.006695,0.101137,0.186531,-0.046155,0.064333,-0.011073,0.999999,0.000033,0.000506,0.000933,-0.404572,-0.694012,0.301758,0.513431,99.474096,27.936284,-70.791930
17037,-4.667449,6.544215,-1.225421,-0.208002,0.998012,-1.745831,-0.060514,0.091808,0.131807,-0.046723,0.065408,-0.012253,1.000000,-0.000303,0.000459,0.000659,-0.405238,-0.693932,0.301879,0.512942,99.461997,27.854521,-70.748058
17038,-4.780278,6.624474,-1.158250,-0.306608,1.045222,-1.634072,-0.105153,0.089533,0.069491,-0.047831,0.066222,-0.011596,1.000000,-0.000526,0.000448,0.000347,-0.405896,-0.693850,0.301674,0.512653,99.426680,27.808174,-70.699016
17039,-4.727292,6.744848,-1.187771,-0.260918,0.954800,-1.550040,-0.127156,0.088305,0.004846,-0.047280,0.067440,-0.011900,1.000000,-0.000636,0.000442,0.000024,-0.406462,-0.693817,0.301190,0.512533,99.381590,27.798548,-70.643880
17040,-4.584796,6.825089,-1.263495,-0.141334,0.817277,-1.535569,-0.159659,0.082955,-0.048007,-0.045837,0.068252,-0.012670,1.000000,-0.000798,0.000415,-0.000240,-0.406997,-0.693784,0.300451,0.512588,99.318871,27.819346,-70.586590
17041,-4.406275,6.940944,-1.217900,-0.124866,0.598224,-1.524035,-0.153897,0.089218,-0.084066,-0.044039,0.069419,-0.012213,1.000000,-0.000769,0.000446,-0.000420,-0.407429,-0.693832,0.299588,0.512685,99.263126,27.860006,-70.521529
17042,-4.256772,7.242885,-1.196112,-0.092664,0.316235,-1.333208,-0.151307,0.083093,-0.104946,-0.042535,0.072442,-0.011998,0.999999,-0.000757,0.000415,-0.000525,-0.407789,-0.693900,0.298671,0.512842,99.208074,27.913117,-70.458226
17043,-4.306776,7.535951,-1.189885,-0.101574,0.207351,-1.054755,-0.184643,0.076760,-0.123889,-0.043026,0.075375,-0.011952,0.999999,-0.000923,0.000384,-0.000619,-0.408206,-0.693911,0.297616,0.513108,99.132994,27.977561,-70.397059
17044,-4.464320,7.793213,-1.135911,-0.184476,0.191576,-0.763717,-0.202732,0.068642,-0.142726,-0.044591,0.077952,-0.011423,0.999999,-0.001014,0.000343,-0.000714,-0.408625,-0.693892,0.296465,0.513467,99.046036,28.053506,-70.339218
17045,-4.649445,8.065779,-1.016633,-0.334012,0.171680,-0.454985,-0.228221,0.054167,-0.173071,-0.046427,0.080686,-0.010246,0.999999,-0.001141,0.000271,-0.000865,-0.409032,-0.693827,0.295172,0.513975,98.941594,28.147973,-70.287688
17046,-4.773710,8.274870,-1.004023,-0.359016,0.157583,-0.214977,-0.267708,0.037852,-0.207684,-0.047653,0.082785,-0.010142,0.999999,-0.001339,0.000189,-0.001038,-0.409462,-0.693689,0.293690,0.514668,98.811199,28.263611,-70.243327
17047,-4.787513,8.529731,-0.973034,-0.362537,0.021746,0.010316,-0.307307,0.047533,-0.241600,-0.047774,0.085340,-0.009850,0.999998,-0.001537,0.000238,-0.001208,-0.409954,-0.693542,0.291969,0.515452,98.662640,28.397667,-70.189660
17048,-4.713796,8.696726,-0.956278,-0.323714,-0.141525,0.119204,-0.324172,0.055466,-0.257111,-0.047029,0.087012,-0.009691,0.999998,-0.001621,0.000277,-0.001286,-0.410476,-0.693401,0.290132,0.516264,98.507498,28.540004,-70.129699
17049,-4.559297,8.836654,-0.955498,-0.244323,-0.353945,0.167370,-0.325385,0.062466,-0.246033,-0.045487,0.088407,-0.009685,0.999998,-0.001627,0.000312,-0.001230,-0.411038,-0.693256,0.288315,0.517028,98.353305,28.675569,-70.066644
17050,-4.414571,8.905947,-0.959014,-0.165005,-0.520328,0.158570,-0.329214,0.071241,-0.224788,-0.044049,0.089093,-0.009721,0.999998,-0.001646,0.000356,-0.001124,-0.411680,-0.693093,0.286542,0.517722,98.198601,28.798556,-70.000249
17051,-4.423428,8.910589,-0.875809,-0.217658,-0.549224,0.156428,-0.305397,0.073745,-0.187411,-0.044154,0.089134,-0.008878,0.999998,-0.001527,0.000369,-0.000937,-0.412338,-0.692929,0.284955,0.518294,98.056678,28.900247,-69.935984
17052,-4.461296,8.982618,-0.841879,-0.231892,-0.571094,0.233176,-0.299287,0.064436,-0.145148,-0.044551,0.089846,-0.008539,0.999999,-0.001496,0.000322,-0.000726,-0.413070,-0.692691,0.283547,0.518801,97.913390,28.978868,-69.881837
17053,-4.534792,8.960319,-0.874866,-0.195554,-0.494015,0.253826,-0.339326,0.061413,-0.109871,-0.045301,0.089613,-0.008887,0.999998,-0.001697,0.000307,-0.000549,-0.414026,-0.692310,0.282164,0.519300,97.744698,29.037800,-69.833005
17054,-4.693854,8.790117,-0.755647,-0.336415,-0.313163,0.170204,-0.312242,0.061656,-0.094089,-0.046900,0.087911,-0.007679,0.999999,-0.001561,0.000308,-0.000470,-0.414929,-0.691962,0.280905,0.519726,97.590817,29.087887,-69.785571
17055,-4.860605,8.681562,-0.773209,-0.351238,-0.118965,0.160040,-0.258958,0.054285,-0.093720,-0.048567,0.086828,-0.007831,0.999999,-0.001295,0.000271,-0.000469,-0.415637,-0.691703,0.279800,0.520101,97.465173,29.138404,-69.743066
17056,-5.027995,8.586269,-0.952347,-0.217221,0.112533,0.179902,-0.185856,0.049094,-0.110028,-0.050235,0.085881,-0.009591,0.999999,-0.000929,0.000245,-0.000550,-0.416042,-0.691604,0.278838,0.520425,97.380344,29.198651,-69.702657
17057,-5.169843,8.581506,-1.015437,-0.188122,0.240798,0.252462,-0.093173,0.045788,-0.134865,-0.051643,0.085845,-0.010183,1.000000,-0.000466,0.000229,-0.000674,-0.416057,-0.691723,0.278039,0.520682,97.348701,29.273278,-69.662336
17058,-5.232371,8.544524,-0.971135,-0.246232,0.284852,0.246533,0.021751,0.028022,-0.144004,-0.052264,0.085484,-0.009695,1.000000,0.000109,0.000140,-0.000720,-0.415626,-0.692047,0.277544,0.520860,97.377578,29.354423,-69.632812
17059,-5.181226,8.603235,-0.814047,-0.379175,0.152409,0.254904,0.102615,0.003257,-0.149694,-0.051748,0.086075,-0.008095,1.000000,0.000513,0.000016,-0.000748,-0.414865,-0.692483,0.277291,0.521022,97.445280,29.440589,-69.618835
17060,-5.101641,8.568450,-0.761501,-0.412218,0.072178,0.179800,0.136393,-0.010188,-0.143233,-0.050955,0.085726,-0.007559,1.000000,0.000682,-0.000051,-0.000716,-0.413985,-0.692943,0.277176,0.521171,97.527727,29.524104,-69.614062
17061,-5.084776,8.393694,-0.799834,-0.386015,0.139361,0.025011,0.161984,-0.027740,-0.144698,-0.050786,0.083980,-0.007937,0.999999,0.000810,-0.000139,-0.000723,-0.412988,-0.693413,0.277159,0.521346,97.619429,29.609739,-69.620457
17062,-5.094216,8.305149,-0.850565,-0.352870,0.187182,-0.040768,0.191738,-0.041803,-0.155079,-0.050876,0.083099,-0.008437,0.999999,0.000959,-0.000209,-0.000775,-0.411841,-0.693920,0.277212,0.521551,97.724037,29.702393,-69.634980
17063,-5.085576,8.167062,-0.845895,-0.370446,0.228192,-0.164362,0.220394,-0.047267,-0.168476,-0.050785,0.081723,-0.008381,0.999999,0.001102,-0.000236,-0.000842,-0.410551,-0.694490,0.277304,0.521761,97.844080,29.803062,-69.651667
17064,-5.010486,8.151619,-0.846162,-0.361471,0.152411,-0.214985,0.296351,-0.042766,-0.171109,-0.050033,0.081571,-0.008351,0.999999,0.001482,-0.000214,-0.000856,-0.408996,-0.695228,0.277575,0.521855,98.009209,29.904954,-69.664915
17065,-4.944803,8.123063,-0.775123,-0.427843,0.070166,-0.281266,0.325615,-0.052694,-0.164220,-0.049379,0.081284,-0.007632,0.999998,0.001628,-0.000263,-0.000821,-0.407341,-0.695990,0.277966,0.521926,98.187818,30.003724,-69.684947
17066,-4.910780,8.149333,-0.596697,-0.604621,-0.042344,-0.298697,0.309033,-0.055686,-0.139394,-0.049049,0.081537,-0.005855,0.999999,0.001545,-0.000278,-0.000697,-0.405804,-0.696672,0.278404,0.521979,98.354753,30.088774,-69.708997
17067,-4.989824,8.148933,-0.607556,-0.633031,0.006344,-0.259061,0.241440,-0.067892,-0.120175,-0.049847,0.081527,-0.005994,0.999999,0.001207,-0.000339,-0.000601,-0.404534,-0.697158,0.278758,0.522127,98.478240,30.163950,-69.742660
17068,-5.137249,8.228490,-0.678549,-0.616149,0.088686,-0.108447,0.176700,-0.092646,-0.106872,-0.051325,0.082318,-0.006737,0.999999,0.000883,-0.000463,-0.000534,-0.403490,-0.697427,0.279038,0.522426,98.555673,30.233803,-69.793754
17069,-5.212826,8.342218,-0.759337,-0.560509,0.100120,0.037111,0.081974,-0.100460,-0.103870,-0.052081,0.083452,-0.007585,1.000000,0.000410,-0.000502,-0.000519,-0.402772,-0.697481,0.279097,0.522876,98.576229,30.302595,-69.850214
17070,-5.312414,8.523510,-0.934120,-0.412131,0.122747,0.264992,-0.009358,-0.106861,-0.116808,-0.053069,0.085266,-0.009374,1.000000,-0.000047,-0.000534,-0.000584,-0.402331,-0.697351,0.278885,0.523503,98.542703,30.379333,-69.909676
17071,-5.312111,8.632098,-1.061369,-0.273916,0.089435,0.374318,-0.088806,-0.108309,-0.141353,-0.053054,0.086354,-0.010681,1.000000,-0.000444,-0.000542,-0.000707,-0.402099,-0.697092,0.278382,0.524293,98.464440,30.469978,-69.967788
17072,-5.214553,8.736876,-0.951418,-0.327915,-0.085147,0.400781,-0.137667,-0.088499,-0.163310,-0.052070,0.087405,-0.009597,0.999999,-0.000688,-0.000442,-0.000817,-0.402007,-0.696815,0.277633,0.525127,98.365490,30.571410,-70.010978
17073,-5.133551,8.747465,-0.880048,-0.350485,-0.187284,0.360218,-0.167297,-0.073343,-0.172486,-0.051257,0.087511,-0.008892,0.999999,-0.000836,-0.000367,-0.000862,-0.402015,-0.696531,0.276745,0.525966,98.255100,30.676640,-70.043532
17074,-5.049121,8.739774,-0.895173,-0.287209,-0.258827,0.312976,-0.215424,-0.072452,-0.175656,-0.050411,0.087432,-0.009064,0.999999,-0.001077,-0.000362,-0.000878,-0.402183,-0.696156,0.275716,0.526875,98.117168,30.783615,-70.075532
17075,-4.982663,8.597828,-0.940437,-0.203001,-0.235982,0.164138,-0.244027,-0.071561,-0.171596,-0.049749,0.086009,-0.009527,0.999999,-0.001220,-0.000358,-0.000858,-0.402461,-0.695718,0.274625,0.527810,97.962940,30.888065,-70.107641
17076,-5.014035,8.506143,-0.845597,-0.278456,-0.196628,0.091543,-0.249303,-0.082253,-0.154593,-0.050071,0.085090,-0.008583,0.999999,-0.001247,-0.000411,-0.000773,-0.402787,-0.695216,0.273598,0.528755,97.800784,30.983703,-70.148791
17077,-5.041341,8.458825,-0.891618,-0.215609,-0.144225,0.071364,-0.255278,-0.104632,-0.145313,-0.050347,0.084613,-0.009051,0.999999,-0.001276,-0.000523,-0.000727,-0.403126,-0.694629,0.272633,0.529765,97.627113,31.075614,-70.205930
17078,-5.027287,8.429845,-0.904093,-0.170091,-0.142651,0.041444,-0.280333,-0.119082,-0.141445,-0.050208,0.084321,-0.009189,0.999999,-0.001402,-0.000595,-0.000707,-0.403543,-0.693946,0.271643,0.530851,97.433431,31.166327,-70.273439
17079,-5.053784,8.383833,-0.947161,-0.107238,-0.090250,0.021273,-0.279823,-0.107074,-0.135461,-0.050476,0.083859,-0.009616,0.999999,-0.001399,-0.000535,-0.000677,-0.403988,-0.693286,0.270651,0.531880,97.243847,31.252496,-70.333855
17080,-5.033944,8.386905,-0.946003,-0.072213,-0.112825,0.013689,-0.262030,-0.097026,-0.131008,-0.050280,0.083889,-0.009594,0.999999,-0.001310,-0.000485,-0.000655,-0.404397,-0.692680,0.269700,0.532841,97.067215,31.335319,-70.388381
17081,-5.030274,8.417748,-0.959571,-0.028538,-0.133041,0.039436,-0.238125,-0.085786,-0.122721,-0.050247,0.084197,-0.009718,0.999999,-0.001191,-0.000429,-0.000614,-0.404758,-0.692141,0.268819,0.533712,96.907838,31.412441,-70.436379
17082,-5.069082,8.441881,-1.029332,0.053554,-0.100236,0.087187,-0.200651,-0.085065,-0.113190,-0.050639,0.084437,-0.010400,0.999999,-0.001003,-0.000425,-0.000566,-0.405016,-0.691665,0.268067,0.534511,96.769337,31.484049,-70.484983
17083,-5.068179,8.494576,-1.092553,0.139234,-0.116070,0.137440,-0.160290,-0.088458,-0.096252,-0.050636,0.084961,-0.011016,0.999999,-0.000801,-0.000442,-0.000481,-0.405174,-0.691238,0.267490,0.535231,96.652170,31.546089,-70.537353
17084,-5.042907,8.436424,-1.052685,0.121748,-0.121086,0.070773,-0.091103,-0.098285,-0.079961,-0.050390,0.084380,-0.010590,1.000000,-0.000456,-0.000491,-0.000400,-0.405124,-0.690902,0.267173,0.535861,96.570168,31.599488,-70.597760
17085,-5.003627,8.534258,-1.026159,0.125222,-0.216125,0.130172,-0.025558,-0.098290,-0.054748,-0.050008,0.085355,-0.010297,1.000000,-0.000128,-0.000491,-0.000274,-0.404914,-0.690666,0.267120,0.536350,96.524862,31.638417,-70.660152
17086,-4.943215,8.646776,-0.998738,0.130538,-0.335478,0.190812,0.002072,-0.103036,-0.036847,-0.049411,0.086477,-0.010012,1.000000,0.000010,-0.000515,-0.000184,-0.404651,-0.690448,0.267211,0.536784,96.492696,31.667482,-70.727191
17087,-4.909956,8.579843,-0.949561,0.092005,-0.342681,0.111885,0.039851,-0.090033,-0.009320,-0.049091,0.085803,-0.009501,1.000000,0.000199,-0.000450,-0.000047,-0.404348,-0.690305,0.267473,0.537065,96.485857,31.679961,-70.787600
17088,-4.910911,8.585140,-0.839880,-0.014942,-0.375724,0.106268,0.105011,-0.079574,0.020016,-0.049114,0.085851,-0.008373,1.000000,0.000525,-0.000398,0.000100,-0.403914,-0.690282,0.267989,0.537165,96.518601,31.675113,-70.843305
17089,-4.904226,8.674801,-0.749399,-0.100938,-0.452693,0.169801,0.120963,-0.061041,0.048204,-0.049061,0.086741,-0.007457,1.000000,0.000605,-0.000305,0.000241,-0.403523,-0.690303,0.268609,0.537121,96.566116,31.653003,-70.888717
17090,-4.978924,8.573389,-0.878315,-0.011951,-0.301011,0.135848,0.097305,-0.076652,0.078501,-0.049820,0.085719,-0.008761,1.000000,0.000487,-0.000383,0.000393,-0.403276,-0.690193,0.269300,0.537103,96.593142,31.614725,-70.946965
17091,-5.115346,8.562123,-1.008922,0.069749,-0.144317,0.210732,0.062201,-0.081555,0.089554,-0.051188,0.085601,-0.010083,1.000000,0.000311,-0.000408,0.000448,-0.403172,-0.689985,0.269946,0.537125,96.598189,31.570466,-71.009268
17092,-5.278086,8.581452,-0.983881,-0.000977,-0.022222,0.309913,0.053047,-0.094544,0.102673,-0.052820,0.085790,-0.009841,1.000000,0.000265,-0.000473,0.000513,-0.403118,-0.689704,0.270637,0.537178,96.592727,31.519613,-71.081292
17093,-5.399325,8.612699,-1.037198,0.017709,0.081779,0.404948,0.029789,-0.103183,0.091620,-0.054027,0.086104,-0.010387,1.000000,0.000149,-0.000516,0.000458,-0.403101,-0.689369,0.271246,0.537314,96.571704,31.475586,-71.158115
17094,-5.407869,8.575917,-1.105570,0.080627,0.134160,0.384821,0.005227,-0.102884,0.076102,-0.054106,0.085739,-0.011081,1.000000,0.000026,-0.000514,0.000381,-0.403128,-0.689004,0.271734,0.537514,96.537154,31.440359,-71.233556
17095,-5.320397,8.562581,-1.009137,0.014202,0.052012,0.318446,0.005982,-0.094516,0.063230,-0.053226,0.085609,-0.010114,1.000000,0.000030,-0.000473,0.000316,-0.403129,-0.688682,0.272164,0.537709,96.506775,31.411861,-71.302320
17096,-5.240680,8.528143,-0.950415,-0.020673,-0.003782,0.242002,0.022139,-0.078849,0.062476,-0.052430,0.085266,-0.009515,1.000000,0.000111,-0.000394,0.000312,-0.403094,-0.688435,0.272602,0.537830,96.490923,31.382772,-71.360605
17097,-5.058545,8.484344,-0.908815,-0.013227,-0.133008,0.106035,0.012870,-0.057164,0.069170,-0.050612,0.084827,-0.009097,1.000000,0.000064,-0.000286,0.000346,-0.403138,-0.688218,0.272995,0.537875,96.477314,31.348436,-71.404850
17098,-5.067721,8.401233,-0.836986,-0.088635,-0.093543,0.033451,-0.010876,-0.061110,0.079186,-0.050708,0.083992,-0.008390,1.000000,-0.000054,-0.000306,0.000396,-0.403285,-0.687929,0.273366,0.537946,96.448129,31.308656,-71.452510
17099,-5.035396,8.323907,-0.954649,0.032208,-0.039464,-0.037648,-0.046754,-0.078226,0.092303,-0.050389,0.083214,-0.009586,1.000000,-0.000234,-0.000391,0.000462,-0.403567,-0.687504,0.273721,0.538098,96.392267,31.262456,-71.512439
17100,-5.111712,8.294494,-1.007173,0.066898,0.061875,-0.018081,-0.079602,-0.078851,0.089653,-0.051150,0.082918,-0.010125,1.000000,-0.000398,-0.000394,0.000448,-0.403955,-0.687013,0.273978,0.538303,96.317304,31.217762,-71.572560
17101,-5.251703,8.250613,-1.003632,0.031317,0.207799,0.016661,-0.083105,-0.077653,0.079896,-0.052546,0.082481,-0.010091,1.000000,-0.000416,-0.000388,0.000399,-0.404329,-0.686533,0.274191,0.538527,96.241459,31.178467,-71.631010
17102,-5.295347,8.044794,-1.061534,0.071529,0.374597,-0.130703,-0.069736,-0.086391,0.059843,-0.052973,0.080428,-0.010666,1.000000,-0.000349,-0.000432,0.000299,-0.404591,-0.686082,0.274388,0.538803,96.170835,31.151091,-71.693806
17103,-5.203763,7.934769,-1.089762,0.124308,0.371177,-0.269414,-0.042023,-0.088666,0.040070,-0.052049,0.079335,-0.010937,1.000000,-0.000210,-0.000443,0.000200,-0.404701,-0.685709,0.274597,0.539089,96.116334,31.135040,-71.756589
17104,-5.104676,7.775219,-1.146000,0.199965,0.391768,-0.451513,0.017592,-0.082857,0.024699,-0.051052,0.077747,-0.011474,1.000000,0.000088,-0.000414,0.000123,-0.404575,-0.685492,0.274901,0.539305,96.098336,31.127388,-71.814448
17105,-4.972696,7.737451,-1.069964,0.159977,0.285049,-0.558832,0.076448,-0.080005,0.013523,-0.049728,0.077375,-0.010690,1.000000,0.000382,-0.000400,0.000068,-0.404219,-0.685418,0.275320,0.539451,96.115698,31.125899,-71.869554
17106,-4.908498,7.757587,-1.016788,0.123264,0.207479,-0.579642,0.124635,-0.080841,0.016045,-0.049087,0.077578,-0.010139,1.000000,0.000623,-0.000404,0.000080,-0.403704,-0.685435,0.275879,0.539530,96.160062,31.123088,-71.925447
17107,-4.848957,7.798612,-1.010615,0.128515,0.134252,-0.575939,0.152602,-0.075925,0.021139,-0.048494,0.077989,-0.010065,1.000000,0.000763,-0.000380,0.000106,-0.403113,-0.685515,0.276522,0.539542,96.222182,31.117078,-71.978387
17108,-4.901983,7.908420,-0.987905,0.089602,0.112621,-0.457059,0.172434,-0.076649,0.031259,-0.049028,0.079085,-0.009830,1.000000,0.000862,-0.000383,0.000156,-0.402481,-0.685617,0.277253,0.539509,96.294819,31.105446,-72.032598
17109,-4.965941,8.077259,-0.963455,0.048805,0.069151,-0.282537,0.155102,-0.079338,0.031835,-0.049668,0.080772,-0.009592,1.000000,0.000776,-0.000397,0.000159,-0.401904,-0.685677,0.277945,0.539506,96.356806,31.093667,-72.088601
17110,-5.020906,8.249852,-0.991303,0.062355,0.029854,-0.104575,0.124930,-0.072861,0.024485,-0.050216,0.082499,-0.009880,1.000000,0.000625,-0.000364,0.000122,-0.401421,-0.685702,0.278517,0.539539,96.403799,31.085751,-72.139804
17111,-5.064120,8.346283,-1.109293,0.163566,0.042886,0.011145,0.106922,-0.072736,0.012556,-0.050642,0.083466,-0.011067,1.000000,0.000535,-0.000364,0.000063,-0.400967,-0.685709,0.279000,0.539619,96.441196,31.084606,-72.189990
17112,-5.098354,8.400392,-1.138998,0.180804,0.047240,0.077823,0.106770,-0.066301,-0.007398,-0.050977,0.084012,-0.011362,1.000000,0.000534,-0.000332,-0.000037,-0.400469,-0.685759,0.279400,0.539717,96.481275,31.094480,-72.234444
17113,-5.111537,8.457273,-1.142513,0.178800,0.025103,0.133468,0.093244,-0.055039,-0.018171,-0.051105,0.084583,-0.011400,1.000000,0.000466,-0.000275,-0.000091,-0.400003,-0.685829,0.279704,0.539817,96.518097,31.109738,-72.270547
17114,-5.035667,8.458879,-1.099995,0.154371,-0.052632,0.091553,0.067351,-0.051172,-0.029294,-0.050341,0.084600,-0.010984,1.000000,0.000337,-0.000256,-0.000146,-0.399601,-0.685871,0.279892,0.539962,96.541638,31.131135,-72.303273
17115,-4.965641,8.429361,-1.070156,0.140441,-0.106204,0.027330,0.054365,-0.042012,-0.030634,-0.049641,0.084304,-0.010689,1.000000,0.000272,-0.000210,-0.000153,-0.399253,-0.685915,0.280023,0.540096,96.561135,31.152663,-72.329760
17116,-4.876297,8.431814,-0.945005,0.042471,-0.214581,-0.029082,0.024777,-0.043029,-0.019843,-0.048753,0.084324,-0.009450,1.000000,0.000124,-0.000215,-0.000099,-0.399035,-0.685881,0.280113,0.540254,96.562697,31.168159,-72.357792
17117,-4.846966,8.334528,-0.910972,0.014495,-0.197506,-0.130327,-0.011342,-0.044170,-0.010835,-0.048463,0.083347,-0.009125,1.000000,-0.000057,-0.000221,-0.000054,-0.398962,-0.685761,0.280138,0.540448,96.543005,31.178559,-72.387236
17118,-4.866887,8.251285,-0.970746,0.066976,-0.123140,-0.184967,-0.024089,-0.055878,-0.000663,-0.048666,0.082512,-0.009731,1.000000,-0.000120,-0.000279,-0.000003,-0.398945,-0.685568,0.280187,0.540680,96.511368,31.183951,-72.425297
17119,-4.914663,8.203052,-1.010014,0.094787,-0.048468,-0.197452,-0.018117,-0.069121,0.007801,-0.049146,0.082028,-0.010125,1.000000,-0.000091,-0.000346,0.000039,-0.398911,-0.685339,0.280308,0.540932,96.478452,31.185333,-72.472772
17120,-4.968131,8.193144,-1.003797,0.078769,0.000040,-0.178823,-0.006496,-0.074395,0.011667,-0.049682,0.081928,-0.010059,1.000000,-0.000032,-0.000372,0.000058,-0.398841,-0.685114,0.280483,0.541178,96.450029,31.184860,-72.524094
17121,-5.016142,8.214243,-0.984612,0.052185,0.024381,-0.137895,0.010632,-0.076051,0.008231,-0.050161,0.082141,-0.009861,1.000000,0.000053,-0.000380,0.000041,-0.398700,-0.684924,0.280697,0.541412,96.431178,31.186404,-72.576215
17122,-5.024836,8.262779,-0.959722,0.029199,0.000089,-0.094524,0.045759,-0.062677,0.008704,-0.050249,0.082628,-0.009594,1.000000,0.000229,-0.000313,0.000044,-0.398459,-0.684838,0.280980,0.541550,96.436850,31.186842,-72.619516
17123,-4.948162,8.310858,-1.057526,0.143044,-0.064837,-0.083948,0.066429,-0.030870,0.008434,-0.049483,0.083110,-0.010555,1.000000,0.000332,-0.000154,0.000042,-0.398191,-0.684881,0.281256,0.541551,96.465530,31.185371,-72.641584
17124,-4.975539,8.345122,-1.044698,0.118268,-0.064816,-0.041800,0.125533,-0.015706,0.021228,-0.049763,0.083452,-0.010399,1.000000,0.000628,-0.000079,0.000106,-0.397777,-0.685064,0.281704,0.541391,96.532609,31.175672,-72.654576
17125,-4.973543,8.396620,-1.085228,0.149568,-0.084964,0.005025,0.147455,-0.027412,0.031918,-0.049747,0.083966,-0.010797,1.000000,0.000737,-0.000137,0.000160,-0.397299,-0.685243,0.282273,0.541218,96.607979,31.160647,-72.676142
17126,-4.978939,8.427465,-1.162213,0.212435,-0.078793,0.041824,0.153201,-0.040264,0.045387,-0.049806,0.084272,-0.011568,1.000000,0.000766,-0.000201,0.000227,-0.396820,-0.685380,0.282927,0.541055,96.681493,31.138851,-72.707361
17127,-5.017574,8.461983,-1.233114,0.261167,-0.048162,0.098480,0.157021,-0.056903,0.051320,-0.050194,0.084617,-0.012279,1.000000,0.000785,-0.000285,0.000257,-0.396320,-0.685470,0.283646,0.540931,96.751420,31.114808,-72.750086
17128,-5.042381,8.445782,-1.193539,0.204932,-0.028288,0.093804,0.155308,-0.056685,0.047998,-0.050441,0.084455,-0.011884,1.000000,0.000777,-0.000283,0.000240,-0.395817,-0.685562,0.284347,0.540815,96.820404,31.092700,-72.792467
17129,-5.090469,8.425453,-1.179955,0.167891,0.018053,0.100179,0.149189,-0.037787,0.029264,-0.050915,0.084256,-0.011746,1.000000,0.000746,-0.000189,0.000146,-0.395311,-0.685719,0.284931,0.540679,96.893309,31.079986,-72.820783
17130,-5.066621,8.428611,-1.164470,0.148540,-0.008707,0.089130,0.126673,-0.009263,0.009306,-0.050670,0.084291,-0.011594,1.000000,0.000633,-0.000046,0.000047,-0.394869,-0.685936,0.285328,0.540517,96.963752,31.076694,-72.828601
17131,-5.074999,8.406018,-1.209803,0.179930,0.017312,0.079112,0.103761,0.010572,-0.009407,-0.050747,0.084069,-0.012052,1.000000,0.000519,0.000053,-0.000047,-0.394482,-0.686188,0.285561,0.540356,97.028818,31.082657,-72.821689
17132,-5.064367,8.364420,-1.130136,0.095805,0.008430,0.030041,0.083124,0.022833,-0.006790,-0.050642,0.083651,-0.011261,1.000000,0.000416,0.000114,-0.000034,-0.394192,-0.686429,0.285722,0.540177,97.085997,31.086271,-72.806881
17133,-5.041950,8.367149,-1.112459,0.076428,-0.018329,0.018987,0.090438,0.015489,-0.000196,-0.050420,0.083677,-0.011083,1.000000,0.000452,0.000077,-0.000001,-0.393882,-0.686655,0.285940,0.540000,97.144729,31.086635,-72.797452
17134,-5.047064,8.456419,-1.106488,0.063859,-0.064657,0.096900,0.096064,0.008081,0.011309,-0.050476,0.084567,-0.011022,1.000000,0.000480,0.000040,0.000057,-0.393575,-0.686855,0.286227,0.539817,97.203493,31.080990,-72.793940
17135,-4.980539,8.478272,-1.058384,0.027030,-0.142198,0.075998,0.078472,-0.004134,0.031300,-0.049818,0.084779,-0.010552,1.000000,0.000392,-0.000021,0.000156,-0.393363,-0.686959,0.286560,0.539662,97.247277,31.064850,-72.800184
17136,-4.920212,8.582480,-1.106652,0.084652,-0.233183,0.138724,0.085658,-0.011932,0.060863,-0.049228,0.085815,-0.011033,1.000000,0.000428,-0.000060,0.000304,-0.393197,-0.687014,0.287028,0.539466,97.291062,31.032482,-72.814155
17137,-4.897119,8.711161,-1.193424,0.170137,-0.295426,0.245847,0.084828,-0.020050,0.080361,-0.049005,0.087097,-0.011902,1.000000,0.000424,-0.000100,0.000402,-0.393073,-0.687017,0.287578,0.539260,97.330894,30.989629,-72.835151
17138,-4.928977,8.635965,-1.175125,0.135006,-0.227196,0.196597,0.060086,-0.025816,0.105062,-0.049334,0.086337,-0.011732,1.000000,0.000300,-0.000129,0.000525,-0.393093,-0.686919,0.288156,0.539060,97.353354,30.933166,-72.862133
17139,-4.945569,8.563434,-1.076399,0.026310,-0.189560,0.132816,0.070460,-0.017760,0.113615,-0.049503,0.085610,-0.010738,1.000000,0.000352,-0.000089,0.000568,-0.393111,-0.686852,0.288776,0.538801,97.384291,30.871267,-72.884486
17140,-5.029424,8.549817,-0.996641,-0.079130,-0.122857,0.155583,0.052465,-0.023019,0.110512,-0.050340,0.085473,-0.009950,1.000000,0.000262,-0.000115,0.000553,-0.393175,-0.686739,0.289347,0.538592,97.403130,30.811513,-72.910112
17141,-5.083299,8.471994,-1.000935,-0.095042,-0.028160,0.117401,0.026375,-0.028265,0.095806,-0.050872,0.084697,-0.010005,1.000000,0.000132,-0.000141,0.000479,-0.393281,-0.686582,0.289808,0.538467,97.406065,30.760521,-72.937901
17142,-5.143911,8.483975,-0.987503,-0.123382,0.020496,0.157125,-0.025617,-0.039652,0.077747,-0.051470,0.084818,-0.009896,1.000000,-0.000128,-0.000198,0.000389,-0.393502,-0.686317,0.290089,0.538492,97.376032,30.720607,-72.971684
17143,-5.221034,8.391919,-0.984554,-0.141054,0.139518,0.117745,-0.121708,-0.061978,0.058292,-0.052232,0.083898,-0.009913,1.000000,-0.000609,-0.000310,0.000291,-0.393966,-0.685832,0.290088,0.538771,97.284456,30.693367,-73.018465
17144,-5.243391,8.052256,-0.689965,-0.427857,0.274564,-0.192419,-0.136015,-0.077167,0.018355,-0.052439,0.080513,-0.006975,1.000000,-0.000680,-0.000386,0.000092,-0.394350,-0.685334,0.289941,0.539202,97.181150,30.689842,-73.071918
17145,-5.330619,7.818378,-0.311317,-0.807882,0.384072,-0.387230,-0.139074,-0.080971,-0.040217,-0.053289,0.078192,-0.003189,1.000000,-0.000695,-0.000405,-0.000201,-0.394580,-0.684906,0.289594,0.539765,97.077430,30.719817,-73.122999
17146,-5.229132,7.660505,-0.781035,-0.313375,0.486567,-0.522790,-0.228651,-0.066367,-0.123469,-0.052241,0.076628,-0.007915,0.999999,-0.001143,-0.000332,-0.000617,-0.394914,-0.684459,0.288689,0.540571,96.930514,30.796025,-73.157795
17147,-4.963200,7.702791,-1.612423,0.580517,0.428006,-0.536588,-0.232550,0.006453,-0.172371,-0.049566,0.077052,-0.016212,0.999999,-0.001163,0.000032,-0.000862,-0.395232,-0.684271,0.287463,0.541229,96.808117,30.894983,-73.140636
17148,-4.835926,8.153812,-1.788867,0.812739,0.118111,-0.200384,-0.095059,0.047968,-0.147928,-0.048303,0.081565,-0.017916,1.000000,-0.000475,0.000240,-0.000740,-0.395207,-0.684431,0.286609,0.541499,96.777441,30.977263,-73.098048
17149,-4.597612,8.578708,-1.650370,0.756121,-0.340828,0.024390,0.030197,0.025369,-0.064532,-0.045951,0.085804,-0.016485,1.000000,0.000151,0.000127,-0.000323,-0.394944,-0.684658,0.286425,0.541501,96.807635,31.013606,-73.076987
17150,-4.374371,8.849526,-1.450189,0.624452,-0.713580,0.119741,0.037991,-0.011989,0.055287,-0.043767,0.088486,-0.014488,1.000000,0.000190,-0.000060,0.000276,-0.394927,-0.684626,0.286746,0.541384,96.824502,30.984325,-73.090241
17151,-4.359385,8.716302,-1.138365,0.316235,-0.719227,-0.032262,0.055314,-0.037955,0.161397,-0.043662,0.087131,-0.011368,1.000000,0.000277,-0.000190,0.000807,-0.395100,-0.684407,0.287528,0.541120,96.838253,30.896442,-73.129118
17152,-4.608706,8.480700,-0.597236,-0.284886,-0.499755,-0.159285,0.066667,-0.059067,0.210841,-0.046175,0.084760,-0.005958,0.999999,0.000333,-0.000295,0.001054,-0.395337,-0.684081,0.288552,0.540814,96.849265,30.781859,-73.185931
17153,-4.911930,8.181773,-0.318798,-0.644185,-0.140235,-0.287173,0.009517,-0.075053,0.191532,-0.049196,0.081771,-0.003203,0.999999,0.000048,-0.000375,0.000958,-0.395694,-0.683626,0.289386,0.540683,96.823169,30.679366,-73.251674
17154,-5.218088,7.984344,-0.582853,-0.469297,0.289538,-0.272571,-0.045192,-0.066500,0.113869,-0.052224,0.079812,-0.005864,1.000000,-0.000226,-0.000333,0.000569,-0.396040,-0.683197,0.289790,0.540755,96.771731,30.620411,-73.305546
17155,-5.465215,7.958549,-0.882795,-0.236865,0.582301,-0.138432,-0.005858,-0.068268,0.029882,-0.054661,0.079577,-0.008849,1.000000,-0.000029,-0.000341,0.000149,-0.396021,-0.682963,0.290016,0.540942,96.745797,30.609359,-73.353898
17156,-5.481133,8.041069,-1.109984,-0.014697,0.603125,-0.036712,0.026281,-0.078409,-0.049575,-0.054787,0.080426,-0.011111,1.000000,0.000131,-0.000392,-0.000248,-0.395664,-0.682880,0.290078,0.541275,96.737856,30.644178,-73.402787
17157,-5.298251,8.236399,-1.259439,0.183046,0.376465,0.052437,0.062200,-0.055941,-0.101548,-0.052937,0.082395,-0.012584,1.000000,0.000311,-0.000280,-0.000508,-0.395075,-0.683005,0.290016,0.541581,96.760268,30.707071,-73.432722
17158,-5.051393,8.726928,-1.417122,0.415245,-0.057472,0.361217,-0.037639,-0.012347,-0.118549,-0.050461,0.087297,-0.014191,1.000000,-0.000188,-0.000062,-0.000593,-0.394845,-0.683074,0.289538,0.541917,96.740721,30.776710,-73.432519
17159,-4.963590,9.058434,-1.566464,0.601915,-0.276941,0.613589,-0.136838,0.017942,-0.092568,-0.049595,0.090597,-0.015722,1.000000,-0.000684,0.000090,-0.000463,-0.395067,-0.682993,0.288821,0.542241,96.673695,30.829530,-73.414300
17160,-4.924031,9.148161,-1.169649,0.240677,-0.449591,0.629675,-0.080642,-0.004356,-0.031461,-0.049226,0.091485,-0.011734,1.000000,-0.000403,-0.000022,-0.000157,-0.395231,-0.682872,0.288509,0.542439,96.628723,30.849065,-73.415670
17161,-4.917416,9.080773,-0.787108,-0.122014,-0.505435,0.530938,-0.098039,-0.027874,0.015489,-0.049180,0.090800,-0.007922,1.000000,-0.000490,-0.000139,0.000077,-0.395547,-0.682586,0.288356,0.542650,96.564061,30.843429,-73.436219
17162,-4.937190,8.587570,-0.593672,-0.320697,-0.271544,0.101849,-0.136555,-0.046300,0.025529,-0.049381,0.085865,-0.006007,1.000000,-0.000683,-0.000231,0.000128,-0.395996,-0.682159,0.288169,0.542959,96.470554,30.833228,-73.469771
17163,-4.973192,7.868710,-0.451304,-0.485525,0.103064,-0.506423,-0.012128,-0.068222,0.006626,-0.049733,0.078685,-0.004535,1.000000,-0.000061,-0.000341,0.000033,-0.395937,-0.681946,0.288299,0.543201,96.441757,30.835194,-73.516388
17164,-4.842971,7.471543,-0.649632,-0.274101,0.246161,-0.892787,0.042751,-0.058626,-0.033425,-0.048415,0.074725,-0.006495,1.000000,0.000214,-0.000293,-0.000167,-0.395596,-0.681925,0.288423,0.543410,96.449042,30.859316,-73.553691
17165,-4.883930,7.334952,-1.246728,0.292011,0.480925,-0.930567,-0.015366,-0.036235,-0.076389,-0.048809,0.073367,-0.012482,1.000000,-0.000077,-0.000181,-0.000382,-0.395368,-0.681912,0.288198,0.543711,96.432426,30.906479,-73.572896
17166,-4.916048,7.285621,-1.264527,0.300732,0.529164,-0.953999,0.088044,-0.049719,-0.083689,-0.049127,0.072882,-0.012625,1.000000,0.000440,-0.000249,-0.000418,-0.394749,-0.682077,0.288255,0.543924,96.470582,30.958661,-73.600540
17167,-4.930401,7.425649,-0.637833,-0.313082,0.316406,-0.887566,0.251717,-0.066442,-0.076537,-0.049273,0.074283,-0.006301,0.999999,0.001259,-0.000332,-0.000383,-0.393566,-0.682508,0.288815,0.543943,96.596681,31.007905,-73.639722
17168,-4.798801,7.891080,-0.564364,-0.349275,-0.062835,-0.566598,0.195072,-0.040052,-0.072417,-0.047958,0.078934,-0.005576,0.999999,0.000975,-0.000200,-0.000362,-0.392626,-0.682893,0.289182,0.543945,96.699076,31.053128,-73.661633
17169,-4.702828,8.448885,-1.303040,0.402664,-0.278669,-0.068029,0.008243,0.001112,-0.055712,-0.047005,0.084502,-0.013027,1.000000,0.000041,0.000006,-0.000279,-0.392427,-0.682998,0.289017,0.544044,96.708016,31.086102,-73.657426
17170,-4.822912,9.040149,-1.612396,0.693276,-0.424979,0.527688,-0.006746,0.000559,-0.004856,-0.048227,0.090402,-0.016127,1.000000,-0.000034,0.000003,-0.000024,-0.392418,-0.682999,0.288986,0.544066,96.705988,31.090175,-73.657592
17171,-5.022520,9.474246,-0.847407,-0.082974,-0.657814,0.923491,0.011763,-0.020962,0.021476,-0.050234,0.094738,-0.008474,1.000000,0.000059,-0.000105,0.000107,-0.392386,-0.682940,0.289138,0.544083,96.706261,31.080704,-73.674081
17172,-5.178354,8.898916,-0.409514,-0.561904,-0.322516,0.470989,-0.043891,-0.022030,0.017560,-0.051791,0.088984,-0.004120,1.000000,-0.000219,-0.000110,0.000088,-0.392532,-0.682774,0.289126,0.544192,96.674308,31.073505,-73.691006
17173,-5.173903,8.173790,-0.628928,-0.368992,0.103043,-0.126156,-0.015298,0.016742,-0.022496,-0.051730,0.081743,-0.006291,1.000000,-0.000076,0.000084,-0.000112,-0.392526,-0.682827,0.288981,0.544206,96.673779,31.086538,-73.679016
17174,-5.166897,8.050521,-1.550541,0.523150,0.362087,-0.142781,-0.028221,0.061549,-0.069638,-0.051646,0.080521,-0.015501,1.000000,-0.000141,0.000308,-0.000348,-0.392503,-0.683045,0.288550,0.544178,96.682975,31.123389,-73.633615
17175,-5.235865,8.098924,-1.737760,0.687455,0.427278,-0.046854,0.057664,0.031460,-0.079505,-0.052329,0.081015,-0.017346,1.000000,0.000288,0.000157,-0.000398,-0.392114,-0.683364,0.288379,0.544148,96.731637,31.167872,-73.607365
17176,-5.313772,8.309118,-1.016414,-0.030117,0.211129,0.100195,0.127389,-0.029798,-0.063907,-0.053110,0.083115,-0.010119,1.000000,0.000637,-0.000149,-0.000320,-0.391442,-0.683630,0.288571,0.544196,96.798439,31.207577,-73.623057
17177,-5.247732,8.270458,-0.615111,-0.408541,0.080453,-0.007375,0.051417,-0.049260,-0.060781,-0.052451,0.082722,-0.006143,1.000000,0.000257,-0.000246,-0.000304,-0.391010,-0.683690,0.288605,0.544414,96.815000,31.246850,-73.651884
17178,-5.059696,8.103121,-0.715249,-0.269429,0.029997,-0.236718,-0.003967,-0.051148,-0.068168,-0.050568,0.081048,-0.007167,1.000000,-0.000020,-0.000256,-0.000341,-0.390744,-0.683647,0.288466,0.544732,96.799325,31.290447,-73.681427
17179,-4.941267,8.026308,-0.954655,-0.009813,0.018855,-0.339111,0.058981,-0.032232,-0.073242,-0.049382,0.080284,-0.009531,1.000000,0.000295,-0.000161,-0.000366,-0.390276,-0.683786,0.288444,0.544905,96.826580,31.335655,-73.697945
17180,-4.897985,8.199330,-1.263998,0.303255,-0.049439,-0.183433,0.073454,-0.001375,-0.085678,-0.048945,0.082019,-0.012610,1.000000,0.000367,-0.000007,-0.000428,-0.389770,-0.684054,0.288359,0.544976,96.873207,31.385833,-73.692920
17181,-4.980067,8.131438,-1.451419,0.457373,0.084066,-0.178805,0.111739,0.017252,-0.089360,-0.049766,0.081345,-0.014464,1.000000,0.000559,0.000086,-0.000447,-0.389148,-0.684453,0.288330,0.544934,96.948571,31.436820,-73.675084
17182,-5.108552,8.312482,-1.363678,0.335544,0.060845,0.033020,0.190430,0.023600,-0.102376,-0.051045,0.083164,-0.013552,0.999999,0.000952,0.000118,-0.000512,-0.388232,-0.685041,0.288457,0.544783,97.071742,31.494732,-73.651865
17183,-5.253029,8.244988,-1.227585,0.151364,0.170133,0.037653,0.204354,0.045863,-0.107074,-0.052489,0.082490,-0.012180,0.999999,0.001022,0.000229,-0.000535,-0.387285,-0.685722,0.288563,0.544543,97.211089,31.553690,-73.613204
17184,-5.301585,8.135895,-1.125599,0.020058,0.230235,-0.039607,0.241684,0.037531,-0.102366,-0.052976,0.081400,-0.011148,0.999999,0.001208,0.000188,-0.000512,-0.386212,-0.686444,0.288802,0.544268,97.368734,31.610487,-73.580329
17185,-5.278835,8.114816,-1.264627,0.140907,0.237916,-0.053634,0.246302,0.023362,-0.084320,-0.052756,0.081186,-0.012540,0.999999,0.001232,0.000117,-0.000422,-0.385150,-0.687111,0.289143,0.543999,97.523480,31.658013,-73.558253
17186,-5.297119,8.023317,-1.215103,0.065676,0.277759,-0.126200,0.305983,-0.002691,-0.055639,-0.052949,0.080266,-0.012029,0.999999,0.001530,-0.000013,-0.000278,-0.383923,-0.687777,0.289794,0.543677,97.701950,31.691176,-73.555974
17187,-5.295346,7.823460,-0.818574,-0.349124,0.286475,-0.340981,0.432505,-0.026688,-0.037926,-0.052938,0.078262,-0.008024,0.999998,0.002163,-0.000133,-0.000190,-0.382273,-0.688594,0.290895,0.543218,97.943823,31.716146,-73.571160
17188,-5.204303,7.684249,-0.841092,-0.338155,0.279103,-0.504221,0.450589,-0.041896,-0.038377,-0.052027,0.076871,-0.008249,0.999997,0.002253,-0.000209,-0.000192,-0.380535,-0.689401,0.292071,0.542784,98.190699,31.742664,-73.596350
17189,-5.125822,7.867149,-0.912521,-0.279220,0.117350,-0.383640,0.460222,-0.051585,-0.054071,-0.051235,0.078706,-0.008957,0.999997,0.002301,-0.000258,-0.000270,-0.378705,-0.690219,0.293236,0.542395,98.440658,31.778960,-73.626320
17190,-5.047611,8.163395,-0.752685,-0.446700,-0.155386,-0.196964,0.478316,-0.047428,-0.074924,-0.050444,0.081671,-0.007344,0.999997,0.002392,-0.000237,-0.000375,-0.376760,-0.691109,0.294368,0.542003,98.703508,31.826856,-73.651270
17191,-5.010568,8.479475,-0.821034,-0.404077,-0.360940,0.055835,0.412613,-0.004603,-0.093751,-0.050066,0.084835,-0.008037,0.999998,0.002063,-0.000023,-0.000469,-0.375052,-0.692016,0.295175,0.541591,98.945026,31.881713,-73.645467
17192,-5.135998,8.812861,-0.909431,-0.377525,-0.440166,0.411584,0.320763,-0.010674,-0.095140,-0.051318,0.088167,-0.008956,0.999999,0.001604,-0.000053,-0.000476,-0.373648,-0.692733,0.295739,0.541337,99.131853,31.937906,-73.643350
17193,-5.252166,8.928278,-0.815425,-0.518458,-0.443544,0.555473,0.244488,-0.033429,-0.101655,-0.052475,0.089319,-0.008054,0.999999,0.001222,-0.000167,-0.000508,-0.372456,-0.693255,0.296116,0.541285,99.267557,31.999841,-73.655482
17194,-5.365359,8.890398,-0.801067,-0.571225,-0.348351,0.580594,0.126382,-0.039295,-0.107539,-0.053604,0.088938,-0.007965,1.000000,0.000632,-0.000196,-0.000538,-0.371649,-0.693548,0.296163,0.541439,99.333745,32.065673,-73.670803
17195,-5.353469,8.725835,-0.791513,-0.577830,-0.282607,0.434876,0.015532,-0.051978,-0.116445,-0.053482,0.087290,-0.007922,1.000000,0.000078,-0.000260,-0.000582,-0.371182,-0.693614,0.295903,0.541817,99.332607,32.137717,-73.693540
17196,-5.253212,8.510672,-1.121797,-0.221387,-0.193047,0.247128,-0.132048,-0.053557,-0.135933,-0.052471,0.085135,-0.011288,1.000000,-0.000660,-0.000268,-0.000680,-0.371172,-0.693429,0.295177,0.542455,99.247218,32.220915,-73.715334
17197,-5.148493,8.428120,-1.099933,-0.198335,-0.246834,0.119570,-0.196325,-0.053409,-0.138989,-0.051423,0.084306,-0.011096,0.999999,-0.000982,-0.000267,-0.000695,-0.371376,-0.693130,0.294267,0.543192,99.125294,32.305792,-73.736848
17198,-5.093622,8.163051,-1.058851,-0.199203,-0.161446,-0.136131,-0.295053,-0.044115,-0.139965,-0.050877,0.081650,-0.010720,0.999999,-0.001475,-0.000221,-0.000700,-0.371934,-0.692672,0.293066,0.544043,98.949803,32.390334,-73.752368
17199,-5.158784,7.890271,-1.186773,-0.061800,0.060147,-0.311616,-0.303657,-0.043410,-0.141610,-0.051529,0.078921,-0.011999,0.999999,-0.001518,-0.000217,-0.000708,-0.372515,-0.692202,0.291835,0.544905,98.769743,32.475707,-73.767515
17200,-5.194233,7.859602,-1.273666,0.043281,0.116582,-0.306896,-0.324528,-0.050220,-0.143226,-0.051883,0.078612,-0.012877,0.999998,-0.001623,-0.000251,-0.000716,-0.373155,-0.691673,0.290553,0.545823,98.574934,32.562537,-73.787472
17201,-5.370062,7.720111,-1.117547,-0.121316,0.298686,-0.347880,-0.307969,-0.055555,-0.138093,-0.053644,0.077221,-0.011309,0.999999,-0.001540,-0.000278,-0.000690,-0.373741,-0.691152,0.289343,0.546724,98.387396,32.646857,-73.811839
17202,-5.452927,7.547490,-1.017601,-0.212033,0.433704,-0.458469,-0.263159,-0.076014,-0.154578,-0.054467,0.075504,-0.010296,0.999999,-0.001316,-0.000380,-0.000773,-0.374098,-0.690680,0.288236,0.547661,98.218535,32.742157,-73.848760
17203,-5.443756,7.433586,-1.016867,-0.187208,0.479472,-0.557326,-0.214815,-0.087407,-0.169052,-0.054370,0.074371,-0.010272,0.999999,-0.001074,-0.000437,-0.000845,-0.374230,-0.690287,0.287232,0.548592,98.073937,32.846501,-73.892266
17204,-5.429641,7.482773,-1.245208,0.061357,0.475258,-0.496371,-0.180780,-0.100193,-0.177185,-0.054224,0.074864,-0.012547,0.999999,-0.000904,-0.000501,-0.000886,-0.374204,-0.689932,0.286316,0.549534,97.944089,32.956416,-73.944043
17205,-5.514656,7.622272,-1.101930,-0.076107,0.423246,-0.350144,-0.095628,-0.112709,-0.195428,-0.055066,0.076271,-0.011087,0.999999,-0.000478,-0.000564,-0.000977,-0.373815,-0.689728,0.285595,0.550429,97.859309,33.077564,-74.002836
17206,-5.507537,7.637543,-0.975906,-0.181423,0.366288,-0.354871,-0.053329,-0.106528,-0.215841,-0.054988,0.076432,-0.009809,0.999999,-0.000267,-0.000533,-0.001079,-0.373233,-0.689648,0.284907,0.551281,97.801628,33.209798,-74.055850
17207,-5.495585,7.652937,-1.093897,-0.050190,0.351798,-0.334334,-0.043369,-0.097788,-0.238822,-0.054859,0.076593,-0.010982,0.999999,-0.000217,-0.000489,-0.001194,-0.372564,-0.689642,0.284152,0.552130,97.754061,33.354316,-74.100978
17208,-5.469753,7.691410,-1.232463,0.103784,0.315048,-0.300334,-0.023832,-0.097407,-0.253884,-0.054594,0.076982,-0.012360,0.999999,-0.000119,-0.000487,-0.001269,-0.371786,-0.689694,0.283396,0.552977,97.718174,33.507386,-74.144705
17209,-5.554222,7.846859,-1.251977,0.116934,0.275200,-0.122457,0.013589,-0.086496,-0.258412,-0.055435,0.078541,-0.012538,0.999999,0.000068,-0.000432,-0.001292,-0.370882,-0.689851,0.282708,0.553741,97.708105,33.662117,-74.180682
17210,-5.719903,7.910196,-1.112531,-0.048396,0.318405,0.006805,0.064560,-0.081242,-0.267702,-0.057089,0.079182,-0.011123,0.999999,0.000323,-0.000406,-0.001339,-0.369783,-0.690128,0.282118,0.554431,97.729395,33.821787,-74.212303
17211,-5.918084,8.036087,-0.890018,-0.303423,0.333677,0.196862,0.102122,-0.098731,-0.270562,-0.059068,0.080445,-0.008888,0.999999,0.000511,-0.000494,-0.001353,-0.368520,-0.690429,0.281655,0.555132,97.765836,33.984379,-74.255540
17212,-5.909199,8.128923,-0.850145,-0.333714,0.236481,0.264683,0.077819,-0.115239,-0.294171,-0.058967,0.081379,-0.008504,0.999999,0.000389,-0.000576,-0.001471,-0.367252,-0.690671,0.281072,0.555967,97.782937,34.161751,-74.307920
17213,-5.822714,8.332785,-0.882479,-0.271503,0.025934,0.387489,0.068828,-0.132716,-0.311547,-0.058091,0.083421,-0.008835,0.999999,0.000344,-0.000664,-0.001558,-0.365941,-0.690870,0.280436,0.556904,97.789081,34.350271,-74.370698
17214,-5.697610,8.608793,-0.728156,-0.377742,-0.293815,0.525357,0.024606,-0.162313,-0.309716,-0.056837,0.086177,-0.007317,0.999998,0.000123,-0.000812,-0.001549,-0.364745,-0.690901,0.279735,0.558001,97.757763,34.540123,-74.454262
17215,-5.644747,8.683520,-0.694635,-0.381677,-0.415602,0.552191,-0.016978,-0.185008,-0.297990,-0.056312,0.086919,-0.007006,0.999998,-0.000085,-0.000925,-0.001490,-0.363692,-0.690775,0.279001,0.559211,97.692878,34.724917,-74.554917
17216,-5.593156,8.872585,-0.607160,-0.429846,-0.609849,0.666721,-0.101340,-0.208202,-0.272416,-0.055804,0.088799,-0.006175,0.999998,-0.000507,-0.001041,-0.001362,-0.362970,-0.690391,0.278159,0.560572,97.568303,34.896896,-74.674633
17217,-5.551093,8.988636,-0.459590,-0.532110,-0.761767,0.720967,-0.190004,-0.224541,-0.255092,-0.055391,0.089953,-0.004744,0.999998,-0.000950,-0.001123,-0.001275,-0.362577,-0.689776,0.277158,0.562077,97.385028,35.059907,-74.808002
17218,-5.440571,8.835237,-0.349323,-0.582334,-0.799539,0.521949,-0.292072,-0.208686,-0.233339,-0.054299,0.088410,-0.003679,0.999998,-0.001460,-0.001043,-0.001167,-0.362619,-0.688986,0.275914,0.563629,97.147356,35.209059,-74.933339
17219,-5.250074,8.854013,-0.820800,-0.035560,-0.886010,0.475366,-0.421561,-0.172621,-0.206318,-0.052402,0.088577,-0.008440,0.999997,-0.002108,-0.000863,-0.001032,-0.363230,-0.688022,0.274333,0.565182,96.848082,35.339790,-75.036862
17220,-5.308165,8.838699,-0.876503,0.057186,-0.829523,0.501179,-0.472307,-0.160415,-0.168001,-0.053000,0.088410,-0.009016,0.999997,-0.002362,-0.000802,-0.000840,-0.364139,-0.686943,0.272715,0.566691,96.521770,35.447463,-75.136114
17221,-5.328635,8.557740,-0.973116,0.187848,-0.634437,0.293658,-0.499298,-0.108937,-0.132312,-0.053224,0.085588,-0.009974,0.999997,-0.002496,-0.000545,-0.000662,-0.365309,-0.685908,0.271049,0.567989,96.198953,35.531062,-75.202924
17222,-5.548844,8.369151,-1.048565,0.254861,-0.336873,0.274594,-0.453889,-0.100097,-0.099747,-0.055441,0.083695,-0.010703,0.999997,-0.002269,-0.000500,-0.000499,-0.366426,-0.684932,0.269604,0.569134,95.903606,35.595270,-75.266669
17223,-5.650605,8.024950,-1.061006,0.270059,-0.052450,0.055398,-0.375778,-0.103464,-0.083962,-0.056467,0.080253,-0.010790,0.999998,-0.001879,-0.000517,-0.000420,-0.367314,-0.684066,0.268442,0.570152,95.650999,35.650434,-75.334226
17224,-5.810562,7.699345,-1.199671,0.386837,0.290941,-0.104576,-0.249995,-0.090812,-0.068250,-0.058074,0.076998,-0.012119,0.999999,-0.001250,-0.000454,-0.000341,-0.367833,-0.683443,0.267667,0.570929,95.474489,35.695710,-75.394366
17225,-5.876921,7.381953,-1.175446,0.351171,0.522744,-0.324984,-0.080748,-0.099778,-0.041847,-0.058748,0.073827,-0.011814,1.000000,-0.000404,-0.000499,-0.000209,-0.367835,-0.683070,0.267483,0.571459,95.390424,35.726321,-75.462629
17226,-5.858870,7.074786,-0.543519,-0.268097,0.562488,-0.631942,-0.062491,-0.103542,-0.033123,-0.058574,0.070756,-0.005488,1.000000,-0.000312,-0.000518,-0.000166,-0.367796,-0.682707,0.267386,0.571963,95.314588,35.752072,-75.534273
17227,-5.218586,5.918364,-0.676991,-0.066220,0.760061,-1.929990,0.096862,-0.110848,-0.061400,-0.052164,0.059203,-0.006770,1.000000,0.000484,-0.000554,-0.000307,-0.367121,-0.682655,0.267663,0.572329,95.328352,35.794318,-75.609166
17228,-4.904266,6.589194,-1.562368,0.895217,0.283883,-1.504361,0.219392,-0.057976,-0.057330,-0.049019,0.065923,-0.015566,0.999999,0.001097,-0.000290,-0.000287,-0.366111,-0.682972,0.268206,0.572344,95.433612,35.831486,-75.647200
17229,-5.041899,7.261437,-1.624483,0.951602,-0.001206,-0.874981,0.275204,-0.090079,-0.033160,-0.050400,0.072645,-0.016168,0.999999,0.001376,-0.000450,-0.000166,-0.364934,-0.683267,0.269051,0.572347,95.556974,35.856671,-75.709301
17230,-5.276053,7.457614,-1.211812,0.485862,-0.021620,-0.610264,0.509775,-0.026740,0.008976,-0.052762,0.074604,-0.011935,0.999997,0.002549,-0.000134,0.000045,-0.363162,-0.684110,0.270593,0.571740,95.838920,35.854425,-75.729768
17231,-5.701231,7.828715,-1.078665,0.246996,0.060304,-0.071460,0.586940,-0.020628,0.066648,-0.057037,0.078299,-0.010563,0.999996,0.002935,-0.000103,0.000333,-0.361295,-0.685029,0.272541,0.570897,96.165327,35.819021,-75.750146
17232,-6.023469,8.044940,-0.961185,0.029990,0.159505,0.281894,0.639156,-0.075326,0.096518,-0.060270,0.080451,-0.009377,0.999995,0.003196,-0.000377,0.000483,-0.359257,-0.685837,0.274835,0.570112,96.497493,35.770173,-75.811552
17233,-6.033876,8.320034,-1.131396,0.154792,0.032458,0.525855,0.648762,-0.074801,0.108948,-0.060380,0.083204,-0.011067,0.999995,0.003244,-0.000374,0.000545,-0.357217,-0.686641,0.277196,0.569283,96.834856,35.714494,-75.873859
17234,-5.918622,8.729997,-1.163613,0.172204,-0.297039,0.792918,0.552728,-0.068581,0.108912,-0.059230,0.087299,-0.011415,0.999996,0.002764,-0.000343,0.000545,-0.355513,-0.687283,0.279270,0.568560,97.119394,35.658693,-75.932192
17235,-5.859751,8.815787,-1.153027,0.133137,-0.396446,0.827295,0.480009,-0.075822,0.103714,-0.058639,0.088155,-0.011341,0.999997,0.002400,-0.000379,0.000519,-0.354031,-0.687779,0.281130,0.567969,97.359672,35.606571,-75.995344
17236,-5.828677,8.729588,-1.069545,0.017736,-0.384815,0.731249,0.460328,-0.052126,0.077708,-0.058318,0.087298,-0.010510,0.999997,0.002302,-0.000261,0.000389,-0.352574,-0.688339,0.282801,0.567367,97.599403,35.567672,-76.039849
17237,-5.833048,8.603494,-0.964726,-0.122078,-0.326568,0.620607,0.380963,-0.020252,0.043779,-0.058348,0.086040,-0.009489,0.999998,0.001905,-0.000101,0.000219,-0.351337,-0.688894,0.284073,0.566824,97.808578,35.545730,-76.059017
17238,-5.818137,8.531234,-1.156038,0.041110,-0.268605,0.574574,0.250063,0.011757,0.006626,-0.058185,0.085325,-0.011450,0.999999,0.001250,0.000059,0.000033,-0.350491,-0.689361,0.284788,0.566421,97.957569,35.542393,-76.052413
17239,-5.915536,8.296600,-1.165498,0.012141,-0.056579,0.443148,0.162009,0.022829,-0.023134,-0.059147,0.082982,-0.011581,1.000000,0.000810,0.000114,-0.000116,-0.349879,-0.689747,0.285133,0.566156,98.062496,35.555060,-76.035115
17240,-5.896763,7.876187,-1.159415,-0.003544,0.170622,0.092930,0.113805,0.030560,-0.039876,-0.058954,0.078780,-0.011540,1.000000,0.000569,0.000153,-0.000199,-0.349398,-0.690094,0.285269,0.565963,98.143722,35.576555,-76.010797
17241,-5.751642,7.612631,-1.168842,0.023952,0.207414,-0.202478,0.107233,0.034390,-0.045487,-0.057501,0.076146,-0.011638,1.000000,0.000536,0.000172,-0.000227,-0.348927,-0.690448,0.285360,0.565775,98.223304,35.600912,-75.983139
17242,-5.450031,7.336335,-1.349177,0.249718,0.156237,-0.579154,0.135364,0.027144,-0.026422,-0.054492,0.073380,-0.013435,1.000000,0.000677,0.000136,-0.000132,-0.348404,-0.690802,0.285609,0.565539,98.314772,35.615011,-75.962476
17243,-5.211204,7.127123,-1.440515,0.371692,0.101607,-0.875176,0.219419,0.057891,-0.004032,-0.052115,0.071288,-0.014312,0.999999,0.001097,0.000289,-0.000020,-0.347696,-0.691358,0.286120,0.565036,98.465768,35.613824,-75.922579
17244,-5.086560,6.842931,-1.650031,0.579828,0.200990,-1.149851,0.309792,0.103777,0.028006,-0.050884,0.068448,-0.016368,0.999999,0.001549,0.000519,0.000140,-0.346833,-0.692153,0.286916,0.564190,98.685001,35.590452,-75.854140
17245,-5.211415,6.616788,-1.740331,0.612212,0.443513,-1.245432,0.478259,0.120824,0.049350,-0.052141,0.066196,-0.017214,0.999997,0.002391,0.000604,0.000247,-0.345468,-0.693255,0.288231,0.563002,99.006376,35.553241,-75.776256
17246,-5.471898,6.557586,-1.855031,0.629676,0.695183,-1.123339,0.622869,0.132884,0.053420,-0.054749,0.065619,-0.018310,0.999995,0.003114,0.000664,0.000267,-0.343629,-0.694629,0.289943,0.561553,99.414828,35.512218,-75.690822
17247,-5.802753,6.653234,-1.933669,0.584970,0.901085,-0.839277,0.761987,0.130779,0.044287,-0.058055,0.066592,-0.019045,0.999993,0.003810,0.000654,0.000221,-0.341273,-0.696241,0.292015,0.559918,99.902613,35.476015,-75.606167
17248,-6.061525,6.892044,-1.721401,0.255736,0.917198,-0.522988,0.914890,0.084387,0.025004,-0.060631,0.068991,-0.016873,0.999989,0.004574,0.000422,0.000125,-0.338257,-0.697999,0.294521,0.558244,100.460364,35.454781,-75.551700
17249,-6.088428,7.112783,-1.493181,-0.050466,0.756169,-0.362003,0.995827,0.034293,0.000484,-0.060887,0.071201,-0.014567,0.999988,0.004979,0.000171,0.000002,-0.334809,-0.699774,0.297245,0.556654,101.046216,35.452239,-75.528876
17250,-5.928547,7.307158,-1.371469,-0.219710,0.476695,-0.318104,1.065344,-0.002786,-0.019518,-0.059278,0.073149,-0.013326,0.999986,0.005327,-0.000014,-0.000098,-0.330997,-0.701574,0.300147,0.555110,101.658564,35.464979,-75.528903
17251,-5.742274,7.610604,-1.564482,-0.086397,0.150401,-0.152875,1.039657,-0.009316,-0.035029,-0.057409,0.076196,-0.015252,0.999986,0.005198,-0.000047,-0.000175,-0.327214,-0.703316,0.302926,0.553637,102.255082,35.487130,-75.530983
17252,-5.657352,8.087619,-1.452242,-0.286938,-0.241374,0.156418,0.996502,-0.021491,-0.045738,-0.056553,0.080960,-0.014125,0.999988,0.004982,-0.000107,-0.000229,-0.323525,-0.704952,0.305559,0.552275,102.823034,35.516872,-75.539530
17253,-5.515241,8.348262,-1.420807,-0.383004,-0.536934,0.271686,0.881700,-0.002982,-0.050773,-0.055131,0.083558,-0.013841,0.999990,0.004408,-0.000015,-0.000254,-0.320249,-0.706445,0.307821,0.551019,103.333339,35.547017,-75.534226
17254,-5.432043,8.617132,-1.578206,-0.302210,-0.767744,0.462120,0.718731,0.040541,-0.053700,-0.054300,0.086242,-0.015461,0.999993,0.003594,0.000203,-0.000268,-0.317601,-0.707790,0.309549,0.549856,103.767947,35.572973,-75.498355
17255,-5.418619,8.778696,-1.692976,-0.259489,-0.881093,0.601207,0.566434,0.052527,-0.042394,-0.054172,0.087846,-0.016667,0.999996,0.002832,0.000263,-0.000212,-0.315539,-0.708902,0.310876,0.548862,104.119205,35.590726,-75.455958
17256,-5.462333,8.663903,-1.735421,-0.262656,-0.786349,0.542239,0.429126,0.076848,-0.042432,-0.054612,0.086688,-0.017147,0.999998,0.002146,0.000384,-0.000212,-0.314000,-0.709858,0.311785,0.547992,104.401407,35.604905,-75.396853
17257,-5.706966,8.414998,-1.843303,-0.219736,-0.442231,0.508915,0.320063,0.092333,-0.036817,-0.057063,0.084190,-0.018272,0.999999,0.001600,0.000462,-0.000184,-0.312885,-0.710675,0.312391,0.547226,104.626894,35.613505,-75.328053
17258,-5.944618,8.122161,-1.982132,-0.132741,-0.071998,0.444699,0.269084,0.069225,-0.038532,-0.059437,0.081260,-0.019691,0.999999,0.001345,0.000346,-0.000193,-0.311911,-0.711348,0.312885,0.546624,104.814054,35.626223,-75.274696
17259,-6.178748,7.861955,-2.108291,-0.056429,0.274019,0.402685,0.287381,0.031818,-0.040759,-0.061775,0.078662,-0.020960,0.999999,0.001437,0.000159,-0.000204,-0.310806,-0.711951,0.313480,0.546127,104.997293,35.645542,-75.246313
17260,-6.158292,7.743753,-1.985278,-0.182079,0.307979,0.272131,0.276531,0.002864,-0.038574,-0.061568,0.077477,-0.019745,0.999999,0.001383,0.000014,-0.000193,-0.309700,-0.712453,0.314097,0.545747,105.162481,35.667908,-75.238011
17261,-5.879593,7.548868,-1.954532,-0.153008,0.196787,-0.049847,0.245811,0.003618,-0.020722,-0.058788,0.075519,-0.019451,0.999999,0.001229,0.000018,-0.000104,-0.308752,-0.712880,0.314693,0.545383,105.308648,35.680263,-75.232383
17262,-5.449572,7.328662,-1.958020,-0.055352,-0.012307,-0.472574,0.279888,-0.010645,0.001546,-0.054495,0.073314,-0.019481,0.999999,0.001399,-0.000053,0.000008,-0.307721,-0.713284,0.315481,0.544982,105.466106,35.682496,-75.240626
17263,-4.974893,7.522526,-2.146026,0.181957,-0.490054,-0.556874,0.292518,-0.000245,0.036949,-0.049763,0.075247,-0.021350,0.999999,0.001463,-0.000001,0.000185,-0.306757,-0.713679,0.316415,0.544467,105.631192,35.663584,-75.248443
17264,-4.779695,7.983652,-2.342724,0.335308,-0.907260,-0.266121,0.274743,0.037533,0.089589,-0.047837,0.079847,-0.023309,0.999999,0.001374,0.000188,0.000448,-0.306059,-0.714064,0.317428,0.543765,105.794975,35.609808,-75.240782
17265,-4.812061,8.305723,-2.432386,0.349100,-1.064576,0.026123,0.286067,0.087301,0.154104,-0.048195,0.083055,-0.024184,0.999999,0.001430,0.000437,0.000771,-0.305573,-0.714498,0.318627,0.542766,105.977660,35.512643,-75.212007
17266,-5.153636,8.434866,-2.362007,0.162351,-0.868565,0.311795,0.294680,0.094029,0.215201,-0.051638,0.084328,-0.023472,0.999998,0.001473,0.000470,0.001076,-0.305234,-0.714863,0.320055,0.541634,106.160564,35.380666,-75.191050
17267,-5.515049,8.406785,-2.354619,0.050017,-0.549500,0.498930,0.312461,0.082062,0.259779,-0.055269,0.084033,-0.023392,0.999998,0.001562,0.000410,0.001299,-0.304930,-0.715150,0.321708,0.540447,106.343733,35.226066,-75.187422
17268,-5.791821,8.354877,-2.191851,-0.193438,-0.293303,0.581050,0.333948,0.073365,0.270218,-0.058039,0.083507,-0.021758,0.999998,0.001670,0.000367,0.001351,-0.304563,-0.715425,0.323468,0.539238,106.534123,35.067067,-75.192387
17269,-6.035958,8.455372,-1.924737,-0.553312,-0.164219,0.737073,0.399914,0.023587,0.255977,-0.060470,0.084515,-0.019071,0.999997,0.002000,0.000118,0.001280,-0.303839,-0.715686,0.325429,0.538118,106.744607,34.924132,-75.228472
17270,-5.999015,8.865030,-1.430455,-1.114376,-0.464240,0.918841,0.329692,-0.037218,0.222236,-0.060086,0.088607,-0.014170,0.999998,0.001648,-0.000186,0.001111,-0.303176,-0.715728,0.327172,0.537380,106.895115,34.809807,-75.298936
17271,-5.800916,9.001274,-1.398170,-1.141459,-0.687539,0.904251,0.059415,-0.020855,0.196736,-0.058096,0.089960,-0.013961,0.999999,0.000297,-0.000104,0.000984,-0.303436,-0.715444,0.328071,0.537062,106.900182,34.706884,-75.353349
17272,-5.743423,8.844494,-1.466134,-1.039078,-0.613632,0.765840,-0.140303,-0.004420,0.174465,-0.057511,0.088384,-0.014725,0.999999,-0.000702,-0.000022,0.000872,-0.304380,-0.714936,0.328329,0.537047,106.799525,34.613326,-75.392216
17273,-5.798220,8.707030,-1.364834,-1.108504,-0.476217,0.667715,-0.346346,-0.032262,0.139346,-0.058041,0.087006,-0.013808,0.999998,-0.001732,-0.000161,0.000697,-0.305917,-0.714098,0.327950,0.537521,106.574768,34.543614,-75.442188
17274,-5.919754,8.339135,-1.620632,-0.794797,-0.119168,0.510344,-0.565507,-0.057538,0.090121,-0.059230,0.083318,-0.016459,0.999996,-0.002828,-0.000288,0.000451,-0.308064,-0.712931,0.326842,0.538517,106.220344,34.504747,-75.498990
17275,-6.002135,7.957930,-1.976306,-0.358399,0.221199,0.340258,-0.774848,-0.064474,0.008224,-0.060018,0.079499,-0.020091,0.999992,-0.003874,-0.000322,0.000041,-0.310719,-0.711550,0.324886,0.540000,105.752763,34.511842,-75.544302
17276,-6.021159,7.523900,-2.044492,-0.172034,0.513164,0.023470,-0.920488,-0.039885,-0.079006,-0.060178,0.075168,-0.020803,0.999989,-0.004602,-0.000199,-0.000395,-0.313694,-0.710136,0.322182,0.541758,105.219849,34.562928,-75.557122
17277,-6.012110,7.173004,-2.327249,0.220528,0.750058,-0.200100,-1.024926,-0.024933,-0.157102,-0.060062,0.071657,-0.023647,0.999987,-0.005125,-0.000125,-0.000786,-0.316842,-0.708709,0.318887,0.543740,104.640750,34.655023,-75.546391
17278,-5.937398,6.940399,-2.749609,0.747389,0.877341,-0.344139,-0.997796,-0.041217,-0.210349,-0.059295,0.069328,-0.027854,0.999987,-0.004989,-0.000206,-0.001052,-0.319717,-0.707346,0.315494,0.545808,104.075224,34.779013,-75.538651
17279,-5.721827,6.874324,-2.981732,1.092896,0.772031,-0.480187,-0.809284,-0.080579,-0.215030,-0.057132,0.068683,-0.030118,0.999991,-0.004046,-0.000403,-0.001075,-0.321841,-0.706171,0.312656,0.547712,103.602484,34.911112,-75.558077
17280,-5.522823,6.926918,-2.933079,1.134657,0.574620,-0.567747,-0.494699,-0.116245,-0.171041,-0.055152,0.069243,-0.029534,0.999996,-0.002473,-0.000581,-0.000855,-0.322917,-0.705325,0.310887,0.549173,103.291031,35.023306,-75.610114
17281,-5.421720,6.925571,-2.614917,0.877057,0.453072,-0.690088,-0.163034,-0.153058,-0.094525,-0.054164,0.069260,-0.026247,0.999999,-0.000815,-0.000765,-0.000473,-0.322973,-0.704792,0.310357,0.550122,103.148023,35.097508,-75.700012
17282,-5.433132,6.837460,-2.420141,0.705769,0.485438,-0.790875,0.071817,-0.196388,-0.036503,-0.054295,0.068393,-0.024230,0.999999,0.000359,-0.000982,-0.000183,-0.322295,-0.704429,0.310747,0.550766,103.116846,35.144841,-75.828966
17283,-5.500530,6.575570,-2.043154,0.348011,0.645681,-1.030295,0.251809,-0.245951,-0.007171,-0.054978,0.065783,-0.020416,0.999998,0.001259,-0.001230,-0.000036,-0.320984,-0.704172,0.311816,0.551255,103.166729,35.182305,-75.996421
17284,-5.529649,6.358252,-1.925685,0.240544,0.776955,-1.207392,0.386653,-0.278656,-0.006142,-0.055268,0.063621,-0.019211,0.999997,0.001933,-0.001393,-0.000031,-0.319151,-0.704036,0.313311,0.551645,103.280624,35.223671,-76.186426
17285,-5.445643,6.514540,-2.062225,0.365588,0.618474,-1.104597,0.437557,-0.272934,-0.029303,-0.054419,0.065198,-0.020554,0.999997,0.002188,-0.001365,-0.000147,-0.317080,-0.704030,0.314854,0.551969,103.428158,35.277552,-76.368722
17286,-5.428558,6.942704,-2.189631,0.438158,0.345449,-0.748831,0.414656,-0.194330,-0.055958,-0.054245,0.069487,-0.021805,0.999997,0.002073,-0.000972,-0.000280,-0.315139,-0.704241,0.316112,0.552092,103.595844,35.336189,-76.492966
17287,-5.478130,7.601021,-2.141015,0.297297,-0.031672,-0.206443,0.376783,-0.104634,-0.073363,-0.054742,0.076070,-0.021296,0.999998,0.001884,-0.000523,-0.000367,-0.313422,-0.704665,0.317063,0.551982,103.779071,35.392643,-76.552917
17288,-5.577729,8.356789,-1.957575,-0.000089,-0.440454,0.413994,0.341817,-0.067234,-0.076906,-0.055739,0.083623,-0.019452,0.999998,0.001709,-0.000336,-0.000385,-0.311878,-0.705140,0.317844,0.551801,103.957331,35.446110,-76.586595
17289,-5.646397,9.003647,-1.992057,-0.067380,-0.787417,0.971149,0.218288,-0.029344,-0.075635,-0.056427,0.090079,-0.019831,0.999999,0.001091,-0.000147,-0.000378,-0.310832,-0.705524,0.318230,0.551678,104.079890,35.493659,-76.594446
17290,-5.855995,9.358724,-1.914288,-0.231003,-0.854829,1.356860,0.054677,-0.009969,-0.088350,-0.058518,0.093618,-0.019120,1.000000,0.000273,-0.000050,-0.000442,-0.310359,-0.705726,0.318089,0.551768,104.117557,35.545576,-76.586848
17291,-6.112419,9.540315,-1.886269,-0.321772,-0.774834,1.643026,-0.104079,-0.023018,-0.103437,-0.061073,0.095425,-0.018919,1.000000,-0.000520,-0.000115,-0.000517,-0.310383,-0.705670,0.317477,0.552178,104.060726,35.607701,-76.585548
17292,-6.073753,9.440416,-2.004664,-0.165447,-0.743524,1.564936,-0.304975,-0.056215,-0.118126,-0.060676,0.094409,-0.020208,0.999999,-0.001525,-0.000281,-0.000591,-0.311023,-0.705232,0.316309,0.553047,103.876752,35.682552,-76.604668
17293,-5.902583,9.104111,-2.070312,0.006408,-0.674635,1.212562,-0.480176,-0.067089,-0.114239,-0.058967,0.091025,-0.020941,0.999997,-0.002401,-0.000335,-0.000571,-0.312272,-0.704483,0.314687,0.554222,103.587577,35.756689,-76.632245
17294,-5.555311,8.675210,-2.114786,0.206983,-0.685463,0.679221,-0.547714,-0.054620,-0.089270,-0.055509,0.086719,-0.021401,0.999996,-0.002739,-0.000273,-0.000446,-0.313847,-0.703618,0.312943,0.555417,103.261814,35.815066,-76.655917
17295,-5.316057,8.305049,-2.044122,0.267035,-0.652924,0.232954,-0.572886,-0.022572,-0.061495,-0.053133,0.083008,-0.020685,0.999996,-0.002864,-0.000113,-0.000307,-0.315634,-0.702754,0.311175,0.556491,102.931854,35.853736,-76.662350
17296,-5.189585,8.000675,-1.958918,0.282901,-0.569132,-0.097967,-0.623148,0.010266,-0.033916,-0.051883,0.079954,-0.019836,0.999995,-0.003116,0.000051,-0.000170,-0.317724,-0.701853,0.309309,0.557479,102.583494,35.872712,-76.650787
17297,-5.216660,7.627352,-2.071267,0.467369,-0.299229,-0.359012,-0.682427,0.038635,-0.018292,-0.052164,0.076207,-0.020963,0.999994,-0.003412,0.000193,-0.000091,-0.320104,-0.700905,0.307284,0.558428,102.211353,35.879611,-76.622093
17298,-5.489035,7.123150,-1.998067,0.424924,0.225016,-0.613246,-0.550185,0.038880,-0.002346,-0.054893,0.071177,-0.020166,0.999996,-0.002751,0.000194,-0.000012,-0.322065,-0.700138,0.305681,0.559142,101.913512,35.877563,-76.595691
17299,-5.912420,6.920502,-1.376462,-0.227451,0.620490,-0.630751,-0.103065,-0.022703,0.018792,-0.059129,0.069192,-0.013807,1.000000,-0.000515,-0.000114,0.000094,-0.322422,-0.699884,0.305500,0.559353,101.845239,35.871113,-76.614917
17300,-6.224470,6.921225,-0.738030,-0.914412,0.797467,-0.554180,0.305208,-0.122760,0.037997,-0.062253,0.069212,-0.007313,0.999999,0.001526,-0.000614,0.000190,-0.321253,-0.699978,0.306689,0.559258,101.968541,35.865631,-76.706218
17301,-6.187972,7.068002,-0.715151,-0.955785,0.675998,-0.464502,0.416685,-0.195853,0.026781,-0.061882,0.070687,-0.007065,0.999997,0.002083,-0.000979,0.000134,-0.319547,-0.700061,0.308267,0.559263,102.127203,35.875458,-76.846375
17302,-5.662258,7.527832,-2.150207,0.511078,0.127582,-0.165132,-0.013965,-0.194474,-0.000857,-0.056601,0.075277,-0.021562,1.000000,-0.000070,-0.000972,-0.000004,-0.319274,-0.699500,0.308540,0.559970,102.041842,35.900618,-76.981565
17303,-4.958515,7.772251,-2.733017,1.211957,-0.516499,-0.287538,-0.255981,-0.110134,-0.010693,-0.049566,0.077690,-0.027457,0.999999,-0.001280,-0.000551,-0.000053,-0.319948,-0.698803,0.307966,0.560771,101.852975,35.921084,-77.057000
17304,-4.705245,8.337991,-2.303314,0.820957,-1.096499,-0.061260,-0.304375,0.015419,0.026782,-0.047065,0.083338,-0.023156,0.999999,-0.001522,0.000077,0.000134,-0.321090,-0.698322,0.307186,0.561146,101.684020,35.905591,-77.051016
17305,-4.763518,9.101074,-2.642613,1.129438,-1.461015,0.632100,-0.630861,0.064659,0.058914,-0.047671,0.090913,-0.026698,0.999995,-0.003154,0.000323,0.000295,-0.323535,-0.697401,0.305522,0.561795,101.345534,35.866525,-77.015319
17306,-4.991901,8.935468,-3.011036,1.517701,-1.113985,0.688894,-0.803681,0.148893,0.059614,-0.049968,0.089218,-0.030432,0.999992,-0.004018,0.000744,0.000298,-0.326710,-0.696426,0.303234,0.562406,100.942220,35.817783,-76.921056
17307,-5.777375,8.464836,-2.372639,0.821640,-0.255973,0.671595,-0.597526,0.238999,0.055018,-0.057826,0.084561,-0.023910,0.999995,-0.002988,0.001195,0.000275,-0.329285,-0.696040,0.301359,0.562391,100.694138,35.762516,-76.763348
17308,-6.471445,8.070563,-1.911021,0.284499,0.492090,0.691715,-0.395851,0.225711,0.031168,-0.064749,0.080658,-0.019197,0.999997,-0.001979,0.001129,0.000156,-0.331069,-0.695978,0.299988,0.562152,100.557958,35.722328,-76.611657
17309,-6.832451,7.374548,-2.009059,0.353918,1.216438,0.360694,-0.184874,0.145804,0.002485,-0.068340,0.073726,-0.020109,0.999999,-0.000924,0.000729,0.000012,-0.331917,-0.696083,0.299240,0.561921,100.512462,35.707048,-76.511641
17310,-6.628113,6.902872,-2.554241,0.949271,1.409253,-0.054688,-0.035457,0.041417,-0.014962,-0.066281,0.069029,-0.025541,1.000000,-0.000177,0.000207,-0.000075,-0.332040,-0.696167,0.299026,0.561858,100.511587,35.712391,-76.481825
17311,-5.951350,6.446627,-2.437385,0.976706,1.131016,-0.830190,0.200841,-0.017433,-0.011949,-0.059508,0.064494,-0.024314,0.999999,0.001004,-0.000087,-0.000060,-0.331261,-0.696473,0.299582,0.561642,100.622070,35.722348,-76.493191
17312,-5.468249,6.657825,-1.487776,0.105892,0.497073,-1.084373,0.502644,-0.040525,0.013364,-0.054684,0.066612,-0.014721,0.999997,0.002513,-0.000203,0.000067,-0.329465,-0.697175,0.301112,0.561009,100.894252,35.720452,-76.523862
17313,-5.269463,6.953146,-1.039504,-0.341392,0.101442,-1.033898,0.472472,-0.056938,0.024202,-0.052700,0.069549,-0.010246,0.999997,0.002362,-0.000285,0.000121,-0.327779,-0.697759,0.302620,0.560459,101.141603,35.714476,-76.567372
17314,-5.180033,7.074885,-1.092509,-0.302105,-0.040747,-0.981642,0.262353,-0.049539,0.003350,-0.051799,0.070762,-0.010845,0.999999,0.001312,-0.000248,0.000017,-0.326777,-0.698050,0.303453,0.560232,101.273258,35.719423,-76.602923
17315,-5.339799,7.162688,-1.275473,-0.167930,0.050161,-0.789735,0.054730,0.009822,-0.025324,-0.053390,0.071637,-0.012733,1.000000,0.000274,0.000049,-0.000127,-0.326509,-0.698210,0.303507,0.560160,101.312208,35.733952,-76.593421
17316,-5.377712,7.383104,-1.643497,0.170309,-0.013743,-0.533576,-0.031440,0.066666,-0.053322,-0.053763,0.073843,-0.016429,1.000000,-0.000157,0.000333,-0.000267,-0.326549,-0.698430,0.303130,0.560065,101.327083,35.757729,-76.540685
17317,-5.341973,7.786201,-2.045202,0.545809,-0.241815,-0.169655,-0.066310,0.148254,-0.062368,-0.053411,0.077872,-0.020438,1.000000,-0.000332,0.000741,-0.000312,-0.326810,-0.698836,0.302489,0.559753,101.355727,35.777463,-76.430176
17318,-5.569980,7.907855,-2.069779,0.511511,-0.135938,0.064695,0.045416,0.174902,-0.042367,-0.055701,0.079095,-0.020631,1.000000,0.000227,0.000875,-0.000212,-0.326776,-0.699469,0.302188,0.559145,101.457636,35.782748,-76.303968
17319,-5.717982,8.022691,-1.757520,0.151334,-0.130292,0.192704,0.208153,0.143231,-0.017670,-0.057185,0.080250,-0.017451,0.999999,0.001041,0.000716,-0.000088,-0.326194,-0.700240,0.302479,0.558362,101.637890,35.777644,-76.203150
17320,-5.915622,8.107388,-1.269469,-0.396123,-0.089381,0.295275,0.283789,0.076551,-0.009121,-0.059157,0.081094,-0.012557,0.999999,0.001419,0.000383,-0.000046,-0.325270,-0.700934,0.303120,0.557682,101.833854,35.775143,-76.149688
17321,-6.066586,8.130363,-0.705901,-1.002695,-0.056526,0.306400,0.250153,0.013273,-0.018220,-0.060659,0.081318,-0.006953,0.999999,0.001251,0.000066,-0.000091,-0.324341,-0.701410,0.303736,0.557289,101.985687,35.785198,-76.138639
17322,-6.204283,8.042012,-0.434238,-1.305349,0.068171,0.269329,0.177183,-0.051444,-0.033986,-0.062028,0.080434,-0.004287,1.000000,0.000886,-0.000257,-0.000170,-0.323526,-0.701610,0.304200,0.557259,102.070960,35.811696,-76.169962
17323,-6.138758,7.962460,-0.582531,-1.147290,0.075131,0.192438,0.075992,-0.095012,-0.067476,-0.061358,0.079648,-0.005824,1.000000,0.000380,-0.000475,-0.000337,-0.322906,-0.701575,0.304333,0.557589,102.083489,35.862302,-76.226422
17324,-5.910221,7.811130,-0.982333,-0.692651,0.023735,0.007143,-0.132050,-0.105207,-0.116220,-0.059052,0.078139,-0.009906,0.999999,-0.000660,-0.000526,-0.000581,-0.322864,-0.701249,0.303732,0.558350,101.976747,35.941320,-76.282866
17325,-5.580023,7.692658,-1.457294,-0.131383,-0.119467,-0.199897,-0.353803,-0.067814,-0.155405,-0.055735,0.076944,-0.014728,0.999998,-0.001769,-0.000339,-0.000777,-0.323546,-0.700728,0.302314,0.559379,101.761303,36.037857,-76.308008
17326,-5.261934,7.773858,-1.779220,0.276042,-0.389393,-0.270231,-0.494015,0.001575,-0.172535,-0.052552,0.077740,-0.017984,0.999997,-0.002470,0.000008,-0.000863,-0.324776,-0.700196,0.300329,0.560401,101.494935,36.135827,-76.283075
17327,-5.142442,7.939270,-1.975013,0.523472,-0.564992,-0.180242,-0.593075,0.082739,-0.164582,-0.051367,0.079376,-0.019964,0.999995,-0.002965,0.000414,-0.000823,-0.326493,-0.699713,0.297960,0.561270,101.204262,36.220356,-76.203304
17328,-5.222248,8.027322,-1.939939,0.515701,-0.560940,-0.071418,-0.663433,0.108353,-0.149029,-0.052173,0.080247,-0.019637,0.999994,-0.003317,0.000542,-0.000745,-0.328535,-0.699156,0.295404,0.562123,100.882344,36.293563,-76.108291
17329,-5.536260,7.931829,-1.811057,0.379659,-0.272504,0.017137,-0.622452,0.092060,-0.133282,-0.055318,0.079298,-0.018332,0.999995,-0.003112,0.000460,-0.000666,-0.330449,-0.698591,0.293041,0.562940,100.575824,36.360170,-76.027139
17330,-5.902680,7.860645,-1.691931,0.238197,0.042456,0.159039,-0.574926,0.054209,-0.113748,-0.058987,0.078591,-0.017129,0.999996,-0.002875,0.000271,-0.000569,-0.332195,-0.697961,0.290940,0.563782,100.279145,36.419909,-75.975392
17331,-6.217137,7.592772,-1.391522,-0.068323,0.410451,0.090143,-0.496520,-0.009679,-0.105641,-0.062131,0.075926,-0.014107,0.999997,-0.002483,-0.000048,-0.000528,-0.333594,-0.697265,0.289192,0.564716,100.000045,36.481857,-75.969771
17332,-6.468784,7.277666,-1.047547,-0.411330,0.748090,-0.056765,-0.339324,-0.081116,-0.111970,-0.064643,0.072795,-0.010625,0.999998,-0.001697,-0.000406,-0.000560,-0.334323,-0.696635,0.287984,0.565679,99.781403,36.554307,-76.013897
17333,-6.456242,6.963371,-0.871511,-0.545869,0.897935,-0.334987,-0.210664,-0.153425,-0.140604,-0.064507,0.069670,-0.008838,0.999999,-0.001053,-0.000767,-0.000703,-0.334417,-0.696056,0.287160,0.566755,99.607956,36.649904,-76.105788
17334,-6.276402,6.816725,-0.994492,-0.364487,0.851796,-0.539526,-0.084478,-0.194111,-0.189148,-0.062690,0.068222,-0.010035,0.999999,-0.000422,-0.000971,-0.000946,-0.333875,-0.695639,0.286592,0.567872,99.492667,36.776533,-76.221052
17335,-5.851246,6.846304,-1.298279,0.032810,0.526853,-0.728868,-0.046677,-0.188961,-0.232930,-0.058420,0.068528,-0.013054,0.999999,-0.000233,-0.000945,-0.001165,-0.333084,-0.695362,0.285970,0.568988,99.403824,36.927335,-76.328003
17336,-5.379513,7.079098,-1.568691,0.400508,0.034013,-0.793155,-0.101250,-0.138327,-0.246675,-0.053697,0.070849,-0.015760,0.999999,-0.000506,-0.000692,-0.001233,-0.332516,-0.695157,0.285059,0.570028,99.305673,37.081008,-76.398044
17337,-5.098058,7.362444,-1.593266,0.490948,-0.374124,-0.737819,-0.166567,-0.081119,-0.216884,-0.050894,0.073666,-0.016015,0.999999,-0.000833,-0.000406,-0.001084,-0.332340,-0.694961,0.283971,0.570911,99.192133,37.212506,-76.431412
17338,-5.085857,7.631502,-1.643372,0.555297,-0.556785,-0.528935,-0.165034,-0.008298,-0.158097,-0.050798,0.076342,-0.016499,0.999999,-0.000825,-0.000041,-0.000790,-0.332430,-0.694892,0.282969,0.571441,99.106461,37.304013,-76.420101
17339,-5.223315,7.825687,-1.743125,0.637808,-0.565124,-0.281858,-0.143796,0.026625,-0.089871,-0.052200,0.078268,-0.017481,1.000000,-0.000719,0.000133,-0.000449,-0.332689,-0.694860,0.282207,0.571705,99.043264,37.353831,-76.391824
17340,-5.527581,8.213315,-1.764075,0.604967,-0.570407,0.208954,-0.107413,0.063871,-0.036684,-0.055266,0.082134,-0.017667,1.000000,-0.000537,0.000319,-0.000183,-0.333027,-0.694920,0.281672,0.571699,99.013356,37.370134,-76.343092
17341,-5.874112,8.741280,-1.542002,0.318650,-0.661435,0.805876,-0.056566,0.086750,-0.007155,-0.058745,0.087411,-0.015419,1.000000,-0.000283,0.000434,-0.000036,-0.333304,-0.695088,0.281346,0.571493,99.020436,37.367768,-76.281399
17342,-6.038784,9.103744,-1.368544,0.115904,-0.781690,1.168820,-0.118919,0.085412,0.005051,-0.060396,0.091028,-0.013714,1.000000,-0.000595,0.000427,0.000025,-0.333832,-0.695131,0.280888,0.571359,98.990400,37.358505,-76.222047
17343,-6.229744,9.068393,-1.034495,-0.236243,-0.656438,1.215862,-0.264484,0.081589,-0.001739,-0.062301,0.090671,-0.010439,0.999999,-0.001322,0.000408,-0.000009,-0.334839,-0.694929,0.279995,0.571453,98.875739,37.353605,-76.164641
17344,-6.331446,8.771864,-0.966328,-0.297162,-0.399219,1.037145,-0.366442,0.046085,-0.009087,-0.063313,0.087704,-0.009809,0.999998,-0.001832,0.000230,-0.000045,-0.336130,-0.694463,0.278845,0.571824,98.687830,37.355940,-76.131717
17345,-6.336504,8.458959,-1.076959,-0.154616,-0.179652,0.808461,-0.468398,-0.003883,-0.026601,-0.063354,0.084572,-0.010969,0.999997,-0.002342,-0.000019,-0.000133,-0.337654,-0.693705,0.277425,0.572538,98.421010,37.372712,-76.132530
17346,-6.225614,8.033569,-1.361820,0.183375,0.046801,0.439879,-0.460713,0.001316,-0.029476,-0.062244,0.080313,-0.013803,0.999997,-0.002304,0.000007,-0.000147,-0.339148,-0.692974,0.276007,0.573224,98.160967,37.390520,-76.129451
17347,-6.134927,7.730268,-1.524156,0.388976,0.195001,0.163687,-0.346743,0.018485,-0.016706,-0.061344,0.077281,-0.015370,0.999998,-0.001734,0.000092,-0.000084,-0.340306,-0.692465,0.274929,0.573670,97.972832,37.399874,-76.115474
17348,-5.924827,7.641061,-1.504171,0.431543,0.090777,-0.037340,-0.300560,0.025655,-0.000216,-0.059250,0.076388,-0.015149,0.999999,-0.001503,0.000128,-0.000001,-0.341361,-0.692031,0.274028,0.573998,97.813274,37.399180,-76.098056
17349,-5.857259,7.490192,-1.184394,0.148583,0.087625,-0.232319,-0.287913,0.028673,0.014908,-0.058580,0.074880,-0.011943,0.999999,-0.001440,0.000143,0.000075,-0.342418,-0.691606,0.273210,0.574272,97.661362,37.389864,-76.079936
17350,-5.817631,7.464412,-0.997539,-0.009139,0.049595,-0.296659,-0.278089,0.033552,0.017213,-0.058184,0.074625,-0.010069,0.999999,-0.001390,0.000168,0.000086,-0.343454,-0.691206,0.272420,0.574509,97.517113,37.378749,-76.058529
17351,-5.729025,7.566756,-1.064483,0.095085,-0.064720,-0.262956,-0.338852,0.059463,-0.000001,-0.057293,0.075649,-0.010756,0.999999,-0.001694,0.000297,-0.000000,-0.344685,-0.690798,0.271349,0.574769,97.350253,37.375697,-76.016947
17352,-5.733413,7.579203,-1.065132,0.115907,-0.063033,-0.250606,-0.342926,0.091094,-0.006088,-0.057337,0.075775,-0.010755,0.999998,-0.001715,0.000455,-0.000030,-0.345955,-0.690481,0.270192,0.574933,97.195171,37.373745,-75.952187
17353,-5.778918,7.745253,-1.021983,0.088178,-0.131856,-0.096510,-0.334557,0.116703,-0.008930,-0.057792,0.077438,-0.010316,0.999998,-0.001673,0.000584,-0.000045,-0.347221,-0.690253,0.269003,0.575001,97.056122,37.371879,-75.868839
17354,-5.835128,7.817628,-1.256870,0.329487,-0.086627,0.017248,-0.377144,0.123278,0.000349,-0.058359,0.078152,-0.012680,0.999998,-0.001886,0.000616,0.000002,-0.348668,-0.689955,0.267712,0.575085,96.895071,37.364288,-75.781607
17355,-5.931329,7.793976,-1.281612,0.352441,0.014397,0.058726,-0.286325,0.097832,0.028243,-0.059331,0.077913,-0.012899,0.999999,-0.001432,0.000489,0.000141,-0.349847,-0.689704,0.266820,0.575085,96.773499,37.342898,-75.714963
17356,-5.942843,7.689183,-1.176807,0.254997,0.077407,-0.027250,-0.160680,0.064573,0.053479,-0.059453,0.076866,-0.011811,1.000000,-0.000803,0.000323,0.000267,-0.350621,-0.689541,0.266437,0.574987,96.708240,37.309304,-75.674237
17357,-5.889833,7.604884,-1.191755,0.281871,0.099143,-0.124788,-0.135056,0.103359,0.065407,-0.058929,0.076022,-0.011938,1.000000,-0.000675,0.000517,0.000327,-0.351391,-0.689519,0.266098,0.574700,96.673789,37.266529,-75.606749
17358,-5.965990,7.512591,-1.159043,0.231731,0.216724,-0.154801,-0.078929,0.101543,0.071810,-0.059693,0.075100,-0.011590,1.000000,-0.000395,0.000508,0.000359,-0.351984,-0.689581,0.265947,0.574332,96.670409,37.220082,-75.541119
17359,-5.881290,7.342255,-1.116000,0.197920,0.254905,-0.344869,-0.058617,0.091552,0.062137,-0.058841,0.073401,-0.011155,1.000000,-0.000293,0.000458,0.000311,-0.352466,-0.689662,0.265838,0.573990,96.674700,37.179972,-75.481855
17360,-5.885505,7.250790,-1.155909,0.230148,0.327376,-0.411139,-0.070642,0.109194,0.053264,-0.058881,0.072488,-0.011553,1.000000,-0.000353,0.000546,0.000266,-0.352987,-0.689785,0.265633,0.573617,96.680199,37.143572,-75.409283
17361,-5.940979,7.211867,-0.947257,0.009459,0.360785,-0.427950,-0.021742,0.094679,0.045185,-0.059431,0.072104,-0.009452,1.000000,-0.000109,0.000473,0.000226,-0.353297,-0.689962,0.265565,0.573244,96.707718,37.112882,-75.346442
17362,-6.032361,7.274604,-0.662770,-0.290996,0.344118,-0.349844,0.014876,0.085905,0.035476,-0.060339,0.072736,-0.006596,1.000000,0.000074,0.000430,0.000177,-0.353441,-0.690193,0.265585,0.572869,96.752985,37.088129,-75.289084
17363,-5.979193,7.447105,-0.685252,-0.255768,0.203892,-0.243325,-0.055774,0.085106,0.010108,-0.059799,0.074466,-0.006848,1.000000,-0.000279,0.000426,0.000051,-0.353754,-0.690329,0.265315,0.572636,96.758588,37.077988,-75.230186
17364,-5.905299,7.503041,-0.839426,-0.088080,0.141868,-0.229111,-0.077880,0.084758,-0.009597,-0.059053,0.075030,-0.008398,1.000000,-0.000389,0.000424,-0.000048,-0.354088,-0.690451,0.264916,0.572467,96.752465,37.078954,-75.169869
17365,-5.835727,7.750501,-0.775054,-0.127197,-0.074939,-0.081044,-0.054734,0.089649,-0.013978,-0.058355,0.077507,-0.007746,1.000000,-0.000274,0.000448,-0.000070,-0.354335,-0.690634,0.264557,0.572260,96.761840,37.082210,-75.105699
17366,-5.772947,7.873343,-0.816882,-0.068824,-0.191028,-0.017662,-0.067670,0.084143,-0.011701,-0.057728,0.078734,-0.008171,1.000000,-0.000338,0.000421,-0.000059,-0.354626,-0.690775,0.264181,0.572083,96.761410,37.084412,-75.045640
17367,-5.795857,7.806598,-0.921841,0.026335,-0.112822,-0.046865,-0.056118,0.076637,0.002974,-0.057963,0.078063,-0.009218,1.000000,-0.000281,0.000383,0.000015,-0.354908,-0.690895,0.263900,0.571892,96.763535,37.078895,-74.992182
17368,-5.859395,7.664686,-0.971607,0.053770,0.032663,-0.116297,0.003509,0.057069,0.012074,-0.058601,0.076643,-0.009698,1.000000,0.000018,0.000285,0.000060,-0.354986,-0.691053,0.263857,0.571673,96.791017,37.069382,-74.953453
17369,-5.911996,7.583808,-0.810478,-0.122751,0.092189,-0.163897,0.034557,0.045913,0.010410,-0.059126,0.075836,-0.008078,1.000000,0.000173,0.000230,0.000052,-0.354936,-0.691237,0.263916,0.571455,96.831488,37.061687,-74.922550
17370,-5.931418,7.502277,-0.656788,-0.285280,0.127312,-0.231474,0.019480,0.045466,0.002223,-0.059316,0.075023,-0.006547,1.000000,0.000097,0.000227,0.000011,-0.354914,-0.691403,0.263905,0.571272,96.863623,37.058536,-74.891271
17371,-5.959383,7.397983,-0.537128,-0.416019,0.188587,-0.308780,0.010766,0.041400,-0.008643,-0.059592,0.073983,-0.005355,1.000000,0.000054,0.000207,-0.000043,-0.354887,-0.691557,0.263838,0.571134,96.889500,37.061960,-74.861961
17372,-5.851235,7.418373,-0.525389,-0.405926,0.088890,-0.358981,-0.027576,0.044645,-0.020509,-0.058506,0.074189,-0.005251,1.000000,-0.000138,0.000223,-0.000103,-0.354962,-0.691667,0.263616,0.571057,96.895486,37.071788,-74.829311
17373,-5.795160,7.530623,-0.677255,-0.240479,0.004567,-0.289296,-0.070407,0.060162,-0.020962,-0.057946,0.075310,-0.006782,1.000000,-0.000352,0.000301,-0.000105,-0.355204,-0.691746,0.263241,0.570983,96.883570,37.080925,-74.785556
17374,-5.747695,7.723126,-0.792342,-0.109062,-0.128145,-0.154418,-0.041161,0.050035,-0.008901,-0.057475,0.077232,-0.007925,1.000000,-0.000206,0.000250,-0.000045,-0.355366,-0.691832,0.263010,0.570884,96.883478,37.083791,-74.750061
17375,-5.767168,7.923995,-0.729556,-0.167066,-0.247530,0.010397,-0.011822,0.048674,0.008646,-0.057677,0.079237,-0.007286,1.000000,-0.000059,0.000243,0.000043,-0.355475,-0.691943,0.262925,0.570721,96.898656,37.076875,-74.717045
17376,-5.854502,7.992598,-0.737768,-0.176488,-0.219245,0.118169,-0.017258,0.041649,0.022125,-0.058555,0.079919,-0.007372,1.000000,-0.000086,0.000208,0.000111,-0.355633,-0.692007,0.262885,0.570564,96.907022,37.062654,-74.690214
17377,-5.950770,8.026960,-0.703782,-0.229433,-0.170459,0.200172,-0.023818,0.023846,0.022961,-0.059518,0.080262,-0.007040,1.000000,-0.000119,0.000119,0.000115,-0.355791,-0.692007,0.262859,0.570477,96.903900,37.049299,-74.676142
17378,-6.018479,8.016658,-0.612107,-0.332886,-0.127469,0.224071,-0.044457,0.020595,0.017516,-0.060192,0.080160,-0.006133,1.000000,-0.000222,0.000103,0.000088,-0.356002,-0.691968,0.262763,0.570437,96.887854,37.039145,-74.663929
17379,-6.055530,7.906371,-0.783279,-0.174134,0.003009,0.175473,-0.098385,0.016128,-0.001049,-0.060556,0.079060,-0.007867,1.000000,-0.000492,0.000081,-0.000005,-0.356340,-0.691845,0.262455,0.570517,96.839938,37.039985,-74.653289
17380,-5.972515,7.769079,-0.960623,0.018048,0.058199,0.033561,-0.131274,0.026914,-0.014640,-0.059721,0.077689,-0.009649,1.000000,-0.000656,0.000135,-0.000073,-0.356767,-0.691711,0.261988,0.570626,96.778506,37.047711,-74.633820
17381,-5.960036,7.740592,-0.886430,-0.044987,0.052211,-0.003518,-0.131718,0.040960,-0.017956,-0.059595,0.077405,-0.008903,1.000000,-0.000659,0.000205,-0.000090,-0.357205,-0.691621,0.261483,0.570694,96.723020,37.056516,-74.604050
17382,-5.940055,7.559169,-0.854529,-0.073334,0.141233,-0.162289,-0.121861,0.050099,-0.019281,-0.059395,0.075592,-0.008576,1.000000,-0.000609,0.000250,-0.000096,-0.357616,-0.691576,0.260985,0.570719,96.677176,37.065366,-74.567672
17383,-5.900906,7.447462,-0.907029,-0.014615,0.189173,-0.269518,-0.080299,0.055457,-0.017000,-0.059005,0.074476,-0.009084,1.000000,-0.000401,0.000277,-0.000085,-0.357897,-0.691618,0.260603,0.570667,96.657336,37.072696,-74.527652
17384,-5.881386,7.361120,-0.975423,0.052668,0.239127,-0.343354,-0.019254,0.053715,-0.016735,-0.058810,0.073615,-0.009746,1.000000,-0.000096,0.000269,-0.000084,-0.357966,-0.691763,0.260401,0.570540,96.671717,37.079882,-74.488906
17385,-5.926068,7.385453,-0.850341,-0.080944,0.231637,-0.308685,0.026662,0.051952,-0.019569,-0.059256,0.073861,-0.008478,1.000000,0.000133,0.000260,-0.000098,-0.357865,-0.691989,0.260322,0.570366,96.711800,37.088895,-74.451159
17386,-5.927530,7.444255,-0.775141,-0.157046,0.179192,-0.268233,0.047799,0.040750,-0.015935,-0.059271,0.074449,-0.007722,1.000000,0.000239,0.000204,-0.000080,-0.357687,-0.692216,0.260336,0.570195,96.759003,37.096471,-74.421707
17387,-5.833988,7.359611,-0.917445,-0.007424,0.183967,-0.378330,0.054416,0.019051,-0.019667,-0.058334,0.073604,-0.009149,1.000000,0.000272,0.000095,-0.000098,-0.357447,-0.692398,0.260394,0.570098,96.800860,37.107719,-74.407396
17388,-5.787133,7.418339,-1.124270,0.200577,0.149926,-0.340415,0.104631,0.015404,-0.007928,-0.057869,0.074192,-0.011199,1.000000,0.000523,0.000077,-0.000040,-0.357062,-0.692643,0.260644,0.569927,96.869323,37.112436,-74.396685
17389,-5.766383,7.559550,-1.212719,0.286816,0.061955,-0.232367,0.170059,0.015776,0.004523,-0.057666,0.075604,-0.012058,1.000000,0.000850,0.000079,0.000023,-0.356485,-0.692990,0.261121,0.569648,96.974789,37.110123,-74.386768
17390,-5.937806,7.782246,-0.962202,-0.001086,0.004932,0.023301,0.242125,0.011890,0.017449,-0.059385,0.077829,-0.009524,0.999999,0.001211,0.000059,0.000087,-0.355691,-0.693437,0.261856,0.569263,97.119198,37.100628,-74.380775
17391,-6.010267,7.893291,-0.918491,-0.074079,-0.019130,0.150499,0.248253,-0.003968,0.023465,-0.060112,0.078937,-0.009088,0.999999,0.001241,-0.000020,0.000117,-0.354871,-0.693841,0.262656,0.568914,97.259940,37.088925,-74.386647
17392,-6.119752,7.972962,-0.881438,-0.150248,0.005501,0.275612,0.254734,-0.004037,0.013166,-0.061203,0.079737,-0.008714,0.999999,0.001274,-0.000020,0.000066,-0.353999,-0.694268,0.263439,0.568574,97.404927,37.083006,-74.391668
17393,-6.163578,8.173951,-0.696768,-0.350419,-0.123123,0.441613,0.197050,0.001574,0.001991,-0.061637,0.081746,-0.006887,1.000000,0.000985,0.000008,0.000010,-0.353302,-0.694623,0.264009,0.568310,97.519879,37.083113,-74.391659
17394,-6.122250,8.247596,-0.767140,-0.282923,-0.190739,0.481819,0.107948,0.014470,-0.020231,-0.061215,0.082486,-0.007622,1.000000,0.000540,0.000072,-0.000101,-0.352868,-0.694886,0.264226,0.568157,97.590581,37.094785,-74.380380
17395,-6.016910,8.341045,-0.943322,-0.091178,-0.299776,0.510486,0.025365,0.019555,-0.034329,-0.060156,0.083422,-0.009417,1.000000,0.000127,0.000098,-0.000172,-0.352687,-0.695036,0.264149,0.568121,97.616972,37.114156,-74.364114
17396,-5.960477,8.376557,-0.913788,-0.107557,-0.374960,0.501227,-0.034936,0.045049,-0.049008,-0.059586,0.083779,-0.009139,1.000000,-0.000175,0.000225,-0.000245,-0.352709,-0.695172,0.263806,0.568101,97.620612,37.139828,-74.328295
17397,-5.932559,8.362079,-0.840975,-0.169028,-0.405252,0.465156,-0.120175,0.057594,-0.049604,-0.059307,0.083630,-0.008443,1.000000,-0.000601,0.000288,-0.000248,-0.353041,-0.695193,0.263196,0.568152,97.580877,37.164992,-74.283463
17398,-5.944220,8.203690,-0.949730,-0.060684,-0.280590,0.358538,-0.196112,0.050230,-0.050127,-0.059424,0.082042,-0.009563,0.999999,-0.000981,0.000251,-0.000251,-0.353626,-0.695060,0.262382,0.568328,97.494464,37.190935,-74.243872
17399,-5.901516,8.040054,-0.959470,-0.033036,-0.212173,0.204538,-0.241175,0.053792,-0.053671,-0.058996,0.080405,-0.009676,0.999999,-0.001206,0.000269,-0.000268,-0.354361,-0.694861,0.261420,0.568556,97.383988,37.218792,-74.201431
17400,-5.910800,7.861437,-0.962940,-0.020942,-0.094953,0.069495,-0.281524,0.054029,-0.049771,-0.059091,0.078615,-0.009724,0.999999,-0.001408,0.000270,-0.000249,-0.355248,-0.694584,0.260357,0.568829,97.250222,37.244366,-74.159261
17401,-5.873024,7.635457,-0.994968,0.028394,0.021979,-0.128615,-0.293822,0.042477,-0.042477,-0.058716,0.076352,-0.010049,0.999999,-0.001469,0.000212,-0.000212,-0.356182,-0.694242,0.259303,0.569143,97.104030,37.266824,-74.126040
17402,-5.815993,7.425960,-1.025698,0.079318,0.114599,-0.325683,-0.246223,0.032461,-0.028953,-0.058151,0.074255,-0.010339,0.999999,-0.001231,0.000162,-0.000145,-0.356976,-0.693937,0.258450,0.569405,96.979987,37.282236,-74.101252
17403,-5.781747,7.270824,-1.005906,0.073631,0.181255,-0.471005,-0.182052,0.036030,-0.017304,-0.057813,0.072704,-0.010115,1.000000,-0.000910,0.000180,-0.000087,-0.357585,-0.693742,0.257813,0.569551,96.893667,37.290933,-74.074935
17404,-5.792131,7.217955,-1.046134,0.116153,0.231391,-0.502746,-0.109528,0.035553,-0.003311,-0.057922,0.072175,-0.010491,1.000000,-0.000548,0.000178,-0.000017,-0.357981,-0.693656,0.257432,0.569579,96.847927,37.291611,-74.050196
17405,-5.821465,7.190689,-1.103952,0.167233,0.283475,-0.501090,-0.026853,0.034830,0.007196,-0.058219,0.071903,-0.011039,1.000000,-0.000134,0.000174,0.000036,-0.358119,-0.693702,0.257324,0.569485,96.848726,37.286486,-74.026856
17406,-5.893549,7.261107,-1.034792,0.084095,0.281797,-0.408331,0.071350,0.020046,0.017448,-0.058943,0.072610,-0.010316,1.000000,0.000357,0.000100,0.000087,-0.357927,-0.693869,0.257557,0.569297,96.898829,37.276428,-74.014992
17407,-5.981958,7.407239,-0.879870,-0.087479,0.228023,-0.254155,0.134481,0.004580,0.022921,-0.059828,0.074071,-0.008748,1.000000,0.000672,0.000023,0.000115,-0.357511,-0.694097,0.258017,0.569071,96.978130,37.264423,-74.014656
17408,-6.026672,7.588357,-0.776032,-0.201580,0.129246,-0.094210,0.178557,-0.005275,0.023264,-0.060275,0.075883,-0.007694,1.000000,0.000893,-0.000026,0.000116,-0.356930,-0.694376,0.258621,0.568822,97.078373,37.252821,-74.021430
17409,-6.029604,7.845462,-0.731071,-0.248088,-0.036948,0.105928,0.193661,-0.005687,0.014508,-0.060302,0.078457,-0.007236,1.000000,0.000968,-0.000028,0.000073,-0.356271,-0.694691,0.259238,0.568570,97.187567,37.246328,-74.027727
17410,-6.024677,8.064158,-0.731560,-0.250392,-0.177098,0.275350,0.155632,0.001231,0.008246,-0.060250,0.080645,-0.007252,1.000000,0.000778,0.000006,0.000041,-0.355735,-0.694965,0.259712,0.568354,97.278268,37.242817,-74.028546
17411,-5.986532,8.148913,-0.820739,-0.161970,-0.242909,0.327910,0.102405,0.004116,0.001253,-0.059866,0.081493,-0.008164,1.000000,0.000512,0.000021,0.000006,-0.355367,-0.695162,0.260006,0.568209,97.340131,37.243158,-74.026656
17412,-5.924709,8.198520,-0.871771,-0.103068,-0.312544,0.334705,0.044384,0.015115,-0.005368,-0.059246,0.081989,-0.008695,1.000000,0.000222,0.000076,-0.000027,-0.355197,-0.695295,0.260092,0.568113,97.373829,37.246359,-74.016323
17413,-5.943230,8.182271,-0.878174,-0.104779,-0.288487,0.333668,0.006082,0.023174,-0.002900,-0.059432,0.081824,-0.008772,1.000000,0.000030,0.000116,-0.000014,-0.355178,-0.695380,0.260064,0.568034,97.388970,37.247655,-74.000444
17414,-5.951201,8.106329,-0.828669,-0.158530,-0.245766,0.273468,-0.034180,0.027781,0.003792,-0.059515,0.081061,-0.008292,1.000000,-0.000171,0.000139,0.000019,-0.355323,-0.695398,0.259936,0.567980,97.382603,37.244702,-73.981919
17415,-5.931905,8.008541,-0.818364,-0.166488,-0.201367,0.183596,-0.065759,0.027285,0.010804,-0.059324,0.080080,-0.008202,1.000000,-0.000329,0.000136,0.000054,-0.355597,-0.695349,0.259744,0.567956,97.357590,37.237912,-73.964372
17416,-5.955903,7.857517,-0.848214,-0.145749,-0.082134,0.081999,-0.076119,0.028280,0.017878,-0.059567,0.078567,-0.008504,1.000000,-0.000381,0.000141,0.000089,-0.355930,-0.695275,0.259545,0.567929,97.326607,37.226921,-73.946791
17417,-5.941528,7.811559,-0.866317,-0.122617,-0.058244,0.038926,-0.093739,0.026158,0.019257,-0.059424,0.078106,-0.008692,1.000000,-0.000469,0.000131,0.000096,-0.356324,-0.695162,0.259305,0.567930,97.284607,37.215425,-73.930818
17418,-5.880378,7.717930,-0.913297,-0.062233,-0.034595,-0.067210,-0.101721,0.025241,0.024148,-0.058814,0.077168,-0.009165,1.000000,-0.000509,0.000126,0.000121,-0.356759,-0.695025,0.259061,0.567936,97.237293,37.201109,-73.915963
17419,-5.860887,7.548807,-0.904034,-0.069425,0.056467,-0.213534,-0.095764,0.023171,0.035294,-0.058623,0.075473,-0.009070,1.000000,-0.000479,0.000116,0.000176,-0.357201,-0.694879,0.258876,0.567921,97.191971,37.180732,-73.903553
