PacketCounter,Acc_X,Acc_Y,Acc_Z,FreeAcc_E,FreeAcc_N,FreeAcc_U,Gyr_X,Gyr_Y,Gyr_Z,VelInc_X,VelInc_Y,VelInc_Z,OriInc_q0,OriInc_q1,OriInc_q2,OriInc_q3,Quat_q0,Quat_q1,Quat_q2,Quat_q3,Roll,Pitch,Yaw
54361,-9.380686,-0.916912,-2.334522,-0.228003,0.537873,-0.120077,-0.071861,-0.026062,-0.045435,-0.093806,-0.009156,-0.023354,1.000000,-0.000359,-0.000130,-0.000227,0.017901,-0.795046,-0.008983,0.606218,-171.532307,74.498018,7.738393
54362,-9.552977,-0.980253,-2.095925,-0.499632,0.597981,-0.014424,-0.051086,-0.047962,-0.028728,-0.095526,-0.009794,-0.020980,1.000000,-0.000255,-0.000240,-0.000144,0.017750,-0.794885,-0.009217,0.606431,-171.507812,74.527392,7.794403
54363,-9.376079,-1.004769,-2.081975,-0.460396,0.629207,-0.187347,0.049897,-0.042453,-0.005362,-0.093757,-0.010040,-0.020842,1.000000,0.000249,-0.000212,-0.000027,0.017895,-0.794708,-0.009031,0.606661,-171.489003,74.560780,7.786248
54364,-9.309658,-0.825947,-2.146466,-0.377217,0.451259,-0.241203,0.097153,-0.030422,0.007120,-0.093093,-0.008252,-0.021483,1.000000,0.000486,-0.000152,0.000036,0.018224,-0.794588,-0.008671,0.606814,-171.458273,74.583249,7.760601
54365,-9.452195,-0.770742,-2.175732,-0.381930,0.390419,-0.098082,0.152280,-0.024747,0.014496,-0.094519,-0.007698,-0.021775,1.000000,0.000761,-0.000124,0.000072,0.018717,-0.794455,-0.008095,0.606980,-171.426466,74.608359,7.705010
54366,-9.389350,-0.324148,-1.906323,-0.624582,-0.049112,-0.246783,0.210014,-0.049483,0.024025,-0.093888,-0.003233,-0.019090,0.999999,0.001050,-0.000247,0.000120,0.019443,-0.794266,-0.007327,0.607214,-171.359931,74.643085,7.649438
54367,-9.278467,-0.048287,-1.814396,-0.682472,-0.318629,-0.388409,0.114234,-0.018034,0.010102,-0.092783,-0.000477,-0.018153,1.000000,0.000571,-0.000090,0.000051,0.019799,-0.794156,-0.006884,0.607352,-171.342822,74.664125,7.601192
54368,-9.514400,0.013224,-1.956475,-0.607011,-0.391917,-0.126114,0.048243,0.009760,-0.004622,-0.095145,0.000139,-0.019560,1.000000,0.000241,0.000049,-0.000023,0.019972,-0.794161,-0.006715,0.607341,-171.328466,74.662836,7.587635
54369,-9.487216,-0.100128,-2.356186,-0.211429,-0.286732,-0.043246,-0.008720,-0.004621,-0.015503,-0.094872,-0.000995,-0.023564,1.000000,-0.000044,-0.000023,-0.000078,0.019918,-0.794103,-0.006745,0.607420,-171.333375,74.674220,7.589632
54370,-9.351798,-0.241082,-2.603328,0.067695,-0.145963,-0.103636,-0.104392,-0.051602,-0.014533,-0.093511,-0.002418,-0.026056,1.000000,-0.000522,-0.000258,-0.000073,0.019512,-0.793936,-0.007085,0.607647,-171.366671,74.706835,7.617343
54371,-9.204670,-0.582962,-2.615871,0.126776,0.202877,-0.228777,-0.067566,-0.012215,-0.018361,-0.092046,-0.005830,-0.026162,1.000000,-0.000338,-0.000061,-0.000092,0.019232,-0.793860,-0.007306,0.607753,-171.397128,74.722284,7.627811
54372,-9.331889,-0.510201,-2.703057,0.178820,0.124814,-0.086258,0.043502,-0.016885,0.012267,-0.093316,-0.005102,-0.027040,1.000000,0.000218,-0.000084,0.000061,0.019333,-0.793785,-0.007087,0.607850,-171.412232,74.737533,7.586538
54373,-9.480357,-0.285658,-2.398083,-0.153606,-0.097031,-0.031248,0.075468,-0.018835,0.003575,-0.094801,-0.002849,-0.023991,1.000000,0.000377,-0.000094,0.000018,0.019555,-0.793676,-0.006786,0.607989,-171.404059,74.758545,7.552073
54374,-9.418461,-0.112553,-2.199762,-0.327561,-0.264250,-0.149256,0.100587,-0.039231,-0.000614,-0.094180,-0.001114,-0.022017,1.000000,0.000503,-0.000196,-0.000003,0.019921,-0.793527,-0.006447,0.608175,-171.352689,74.785350,7.545802
54375,-9.347630,-0.163945,-1.955050,-0.539323,-0.205332,-0.278839,0.052958,-0.040259,-0.014289,-0.093472,-0.001628,-0.019570,1.000000,0.000265,-0.000201,-0.000071,0.020107,-0.793353,-0.006288,0.608397,-171.313500,74.817006,7.556853
54376,-9.412338,-0.168573,-2.076835,-0.434884,-0.208118,-0.184534,0.077241,-0.019954,-0.024810,-0.094122,-0.001666,-0.020778,1.000000,0.000386,-0.000100,-0.000124,0.020455,-0.793264,-0.006114,0.608503,-171.231006,74.830793,7.596692
54377,-9.456402,0.054284,-1.839057,-0.674599,-0.428955,-0.212192,0.078033,-0.047378,-0.033061,-0.094560,0.000566,-0.018413,1.000000,0.000390,-0.000237,-0.000165,0.020796,-0.793066,-0.005953,0.608752,-171.135660,74.864926,7.651038
54378,-9.328516,-0.118807,-2.010857,-0.470305,-0.259389,-0.284287,-0.047883,0.005790,-0.054451,-0.093286,-0.001167,-0.020106,1.000000,-0.000239,0.000029,-0.000272,0.020739,-0.793067,-0.006275,0.608749,-171.071008,74.861484,7.746654
54379,-9.460521,-0.540548,-2.229748,-0.286306,0.148952,-0.083285,-0.053206,0.013483,-0.065497,-0.094608,-0.005380,-0.022290,1.000000,-0.000266,0.000067,-0.000327,0.020660,-0.793065,-0.006636,0.608750,-171.002907,74.858375,7.850685
54380,-9.384425,-0.821214,-2.031058,-0.454215,0.432416,-0.196362,0.058195,-0.005698,-0.052139,-0.093846,-0.008182,-0.020316,1.000000,0.000291,-0.000028,-0.000261,0.021016,-0.793020,-0.006626,0.608797,-170.878540,74.861570,7.945201
54381,-9.357125,-0.857524,-2.235194,-0.247623,0.460125,-0.168301,0.140739,0.013023,-0.031321,-0.093574,-0.008545,-0.022352,1.000000,0.000704,0.000065,-0.000157,0.021603,-0.792997,-0.006262,0.608810,-170.770267,74.861799,7.975680
54382,-9.433761,-0.543730,-2.496301,-0.019218,0.131416,-0.040003,0.206228,-0.003283,-0.017900,-0.094338,-0.005403,-0.024970,0.999999,0.001031,-0.000016,-0.000090,0.022442,-0.792944,-0.005665,0.608855,-170.633406,74.866696,7.995273
54383,-9.342504,-0.022582,-2.406567,-0.087359,-0.388225,-0.173388,0.125620,-0.048793,-0.035227,-0.093419,-0.000194,-0.024089,1.000000,0.000628,-0.000244,-0.000176,0.022980,-0.792734,-0.005370,0.609111,-170.503791,74.901449,8.056783
54384,-9.336903,-0.102507,-2.122811,-0.354325,-0.304837,-0.248372,-0.042354,-0.026311,-0.071422,-0.093367,-0.000996,-0.021240,1.000000,-0.000212,-0.000132,-0.000357,0.022995,-0.792637,-0.005745,0.609234,-170.388962,74.914245,8.201068
54385,-9.532493,-0.528949,-2.462881,-0.066231,0.099983,0.046298,-0.067671,0.011663,-0.073648,-0.095328,-0.005263,-0.024621,1.000000,-0.000338,0.000058,-0.000368,0.022885,-0.792631,-0.006183,0.609241,-170.310760,74.911142,8.324036
54386,-9.412311,-0.204445,-2.259699,-0.232824,-0.217621,-0.136011,-0.001370,-0.099806,-0.044385,-0.094112,-0.002024,-0.022644,1.000000,-0.000007,-0.000499,-0.000222,0.022978,-0.792306,-0.006335,0.609659,-170.202238,74.967937,8.437450
54387,-9.236417,-0.210575,-1.788545,-0.633443,-0.194459,-0.425699,-0.052677,-0.069533,-0.066828,-0.092359,-0.002080,-0.017917,1.000000,-0.000263,-0.000348,-0.000334,0.022905,-0.792050,-0.006709,0.609989,-170.099486,75.011245,8.576879
54388,-9.539711,-0.316372,-2.408247,-0.108060,-0.121636,0.030044,-0.148893,0.027972,-0.080579,-0.095402,-0.003143,-0.024067,1.000000,-0.000744,0.000140,-0.000403,0.022528,-0.792130,-0.007440,0.609891,-170.045199,74.992254,8.721618
54389,-9.505362,-0.144855,-1.874241,-0.611564,-0.279276,-0.146579,-0.175031,-0.140532,-0.065040,-0.095041,-0.001434,-0.018808,0.999999,-0.000875,-0.000703,-0.000325,0.021961,-0.791671,-0.008188,0.610498,-169.989118,75.075802,8.885264
54390,-9.266667,-0.472910,-2.025480,-0.393198,0.050880,-0.323740,-0.317697,-0.008099,-0.128030,-0.092669,-0.004702,-0.020251,0.999999,-0.001588,-0.000040,-0.000640,0.021061,-0.791655,-0.009626,0.610529,-169.917035,75.072341,9.148467
54391,-9.767932,-1.008047,-2.108613,-0.434815,0.560200,0.205896,-0.381735,-0.015137,-0.121946,-0.097684,-0.010061,-0.021074,0.999998,-0.001909,-0.000076,-0.000610,0.019855,-0.791594,-0.011216,0.610622,-169.904946,75.079490,9.389101
54392,-9.567297,-0.914048,-2.068309,-0.420902,0.472945,-0.002197,-0.188524,-0.082844,-0.073543,-0.095668,-0.009125,-0.020714,0.999999,-0.000943,-0.000414,-0.000368,0.019295,-0.791335,-0.012051,0.610959,-169.845598,75.123584,9.562506
54393,-9.596419,-0.046352,-1.843529,-0.640280,-0.391767,-0.069558,-0.161770,-0.095493,-0.037429,-0.095955,-0.000460,-0.018481,1.000000,-0.000809,-0.000477,-0.000187,0.018698,-0.791008,-0.012644,0.611389,-169.854615,75.184595,9.650753
54394,-9.694341,1.028541,-1.795798,-0.702449,-1.467837,-0.034393,-0.347075,-0.095991,-0.051629,-0.096932,0.010279,-0.018022,0.999998,-0.001735,-0.000480,-0.000258,0.017443,-0.790723,-0.013879,0.611768,-169.926665,75.238320,9.782126
54395,-9.627474,1.781308,-1.813962,-0.648862,-2.213126,-0.125955,-0.725772,-0.084938,-0.101192,-0.096258,0.017796,-0.018245,0.999993,-0.003629,-0.000425,-0.000506,0.014810,-0.790465,-0.016447,0.612107,-170.126656,75.287326,10.007064
54396,-9.426322,0.753495,-2.345099,-0.077523,-1.173993,-0.141156,-1.330727,0.029525,-0.279535,-0.094256,0.007510,-0.023487,0.999977,-0.006654,0.000148,-0.001398,0.010374,-0.790593,-0.021582,0.611873,-170.320029,75.248200,10.595706
54397,-9.660296,-2.134235,-3.895495,1.284072,1.729222,0.599416,-1.561004,0.124231,-0.410931,-0.096671,-0.021447,-0.038728,0.999967,-0.007805,0.000621,-0.002055,0.005404,-0.790934,-0.027914,0.611240,-170.415327,75.149923,11.424099
54398,-9.324793,-4.322103,-4.640508,1.965134,3.970327,0.557523,-0.989065,-0.081779,-0.264627,-0.093286,-0.043327,-0.046229,0.999987,-0.004945,-0.000409,-0.001323,0.002256,-0.790645,-0.031945,0.611436,-170.408364,75.175594,12.017761
54399,-8.770665,-3.345089,-3.768629,1.292641,3.009164,-0.242382,-0.205890,-0.119971,-0.007615,-0.087685,-0.033486,-0.037704,0.999999,-0.001029,-0.000600,-0.000038,0.001382,-0.790232,-0.032548,0.611941,-170.498164,75.253395,12.048451
54400,-9.056208,-1.284100,-2.588863,0.192252,0.901427,-0.351373,0.111710,-0.123639,0.107380,-0.090539,-0.012875,-0.025952,1.000000,0.000559,-0.000618,0.000537,0.001440,-0.789852,-0.031743,0.612474,-170.641611,75.338067,11.834195
54401,-9.282030,0.195242,-1.654250,-0.682256,-0.610126,-0.426900,0.123644,-0.141830,0.132824,-0.092810,0.001901,-0.016607,0.999999,0.000618,-0.000709,0.000664,0.001439,-0.789391,-0.030786,0.613116,-170.838764,75.440880,11.558601
54402,-9.428112,1.032460,-1.171139,-1.136151,-1.459532,-0.436880,-0.079156,-0.076771,0.078457,-0.094281,0.010283,-0.011752,1.000000,-0.000396,-0.000384,0.000392,0.000840,-0.789150,-0.030679,0.613434,-171.049439,75.496069,11.388034
54403,-9.439284,0.527332,-1.339291,-0.994796,-0.943395,-0.363230,-0.338089,0.016557,-0.037664,-0.094393,0.005268,-0.013394,0.999999,-0.001690,0.000083,-0.000188,-0.000438,-0.789148,-0.031808,0.613379,-171.197703,75.493943,11.436423
54404,-9.281639,-0.487371,-1.946820,-0.420081,0.104495,-0.326430,-0.330608,0.008060,-0.029732,-0.092818,-0.004892,-0.019456,0.999999,-0.001653,0.000040,-0.000149,-0.001684,-0.789147,-0.032899,0.613320,-171.345674,75.491438,11.479462
54405,-9.101079,-1.202019,-2.249260,-0.121991,0.845594,-0.399731,-0.132025,-0.006314,0.024318,-0.091009,-0.012046,-0.022488,1.000000,-0.000660,-0.000032,0.000122,-0.002343,-0.789083,-0.033151,0.613387,-171.504138,75.507816,11.395389
54406,-9.272588,-1.264259,-2.469251,0.046610,0.914138,-0.177407,0.194674,0.001358,0.084533,-0.092721,-0.012658,-0.024704,0.999999,0.000973,0.000007,0.000423,-0.001869,-0.789084,-0.032180,0.613438,-171.599493,75.518780,11.181919
54407,-9.214924,0.029209,-2.289089,-0.038410,-0.376545,-0.325204,0.505865,-0.085345,0.159254,-0.092140,0.000277,-0.022929,0.999996,0.002529,-0.000427,0.000796,-0.000436,-0.788802,-0.029944,0.613917,-171.663485,75.591053,10.817918
54408,-9.278367,1.498570,-1.705230,-0.543374,-1.860395,-0.459331,0.459003,-0.111573,0.190645,-0.092788,0.014936,-0.017070,0.999997,0.002295,-0.000558,0.000953,0.000738,-0.788468,-0.027743,0.614449,-171.807904,75.674617,10.397575
54409,-9.638606,2.276771,-1.734825,-0.567746,-2.643268,-0.128327,0.171481,-0.014130,0.087368,-0.096395,0.022740,-0.017336,1.000000,0.000857,-0.000071,0.000437,0.001081,-0.788388,-0.026814,0.614593,-171.932159,75.700367,10.169435
54410,-9.702307,1.746442,-1.988348,-0.357775,-2.106591,0.014450,-0.262293,0.000110,-0.091147,-0.097015,0.017483,-0.019906,0.999999,-0.001311,0.000001,-0.000456,0.000293,-0.788358,-0.027940,0.614582,-171.901071,75.697545,10.356825
54411,-9.513149,0.191938,-2.545790,0.163494,-0.529418,0.021481,-0.425582,0.030761,-0.161289,-0.095134,0.001942,-0.025447,0.999997,-0.002128,0.000154,-0.000806,-0.000952,-0.788379,-0.029823,0.614465,-171.831150,75.677895,10.682343
54412,-9.573395,-0.858213,-2.804040,0.346757,0.521936,0.180130,-0.349050,-0.003736,-0.158111,-0.095740,-0.008555,-0.028027,0.999998,-0.001745,-0.000019,-0.000791,-0.001877,-0.788323,-0.031479,0.614454,-171.700189,75.671637,11.024134
54413,-9.288072,-1.212433,-2.593138,0.197161,0.876771,-0.135134,-0.093069,-0.084602,-0.082481,-0.092875,-0.012098,-0.025965,1.000000,-0.000465,-0.000423,-0.000412,-0.002071,-0.788000,-0.032029,0.614838,-171.577174,75.723545,11.207793
54414,-9.312207,-1.018491,-2.074096,-0.293994,0.655289,-0.245004,0.048507,-0.058392,-0.061472,-0.093119,-0.010151,-0.020771,1.000000,0.000243,-0.000292,-0.000307,-0.001735,-0.787793,-0.032082,0.615102,-171.414213,75.756048,11.347477
54415,-9.546569,-0.727693,-1.868134,-0.527209,0.340760,-0.078091,0.089964,-0.051806,-0.043999,-0.095462,-0.007248,-0.018709,1.000000,0.000450,-0.000259,-0.000220,-0.001319,-0.787579,-0.031919,0.615385,-171.280508,75.792400,11.433814
54416,-9.447889,-0.578202,-1.586032,-0.762680,0.180765,-0.247225,0.093915,-0.053446,-0.033266,-0.094476,-0.005759,-0.015888,1.000000,0.000470,-0.000267,-0.000166,-0.000890,-0.787391,-0.031721,0.615636,-171.155097,75.824403,11.507888
54417,-9.315619,-0.816929,-1.513552,-0.808211,0.420519,-0.383535,-0.003578,-0.015653,-0.034190,-0.093156,-0.008154,-0.015143,1.000000,-0.000018,-0.000078,-0.000171,-0.000866,-0.787289,-0.031808,0.615763,-171.108262,75.841191,11.559834
54418,-9.345579,-1.362752,-1.856811,-0.509319,0.977260,-0.250771,-0.071262,-0.007123,-0.011869,-0.093456,-0.013629,-0.018567,1.000000,-0.000356,-0.000036,-0.000059,-0.001146,-0.787246,-0.032034,0.615805,-171.141353,75.848832,11.568034
54419,-9.459368,-1.747364,-2.155986,-0.266722,1.369895,-0.053925,-0.006319,0.033244,0.005975,-0.094597,-0.017477,-0.021544,1.000000,-0.000032,0.000166,0.000030,-0.001247,-0.787300,-0.031973,0.615740,-171.202302,75.841577,11.510352
54420,-9.604787,-1.649370,-2.312366,-0.146180,1.274517,0.120772,0.088606,0.019866,0.057634,-0.096045,-0.016511,-0.023121,1.000000,0.000443,0.000099,0.000288,-0.001107,-0.787352,-0.031433,0.615701,-171.309200,75.839993,11.347965
54421,-9.360305,-1.217439,-2.227206,-0.145505,0.858294,-0.153491,0.164976,-0.006409,0.104727,-0.093596,-0.012205,-0.022285,1.000000,0.000825,-0.000032,0.000524,-0.000841,-0.787299,-0.030458,0.615818,-171.478851,75.863552,11.076835
54422,-9.279388,-0.994769,-2.150121,-0.188021,0.644879,-0.259237,0.183805,0.017236,0.125673,-0.092789,-0.009986,-0.021502,0.999999,0.000919,0.000086,0.000628,-0.000536,-0.787353,-0.029357,0.615803,-171.683729,75.868940,10.757179
54423,-9.531859,-0.613384,-2.049931,-0.327091,0.258814,-0.052523,0.215391,0.028678,0.139893,-0.095317,-0.006178,-0.020492,0.999999,0.001077,0.000143,0.000699,-0.000173,-0.787412,-0.028089,0.615787,-171.915351,75.874962,10.392314
54424,-9.498124,-0.308248,-2.057746,-0.298283,-0.033918,-0.093965,0.204517,0.006997,0.143254,-0.094980,-0.003129,-0.020577,0.999999,0.001023,0.000035,0.000716,0.000157,-0.787434,-0.026855,0.615813,-172.145284,75.886944,10.034607
54425,-9.365005,-0.183216,-2.038382,-0.279088,-0.143108,-0.231794,0.193743,0.013855,0.136118,-0.093650,-0.001876,-0.020379,0.999999,0.000969,0.000069,0.000681,0.000445,-0.787444,-0.025668,0.615851,-172.376853,75.900400,9.682618
54426,-9.374130,-0.007774,-2.081685,-0.233092,-0.308080,-0.217973,0.214380,0.012951,0.131066,-0.093743,-0.000117,-0.020811,0.999999,0.001072,0.000065,0.000655,0.000853,-0.787481,-0.024452,0.615853,-172.576293,75.907406,9.350561
54427,-9.521148,0.391603,-1.986930,-0.345928,-0.705927,-0.110342,0.204109,0.016200,0.130878,-0.095216,0.003874,-0.019858,0.999999,0.001021,0.000081,0.000654,0.001197,-0.787495,-0.023254,0.615881,-172.791875,75.918539,9.008990
54428,-9.396261,0.398730,-1.794176,-0.503562,-0.704663,-0.277613,0.139752,-0.006812,0.103671,-0.093964,0.003951,-0.017942,1.000000,0.000699,-0.000034,0.000518,0.001393,-0.787466,-0.022375,0.615950,-172.967072,75.934267,8.746040
54429,-9.388706,0.155656,-2.018835,-0.291797,-0.447138,-0.222972,0.048555,0.023820,0.086506,-0.093890,0.001521,-0.020177,1.000000,0.000243,0.000119,0.000433,0.001261,-0.787498,-0.021829,0.615930,-173.174730,75.937532,8.504624
54430,-9.469189,-0.112860,-2.102138,-0.241057,-0.172184,-0.116838,0.038836,0.023427,0.072257,-0.094694,-0.001159,-0.021011,1.000000,0.000194,0.000117,0.000361,0.001159,-0.787558,-0.021385,0.615868,-173.345100,75.933516,8.306269
54431,-9.461305,-0.240833,-2.222926,-0.126518,-0.033446,-0.091651,0.019290,0.015803,0.069634,-0.094614,-0.002439,-0.022222,1.000000,0.000096,0.000079,0.000348,0.000962,-0.787563,-0.020996,0.615876,-173.529445,75.939903,8.106202
54432,-9.432277,-0.357489,-2.344045,-0.006012,0.094088,-0.087396,0.044255,0.001254,0.073780,-0.094322,-0.003605,-0.023441,1.000000,0.000221,0.000006,0.000369,0.000875,-0.787555,-0.020529,0.615902,-173.694547,75.948313,7.910085
54433,-9.400770,-0.252395,-2.323874,-0.012999,-0.003238,-0.125665,0.092082,-0.001864,0.076730,-0.094007,-0.002549,-0.023241,1.000000,0.000460,-0.000009,0.000384,0.000941,-0.787505,-0.019888,0.615986,-173.849302,75.964888,7.697542
54434,-9.387690,-0.219041,-2.310588,-0.021060,-0.031142,-0.142418,0.117647,0.003573,0.066248,-0.093877,-0.002208,-0.023105,1.000000,0.000588,0.000018,0.000331,0.001167,-0.787503,-0.019225,0.616010,-173.956255,75.971277,7.518038
54435,-9.463267,-0.205355,-2.120024,-0.221198,-0.046538,-0.115316,0.164918,-0.017752,0.068023,-0.094630,-0.002068,-0.021210,1.000000,0.000825,-0.000089,0.000340,0.001545,-0.787403,-0.018394,0.616163,-174.046285,75.996131,7.329220
54436,-9.282627,-0.156084,-1.948331,-0.340685,-0.089501,-0.333054,0.179963,-0.015000,0.073019,-0.092824,-0.001577,-0.019492,1.000000,0.000900,-0.000075,0.000365,0.001993,-0.787342,-0.017512,0.616265,-174.129175,76.013364,7.137747
54437,-9.457389,-0.194803,-1.995870,-0.335525,-0.050084,-0.150981,0.142654,0.012756,0.069773,-0.094574,-0.001967,-0.019954,1.000000,0.000713,0.000064,0.000349,0.002281,-0.787334,-0.016742,0.616295,-174.243907,76.020806,6.936650
54438,-9.582041,-0.185793,-2.156221,-0.209537,-0.055225,0.008329,0.103347,0.002615,0.062746,-0.095820,-0.001877,-0.021562,1.000000,0.000517,0.000013,0.000314,0.002460,-0.787327,-0.016137,0.616320,-174.351711,76.027242,6.764756
54439,-9.356707,-0.262736,-2.297009,-0.018548,0.036584,-0.174661,0.019999,-0.010074,0.063383,-0.093565,-0.002655,-0.022975,1.000000,0.000100,-0.000050,0.000317,0.002283,-0.787249,-0.015770,0.616429,-174.517380,76.047163,6.583608
54440,-9.485362,-0.661656,-2.407777,0.049717,0.439559,-0.014138,0.017413,0.016105,0.053387,-0.094854,-0.006640,-0.024071,1.000000,0.000087,0.000081,0.000267,0.002154,-0.787283,-0.015466,0.616394,-174.656274,76.045189,6.430428
54441,-9.584275,-0.799491,-2.121909,-0.251383,0.576402,0.016075,0.160020,-0.030699,0.083021,-0.095836,-0.008018,-0.021240,1.000000,0.000800,-0.000153,0.000415,0.002467,-0.787142,-0.014592,0.616595,-174.782875,76.077633,6.206867
54442,-9.333244,-0.187625,-1.899684,-0.389770,-0.025585,-0.294239,0.255001,-0.044042,0.112330,-0.093327,-0.001904,-0.019020,0.999999,0.001275,-0.000220,0.000562,0.003087,-0.786991,-0.013324,0.616813,-174.909509,76.112847,5.926113
54443,-9.451418,0.490976,-1.766420,-0.531871,-0.700375,-0.225343,0.164743,-0.009429,0.107812,-0.094516,0.004873,-0.017665,1.000000,0.000824,-0.000047,0.000539,0.003344,-0.786914,-0.012337,0.616930,-175.096317,76.134145,5.637782
54444,-9.589283,0.644028,-1.863696,-0.468292,-0.848612,-0.070868,0.004356,0.016270,0.051295,-0.095896,0.006416,-0.018629,1.000000,0.000022,0.000081,0.000256,0.003170,-0.786948,-0.012082,0.616893,-175.238764,76.131601,5.488707
54445,-9.473444,0.017834,-2.089282,-0.230672,-0.211764,-0.116631,-0.079325,0.006929,0.023957,-0.094735,0.000159,-0.020890,1.000000,-0.000397,0.000035,0.000120,0.002725,-0.786920,-0.012177,0.616929,-175.376000,76.139369,5.395559
54446,-9.310322,-0.527457,-2.222729,-0.070660,0.343714,-0.232620,-0.046959,-0.000319,0.037819,-0.093102,-0.005297,-0.022226,1.000000,-0.000235,-0.000002,0.000189,0.002389,-0.786902,-0.012133,0.616954,-175.513641,76.145514,5.281722
54447,-9.423740,-0.803222,-2.352555,0.024965,0.624057,-0.086615,0.065635,0.015516,0.055832,-0.094237,-0.008051,-0.023521,1.000000,0.000328,0.000078,0.000279,0.002417,-0.786900,-0.011656,0.616966,-175.643240,76.149672,5.110890
54448,-9.512949,-0.442332,-2.185475,-0.151463,0.264009,-0.046648,0.201924,-0.018816,0.078529,-0.095126,-0.004439,-0.021868,0.999999,0.001010,-0.000094,0.000393,0.002934,-0.786824,-0.010684,0.617078,-175.729688,76.168024,4.902922
54449,-9.337792,0.117287,-1.907905,-0.367343,-0.289022,-0.292722,0.205671,-0.036009,0.087752,-0.093375,0.001152,-0.019095,0.999999,0.001028,-0.000180,0.000439,0.003412,-0.786662,-0.009650,0.617299,-175.844420,76.202767,4.664758
54450,-9.429144,0.373370,-1.776191,-0.512540,-0.542436,-0.239491,0.138459,0.004817,0.070906,-0.094293,0.003713,-0.017757,1.000000,0.000692,0.000024,0.000355,0.003704,-0.786658,-0.008904,0.617314,-175.954408,76.207116,4.470035
54451,-9.665556,0.225075,-1.928752,-0.421662,-0.392926,0.029138,0.045599,0.015661,0.033549,-0.096657,0.002239,-0.019279,1.000000,0.000228,0.000078,0.000168,0.003721,-0.786654,-0.008576,0.617323,-176.044421,76.210024,4.351824
54452,-9.391652,0.004104,-1.992357,-0.296548,-0.163565,-0.218005,0.049723,-0.008634,0.031258,-0.093916,0.000031,-0.019928,1.000000,0.000249,-0.000043,0.000156,0.003786,-0.786608,-0.008260,0.617386,-176.110927,76.220363,4.254229
54453,-9.262534,-0.276971,-2.186655,-0.077854,0.124381,-0.292647,0.022527,0.009368,0.032994,-0.092626,-0.002783,-0.021863,1.000000,0.000113,0.000047,0.000165,0.003714,-0.786585,-0.008005,0.617419,-176.212274,76.226822,4.137987
54454,-9.533732,-0.479082,-2.418026,0.080050,0.325296,0.028867,0.103575,0.026296,0.032671,-0.095340,-0.004794,-0.024170,1.000000,0.000518,0.000131,0.000163,0.003987,-0.786645,-0.007517,0.617347,-176.256745,76.217180,4.031315
54455,-9.534475,-0.259887,-2.404056,0.069694,0.107560,0.022800,0.201097,-0.019257,0.042290,-0.095342,-0.002595,-0.024052,0.999999,0.001005,-0.000096,0.000211,0.004588,-0.786530,-0.006675,0.617499,-176.272895,76.240240,3.897428
54456,-9.327413,-0.130914,-2.071946,-0.200013,-0.018361,-0.259133,0.262784,-0.023283,0.045645,-0.093271,-0.001303,-0.020732,0.999999,0.001314,-0.000116,0.000228,0.005446,-0.786433,-0.005645,0.617626,-176.249088,76.259417,3.767149
54457,-9.416828,-0.117265,-2.056035,-0.232894,-0.033488,-0.176178,0.282919,-0.013153,0.039458,-0.094167,-0.001162,-0.020568,0.999999,0.001415,-0.000066,0.000197,0.006378,-0.786332,-0.004562,0.617754,-176.212997,76.278852,3.638791
54458,-9.391996,0.190516,-1.847578,-0.427139,-0.340359,-0.254385,0.304551,-0.031030,0.052289,-0.093918,0.001909,-0.018487,0.999999,0.001523,-0.000155,0.000261,0.007379,-0.786207,-0.003377,0.617910,-176.179928,76.302745,3.493436
54459,-9.482118,0.437483,-1.753400,-0.538203,-0.587023,-0.192807,0.213067,-0.006417,0.033018,-0.094821,0.004378,-0.017532,0.999999,0.001065,-0.000032,0.000165,0.008056,-0.786126,-0.002534,0.618008,-176.170365,76.318143,3.379003
54460,-9.470392,0.326397,-1.943678,-0.349654,-0.477732,-0.157520,0.099814,0.001681,0.003081,-0.094704,0.003272,-0.019434,1.000000,0.000499,0.000008,0.000015,0.008405,-0.786107,-0.002174,0.618029,-176.144436,76.321471,3.347048
54461,-9.451682,0.002470,-2.022970,-0.264634,-0.154777,-0.151801,0.083538,0.002687,-0.005214,-0.094517,0.000036,-0.020228,1.000000,0.000418,0.000013,-0.000026,0.008690,-0.786059,-0.001880,0.618088,-176.121357,76.330282,3.322954
54462,-9.382470,-0.278631,-2.215457,-0.058944,0.123458,-0.169145,0.123713,0.011084,-0.002595,-0.093826,-0.002771,-0.022151,1.000000,0.000619,0.000055,-0.000013,0.009150,-0.786067,-0.001468,0.618072,-176.069910,76.328022,3.303170
54463,-9.378938,-0.174678,-2.182829,-0.088559,0.018363,-0.181927,0.230426,-0.014564,0.017988,-0.093788,-0.001730,-0.021837,0.999999,0.001152,-0.000073,0.000090,0.009941,-0.785958,-0.000631,0.618200,-176.014362,76.347606,3.225872
54464,-9.364355,0.224689,-1.890626,-0.371591,-0.378484,-0.271473,0.286531,-0.016868,0.028198,-0.093642,0.002261,-0.018911,0.999999,0.001433,-0.000084,0.000141,0.010946,-0.785870,0.000405,0.618294,-175.937555,76.362569,3.136190
54465,-9.440195,0.493288,-1.821713,-0.458286,-0.647932,-0.218448,0.215292,-0.006905,0.013793,-0.094402,0.004946,-0.018215,0.999999,0.001076,-0.000035,0.000069,0.011689,-0.785783,0.001180,0.618390,-175.882313,76.377646,3.067516
54466,-9.570535,0.424071,-1.810783,-0.498909,-0.582682,-0.093352,0.123140,0.012787,-0.023049,-0.095706,0.004263,-0.018099,1.000000,0.000616,0.000064,-0.000115,0.012211,-0.785795,0.001510,0.618364,-175.783374,76.373582,3.096942
54467,-9.474289,0.198262,-1.976809,-0.309646,-0.361842,-0.144057,0.072764,-0.012902,-0.027310,-0.094741,0.002003,-0.019773,1.000000,0.000364,-0.000065,-0.000137,0.012520,-0.785697,0.001683,0.618483,-175.712352,76.390470,3.128580
54468,-9.301136,-0.136528,-1.907600,-0.329052,-0.026334,-0.322706,0.043609,0.001353,-0.031269,-0.093012,-0.001347,-0.019076,1.000000,0.000218,0.000007,-0.000156,0.012754,-0.785678,0.001735,0.618501,-175.637550,76.392564,3.180052
54469,-9.533482,-0.598225,-2.471743,0.171606,0.416667,0.043863,0.021111,0.064844,-0.052522,-0.095344,-0.005955,-0.024687,1.000000,0.000106,0.000324,-0.000263,0.012938,-0.785824,0.001654,0.618313,-175.550749,76.363945,3.258382
54470,-9.683995,-0.694988,-2.526864,0.190390,0.504980,0.205124,0.131415,-0.020767,-0.036407,-0.096839,-0.006916,-0.025283,1.000000,0.000657,-0.000104,-0.000182,0.013534,-0.785731,0.001956,0.618418,-175.409464,76.378401,3.326502
54471,-9.531732,-0.249945,-2.262702,-0.034838,0.062615,-0.013143,0.193628,-0.024667,-0.036665,-0.095315,-0.002460,-0.022641,1.000000,0.000968,-0.000123,-0.000183,0.014348,-0.785588,0.002464,0.618579,-175.243846,76.401431,3.384160
54472,-9.498039,0.016423,-2.175686,-0.114366,-0.207700,-0.071517,0.148634,-0.019722,-0.045085,-0.094978,0.000202,-0.021766,1.000000,0.000743,-0.000099,-0.000225,0.015038,-0.785496,0.002785,0.618678,-175.071891,76.414780,3.473673
54473,-9.468535,0.190007,-2.052436,-0.227700,-0.383052,-0.132647,0.085820,-0.022476,-0.052539,-0.094683,0.001934,-0.020534,1.000000,0.000429,-0.000112,-0.000263,0.015478,-0.785367,0.002898,0.618830,-174.930325,76.435650,3.570114
54474,-9.467808,-0.043491,-2.091774,-0.181823,-0.156614,-0.119432,-0.029218,-0.008846,-0.079145,-0.094677,-0.000400,-0.020922,1.000000,-0.000146,-0.000044,-0.000396,0.015575,-0.785323,0.002536,0.618886,-174.781520,76.440932,3.740625
54475,-9.456388,-0.354756,-2.150033,-0.112321,0.148070,-0.110254,-0.041860,-0.022499,-0.074785,-0.094563,-0.003517,-0.021510,1.000000,-0.000209,-0.000112,-0.000374,0.015582,-0.785204,0.002167,0.619038,-174.660021,76.460540,3.891667
54476,-9.272832,-0.740096,-1.960810,-0.241631,0.536520,-0.324184,-0.015536,-0.033558,-0.059134,-0.092727,-0.007375,-0.019623,1.000000,-0.000078,-0.000168,-0.000296,0.015671,-0.785081,0.001923,0.619192,-174.544772,76.480819,4.019579
54477,-9.388997,-0.970008,-2.072290,-0.152241,0.757947,-0.179884,0.058863,0.007431,-0.037112,-0.093893,-0.009677,-0.020722,1.000000,0.000294,0.000037,-0.000186,0.015958,-0.785046,0.002016,0.619228,-174.460551,76.485279,4.072855
54478,-9.490465,-0.646798,-1.963406,-0.286785,0.433257,-0.113601,0.132677,-0.030900,-0.004996,-0.094902,-0.006453,-0.019653,1.000000,0.000663,-0.000154,-0.000025,0.016461,-0.784920,0.002444,0.619374,-174.389047,76.506963,4.068430
54479,-9.439200,-0.283049,-1.772686,-0.464729,0.074869,-0.215841,0.096404,-0.014037,-0.005034,-0.094391,-0.002820,-0.017735,1.000000,0.000482,-0.000070,-0.000025,0.016797,-0.784815,0.002776,0.619497,-174.353596,76.525427,4.049362
54480,-9.556411,-0.298189,-1.912093,-0.355365,0.082616,-0.069131,0.060770,0.016637,-0.012639,-0.095566,-0.002970,-0.019114,1.000000,0.000304,0.000083,-0.000063,0.017041,-0.784841,0.002955,0.619456,-174.316194,76.519577,4.052236
54481,-9.498208,-0.095537,-1.937102,-0.320868,-0.120191,-0.124548,0.060362,-0.018273,-0.004375,-0.094980,-0.000947,-0.019380,1.000000,0.000302,-0.000091,-0.000022,0.017234,-0.784725,0.003178,0.619596,-174.301698,76.540551,4.032839
54482,-9.331425,-0.034715,-1.877273,-0.340405,-0.176391,-0.301964,-0.020769,0.000755,-0.007759,-0.093314,-0.000345,-0.018772,1.000000,-0.000104,0.000004,-0.000039,0.017143,-0.784709,0.003122,0.619620,-174.318878,76.544033,4.027628
54483,-9.430207,-0.319124,-2.119016,-0.120331,0.100026,-0.143334,-0.030583,0.022836,-0.009356,-0.094305,-0.003190,-0.021179,1.000000,-0.000153,0.000114,-0.000047,0.016994,-0.784728,0.003047,0.619600,-174.354446,76.541324,4.010337
54484,-9.443621,-0.349177,-2.131015,-0.110864,0.130023,-0.126825,0.009275,-0.012810,-0.004871,-0.094435,-0.003488,-0.021316,1.000000,0.000046,-0.000064,-0.000024,0.017012,-0.784667,0.003095,0.619676,-174.358116,76.552702,4.001318
54485,-9.355329,-0.350874,-2.076429,-0.141088,0.135576,-0.225270,0.039091,0.001508,0.000486,-0.093553,-0.003505,-0.020764,1.000000,0.000195,0.000008,0.000002,0.017107,-0.784615,0.003272,0.619739,-174.371986,76.562677,3.965272
54486,-9.500183,-0.410015,-2.171582,-0.080207,0.189188,-0.061014,0.073379,0.008131,-0.000435,-0.095003,-0.004092,-0.021713,1.000000,0.000367,0.000041,-0.000002,0.017362,-0.784613,0.003538,0.619733,-174.354462,76.562365,3.940281
54487,-9.513747,-0.259294,-2.080118,-0.174199,0.041353,-0.072388,0.105982,-0.011970,0.011804,-0.095136,-0.002588,-0.020808,1.000000,0.000530,-0.000060,0.000059,0.017685,-0.784512,0.003965,0.619848,-174.353614,76.580630,3.879943
54488,-9.304350,-0.161634,-1.956821,-0.246434,-0.048800,-0.306737,0.094183,-0.010043,0.013747,-0.093042,-0.001614,-0.019574,1.000000,0.000471,-0.000050,0.000069,0.017979,-0.784452,0.004349,0.619914,-174.353825,76.591479,3.824468
54489,-9.458541,-0.179598,-1.935836,-0.299384,-0.031316,-0.161102,0.109309,-0.005224,0.023786,-0.094585,-0.001797,-0.019362,1.000000,0.000547,-0.000026,0.000119,0.018278,-0.784371,0.004834,0.620003,-174.381427,76.606565,3.732923
54490,-9.490126,0.055007,-1.879902,-0.366450,-0.263283,-0.148529,0.085213,-0.014990,0.016809,-0.094900,0.000550,-0.018806,1.000000,0.000426,-0.000075,0.000084,0.018526,-0.784296,0.005202,0.620088,-174.393090,76.620399,3.670966
54491,-9.488099,0.002585,-1.850763,-0.390872,-0.208554,-0.155924,-0.016401,0.012564,-0.007119,-0.094882,0.000028,-0.018502,1.000000,-0.000082,0.000063,-0.000036,0.018427,-0.784282,0.005178,0.620109,-174.423090,76.623635,3.651007
54492,-9.608103,-0.308887,-2.156463,-0.112216,0.090574,0.038231,-0.045131,0.011081,-0.018053,-0.096083,-0.003085,-0.021559,1.000000,-0.000226,0.000055,-0.000090,0.018272,-0.784301,0.005008,0.620091,-174.432022,76.620653,3.668623
54493,-9.369712,-0.378541,-2.050767,-0.155849,0.168184,-0.216445,0.014048,-0.017892,-0.003423,-0.093695,-0.003782,-0.020516,1.000000,0.000070,-0.000089,-0.000017,0.018282,-0.784190,0.005090,0.620231,-174.446289,76.641472,3.646899
54494,-9.240654,-0.479987,-2.097387,-0.076016,0.270495,-0.329009,0.034561,0.000110,0.008685,-0.092406,-0.004800,-0.020975,1.000000,0.000173,0.000001,0.000043,0.018357,-0.784166,0.005270,0.620257,-174.471193,76.646228,3.601169
54495,-9.467821,-0.512124,-2.056821,-0.164861,0.302202,-0.116610,0.113376,0.002613,0.024413,-0.094678,-0.005121,-0.020570,1.000000,0.000567,0.000013,0.000122,0.018670,-0.784109,0.005771,0.620316,-174.499961,76.656848,3.506025
54496,-9.566548,-0.251307,-1.990743,-0.259273,0.043241,-0.041507,0.148490,0.000642,0.024300,-0.095665,-0.002510,-0.019909,1.000000,0.000742,0.000003,0.000121,0.019143,-0.784075,0.006366,0.620338,-174.497333,76.662151,3.421506
54497,-9.425220,0.086386,-1.886126,-0.337166,-0.286896,-0.210410,0.143470,-0.018136,0.034438,-0.094251,0.000861,-0.018869,1.000000,0.000717,-0.000091,0.000172,0.019544,-0.783950,0.006997,0.620477,-174.528129,76.685133,3.306548
54498,-9.383966,0.161357,-1.919438,-0.296773,-0.360779,-0.244466,0.058075,0.006284,0.023863,-0.093840,0.001608,-0.019191,1.000000,0.000290,0.000031,0.000119,0.019664,-0.783942,0.007310,0.620479,-174.577742,76.687175,3.221590
54499,-9.433841,-0.067894,-1.940337,-0.278902,-0.130502,-0.186054,0.007018,0.013056,0.015677,-0.094340,-0.000686,-0.019397,1.000000,0.000035,0.000065,0.000078,0.019587,-0.783927,0.007448,0.620499,-174.649200,76.691339,3.145217
54500,-9.434912,-0.416737,-2.076047,-0.135229,0.214923,-0.146420,0.018189,0.015727,0.017442,-0.094350,-0.004174,-0.020753,1.000000,0.000091,0.000079,0.000087,0.019570,-0.783952,0.007613,0.620466,-174.708344,76.687611,3.073950
54501,-9.439719,-0.478304,-2.169045,-0.042796,0.275949,-0.119192,0.057079,0.007977,0.038348,-0.094397,-0.004795,-0.021688,1.000000,0.000285,0.000040,0.000192,0.019619,-0.783916,0.007994,0.620506,-174.804585,76.695810,2.942627
54502,-9.319583,-0.155981,-2.096386,-0.095540,-0.037812,-0.259508,0.069241,-0.032964,0.053949,-0.093192,-0.001578,-0.020980,1.000000,0.000346,-0.000165,0.000270,0.019691,-0.783784,0.008457,0.620664,-174.912136,76.721690,2.791570
54503,-9.509010,-0.217662,-1.852384,-0.371001,0.036157,-0.129660,0.017212,0.010601,0.028773,-0.095091,-0.002189,-0.018519,1.000000,0.000086,0.000053,0.000144,0.019614,-0.783759,0.008676,0.620694,-175.008853,76.727755,2.683233
54504,-9.826091,-0.400111,-2.098178,-0.198311,0.207386,0.238789,0.005240,0.016829,0.007715,-0.098263,-0.004004,-0.020974,1.000000,0.000026,0.000084,0.000039,0.019576,-0.783790,0.008764,0.620656,-175.052209,76.722814,2.635820
54505,-9.435391,-0.215815,-1.939957,-0.266416,0.036633,-0.181265,0.016209,-0.044710,0.023298,-0.094349,-0.002168,-0.019421,1.000000,0.000081,-0.000224,0.000116,0.019515,-0.783594,0.008953,0.620902,-175.124654,76.760145,2.553001
54506,-9.306016,-0.337748,-1.821047,-0.345358,0.167427,-0.331922,-0.031734,0.008746,0.012060,-0.093061,-0.003386,-0.018206,1.000000,-0.000159,0.000044,0.000060,0.019319,-0.783603,0.008942,0.620897,-175.198153,76.760004,2.496392
54507,-9.568164,-0.416226,-2.089268,-0.140650,0.235242,-0.014069,0.017139,0.012054,0.021110,-0.095682,-0.004171,-0.020887,1.000000,0.000086,0.000060,0.000106,0.019266,-0.783583,0.009131,0.620921,-175.276529,76.764794,2.406925
54508,-9.462309,-0.086734,-1.860454,-0.350278,-0.080275,-0.175521,0.034653,-0.022502,0.035629,-0.094621,-0.000881,-0.018615,1.000000,0.000173,-0.000113,0.000178,0.019258,-0.783487,0.009415,0.621038,-175.363102,76.783563,2.297816
54509,-9.378099,0.027023,-1.830609,-0.361607,-0.187735,-0.266243,0.005771,0.001496,0.032108,-0.093781,0.000256,-0.018305,1.000000,0.000029,0.000007,0.000161,0.019127,-0.783435,0.009611,0.621105,-175.472747,76.794825,2.182921
54510,-9.408862,0.067385,-1.945518,-0.257790,-0.228981,-0.210741,-0.030362,0.002177,0.030793,-0.094089,0.000656,-0.019454,1.000000,-0.000152,0.000011,0.000154,0.018879,-0.783422,0.009677,0.621127,-175.589978,76.799189,2.080593
54511,-9.394447,0.078954,-1.769666,-0.423579,-0.227998,-0.264798,-0.053224,-0.013706,0.032362,-0.093943,0.000770,-0.017703,1.000000,-0.000266,-0.000069,0.000162,0.018517,-0.783328,0.009689,0.621257,-175.731741,76.819063,1.967450
54512,-9.538417,0.199244,-2.062365,-0.175669,-0.356335,-0.059913,-0.101760,0.021522,0.020543,-0.095387,0.001972,-0.020614,1.000000,-0.000509,0.000108,0.000103,0.018020,-0.783383,0.009494,0.621206,-175.868573,76.811833,1.887014
54513,-9.578424,0.296991,-1.994858,-0.251993,-0.446072,-0.037648,-0.181348,-0.018428,0.005590,-0.095782,0.002949,-0.019960,1.000000,-0.000907,-0.000092,0.000028,0.017239,-0.783286,0.009003,0.621357,-176.018306,76.833222,1.841108
54514,-9.498209,-0.105587,-2.133405,-0.082854,-0.043414,-0.077710,-0.305066,0.001396,-0.025021,-0.094982,-0.001077,-0.021332,0.999999,-0.001525,0.000007,-0.000125,0.016088,-0.783296,0.007997,0.621389,-176.156875,76.835623,1.878526
54515,-9.523277,-0.440730,-2.166096,-0.044073,0.294915,-0.040783,-0.237450,-0.013498,-0.028151,-0.095232,-0.004420,-0.021662,0.999999,-0.001187,-0.000067,-0.000141,0.015191,-0.783219,0.007200,0.621519,-176.257568,76.852863,1.916006
54516,-9.498768,-0.099895,-2.131190,-0.080424,-0.040995,-0.077679,-0.181015,-0.031426,-0.014637,-0.094984,-0.001011,-0.021326,1.000000,-0.000905,-0.000157,-0.000073,0.014495,-0.783114,0.006617,0.621674,-176.345259,76.874446,1.932677
54517,-9.351302,0.089449,-1.901810,-0.270441,-0.217972,-0.275860,-0.268438,-0.038449,-0.022716,-0.093509,0.000880,-0.019037,0.999999,-0.001342,-0.000192,-0.000114,0.013462,-0.782960,0.005743,0.621900,-176.472936,76.906142,1.960650
54518,-9.569902,-0.394657,-2.153546,-0.061406,0.260637,0.000815,-0.312946,0.022271,-0.048224,-0.095702,-0.003957,-0.021519,0.999999,-0.001565,0.000111,-0.000241,0.012352,-0.783030,0.004622,0.621845,-176.562000,76.895860,2.053518
54519,-9.566484,-0.686050,-2.235359,0.025910,0.553115,0.019835,-0.194275,-0.018074,-0.031346,-0.095664,-0.006867,-0.022356,1.000000,-0.000971,-0.000090,-0.000157,0.011636,-0.782931,0.003946,0.621987,-176.629066,76.915622,2.100076
54520,-9.288492,-0.440366,-2.052583,-0.091732,0.316641,-0.295628,-0.109902,-0.038782,-0.003398,-0.092881,-0.004413,-0.020541,1.000000,-0.000550,-0.000194,-0.000017,0.011183,-0.782796,0.003628,0.622167,-176.703150,76.941811,2.088883
54521,-9.343652,-0.347878,-1.858267,-0.291775,0.231359,-0.286967,-0.080218,-0.005928,0.006447,-0.093436,-0.003489,-0.018584,1.000000,-0.000401,-0.000030,0.000032,0.010796,-0.782728,0.003454,0.622261,-176.799182,76.955828,2.038570
54522,-9.499189,-0.324478,-1.934394,-0.252741,0.208055,-0.118638,-0.050423,0.007358,0.009265,-0.094992,-0.003254,-0.019340,1.000000,-0.000252,0.000037,0.000046,0.010536,-0.782733,0.003374,0.622260,-176.877115,76.956013,1.988446
54523,-9.392964,-0.407056,-1.846349,-0.311501,0.296598,-0.240986,-0.049332,-0.006424,0.011948,-0.093929,-0.004081,-0.018466,1.000000,-0.000247,-0.000032,0.000060,0.010254,-0.782661,0.003317,0.622355,-176.968798,76.970460,1.924412
54524,-9.328936,-0.750796,-1.864723,-0.273012,0.644263,-0.295318,-0.033666,0.017631,0.033585,-0.093290,-0.007527,-0.018638,1.000000,-0.000168,0.000088,0.000168,0.009983,-0.782696,0.003384,0.622315,-177.098617,76.965450,1.811178
54525,-9.351548,-0.944419,-2.002314,-0.140120,0.841041,-0.240559,0.018071,0.009874,0.064631,-0.093513,-0.009473,-0.020019,1.000000,0.000090,0.000049,0.000323,0.009802,-0.782670,0.003743,0.622348,-177.283538,76.971997,1.611767
54526,-9.407746,-1.028850,-1.914624,-0.236410,0.933796,-0.205287,0.154719,0.022412,0.097675,-0.094075,-0.010320,-0.019144,1.000000,0.000774,0.000112,0.000488,0.010069,-0.782710,0.004648,0.622288,-177.464336,76.965780,1.335417
54527,-9.493605,-0.679210,-1.862110,-0.312373,0.593159,-0.137569,0.235657,0.022292,0.126403,-0.094934,-0.006830,-0.018619,0.999999,0.001178,0.000111,0.000632,0.010548,-0.782709,0.005925,0.622270,-177.677659,76.966395,0.978822
54528,-9.349112,-0.144000,-1.882332,-0.271925,0.067227,-0.278992,0.275386,0.014865,0.146111,-0.093491,-0.001482,-0.018818,0.999999,0.001377,0.000074,0.000731,0.011137,-0.782715,0.007394,0.622237,-177.908119,76.965113,0.580527
54529,-9.350665,0.399387,-1.695840,-0.467650,-0.460358,-0.323763,0.194128,0.019517,0.144118,-0.093511,0.003943,-0.016945,0.999999,0.000971,0.000098,0.000721,0.011399,-0.782704,0.008611,0.622230,-178.188491,76.966999,0.179522
54530,-9.562707,0.152712,-1.824540,-0.387450,-0.207135,-0.086198,0.085029,0.073864,0.105728,-0.095635,0.001484,-0.018209,1.000000,0.000425,0.000369,0.000529,0.011366,-0.782903,0.009333,0.621970,-178.431959,76.930435,-0.120194
54531,-9.611492,-0.149728,-1.958484,-0.262776,0.101091,-0.006588,0.104757,0.037054,0.106415,-0.096118,-0.001538,-0.019568,1.000000,0.000524,0.000185,0.000532,0.011395,-0.782952,0.010125,0.621895,-178.670847,76.920985,-0.426068
54532,-9.307758,0.067525,-1.721154,-0.433539,-0.099626,-0.357350,0.154164,0.022517,0.126457,-0.093080,0.000630,-0.017201,0.999999,0.000771,0.000113,0.000632,0.011570,-0.782986,0.011140,0.621832,-178.921067,76.913511,-0.773421
54533,-9.343990,0.368118,-1.752470,-0.422823,-0.390326,-0.316074,0.127126,0.054662,0.123964,-0.093447,0.003634,-0.017497,1.000000,0.000636,0.000273,0.000620,0.011630,-0.783086,0.012072,0.621688,-179.190185,76.893554,-1.123503
54534,-9.503543,0.637938,-1.815677,-0.411534,-0.650971,-0.146880,0.070213,0.058913,0.109761,-0.095044,0.006334,-0.018127,1.000000,0.000351,0.000295,0.000549,0.011527,-0.783237,0.012763,0.621485,-179.447206,76.864397,-1.428504
54535,-9.463288,0.567903,-1.820860,-0.398037,-0.570887,-0.184213,-0.045878,0.042996,0.084857,-0.094639,0.005635,-0.018190,1.000000,-0.000229,0.000215,0.000424,0.011031,-0.783312,0.013004,0.621395,-179.717838,76.850276,-1.678367
54536,-9.442589,0.096428,-2.075565,-0.133871,-0.099020,-0.145629,-0.060005,0.071368,0.065899,-0.094434,0.000927,-0.020722,1.000000,-0.000300,0.000357,0.000329,0.010553,-0.783512,0.013119,0.621149,-179.939919,76.813292,-1.870917
54537,-9.539171,0.191952,-2.082306,-0.155300,-0.184920,-0.049987,-0.054935,0.028227,0.068815,-0.095395,0.001881,-0.020810,1.000000,-0.000275,0.000141,0.000344,0.010072,-0.783542,0.013269,0.621116,179.824555,76.807177,-2.079407
54538,-9.371688,0.287393,-1.890887,-0.308728,-0.266951,-0.256538,-0.074113,0.038712,0.062506,-0.093721,0.002838,-0.018892,1.000000,-0.000371,0.000194,0.000313,0.009552,-0.783640,0.013325,0.620998,179.604042,76.788565,-2.262072
54539,-9.552547,0.205916,-1.966026,-0.276547,-0.178102,-0.063297,-0.112074,0.053345,0.041045,-0.095531,0.002029,-0.019636,1.000000,-0.000560,0.000267,0.000205,0.008931,-0.783753,0.013189,0.620868,179.404588,76.767829,-2.399877
54540,-9.447795,0.172440,-1.942921,-0.277271,-0.137261,-0.170604,-0.123669,0.036121,0.048803,-0.094482,0.001689,-0.019413,1.000000,-0.000618,0.000181,0.000244,0.008259,-0.783846,0.013038,0.620763,179.190086,76.750495,-2.547227
54541,-9.428129,0.008252,-2.051634,-0.163989,0.031594,-0.165357,-0.159445,0.048489,0.032176,-0.094286,0.000051,-0.020494,1.000000,-0.000797,0.000242,0.000161,0.007480,-0.783945,0.012720,0.620655,178.985873,76.732407,-2.662050
54542,-9.599044,-0.166405,-2.215302,-0.043872,0.210082,0.037736,-0.129866,0.069738,0.017809,-0.095998,-0.001687,-0.022118,1.000000,-0.000649,0.000349,0.000089,0.006878,-0.784144,0.012430,0.620416,178.845554,76.695927,-2.729556
54543,-9.641108,-0.191104,-2.251249,-0.022265,0.239431,0.086695,-0.080056,0.053789,0.008679,-0.096417,-0.001924,-0.022486,1.000000,-0.000400,0.000269,0.000043,0.006484,-0.784257,0.012266,0.620280,178.745157,76.674923,-2.784469
54544,-9.590688,-0.067657,-2.263845,-0.006660,0.118018,0.041088,-0.044085,0.058274,-0.002070,-0.095913,-0.000681,-0.022610,1.000000,-0.000220,0.000291,-0.000010,0.006280,-0.784419,0.012163,0.620081,178.702183,76.645211,-2.802457
54545,-9.394185,0.018106,-2.054459,-0.170095,0.037310,-0.198036,-0.018000,0.034795,-0.000379,-0.093945,0.000179,-0.020528,1.000000,-0.000090,0.000174,-0.000002,0.006159,-0.784472,0.012155,0.620014,178.658853,76.635119,-2.835301
54546,-9.460169,0.046020,-2.047597,-0.196414,0.011674,-0.135351,-0.022715,0.055131,-0.003059,-0.094607,0.000459,-0.020450,1.000000,-0.000114,0.000276,-0.000015,0.006042,-0.784623,0.012114,0.619826,178.630550,76.607215,-2.850798
54547,-9.470118,-0.109558,-2.109174,-0.138551,0.167062,-0.112345,-0.015163,0.059661,-0.009481,-0.094708,-0.001093,-0.021063,1.000000,-0.000076,0.000298,-0.000047,0.005959,-0.784754,0.012080,0.619661,178.612468,76.582981,-2.859363
54548,-9.482033,-0.191964,-2.098329,-0.155079,0.250410,-0.103824,-0.029176,0.064130,-0.012399,-0.094827,-0.001917,-0.020953,1.000000,-0.000146,0.000321,-0.000062,0.005846,-0.784933,0.011983,0.619437,178.603525,76.550050,-2.851152
54549,-9.688002,-0.490543,-2.083044,-0.216343,0.551270,0.091169,-0.026513,0.097047,-0.038737,-0.096891,-0.004889,-0.020783,1.000000,-0.000133,0.000485,-0.000194,0.005807,-0.785182,0.011800,0.619126,178.651415,76.504782,-2.785219
54550,-9.683693,-0.651845,-2.005915,-0.294112,0.711957,0.068057,0.070330,0.077980,-0.026063,-0.096846,-0.006499,-0.020024,1.000000,0.000352,0.000390,-0.000130,0.006126,-0.785402,0.011957,0.618841,178.732549,76.464094,-2.742999
54551,-9.515710,-0.453886,-2.105253,-0.169345,0.507240,-0.070980,0.151373,0.085458,-0.009542,-0.095166,-0.004518,-0.021015,1.000000,0.000757,0.000427,-0.000048,0.006697,-0.785607,0.012438,0.618564,178.812336,76.425079,-2.749123
54552,-9.426529,-0.159880,-1.944210,-0.320399,0.214301,-0.194144,0.197105,0.087257,0.011421,-0.094274,-0.001585,-0.019403,0.999999,0.000986,0.000436,0.000057,0.007397,-0.785848,0.013135,0.618236,178.877073,76.378618,-2.798491
54553,-9.289313,0.060805,-1.962557,-0.284308,-0.010090,-0.322391,0.224146,0.104037,0.007618,-0.092903,0.000626,-0.019577,0.999999,0.001121,0.000520,0.000038,0.008201,-0.786106,0.013908,0.617881,178.958938,76.328773,-2.845418
54554,-9.590572,0.103894,-2.397760,0.052757,-0.066546,0.073257,0.206351,0.172057,-0.019057,-0.095926,0.001073,-0.023894,0.999999,0.001032,0.000860,-0.000095,0.009025,-0.786608,0.014518,0.617216,179.103680,76.234065,-2.817909
54555,-9.392321,0.260128,-2.388979,0.073999,-0.229379,-0.120811,0.250292,0.095928,0.000074,-0.093935,0.002631,-0.023841,0.999999,0.001251,0.000480,0.000000,0.009956,-0.786838,0.015341,0.616889,179.217413,76.188935,-2.847473
54556,-9.128533,0.396863,-2.354032,0.087869,-0.372157,-0.384917,0.206106,0.111178,-0.003534,-0.091298,0.003994,-0.023485,0.999999,0.001031,0.000556,-0.000018,0.010736,-0.787149,0.016008,0.616461,179.322268,76.128965,-2.860885
54557,-9.471369,0.418258,-2.432165,0.070573,-0.396533,-0.033374,0.180913,0.116025,-0.023726,-0.094727,0.004216,-0.024263,0.999999,0.000905,0.000580,-0.000119,0.011465,-0.787445,0.016526,0.616057,179.451010,76.072391,-2.834035
54558,-9.538532,0.360519,-2.592701,0.201641,-0.350072,0.070250,0.164556,0.098980,-0.038488,-0.095397,0.003645,-0.025877,1.000000,0.000823,0.000495,-0.000192,0.012190,-0.787722,0.016927,0.615678,179.611434,76.019589,-2.765664
54559,-10.017672,0.121873,-2.532775,0.024563,-0.113842,0.520267,0.189361,0.180442,-0.114587,-0.100199,0.001300,-0.025236,0.999999,0.000947,0.000902,-0.000573,0.013226,-0.788222,0.017117,0.615011,179.951744,75.926147,-2.525700
54560,-9.796860,0.555851,-2.200726,-0.277379,-0.550768,0.224759,0.253963,0.100167,-0.115639,-0.097976,0.005643,-0.021951,0.999999,0.001270,0.000501,-0.000578,0.014540,-0.788501,0.017488,0.614613,-179.663607,75.872380,-2.278913
54561,-9.600552,1.118740,-2.022050,-0.440156,-1.123816,-0.011967,0.164841,0.134405,-0.178421,-0.096009,0.011290,-0.020147,0.999999,0.000824,0.000672,-0.000892,0.015679,-0.788864,0.017349,0.614123,-179.199158,75.804120,-1.896278
54562,-9.594799,1.014220,-2.460863,-0.023780,-1.060902,0.087742,-0.005266,0.153134,-0.265967,-0.095953,0.010269,-0.024535,0.999999,-0.000026,0.000766,-0.001330,0.016428,-0.789335,0.016336,0.613525,-178.631882,75.717400,-1.307689
54563,-9.193804,0.892921,-2.488590,0.098844,-0.966250,-0.295704,0.014319,0.046954,-0.259017,-0.091932,0.009050,-0.024864,0.999999,0.000072,0.000235,-0.001295,0.017226,-0.789446,0.015411,0.613385,-178.076632,75.696145,-0.742079
54564,-8.889100,1.145621,-2.420951,0.093998,-1.237988,-0.612249,-0.071093,0.033388,-0.255154,-0.088880,0.011561,-0.024199,0.999999,-0.000355,0.000167,-0.001276,0.017692,-0.789553,0.014228,0.613263,-177.570818,75.675479,-0.177800
54565,-9.220987,0.640049,-2.395916,0.007495,-0.752138,-0.293714,-0.182332,0.066083,-0.298909,-0.092208,0.006516,-0.023935,0.999998,-0.000912,0.000330,-0.001495,0.017832,-0.789739,0.012546,0.613055,-177.045599,75.639570,0.473280
54566,-9.609093,0.183101,-2.440426,-0.031792,-0.321921,0.097872,-0.172438,0.053780,-0.317434,-0.096094,0.001963,-0.024380,0.999998,-0.000862,0.000269,-0.001587,0.018088,-0.789917,0.010808,0.612851,-176.465622,75.602621,1.174226
54567,-9.245000,0.286623,-2.209754,-0.169339,-0.437719,-0.314536,-0.154033,-0.014904,-0.300997,-0.092444,0.002988,-0.022107,0.999999,-0.000770,-0.000075,-0.001505,0.018350,-0.789849,0.009197,0.612957,-175.913100,75.609744,1.836908
54568,-9.144879,0.364075,-2.016167,-0.334807,-0.528671,-0.462037,-0.293935,0.033719,-0.303735,-0.091447,0.003750,-0.020152,0.999998,-0.001470,0.000169,-0.001519,0.018085,-0.789971,0.007140,0.612835,-175.433924,75.581568,2.505733
54569,-9.307314,-0.240300,-2.340403,-0.044639,0.042748,-0.212819,-0.448107,0.060582,-0.311286,-0.093084,-0.002311,-0.023371,0.999996,-0.002241,0.000303,-0.001556,0.017214,-0.790154,0.004595,0.612649,-175.042935,75.542388,3.175715
54570,-9.424735,-0.794244,-2.131034,-0.268110,0.582756,-0.138690,-0.351833,0.044684,-0.307785,-0.094264,-0.007835,-0.021275,0.999997,-0.001759,0.000223,-0.001539,0.016732,-0.790306,0.002345,0.612479,-174.595230,75.505268,3.846514
54571,-9.223802,-1.039889,-2.187581,-0.162979,0.811331,-0.312132,-0.246908,0.031197,-0.262706,-0.092255,-0.010305,-0.021849,0.999998,-0.001235,0.000156,-0.001314,0.016508,-0.790373,0.000604,0.612403,-174.194482,75.483100,4.407654
54572,-9.255169,-0.877162,-2.108485,-0.256379,0.632800,-0.304424,-0.105292,0.043688,-0.219545,-0.092566,-0.008681,-0.021060,0.999999,-0.000526,0.000218,-0.001098,0.016731,-0.790495,-0.000542,0.612239,-173.804042,75.449438,4.873542
54573,-9.276927,-0.607146,-1.855559,-0.515229,0.353434,-0.353158,-0.076657,0.030482,-0.185909,-0.092778,-0.005992,-0.018539,0.999999,-0.000383,0.000152,-0.000930,0.016947,-0.790544,-0.001459,0.612170,-173.476283,75.430667,5.258514
54574,-9.243907,-0.566996,-1.781504,-0.583398,0.301885,-0.404524,-0.087416,0.047406,-0.171743,-0.092448,-0.005598,-0.017791,1.000000,-0.000437,0.000237,-0.000859,0.017094,-0.790674,-0.002361,0.611994,-173.184327,75.396708,5.612166
54575,-9.313784,-0.710683,-1.833829,-0.552255,0.430936,-0.319328,-0.102391,0.058383,-0.144953,-0.093148,-0.007049,-0.018307,1.000000,-0.000512,0.000292,-0.000725,0.017083,-0.790809,-0.003193,0.611817,-172.969753,75.364029,5.895484
54576,-9.256391,-0.944979,-1.985262,-0.393123,0.653922,-0.329394,-0.050341,0.051793,-0.105962,-0.092574,-0.009406,-0.019826,1.000000,-0.000252,0.000259,-0.000530,0.017175,-0.790950,-0.003722,0.611629,-172.803416,75.331554,6.097444
54577,-9.170274,-1.068941,-2.086194,-0.275700,0.771476,-0.383076,0.048183,0.057050,-0.061344,-0.091712,-0.010656,-0.020838,1.000000,0.000241,0.000285,-0.000307,0.017506,-0.791067,-0.003763,0.611467,-172.684773,75.305320,6.192432
54578,-9.095814,-0.804028,-2.141224,-0.210547,0.503203,-0.449590,0.143752,0.029702,-0.009758,-0.090962,-0.008020,-0.021405,1.000000,0.000719,0.000149,-0.000049,0.018071,-0.791125,-0.003320,0.611378,-172.610615,75.292240,6.184168
54579,-9.458905,-0.289245,-2.163700,-0.292339,-0.024476,-0.109591,0.186216,0.087171,-0.002008,-0.094598,-0.002871,-0.021598,0.999999,0.000931,0.000436,-0.000010,0.018768,-0.791323,-0.002703,0.611104,-172.549492,75.253186,6.137865
54580,-9.659957,-0.313853,-2.459351,-0.064080,-0.017807,0.160138,0.102774,0.080565,-0.049798,-0.096610,-0.003102,-0.024556,1.000000,0.000514,0.000403,-0.000249,0.019295,-0.791539,-0.002539,0.610809,-172.427093,75.208220,6.203769
54581,-9.161990,-0.658976,-2.332283,-0.055336,0.339157,-0.341797,0.202918,-0.004104,-0.009555,-0.091620,-0.006562,-0.023331,0.999999,0.001015,-0.000021,-0.000048,0.020080,-0.791455,-0.001909,0.610895,-172.314231,75.220443,6.201061
54582,-9.262079,-0.372323,-2.311643,-0.107588,0.046071,-0.259954,0.264614,0.054361,0.007889,-0.092627,-0.003696,-0.023096,0.999999,0.001323,0.000272,0.000039,0.021070,-0.791574,-0.001025,0.610709,-172.216246,75.194737,6.145815
54583,-9.553915,0.164125,-2.322154,-0.187169,-0.502499,0.006125,0.265641,0.038083,0.002989,-0.095544,0.001671,-0.023201,0.999999,0.001328,0.000190,0.000015,0.022066,-0.791610,-0.000150,0.610628,-172.106515,75.183939,6.102667
54584,-9.497855,0.273331,-2.224183,-0.273489,-0.612470,-0.077133,0.163322,0.023521,-0.045035,-0.094981,0.002773,-0.022228,1.000000,0.000817,0.000118,-0.000225,0.022816,-0.791644,0.000213,0.610557,-171.944116,75.171585,6.174079
54585,-9.316087,-0.084100,-2.334777,-0.110234,-0.260357,-0.212282,0.081015,0.002266,-0.050665,-0.093161,-0.000808,-0.023347,1.000000,0.000405,0.000011,-0.000253,0.023244,-0.791590,0.000308,0.610610,-171.814978,75.176824,6.260487
54586,-9.189516,-0.157972,-2.241876,-0.164341,-0.184105,-0.355560,0.102991,-0.018627,-0.021894,-0.091893,-0.001558,-0.022428,1.000000,0.000515,-0.000093,-0.000109,0.023685,-0.791501,0.000573,0.610708,-171.723865,75.190186,6.293915
54587,-9.257166,-0.308312,-2.354148,-0.066637,-0.042656,-0.256227,0.034490,0.013431,-0.026412,-0.092574,-0.003067,-0.023536,1.000000,0.000172,0.000067,-0.000132,0.023855,-0.791488,0.000624,0.610719,-171.676954,75.190989,6.322786
54588,-9.766453,-0.923671,-2.442689,-0.094646,0.549573,0.281494,0.049614,0.055474,-0.071587,-0.097675,-0.009196,-0.024402,1.000000,0.000248,0.000277,-0.000358,0.024236,-0.791631,0.000539,0.610518,-171.533302,75.158168,6.442199
54589,-9.496644,-1.114597,-2.405288,-0.054144,0.744227,0.018751,0.165127,-0.049756,-0.009485,-0.094961,-0.011122,-0.024086,1.000000,0.000826,-0.000249,-0.000047,0.024871,-0.791408,0.001047,0.610781,-171.427248,75.196135,6.454855
54590,-9.070106,-0.712917,-1.899361,-0.438920,0.373450,-0.536346,0.290556,-0.084802,0.046018,-0.090691,-0.007122,-0.019042,0.999999,0.001453,-0.000424,0.000230,0.025848,-0.791092,0.002145,0.611147,-171.352581,75.252754,6.360125
54591,-9.253698,-0.007871,-1.827477,-0.568238,-0.331058,-0.403215,0.328249,-0.099388,0.096789,-0.092528,-0.000093,-0.018321,0.999998,0.001641,-0.000497,0.000484,0.026805,-0.790693,0.003566,0.611616,-171.365128,75.327957,6.153482
54592,-9.590541,0.592045,-1.995790,-0.509754,-0.945452,-0.057769,0.107017,0.029848,0.008554,-0.095909,0.005927,-0.019940,1.000000,0.000535,0.000149,0.000043,0.027168,-0.790749,0.003970,0.611524,-171.352803,75.316420,6.103058
54593,-9.684532,-0.711483,-2.590072,0.091542,0.322834,0.231825,-0.105651,0.009257,-0.091401,-0.096850,-0.007084,-0.025892,1.000000,-0.000528,0.000046,-0.000457,0.026983,-0.790742,0.003335,0.611545,-171.243805,75.313912,6.279073
54594,-9.095590,-1.351612,-2.640510,0.319523,0.973348,-0.300622,0.149210,-0.118015,0.035365,-0.090938,-0.013512,-0.026469,1.000000,0.000746,-0.000590,0.000177,0.027433,-0.790340,0.003955,0.612041,-171.216170,75.388475,6.219492
54595,-8.656634,-0.972922,-2.911520,0.687035,0.595527,-0.672984,0.231669,-0.020577,0.097742,-0.086559,-0.009738,-0.029135,0.999999,0.001158,-0.000103,0.000489,0.028004,-0.790192,0.005094,0.612198,-171.313567,75.419143,5.982420
54596,-9.246413,-0.656901,-2.935408,0.555738,0.267331,-0.108875,0.198368,-0.061397,0.116432,-0.092451,-0.006594,-0.029389,0.999999,0.000992,-0.000307,0.000582,0.028400,-0.789952,0.006192,0.612479,-171.454496,75.468550,5.719611
54597,-9.693235,-0.574132,-2.759358,0.274477,0.186239,0.276538,0.204247,0.035728,0.056100,-0.096936,-0.005740,-0.027582,0.999999,0.001021,0.000179,0.000281,0.028989,-0.789981,0.007090,0.612405,-171.496178,75.463324,5.556370
54598,-10.225522,-0.814670,-2.693721,0.087649,0.416319,0.784487,0.115344,0.028505,-0.002211,-0.102259,-0.008130,-0.026927,1.000000,0.000577,0.000143,-0.000011,0.029417,-0.790031,0.007478,0.612315,-171.455512,75.451608,5.530327
54599,-9.568870,-0.843949,-1.956387,-0.450858,0.502185,-0.032734,0.020398,-0.169951,0.014320,-0.095671,-0.008444,-0.019646,1.000000,0.000102,-0.000850,0.000072,0.029416,-0.789458,0.007618,0.613052,-171.443327,75.559244,5.531542
54600,-9.472155,-1.433900,-2.233243,-0.125451,1.076818,-0.035679,0.000420,0.077098,-0.049177,-0.094734,-0.014316,-0.022296,1.000000,0.000002,0.000385,-0.000246,0.029532,-0.789675,0.007476,0.612768,-171.381657,75.515988,5.595201
54601,-10.219899,-1.433769,-2.546482,-0.018527,1.035111,0.766290,0.103911,0.153173,-0.076323,-0.102224,-0.014285,-0.025394,0.999999,0.000520,0.000766,-0.000382,0.030128,-0.790082,0.007560,0.612213,-171.229540,75.432770,5.691456
54602,-9.534480,-0.932958,-2.075228,-0.334584,0.572129,-0.032912,0.165684,0.021988,-0.031412,-0.095349,-0.009297,-0.020750,1.000000,0.000828,0.000110,-0.000157,0.030844,-0.790105,0.007986,0.612143,-171.094422,75.422209,5.733200
54603,-8.946911,-0.529438,-2.080331,-0.206816,0.179548,-0.615934,0.174554,0.116667,-0.015633,-0.089482,-0.005269,-0.020756,0.999999,0.000873,0.000583,-0.000078,0.031536,-0.790387,0.008519,0.611737,-171.022260,75.364896,5.705044
54604,-9.129603,-0.216539,-2.263125,-0.099775,-0.150780,-0.406010,0.151130,0.066499,0.008890,-0.091303,-0.002152,-0.022603,1.000000,0.000756,0.000332,0.000044,0.032070,-0.790545,0.009066,0.611497,-170.998297,75.332726,5.640530
54605,-9.603098,-0.612449,-2.502423,0.025219,0.213795,0.127652,0.110990,0.136254,-0.057829,-0.096050,-0.006083,-0.024962,1.000000,0.000555,0.000681,-0.000289,0.032638,-0.790897,0.009242,0.611008,-170.878632,75.260508,5.699128
54606,-9.887157,-0.677030,-2.638286,0.077895,0.252740,0.439378,0.243603,0.088497,-0.079256,-0.098886,-0.006699,-0.026347,0.999999,0.001218,0.000442,-0.000396,0.033806,-0.791110,0.009726,0.610661,-170.620303,75.207853,5.822159
54607,-9.389493,-0.155066,-2.232973,-0.219786,-0.240296,-0.165577,0.273631,0.009352,-0.062435,-0.093896,-0.001491,-0.022327,0.999999,0.001368,0.000047,-0.000312,0.035039,-0.791046,0.010360,0.610664,-170.354367,75.206717,5.935449
54608,-9.065803,-0.001063,-2.294809,-0.088543,-0.399405,-0.469907,0.211977,0.028696,-0.055329,-0.090661,0.000039,-0.022935,0.999999,0.001060,0.000143,-0.000277,0.036012,-0.791078,0.010833,0.610558,-170.145374,75.189882,6.026213
54609,-9.096077,-0.026736,-2.437063,0.041439,-0.392702,-0.404039,0.192559,0.018146,-0.044601,-0.090963,-0.000224,-0.024363,1.000000,0.000963,0.000091,-0.000223,0.036868,-0.791053,0.011291,0.610531,-169.967898,75.185309,6.096297
54610,-9.386576,0.603072,-2.136118,-0.364280,-1.013590,-0.227572,0.200141,0.012799,-0.028448,-0.093866,0.006065,-0.021349,0.999999,0.001001,0.000064,-0.000142,0.037712,-0.791036,0.011831,0.610492,-169.817458,75.179999,6.133515
54611,-9.565532,1.123298,-1.873140,-0.697840,-1.523555,-0.145131,0.008325,0.012293,-0.077142,-0.095652,0.011271,-0.018725,1.000000,0.000042,0.000061,-0.000386,0.037938,-0.791028,0.011598,0.610493,-169.674764,75.175331,6.276744
54612,-9.428096,0.388414,-2.250326,-0.252039,-0.822829,-0.150222,-0.263124,0.016665,-0.169020,-0.094280,0.003934,-0.022501,0.999999,-0.001316,0.000083,-0.000845,0.037379,-0.791117,0.010168,0.610437,-169.492361,75.153229,6.621615
54613,-9.312446,-0.259866,-2.349458,-0.086731,-0.189452,-0.207184,-0.169695,0.005241,-0.161440,-0.093127,-0.002543,-0.023490,0.999999,-0.000848,0.000026,-0.000807,0.037156,-0.791124,0.009058,0.610459,-169.271279,75.143485,6.951653
54614,-9.079623,0.300060,-2.178105,-0.226093,-0.738046,-0.502591,-0.095994,-0.009814,-0.131911,-0.090793,0.003050,-0.021787,1.000000,-0.000480,-0.000049,-0.000660,0.037147,-0.791097,0.008281,0.610506,-169.062232,75.139638,7.225056
54615,-9.163379,0.358590,-2.057047,-0.366332,-0.799654,-0.455664,-0.147763,0.011959,-0.144775,-0.091632,0.003637,-0.020568,0.999999,-0.000739,0.000060,-0.000724,0.036958,-0.791118,0.007305,0.610502,-168.867682,75.127313,7.514678
54616,-9.248934,-0.123267,-2.175944,-0.246711,-0.339190,-0.319702,-0.132896,0.009647,-0.140120,-0.092491,-0.001182,-0.021754,1.000000,-0.000664,0.000048,-0.000701,0.036827,-0.791156,0.006386,0.610471,-168.671112,75.111128,7.797075
54617,-9.049666,-0.037157,-2.170276,-0.204623,-0.425950,-0.518354,-0.043627,-0.024251,-0.106935,-0.090494,-0.000328,-0.021714,1.000000,-0.000218,-0.000121,-0.000535,0.036935,-0.791046,0.005873,0.610613,-168.482628,75.122945,8.018724
54618,-9.181280,-0.000245,-2.100739,-0.307762,-0.471349,-0.410980,-0.091734,0.038151,-0.131124,-0.091817,0.000048,-0.020990,1.000000,-0.000459,0.000191,-0.000656,0.036938,-0.791162,0.005120,0.610468,-168.294460,75.091318,8.268039
54619,-9.296728,-0.670645,-2.534290,0.115217,0.155870,-0.155360,-0.054153,0.017799,-0.129151,-0.092974,-0.006653,-0.025333,1.000000,-0.000271,0.000089,-0.000646,0.037071,-0.791182,0.004494,0.610440,-168.084101,75.076611,8.518627
54620,-9.202918,-0.563486,-2.308886,-0.084439,0.058029,-0.308390,0.067773,-0.011748,-0.084440,-0.092030,-0.005588,-0.023096,1.000000,0.000339,-0.000059,-0.000422,0.037564,-0.791115,0.004404,0.610497,-167.881724,75.078064,8.688101
54621,-9.373496,-0.468008,-2.309533,-0.131658,-0.053063,-0.148567,0.076163,0.024639,-0.104417,-0.093740,-0.004622,-0.023086,1.000000,0.000381,0.000123,-0.000522,0.038138,-0.791130,0.004276,0.610442,-167.652325,75.061963,8.881036
54622,-9.709005,-0.236897,-2.355396,-0.186748,-0.311721,0.174140,0.113319,0.012519,-0.119820,-0.097093,-0.002297,-0.023549,1.000000,0.000567,0.000063,-0.000599,0.038918,-0.791129,0.004189,0.610395,-167.361212,75.045093,9.115362
54623,-9.317932,-0.089400,-2.300803,-0.146107,-0.451596,-0.226226,0.052222,-0.028517,-0.127743,-0.093177,-0.000828,-0.023022,1.000000,0.000261,-0.000143,-0.000639,0.039470,-0.790987,0.003886,0.610546,-167.072470,75.055226,9.383815
54624,-9.217028,-0.502488,-2.104275,-0.286468,-0.034120,-0.349557,-0.015811,-0.000560,-0.135965,-0.092174,-0.004964,-0.021043,1.000000,-0.000079,-0.000003,-0.000680,0.039789,-0.790971,0.003339,0.610550,-166.815960,75.042974,9.658909
54625,-9.548686,-0.889274,-2.227168,-0.231716,0.317795,0.024680,0.002441,0.021339,-0.129774,-0.095495,-0.008831,-0.022262,1.000000,0.000012,0.000107,-0.000649,0.040147,-0.790990,0.002885,0.610504,-166.576177,75.024460,9.906451
54626,-9.424351,-0.812240,-2.171019,-0.258833,0.239658,-0.113873,0.015908,-0.014770,-0.110913,-0.094246,-0.008068,-0.021718,1.000000,0.000080,-0.000074,-0.000555,0.040516,-0.790923,0.002531,0.610568,-166.347402,75.022886,10.134055
54627,-9.403978,-1.051661,-2.147393,-0.262131,0.472198,-0.124529,-0.113098,-0.011150,-0.118993,-0.094045,-0.010473,-0.021473,1.000000,-0.000565,-0.000056,-0.000595,0.040387,-0.790866,0.001761,0.610653,-166.179996,75.023389,10.374895
54628,-9.310292,-1.408922,-2.410218,0.035181,0.809151,-0.126626,-0.086765,-0.034214,-0.079539,-0.093104,-0.014063,-0.024112,1.000000,-0.000434,-0.000171,-0.000398,0.040254,-0.790759,0.001214,0.610801,-166.065263,75.036594,10.545337
54629,-9.120122,-1.019823,-2.512858,0.165364,0.420684,-0.308647,-0.016157,-0.010522,-0.034618,-0.091202,-0.010184,-0.025133,1.000000,-0.000081,-0.000053,-0.000173,0.040251,-0.790683,0.001072,0.610900,-166.017279,75.048131,10.605176
54630,-9.139210,-1.647890,-2.644518,0.319482,1.037189,-0.218087,-0.143602,-0.000567,-0.034167,-0.091395,-0.016482,-0.026434,1.000000,-0.000718,-0.000003,-0.000171,0.039754,-0.790690,0.000537,0.610924,-166.046715,75.048832,10.660090
54631,-9.708761,-2.726631,-1.966335,-0.423845,2.128336,0.229800,-0.031849,-0.063430,-0.036833,-0.097086,-0.027252,-0.019690,1.000000,-0.000159,-0.000317,-0.000184,0.039698,-0.790456,0.000326,0.611231,-165.974838,75.089308,10.753984
54632,-9.972511,-2.705110,-1.909147,-0.539116,2.096859,0.469626,0.381066,0.015370,0.070985,-0.099717,-0.027050,-0.019135,0.999998,0.001905,0.000077,0.000355,0.040953,-0.790406,0.001814,0.611210,-165.931361,75.095756,10.573257
54633,-9.558389,-1.064298,-1.588091,-0.818666,0.505865,-0.112613,0.563241,-0.070785,0.153505,-0.095570,-0.010671,-0.015945,0.999996,0.002816,-0.000354,0.000768,0.042671,-0.790022,0.004169,0.611577,-165.910376,75.166738,10.261521
54634,-9.330068,-0.243005,-1.379339,-0.998508,-0.279987,-0.435247,0.223770,-0.099427,0.113929,-0.093292,-0.002468,-0.013843,0.999999,0.001119,-0.000497,0.000570,0.043175,-0.789647,0.005321,0.612017,-165.988321,75.242968,10.048515
54635,-8.932607,-0.504698,-2.392303,0.100355,-0.070691,-0.552330,0.082428,0.055335,0.066689,-0.089331,-0.005067,-0.023900,1.000000,0.000412,0.000277,0.000333,0.043257,-0.789748,0.005892,0.611875,-166.128331,75.231807,9.855104
54636,-9.361736,-1.335097,-3.042314,0.670238,0.695756,0.074019,-0.084749,0.003813,0.056620,-0.093614,-0.013390,-0.030416,1.000000,-0.000424,0.000019,0.000283,0.042716,-0.789756,0.005896,0.611903,-166.317330,75.242507,9.710088
54637,-8.985837,-1.771437,-2.843825,0.611260,1.169437,-0.313775,0.339778,-0.144375,0.186082,-0.089821,-0.017750,-0.028533,0.999998,0.001699,-0.000722,0.000930,0.043453,-0.789187,0.007680,0.612566,-166.461093,75.358222,9.360635
54638,-8.920054,-0.383815,-2.507765,0.228436,-0.173068,-0.543307,0.545495,-0.074938,0.316053,-0.089185,-0.003911,-0.025122,0.999995,0.002727,-0.000375,0.001580,0.044607,-0.788802,0.010621,0.612934,-166.806189,75.446920,8.681276
54639,-9.720196,0.506611,-2.221494,-0.298882,-1.051571,0.110958,0.367685,-0.109462,0.230958,-0.097196,0.004995,-0.022259,0.999997,0.001838,-0.000547,0.001155,0.045317,-0.788324,0.012674,0.613459,-167.057074,75.547916,8.204989
54640,-9.718965,0.434486,-2.081590,-0.416974,-0.956583,0.081308,0.171711,-0.117191,0.112678,-0.097180,0.004308,-0.020869,0.999999,0.000859,-0.000586,0.000563,0.045623,-0.787897,0.013657,0.613963,-167.165021,75.632789,7.992176
54641,-9.546366,0.479551,-2.343776,-0.113731,-1.013474,-0.024108,0.097756,-0.079617,0.050107,-0.095456,0.004783,-0.023473,1.000000,0.000489,-0.000398,0.000251,0.045819,-0.787579,0.014178,0.614344,-167.198460,75.693708,7.900432
54642,-9.390781,0.154693,-2.290376,-0.091424,-0.676269,-0.169513,-0.020407,-0.117059,0.044693,-0.093895,0.001524,-0.022959,1.000000,-0.000102,-0.000585,0.000223,0.045577,-0.787200,0.014303,0.614845,-167.270011,75.769786,7.838888
54643,-9.067507,-0.594092,-2.866352,0.613365,0.031471,-0.304197,0.064976,-0.060277,0.026520,-0.090666,-0.005944,-0.028693,1.000000,0.000325,-0.000301,0.000133,0.045713,-0.786951,0.014635,0.615146,-167.281988,75.816829,7.788947
54644,-9.448368,-0.765785,-2.830365,0.507478,0.192143,0.065298,0.219281,-0.065864,0.034955,-0.094473,-0.007643,-0.028343,0.999999,0.001096,-0.000329,0.000175,0.046440,-0.786674,0.015470,0.615425,-167.220859,75.863062,7.722634
54645,-9.334166,-0.297290,-2.445609,0.134747,-0.237849,-0.162749,0.384586,-0.080821,0.060265,-0.093331,-0.002954,-0.024499,0.999998,0.001923,-0.000404,0.000301,0.047730,-0.786284,0.016913,0.615787,-167.114609,75.925706,7.605852
54646,-9.402968,0.096018,-1.834376,-0.497981,-0.574508,-0.262194,0.322722,-0.073309,0.059993,-0.094023,0.000962,-0.018377,0.999999,0.001614,-0.000367,0.000300,0.048787,-0.785954,0.018163,0.616090,-167.046272,75.979353,7.485909
54647,-9.573662,-0.192542,-1.504036,-0.826953,-0.260963,-0.158556,0.202648,-0.018103,0.003936,-0.095735,-0.001912,-0.015051,0.999999,0.001013,-0.000091,0.000020,0.049532,-0.785802,0.018843,0.616204,-166.951076,75.999787,7.464837
54648,-9.924045,-0.670802,-1.705116,-0.671400,0.180657,0.255116,0.045666,-0.005786,-0.034404,-0.099241,-0.006687,-0.017056,1.000000,0.000228,-0.000029,-0.000172,0.049785,-0.785754,0.018885,0.616242,-166.865097,76.003587,7.526702
54649,-9.498692,-0.987106,-2.167442,-0.088393,0.458419,-0.031105,0.005973,-0.077179,-0.039697,-0.094980,-0.009852,-0.021711,1.000000,0.000030,-0.000386,-0.000198,0.049895,-0.785472,0.018770,0.616597,-166.753405,76.051436,7.639133
54650,-9.019272,-1.392913,-2.096315,0.000627,0.882196,-0.490470,-0.001257,-0.045898,-0.017170,-0.090189,-0.013922,-0.020984,1.000000,-0.000006,-0.000229,-0.000086,0.049914,-0.785311,0.018725,0.616802,-166.711455,76.079825,7.683317
54651,-9.118269,-1.755427,-2.731817,0.627778,1.174588,-0.225539,0.119661,0.026597,0.025939,-0.091184,-0.017550,-0.027317,1.000000,0.000598,0.000133,0.000130,0.050263,-0.785314,0.019247,0.616754,-166.735904,76.078310,7.587671
54652,-9.400645,-1.309573,-2.565328,0.361397,0.739485,-0.015210,0.310609,-0.009194,0.080603,-0.094000,-0.013094,-0.025678,0.999999,0.001553,-0.000046,0.000403,0.051201,-0.785178,0.020558,0.616808,-166.754835,76.099077,7.385044
54653,-9.364774,-0.707330,-2.303750,0.065429,0.171337,-0.144547,0.295781,-0.010646,0.099109,-0.093643,-0.007086,-0.023053,0.999999,0.001479,-0.000053,0.000496,0.052019,-0.785012,0.021897,0.616904,-166.823151,76.127677,7.140602
54654,-9.345340,-0.513560,-2.194833,-0.050690,-0.005525,-0.199477,0.247423,-0.006870,0.087290,-0.093450,-0.005149,-0.021958,0.999999,0.001237,-0.000034,0.000436,0.052689,-0.784895,0.023039,0.616955,-166.895524,76.147921,6.920262
54655,-9.470190,-0.459934,-2.069945,-0.203497,-0.044615,-0.110249,0.200455,0.007487,0.079110,-0.094701,-0.004616,-0.020701,0.999999,0.001002,0.000037,0.000396,0.053192,-0.784810,0.024010,0.616983,-166.983860,76.163597,6.711511
54656,-9.578534,-0.533628,-1.923626,-0.360518,0.046910,-0.035099,0.147096,-0.014501,0.078837,-0.095782,-0.005360,-0.019247,1.000000,0.000735,-0.000073,0.000394,0.053494,-0.784695,0.024808,0.617071,-167.091406,76.186851,6.514182
54657,-9.306454,-0.389151,-2.042964,-0.192089,-0.097191,-0.279121,0.199709,-0.004463,0.097957,-0.093062,-0.003917,-0.020436,0.999999,0.000999,-0.000022,0.000490,0.053938,-0.784569,0.025848,0.617150,-167.217664,76.211445,6.266813
54658,-9.307061,0.265845,-2.151333,-0.157076,-0.753157,-0.287544,0.098762,0.024645,0.098661,-0.093075,0.002623,-0.021501,1.000000,0.000494,0.000123,0.000493,0.053985,-0.784584,0.026584,0.617096,-167.419143,76.215079,6.001311
54659,-9.393970,0.283699,-2.595323,0.247855,-0.816990,-0.100121,-0.048317,0.044620,0.059032,-0.093946,0.002803,-0.025933,1.000000,-0.000242,0.000223,0.000295,0.053569,-0.784681,0.026721,0.617003,-167.624853,76.206999,5.818319
54660,-9.108891,0.131061,-2.574203,0.309428,-0.647922,-0.373406,-0.086513,0.033240,0.052736,-0.091094,0.001275,-0.025727,1.000000,-0.000433,0.000166,0.000264,0.053030,-0.784778,0.026709,0.616927,-167.831949,76.199775,5.656330
54661,-9.338960,-0.537903,-2.653407,0.400673,0.010344,-0.097471,-0.227811,0.053254,0.013471,-0.093396,-0.005416,-0.026503,0.999999,-0.001139,0.000266,0.000067,0.052046,-0.784955,0.026114,0.616811,-168.041128,76.180998,5.576048
54662,-9.543249,-1.395724,-2.657834,0.443932,0.864312,0.144301,-0.087457,0.007414,0.022408,-0.095432,-0.013980,-0.026569,1.000000,-0.000437,0.000037,0.000112,0.051600,-0.784976,0.025972,0.616827,-168.166787,76.184420,5.498466
54663,-9.111724,-0.628383,-1.910731,-0.251259,0.203520,-0.487200,0.214550,-0.040753,0.133415,-0.091109,-0.006324,-0.019133,0.999999,0.001073,-0.000204,0.000667,0.051996,-0.784732,0.027189,0.617051,-168.351233,76.232060,5.182493
54664,-9.370712,0.083560,-1.394845,-0.885017,-0.440500,-0.390081,0.087580,0.050507,0.105267,-0.093711,0.000792,-0.013924,1.000000,0.000438,0.000253,0.000526,0.051976,-0.784829,0.027923,0.616897,-168.586830,76.220661,4.888474
54665,-9.966570,-0.171857,-1.978617,-0.439586,-0.257379,0.337066,-0.032151,0.083408,0.059681,-0.099673,-0.001751,-0.019744,1.000000,-0.000161,0.000417,0.000298,0.051613,-0.785042,0.028120,0.616648,-168.802163,76.189794,4.686543
54666,-9.389440,-0.023405,-2.124095,-0.177688,-0.398787,-0.195864,0.020260,-0.051616,0.158098,-0.093889,-0.000306,-0.021265,1.000000,0.000101,-0.000258,0.000790,0.051179,-0.784833,0.028828,0.616917,-169.151175,76.240996,4.315448
54667,-8.446473,0.393723,-2.224821,0.101101,-0.790709,-1.105662,-0.046170,0.057688,0.201696,-0.084475,0.003847,-0.022225,0.999999,-0.000231,0.000288,0.001008,0.050330,-0.784948,0.029536,0.616807,-169.689272,76.238949,3.788873
54668,-8.438676,0.193819,-3.428198,1.281313,-0.704714,-0.820309,-0.230283,0.133434,0.279308,-0.084412,0.001781,-0.034228,0.999998,-0.001151,0.000667,0.001397,0.048512,-0.785353,0.029994,0.616415,-170.539084,76.195856,3.049941
54669,-8.851996,-0.442777,-3.143135,0.971657,-0.006445,-0.459139,-0.537471,0.054827,0.291519,-0.088522,-0.004641,-0.031395,0.999995,-0.002687,0.000274,0.001458,0.045454,-0.785561,0.029539,0.616405,-171.563362,76.199654,2.312880
54670,-9.904453,-2.379475,-1.968571,-0.224219,2.072316,0.350506,-0.733428,0.034808,0.124892,-0.099033,-0.023929,-0.019581,0.999993,-0.003667,0.000174,0.000624,0.042150,-0.785790,0.027815,0.616429,-172.305586,76.194528,1.981523
54671,-10.641078,-4.061286,-2.157026,-0.071960,3.748688,1.156425,-0.484608,0.006405,0.121373,-0.106387,-0.040730,-0.021468,0.999997,-0.002423,0.000032,0.000607,0.039832,-0.785849,0.026842,0.616550,-172.890450,76.208377,1.665643
54672,-9.700859,-2.181255,-0.824008,-1.299283,2.043059,-0.133787,0.565624,-0.157150,0.447132,-0.096953,-0.022006,-0.008378,0.999993,0.002828,-0.000786,0.002236,0.040664,-0.785165,0.030350,0.617205,-173.587042,76.332414,0.615171
54673,-9.155742,0.768471,-0.305073,-1.946459,-0.795094,-0.863377,0.703764,0.062708,0.528743,-0.091578,0.007453,-0.002996,0.999990,0.003519,0.000314,0.002644,0.041751,-0.785083,0.034648,0.617009,-174.461126,76.336723,-0.698896
54674,-10.193126,1.443500,-0.820064,-1.776309,-1.484041,0.252019,-0.024406,0.175110,0.184743,-0.101952,0.014340,-0.008113,0.999999,-0.000122,0.000876,0.000924,0.041022,-0.785574,0.035372,0.616392,-174.968441,76.250881,-1.206469
54675,-9.955267,-0.269610,-1.876644,-0.526896,0.125431,0.307018,-0.500161,0.063082,0.106551,-0.099557,-0.002796,-0.018728,0.999997,-0.002501,0.000315,0.000533,0.038681,-0.785803,0.034301,0.616312,-175.540081,76.228729,-1.499282
54676,-9.366601,-1.059432,-2.233597,0.036819,0.892228,-0.166595,-0.122423,0.001634,0.191281,-0.093656,-0.010698,-0.022329,0.999999,-0.000612,0.000008,0.000956,0.037577,-0.785776,0.034714,0.616392,-176.080162,76.240007,-1.982897
54677,-9.122088,-0.758369,-2.471344,0.294491,0.587307,-0.354174,0.038392,0.066340,0.213928,-0.091221,-0.007677,-0.024685,0.999999,0.000192,0.000332,0.001070,0.037021,-0.785889,0.035723,0.616223,-176.591761,76.218611,-2.531582
54678,-9.223405,-0.552062,-2.804529,0.569358,0.368214,-0.180368,0.056750,0.039805,0.202900,-0.092234,-0.005606,-0.028029,0.999999,0.000284,0.000199,0.001015,0.036579,-0.785943,0.036741,0.616122,-177.061174,76.206378,-3.048181
54679,-9.383315,0.094858,-2.653871,0.321433,-0.241162,-0.069118,0.164600,-0.016385,0.197574,-0.093832,0.000878,-0.026546,0.999999,0.000823,-0.000082,0.000988,0.036585,-0.785780,0.038060,0.616249,-177.450645,76.229592,-3.545811
54680,-9.392327,0.573999,-2.375410,0.003804,-0.675257,-0.131165,0.098930,-0.027143,0.140216,-0.093924,0.005686,-0.023764,1.000000,0.000495,-0.000136,0.000701,0.036515,-0.785629,0.038949,0.616391,-177.743138,76.252523,-3.905084
54681,-9.442190,1.100905,-2.254629,-0.173543,-1.174638,-0.115245,0.096575,-0.087912,0.133229,-0.094419,0.010957,-0.022582,1.000000,0.000483,-0.000440,0.000666,0.036465,-0.785269,0.039792,0.616798,-178.018319,76.313919,-4.244691
54682,-9.573840,1.142715,-2.050189,-0.401897,-1.184606,-0.035025,-0.015219,0.008495,0.034638,-0.095741,0.011409,-0.020499,1.000000,-0.000076,0.000042,0.000173,0.036264,-0.785268,0.039922,0.616802,-178.133466,76.313696,-4.354009
54683,-9.758237,0.673910,-2.599960,0.139582,-0.769729,0.278159,-0.086208,-0.038043,0.003305,-0.097578,0.006726,-0.026021,1.000000,-0.000431,-0.000190,0.000017,0.035883,-0.785121,0.039699,0.617027,-178.214853,76.343791,-4.385831
54684,-8.985855,0.437548,-2.317689,0.079910,-0.518388,-0.537257,0.020277,-0.066349,-0.019976,-0.089850,0.004387,-0.023206,1.000000,0.000101,-0.000332,-0.000100,0.036005,-0.784894,0.039710,0.617307,-178.175572,76.385390,-4.357146
54685,-9.371432,0.002366,-2.275386,-0.003333,-0.077396,-0.169289,-0.008386,0.049186,-0.062204,-0.093720,0.000052,-0.022731,1.000000,-0.000042,0.000246,-0.000311,0.036117,-0.785015,0.039491,0.617161,-178.064808,76.364181,-4.237818
54686,-9.672827,-0.004915,-2.287810,-0.063134,-0.072665,0.126549,0.178695,-0.014298,-0.056271,-0.096727,-0.000001,-0.022885,1.000000,0.000893,-0.000071,-0.000281,0.036963,-0.784927,0.039857,0.617199,-177.852719,76.375206,-4.124715
54687,-9.237254,0.208659,-2.048780,-0.212951,-0.275084,-0.355051,0.164015,-0.017817,-0.061291,-0.092370,0.002132,-0.020494,1.000000,0.000820,-0.000089,-0.000306,0.037760,-0.784809,0.040159,0.617282,-177.639713,76.392177,-4.001414
54688,-9.568887,-0.150981,-2.155714,-0.149682,0.067579,-0.004195,0.057137,0.040773,-0.095567,-0.095694,-0.001458,-0.021538,1.000000,0.000286,0.000204,-0.000478,0.038238,-0.784921,0.040007,0.617120,-177.409609,76.370504,-3.798119
54689,-9.792877,-0.348933,-2.055352,-0.278868,0.269488,0.192125,0.131862,-0.001686,-0.082342,-0.097930,-0.003435,-0.020557,1.000000,0.000659,-0.000008,-0.000412,0.038970,-0.784862,0.040130,0.617141,-177.166969,76.377415,-3.625313
54690,-9.439786,-0.305915,-2.093918,-0.163409,0.208895,-0.142253,0.096598,0.002810,-0.061369,-0.094399,-0.003020,-0.020939,1.000000,0.000483,0.000014,-0.000307,0.039506,-0.784842,0.040226,0.617126,-176.991189,76.378092,-3.501174
54691,-9.378213,-0.770742,-2.100218,-0.092282,0.662216,-0.194539,0.058149,0.044118,-0.078932,-0.093790,-0.007664,-0.020984,1.000000,0.000291,0.000221,-0.000395,0.039933,-0.784937,0.040149,0.616982,-176.804189,76.358621,-3.342895
54692,-9.453751,-0.641896,-2.182436,-0.047436,0.519338,-0.103079,0.219648,0.017502,-0.024493,-0.094540,-0.006383,-0.021823,0.999999,0.001098,0.000088,-0.000122,0.040835,-0.784930,0.040772,0.616892,-176.646971,76.351920,-3.310396
54693,-9.456795,-0.319866,-2.229191,-0.039967,0.188437,-0.093353,0.188591,0.018317,-0.024339,-0.094570,-0.003166,-0.022286,1.000000,0.000943,0.000092,-0.000122,0.041606,-0.784908,0.041299,0.616833,-176.510391,76.348851,-3.279988
54694,-9.394078,-0.623794,-2.496859,0.268300,0.453745,-0.086730,0.106696,-0.002053,-0.020293,-0.093941,-0.006215,-0.024973,1.000000,0.000533,-0.000010,-0.000101,0.042056,-0.784861,0.041587,0.616843,-176.425073,76.353447,-3.254881
54695,-9.262146,-0.701517,-2.376337,0.195546,0.540349,-0.242095,0.150273,-0.029645,0.009248,-0.092618,-0.007002,-0.023782,1.000000,0.000751,-0.000148,0.000046,0.042587,-0.784692,0.042120,0.616985,-176.382192,76.378894,-3.298797
54696,-9.276452,-0.682424,-2.163151,-0.011935,0.545381,-0.278543,0.163902,-0.017182,0.023296,-0.092762,-0.006817,-0.021645,1.000000,0.000820,-0.000086,0.000116,0.043129,-0.784576,0.042752,0.617051,-176.364655,76.393711,-3.377158
54697,-9.562270,-0.504879,-2.209239,-0.052560,0.367270,0.007444,0.209881,-0.003609,0.043120,-0.095621,-0.005046,-0.022099,0.999999,0.001049,-0.000018,0.000216,0.043783,-0.784467,0.043604,0.617085,-176.371099,76.405461,-3.506660
54698,-9.574190,-0.192159,-1.924925,-0.364541,0.093151,-0.052267,0.229533,-0.030906,0.063964,-0.095738,-0.001930,-0.019266,0.999999,0.001148,-0.000155,0.000320,0.044460,-0.784284,0.044595,0.617198,-176.410363,76.429586,-3.682131
54699,-9.456443,0.106063,-1.776202,-0.513560,-0.182648,-0.205745,0.215976,-0.013895,0.078624,-0.094564,0.001043,-0.017767,0.999999,0.001080,-0.000069,0.000393,0.045033,-0.784131,0.045606,0.617277,-176.496365,76.448409,-3.897463
54700,-9.411228,0.377819,-1.896874,-0.420569,-0.464443,-0.225221,0.216708,0.012269,0.065349,-0.094115,0.003768,-0.018959,0.999999,0.001084,0.000061,0.000327,0.045645,-0.784082,0.046572,0.617222,-176.553117,76.447794,-4.083342
54701,-9.444872,0.727153,-1.903000,-0.468291,-0.808373,-0.195879,0.191349,0.009701,0.048145,-0.094451,0.007267,-0.019018,1.000000,0.000957,0.000049,0.000241,0.046209,-0.784012,0.047392,0.617206,-176.584884,76.452042,-4.228240
54702,-9.352019,0.640449,-1.945617,-0.394960,-0.727734,-0.274854,0.048280,0.006691,0.016694,-0.093521,0.006401,-0.019451,1.000000,0.000241,0.000033,0.000083,0.046313,-0.783995,0.047647,0.617200,-176.621919,76.452906,-4.294570
54703,-9.357891,0.239457,-2.034952,-0.256945,-0.340799,-0.242612,-0.003038,0.010791,-0.006225,-0.093580,0.002397,-0.020345,1.000000,-0.000015,0.000054,-0.000031,0.046281,-0.783986,0.047656,0.617214,-176.637001,76.454687,-4.307721
54704,-9.405936,0.297651,-1.965383,-0.342444,-0.389046,-0.212982,0.052744,-0.009182,-0.014909,-0.094058,0.002989,-0.019657,1.000000,0.000264,-0.000046,-0.000075,0.046503,-0.783926,0.047796,0.617262,-176.594228,76.463558,-4.294590
54705,-9.393416,0.373397,-1.990936,-0.324178,-0.470634,-0.220350,-0.005805,0.011943,-0.059206,-0.093934,0.003761,-0.019904,1.000000,-0.000029,0.000060,-0.000296,0.046623,-0.783934,0.047590,0.617259,-176.485560,76.462871,-4.178845
54706,-9.449000,0.288636,-2.312544,-0.016176,-0.433299,-0.090200,0.021146,-0.011636,-0.067797,-0.094488,0.002921,-0.023131,1.000000,0.000106,-0.000058,-0.000339,0.046886,-0.783887,0.047425,0.617312,-176.334733,76.471237,-4.035953
54707,-9.196489,0.172298,-2.248906,-0.001935,-0.319712,-0.349049,-0.030359,-0.002633,-0.082697,-0.091964,0.001758,-0.022491,1.000000,-0.000152,-0.000013,-0.000413,0.046987,-0.783861,0.047050,0.617366,-176.182315,76.477833,-3.861098
54708,-9.428525,-0.274345,-2.334090,0.083759,0.108962,-0.096648,-0.069199,0.018621,-0.102966,-0.094289,-0.002703,-0.023331,1.000000,-0.000346,0.000093,-0.000515,0.046997,-0.783936,0.046476,0.617313,-176.004352,76.467345,-3.637059
54709,-9.449850,-0.458096,-2.096196,-0.125580,0.315342,-0.128250,0.026870,-0.029957,-0.083066,-0.094497,-0.004539,-0.020977,1.000000,0.000134,-0.000150,-0.000415,0.047325,-0.783812,0.046264,0.617461,-175.813531,76.489269,-3.455609
54710,-9.455967,-0.282235,-1.845380,-0.390074,0.166102,-0.183531,0.045242,-0.010886,-0.085195,-0.094560,-0.002778,-0.018460,1.000000,0.000226,-0.000054,-0.000426,0.047736,-0.783765,0.046106,0.617502,-175.606961,76.496052,-3.269603
54711,-9.452305,-0.059493,-1.772878,-0.486084,-0.052753,-0.207812,0.026963,-0.027860,-0.078031,-0.094521,-0.000556,-0.017742,1.000000,0.000135,-0.000139,-0.000390,0.048051,-0.783646,0.045917,0.617642,-175.427203,76.516703,-3.100029
54712,-9.193019,0.073269,-1.770156,-0.444016,-0.193792,-0.463050,-0.049743,-0.012880,-0.081803,-0.091929,0.000766,-0.017708,1.000000,-0.000249,-0.000064,-0.000409,0.048079,-0.783614,0.045478,0.617712,-175.282189,76.524513,-2.921380
54713,-9.450978,-0.177120,-1.955811,-0.292376,0.027537,-0.164303,-0.135447,0.021337,-0.097120,-0.094513,-0.001739,-0.019547,1.000000,-0.000677,0.000107,-0.000486,0.047803,-0.783690,0.044722,0.617693,-175.159263,76.516045,-2.714119
54714,-9.499728,-0.298917,-2.157351,-0.094782,0.117607,-0.067661,-0.081654,-0.005785,-0.077706,-0.094998,-0.002961,-0.021575,1.000000,-0.000408,-0.000029,-0.000389,0.047692,-0.783687,0.044202,0.617743,-175.043632,76.519820,-2.546882
54715,-9.299588,-0.156259,-2.160300,-0.062341,-0.030750,-0.264451,-0.059428,-0.009371,-0.069671,-0.092995,-0.001537,-0.021607,1.000000,-0.000297,-0.000047,-0.000348,0.047640,-0.783643,0.043786,0.617833,-174.936103,76.530024,-2.400916
54716,-9.362079,-0.175456,-2.284971,0.045902,-0.030486,-0.174360,-0.128966,0.006995,-0.067062,-0.093622,-0.001738,-0.022845,1.000000,-0.000645,0.000035,-0.000335,0.047308,-0.783687,0.043165,0.617846,-174.875465,76.526914,-2.262361
54717,-9.495346,0.338638,-2.598756,0.255161,-0.581939,0.017167,-0.067928,-0.037932,-0.059574,-0.094948,0.003406,-0.026007,1.000000,-0.000340,-0.000190,-0.000298,0.047194,-0.783555,0.042750,0.618051,-174.790406,76.553808,-2.133936
54718,-9.250784,1.084328,-1.986114,-0.364446,-1.249448,-0.378522,-0.198419,-0.095367,-0.074521,-0.092494,0.010858,-0.019916,0.999999,-0.000992,-0.000477,-0.000373,0.046635,-0.783300,0.041861,0.618477,-174.728755,76.608630,-1.953459
54719,-9.317711,0.982922,-2.473876,0.113189,-1.210924,-0.198803,-0.507634,-0.012255,-0.138404,-0.093169,0.009831,-0.024769,0.999997,-0.002538,-0.000061,-0.000692,0.045040,-0.783363,0.039791,0.618652,-174.712127,76.616603,-1.637290
54720,-9.588983,0.750849,-2.476075,0.089393,-0.979126,0.070461,-0.585884,-0.067332,-0.147820,-0.095876,0.007507,-0.024815,0.999995,-0.002929,-0.000337,-0.000739,0.043184,-0.783290,0.037423,0.619025,-174.701783,76.651517,-1.281407
54721,-9.424804,0.579419,-2.009219,-0.291561,-0.757979,-0.192912,-0.659093,-0.091474,-0.171093,-0.094234,0.005808,-0.020154,0.999994,-0.003295,-0.000457,-0.000855,0.041111,-0.783133,0.034740,0.619520,-174.674723,76.702795,-0.865442
54722,-9.352460,-0.367128,-2.208098,0.022842,0.159000,-0.197429,-0.803313,-0.008033,-0.219349,-0.093528,-0.003657,-0.022070,0.999991,-0.004017,-0.000040,-0.001097,0.038613,-0.783283,0.031429,0.619669,-174.627761,76.699981,-0.344020
54723,-9.744029,-1.355666,-1.852981,-0.316896,1.173874,0.124066,-0.673931,-0.067078,-0.222091,-0.097449,-0.013511,-0.018517,0.999994,-0.003370,-0.000335,-0.001110,0.036631,-0.783193,0.028502,0.620045,-174.489949,76.734359,0.194977
54724,-9.380066,-1.055922,-1.351400,-0.746348,0.912977,-0.350324,-0.351094,-0.079651,-0.170325,-0.093804,-0.010503,-0.013533,0.999998,-0.001755,-0.000398,-0.000852,0.035762,-0.783011,0.026770,0.620402,-174.283543,76.774576,0.613903
54725,-9.414277,-0.236982,-1.509464,-0.670340,0.072796,-0.299087,-0.359093,0.009482,-0.178687,-0.094146,-0.002313,-0.015086,0.999998,-0.001795,0.000047,-0.000893,0.034871,-0.783084,0.025002,0.620434,-174.085149,76.767126,1.029387
54726,-9.454645,0.459703,-1.522000,-0.722370,-0.632270,-0.273477,-0.376870,-0.054874,-0.161470,-0.094539,0.004645,-0.015255,0.999998,-0.001884,-0.000274,-0.000807,0.033870,-0.782976,0.023230,0.620694,-173.919344,76.793110,1.421732
54727,-9.270935,0.831637,-1.251830,-0.962923,-0.990294,-0.522854,-0.554844,-0.050953,-0.208472,-0.092697,0.008378,-0.012565,0.999996,-0.002774,-0.000255,-0.001042,0.032315,-0.782889,0.020731,0.620975,-173.743819,76.817753,1.928368
54728,-9.566121,-0.021410,-2.275601,0.024552,-0.230411,0.017662,-0.924160,0.117817,-0.325252,-0.095675,-0.000163,-0.022699,0.999988,-0.004621,0.000589,-0.001626,0.029661,-0.783407,0.016646,0.620577,-173.540762,76.734443,2.681102
54729,-9.673559,-1.044574,-2.725530,0.494775,0.754791,0.251252,-0.863158,-0.059540,-0.260047,-0.096741,-0.010438,-0.027239,0.999990,-0.004316,-0.000298,-0.001300,0.027052,-0.783321,0.012984,0.620893,-173.416951,76.759995,3.316760
54730,-8.870321,-1.276807,-2.622601,0.588326,1.004060,-0.547883,-0.714595,-0.067956,-0.201268,-0.088707,-0.012772,-0.026211,0.999993,-0.003573,-0.000340,-0.001006,0.024849,-0.783193,0.010007,0.621201,-173.343569,76.789820,3.812947
54731,-9.217755,-1.940580,-2.790154,0.695498,1.655818,-0.153891,-0.699454,0.005424,-0.190073,-0.092197,-0.019416,-0.027831,0.999993,-0.003497,0.000027,-0.000950,0.022666,-0.783259,0.007139,0.621241,-173.310107,76.782418,4.258436
54732,-9.595422,-2.074101,-2.554186,0.375791,1.794640,0.164082,-0.343299,-0.020337,-0.111194,-0.095963,-0.020731,-0.025516,0.999998,-0.001716,-0.000102,-0.000556,0.021634,-0.783217,0.005674,0.621346,-173.255216,76.790989,4.517083
54733,-9.484657,-1.153150,-1.871040,-0.295220,0.904973,-0.123356,-0.096767,-0.069708,-0.012567,-0.094841,-0.011535,-0.018738,1.000000,-0.000484,-0.000349,-0.000063,0.021263,-0.782970,0.005362,0.621673,-173.284022,76.838027,4.544163
54734,-9.278936,-0.515964,-1.575566,-0.553074,0.286610,-0.407410,-0.107666,-0.040872,0.015399,-0.092786,-0.005175,-0.015772,1.000000,-0.000538,-0.000204,0.000077,0.020761,-0.782833,0.005122,0.621864,-173.395439,76.866756,4.493314
54735,-9.239862,0.047089,-1.785354,-0.356227,-0.278552,-0.412673,-0.114098,0.005458,0.028189,-0.092399,0.000448,-0.017851,1.000000,-0.000570,0.000027,0.000141,0.020192,-0.782820,0.004922,0.621901,-173.555047,76.873713,4.396405
54736,-9.510533,0.305406,-1.693955,-0.515323,-0.532894,-0.176118,-0.230668,0.025959,-0.005158,-0.095107,0.003037,-0.016931,0.999999,-0.001153,0.000130,-0.000026,0.019271,-0.782903,0.004227,0.621831,-173.705659,76.863021,4.377680
54737,-9.920907,-0.558382,-2.306475,0.008125,0.304404,0.383551,-0.372096,0.112080,-0.085397,-0.099224,-0.005584,-0.022999,0.999998,-0.001860,0.000560,-0.000427,0.018043,-0.783246,0.002789,0.621444,-173.764397,76.802182,4.536319
54738,-9.752997,-1.521068,-2.667829,0.415135,1.258990,0.326076,-0.244986,0.014412,-0.074454,-0.097538,-0.015207,-0.026653,0.999999,-0.001225,0.000072,-0.000372,0.017281,-0.783292,0.001776,0.621411,-173.751695,76.793741,4.693761
54739,-9.421853,-1.636895,-2.828780,0.646950,1.374807,0.043483,0.029502,0.037870,-0.037497,-0.094227,-0.016347,-0.028272,1.000000,0.000148,0.000189,-0.000187,0.017477,-0.783367,0.001764,0.621311,-173.676845,76.777937,4.753608
54740,-9.354927,-0.839725,-2.766958,0.582739,0.577352,-0.055488,0.259917,-0.005201,0.019804,-0.093548,-0.008371,-0.027683,0.999999,0.001300,-0.000026,0.000099,0.018400,-0.783307,0.002687,0.621357,-173.598335,76.786574,4.681498
54741,-9.223958,0.018513,-2.521457,0.353052,-0.273382,-0.260719,0.283957,-0.003904,0.041804,-0.092239,0.000202,-0.025216,0.999999,0.001420,-0.000020,0.000209,0.019350,-0.783227,0.003772,0.621423,-173.557438,76.799498,4.556402
54742,-9.449641,0.378836,-2.503944,0.274229,-0.638573,-0.054307,0.155031,0.001104,0.020300,-0.094497,0.003798,-0.025036,1.000000,0.000775,0.000006,0.000102,0.019861,-0.783194,0.004372,0.621445,-173.542014,76.804602,4.481228
54743,-9.478066,0.365119,-2.235765,0.009812,-0.616403,-0.087172,0.055377,-0.038145,-0.003154,-0.094776,0.003659,-0.022375,1.000000,0.000277,-0.000191,-0.000016,0.020052,-0.783030,0.004564,0.621643,-173.514381,76.834042,4.477680
54744,-9.443217,0.324057,-2.063398,-0.145130,-0.568506,-0.159050,-0.073401,-0.022438,-0.021493,-0.094430,0.003243,-0.020646,1.000000,-0.000367,-0.000112,-0.000107,0.019798,-0.782948,0.004289,0.621758,-173.521767,76.849854,4.513502
54745,-9.565846,0.148706,-1.992300,-0.233017,-0.392896,-0.051124,-0.120400,-0.022926,-0.038468,-0.095656,0.001493,-0.019935,1.000000,-0.000602,-0.000115,-0.000192,0.019412,-0.782850,0.003801,0.621896,-173.513700,76.868274,4.592876
54746,-9.475723,0.261426,-1.815009,-0.383945,-0.497849,-0.181661,-0.104430,-0.055304,-0.028700,-0.094752,0.002618,-0.018178,1.000000,-0.000522,-0.000277,-0.000143,0.019059,-0.782668,0.003398,0.622139,-173.511997,76.902329,4.656280
54747,-9.524212,0.471493,-2.000149,-0.215307,-0.715587,-0.098003,-0.208301,-0.018241,-0.066831,-0.095239,0.004726,-0.020015,0.999999,-0.001042,-0.000091,-0.000334,0.018416,-0.782592,0.002526,0.622257,-173.486084,76.916276,4.805770
54748,-9.508146,0.106003,-2.202006,-0.002522,-0.357499,-0.058862,-0.351774,-0.011427,-0.098934,-0.095080,0.001068,-0.022027,0.999998,-0.001759,-0.000057,-0.000495,0.017314,-0.782568,0.001083,0.622323,-173.466075,76.920774,5.033453
54749,-9.514550,-0.527527,-2.457051,0.260739,0.266983,0.021070,-0.343793,-0.011567,-0.119766,-0.095147,-0.005261,-0.024567,0.999998,-0.001719,-0.000058,-0.000599,0.016305,-0.782522,-0.000416,0.622409,-173.390035,76.927401,5.314050
54750,-9.442486,-0.909306,-2.428217,0.257351,0.648192,-0.045537,-0.221587,-0.037593,-0.101551,-0.094425,-0.009072,-0.024290,0.999999,-0.001108,-0.000188,-0.000508,0.015720,-0.782402,-0.001467,0.622574,-173.281146,76.946489,5.556382
54751,-9.317109,-1.030120,-2.362135,0.226326,0.769703,-0.179116,-0.098124,-0.036468,-0.075434,-0.093171,-0.010278,-0.023633,1.000000,-0.000491,-0.000182,-0.000377,0.015535,-0.782257,-0.002031,0.622759,-173.164573,76.969966,5.734125
54752,-9.579157,-0.809976,-2.310989,0.116463,0.540049,0.059079,0.006959,-0.012273,-0.069517,-0.095793,-0.008066,-0.023116,1.000000,0.000035,-0.000061,-0.000348,0.015744,-0.782197,-0.002243,0.622828,-173.010002,76.976623,5.888905
54753,-9.517409,-0.480501,-1.968146,-0.204546,0.214203,-0.086546,0.030127,-0.057336,-0.056327,-0.095170,-0.004775,-0.019709,1.000000,0.000151,-0.000287,-0.000282,0.016003,-0.781977,-0.002335,0.623097,-172.858956,77.012993,6.026366
54754,-9.336876,-0.423333,-1.704474,-0.416774,0.163653,-0.322629,-0.053131,-0.042868,-0.040442,-0.093366,-0.004219,-0.017064,1.000000,-0.000266,-0.000214,-0.000202,0.015886,-0.781827,-0.002622,0.623288,-172.800296,77.038966,6.118021
54755,-9.461278,-0.711821,-1.754650,-0.387874,0.446731,-0.181942,-0.072021,-0.008352,-0.028142,-0.094613,-0.007111,-0.017548,1.000000,-0.000360,-0.000042,-0.000141,0.015658,-0.781768,-0.002919,0.623367,-172.791733,77.049497,6.169439
54756,-9.567836,-0.314897,-1.696935,-0.471516,0.048530,-0.101995,-0.080056,-0.034006,-0.022041,-0.095676,-0.003145,-0.016984,1.000000,-0.000400,-0.000170,-0.000110,0.015379,-0.781647,-0.003218,0.623523,-172.796480,77.071742,6.211850
54757,-9.571326,-0.131506,-1.857945,-0.316776,-0.138847,-0.067949,-0.162066,0.030072,-0.060216,-0.095716,-0.001301,-0.018564,1.000000,-0.000810,0.000150,-0.000301,0.014898,-0.781713,-0.003920,0.623448,-172.771852,77.058147,6.332875
54758,-9.653830,-0.484978,-1.848020,-0.344004,0.209731,0.020140,-0.210751,0.042202,-0.093123,-0.096544,-0.004824,-0.018455,0.999999,-0.001054,0.000211,-0.000466,0.014331,-0.781838,-0.004898,0.623298,-172.699814,77.031918,6.530918
54759,-9.438241,-0.896063,-2.045372,-0.102864,0.618874,-0.134192,-0.121283,0.030021,-0.080001,-0.094389,-0.008935,-0.020434,1.000000,-0.000606,0.000150,-0.000400,0.014072,-0.781899,-0.005549,0.623221,-172.603490,77.016863,6.701402
54760,-9.158537,-1.014879,-2.190841,0.099938,0.738766,-0.370611,0.031903,0.023821,-0.046521,-0.091590,-0.010124,-0.021899,1.000000,0.000160,0.000119,-0.000233,0.014308,-0.781950,-0.005590,0.623152,-172.502173,77.004396,6.786838
54761,-9.228297,-0.662542,-2.317704,0.205275,0.378127,-0.284463,0.200279,0.006435,-0.016916,-0.092284,-0.006594,-0.023181,0.999999,0.001001,0.000032,-0.000085,0.015110,-0.781916,-0.004995,0.623180,-172.368972,77.007292,6.806058
54762,-9.334150,-0.022059,-2.240570,0.098908,-0.268811,-0.217639,0.275124,0.029816,-0.002087,-0.093345,-0.000189,-0.022392,0.999999,0.001376,0.000149,-0.000010,0.016159,-0.781967,-0.004104,0.623096,-172.239880,76.994748,6.776983
54763,-9.642703,0.346290,-2.033180,-0.179698,-0.648267,0.025143,0.285154,0.034682,-0.046096,-0.096430,0.003514,-0.020310,0.999999,0.001426,0.000173,-0.000230,0.017382,-0.782013,-0.003359,0.623011,-171.996173,76.979220,6.860186
54764,-9.429684,0.611383,-1.996241,-0.175305,-0.915870,-0.199772,0.247768,0.010997,-0.058281,-0.094296,0.006166,-0.019950,0.999999,0.001239,0.000055,-0.000291,0.018498,-0.782003,-0.002775,0.622994,-171.738723,76.972845,6.978944
54765,-9.356268,0.992922,-1.811853,-0.346482,-1.299704,-0.325899,0.237707,-0.011357,-0.062615,-0.093559,0.009980,-0.018112,0.999999,0.001189,-0.000057,-0.000313,0.019589,-0.781907,-0.002241,0.623084,-171.466267,76.981860,7.118866
54766,-9.586259,1.240713,-1.790381,-0.426126,-1.563707,-0.116584,0.117988,0.029229,-0.115251,-0.095858,0.012473,-0.017882,1.000000,0.000590,0.000146,-0.000576,0.020376,-0.781964,-0.002282,0.622986,-171.150879,76.959966,7.373418
54767,-9.616861,0.918935,-2.242759,0.012099,-1.269868,0.023251,0.017536,0.035232,-0.167318,-0.096165,0.009272,-0.022410,1.000000,0.000088,0.000176,-0.000837,0.020932,-0.782032,-0.002836,0.622881,-170.768208,76.932921,7.755870
54768,-9.654298,0.350464,-2.412812,0.179527,-0.723663,0.116765,-0.093135,0.021415,-0.199585,-0.096542,0.003590,-0.024119,0.999999,-0.000466,0.000107,-0.000998,0.021155,-0.782085,-0.003865,0.622801,-170.367710,76.906785,8.222038
54769,-9.208280,-0.379136,-2.650225,0.525808,-0.002230,-0.237545,-0.100867,-0.007644,-0.199091,-0.092086,-0.003713,-0.026504,0.999999,-0.000504,-0.000038,-0.000995,0.021341,-0.782029,-0.004920,0.622857,-169.961851,76.899632,8.698782
54770,-9.228743,-0.625317,-2.443721,0.325167,0.233636,-0.253809,-0.015674,-0.004926,-0.180072,-0.092292,-0.006172,-0.024439,1.000000,-0.000078,-0.000025,-0.000900,0.021806,-0.781991,-0.005634,0.622883,-169.555252,76.888847,9.125694
54771,-9.543458,-0.925208,-2.062671,-0.110210,0.516201,-0.019344,0.032039,-0.000280,-0.179523,-0.095443,-0.009163,-0.020628,1.000000,0.000160,-0.000001,-0.000898,0.022454,-0.781944,-0.006195,0.622913,-169.124994,76.877934,9.548854
54772,-9.489447,-1.278398,-1.705313,-0.437762,0.864804,-0.135268,0.140891,-0.023077,-0.143895,-0.094902,-0.012704,-0.017073,0.999999,0.000704,-0.000115,-0.000719,0.023418,-0.781831,-0.006282,0.623019,-168.708608,76.879920,9.893732
54773,-9.508397,-1.132358,-1.490986,-0.651161,0.710013,-0.169724,0.206979,0.024184,-0.120315,-0.095093,-0.011251,-0.014910,0.999999,0.001035,0.000121,-0.000602,0.024567,-0.781841,-0.006063,0.622964,-168.333198,76.860664,10.157472
54774,-9.721746,-1.099009,-1.352559,-0.835229,0.658779,0.006577,0.202953,0.038292,-0.122828,-0.097227,-0.010917,-0.013518,0.999999,0.001015,0.000191,-0.000614,0.025710,-0.781911,-0.005867,0.622832,-167.963506,76.829666,10.417928
54775,-9.729418,-1.094854,-1.341030,-0.849542,0.641781,0.012028,0.216657,0.046513,-0.105814,-0.097303,-0.010883,-0.013399,0.999999,0.001083,0.000233,-0.000529,0.026852,-0.781986,-0.005561,0.622692,-167.630262,76.798950,10.633002
54776,-9.645449,-0.871707,-1.426681,-0.755603,0.408072,-0.061149,0.207456,0.056617,-0.091454,-0.096462,-0.008658,-0.014249,0.999999,0.001037,0.000283,-0.000457,0.027915,-0.782112,-0.005226,0.622491,-167.345211,76.760915,10.803933
54777,-9.540049,-0.784344,-1.536185,-0.631126,0.311033,-0.143534,0.176536,0.065556,-0.086562,-0.095409,-0.007789,-0.015337,0.999999,0.000883,0.000328,-0.000433,0.028841,-0.782250,-0.004968,0.622277,-167.092788,76.721650,10.959692
54778,-9.551462,-0.957311,-1.825224,-0.352873,0.461847,-0.058690,0.153310,0.080993,-0.091174,-0.095526,-0.009516,-0.018221,1.000000,0.000767,0.000405,-0.000456,0.029692,-0.782457,-0.004797,0.621978,-166.855274,76.669694,11.113712
54779,-9.495375,-1.344393,-2.133647,-0.033021,0.827060,-0.023057,0.249214,0.074260,-0.080941,-0.094967,-0.013379,-0.021318,0.999999,0.001246,0.000371,-0.000405,0.030887,-0.782610,-0.004288,0.621731,-166.581370,76.625988,11.248465
54780,-9.160419,-1.547258,-2.217441,0.129217,1.029750,-0.318098,0.404705,0.062625,-0.027879,-0.091613,-0.015415,-0.022177,0.999998,0.002024,0.000313,-0.000139,0.032525,-0.782719,-0.003091,0.621517,-166.340535,76.592439,11.257892
54781,-8.866979,-1.377687,-2.207094,0.181902,0.863951,-0.614150,0.583991,0.060568,0.023736,-0.088675,-0.013723,-0.022084,0.999996,0.002920,0.000303,0.000119,0.034704,-0.782771,-0.001136,0.621340,-166.112918,76.570316,11.148059
54782,-9.163178,-0.941551,-1.952936,-0.149261,0.419857,-0.407065,0.686008,0.064484,0.046152,-0.091636,-0.009370,-0.019532,0.999994,0.003430,0.000322,0.000231,0.037212,-0.782827,0.001226,0.621124,-165.885352,76.545980,10.978129
54783,-9.338981,-0.166800,-1.959404,-0.222152,-0.369663,-0.278662,0.690081,0.067806,0.034365,-0.093396,-0.001616,-0.019568,0.999994,0.003450,0.000339,0.000172,0.039773,-0.782866,0.003552,0.620908,-165.625846,76.521510,10.838664
54784,-9.489868,0.659507,-1.988620,-0.281210,-1.211880,-0.174254,0.570460,0.063604,-0.012452,-0.094905,0.006658,-0.019837,0.999996,0.002852,0.000318,-0.000062,0.042009,-0.782927,0.005325,0.620671,-165.328755,76.489602,10.808279
54785,-9.618395,0.822380,-2.264784,-0.061518,-1.412509,0.001592,0.348179,0.069445,-0.085956,-0.096188,0.008305,-0.022600,0.999998,0.001741,0.000347,-0.000430,0.043603,-0.783031,0.006120,0.620422,-164.990508,76.446927,10.951305
54786,-9.332599,0.530706,-2.453138,0.198080,-1.138994,-0.217878,0.261053,0.039990,-0.123035,-0.093328,0.005396,-0.024506,0.999999,0.001305,0.000200,-0.000615,0.044972,-0.783081,0.006495,0.620258,-164.604095,76.411547,11.195168
54787,-8.947872,0.159968,-2.683918,0.530207,-0.786574,-0.517873,0.239363,0.052307,-0.121987,-0.089485,0.001686,-0.026814,0.999999,0.001197,0.000262,-0.000610,0.046248,-0.783154,0.006807,0.620068,-164.239436,76.372406,11.429979
54788,-9.149209,-0.015990,-2.515938,0.326348,-0.624503,-0.350041,0.344200,0.065929,-0.123939,-0.091500,-0.000060,-0.025129,0.999998,0.001721,0.000330,-0.000620,0.047944,-0.783261,0.007443,0.619797,-163.823614,76.321833,11.655165
54789,-9.332932,0.286514,-2.188663,-0.060722,-0.925087,-0.267193,0.402766,0.035390,-0.114671,-0.093332,0.002963,-0.021864,0.999998,0.002014,0.000177,-0.000573,0.049838,-0.783239,0.008288,0.619665,-163.375111,76.292280,11.879730
54790,-9.258979,0.615616,-1.692219,-0.554429,-1.222677,-0.476257,0.354758,0.018629,-0.135482,-0.092587,0.006249,-0.016903,0.999998,0.001774,0.000093,-0.000677,0.051613,-0.783192,0.008900,0.619571,-162.899513,76.264901,12.160286
54791,-9.504274,1.087732,-1.524346,-0.815601,-1.706569,-0.312140,0.164416,0.040738,-0.180199,-0.095036,0.010975,-0.015215,0.999999,0.000822,0.000204,-0.000901,0.052776,-0.783245,0.008755,0.619407,-162.448838,76.220443,12.527488
54792,-9.841386,1.148161,-1.535220,-0.892632,-1.805739,0.009253,-0.177393,0.042959,-0.278947,-0.098401,0.011605,-0.015341,0.999999,-0.000887,0.000215,-0.001395,0.052910,-0.783415,0.007163,0.619201,-161.980812,76.153614,13.114336
54793,-9.843306,0.386959,-1.926748,-0.458224,-1.109042,0.152892,-0.437056,0.053093,-0.356792,-0.098431,0.004003,-0.019250,0.999996,-0.002185,0.000265,-0.001784,0.052262,-0.783667,0.004471,0.618963,-161.502930,76.069505,13.864672
54794,-9.559905,-0.441818,-2.233538,-0.041041,-0.319838,0.009310,-0.513190,0.037949,-0.384555,-0.095612,-0.004292,-0.022306,0.999995,-0.002566,0.000190,-0.001923,0.051406,-0.783903,0.001424,0.618750,-161.004714,75.983606,14.681303
54795,-9.462530,-1.040476,-2.512455,0.282831,0.235289,0.025965,-0.438766,0.055445,-0.377735,-0.094652,-0.010281,-0.025076,0.999996,-0.002194,0.000277,-0.001889,0.050814,-0.784148,-0.001357,0.618488,-160.499765,75.891248,15.461392
54796,-9.836810,-1.081460,-2.667492,0.336960,0.213575,0.428829,-0.196879,0.059049,-0.361624,-0.098395,-0.010663,-0.026635,0.999998,-0.000984,0.000295,-0.001808,0.051127,-0.784357,-0.003331,0.618191,-159.902642,75.794817,16.193774
54797,-10.110796,-0.554047,-2.532807,0.104420,-0.352962,0.618739,0.039427,0.026908,-0.379623,-0.101122,-0.005344,-0.025316,0.999998,0.000197,0.000135,-0.001898,0.052416,-0.784385,-0.004646,0.618038,-159.115549,75.713182,16.982733
54798,-10.233254,0.381210,-2.547430,0.031189,-1.336292,0.654755,0.296032,0.019013,-0.415888,-0.102327,0.004063,-0.025459,0.999997,0.001480,0.000095,-0.002079,0.054828,-0.784334,-0.005320,0.617888,-158.109752,75.621843,17.845996
54799,-10.464991,1.704714,-1.889294,-0.744068,-2.669190,0.594667,0.464278,-0.048853,-0.473917,-0.104604,0.017339,-0.018878,0.999994,0.002321,-0.000244,-0.002370,0.058070,-0.784002,-0.005713,0.618009,-156.841909,75.552787,18.880787
54800,-10.155230,2.452745,-1.367676,-1.225614,-3.400937,0.084097,0.454905,-0.104253,-0.549333,-0.101477,0.024837,-0.013673,0.999994,0.002275,-0.000521,-0.002747,0.061513,-0.783508,-0.006453,0.618296,-155.388766,75.485843,20.112631
54801,-9.931701,2.970038,-0.809320,-1.748459,-3.903190,-0.335215,0.394961,-0.103537,-0.566897,-0.099228,0.029998,-0.008086,0.999994,0.001975,-0.000518,-0.002834,0.064765,-0.783006,-0.007437,0.618588,-153.949733,75.410124,21.365864
54802,-10.252174,3.385212,0.281356,-2.906378,-4.293613,-0.338325,0.363362,-0.182737,-0.455795,-0.102447,0.034081,0.002782,0.999995,0.001817,-0.000914,-0.002279,0.067556,-0.782283,-0.008119,0.619196,-152.679400,75.392458,22.463658
54803,-9.448622,3.614841,0.960611,-3.380811,-4.409290,-1.304191,0.247357,-0.290700,-0.217533,-0.094461,0.036239,0.009514,0.999998,0.001237,-0.001453,-0.001088,0.069137,-0.781250,-0.008248,0.620323,-151.830959,75.492322,23.193986
54804,-8.787195,3.930187,0.678953,-2.962625,-4.692237,-1.917886,0.029939,-0.158670,0.023742,-0.087882,0.039290,0.006726,1.000000,0.000150,-0.000793,0.000119,0.069139,-0.780728,-0.008080,0.620981,-151.707306,75.585018,23.304190
54805,-9.486834,3.967404,0.616792,-3.054077,-4.795473,-1.222183,-0.221226,0.007782,0.177129,-0.094903,0.039597,0.006128,0.999999,-0.001106,0.000039,0.000886,0.067671,-0.780794,-0.008015,0.621061,-152.210389,75.640152,22.916153
54806,-10.230512,2.742601,-0.264695,-2.274816,-3.715890,-0.154914,-0.476466,0.102156,0.284789,-0.102345,0.027274,-0.002660,0.999996,-0.002382,0.000511,0.001424,0.064896,-0.781261,-0.008311,0.620767,-153.169589,75.669117,22.208084
54807,-10.623987,0.950394,-1.190038,-1.343994,-2.020460,0.641966,-0.419148,0.088477,0.396825,-0.106264,0.009268,-0.011873,0.999996,-0.002096,0.000442,0.001984,0.061969,-0.781641,-0.007971,0.620591,-154.320491,75.736173,21.268859
54808,-10.768243,0.130087,-1.603368,-0.914774,-1.195714,0.970437,-0.110022,-0.122851,0.653097,-0.107676,0.000940,-0.016100,0.999994,-0.000550,-0.000614,0.003265,0.059473,-0.781295,-0.005760,0.621295,-155.625794,75.964227,19.987950
54809,-10.404156,0.685403,-1.032976,-1.401473,-1.595410,0.447593,0.095836,-0.161562,0.711881,-0.104057,0.006489,-0.010411,0.999993,0.000479,-0.000808,0.003559,0.057569,-0.780735,-0.002665,0.622199,-156.955212,76.224927,18.562545
54810,-10.451111,0.295809,-0.951067,-1.446812,-1.133859,0.523580,-0.007162,-0.110511,0.674570,-0.104515,0.002605,-0.009569,0.999994,-0.000036,-0.000553,0.003373,0.055406,-0.780378,-0.000048,0.622849,-158.347281,76.436242,17.134346
54811,-10.471159,-0.046592,-0.573631,-1.772512,-0.691047,0.500246,0.128212,-0.192337,0.693840,-0.104704,-0.000825,-0.005837,0.999993,0.000641,-0.000962,0.003469,0.053682,-0.779692,0.003070,0.623851,-159.692709,76.693353,15.676325
54812,-9.886487,0.089568,-0.125603,-2.060356,-0.679348,-0.165960,0.182034,-0.254035,0.748039,-0.098866,0.000527,-0.001381,0.999992,0.000910,-0.001270,0.003740,0.052027,-0.778812,0.006524,0.625062,-161.125242,76.979784,14.098252
54813,-10.106531,0.600837,-0.017621,-2.222987,-1.113570,0.001639,0.138405,-0.209845,0.804528,-0.101088,0.005602,-0.000278,0.999991,0.000692,-0.001049,0.004023,0.049994,-0.778038,0.010101,0.626144,-162.833834,77.248531,12.265026
54814,-10.651411,1.418948,-0.038737,-2.352891,-1.871778,0.503662,-0.004786,-0.300767,0.838602,-0.106572,0.013743,-0.000548,0.999990,-0.000024,-0.001504,0.004193,0.047330,-0.777026,0.013311,0.627545,-164.706513,77.553625,10.349186
54815,-10.776627,1.853504,0.044430,-2.449524,-2.215588,0.611481,-0.334121,-0.401762,0.818216,-0.107841,0.018094,0.000197,0.999988,-0.001671,-0.002009,0.004091,0.043425,-0.775729,0.015413,0.629381,-166.766514,77.903923,8.437879
54816,-10.655294,1.081611,-0.208214,-2.065967,-1.387302,0.606288,-0.665502,-0.364441,0.693006,-0.106585,0.010439,-0.002311,0.999987,-0.003327,-0.001822,0.003465,0.038656,-0.774642,0.015965,0.631016,-168.796868,78.197026,6.752533
54817,-10.375251,0.086315,-0.730276,-1.376728,-0.358280,0.490820,-0.787488,-0.390929,0.648040,-0.103740,0.000498,-0.007508,0.999985,-0.003937,-0.001955,0.003240,0.033524,-0.773443,0.015983,0.632777,-170.875763,78.494482,5.091593
54818,-10.187532,-0.504263,-0.978297,-1.011176,0.287344,0.380031,-0.718316,-0.422924,0.652351,-0.101837,-0.005410,-0.009979,0.999986,-0.003592,-0.002115,0.003262,0.028681,-0.772140,0.016201,0.634598,-172.987682,78.791474,3.357509
54819,-10.342202,-0.196835,-0.640373,-1.341260,0.071711,0.463754,-0.600137,-0.463607,0.643395,-0.103400,-0.002321,-0.006637,0.999988,-0.003001,-0.002318,0.003217,0.024292,-0.770638,0.016782,0.636589,-175.121347,79.104802,1.534927
54820,-9.800640,0.299570,-0.847858,-1.006791,-0.368618,-0.029486,-0.641330,-0.579196,0.589756,-0.097989,0.002679,-0.008771,0.999986,-0.003207,-0.002896,0.002949,0.019958,-0.768790,0.016981,0.638964,-177.183212,79.462794,-0.189326
54821,-9.982248,0.525597,-1.717059,-0.136034,-0.580396,0.312228,-0.767958,-0.523171,0.448249,-0.099788,0.004966,-0.017451,0.999987,-0.003840,-0.002616,0.002241,0.015550,-0.767089,0.016265,0.641145,-179.031196,79.781251,-1.619659
54822,-10.004110,0.090188,-1.827346,0.052611,-0.098208,0.356705,-0.863251,-0.646243,0.339276,-0.099983,0.000652,-0.018600,0.999984,-0.004316,-0.003231,0.001696,0.011169,-0.765023,0.014787,0.643736,179.346972,80.155866,-2.764159
54823,-9.019684,-0.388100,-2.212873,0.681715,0.404979,-0.551318,-0.837610,-0.615465,0.301759,-0.090122,-0.004110,-0.022389,0.999985,-0.004188,-0.003077,0.001509,0.006972,-0.762997,0.013279,0.646228,177.731656,80.513713,-3.914880
54824,-8.639874,-0.652864,-2.300875,0.890459,0.707852,-0.920367,-0.777625,-0.565249,0.317948,-0.086323,-0.006756,-0.023227,0.999987,-0.003888,-0.002826,0.001590,0.002980,-0.761145,0.011998,0.648464,176.033503,80.830653,-5.184048
54825,-8.311763,-0.754421,-2.344459,1.033031,0.850364,-1.247615,-0.679244,-0.517222,0.370476,-0.083042,-0.007778,-0.023633,0.999989,-0.003396,-0.002586,0.001852,-0.000842,-0.759390,0.011264,0.650537,174.077843,81.116508,-6.769193
54826,-8.113700,-1.318330,-2.251601,1.016672,1.457315,-1.477089,-0.596977,-0.438036,0.378125,-0.081062,-0.013404,-0.022654,0.999991,-0.002985,-0.002190,0.001891,-0.004349,-0.757913,0.010798,0.652252,172.104238,81.342651,-8.419836
54827,-7.650045,-2.372929,-2.866946,1.729398,2.541850,-1.880391,-0.477776,-0.305227,0.397896,-0.076409,-0.023950,-0.028729,0.999994,-0.002389,-0.001526,0.001989,-0.007505,-0.756825,0.010819,0.653485,170.079445,81.488030,-10.189784
54828,-7.265933,-3.595901,-2.985648,1.929830,3.798144,-2.296838,-0.236595,-0.361009,0.507171,-0.072514,-0.036178,-0.029945,0.999994,-0.001183,-0.001805,0.002536,-0.010074,-0.755583,0.012017,0.654865,167.707963,81.637602,-12.449947
54829,-6.637704,-4.872720,-3.003680,2.066483,5.092201,-2.984542,0.075661,-0.213012,0.497463,-0.066224,-0.048881,-0.030126,0.999996,0.000378,-0.001065,0.002487,-0.011465,-0.754802,0.014216,0.655698,165.584439,81.697242,-14.639033
54830,-6.496532,-6.594395,-3.656299,2.768621,6.830533,-3.124048,0.344384,-0.002528,0.469423,-0.064810,-0.066033,-0.036677,0.999996,0.001722,-0.000013,0.002347,-0.011739,-0.754755,0.017155,0.655678,163.961549,81.630059,-16.478460
54831,-6.379964,-8.491092,-4.340716,3.528857,8.723538,-3.248310,0.677545,-0.027142,0.389129,-0.063629,-0.084887,-0.043703,0.999992,0.003388,-0.000136,0.001946,-0.010510,-0.754615,0.020900,0.655750,162.796949,81.587023,-18.047209
54832,-6.638181,-10.577130,-5.298569,4.556248,10.781007,-2.955171,0.992228,0.175524,0.081227,-0.066386,-0.105534,-0.053451,0.999987,0.004961,0.000878,0.000406,-0.007086,-0.755202,0.024489,0.654996,163.217749,81.479104,-18.196326
54833,-9.218454,-12.555443,-7.314555,6.336189,12.747177,-0.144128,1.450753,0.782102,-0.212386,-0.092605,-0.124923,-0.073692,0.999965,0.007254,0.003910,-0.001062,-0.001050,-0.757768,0.028451,0.651902,165.542047,81.086002,-16.685074
54834,-13.771483,-12.430549,-10.761854,9.090122,12.499991,5.056654,1.786823,1.491753,-0.727125,-0.138966,-0.122840,-0.107687,0.999926,0.008934,0.007459,-0.003636,0.007843,-0.762664,0.031549,0.645977,170.117945,80.340399,-13.085689
54835,-16.619288,-1.697788,-7.219179,4.476624,1.777489,7.736974,3.618402,0.392069,-0.453446,-0.166370,-0.015295,-0.072153,0.999832,0.018091,0.001960,-0.002267,0.023014,-0.763694,0.041544,0.643829,173.838164,80.160036,-11.414086
54836,-11.095096,10.242144,0.748321,-3.748695,-9.648429,1.205487,5.199295,-1.100507,1.134600,-0.111577,0.101560,0.009518,0.999631,0.025993,-0.005502,0.005672,0.039399,-0.759012,0.062508,0.646870,172.502427,80.712172,-15.789354
54837,-5.667226,14.998604,6.607748,-9.591977,-13.558491,-4.823880,1.335818,-1.426279,1.376219,-0.058175,0.149145,0.066664,0.999929,0.006679,-0.007131,0.006881,0.040429,-0.753612,0.071797,0.652134,167.387381,81.385389,-21.741538
54838,-6.516111,8.495976,0.930903,-3.192295,-7.927304,-3.295590,-1.043779,1.694298,-1.413468,-0.064479,0.085466,0.009412,0.999926,-0.005219,0.008471,-0.007067,0.040460,-0.759774,0.063442,0.645818,172.825712,80.569754,-15.629599
54839,-12.193831,7.277257,-1.914723,-1.185278,-7.036950,2.612474,-1.794577,1.800485,-2.102495,-0.121335,0.073881,-0.018713,0.999864,-0.008972,0.009002,-0.010512,0.039812,-0.766470,0.050061,0.639087,179.058516,79.630795,-8.258623
54840,-10.893937,0.318143,-3.363892,1.277407,-0.487896,1.510937,-3.800755,0.461972,-1.833667,-0.108985,0.003544,-0.033452,0.999775,-0.019002,0.002310,-0.009168,0.030948,-0.768966,0.031008,0.637787,-177.504492,79.355418,-2.548104
54841,-9.316995,-8.848912,-6.388905,5.200149,8.354086,0.631977,-2.648064,-0.383927,-1.576346,-0.093747,-0.088589,-0.062896,0.999879,-0.013240,-0.001920,-0.007881,0.025802,-0.768261,0.016490,0.639404,-174.145583,79.517063,2.412637
54842,-7.313472,-8.404735,-2.712621,1.838913,8.128235,-1.936529,0.117409,-0.529727,-1.000546,-0.073482,-0.083664,-0.027370,0.999984,0.000587,-0.002649,-0.005003,0.029461,-0.766601,0.012991,0.641316,-170.783902,79.747404,5.761906
54843,-6.808261,-3.096570,-1.691522,0.625911,2.858513,-2.724704,1.636201,0.988433,0.232246,-0.068130,-0.030907,-0.016832,0.999954,0.008181,0.004942,0.001161,0.034883,-0.769440,0.019313,0.637473,-171.064911,79.216802,4.523025
54844,-10.973618,3.360094,-4.516382,2.015941,-3.870464,1.722450,1.721544,1.408032,0.453991,-0.110126,0.033734,-0.044099,0.999936,0.008608,0.007040,0.002270,0.039887,-0.773513,0.026829,0.631955,-172.011851,78.461634,2.552694
54845,-12.669330,3.791935,-1.063332,-1.800148,-4.045341,2.693885,-0.639804,-0.504142,-0.887874,-0.126496,0.038446,-0.011075,0.999982,-0.003199,-0.002521,-0.004439,0.040247,-0.772116,0.021313,0.633848,-169.695529,78.673416,5.290306
54846,-7.487568,-2.530223,-2.847905,1.496733,2.098621,-1.816998,-1.505484,0.231378,-1.468287,-0.075093,-0.024964,-0.028203,0.999944,-0.007527,0.001157,-0.007341,0.039027,-0.773243,0.010957,0.632812,-166.660236,78.376056,9.267840
54847,-8.557983,-5.213096,-4.992752,3.497470,4.535421,-0.192902,-0.484894,0.266444,-0.596259,-0.085801,-0.051996,-0.049687,0.999992,-0.002424,0.001332,-0.002981,0.038985,-0.774172,0.007211,0.631733,-165.542828,78.153658,10.693229
54848,-9.759544,-1.685009,-2.042906,0.127215,1.147731,0.233597,0.618909,0.130800,-0.245742,-0.097629,-0.016667,-0.020417,0.999994,0.003095,0.000654,-0.001229,0.042118,-0.774447,0.008278,0.631180,-164.657002,78.050222,11.236326
54849,-9.807741,-0.333380,-1.597179,-0.419443,-0.206064,0.118844,-0.230811,0.169363,-0.492214,-0.098099,-0.003111,-0.015885,0.999996,-0.001154,0.000847,-0.002461,0.042734,-0.775014,0.005718,0.630472,-163.661268,77.887459,12.389942
54850,-9.635399,-2.307067,-1.735207,-0.146882,1.710502,0.098252,-0.519799,0.056185,-0.655572,-0.096434,-0.022800,-0.017265,0.999991,-0.002599,0.000281,-0.003278,0.042750,-0.775293,0.001589,0.630151,-162.360023,77.752270,14.026049
54851,-9.104025,-2.071529,-1.248383,-0.544906,1.492786,-0.527888,-0.018613,0.127582,-0.398915,-0.091089,-0.020535,-0.012424,0.999998,-0.000093,0.000638,-0.001995,0.043898,-0.775667,0.000049,0.629614,-161.497321,77.619602,14.920253
54852,-9.380743,-1.275912,-1.326988,-0.589310,0.644836,-0.293027,-0.080231,0.224058,-0.404818,-0.093848,-0.012574,-0.013160,0.999997,-0.000401,0.001120,-0.002024,0.044827,-0.776367,-0.001687,0.628682,-160.759331,77.428614,15.723388
54853,-9.373905,-2.221952,-1.490989,-0.397816,1.541161,-0.195170,-0.091293,0.136490,-0.409853,-0.093794,-0.022034,-0.014836,0.999998,-0.000456,0.000682,-0.002049,0.045728,-0.776778,-0.003498,0.628103,-159.958662,77.283874,16.597803
54854,-9.211075,-2.364436,-1.792452,-0.079878,1.640567,-0.275948,0.179736,0.211818,-0.302021,-0.092165,-0.023489,-0.017848,0.999998,0.000899,0.001059,-0.001510,0.047344,-0.777375,-0.004020,0.627241,-159.346479,77.115539,17.120199
54855,-9.354193,-1.897510,-1.939540,-0.007778,1.126038,-0.138229,0.337997,0.198974,-0.272240,-0.093587,-0.018815,-0.019334,0.999997,0.001690,0.000995,-0.001361,0.049483,-0.777877,-0.003936,0.626453,-158.710645,76.961119,17.574139
54856,-9.140635,-1.137456,-1.607407,-0.342266,0.379747,-0.476342,0.479035,0.186555,-0.220449,-0.091434,-0.011235,-0.016016,0.999996,0.002395,0.000933,-0.001102,0.052005,-0.778315,-0.003209,0.625708,-158.118875,76.820978,17.900150
54857,-9.529246,-0.364459,-1.928446,-0.180610,-0.467085,-0.096343,0.437687,0.293618,-0.209573,-0.095324,-0.003503,-0.019152,0.999996,0.002188,0.001468,-0.001048,0.054337,-0.779080,-0.002545,0.624561,-157.676761,76.627820,18.096923
54858,-9.716944,0.284048,-1.909143,-0.306077,-1.149121,0.022466,0.272254,0.183033,-0.231866,-0.097183,0.002979,-0.018999,0.999998,0.001361,0.000915,-0.001159,0.056090,-0.779552,-0.002511,0.623816,-157.193207,76.485788,18.433933
54859,-9.221981,0.133314,-1.864062,-0.248957,-0.984782,-0.458247,0.003830,0.185010,-0.309456,-0.092235,0.001476,-0.018555,0.999998,0.000019,0.000925,-0.001547,0.057040,-0.780089,-0.003618,0.623052,-156.699691,76.326822,18.939597
54860,-9.303722,-0.652858,-2.330716,0.216730,-0.276142,-0.205691,-0.082923,0.228400,-0.337610,-0.093075,-0.006381,-0.023198,0.999998,-0.000415,0.001142,-0.001688,0.057738,-0.780797,-0.005091,0.622091,-156.253067,76.135483,19.448571
54861,-9.491004,-0.710169,-2.429451,0.250788,-0.270277,0.003099,-0.047068,0.216637,-0.336031,-0.094948,-0.006948,-0.024190,0.999998,-0.000235,0.001083,-0.001680,0.058572,-0.781440,-0.006451,0.621191,-155.786514,75.951882,19.957280
54862,-9.366047,-0.576893,-2.251042,0.076481,-0.406195,-0.171532,-0.080659,0.175119,-0.353297,-0.093690,-0.005613,-0.022426,0.999998,-0.000403,0.000876,-0.001766,0.059325,-0.781975,-0.007993,0.620429,-155.281690,75.782641,20.525737
54863,-9.244410,-0.986989,-2.141943,0.004057,-0.008674,-0.272196,-0.112171,0.187332,-0.361644,-0.092482,-0.009715,-0.021327,0.999998,-0.000561,0.000937,-0.001808,0.059983,-0.782540,-0.009663,0.619628,-154.797715,75.605964,21.091693
54864,-9.303688,-0.973487,-1.943639,-0.223071,-0.039645,-0.261112,-0.071447,0.177025,-0.336921,-0.093070,-0.009585,-0.019351,0.999998,-0.000357,0.000885,-0.001685,0.060721,-0.783073,-0.011112,0.618859,-154.347035,75.437459,21.599653
54865,-9.422430,-0.383630,-1.722961,-0.518990,-0.645667,-0.262210,-0.110990,0.205771,-0.333059,-0.094248,-0.003689,-0.017131,0.999998,-0.000555,0.001029,-0.001665,0.061295,-0.783691,-0.012661,0.617990,-153.960460,75.256266,22.065106
54866,-9.394457,-0.292744,-1.897032,-0.369469,-0.773532,-0.262540,-0.296943,0.193465,-0.355969,-0.093968,-0.002788,-0.018875,0.999997,-0.001485,0.000967,-0.001780,0.061210,-0.784335,-0.014876,0.617131,-153.638702,75.072794,22.574182
54867,-9.042416,-1.204816,-2.108453,-0.056015,0.125657,-0.450881,-0.456143,0.208758,-0.377642,-0.090469,-0.011925,-0.020963,0.999995,-0.002281,0.001044,-0.001888,0.060567,-0.785054,-0.017664,0.616206,-153.387099,74.877458,23.105441
54868,-9.210528,-1.492013,-2.494406,0.263555,0.341337,-0.164066,-0.175958,0.262347,-0.339099,-0.092163,-0.014786,-0.024810,0.999997,-0.000880,0.001312,-0.001695,0.060910,-0.785865,-0.019419,0.615085,-153.112812,74.661852,23.494419
54869,-9.222700,-1.234107,-2.949862,0.663950,0.025918,-0.074038,-0.068289,0.231926,-0.323862,-0.092281,-0.012202,-0.029387,0.999998,-0.000341,0.001160,-0.001619,0.061626,-0.786534,-0.020794,0.614113,-152.781441,74.467296,23.878910
54870,-9.083032,-1.246015,-3.069764,0.791813,0.016810,-0.176811,0.006130,0.206959,-0.330029,-0.090882,-0.012309,-0.030604,0.999998,0.000031,0.001035,-0.001650,0.062651,-0.787113,-0.021972,0.613226,-152.386028,74.281080,24.286071
54871,-9.363257,0.066027,-2.432606,0.030171,-1.298139,-0.225908,0.204245,0.197520,-0.278706,-0.093655,0.000816,-0.024233,0.999998,0.001021,0.000988,-0.001394,0.064297,-0.787591,-0.022344,0.612427,-151.965392,74.114532,24.601730
54872,-9.499909,0.819430,-2.161878,-0.318014,-2.070211,-0.262482,-0.005353,0.195100,-0.355726,-0.095005,0.008363,-0.021526,0.999998,-0.000027,0.000976,-0.001779,0.065353,-0.788130,-0.023660,0.611572,-151.538655,73.925761,25.049030
54873,-9.325312,0.154648,-2.183262,-0.243249,-1.428586,-0.344225,-0.146033,0.179493,-0.487709,-0.093269,0.001758,-0.021750,0.999996,-0.000730,0.000897,-0.002439,0.066254,-0.788636,-0.025931,0.610730,-150.957604,73.709418,25.741313
54874,-9.294684,-0.463071,-2.521432,0.095543,-0.880204,-0.211693,-0.064247,0.221415,-0.514843,-0.092986,-0.004399,-0.025110,0.999996,-0.000321,0.001107,-0.002574,0.067567,-0.789245,-0.028046,0.609705,-150.344364,73.460487,26.419206
54875,-9.249888,-0.896815,-2.978668,0.542848,-0.526099,-0.083071,0.003051,0.203651,-0.565252,-0.092554,-0.008706,-0.029693,0.999995,0.000015,0.001018,-0.002826,0.069294,-0.789752,-0.030158,0.608753,-149.609745,73.205778,27.184355
54876,-9.207441,-1.373887,-3.048792,0.618606,-0.110108,-0.036977,0.221739,0.183172,-0.602235,-0.092143,-0.013428,-0.030419,0.999994,0.001109,0.000916,-0.003011,0.071996,-0.790119,-0.031760,0.607881,-148.696750,72.945060,28.006103
54877,-9.283524,-0.801059,-3.231679,0.736479,-0.765382,-0.007556,0.481816,0.181367,-0.594829,-0.092888,-0.007657,-0.032251,0.999992,0.002409,0.000907,-0.002974,0.075699,-0.790368,-0.032540,0.607067,-147.669394,72.685436,28.792633
54878,-9.401459,-0.178127,-2.843697,0.290378,-1.437474,-0.099056,0.480585,0.127303,-0.668222,-0.094038,-0.001399,-0.028381,0.999991,0.002403,0.000637,-0.003341,0.079612,-0.790439,-0.033635,0.606414,-146.507076,72.422597,29.722582
54879,-9.184572,-1.056664,-1.972135,-0.465512,-0.542406,-0.386619,0.459751,0.075947,-0.780955,-0.091893,-0.010163,-0.019710,0.999990,0.002299,0.000380,-0.003905,0.083771,-0.790318,-0.035256,0.605918,-145.168577,72.143772,30.851318
54880,-9.727536,-1.308799,-3.231736,0.599979,-0.582243,0.486931,0.633471,0.268197,-0.819851,-0.097371,-0.012587,-0.032227,0.999986,0.003167,0.001341,-0.004099,0.088770,-0.790692,-0.036426,0.604648,-143.913640,71.752645,31.789697
