// General information: 
//  MT Manager version: 2022.0.0 
//  XDA version: 2022.0.0 build 7085 rev 119802 built on 2022-11-08
// Device information: 
//  DeviceId: 00B472EC
//  ProductCode: MTW2-3A7G6
//  Firmware Version: 4.4.0
//  Hardware Version: 2.0.0
// Device settings: 
//  Filter Profile: human(46.1)
//  Option Flags: Orientation Smoother Disabled, Position/Velocity Smoother Disabled, Continuous Zero Rotation Update Disabled, AHS Disabled, ICC Disabled
// Coordinate system: ENU
PacketCounter,Acc_X,Acc_Y,Acc_Z,FreeAcc_E,FreeAcc_N,FreeAcc_U,Gyr_X,Gyr_Y,Gyr_Z,VelInc_X,VelInc_Y,VelInc_Z,OriInc_q0,OriInc_q1,OriInc_q2,OriInc_q3,Quat_q0,Quat_q1,Quat_q2,Quat_q3,Roll,Pitch,Yaw
02127,-6.367484,7.310753,0.683893,-0.229627,0.025843,-0.096399,0.101799,0.047180,0.005486,-0.063675,0.073102,0.006891,1.000000,0.000509,0.000236,0.000027,0.278704,0.618835,-0.306544,-0.667382,86.498135,40.929375,-95.981852
02128,-6.438199,7.471222,0.561924,-0.113611,-0.032146,0.065135,0.107607,0.038485,-0.001729,-0.064380,0.074710,0.005672,1.000000,0.000538,0.000192,-0.000009,0.278448,0.619077,-0.306886,-0.667107,86.575758,40.925534,-95.957534
02129,-6.485924,7.679726,0.653718,-0.213800,-0.125439,0.257630,0.119172,0.036573,0.000107,-0.064858,0.076793,0.006595,1.000000,0.000596,0.000183,0.000001,0.278154,0.619334,-0.307271,-0.666813,86.660237,40.921421,-95.933573
02130,-6.517156,7.827198,0.679631,-0.248998,-0.194973,0.390265,0.108863,0.027456,0.000113,-0.065171,0.078268,0.006848,1.000000,0.000544,0.000137,0.000001,0.277883,0.619538,-0.307638,-0.666567,86.733171,40.916112,-95.917462
02131,-6.464294,7.920686,0.897434,-0.479264,-0.279923,0.435322,0.069138,0.015265,0.000077,-0.064642,0.079204,0.009007,1.000000,0.000346,0.000076,0.000000,0.277712,0.619654,-0.307885,-0.666417,86.778404,40.911282,-95.909649
02132,-6.430450,7.715524,0.867111,-0.452908,-0.171137,0.256944,0.021979,0.000963,0.001066,-0.064305,0.077154,0.008680,1.000000,0.000110,0.000005,0.000005,0.277672,0.619648,-0.308002,-0.666385,86.788421,40.904550,-95.913637
02133,-6.358039,7.580305,0.884675,-0.474166,-0.134704,0.108268,-0.024674,0.002856,0.000875,-0.063581,0.075804,0.008838,1.000000,-0.000123,0.000014,0.000004,0.277775,0.619591,-0.307957,-0.666416,86.773772,40.898862,-95.915187
02134,-6.355606,7.407220,0.767849,-0.352944,-0.030019,-0.028784,-0.047053,0.003359,-0.000033,-0.063556,0.074074,0.007662,1.000000,-0.000235,0.000017,-0.000000,0.277949,0.619498,-0.307838,-0.666485,86.745367,40.892831,-95.917468
02135,-6.353954,7.425127,0.699878,-0.282154,-0.046711,-0.019155,-0.043857,0.008121,0.007052,-0.063542,0.074251,0.006985,1.000000,-0.000219,0.000041,0.000035,0.278139,0.619422,-0.307740,-0.666521,86.722514,40.883780,-95.914760
02136,-6.340534,7.416599,0.650056,-0.230458,-0.053452,-0.036445,-0.032896,0.003874,0.000638,-0.063405,0.074167,0.006490,1.000000,-0.000164,0.000019,0.000003,0.278273,0.619350,-0.307669,-0.666566,86.702500,40.877382,-95.916561
02137,-6.331273,7.449034,0.660044,-0.239516,-0.079896,-0.017534,-0.015448,0.002705,0.009211,-0.063316,0.074488,0.006596,1.000000,-0.000077,0.000014,0.000046,0.278375,0.619292,-0.307680,-0.666571,86.693309,40.866918,-95.917849
02138,-6.319074,7.417113,0.703763,-0.281754,-0.063202,-0.047639,-0.015311,-0.010766,0.015521,-0.063197,0.074167,0.007029,1.000000,-0.000077,-0.000054,0.000078,0.278481,0.619172,-0.307734,-0.666614,86.676548,40.851532,-95.930126
02139,-6.339218,7.400447,0.725661,-0.299721,-0.033090,-0.046011,-0.005960,-0.016968,0.021532,-0.063401,0.073998,0.007249,1.000000,-0.000030,-0.000085,0.000108,0.278564,0.619043,-0.307843,-0.666649,86.663426,40.833365,-95.945739
02140,-6.398192,7.307673,0.727328,-0.293543,0.075161,-0.077384,-0.003955,-0.024099,0.019150,-0.063990,0.073071,0.007264,1.000000,-0.000020,-0.000120,0.000096,0.278626,0.618889,-0.307964,-0.666710,86.646699,40.815453,-95.967891
02141,-6.392577,7.268016,0.668057,-0.232615,0.095577,-0.113607,0.009959,-0.027780,0.014524,-0.063932,0.072675,0.006675,1.000000,0.000050,-0.000139,0.000073,0.278620,0.618757,-0.308119,-0.666763,86.637174,40.800926,-95.991965
02142,-6.349008,7.298183,0.651407,-0.218984,0.043981,-0.120019,0.032460,-0.026721,0.002891,-0.063492,0.072980,0.006517,1.000000,0.000162,-0.000134,0.000014,0.278511,0.618670,-0.308315,-0.666799,86.639550,40.792220,-96.016818
02143,-6.304043,7.257168,0.690978,-0.262351,0.041101,-0.178665,0.047428,-0.028948,0.001666,-0.063042,0.072570,0.006918,1.000000,0.000237,-0.000145,0.000008,0.278344,0.618606,-0.308557,-0.666816,86.650555,40.785009,-96.042339
02144,-6.290840,7.248913,0.636603,-0.210666,0.034308,-0.195977,0.055997,-0.024405,-0.003781,-0.062908,0.072489,0.006379,1.000000,0.000280,-0.000122,-0.000019,0.278145,0.618570,-0.308808,-0.666817,86.667381,40.780200,-96.065655
02145,-6.315943,7.284063,0.667238,-0.242242,0.033166,-0.151728,0.071390,-0.027707,-0.008310,-0.063157,0.072841,0.006690,1.000000,0.000357,-0.000139,-0.000042,0.277872,0.618559,-0.309096,-0.666807,86.692443,40.778749,-96.090677
02146,-6.332049,7.357162,0.682532,-0.259569,-0.001010,-0.085347,0.064124,-0.035082,-0.015890,-0.063316,0.073574,0.006838,1.000000,0.000321,-0.000175,-0.000079,0.277591,0.618516,-0.309351,-0.666845,86.708309,40.780544,-96.122596
02147,-6.376985,7.409653,0.592009,-0.168544,-0.008102,-0.020298,0.058516,-0.031248,-0.020441,-0.063763,0.074101,0.005932,1.000000,0.000293,-0.000156,-0.000102,0.277312,0.618494,-0.309564,-0.666883,86.723902,40.785927,-96.150822
02148,-6.505781,7.534738,0.596050,-0.163668,0.006266,0.158567,0.014397,-0.043804,-0.026998,-0.065049,0.075356,0.005952,1.000000,0.000072,-0.000219,-0.000135,0.277133,0.618370,-0.309632,-0.667041,86.706625,40.793805,-96.190003
02149,-6.483989,7.485483,0.613369,-0.178370,0.020885,0.107924,-0.021053,-0.058073,-0.039757,-0.064827,0.074868,0.006107,1.000000,-0.000105,-0.000290,-0.000199,0.276994,0.618178,-0.309557,-0.667311,86.662816,40.809337,-96.239357
02150,-6.379921,7.464193,0.717276,-0.284109,-0.040242,0.028538,-0.035749,-0.059574,-0.059652,-0.063779,0.074662,0.007140,1.000000,-0.000179,-0.000298,-0.000298,0.276836,0.617983,-0.309378,-0.667641,86.608033,40.835307,-96.291911
02151,-6.232150,7.298352,0.686385,-0.256241,-0.050792,-0.194553,-0.069742,-0.049762,-0.071004,-0.062297,0.073008,0.006823,1.000000,-0.000349,-0.000249,-0.000355,0.276756,0.617799,-0.309033,-0.668004,86.539428,40.868922,-96.336472
02152,-6.168392,7.102885,0.571301,-0.137011,0.014609,-0.388918,-0.062764,-0.038961,-0.078964,-0.061657,0.071055,0.005679,1.000000,-0.000314,-0.000195,-0.000395,0.276650,0.617665,-0.308674,-0.668337,86.478659,40.906567,-96.374303
02153,-6.190448,7.045448,0.513067,-0.070905,0.058285,-0.420414,-0.031550,-0.038301,-0.068075,-0.061881,0.070476,0.005108,1.000000,-0.000158,-0.000192,-0.000340,0.276480,0.617568,-0.308450,-0.668601,86.437577,40.938844,-96.410191
02154,-6.219168,7.088260,0.502417,-0.055342,0.045544,-0.369765,0.014294,-0.037389,-0.066117,-0.062169,0.070903,0.005018,1.000000,0.000071,-0.000187,-0.000331,0.276181,0.617525,-0.308386,-0.668793,86.422034,40.969163,-96.446381
02155,-6.271716,7.184331,0.452049,-0.001395,0.013112,-0.265268,0.040830,-0.041668,-0.063993,-0.062695,0.071862,0.004522,1.000000,0.000204,-0.000208,-0.000320,0.275795,0.617510,-0.308421,-0.668951,86.420807,40.998969,-96.484686
02156,-6.364796,7.394670,0.428262,0.026491,-0.062105,-0.046899,0.068489,-0.043305,-0.067880,-0.063624,0.073967,0.004294,1.000000,0.000342,-0.000217,-0.000339,0.275314,0.617525,-0.308541,-0.669079,86.433267,41.030101,-96.525497
02157,-6.351233,7.575306,0.548795,-0.099046,-0.187825,0.085773,0.060798,-0.049626,-0.072159,-0.063486,0.075774,0.005495,1.000000,0.000304,-0.000248,-0.000361,0.274827,0.617523,-0.308628,-0.669241,86.439217,41.064300,-96.570249
02158,-6.289715,7.553770,0.544058,-0.100520,-0.225747,0.028801,0.050292,-0.045895,-0.073721,-0.062871,0.075560,0.005445,1.000000,0.000251,-0.000229,-0.000369,0.274377,0.617513,-0.308674,-0.669414,86.439726,41.098687,-96.613414
02159,-6.328705,7.546278,0.592510,-0.146137,-0.193644,0.050934,0.040826,-0.041287,-0.067168,-0.063263,0.075483,0.005927,1.000000,0.000204,-0.000206,-0.000336,0.273981,0.617504,-0.308698,-0.669574,86.438481,41.130330,-96.651644
02160,-6.313917,7.416147,0.561155,-0.114195,-0.126385,-0.058167,0.023958,-0.038235,-0.064270,-0.063116,0.074181,0.005608,1.000000,0.000120,-0.000191,-0.000321,0.273657,0.617469,-0.308673,-0.669750,86.427965,41.159574,-96.688521
02161,-6.290334,7.312580,0.562174,-0.115312,-0.080669,-0.151510,0.025028,-0.036575,-0.062441,-0.062882,0.073145,0.005619,1.000000,0.000125,-0.000183,-0.000312,0.273333,0.617446,-0.308652,-0.669913,86.420114,41.188675,-96.722993
02162,-6.260767,7.312235,0.512860,-0.068845,-0.110918,-0.173602,0.040657,-0.035802,-0.060168,-0.062587,0.073140,0.005132,1.000000,0.000203,-0.000179,-0.000301,0.272974,0.617435,-0.308693,-0.670051,86.420466,41.215656,-96.757902
02163,-6.331287,7.343364,0.444223,0.003950,-0.088740,-0.107038,0.050647,-0.031223,-0.062428,-0.063291,0.073452,0.004451,1.000000,0.000253,-0.000156,-0.000312,0.272579,0.617465,-0.308751,-0.670157,86.429930,41.244941,-96.788333
02164,-6.394431,7.382835,0.477651,-0.026406,-0.070170,-0.034266,0.056211,-0.027041,-0.071280,-0.063919,0.073850,0.004789,1.000000,0.000281,-0.000135,-0.000356,0.272149,0.617522,-0.308797,-0.670258,86.443216,41.278588,-96.817007
02165,-6.442483,7.342368,0.516515,-0.062591,-0.010789,-0.031138,0.054500,-0.030673,-0.084543,-0.064395,0.073449,0.005175,1.000000,0.000272,-0.000153,-0.000423,0.271669,0.617593,-0.308798,-0.670387,86.454437,41.320548,-96.848080
02166,-6.420618,7.242889,0.491154,-0.040066,0.029126,-0.121323,0.063189,-0.030801,-0.103375,-0.064169,0.072461,0.004925,1.000000,0.000316,-0.000154,-0.000517,0.271103,0.617696,-0.308774,-0.670532,86.468802,41.372420,-96.881176
02167,-6.303895,7.158119,0.520580,-0.081317,-0.008950,-0.260616,0.063391,-0.034363,-0.126131,-0.062995,0.071619,0.005218,1.000000,0.000317,-0.000172,-0.000631,0.270450,0.617830,-0.308681,-0.670715,86.481905,41.438044,-96.917040
02168,-6.297745,6.921297,0.536970,-0.096812,0.134217,-0.441088,0.073509,-0.035625,-0.132320,-0.062933,0.069253,0.005384,1.000000,0.000368,-0.000178,-0.000662,0.269747,0.617975,-0.308609,-0.670898,86.498744,41.506345,-96.955324
02169,-6.303700,6.716208,0.509932,-0.069710,0.261585,-0.591471,0.098046,-0.031095,-0.140492,-0.062991,0.067204,0.005122,1.000000,0.000490,-0.000155,-0.000702,0.268944,0.618189,-0.308584,-0.671035,86.532841,41.580314,-96.989374
02170,-6.443196,6.578187,0.346570,0.102509,0.431714,-0.608855,0.132594,-0.038646,-0.157752,-0.064381,0.065830,0.003497,0.999999,0.000663,-0.000193,-0.000789,0.267968,0.618441,-0.308634,-0.671169,86.581171,41.663101,-97.031095
02171,-6.579255,6.800157,0.269390,0.178322,0.364355,-0.355588,0.176037,-0.042664,-0.183883,-0.065731,0.068060,0.002740,0.999999,0.000880,-0.000213,-0.000919,0.266760,0.618786,-0.308751,-0.671279,86.652730,41.761542,-97.075888
02172,-6.727157,6.941102,0.373147,0.075899,0.371492,-0.146821,0.154656,-0.047612,-0.218791,-0.067196,0.069482,0.003769,0.999999,0.000773,-0.000238,-0.001094,0.265496,0.619131,-0.308698,-0.671487,86.707305,41.879028,-97.127101
02173,-6.706403,6.980154,0.479831,-0.041680,0.318031,-0.126321,0.141498,-0.052416,-0.262979,-0.066973,0.069886,0.004830,0.999999,0.000707,-0.000262,-0.001315,0.264113,0.619517,-0.308466,-0.671783,86.751659,42.022461,-97.182779
02174,-6.658172,6.767571,0.604918,-0.170920,0.410665,-0.310094,0.082993,-0.049304,-0.306180,-0.066480,0.067775,0.006061,0.999999,0.000415,-0.000247,-0.001531,0.262774,0.619893,-0.307903,-0.672219,86.761500,42.189924,-97.239177
02175,-6.617429,6.298951,0.422514,0.017098,0.650399,-0.690063,0.048254,-0.056369,-0.356190,-0.066063,0.063106,0.004222,0.999998,0.000241,-0.000282,-0.001781,0.261359,0.620284,-0.307072,-0.672790,86.747236,42.386567,-97.302211
02176,-6.634622,6.082405,0.377033,0.067848,0.771840,-0.837413,0.067119,-0.049575,-0.409282,-0.066222,0.060958,0.003774,0.999998,0.000336,-0.000248,-0.002046,0.259720,0.620793,-0.306134,-0.673382,86.744254,42.613028,-97.363655
02177,-6.762736,5.897331,0.137357,0.318792,0.931803,-0.892937,0.114621,-0.043035,-0.458408,-0.067492,0.059127,0.001393,0.999997,0.000573,-0.000215,-0.002292,0.257773,0.621466,-0.305190,-0.673938,86.771336,42.868579,-97.421256
02178,-6.773736,6.015744,0.166005,0.277483,0.819882,-0.793218,0.197252,-0.029985,-0.517028,-0.067582,0.060331,0.001709,0.999996,0.000986,-0.000150,-0.002585,0.255395,0.622367,-0.304326,-0.674402,86.849676,43.157374,-97.472126
02179,-6.860282,5.968239,0.178964,0.260662,0.869454,-0.763308,0.197774,-0.027400,-0.565175,-0.068434,0.059874,0.001839,0.999996,0.000989,-0.000137,-0.002826,0.252850,0.623354,-0.303305,-0.674909,86.929465,43.474590,-97.521730
02180,-6.842674,6.090377,-0.121255,0.537121,0.692505,-0.693409,0.254332,-0.029275,-0.626728,-0.068235,0.061119,-0.001145,0.999994,0.001272,-0.000146,-0.003134,0.249921,0.624486,-0.302286,-0.675411,87.037820,43.826311,-97.575907
02181,-6.628657,5.992975,0.174971,0.206159,0.578759,-0.895980,0.265340,0.003057,-0.684325,-0.066081,0.060154,0.001830,0.999993,0.001327,0.000015,-0.003422,0.246803,0.625827,-0.301077,-0.675856,87.170130,44.212723,-97.605005
02182,-6.582833,5.683855,0.119455,0.244920,0.697960,-1.146278,0.363930,0.055811,-0.718170,-0.065623,0.057072,0.001317,0.999992,0.001820,0.000279,-0.003591,0.243343,0.627503,-0.300028,-0.676023,87.387334,44.619322,-97.592652
02183,-6.618522,5.765819,0.069572,0.259829,0.601402,-1.059133,0.432021,0.117140,-0.736210,-0.065972,0.057900,0.000859,0.999991,0.002160,0.000586,-0.003681,0.239692,0.629492,-0.299071,-0.675902,87.681096,45.038391,-97.527788
02184,-6.685634,5.579617,0.029159,0.274539,0.717006,-1.138545,0.525976,0.143451,-0.725586,-0.066653,0.056037,0.000487,0.999990,0.002630,0.000717,-0.003628,0.235820,0.631649,-0.298430,-0.675536,88.046049,45.451039,-97.438327
02185,-6.889306,5.599613,-0.022745,0.294267,0.782319,-0.974159,0.668549,0.151442,-0.698234,-0.068697,0.056236,0.000012,0.999988,0.003343,0.000757,-0.003491,0.231592,0.633952,-0.298338,-0.674881,88.502961,45.848322,-97.335740
02186,-7.112526,5.656935,0.099709,0.132047,0.854127,-0.765513,0.773744,0.141359,-0.682078,-0.070931,0.056807,0.001267,0.999986,0.003869,0.000707,-0.003410,0.227069,0.636297,-0.298659,-0.674069,89.017711,46.234990,-97.236610
02187,-7.301829,5.493333,0.225336,-0.022854,1.061897,-0.734388,0.800827,0.100455,-0.683998,-0.072829,0.055173,0.002511,0.999986,0.004004,0.000502,-0.003420,0.222382,0.638526,-0.299101,-0.673326,89.529108,46.622435,-97.164764
02188,-7.613354,5.309832,-0.020500,0.205998,1.321536,-0.627458,0.815944,0.084067,-0.712832,-0.075944,0.053369,0.000044,0.999985,0.004080,0.000420,-0.003564,0.217523,0.640736,-0.299514,-0.672631,90.042332,47.025339,-97.102155
02189,-8.003935,5.070637,-0.344180,0.526138,1.656908,-0.492281,0.810558,0.063319,-0.768426,-0.079845,0.051027,-0.003210,0.999984,0.004053,0.000317,-0.003842,0.212452,0.642941,-0.299742,-0.672046,90.545521,47.460324,-97.050035
02190,-8.449421,5.143035,-1.005548,1.154134,1.742743,-0.092372,0.920614,0.023092,-0.867150,-0.084271,0.051842,-0.009808,0.999980,0.004603,0.000115,-0.004336,0.206632,0.645246,-0.300057,-0.671510,91.091141,47.951345,-97.025593
02191,-8.425587,6.005020,-1.008681,0.991191,1.001079,0.486933,1.098585,-0.029202,-1.011747,-0.083949,0.060530,-0.009767,0.999972,0.005493,-0.000146,-0.005059,0.199660,0.647753,-0.300541,-0.670990,91.714611,48.526229,-97.034279
02192,-8.055830,6.141185,-0.403090,0.266111,0.641072,0.301151,1.147014,-0.077634,-1.130400,-0.080208,0.061888,-0.003708,0.999968,0.005735,-0.000388,-0.005652,0.192052,0.650278,-0.300834,-0.670636,92.342744,49.169615,-97.072995
02193,-7.937304,6.228672,-0.051667,-0.184455,0.444324,0.265345,1.174605,-0.099968,-1.223868,-0.078990,0.062773,-0.000189,0.999964,0.005873,-0.000500,-0.006119,0.183991,0.652858,-0.300916,-0.670353,92.983453,49.867776,-97.116117
02194,-8.073106,5.839919,0.002772,-0.248233,0.717786,0.122163,1.035391,-0.110314,-1.297710,-0.080350,0.058920,0.000287,0.999965,0.005177,-0.000552,-0.006488,0.176112,0.655334,-0.300280,-0.670339,93.546972,50.608342,-97.154911
02195,-8.503635,5.106734,-0.276130,0.109451,1.373883,0.014090,0.980895,-0.157943,-1.371268,-0.084681,0.051662,-0.002576,0.999964,0.004904,-0.000790,-0.006856,0.168077,0.657673,-0.299240,-0.670576,94.058058,51.393393,-97.221095
02196,-8.716842,5.391089,-0.659527,0.391752,1.082710,0.392910,1.054789,-0.217465,-1.474514,-0.086761,0.054586,-0.006403,0.999958,0.005274,-0.001087,-0.007372,0.159355,0.659973,-0.298136,-0.670937,94.580159,52.239954,-97.325873
02197,-8.522798,5.788896,-0.067845,-0.342938,0.622189,0.465784,1.002394,-0.227615,-1.564953,-0.084771,0.058556,-0.000483,0.999956,0.005012,-0.001138,-0.007825,0.150470,0.662281,-0.296539,-0.671421,95.078884,53.139566,-97.421572
02198,-8.431430,5.680827,0.555661,-1.004485,0.626512,0.299972,0.861265,-0.229252,-1.612495,-0.083859,0.057461,0.005707,0.999958,0.004306,-0.001146,-0.008062,0.141881,0.664487,-0.294289,-0.672102,95.504892,54.066469,-97.505532
02199,-8.644015,5.354723,0.596868,-1.018708,0.863102,0.285003,0.626707,-0.199284,-1.646179,-0.086002,0.054237,0.006052,0.999961,0.003133,-0.000996,-0.008231,0.133987,0.666627,-0.291092,-0.672994,95.830655,55.011543,-97.547057
02200,-9.008576,4.877835,0.184386,-0.535260,1.201686,0.348451,0.423028,-0.186876,-1.676854,-0.089674,0.049527,0.001864,0.999962,0.002115,-0.000934,-0.008384,0.126679,0.668661,-0.287078,-0.674115,96.056649,55.973133,-97.567070
02201,-9.210849,5.027671,-0.871033,0.434562,0.791310,0.678164,0.402649,-0.212529,-1.747070,-0.091655,0.051096,-0.008706,0.999959,0.002013,-0.001063,-0.008735,0.119154,0.670650,-0.282753,-0.675338,96.261704,56.976667,-97.598442
02202,-8.647227,6.189795,-0.833331,0.055534,-0.632405,0.835143,0.497445,-0.219950,-1.803833,-0.085900,0.062695,-0.008273,0.999956,0.002487,-0.001100,-0.009019,0.111101,0.672688,-0.278540,-0.676434,96.524029,58.012759,-97.625489
02203,-8.016840,6.080237,0.194670,-1.017606,-0.817470,0.165813,0.510189,-0.192398,-1.773986,-0.079627,0.061505,0.002026,0.999957,0.002551,-0.000962,-0.008870,0.103132,0.674733,-0.274430,-0.677339,96.824935,59.030384,-97.616014
02204,-8.053697,5.854678,1.029926,-1.824948,-0.578747,0.012403,0.426138,-0.159598,-1.688418,-0.080047,0.059202,0.010361,0.999962,0.002131,-0.000798,-0.008442,0.095776,0.676667,-0.270285,-0.678155,97.106793,59.996703,-97.572439
02205,-8.476629,5.198044,0.559580,-1.226013,-0.086772,0.070292,0.118547,-0.141881,-1.609691,-0.084348,0.052657,0.005567,0.999967,0.000593,-0.000709,-0.008048,0.089742,0.678366,-0.265336,-0.679237,97.229361,60.917239,-97.510207
02206,-8.792926,4.334896,0.040043,-0.525631,0.517258,-0.037070,0.043652,-0.135114,-1.553219,-0.087589,0.044030,0.000351,0.999970,0.000218,-0.000676,-0.007766,0.084161,0.679932,-0.260306,-0.680332,97.311836,61.804790,-97.444896
02207,-8.898589,3.886738,-0.059448,-0.344115,0.778092,-0.139554,0.144080,-0.114199,-1.512968,-0.088688,0.039539,-0.000617,0.999971,0.000720,-0.000571,-0.007565,0.078393,0.681524,-0.255728,-0.681163,97.476412,62.668199,-97.352771
02208,-9.053687,3.855662,-0.317562,-0.111104,0.671455,0.009290,0.206113,-0.073459,-1.481253,-0.090247,0.039229,-0.003169,0.999972,0.001031,-0.000367,-0.007406,0.072573,0.683194,-0.251441,-0.681731,97.724604,63.510035,-97.207047
02209,-9.593511,3.889924,-1.020711,0.550718,0.566807,0.559502,0.263867,-0.027453,-1.447457,-0.095649,0.039606,-0.010168,0.999973,0.001319,-0.000137,-0.007237,0.066722,0.684968,-0.247435,-0.682014,98.069492,64.329027,-96.991950
02210,-10.178779,4.032028,-1.527598,0.988435,0.420467,1.189234,0.407175,-0.044453,-1.446806,-0.101489,0.041086,-0.015215,0.999972,0.002036,-0.000222,-0.007234,0.060361,0.686688,-0.243912,-0.682146,98.492754,65.148117,-96.782088
02211,-10.467696,4.330903,-1.711520,1.049650,0.071948,1.595601,0.643639,-0.133490,-1.485761,-0.104340,0.044140,-0.017044,0.999967,0.003218,-0.000667,-0.007429,0.052939,0.688187,-0.241074,-0.682260,98.971624,65.996558,-96.661733
02212,-10.350091,5.157824,-1.676193,0.732906,-0.868229,1.816715,0.903546,-0.275764,-1.545823,-0.103075,0.052451,-0.016669,0.999959,0.004518,-0.001379,-0.007729,0.044246,0.689287,-0.238936,-0.682521,99.446175,66.891303,-96.709027
02213,-9.645797,5.585400,-0.792133,-0.331338,-1.460166,1.260746,1.011660,-0.376074,-1.551924,-0.096006,0.056640,-0.007817,0.999955,0.005058,-0.001880,-0.007760,0.035033,0.690022,-0.237148,-0.682938,99.865268,67.799513,-96.883547
02214,-9.369419,4.938817,0.221209,-1.194938,-0.868255,0.677454,1.028425,-0.406801,-1.494863,-0.093326,0.050075,0.002278,0.999957,0.005142,-0.002034,-0.007474,0.025921,0.690521,-0.235599,-0.683375,100.242530,68.678741,-97.112067
02215,-9.551665,4.281155,0.405961,-1.218832,-0.308568,0.586583,0.888015,-0.433171,-1.444097,-0.095213,0.043482,0.004045,0.999962,0.004440,-0.002166,-0.007220,0.017430,0.690802,-0.233729,-0.684002,100.491876,69.532833,-97.390317
02216,-9.739602,3.574793,-0.219518,-0.436087,0.057429,0.555141,0.788145,-0.455125,-1.407477,-0.097136,0.036441,-0.002274,0.999965,0.003941,-0.002276,-0.007037,0.009386,0.690901,-0.231631,-0.684774,100.633126,70.368596,-97.720942
02217,-9.604405,3.444282,-0.488498,-0.174528,-0.097459,0.400272,0.789465,-0.462231,-1.390922,-0.095790,0.035129,-0.004969,0.999965,0.003947,-0.002311,-0.006955,0.001382,0.690913,-0.229577,-0.685516,100.752036,71.196392,-98.074568
02218,-9.454006,3.415342,-0.520317,-0.171692,-0.270839,0.247580,0.807268,-0.433356,-1.373339,-0.094291,0.034823,-0.005268,0.999966,0.004036,-0.002167,-0.006867,-0.006587,0.690952,-0.227630,-0.686095,100.911616,72.011108,-98.394134
02219,-9.427422,3.345493,-0.322444,-0.370459,-0.289165,0.184818,0.803405,-0.392147,-1.359741,-0.094037,0.034108,-0.003273,0.999967,0.004017,-0.001961,-0.006799,-0.014452,0.691076,-0.225702,-0.686486,101.133843,72.814345,-98.644427
02220,-9.488549,3.820318,-0.429274,-0.464843,-0.865866,0.377710,0.756276,-0.300064,-1.350360,-0.094618,0.038859,-0.004289,0.999969,0.003781,-0.001500,-0.006752,-0.022014,0.691460,-0.223639,-0.686574,101.495616,73.601962,-98.719484
02221,-9.582837,4.792953,-1.049597,-0.256104,-2.056678,0.751758,0.520893,-0.228671,-1.314279,-0.095499,0.048585,-0.010479,0.999974,0.002604,-0.001143,-0.006571,-0.028560,0.692041,-0.220885,-0.686639,101.864385,74.361543,-98.646852
02222,-9.476318,5.050152,-1.466975,-0.003391,-2.589051,0.711187,0.289275,-0.169716,-1.215434,-0.094441,0.051097,-0.014676,0.999980,0.001446,-0.000849,-0.006077,-0.033896,0.692711,-0.217680,-0.686744,102.195348,75.058133,-98.475936
02223,-9.579391,5.263377,-1.221746,-0.346707,-2.787159,0.820789,0.385661,-0.148355,-1.076192,-0.095500,0.053172,-0.012186,0.999983,0.001928,-0.000742,-0.005381,-0.039066,0.693268,-0.215281,-0.686664,102.589764,75.674296,-98.297195
02224,-9.142027,5.937909,-0.040293,-1.745569,-3.189822,0.464189,0.472331,-0.246133,-0.941010,-0.091139,0.059809,-0.000374,0.999985,0.002362,-0.001231,-0.004705,-0.044174,0.693300,-0.213626,-0.686839,102.763757,76.226434,-98.397228
02225,-7.948819,6.197084,1.014336,-2.886542,-3.410714,-0.721435,0.091354,-0.267149,-0.773267,-0.079261,0.062273,0.010066,0.999992,0.000457,-0.001336,-0.003866,-0.047409,0.693154,-0.211231,-0.687511,102.582827,76.687967,-98.637684
02226,-7.663263,5.626967,0.536598,-2.243996,-3.194469,-1.127309,-0.440199,-0.096865,-0.581190,-0.076471,0.056504,0.005205,0.999993,-0.002201,-0.000484,-0.002906,-0.047958,0.693500,-0.207716,-0.688195,102.385541,77.020113,-98.581735
02227,-8.412373,4.846548,-0.895080,-0.593533,-2.871982,-0.514434,-0.552822,0.074601,-0.402762,-0.084029,0.048610,-0.009054,0.999994,-0.002764,0.000373,-0.002014,-0.047327,0.694275,-0.204467,-0.688430,102.450892,77.231965,-98.190302
02228,-8.908940,4.282982,-1.696662,0.374025,-2.555544,-0.121399,-0.395791,0.130431,-0.265641,-0.089044,0.042914,-0.016993,0.999997,-0.001979,0.000652,-0.001328,-0.046707,0.695053,-0.202251,-0.688342,102.672254,77.359194,-97.731417
02229,-8.973392,3.782532,-1.723539,0.570319,-2.105870,-0.166966,-0.240399,0.156031,-0.141630,-0.089721,0.037868,-0.017211,0.999999,-0.001202,0.000780,-0.000708,-0.046179,0.695760,-0.201000,-0.688029,102.986375,77.414173,-97.268896
02230,-8.964378,3.373193,-1.281995,0.286674,-1.584344,-0.284326,-0.076167,0.170885,-0.039467,-0.089648,0.033745,-0.012756,1.000000,-0.000381,0.000854,-0.000197,-0.045851,0.696371,-0.200679,-0.687527,103.370128,77.408770,-96.831508
02231,-8.912535,3.414900,-0.788958,-0.205634,-1.459277,-0.349841,0.061379,0.182877,0.048578,-0.089141,0.034130,-0.007798,1.000000,0.000307,0.000914,0.000243,-0.045692,0.696909,-0.201134,-0.686859,103.812553,77.352856,-96.414683
02232,-8.877409,3.830521,-0.648477,-0.496605,-1.784378,-0.301056,0.125298,0.194215,0.123864,-0.088804,0.038254,-0.006375,0.999999,0.000626,0.000971,0.000619,-0.045481,0.697388,-0.202079,-0.686109,104.264396,77.251939,-96.025654
02233,-9.128292,3.941481,-0.802673,-0.400199,-1.860512,-0.020674,0.207917,0.172251,0.208926,-0.091331,0.039328,-0.007907,0.999999,0.001040,0.000861,0.001045,-0.045293,0.697691,-0.203593,-0.685365,104.653707,77.107209,-95.749078
02234,-9.316885,3.319394,-0.652292,-0.332683,-1.169977,0.024416,0.126563,0.141996,0.273243,-0.093219,0.033071,-0.006436,0.999999,0.000633,0.000710,0.001366,-0.044626,0.697836,-0.205051,-0.684827,104.872000,76.930011,-95.600043
02235,-9.634813,1.989549,-0.842536,0.309598,0.080998,0.056218,0.012518,0.148455,0.290260,-0.096383,0.019756,-0.008353,0.999999,0.000063,0.000742,0.001451,-0.043502,0.698015,-0.206173,-0.684380,105.029040,76.743255,-95.446647
02236,-9.869412,0.771448,-1.322808,1.181510,1.110650,0.042294,0.114072,0.196933,0.240056,-0.098716,0.007604,-0.013127,0.999999,0.000570,0.000985,0.001200,-0.042848,0.698381,-0.207484,-0.683651,105.379503,76.575879,-95.154203
02237,-9.895198,0.618740,-1.503362,1.386631,1.217551,0.043916,0.358834,0.287404,0.129732,-0.098977,0.006150,-0.014880,0.999997,0.001794,0.001437,0.000649,-0.043338,0.699122,-0.209257,-0.682321,106.143959,76.455537,-94.580017
02238,-9.882629,1.102684,-1.533883,1.212523,0.779293,0.145094,0.558692,0.352139,0.024228,-0.098854,0.011057,-0.015134,0.999995,0.002793,0.001761,0.000121,-0.044813,0.700139,-0.211363,-0.680532,107.225667,76.379439,-93.797058
02239,-9.863162,1.735596,-1.171997,0.605638,0.336977,0.246502,0.679591,0.344929,-0.027688,-0.098649,0.017409,-0.011491,0.999993,0.003398,0.001725,-0.000138,-0.046899,0.701156,-0.213687,-0.678615,108.391907,76.330185,-92.998148
02240,-9.809762,2.087058,-0.589893,-0.106058,0.221932,0.230947,0.627108,0.251005,-0.030450,-0.098102,0.020904,-0.005710,0.999994,0.003136,0.001255,-0.000152,-0.048906,0.701856,-0.215805,-0.677078,109.310999,76.295574,-92.422549
02241,-9.623147,2.169597,-0.176859,-0.552096,0.260361,0.034684,0.494109,0.145991,-0.013392,-0.096231,0.021707,-0.001645,0.999997,0.002471,0.000730,-0.000067,-0.050507,0.702213,-0.217499,-0.676048,109.908867,76.270960,-92.099059
02242,-9.347897,2.238198,-0.152068,-0.621907,0.148776,-0.220664,0.365844,0.085375,-0.013549,-0.093478,0.022391,-0.001440,0.999998,0.001829,0.000427,-0.000068,-0.051718,0.702388,-0.218749,-0.675370,110.294764,76.256910,-91.918121
02243,-9.177275,2.374310,-0.171619,-0.670701,-0.016865,-0.355466,0.255504,0.092479,-0.018664,-0.091771,0.023754,-0.001643,0.999999,0.001278,0.000462,-0.000093,-0.052556,0.702626,-0.219602,-0.674781,110.640532,76.244701,-91.713380
02244,-9.162505,2.349965,-0.282452,-0.571790,-0.036134,-0.366771,0.137434,0.105365,-0.028660,-0.091623,0.023515,-0.002760,1.000000,0.000687,0.000527,-0.000143,-0.052993,0.702942,-0.220032,-0.674277,110.950727,76.234159,-91.475614
02245,-9.216137,2.174246,-0.342568,-0.459378,0.114107,-0.349187,0.039638,0.088097,-0.026244,-0.092160,0.021755,-0.003381,1.000000,0.000198,0.000440,-0.000131,-0.053103,0.703229,-0.220130,-0.673937,111.168787,76.226403,-91.275000
02246,-9.176987,2.138245,-0.273477,-0.515425,0.163463,-0.401440,-0.067961,0.051653,-0.027817,-0.091768,0.021394,-0.002718,1.000000,-0.000340,0.000258,-0.000139,-0.052875,0.703417,-0.219856,-0.673848,111.242933,76.226141,-91.159084
02247,-9.119796,2.148375,-0.378376,-0.423213,0.100991,-0.445721,-0.180254,0.023348,-0.022172,-0.091196,0.021490,-0.003792,1.000000,-0.000901,0.000117,-0.000111,-0.052269,0.703539,-0.219210,-0.673979,111.190338,76.229505,-91.107415
02248,-9.060012,2.048167,-0.490822,-0.277984,0.133687,-0.516206,-0.232843,0.000412,-0.023083,-0.090598,0.020486,-0.004932,0.999999,-0.001164,0.000002,-0.000115,-0.051501,0.703592,-0.218383,-0.674251,111.054237,76.237343,-91.110695
02249,-9.051969,2.014628,-0.679302,-0.085334,0.090512,-0.515223,-0.282730,-0.004606,-0.028605,-0.090517,0.020150,-0.006824,0.999999,-0.001414,-0.000023,-0.000143,-0.050587,0.703652,-0.217361,-0.674589,110.887227,76.249933,-91.116376
02250,-9.073029,1.802235,-0.894327,0.199755,0.206727,-0.523711,-0.288460,-0.000923,-0.024949,-0.090728,0.018021,-0.008970,0.999999,-0.001442,-0.000005,-0.000125,-0.049631,0.703713,-0.216339,-0.674923,110.717671,76.259050,-91.121287
02251,-9.152415,1.692049,-0.970573,0.316908,0.296789,-0.464788,-0.245581,0.006939,-0.015734,-0.091523,0.016916,-0.009723,0.999999,-0.001228,0.000035,-0.000079,-0.048791,0.703786,-0.215489,-0.675181,110.586330,76.262399,-91.112159
02252,-9.194823,1.658824,-0.960820,0.324380,0.340551,-0.431939,-0.191675,0.005297,-0.014142,-0.091947,0.016586,-0.009622,1.000000,-0.000958,0.000026,-0.000071,-0.048133,0.703831,-0.214833,-0.675390,110.476852,76.264478,-91.112307
02253,-9.198839,1.711222,-0.988289,0.333917,0.284707,-0.414226,-0.149409,0.005459,-0.006251,-0.091988,0.017108,-0.009893,1.000000,-0.000747,0.000027,-0.000031,-0.047601,0.703864,-0.214341,-0.675550,110.389552,76.263040,-91.114567
02254,-9.231010,1.700520,-0.982997,0.336081,0.305088,-0.385939,-0.096868,0.001475,0.006580,-0.092311,0.016997,-0.009838,1.000000,-0.000484,0.000007,0.000033,-0.047210,0.703851,-0.214076,-0.675675,110.309141,76.254766,-91.140710
02255,-9.269680,1.852915,-0.994514,0.294004,0.173902,-0.313601,-0.048491,-0.005445,0.010737,-0.092698,0.018522,-0.009952,1.000000,-0.000242,-0.000027,0.000054,-0.046987,0.703804,-0.213982,-0.675769,110.241945,76.246361,-91.181800
02256,-9.330415,2.015616,-1.006053,0.248030,0.039141,-0.217457,-0.000214,-0.003190,0.020107,-0.093306,0.020147,-0.010062,1.000000,-0.000001,-0.000016,0.000101,-0.046896,0.703738,-0.214090,-0.675810,110.195908,76.231736,-91.229571
02257,-9.358281,2.133431,-1.041042,0.238819,-0.070865,-0.161228,0.049028,-0.000584,0.020308,-0.093585,0.021327,-0.010405,1.000000,0.000245,-0.000003,0.000102,-0.046979,0.703675,-0.214360,-0.675785,110.187657,76.217209,-91.267504
02258,-9.429975,2.214315,-1.095207,0.259834,-0.143605,-0.069025,0.097509,0.003395,0.022315,-0.094302,0.022138,-0.010940,1.000000,0.000488,0.000017,0.000112,-0.047217,0.703605,-0.214808,-0.675698,110.210434,76.200091,-91.302078
02259,-9.432651,2.203381,-0.998212,0.172002,-0.095848,-0.076803,0.122588,0.006795,0.022271,-0.094329,0.022029,-0.009965,1.000000,0.000613,0.000034,0.000111,-0.047545,0.703547,-0.215335,-0.675568,110.258935,76.183052,-91.324977
02260,-9.510471,2.209707,-1.021514,0.189575,-0.088762,0.002175,0.148677,0.005221,0.016825,-0.095107,0.022097,-0.010196,1.000000,0.000743,0.000026,0.000084,-0.047979,0.703477,-0.215936,-0.675418,110.319474,76.168531,-91.350861
02261,-9.526460,2.343615,-0.891054,0.016027,-0.157154,0.036931,0.155908,0.004052,0.005378,-0.095265,0.023441,-0.008890,1.000000,0.000780,0.000020,0.000027,-0.048484,0.703419,-0.216516,-0.675257,110.394651,76.161125,-91.365952
02262,-9.472825,2.458011,-0.862185,-0.056621,-0.261483,0.008107,0.153158,0.002107,0.000102,-0.094728,0.024587,-0.008602,1.000000,0.000766,0.000011,0.000001,-0.048994,0.703355,-0.217073,-0.675108,110.464470,76.156214,-91.384926
02263,-9.507452,2.556674,-0.849744,-0.107444,-0.336172,0.062824,0.119200,0.002460,0.011507,-0.095076,0.025566,-0.008481,1.000000,0.000596,0.000012,0.000058,-0.049350,0.703293,-0.217549,-0.674993,110.510110,76.145846,-91.408777
02264,-9.544872,2.587939,-0.753864,-0.208519,-0.319039,0.098168,0.082217,-0.019623,0.007553,-0.095449,0.025879,-0.007537,1.000000,0.000411,-0.000098,0.000038,-0.049609,0.703164,-0.217887,-0.674999,110.485946,76.141291,-91.482690
02265,-9.485476,2.603710,-0.833464,-0.139870,-0.375645,0.050758,0.059309,-0.023381,0.009289,-0.094855,0.026035,-0.008338,1.000000,0.000297,-0.000117,0.000046,-0.049791,0.703032,-0.218147,-0.675040,110.442891,76.137288,-91.562552
02266,-9.447297,2.510119,-0.800158,-0.134310,-0.287721,-0.010058,0.030819,-0.016424,0.003808,-0.094473,0.025101,-0.008005,1.000000,0.000154,-0.000082,0.000019,-0.049878,0.702931,-0.218299,-0.675089,110.399326,76.134067,-91.626122
02267,-9.484857,2.311395,-0.798474,-0.059341,-0.098550,-0.018333,-0.006637,-0.011196,0.009943,-0.094849,0.023109,-0.007991,1.000000,-0.000033,-0.000056,0.000050,-0.049812,0.702855,-0.218342,-0.675159,110.344540,76.127251,-91.679151
02268,-9.466572,2.174735,-0.758243,-0.043122,0.036140,-0.070140,-0.027657,-0.006417,0.013102,-0.094667,0.021740,-0.007588,1.000000,-0.000138,-0.000032,0.000066,-0.049652,0.702792,-0.218332,-0.675240,110.281835,76.117012,-91.727929
02269,-9.473246,2.165067,-0.853766,0.051577,0.012971,-0.057894,-0.029067,-0.007441,0.009599,-0.094733,0.021645,-0.008544,1.000000,-0.000145,-0.000037,0.000048,-0.049504,0.702736,-0.218299,-0.675320,110.222763,76.109610,-91.772139
02270,-9.466265,2.176877,-0.755930,-0.041410,0.037484,-0.070138,-0.027889,-0.001425,0.003858,-0.094663,0.021766,-0.007563,1.000000,-0.000139,-0.000007,0.000019,-0.049369,0.702700,-0.218257,-0.675381,110.178316,76.103334,-91.801974
02271,-9.459638,2.193688,-0.807084,0.000993,0.002812,-0.068540,-0.018277,0.002720,-0.002421,-0.094596,0.021937,-0.008072,1.000000,-0.000091,0.000014,-0.000012,-0.049289,0.702687,-0.218220,-0.675412,110.157190,76.100374,-91.813464
02272,-9.426127,2.265023,-0.768189,-0.061042,-0.054738,-0.088204,0.008369,-0.001973,-0.002349,-0.094261,0.022652,-0.007682,1.000000,0.000042,-0.000010,-0.000012,-0.049302,0.702647,-0.218279,-0.675433,110.137320,76.097541,-91.839381
02273,-9.429425,2.253402,-0.668072,-0.148857,-0.006951,-0.095898,0.003504,-0.003449,-0.007405,-0.094293,0.022538,-0.006682,1.000000,0.000018,-0.000017,-0.000037,-0.049322,0.702614,-0.218297,-0.675460,110.119245,76.098477,-91.860585
02274,-9.429155,2.196062,-0.685942,-0.109746,0.038296,-0.107604,0.018952,-0.009611,0.000785,-0.094291,0.021961,-0.006862,1.000000,0.000095,-0.000048,0.000004,-0.049370,0.702543,-0.218400,-0.675498,110.086348,76.095457,-91.906166
02275,-9.442650,2.168706,-0.730564,-0.056671,0.050403,-0.096984,0.029229,-0.013753,0.005639,-0.094427,0.021685,-0.007309,1.000000,0.000146,-0.000069,0.000028,-0.049448,0.702454,-0.218548,-0.675536,110.050263,76.091394,-91.961109
02276,-9.471026,2.105729,-0.695966,-0.063200,0.127260,-0.086506,0.039379,-0.018098,0.006870,-0.094710,0.021055,-0.006964,1.000000,0.000197,-0.000090,0.000034,-0.049557,0.702342,-0.218740,-0.675583,110.005842,76.086753,-92.030619
02277,-9.471348,2.163240,-0.676810,-0.100604,0.083365,-0.074770,0.041160,-0.020470,0.010450,-0.094714,0.021629,-0.006773,1.000000,0.000206,-0.000102,0.000052,-0.049667,0.702223,-0.218944,-0.675633,109.958254,76.081394,-92.104456
02278,-9.485524,2.250230,-0.684698,-0.123726,0.006589,-0.040679,0.035163,-0.017164,0.007130,-0.094855,0.022500,-0.006851,1.000000,0.000176,-0.000086,0.000036,-0.049759,0.702114,-0.219122,-0.675681,109.913322,76.076408,-92.172004
02279,-9.497685,2.282696,-0.686334,-0.132305,-0.019855,-0.021371,0.023057,-0.021453,0.002694,-0.094976,0.022826,-0.006871,1.000000,0.000115,-0.000107,0.000013,-0.049833,0.702004,-0.219237,-0.675753,109.859402,76.075390,-92.241682
02280,-9.453854,2.319088,-0.667258,-0.161524,-0.056291,-0.057202,0.007886,-0.024192,-0.005203,-0.094537,0.023194,-0.006683,1.000000,0.000039,-0.000121,-0.000026,-0.049879,0.701892,-0.219278,-0.675852,109.793265,76.078387,-92.314974
02281,-9.387590,2.287996,-0.666348,-0.148716,-0.044695,-0.128593,-0.005285,-0.023593,-0.006086,-0.093874,0.022883,-0.006675,1.000000,-0.000026,-0.000118,-0.000030,-0.049886,0.701792,-0.219266,-0.675960,109.725298,76.082480,-92.382392
02282,-9.354926,2.185512,-0.703882,-0.072759,0.025290,-0.180418,-0.007719,-0.025026,-0.002227,-0.093548,0.021856,-0.007051,1.000000,-0.000039,-0.000125,-0.000011,-0.049867,0.701678,-0.219265,-0.676080,109.646009,76.083989,-92.460018
02283,-9.308679,2.110763,-0.696171,-0.049275,0.083652,-0.242836,-0.004785,-0.026782,-0.002384,-0.093086,0.021109,-0.006975,1.000000,-0.000024,-0.000134,-0.000012,-0.049867,0.701563,-0.219266,-0.676199,109.568440,76.086655,-92.537622
02284,-9.307082,2.113566,-0.669556,-0.071835,0.090322,-0.245874,-0.000740,-0.024014,0.002678,-0.093070,0.021134,-0.006707,1.000000,-0.000004,-0.000120,0.000013,-0.049855,0.701445,-0.219306,-0.676310,109.491528,76.085274,-92.616916
02285,-9.351175,2.077433,-0.684432,-0.040891,0.128102,-0.210054,0.003218,-0.026749,0.007931,-0.093512,0.020771,-0.006856,1.000000,0.000016,-0.000134,0.000040,-0.049848,0.701316,-0.219371,-0.676422,109.410652,76.082309,-92.702652
02286,-9.353261,2.132468,-0.688272,-0.054666,0.078382,-0.195230,0.012697,-0.024202,0.010785,-0.093533,0.021320,-0.006893,1.000000,0.000063,-0.000121,0.000054,-0.049857,0.701185,-0.219485,-0.676521,109.334865,76.076536,-92.788717
02287,-9.405356,2.256505,-0.746084,-0.044335,-0.041101,-0.111887,0.006327,-0.017501,0.007391,-0.094054,0.022562,-0.007468,1.000000,0.000032,-0.000088,0.000037,-0.049852,0.701088,-0.219560,-0.676597,109.276442,76.072060,-92.853158
02288,-9.439416,2.242200,-0.765070,-0.018564,-0.026583,-0.080560,0.020058,-0.019803,0.001004,-0.094394,0.022422,-0.007658,1.000000,0.000100,-0.000099,0.000005,-0.049914,0.700981,-0.219666,-0.676670,109.222019,76.070704,-92.921560
02289,-9.415540,2.234902,-0.739758,-0.037276,-0.016374,-0.107392,0.034102,-0.026988,0.005658,-0.094155,0.022348,-0.007406,1.000000,0.000171,-0.000135,0.000028,-0.050023,0.700846,-0.219827,-0.676749,109.160185,76.068920,-93.005914
02290,-9.417375,2.232586,-0.762122,-0.012861,-0.021603,-0.104361,0.030846,-0.027132,0.009533,-0.094174,0.022323,-0.007631,1.000000,0.000154,-0.000136,0.000048,-0.050103,0.700702,-0.219997,-0.676837,109.089540,76.064288,-93.097399
02291,-9.420990,2.227592,-0.808840,0.034878,-0.032908,-0.098309,0.038085,-0.024325,0.008895,-0.094210,0.022273,-0.008096,1.000000,0.000190,-0.000122,0.000044,-0.050212,0.700572,-0.220183,-0.676903,109.033420,76.060207,-93.178218
02292,-9.427415,2.211608,-0.755845,-0.005797,0.003123,-0.099881,0.068123,-0.028682,0.008613,-0.094274,0.022115,-0.007564,1.000000,0.000341,-0.000143,0.000043,-0.050427,0.700414,-0.220476,-0.676955,108.981549,76.056317,-93.272368
02293,-9.393336,2.226672,-0.734606,-0.029875,-0.010071,-0.131185,0.071739,-0.022621,0.011754,-0.093934,0.022264,-0.007349,1.000000,0.000359,-0.000113,0.000059,-0.050642,0.700278,-0.220787,-0.676978,108.946366,76.050337,-93.351486
02294,-9.403217,2.205443,-0.731049,-0.023584,0.014046,-0.126710,0.066923,-0.014682,0.015461,-0.094033,0.022050,-0.007310,1.000000,0.000335,-0.000073,0.000077,-0.050814,0.700160,-0.221102,-0.676985,108.919336,76.040103,-93.419335
02295,-9.457398,2.204680,-0.727048,-0.025414,0.030771,-0.074618,0.086811,-0.014698,0.013942,-0.094575,0.022043,-0.007268,1.000000,0.000434,-0.000073,0.000070,-0.051066,0.700044,-0.221474,-0.676964,108.908546,76.031449,-93.482223
02296,-9.477461,2.218733,-0.703024,-0.051939,0.033819,-0.053823,0.109517,-0.018049,0.021392,-0.094776,0.022181,-0.007027,1.000000,0.000548,-0.000090,0.000107,-0.051371,0.699897,-0.221953,-0.676936,108.894293,76.018617,-93.562059
02297,-9.487343,2.255256,-0.682559,-0.083981,0.013356,-0.037489,0.124481,-0.021024,0.025762,-0.094876,0.022545,-0.006822,1.000000,0.000622,-0.000105,0.000129,-0.051721,0.699736,-0.222492,-0.676898,108.882643,76.004721,-93.648082
02298,-9.567316,2.316914,-0.709283,-0.080825,-0.029795,0.056320,0.114471,-0.016460,0.028134,-0.095676,0.023160,-0.007087,1.000000,0.000572,-0.000082,0.000141,-0.052019,0.699585,-0.223012,-0.676860,108.869865,75.987932,-93.729331
02299,-9.722021,2.447901,-0.689382,-0.146045,-0.099050,0.234901,0.099008,-0.017048,0.034758,-0.097224,0.024466,-0.006890,1.000000,0.000495,-0.000085,0.000174,-0.052245,0.699434,-0.223497,-0.676839,108.845819,75.968411,-93.813100
02300,-9.811955,2.545911,-0.693904,-0.175673,-0.163231,0.345074,0.061088,-0.028570,0.036279,-0.098123,0.025443,-0.006945,1.000000,0.000305,-0.000143,0.000181,-0.052342,0.699247,-0.223862,-0.676905,108.770467,75.949415,-93.927333
02301,-9.804997,2.564889,-0.743371,-0.133262,-0.197916,0.346658,0.032211,-0.043596,0.031802,-0.098052,0.025634,-0.007451,1.000000,0.000161,-0.000218,0.000159,-0.052375,0.699027,-0.224103,-0.677050,108.653192,75.936327,-94.067769
02302,-9.750361,2.568535,-0.743426,-0.129716,-0.213309,0.294600,0.008046,-0.056021,0.015974,-0.097504,0.025678,-0.007461,1.000000,0.000040,-0.000280,0.000080,-0.052385,0.698783,-0.224210,-0.677265,108.503229,75.933251,-94.227601
02303,-9.649867,2.553709,-0.719086,-0.141895,-0.215628,0.191903,-0.002867,-0.059606,0.009686,-0.096498,0.025532,-0.007220,1.000000,-0.000014,-0.000298,0.000048,-0.052388,0.698542,-0.224252,-0.677500,108.347456,75.934913,-94.387010
02304,-9.555812,2.522384,-0.642200,-0.195526,-0.182515,0.087658,-0.012594,-0.067878,0.003476,-0.095556,0.025222,-0.006456,1.000000,-0.000063,-0.000339,0.000017,-0.052383,0.698277,-0.224242,-0.677777,108.168894,75.940542,-94.564135
02305,-9.421372,2.464171,-0.613913,-0.194443,-0.154224,-0.058218,-0.009827,-0.075257,0.001693,-0.094212,0.024641,-0.006176,1.000000,-0.000049,-0.000376,0.000008,-0.052406,0.697994,-0.224227,-0.678071,107.980597,75.949103,-94.752953
02306,-9.395665,2.403100,-0.576485,-0.198319,-0.093504,-0.099929,-0.017725,-0.071149,0.003971,-0.093955,0.024029,-0.005800,1.000000,-0.000089,-0.000356,0.000020,-0.052384,0.697718,-0.224201,-0.678365,107.791274,75.954752,-94.938128
02307,-9.353645,2.494549,-0.559356,-0.242519,-0.180524,-0.120684,-0.032402,-0.067728,0.006817,-0.093535,0.024941,-0.005629,1.000000,-0.000162,-0.000339,0.000034,-0.052303,0.697460,-0.224130,-0.678660,107.602520,75.958902,-95.114075
02308,-9.341687,2.463514,-0.549265,-0.232252,-0.152785,-0.140024,-0.049863,-0.062322,0.013452,-0.093417,0.024627,-0.005528,1.000000,-0.000249,-0.000312,0.000067,-0.052127,0.697212,-0.224030,-0.678961,107.407278,75.957546,-95.286365
02309,-9.289345,2.399463,-0.465024,-0.279315,-0.076659,-0.211557,-0.061708,-0.046150,0.017448,-0.092894,0.023985,-0.004679,1.000000,-0.000309,-0.000231,0.000087,-0.051883,0.697023,-0.223902,-0.679216,107.241581,75.951922,-95.421237
02310,-9.369570,2.347620,-0.520376,-0.199706,-0.030858,-0.141591,-0.093359,-0.029823,0.024845,-0.093698,0.023462,-0.005229,1.000000,-0.000467,-0.000149,0.000124,-0.051480,0.696884,-0.223702,-0.679456,107.084949,75.938583,-95.528043
02311,-9.453737,2.290487,-0.624764,-0.073275,0.002896,-0.065666,-0.106802,-0.020302,0.023745,-0.094539,0.022890,-0.006269,1.000000,-0.000534,-0.000102,0.000119,-0.051029,0.696787,-0.223449,-0.679672,106.946060,75.924999,-95.608657
02312,-9.487384,2.336326,-0.622823,-0.085604,-0.026986,-0.022451,-0.106788,-0.016370,0.032653,-0.094877,0.023344,-0.006248,1.000000,-0.000534,-0.000082,0.000163,-0.050538,0.696687,-0.223235,-0.679882,106.806434,75.905013,-95.690008
02313,-9.653643,2.395516,-0.759118,0.028462,-0.087408,0.162237,-0.124110,-0.016157,0.044870,-0.096541,0.023929,-0.007614,1.000000,-0.000621,-0.000081,0.000224,-0.049950,0.696585,-0.222998,-0.680108,106.653314,75.879056,-95.775083
02314,-9.825414,2.611052,-0.788395,-0.013439,-0.245651,0.381301,-0.136454,-0.032912,0.051767,-0.098260,0.026080,-0.007918,1.000000,-0.000682,-0.000165,0.000259,-0.049308,0.696415,-0.222744,-0.680412,106.448962,75.851163,-95.905671
02315,-9.849867,2.971613,-0.843466,-0.086713,-0.580369,0.493497,-0.131495,-0.069895,0.045195,-0.098502,0.029688,-0.008489,1.000000,-0.000657,-0.000349,0.000226,-0.048753,0.696130,-0.222470,-0.680833,106.175312,75.833524,-96.110707
02316,-9.661023,3.136767,-0.643929,-0.324402,-0.698670,0.336003,-0.133772,-0.091139,0.051379,-0.096615,0.031339,-0.006504,1.000000,-0.000669,-0.000456,0.000257,-0.048188,0.695760,-0.222209,-0.681336,105.847212,75.814734,-96.370543
02317,-9.458079,3.101890,-0.471163,-0.461879,-0.650865,0.120187,-0.157498,-0.080420,0.067351,-0.094589,0.030983,-0.004774,1.000000,-0.000787,-0.000402,0.000337,-0.047478,0.695420,-0.221920,-0.681827,105.523540,75.785957,-96.611847
02318,-9.373478,2.986638,-0.304554,-0.560622,-0.502710,0.000967,-0.193586,-0.061154,0.087657,-0.093747,0.029822,-0.003103,0.999999,-0.000968,-0.000306,0.000438,-0.046548,0.695125,-0.221589,-0.682299,105.206665,75.741831,-96.824820
02319,-9.311061,2.900963,-0.386431,-0.439400,-0.464779,-0.073506,-0.256897,-0.040923,0.115449,-0.093127,0.028951,-0.003921,0.999999,-0.001284,-0.000205,0.000577,-0.045285,0.694888,-0.221137,-0.682772,104.886560,75.679907,-97.003769
02320,-9.193545,2.819935,-0.474403,-0.315546,-0.442943,-0.200062,-0.309865,-0.010311,0.151106,-0.091956,0.028122,-0.004792,0.999999,-0.001549,-0.000052,0.000756,-0.043677,0.694720,-0.220641,-0.683208,104.580714,75.592624,-97.136704
02321,-9.221566,2.768753,-0.480774,-0.275143,-0.378100,-0.183788,-0.306721,0.017934,0.189663,-0.092242,0.027593,-0.004842,0.999998,-0.001534,0.000090,0.000948,-0.041922,0.694609,-0.220288,-0.683545,104.322207,75.480654,-97.222697
02322,-9.319535,2.757323,-0.659299,-0.087346,-0.389078,-0.079642,-0.317437,0.035234,0.216811,-0.093226,0.027462,-0.006620,0.999998,-0.001587,0.000176,0.001084,-0.040013,0.694521,-0.220003,-0.683840,104.078864,75.350159,-97.286697
02323,-9.352744,2.894412,-0.956542,0.156503,-0.587863,0.005473,-0.332089,0.039217,0.248077,-0.093565,0.028812,-0.009595,0.999998,-0.001660,0.000196,0.001240,-0.037946,0.694419,-0.219769,-0.684137,103.825401,75.202584,-97.352548
02324,-9.370378,3.095453,-0.964546,0.109380,-0.741838,0.074364,-0.285760,0.029144,0.275093,-0.093748,0.030812,-0.009676,0.999998,-0.001429,0.000146,0.001375,-0.035954,0.694234,-0.219791,-0.684425,103.563307,75.040323,-97.454817
02325,-9.245904,3.343359,-0.741137,-0.173257,-0.892083,0.005059,-0.212821,-0.014866,0.300858,-0.092509,0.033287,-0.007454,0.999998,-0.001064,-0.000074,0.001504,-0.034180,0.693861,-0.220137,-0.684783,103.246617,74.870360,-97.656998
02326,-8.892370,3.559497,-0.556114,-0.413161,-1.086111,-0.288871,-0.228768,-0.042305,0.341678,-0.088983,0.035437,-0.005621,0.999998,-0.001144,-0.000212,0.001708,-0.032236,0.693343,-0.220571,-0.685263,102.848090,74.679862,-97.934678
02327,-8.708346,3.656830,-0.466134,-0.513773,-1.160691,-0.441792,-0.269907,-0.031273,0.392489,-0.087154,0.036391,-0.004724,0.999997,-0.001350,-0.000156,0.001962,-0.029968,0.692816,-0.221034,-0.685749,102.437147,74.460046,-98.201076
02328,-8.560628,3.740468,-0.444419,-0.542318,-1.233235,-0.557536,-0.319727,-0.011181,0.450711,-0.085690,0.037204,-0.004509,0.999996,-0.001599,-0.000056,0.002254,-0.027300,0.692289,-0.221537,-0.686230,102.019095,74.203653,-98.445507
02329,-8.517267,4.005839,-0.524778,-0.531497,-1.471869,-0.516620,-0.389473,0.023451,0.506179,-0.085274,0.039832,-0.005315,0.999995,-0.001947,0.000117,0.002531,-0.024168,0.691830,-0.221988,-0.686665,101.620118,73.912661,-98.628883
02330,-8.385707,4.447089,-0.672307,-0.516740,-1.909490,-0.504883,-0.494070,0.077940,0.570483,-0.083986,0.044215,-0.006800,0.999993,-0.002470,0.000390,0.002852,-0.020385,0.691484,-0.222313,-0.687031,101.248244,73.577945,-98.721884
02331,-8.317231,4.409669,-0.556393,-0.582092,-1.804044,-0.574867,-0.606652,0.147319,0.648753,-0.083319,0.043810,-0.005636,0.999990,-0.003033,0.000737,0.003244,-0.015874,0.691294,-0.222519,-0.687274,100.925610,73.192521,-98.696365
02332,-8.362777,4.266482,-0.499262,-0.552248,-1.583094,-0.561927,-0.694701,0.215456,0.731647,-0.083788,0.042341,-0.005050,0.999987,-0.003473,0.001077,0.003658,-0.010690,0.691231,-0.222716,-0.687374,100.651584,72.752011,-98.567192
02333,-8.436777,4.005983,-0.755722,-0.187816,-1.339250,-0.540752,-0.818201,0.274517,0.813744,-0.084540,0.039685,-0.007604,0.999982,-0.004091,0.001373,0.004069,-0.004738,0.691271,-0.222760,-0.687386,100.391080,72.260427,-98.349322
02334,-8.582077,3.774191,-0.965282,0.123509,-1.070590,-0.449665,-0.798650,0.321203,0.899112,-0.086005,0.037317,-0.009664,0.999981,-0.003993,0.001606,0.004496,0.001499,0.691343,-0.223168,-0.687196,100.192586,71.714985,-98.077391
02335,-8.705930,3.885665,-1.100165,0.252477,-1.080402,-0.280107,-0.703285,0.350175,0.982010,-0.087268,0.038390,-0.010985,0.999980,-0.003516,0.001751,0.004910,0.007716,0.691403,-0.224173,-0.686767,100.071360,71.121325,-97.780697
02336,-8.760527,4.078656,-1.320687,0.434375,-1.197980,-0.143065,-0.609128,0.361816,1.059641,-0.087843,0.040281,-0.013171,0.999980,-0.003046,0.001809,0.005298,0.013894,0.691384,-0.225769,-0.686166,99.991225,70.481620,-97.496513
02337,-8.927943,4.303133,-1.413840,0.489987,-1.256841,0.107146,-0.478789,0.353085,1.142582,-0.089548,0.042487,-0.014083,0.999979,-0.002394,0.001765,0.005713,0.019889,0.691229,-0.228081,-0.685409,99.944306,69.797331,-97.255257
02338,-8.956029,4.588548,-1.250492,0.277514,-1.332631,0.235926,-0.361365,0.313301,1.225696,-0.089859,0.045313,-0.012447,0.999978,-0.001807,0.001566,0.006128,0.025724,0.690818,-0.231086,-0.684623,99.873854,69.068853,-97.109886
02339,-8.864349,4.586424,-0.994510,0.053156,-1.161887,0.149577,-0.261979,0.290866,1.298976,-0.088953,0.045274,-0.009875,0.999977,-0.001310,0.001454,0.006495,0.031432,0.690234,-0.234667,-0.683754,99.808910,68.302552,-97.019009
02340,-8.772326,4.728684,-0.791571,-0.162797,-1.130559,0.118800,-0.169781,0.283084,1.368871,-0.088055,0.046678,-0.007831,0.999975,-0.000849,0.001415,0.006844,0.037058,0.689516,-0.238804,-0.682765,99.765346,67.496244,-96.961558
02341,-8.658820,5.056050,-0.837561,-0.193620,-1.333706,0.158382,-0.158074,0.303810,1.437873,-0.086961,0.049930,-0.008283,0.999973,-0.000790,0.001519,0.007189,0.042894,0.688758,-0.243194,-0.681637,99.741557,66.650307,-96.889591
02342,-8.746044,5.294375,-0.920946,-0.153470,-1.379114,0.358064,-0.173583,0.344089,1.527947,-0.087877,0.052266,-0.009104,0.999969,-0.000868,0.001720,0.007640,0.049145,0.687978,-0.247827,-0.680333,99.736244,65.748230,-96.787211
02343,-9.087793,5.672110,-0.941023,-0.196292,-1.408528,0.846640,-0.256507,0.364502,1.604782,-0.091346,0.055977,-0.009316,0.999965,-0.001283,0.001822,0.008024,0.055957,0.687112,-0.252411,-0.678995,99.691322,64.802183,-96.675415
02344,-9.279695,5.880522,-0.939592,-0.211122,-1.329505,1.130852,-0.384787,0.345306,1.650204,-0.093294,0.058019,-0.009347,0.999963,-0.001924,0.001727,0.008251,0.063343,0.686031,-0.256713,-0.677825,99.538353,63.830967,-96.601016
02345,-9.315559,5.840415,-0.769731,-0.320685,-1.052803,1.154008,-0.475189,0.338282,1.666681,-0.093651,0.057607,-0.007677,0.999961,-0.002376,0.001691,0.008333,0.071074,0.684831,-0.260737,-0.676735,99.327858,62.852639,-96.532453
02346,-9.232501,5.801614,-0.578526,-0.454241,-0.825879,1.065784,-0.539675,0.355090,1.684212,-0.092819,0.057220,-0.005776,0.999959,-0.002698,0.001775,0.008421,0.079109,0.683579,-0.264586,-0.675615,99.098209,61.861503,-96.443118
02347,-9.235292,5.696701,-0.897392,-0.073108,-0.631278,1.056601,-0.634723,0.386438,1.698636,-0.092849,0.056151,-0.008974,0.999957,-0.003174,0.001932,0.008493,0.087544,0.682327,-0.268119,-0.674446,98.850382,60.861063,-96.311690
02348,-9.291108,5.767891,-1.211685,0.263261,-0.551277,1.172986,-0.628929,0.398766,1.714256,-0.093425,0.056842,-0.012111,0.999956,-0.003145,0.001994,0.008571,0.096030,0.681030,-0.271706,-0.673166,98.616650,59.849479,-96.166452
02349,-9.228128,6.066917,-1.131998,0.157809,-0.620406,1.270368,-0.627129,0.390662,1.729441,-0.092823,0.059833,-0.011328,0.999956,-0.003136,0.001953,0.008647,0.104532,0.679634,-0.275320,-0.671840,98.377774,58.831785,-96.027012
02350,-9.093747,6.565137,-0.770457,-0.264692,-0.824734,1.396114,-0.684944,0.365710,1.739408,-0.091518,0.064831,-0.007761,0.999955,-0.003425,0.001829,0.008697,0.113229,0.678040,-0.278772,-0.670617,98.082764,57.809312,-95.912944
02351,-8.900454,6.814600,-0.331674,-0.694311,-0.842642,1.348464,-0.885746,0.339132,1.768937,-0.089608,0.067340,-0.003465,0.999950,-0.004429,0.001696,0.008845,0.122650,0.676146,-0.281629,-0.669678,97.653506,56.774087,-95.820542
02352,-8.885041,6.502679,-0.248570,-0.632962,-0.390373,1.175219,-1.027707,0.323298,1.797283,-0.089434,0.064211,-0.002673,0.999945,-0.005138,0.001616,0.008986,0.132618,0.673990,-0.284097,-0.668908,97.134456,55.722827,-95.736995
02353,-8.941185,6.407965,-0.516899,-0.268343,-0.146553,1.195352,-1.095062,0.319989,1.792304,-0.089990,0.063246,-0.005373,0.999944,-0.005475,0.001600,0.008961,0.142769,0.671720,-0.286282,-0.668170,96.587555,54.676659,-95.639522
02354,-9.007191,6.030414,-1.007675,0.368081,0.291953,1.063269,-1.164784,0.362637,1.788804,-0.090625,0.059436,-0.010261,0.999941,-0.005824,0.001813,0.008944,0.153196,0.669460,-0.288169,-0.667317,96.043763,53.628819,-95.487393
02355,-9.214922,5.914555,-1.144796,0.607338,0.678110,1.158865,-1.082754,0.365437,1.772730,-0.092689,0.058263,-0.011596,0.999944,-0.005414,0.001827,0.008863,0.163272,0.667228,-0.290231,-0.666269,95.559780,52.592383,-95.317472
02356,-9.192790,6.059032,-0.968200,0.475801,0.778344,1.201892,-1.008569,0.296110,1.747451,-0.092467,0.059735,-0.009848,0.999948,-0.005043,0.001481,0.008737,0.172907,0.664781,-0.292491,-0.665296,95.074038,51.573425,-95.200992
02357,-8.718577,6.239720,-0.484063,0.013987,0.610948,0.902039,-0.997019,0.216396,1.738785,-0.087729,0.061611,-0.005054,0.999949,-0.004985,0.001082,0.008694,0.182331,0.662031,-0.294789,-0.664507,94.548385,50.565450,-95.143001
02358,-8.356766,6.072668,0.014122,-0.402390,0.761252,0.481426,-0.934448,0.176507,1.740439,-0.084092,0.059996,-0.000066,0.999951,-0.004672,0.000883,0.008702,0.191485,0.659128,-0.297316,-0.663692,94.039125,49.557122,-95.109162
02359,-8.100036,6.333885,-0.143393,-0.224667,0.547832,0.453558,-0.992069,0.136481,1.717699,-0.081541,0.062632,-0.001690,0.999951,-0.004960,0.000682,0.008588,0.200666,0.656014,-0.299577,-0.663048,93.482740,48.565042,-95.093880
02360,-8.091231,6.046563,-0.574437,0.312512,0.867100,0.262359,-1.030406,0.177500,1.712165,-0.081431,0.059740,-0.005981,0.999950,-0.005152,0.000887,0.008561,0.210005,0.652931,-0.301629,-0.662268,92.939512,47.573496,-95.030689
02361,-8.424029,6.304086,-0.445782,0.244428,1.090753,0.658803,-0.925858,0.159707,1.680477,-0.084770,0.062309,-0.004680,0.999954,-0.004629,0.000799,0.008402,0.218842,0.649892,-0.303905,-0.661355,92.455475,46.602449,-94.967945
02362,-8.397198,6.616178,-0.495821,0.330095,1.013931,0.835914,-0.930932,0.109718,1.623693,-0.084508,0.065453,-0.005218,0.999956,-0.004655,0.000549,0.008118,0.227419,0.646700,-0.306015,-0.660617,91.945963,45.664008,-94.934977
02363,-8.079755,6.650456,-0.156868,0.043168,0.970871,0.607899,-0.879292,0.066383,1.578231,-0.081320,0.065857,-0.001832,0.999959,-0.004396,0.000332,0.007891,0.235586,0.643447,-0.308164,-0.659932,91.450648,44.753995,-94.923712
02364,-7.750408,6.469827,0.174030,-0.218301,1.052151,0.227276,-0.904071,0.019498,1.534436,-0.077997,0.064108,0.001457,0.999960,-0.004520,0.000097,0.007672,0.243605,0.640016,-0.310127,-0.659437,90.921826,43.868366,-94.939310
02365,-7.481111,6.027015,0.156326,-0.114464,1.303290,-0.294136,-0.870713,-0.001530,1.478110,-0.075254,0.059721,0.001302,0.999963,-0.004354,-0.000008,0.007390,0.251271,0.636604,-0.312015,-0.658973,90.410257,43.016457,-94.958471
02366,-7.211377,6.076414,0.203366,-0.117924,1.208254,-0.458934,-0.816309,0.006325,1.401999,-0.072537,0.060264,0.001789,0.999967,-0.004081,0.000032,0.007010,0.258516,0.633350,-0.313814,-0.658451,89.939949,42.206738,-94.962344
02367,-7.115548,6.139447,0.642944,-0.508006,1.254790,-0.490496,-0.777872,0.051714,1.334204,-0.071561,0.060942,0.006210,0.999970,-0.003889,0.000259,0.006671,0.265464,0.630372,-0.315440,-0.657768,89.521699,41.437309,-94.921935
02368,-7.102042,6.019786,0.791684,-0.596359,1.449714,-0.601552,-0.870582,0.084881,1.286212,-0.071402,0.059773,0.007686,0.999970,-0.004353,0.000424,0.006431,0.272589,0.627407,-0.316553,-0.657153,89.069712,40.694599,-94.850626
02369,-7.012824,5.683372,0.199303,0.059324,1.665600,-0.939067,-0.989294,0.056785,1.244922,-0.070480,0.056405,0.001733,0.999968,-0.004946,0.000284,0.006225,0.279882,0.624224,-0.317158,-0.656827,88.541060,39.976961,-94.792412
02370,-6.683207,5.344539,-0.037069,0.337997,1.718578,-1.436416,-0.829014,0.031014,1.212910,-0.067155,0.053037,-0.000581,0.999973,-0.004145,0.000155,0.006064,0.286520,0.621184,-0.318213,-0.656336,88.094438,39.276435,-94.747815
02371,-6.443467,5.395049,0.355214,-0.026315,1.623089,-1.559506,-0.639954,0.027443,1.184187,-0.064752,0.053579,0.003389,0.999977,-0.003200,0.000137,0.005921,0.292449,0.618429,-0.319783,-0.655560,87.758415,38.593728,-94.699839
02372,-6.351475,5.636476,0.201348,0.153771,1.485781,-1.450891,-0.524611,0.038373,1.129715,-0.063831,0.056010,0.001878,0.999981,-0.002623,0.000192,0.005649,0.297854,0.615928,-0.321537,-0.654621,87.493276,37.941553,-94.642443
02373,-6.280812,5.739909,0.081929,0.295006,1.450480,-1.433532,-0.387537,0.069068,1.055675,-0.063110,0.057068,0.000730,0.999984,-0.001938,0.000345,0.005278,0.302627,0.613839,-0.323450,-0.653451,87.321082,37.333847,-94.561626
02374,-6.341599,5.927743,0.395880,0.002521,1.486172,-1.251062,-0.225291,0.083738,0.975695,-0.063703,0.058972,0.003919,0.999987,-0.001126,0.000419,0.004878,0.306662,0.612146,-0.325620,-0.652079,87.245297,36.771404,-94.472952
02375,-6.185059,6.081809,0.206351,0.192369,1.339236,-1.242105,-0.141720,0.058382,0.893035,-0.062121,0.060543,0.002039,0.999990,-0.000709,0.000292,0.004465,0.310117,0.610628,-0.327837,-0.650756,87.205535,36.256684,-94.404148
02376,-5.833536,6.159433,0.162220,0.222503,1.081972,-1.399930,-0.089864,0.042184,0.827166,-0.058589,0.061353,0.001607,0.999991,-0.000449,0.000211,0.004136,0.313174,0.609224,-0.330044,-0.649492,87.185665,35.778251,-94.350105
02377,-5.608903,5.903624,0.552725,-0.179386,1.135409,-1.732069,0.010299,0.050379,0.781710,-0.056318,0.058816,0.005544,0.999992,0.000051,0.000252,0.003909,0.315779,0.608078,-0.332416,-0.648093,87.226215,35.327035,-94.291371
02378,-5.470032,6.009426,0.470281,-0.106863,1.018592,-1.737641,0.033868,0.074248,0.719091,-0.054914,0.059896,0.004733,0.999993,0.000169,0.000371,0.003595,0.318151,0.607133,-0.334634,-0.646676,87.286659,34.911337,-94.219713
02379,-5.620546,6.337842,0.217253,0.150881,0.999269,-1.399340,0.071778,0.103758,0.661378,-0.056413,0.063191,0.002224,0.999994,0.000359,0.000519,0.003307,0.320260,0.606441,-0.336745,-0.645186,87.379650,34.530309,-94.129528
02380,-5.722651,6.981780,0.395353,-0.028429,0.781773,-0.810574,0.157542,0.096813,0.599658,-0.057434,0.069643,0.004036,0.999995,0.000788,0.000484,0.002998,0.321902,0.605953,-0.338956,-0.643668,87.515592,34.183401,-94.048226
02381,-5.546508,7.515987,0.792910,-0.446944,0.408522,-0.457708,0.145662,0.077342,0.555314,-0.055670,0.075000,0.008005,0.999996,0.000728,0.000387,0.002777,0.323394,0.605461,-0.341020,-0.642291,87.636555,33.862138,-93.982086
02382,-5.262314,7.407835,0.943428,-0.623834,0.291984,-0.703165,0.085729,0.070606,0.529699,-0.052816,0.073935,0.009485,0.999996,0.000429,0.000353,0.002648,0.324978,0.604881,-0.342825,-0.641076,87.718207,33.554431,-93.923048
02383,-5.194056,7.181879,0.773779,-0.465488,0.400377,-0.936924,0.072929,0.054179,0.512538,-0.052122,0.071683,0.007778,0.999997,0.000365,0.000271,0.002563,0.326509,0.604261,-0.344558,-0.639953,87.786612,33.256970,-93.875603
02384,-5.199607,7.199578,0.583727,-0.280445,0.432879,-0.927623,0.061883,0.047786,0.507645,-0.052177,0.071862,0.005872,0.999997,0.000309,0.000239,0.002538,0.328050,0.603598,-0.346252,-0.638875,87.844517,32.961289,-93.834026
02385,-5.261264,7.586258,0.730535,-0.428527,0.326363,-0.567387,0.079891,0.045218,0.480072,-0.052793,0.075733,0.007348,0.999997,0.000399,0.000226,0.002400,0.329437,0.603009,-0.347919,-0.637811,87.912159,32.682141,-93.794598
02386,-5.351746,7.898621,0.906701,-0.604757,0.285794,-0.252146,0.064032,0.045452,0.434813,-0.053687,0.078867,0.009104,0.999998,0.000320,0.000227,0.002174,0.330731,0.602462,-0.349399,-0.636849,87.968577,32.428055,-93.757400
02387,-5.411220,8.246111,0.969525,-0.669220,0.191675,0.073410,0.045085,0.056218,0.359172,-0.054257,0.082362,0.009729,0.999998,0.000225,0.000281,0.001796,0.331853,0.602055,-0.350570,-0.636006,88.017967,32.218290,-93.714271
02388,-5.388594,8.348409,0.532009,-0.235165,0.131189,0.134338,-0.038830,0.064629,0.300734,-0.054010,0.083404,0.005321,0.999999,-0.000194,0.000323,0.001504,0.333062,0.601628,-0.351284,-0.635384,88.020098,32.041327,-93.667829
02389,-5.489093,8.201749,0.531522,-0.228176,0.321747,0.062823,-0.020325,0.038243,0.245774,-0.054991,0.081950,0.005317,0.999999,-0.000102,0.000191,0.001229,0.333987,0.601252,-0.351934,-0.634895,88.023808,31.896121,-93.639768
02390,-5.436725,7.938794,0.494051,-0.192532,0.436799,-0.189869,0.000181,-0.004511,0.186091,-0.054441,0.079337,0.004939,1.000000,0.000001,-0.000023,0.000930,0.334592,0.600870,-0.352542,-0.634601,88.022001,31.783447,-93.642754
02391,-5.304207,7.921536,0.473850,-0.179178,0.348309,-0.275578,0.036033,-0.028092,0.121784,-0.053091,0.079182,0.004745,1.000000,0.000180,-0.000140,0.000609,0.334836,0.600594,-0.353107,-0.634418,88.032850,31.707929,-93.662319
02392,-5.216419,8.114573,0.650402,-0.361348,0.191535,-0.152817,0.063381,-0.042205,0.084566,-0.052200,0.081122,0.006519,1.000000,0.000317,-0.000211,0.000423,0.334862,0.600377,-0.353673,-0.634295,88.052685,31.652671,-93.693038
02393,-5.045355,8.196157,0.884751,-0.605924,0.023070,-0.166564,0.039395,-0.049793,0.067930,-0.050484,0.081943,0.008851,1.000000,0.000197,-0.000249,0.000340,0.334887,0.600133,-0.354124,-0.634261,88.057184,31.607578,-93.728446
02394,-4.870245,8.288770,0.799705,-0.526459,-0.169908,-0.181670,-0.063935,-0.048209,0.084299,-0.048739,0.082870,0.007959,1.000000,-0.000320,-0.000241,0.000421,0.335284,0.599683,-0.354295,-0.634382,88.002004,31.552351,-93.763164
02395,-4.789816,8.199601,0.617717,-0.338849,-0.190665,-0.304472,-0.119912,-0.042810,0.107556,-0.047944,0.081974,0.006118,1.000000,-0.000600,-0.000214,0.000538,0.335925,0.599124,-0.354347,-0.634542,87.918301,31.484661,-93.792804
02396,-4.815249,8.165154,0.618161,-0.323621,-0.139436,-0.319833,-0.156427,-0.041712,0.133272,-0.048208,0.081624,0.006108,0.999999,-0.000782,-0.000209,0.000666,0.336765,0.598452,-0.354360,-0.634724,87.813213,31.401441,-93.821711
02397,-4.882136,8.165066,0.499314,-0.184052,-0.075063,-0.288333,-0.198223,-0.032130,0.143862,-0.048881,0.081620,0.004904,0.999999,-0.000991,-0.000161,0.000719,0.337773,0.597729,-0.354254,-0.634928,87.689113,31.313113,-93.842895
02398,-4.942488,8.224425,0.370514,-0.033958,-0.046846,-0.210435,-0.188423,-0.002114,0.144683,-0.049484,0.082212,0.003627,0.999999,-0.000942,-0.000011,0.000723,0.338814,0.597107,-0.354131,-0.635027,87.579917,31.224197,-93.844524
02399,-5.143584,8.349621,0.291085,0.071775,0.069891,-0.002117,-0.134138,0.010342,0.140470,-0.051494,0.083462,0.002858,1.000000,-0.000671,0.000052,0.000702,0.339695,0.596632,-0.354146,-0.634995,87.507468,31.138789,-93.836973
02400,-5.185678,8.456934,-0.032723,0.409720,0.049886,0.099007,-0.118027,0.001412,0.135880,-0.051914,0.084534,-0.000377,1.000000,-0.000590,0.000007,0.000679,0.340504,0.596154,-0.354214,-0.634973,87.439845,31.054999,-93.836208
02401,-5.233551,8.411779,0.106072,0.280082,0.133768,0.089988,-0.012614,-0.013281,0.124482,-0.052388,0.084085,0.001052,1.000000,-0.000063,-0.000066,0.000622,0.340929,0.595838,-0.354606,-0.634822,87.428720,30.978149,-93.844736
02402,-5.061291,8.314965,0.146438,0.229105,0.050208,-0.080178,0.056599,-0.030216,0.099299,-0.050654,0.083124,0.001480,1.000000,0.000283,-0.000151,0.000496,0.341045,0.595622,-0.355173,-0.634646,87.449781,30.914494,-93.866100
02403,-4.913694,8.208388,0.176952,0.183406,-0.010088,-0.246100,0.124457,-0.016500,0.077459,-0.049169,0.082064,0.001817,1.000000,0.000622,-0.000082,0.000387,0.340907,0.595612,-0.355865,-0.634341,87.515365,30.864485,-93.878219
02404,-4.949324,8.330505,0.290437,0.061448,-0.028791,-0.118728,0.192887,-0.008043,0.061306,-0.049519,0.083287,0.002983,0.999999,0.000964,-0.000040,0.000307,0.340535,0.595766,-0.356713,-0.633921,87.621514,30.823162,-93.886007
02405,-4.884328,8.556053,0.359502,-0.025401,-0.189531,0.044055,0.206981,-0.021667,0.052926,-0.048866,0.085544,0.003678,0.999999,0.001035,-0.000108,0.000265,0.340063,0.595923,-0.357602,-0.633525,87.732197,30.787113,-93.902420
02406,-4.790322,8.803533,0.512080,-0.197314,-0.382222,0.213606,0.194451,-0.037971,0.051780,-0.047927,0.088018,0.005197,0.999999,0.000972,-0.000190,0.000259,0.339602,0.596000,-0.358476,-0.633206,87.828840,30.750597,-93.930562
02407,-4.609081,8.731627,0.701846,-0.408072,-0.483332,0.065439,0.095565,-0.035058,0.070179,-0.046123,0.087297,0.007052,1.000000,0.000478,-0.000175,0.000351,0.339493,0.595893,-0.359086,-0.633019,87.871310,30.704425,-93.955577
02408,-4.568221,8.554741,0.733452,-0.445790,-0.417047,-0.106116,0.027788,-0.013539,0.086539,-0.045720,0.085527,0.007343,1.000000,0.000139,-0.000068,0.000433,0.339682,0.595701,-0.359495,-0.632866,87.881204,30.648544,-93.966647
02409,-4.626394,8.540845,0.420550,-0.128693,-0.364775,-0.097916,-0.038144,0.007880,0.121791,-0.046316,0.085381,0.004191,1.000000,-0.000191,0.000039,0.000609,0.340211,0.595410,-0.359762,-0.632704,87.862309,30.573742,-93.961810
02410,-4.831313,8.572815,0.257567,0.050628,-0.199448,0.028995,-0.054774,0.020998,0.145496,-0.048375,0.085694,0.002557,1.000000,-0.000274,0.000105,0.000727,0.340895,0.595081,-0.360026,-0.632496,87.837342,30.484827,-93.948412
02411,-5.091655,8.644602,0.324346,0.003188,0.006586,0.225202,-0.025606,0.013269,0.151376,-0.050982,0.086408,0.003236,1.000000,-0.000128,0.000066,0.000757,0.341489,0.594774,-0.360412,-0.632244,87.827834,30.393206,-93.939202
02412,-5.131535,8.580083,0.177623,0.154512,0.081205,0.184890,-0.025141,0.011235,0.127706,-0.051370,0.085768,0.001768,1.000000,-0.000126,0.000056,0.000639,0.342010,0.594496,-0.360733,-0.632041,87.816326,30.314266,-93.932701
02413,-5.183639,8.450159,0.061953,0.271841,0.197921,0.095191,0.045151,0.017212,0.091066,-0.051875,0.084478,0.000643,1.000000,0.000226,0.000086,0.000455,0.342211,0.594431,-0.361155,-0.631752,87.847886,30.257261,-93.922404
02414,-5.210227,8.339925,0.023927,0.304109,0.282664,0.012230,0.125915,0.004333,0.043750,-0.052121,0.083388,0.000293,1.000000,0.000630,0.000022,0.000219,0.342005,0.594540,-0.361715,-0.631440,87.919534,30.226248,-93.922628
02415,-5.054887,8.384489,0.237757,0.068669,0.141205,-0.020681,0.195233,-0.010358,0.007937,-0.050552,0.083841,0.002457,1.000000,0.000976,-0.000052,0.000040,0.341447,0.594795,-0.362412,-0.631103,88.026812,30.216262,-93.932719
02416,-4.875090,8.361528,0.436252,-0.155126,0.009998,-0.125181,0.194370,-0.024140,-0.010825,-0.048747,0.083614,0.004438,1.000000,0.000972,-0.000121,-0.000054,0.340813,0.595029,-0.363074,-0.630844,88.127527,30.215962,-93.953135
02417,-4.715118,8.424643,0.429654,-0.169991,-0.159061,-0.151562,0.125930,-0.035328,-0.009001,-0.047148,0.084246,0.004341,1.000000,0.000630,-0.000177,-0.000045,0.340361,0.595116,-0.363543,-0.630735,88.186570,30.215243,-93.980172
02418,-4.536264,8.273964,0.606973,-0.363696,-0.226618,-0.367003,0.071800,-0.024094,-0.002222,-0.045362,0.082738,0.006094,1.000000,0.000359,-0.000120,-0.000011,0.340119,0.595126,-0.363844,-0.630684,88.217159,30.210051,-94.000377
02419,-4.548626,8.371985,0.625881,-0.384267,-0.262617,-0.275642,-0.004823,0.003888,0.014141,-0.045492,0.083717,0.006258,1.000000,-0.000024,0.000019,0.000071,0.340201,0.595072,-0.363903,-0.630656,88.214605,30.196803,-94.000948
02420,-4.773522,8.420251,0.189210,0.068242,-0.113606,-0.132534,-0.073012,0.019106,0.032877,-0.047749,0.084195,0.001866,1.000000,-0.000365,0.000096,0.000164,0.340579,0.594907,-0.363778,-0.630680,88.176976,30.172276,-93.991804
02421,-4.973193,8.518003,0.246714,0.027897,0.016333,0.053864,-0.060635,0.010117,0.035917,-0.049747,0.085172,0.002444,1.000000,-0.000303,0.000051,0.000180,0.340907,0.594738,-0.363715,-0.630698,88.144758,30.146671,-93.987771
02422,-4.927214,8.321396,0.259908,0.017457,0.079696,-0.138807,-0.052158,0.003945,0.020223,-0.049281,0.083210,0.002578,1.000000,-0.000261,0.000020,0.000101,0.341155,0.594584,-0.363644,-0.630750,88.113911,30.129116,-93.988909
02423,-4.914996,8.054228,0.150847,0.128719,0.198994,-0.379005,-0.010079,0.006793,-0.007804,-0.049147,0.080544,0.001506,1.000000,-0.000050,0.000034,-0.000039,0.341189,0.594571,-0.363616,-0.630761,88.109085,30.128489,-93.988007
02424,-4.917817,7.883313,0.058336,0.219378,0.281543,-0.527885,0.065121,0.007838,-0.035268,-0.049164,0.078842,0.000611,1.000000,0.000326,0.000039,-0.000176,0.340921,0.594730,-0.363743,-0.630683,88.146130,30.142791,-93.987763
02425,-4.896760,7.892505,0.181290,0.087396,0.262451,-0.526879,0.131679,0.001774,-0.054718,-0.048946,0.078937,0.001865,1.000000,0.000658,0.000009,-0.000274,0.340375,0.595027,-0.364031,-0.630531,88.220360,30.168937,-93.991172
02426,-4.781388,8.031087,0.239478,0.010426,0.092172,-0.463422,0.158935,-0.003888,-0.072192,-0.047785,0.080326,0.002458,1.000000,0.000795,-0.000019,-0.000361,0.339690,0.595376,-0.364363,-0.630379,88.306907,30.204194,-93.999389
02427,-4.721296,8.217414,0.351188,-0.119607,-0.052713,-0.329927,0.178159,0.005255,-0.080881,-0.047180,0.082190,0.003586,1.000000,0.000891,0.000026,-0.000404,0.338930,0.595810,-0.364714,-0.630175,88.408722,30.245390,-94.000898
02428,-4.713537,8.373095,0.374629,-0.158646,-0.142021,-0.199096,0.151759,0.010824,-0.075916,-0.047103,0.083746,0.003812,1.000000,0.000759,0.000054,-0.000380,0.338281,0.596198,-0.364987,-0.629998,88.496096,30.283030,-93.999294
02429,-4.678171,8.462372,0.386826,-0.186434,-0.221410,-0.139897,0.129851,0.020391,-0.056156,-0.046758,0.084634,0.003928,1.000000,0.000649,0.000102,-0.000281,0.337770,0.596552,-0.365233,-0.629795,88.575581,30.310290,-93.990196
02430,-4.625484,8.460258,0.358356,-0.169781,-0.269965,-0.169152,0.058696,0.015681,-0.031867,-0.046241,0.084609,0.003612,1.000000,0.000293,0.000078,-0.000159,0.337545,0.596718,-0.365336,-0.629699,88.611672,30.322754,-93.984547
02431,-4.561762,8.266336,0.239930,-0.059294,-0.233860,-0.371218,0.060414,0.036063,0.001575,-0.045618,0.082662,0.002432,1.000000,0.000302,0.000180,0.000008,0.337451,0.596899,-0.365509,-0.629478,88.657115,30.317146,-93.964080
02432,-4.620932,8.259086,-0.002133,0.178306,-0.190432,-0.352378,0.077557,0.069718,0.024909,-0.046220,0.082585,0.000027,1.000000,0.000388,0.000349,0.000125,0.337448,0.597162,-0.365749,-0.629089,88.722548,30.297777,-93.921696
02433,-4.766533,8.138547,-0.258356,0.431345,-0.014030,-0.387388,0.155898,0.087129,0.043029,-0.047684,0.081377,-0.002499,1.000000,0.000779,0.000436,0.000215,0.337293,0.597589,-0.366260,-0.628471,88.840054,30.269001,-93.866794
02434,-4.930127,8.146710,-0.247359,0.406601,0.129546,-0.296698,0.326345,0.087865,0.039314,-0.049318,0.081461,-0.002319,0.999999,0.001632,0.000439,0.000197,0.336624,0.598301,-0.367294,-0.627547,89.054106,30.241402,-93.812311
02435,-4.897866,8.256545,-0.231684,0.351532,0.052897,-0.216502,0.458290,0.073440,0.021986,-0.048989,0.082565,-0.002110,0.999997,0.002291,0.000367,0.000110,0.335471,0.599229,-0.368712,-0.626447,89.340022,30.224228,-93.766953
02436,-4.942394,8.325391,-0.168775,0.242846,0.064822,-0.132581,0.602933,0.068221,-0.001473,-0.049424,0.083259,-0.001420,0.999995,0.003015,0.000341,-0.000007,0.333807,0.600413,-0.370520,-0.625134,89.705704,30.219435,-93.726041
02437,-4.925166,8.623426,-0.061590,0.070286,-0.090387,0.117626,0.663923,0.050685,-0.025769,-0.049241,0.086242,-0.000317,0.999994,0.003320,0.000253,-0.000129,0.331840,0.601692,-0.372470,-0.623791,90.101683,30.229118,-93.696078
02438,-4.748684,8.650504,0.152325,-0.213832,-0.239483,0.051442,0.682958,0.038505,-0.022834,-0.047477,0.086505,0.001828,0.999994,0.003415,0.000193,-0.000114,0.329806,0.602943,-0.374505,-0.622441,90.503316,30.236166,-93.674855
02439,-4.634886,8.882842,0.448162,-0.584901,-0.429796,0.190351,0.655735,0.037411,-0.012732,-0.046342,0.088816,0.004782,0.999995,0.003279,0.000187,-0.000064,0.327873,0.604129,-0.376483,-0.621118,90.890203,30.238114,-93.653643
02440,-4.588861,8.987055,0.367545,-0.565571,-0.521069,0.255496,0.522342,0.036383,0.021429,-0.045898,0.089856,0.003918,0.999997,0.002612,0.000182,0.000107,0.326451,0.605015,-0.378149,-0.619992,91.198868,30.219565,-93.634260
02441,-4.597300,9.008523,0.350697,-0.592607,-0.517405,0.276545,0.408522,0.050493,0.048919,-0.045994,0.090067,0.003703,0.999998,0.002043,0.000252,0.000245,0.325476,0.605712,-0.379519,-0.618986,91.447996,30.185825,-93.605305
02442,-4.799098,8.967237,0.236843,-0.499125,-0.321061,0.343419,0.299059,0.059455,0.073247,-0.048023,0.089651,0.002517,0.999999,0.001495,0.000297,0.000366,0.324932,0.606202,-0.380609,-0.618123,91.635799,30.137067,-93.571771
02443,-5.017558,8.999508,-0.082281,-0.196656,-0.162669,0.488216,0.224810,0.056748,0.071039,-0.050208,0.089978,-0.000707,0.999999,0.001124,0.000284,0.000355,0.324592,0.606574,-0.381465,-0.617407,91.781343,30.090385,-93.539401
02444,-5.202050,8.827793,-0.154360,-0.125487,0.085734,0.433870,0.211443,0.050871,0.054043,-0.052045,0.088265,-0.001437,0.999999,0.001057,0.000254,0.000270,0.324237,0.606930,-0.382239,-0.616766,91.916078,30.052615,-93.511472
02445,-5.214071,8.584521,-0.168438,-0.115724,0.222115,0.229531,0.223572,0.032424,0.017600,-0.052149,0.085842,-0.001580,0.999999,0.001118,0.000162,0.000088,0.323689,0.607325,-0.382968,-0.616212,92.053294,30.036880,-93.494250
02446,-5.074186,8.291666,-0.373401,0.078800,0.232828,-0.087563,0.266003,0.029367,-0.025007,-0.050732,0.082928,-0.003616,0.999999,0.001330,0.000147,-0.000125,0.322882,0.607852,-0.383704,-0.615658,92.213014,30.044716,-93.478816
02447,-4.949193,8.281880,-0.362119,0.035446,0.129239,-0.158820,0.327725,0.035185,-0.054785,-0.049470,0.082838,-0.003477,0.999999,0.001639,0.000176,-0.000274,0.321798,0.608561,-0.384528,-0.615010,92.411740,30.070272,-93.457937
02448,-4.847176,8.404710,-0.211520,-0.158978,-0.010436,-0.109413,0.363189,0.023774,-0.064198,-0.048445,0.084066,-0.001957,0.999998,0.001816,0.000119,-0.000321,0.320563,0.609300,-0.385451,-0.614346,92.625912,30.100598,-93.444984
02449,-4.767470,8.403011,0.039869,-0.444639,-0.059849,-0.161802,0.359902,0.011426,-0.051347,-0.047653,0.084041,0.000553,0.999998,0.001800,0.000057,-0.000257,0.319344,0.609977,-0.386419,-0.613700,92.835264,30.124702,-93.439706
02450,-4.707409,8.503155,0.033817,-0.477805,-0.162394,-0.106517,0.301172,0.008270,-0.027552,-0.047062,0.085037,0.000468,0.999999,0.001506,0.000041,-0.000138,0.318379,0.610494,-0.387286,-0.613141,93.008256,30.134425,-93.437996
02451,-4.738156,8.636716,-0.121949,-0.355736,-0.214427,0.030345,0.247613,0.003058,-0.005049,-0.047379,0.086370,-0.001112,0.999999,0.001238,0.000015,-0.000025,0.317627,0.610874,-0.388063,-0.612660,93.149753,30.132271,-93.439731
02452,-4.786679,8.886316,0.062774,-0.577996,-0.277229,0.260638,0.215308,0.002028,0.014498,-0.047873,0.088859,0.000724,0.999999,0.001077,0.000010,0.000072,0.317040,0.611152,-0.388804,-0.612218,93.270704,30.118119,-93.443657
02453,-4.860475,8.967646,0.002124,-0.534865,-0.254785,0.370234,0.108378,0.001266,0.030675,-0.048619,0.089669,0.000070,1.000000,0.000542,0.000006,0.000153,0.316819,0.611236,-0.389266,-0.611955,93.331143,30.095594,-93.447948
02454,-4.954439,8.900186,-0.222391,-0.305678,-0.155345,0.370223,0.019265,0.001518,0.034103,-0.049560,0.088994,-0.002215,1.000000,0.000096,0.000008,0.000171,0.316889,0.611162,-0.389467,-0.611864,93.339180,30.070238,-93.453011
02455,-5.003169,8.863507,-0.307876,-0.214518,-0.099188,0.367312,-0.014484,-0.003780,0.017506,-0.050039,0.088630,-0.003086,1.000000,-0.000072,-0.000019,0.000088,0.316994,0.611061,-0.389520,-0.611877,93.327804,30.055416,-93.460143
02456,-4.992117,8.761425,-0.293883,-0.216745,-0.055586,0.272951,-0.046454,0.001137,-0.007699,-0.049918,0.087615,-0.002959,1.000000,-0.000232,0.000006,-0.000038,0.317136,0.610964,-0.389393,-0.611981,93.298858,30.053976,-93.463852
02457,-4.901340,8.621125,-0.373660,-0.125079,-0.073504,0.110291,-0.060365,-0.004050,-0.041676,-0.048995,0.086220,-0.003764,1.000000,-0.000302,-0.000020,-0.000208,0.317199,0.610904,-0.389126,-0.612178,93.262236,30.073010,-93.468904
02458,-4.851220,8.436643,-0.438671,-0.041749,-0.035137,-0.070987,-0.054352,-0.006842,-0.053921,-0.048489,0.084378,-0.004411,1.000000,-0.000272,-0.000034,-0.000270,0.317209,0.610860,-0.388846,-0.612395,93.226979,30.098263,-93.476160
02459,-4.781507,8.339885,-0.514351,0.042309,-0.059662,-0.185865,-0.035715,-0.016158,-0.073526,-0.047784,0.083416,-0.005162,1.000000,-0.000179,-0.000081,-0.000368,0.317075,0.610864,-0.388576,-0.612631,93.201038,30.135902,-93.488066
02460,-4.610336,8.471306,-0.620684,0.131416,-0.289097,-0.153360,-0.040502,-0.011695,-0.084486,-0.046067,0.084731,-0.006227,1.000000,-0.000203,-0.000058,-0.000422,0.316940,0.610886,-0.388253,-0.612885,93.172645,30.178788,-93.497442
02461,-4.682834,8.292365,-0.451272,-0.014806,-0.129613,-0.279646,-0.040994,0.004910,-0.077252,-0.046796,0.082941,-0.004529,1.000000,-0.000205,0.000025,-0.000386,0.316852,0.610953,-0.387922,-0.613072,93.150723,30.217882,-93.495315
02462,-4.599202,7.980094,-0.434834,-0.006426,-0.050730,-0.592003,-0.024972,-0.000395,-0.068729,-0.045965,0.079816,-0.004358,1.000000,-0.000125,-0.000002,-0.000344,0.316739,0.611004,-0.387676,-0.613236,93.134679,30.251384,-93.497829
02463,-4.565314,7.356681,-0.672699,0.279544,0.205636,-1.135422,0.071394,0.010252,-0.047616,-0.045636,0.073580,-0.006698,1.000000,0.000357,0.000051,-0.000238,0.316408,0.611208,-0.387772,-0.613143,93.178388,30.273356,-93.493250
02464,-4.689526,7.333092,-0.702513,0.304082,0.320311,-1.091202,0.286253,0.019787,-0.023407,-0.046887,0.073346,-0.006916,0.999999,0.001431,0.000099,-0.000117,0.315522,0.611724,-0.388587,-0.612568,93.346590,30.280283,-93.484019
02465,-4.737178,7.522865,-0.731819,0.291921,0.265522,-0.901229,0.425452,0.005102,0.011314,-0.047376,0.075241,-0.007157,0.999998,0.002127,0.000026,0.000057,0.314279,0.612355,-0.389954,-0.611708,93.590318,30.268709,-93.485076
02466,-4.784926,7.786433,-0.440924,-0.056964,0.206864,-0.665433,0.567214,-0.000016,0.026363,-0.047860,0.077870,-0.004188,0.999996,0.002836,-0.000000,0.000132,0.312643,0.613150,-0.391808,-0.610563,93.911858,30.247866,-93.491025
02467,-4.541738,8.317143,-0.635277,0.028041,-0.279911,-0.319188,0.506557,0.011044,0.014947,-0.045424,0.083184,-0.006140,0.999997,0.002533,0.000055,0.000075,0.311170,0.613912,-0.393420,-0.609513,94.203881,30.233984,-93.488459
02468,-4.397419,8.344307,-0.979961,0.318758,-0.445416,-0.345643,0.447363,0.084280,0.039735,-0.043995,0.083456,-0.009594,0.999997,0.002237,0.000421,0.000199,0.310105,0.614743,-0.394814,-0.608316,94.484348,30.201890,-93.439583
02469,-4.810980,8.659760,-0.487574,-0.228217,-0.187984,0.101296,0.535979,0.099278,0.046024,-0.048132,0.086599,-0.004620,0.999996,0.002680,0.000496,0.000230,0.308806,0.615750,-0.396469,-0.606880,94.821610,30.166138,-93.380565
02470,-4.867818,8.494203,-0.415429,-0.327246,-0.040558,-0.019283,0.521225,0.098724,0.033857,-0.048695,0.084944,-0.003909,0.999996,0.002606,0.000494,0.000169,0.307520,0.616743,-0.398041,-0.605494,95.149088,30.136189,-93.322257
02471,-5.133219,8.277728,-0.423437,-0.333037,0.302038,-0.073714,0.642031,0.087218,0.005022,-0.051336,0.082789,-0.003946,0.999995,0.003210,0.000436,0.000025,0.305741,0.617948,-0.399902,-0.603938,95.544073,30.123856,-93.269200
02472,-5.207404,7.899463,-0.433539,-0.332486,0.556771,-0.363579,0.782119,0.048270,-0.025421,-0.052065,0.079017,-0.004014,0.999992,0.003911,0.000241,-0.000127,0.303363,0.619293,-0.402149,-0.602264,96.006042,30.129914,-93.240681
02473,-5.223037,7.923391,-0.672028,-0.166133,0.535041,-0.315447,0.887714,-0.000665,-0.047655,-0.052211,0.079275,-0.006369,0.999990,0.004439,-0.000003,-0.000238,0.300480,0.620694,-0.404710,-0.600550,96.514536,30.152344,-93.241925
02474,-5.173574,8.395192,-0.403153,-0.576748,0.293477,0.035578,0.990574,-0.037104,-0.040100,-0.051718,0.083981,-0.003625,0.999988,0.004953,-0.000186,-0.000201,0.297228,0.622103,-0.407651,-0.598719,97.068367,30.172115,-93.268284
02475,-4.955547,9.249719,0.054167,-1.246439,-0.254637,0.603586,0.869701,-0.083444,-0.034246,-0.049540,0.092502,0.000923,0.999990,0.004348,-0.000417,-0.000171,0.294260,0.623176,-0.410307,-0.597253,97.538847,30.192969,-93.324609
02476,-4.592382,9.549048,0.123121,-1.445298,-0.699547,0.661612,0.606451,-0.046822,-0.020368,-0.045914,0.095491,0.001510,0.999995,0.003032,-0.000234,-0.000102,0.292233,0.623925,-0.412161,-0.596189,97.868623,30.202630,-93.358752
02477,-4.810653,9.985525,0.208345,-1.632315,-0.709111,1.129394,0.298018,-0.007986,-0.011848,-0.048101,0.099855,0.002230,0.999999,0.001490,-0.000040,-0.000059,0.291264,0.624327,-0.413062,-0.595618,98.035559,30.205343,-93.367322
02478,-4.986713,9.793202,-0.301651,-1.099923,-0.526920,1.113320,-0.054534,-0.013406,-0.008212,-0.049863,0.097933,-0.003047,1.000000,-0.000273,-0.000067,-0.000041,0.291404,0.624182,-0.412933,-0.595792,97.997035,30.205555,-93.380631
02479,-5.301873,9.255049,-0.700280,-0.587507,-0.044846,0.860127,-0.211119,-0.021415,-0.019333,-0.053009,0.092548,-0.007106,0.999999,-0.001056,-0.000107,-0.000097,0.291973,0.623816,-0.412313,-0.596324,97.868163,30.213575,-93.397336
02480,-5.420935,8.532570,-1.033652,-0.111963,0.364553,0.341831,-0.209097,-0.064008,-0.046651,-0.054186,0.085327,-0.010443,0.999999,-0.001045,-0.000320,-0.000233,0.292376,0.623373,-0.411677,-0.597030,97.726033,30.239482,-93.440460
02481,-5.416693,8.251310,-1.255024,0.169071,0.462794,0.124967,-0.108322,-0.090472,-0.084853,-0.054126,0.082529,-0.012619,1.000000,-0.000542,-0.000452,-0.000424,0.292287,0.623085,-0.411260,-0.597661,97.636067,30.289931,-93.496805
02482,-5.265476,8.179889,-1.257378,0.183951,0.356563,-0.011880,0.009493,-0.120104,-0.111264,-0.052602,0.081829,-0.012601,1.000000,0.000047,-0.000601,-0.000556,0.291699,0.622926,-0.411157,-0.598185,97.603290,30.356700,-93.571280
02483,-4.940764,8.433361,-0.978916,-0.146668,-0.025201,0.009167,0.047517,-0.130749,-0.140449,-0.049342,0.084371,-0.009801,1.000000,0.000238,-0.000654,-0.000702,0.290875,0.622859,-0.411090,-0.598701,97.591467,30.441703,-93.649425
02484,-4.675870,8.562684,-0.888996,-0.269739,-0.319679,-0.025009,0.029081,-0.113903,-0.147389,-0.046691,0.085663,-0.008904,1.000000,0.000145,-0.000570,-0.000737,0.290131,0.622820,-0.410923,-0.599218,97.573330,30.528485,-93.716816
02485,-4.651998,8.626526,-0.971177,-0.194383,-0.396589,0.026323,-0.093433,-0.099325,-0.124541,-0.046461,0.086290,-0.009775,1.000000,-0.000467,-0.000497,-0.000623,0.289857,0.622609,-0.410438,-0.599902,97.490264,30.602014,-93.775865
02486,-4.722030,8.285212,-1.084481,-0.009866,-0.194373,-0.216829,-0.134513,-0.095454,-0.100352,-0.047174,0.082868,-0.010923,1.000000,-0.000673,-0.000477,-0.000502,0.289801,0.622290,-0.409899,-0.600627,97.382195,30.660538,-93.835500
02487,-4.791138,7.812006,-1.183986,0.181046,0.076592,-0.574419,-0.079744,-0.092874,-0.086302,-0.047872,0.078136,-0.011893,1.000000,-0.000399,-0.000464,-0.000432,0.289612,0.622039,-0.409564,-0.601207,97.307199,30.711699,-93.893897
02488,-4.833763,7.642760,-1.413888,0.443389,0.158637,-0.671880,0.017295,-0.081868,-0.077451,-0.048302,0.076448,-0.014152,1.000000,0.000086,-0.000409,-0.000387,0.289180,0.621933,-0.409533,-0.601545,97.289510,30.756093,-93.946716
02489,-4.900192,7.718865,-1.417836,0.434228,0.169981,-0.572257,0.183159,-0.079009,-0.072797,-0.048968,0.077219,-0.014127,0.999999,0.000916,-0.000395,-0.000364,0.288242,0.622076,-0.410010,-0.601523,97.369134,30.798552,-93.997162
02490,-4.902843,8.134334,-1.352669,0.288214,-0.031928,-0.223587,0.260333,-0.093616,-0.064272,-0.048996,0.081377,-0.013444,0.999999,0.001302,-0.000468,-0.000321,0.287069,0.622257,-0.410767,-0.601380,97.486133,30.836438,-94.058802
02491,-4.814554,8.506748,-1.237834,0.089505,-0.282329,0.035621,0.271169,-0.088613,-0.052738,-0.048118,0.085097,-0.012284,0.999999,0.001356,-0.000443,-0.000264,0.285897,0.622454,-0.411584,-0.601176,97.612043,30.868393,-94.117211
02492,-4.720993,8.855299,-1.072716,-0.152127,-0.517090,0.265223,0.152264,-0.079466,-0.048099,-0.047184,0.088572,-0.010678,1.000000,0.000761,-0.000397,-0.000240,0.285137,0.622489,-0.412045,-0.601185,97.671213,30.896203,-94.170791
02493,-4.597421,8.915458,-1.472531,0.224445,-0.714086,0.298183,-0.124918,-0.046893,-0.054429,-0.045946,0.089158,-0.014792,1.000000,-0.000625,-0.000234,-0.000272,0.285278,0.622248,-0.411605,-0.601669,97.584401,30.926013,-94.201420
02494,-4.867815,8.426305,-1.125098,-0.007633,-0.195889,-0.018524,-0.069671,-0.026574,-0.055722,-0.048653,0.084273,-0.011287,1.000000,-0.000348,-0.000133,-0.000279,0.285294,0.622140,-0.411299,-0.601981,97.534686,30.954070,-94.219391
02495,-4.986390,8.371214,-0.885639,-0.219386,-0.040162,-0.031281,-0.084651,-0.022727,-0.081372,-0.049829,0.083729,-0.008897,1.000000,-0.000423,-0.000114,-0.000407,0.285279,0.622085,-0.410862,-0.602344,97.480318,30.997321,-94.231750
02496,-5.060556,7.430840,-1.538177,0.588391,0.393248,-0.719188,0.012702,-0.027745,-0.105931,-0.050564,0.074336,-0.015384,1.000000,0.000064,-0.000139,-0.000530,0.284885,0.622194,-0.410650,-0.602563,97.479592,31.053962,-94.246194
02497,-5.133726,7.287318,-1.438791,0.509001,0.530959,-0.813287,0.280522,-0.048341,-0.142136,-0.051282,0.072930,-0.014298,0.999999,0.001403,-0.000242,-0.000711,0.283498,0.622705,-0.411160,-0.602341,97.628431,31.133664,-94.270172
02498,-4.942714,7.411232,-1.410022,0.422238,0.297377,-0.808348,0.420611,-0.057192,-0.164744,-0.049362,0.074182,-0.013958,0.999997,0.002103,-0.000286,-0.000824,0.281596,0.623423,-0.412033,-0.601894,97.854198,31.226046,-94.298549
02499,-4.854832,7.883089,-1.086237,-0.019537,0.019451,-0.491127,0.509037,-0.045435,-0.172654,-0.048478,0.078900,-0.010673,0.999996,0.002545,-0.000227,-0.000863,0.279408,0.624323,-0.413128,-0.601230,98.136729,31.322988,-94.317079
02500,-4.709181,8.357308,-0.812532,-0.421703,-0.314172,-0.199961,0.448107,-0.032977,-0.158659,-0.047024,0.083628,-0.007946,0.999997,0.002241,-0.000165,-0.000793,0.277484,0.625133,-0.414064,-0.600635,98.386738,31.410146,-94.329019
02501,-4.668759,8.317636,-0.963468,-0.302243,-0.361153,-0.237365,0.337451,-0.018475,-0.125219,-0.046635,0.083222,-0.009499,0.999998,0.001687,-0.000092,-0.000626,0.276028,0.625770,-0.414749,-0.600170,98.578288,31.478059,-94.333407
02502,-4.918556,8.154543,-1.116285,-0.132725,-0.097457,-0.225838,0.302713,-0.007146,-0.100411,-0.049144,0.081587,-0.011041,0.999999,0.001514,-0.000036,-0.000502,0.274786,0.626331,-0.415392,-0.599710,98.751207,31.530042,-94.333389
02503,-5.132827,8.190866,-1.134193,-0.135166,0.057548,-0.081247,0.335646,-0.011477,-0.086469,-0.051292,0.081950,-0.011207,0.999998,0.001678,-0.000057,-0.000432,0.273464,0.626903,-0.416181,-0.599169,98.942314,31.575424,-94.336634
02504,-5.281838,8.334361,-1.192088,-0.124273,0.097287,0.124892,0.326483,-0.019539,-0.088684,-0.052780,0.083386,-0.011790,0.999999,0.001632,-0.000098,-0.000443,0.272155,0.627431,-0.416947,-0.598679,99.124093,31.621879,-94.345691
02505,-5.313155,8.661315,-1.108815,-0.294780,-0.035511,0.404418,0.305778,-0.048454,-0.118137,-0.053078,0.086661,-0.010969,0.999999,0.001529,-0.000242,-0.000591,0.270754,0.627914,-0.417595,-0.598357,99.287152,31.688576,-94.369764
02506,-5.088087,8.673508,-1.180641,-0.263373,-0.254274,0.305525,0.217025,-0.046347,-0.130288,-0.050822,0.086781,-0.011724,0.999999,0.001085,-0.000232,-0.000651,0.269607,0.628297,-0.417938,-0.598233,99.399364,31.761085,-94.391806
02507,-5.030209,8.535964,-1.071540,-0.363431,-0.227265,0.143724,0.191421,-0.028230,-0.129897,-0.050245,0.085402,-0.010641,0.999999,0.000957,-0.000141,-0.000649,0.268571,0.628708,-0.418178,-0.598100,99.504781,31.832614,-94.400827
02508,-5.010576,8.247030,-1.236139,-0.158274,-0.134870,-0.086220,0.125703,-0.029421,-0.120583,-0.050054,0.082508,-0.012317,1.000000,0.000629,-0.000147,-0.000603,0.267775,0.628998,-0.418254,-0.598099,99.570119,31.898080,-94.412445
02509,-4.994892,7.982372,-1.446240,0.089800,-0.058120,-0.286547,0.129629,-0.028660,-0.107944,-0.049904,0.079860,-0.014418,1.000000,0.000648,-0.000143,-0.000540,0.266997,0.629277,-0.418378,-0.598066,99.638766,31.957268,-94.424014
02510,-5.140120,8.022437,-1.373270,0.004149,0.048411,-0.186484,0.255764,-0.014857,-0.097347,-0.051361,0.080267,-0.013634,0.999999,0.001279,-0.000074,-0.000487,0.265891,0.629734,-0.418896,-0.597715,99.782456,32.008227,-94.428363
02511,-5.127967,8.292096,-1.211243,-0.231096,-0.079763,0.008830,0.227098,-0.039531,-0.108193,-0.051232,0.082962,-0.012028,0.999999,0.001135,-0.000198,-0.000541,0.264783,0.630110,-0.419324,-0.597511,99.903252,32.068661,-94.446866
02512,-5.009986,8.233273,-1.216532,-0.238147,-0.159960,-0.102674,0.193529,-0.038717,-0.128530,-0.050045,0.082377,-0.012095,0.999999,0.000968,-0.000194,-0.000643,0.263729,0.630476,-0.419588,-0.597405,100.004896,32.139593,-94.463213
02513,-5.058473,8.421880,-1.204169,-0.302561,-0.225006,0.077915,0.147169,-0.004727,-0.158760,-0.050518,0.084268,-0.011981,0.999999,0.000736,-0.000024,-0.000794,0.262793,0.630955,-0.419571,-0.597324,100.095518,32.225131,-94.452314
02514,-5.203465,8.082977,-1.404788,-0.038112,0.021810,-0.097646,0.139614,-0.017234,-0.174773,-0.051963,0.080885,-0.013996,0.999999,0.000698,-0.000086,-0.000874,0.261816,0.631410,-0.419499,-0.597323,100.176943,32.320010,-94.448586
02515,-5.164757,7.744600,-1.565269,0.174288,0.120059,-0.375591,0.209528,-0.047652,-0.162296,-0.051581,0.077504,-0.015584,0.999999,0.001048,-0.000238,-0.000811,0.260583,0.631848,-0.419712,-0.597249,100.288395,32.411881,-94.465571
02516,-4.976785,7.365309,-1.670533,0.326667,0.126123,-0.774758,0.359153,-0.062521,-0.119768,-0.049719,0.073713,-0.016589,0.999998,0.001796,-0.000313,-0.000599,0.258980,0.632336,-0.420527,-0.596857,100.476053,32.480424,-94.498321
02517,-5.032365,7.479245,-1.212909,-0.172066,0.187401,-0.720378,0.525545,-0.051761,-0.084570,-0.050289,0.074845,-0.011945,0.999996,0.002628,-0.000259,-0.000423,0.256969,0.633003,-0.421931,-0.596027,100.762212,32.529052,-94.527072
02518,-5.006924,7.860565,-1.172404,-0.339584,-0.024436,-0.425662,0.545294,-0.047314,-0.057499,-0.050044,0.078652,-0.011521,0.999996,0.002726,-0.000237,-0.000287,0.254992,0.633639,-0.423473,-0.595106,101.058020,32.561167,-94.556954
02519,-5.021650,8.463960,-1.189186,-0.505434,-0.323628,0.082230,0.516421,-0.017419,-0.043654,-0.050197,0.084681,-0.011678,0.999997,0.002582,-0.000087,-0.000218,0.253201,0.634301,-0.424930,-0.594126,101.348650,32.583221,-94.567637
02520,-5.296231,8.740218,-1.132171,-0.649876,-0.221693,0.446536,0.466256,-0.004594,-0.030532,-0.052949,0.087436,-0.011119,0.999997,0.002331,-0.000023,-0.000153,0.251643,0.634898,-0.426263,-0.593196,101.612704,32.595554,-94.572334
02521,-5.613960,8.702260,-1.097672,-0.690225,0.072265,0.578127,0.415150,-0.040712,-0.041764,-0.056119,0.087057,-0.010807,0.999998,0.002076,-0.000204,-0.000209,0.250126,0.635353,-0.427449,-0.592496,101.836930,32.619341,-94.598557
02522,-5.702154,8.653199,-1.209070,-0.596538,0.148410,0.602508,0.391635,-0.085265,-0.071925,-0.056985,0.086576,-0.011945,0.999998,0.001958,-0.000426,-0.000360,0.248507,0.635699,-0.428526,-0.592027,102.032428,32.664454,-94.651029
02523,-5.654326,8.731042,-1.086759,-0.767005,0.086290,0.617448,0.376332,-0.103088,-0.100539,-0.056494,0.087359,-0.010732,0.999998,0.001882,-0.000515,-0.000503,0.246804,0.636041,-0.429486,-0.591677,102.216582,32.728825,-94.710196
02524,-5.582720,8.857856,-1.251602,-0.668974,-0.079276,0.710669,0.259463,-0.108446,-0.119197,-0.055768,0.088628,-0.012431,0.999999,0.001297,-0.000542,-0.000596,0.245415,0.636252,-0.430047,-0.591620,102.331707,32.803486,-94.771020
02525,-5.445887,8.976386,-1.156888,-0.815265,-0.247362,0.715641,0.163064,-0.117008,-0.124350,-0.054396,0.089807,-0.011528,0.999999,0.000815,-0.000585,-0.000622,0.244288,0.636338,-0.430315,-0.591799,102.390515,32.883096,-94.835765
02526,-5.249751,8.945617,-0.892740,-1.075852,-0.356499,0.536050,-0.064507,-0.121204,-0.117196,-0.052440,0.089484,-0.008988,1.000000,-0.000323,-0.000606,-0.000586,0.243908,0.636109,-0.429938,-0.592476,102.315068,32.958257,-94.905391
02527,-5.158593,8.502502,-1.368362,-0.491171,-0.315277,0.209054,-0.270742,-0.123878,-0.104500,-0.051533,0.085033,-0.013831,0.999999,-0.001354,-0.000619,-0.000523,0.244205,0.635601,-0.428992,-0.593583,102.120933,33.027448,-94.977939
02528,-5.194817,8.402293,-1.458583,-0.345052,-0.265645,0.163403,-0.348502,-0.114052,-0.088898,-0.051902,0.084020,-0.014762,0.999998,-0.001743,-0.000570,-0.000444,0.244825,0.634982,-0.427853,-0.594811,101.882642,33.085520,-95.047493
02529,-5.246473,7.998849,-1.588576,-0.077136,-0.053879,-0.116211,-0.444987,-0.103764,-0.077142,-0.052426,0.079973,-0.016091,0.999997,-0.002225,-0.000519,-0.000386,0.245798,0.634258,-0.426448,-0.596190,101.593395,33.136507,-95.111164
02530,-5.217129,7.605257,-1.763723,0.224603,0.078462,-0.425868,-0.375965,-0.111977,-0.076284,-0.052132,0.076039,-0.017809,0.999998,-0.001880,-0.000560,-0.000381,0.246546,0.633579,-0.425261,-0.597449,101.338674,33.186709,-95.181788
02531,-5.118558,7.330638,-1.796645,0.345763,0.121237,-0.700524,-0.300306,-0.085920,-0.078695,-0.051149,0.073299,-0.018098,0.999999,-0.001502,-0.000430,-0.000393,0.247092,0.633085,-0.424258,-0.598460,101.138579,33.236109,-95.233868
02532,-5.109969,7.002361,-2.115014,0.753507,0.213246,-0.924220,-0.177309,-0.085217,-0.068082,-0.051067,0.070022,-0.021234,0.999999,-0.000887,-0.000426,-0.000340,0.247291,0.632710,-0.423656,-0.599200,101.006608,33.278359,-95.288063
02533,-5.249718,7.036120,-2.363229,1.001877,0.256793,-0.780430,0.107857,-0.068919,-0.053336,-0.052470,0.070388,-0.023612,1.000000,0.000539,-0.000345,-0.000267,0.246656,0.632716,-0.423933,-0.599260,101.044617,33.311472,-95.332297
02534,-5.347545,7.260515,-2.213529,0.795385,0.246420,-0.565114,0.376533,-0.062452,-0.040836,-0.053454,0.072658,-0.022015,0.999998,0.001883,-0.000312,-0.000204,0.245232,0.633034,-0.425048,-0.598718,101.236423,33.335954,-95.374735
02535,-5.527326,7.691818,-1.921725,0.385326,0.227984,-0.158270,0.641474,-0.066145,-0.035028,-0.055253,0.076989,-0.018989,0.999995,0.003207,-0.000331,-0.000175,0.242967,0.633660,-0.426974,-0.597608,101.579929,33.358717,-95.419350
02536,-5.582483,8.316305,-1.642830,-0.088647,0.007027,0.336980,0.750769,-0.106051,-0.043811,-0.055798,0.083236,-0.016146,0.999993,0.003754,-0.000530,-0.000219,0.240252,0.634300,-0.429243,-0.596400,101.970460,33.390364,-95.490318
02537,-5.460332,8.860773,-1.456137,-0.475209,-0.337221,0.680599,0.674484,-0.118613,-0.063835,-0.054566,0.088674,-0.014295,0.999994,0.003372,-0.000593,-0.000319,0.237678,0.634855,-0.431230,-0.595406,102.315914,33.436062,-95.565661
02538,-5.307733,9.287258,-1.302334,-0.790311,-0.654743,0.914283,0.376149,-0.130881,-0.090385,-0.053027,0.092921,-0.012883,0.999998,0.001881,-0.000654,-0.000452,0.235954,0.635062,-0.432256,-0.595127,102.486497,33.497451,-95.646068
02539,-4.985464,9.030731,-1.309384,-0.756263,-0.801187,0.527022,0.026901,-0.090631,-0.117546,-0.049796,0.090338,-0.013104,1.000000,0.000135,-0.000453,-0.000588,0.235335,0.635044,-0.432107,-0.595500,102.475685,33.570102,-95.694434
02540,-4.955450,8.661641,-1.383584,-0.581248,-0.664773,0.223000,-0.166171,-0.038524,-0.121375,-0.049499,0.086635,-0.013917,0.999999,-0.000831,-0.000193,-0.000607,0.235440,0.634951,-0.431311,-0.596134,102.372165,33.637429,-95.708335
02541,-5.073834,8.165610,-1.526499,-0.283089,-0.353658,-0.089215,-0.294861,-0.012117,-0.097680,-0.050698,0.081658,-0.015388,0.999999,-0.001474,-0.000061,-0.000488,0.236071,0.634743,-0.430174,-0.596927,102.204363,33.689247,-95.707168
02542,-5.223460,7.703158,-1.792814,0.130824,-0.056155,-0.335502,-0.277704,-0.038594,-0.052886,-0.052211,0.077020,-0.018045,0.999999,-0.001389,-0.000193,-0.000264,0.236733,0.634369,-0.429261,-0.597719,102.031125,33.718129,-95.731490
02543,-5.366324,7.442909,-1.899183,0.331534,0.169252,-0.449854,-0.126625,-0.082039,-0.014702,-0.053650,0.074421,-0.019061,1.000000,-0.000633,-0.000410,-0.000074,0.236927,0.633971,-0.428971,-0.598273,101.926781,33.731760,-95.789643
02544,-5.391040,7.634718,-1.653551,0.054578,0.140208,-0.322491,0.079752,-0.111778,0.007608,-0.053904,0.076352,-0.016535,1.000000,0.000399,-0.000559,0.000038,0.236480,0.633670,-0.429405,-0.598457,101.926110,33.735334,-95.872029
02545,-5.423651,7.846540,-1.442677,-0.202883,0.101813,-0.168312,0.144869,-0.129950,0.008250,-0.054230,0.078474,-0.014405,1.000000,0.000724,-0.000650,0.000041,0.235779,0.633400,-0.430056,-0.598553,101.957543,33.741747,-95.965769
02546,-5.147249,7.727098,-1.549993,-0.097304,-0.088010,-0.400595,0.164221,-0.125574,0.008662,-0.051466,0.077281,-0.015469,0.999999,0.000821,-0.000628,0.000043,0.235037,0.633154,-0.430762,-0.598597,102.000006,33.746437,-96.057606
02547,-4.923743,7.442577,-1.732423,0.125460,-0.164206,-0.724576,0.184246,-0.076988,0.020686,-0.049238,0.074437,-0.017275,0.999999,0.000921,-0.000385,0.000103,0.234362,0.633061,-0.431506,-0.598424,102.072832,33.739682,-96.117435
02548,-5.000316,7.117849,-2.008339,0.472503,0.009799,-0.897700,0.208695,-0.035049,0.040740,-0.050014,0.071189,-0.020018,0.999999,0.001043,-0.000175,0.000204,0.233769,0.633068,-0.432340,-0.598046,102.172104,33.715693,-96.152901
02549,-5.331652,7.085336,-2.122113,0.598990,0.280912,-0.719058,0.412769,0.003218,0.046703,-0.053333,0.070885,-0.021074,0.999998,0.002064,0.000016,0.000234,0.232621,0.633423,-0.433754,-0.597093,102.403728,33.684811,-96.162577
02550,-5.744330,7.744939,-1.767514,0.079804,0.368651,-0.016613,0.602456,-0.023457,0.025362,-0.057451,0.077495,-0.017448,0.999995,0.003012,-0.000117,0.000127,0.230759,0.633951,-0.435698,-0.595838,102.734163,33.668212,-96.188119
02551,-5.783157,8.303519,-1.546560,-0.330467,0.168809,0.417037,0.647377,-0.091509,-0.029994,-0.057812,0.083093,-0.015223,0.999995,0.003237,-0.000458,-0.000150,0.228429,0.634453,-0.437672,-0.594755,103.071274,33.692372,-96.249974
02552,-5.678043,8.786572,-1.464995,-0.604165,-0.146355,0.732624,0.613549,-0.109879,-0.076096,-0.056739,0.087932,-0.014411,0.999995,0.003068,-0.000549,-0.000380,0.226037,0.634946,-0.439418,-0.593855,103.384628,33.743942,-96.317699
02553,-5.557059,8.937229,-1.261567,-0.895081,-0.280027,0.745098,0.441716,-0.121626,-0.111260,-0.055513,0.089431,-0.012452,0.999997,0.002209,-0.000608,-0.000556,0.224048,0.635292,-0.440549,-0.593400,103.599983,33.817933,-96.386443
02554,-5.445134,8.663938,-1.237984,-0.873361,-0.236260,0.455092,0.242403,-0.131418,-0.131056,-0.054386,0.086690,-0.012311,0.999999,0.001212,-0.000657,-0.000655,0.222621,0.635417,-0.441038,-0.593440,103.697642,33.903405,-96.459330
02555,-5.314771,8.296023,-1.164806,-0.854822,-0.150885,0.070331,0.055984,-0.137807,-0.133192,-0.053084,0.082999,-0.011661,1.000000,0.000280,-0.000689,-0.000666,0.221756,0.635328,-0.440971,-0.593908,103.687861,33.991999,-96.535169
02556,-5.290871,7.940938,-1.303235,-0.613263,-0.036758,-0.201613,-0.117673,-0.139445,-0.124123,-0.052850,0.079434,-0.013116,0.999999,-0.000588,-0.000697,-0.000621,0.221476,0.635012,-0.440421,-0.594758,103.575230,34.074659,-96.614786
02557,-5.347342,7.761109,-1.496236,-0.354711,0.040377,-0.276435,-0.192754,-0.127736,-0.105705,-0.053423,0.077625,-0.015071,0.999999,-0.000964,-0.000639,-0.000529,0.221504,0.634616,-0.439690,-0.595711,103.423780,34.146380,-96.688794
02558,-5.428652,7.909675,-1.533814,-0.333067,0.007499,-0.103169,-0.247219,-0.116376,-0.096258,-0.054239,0.079104,-0.015467,0.999999,-0.001236,-0.000582,-0.000481,0.221768,0.634162,-0.438815,-0.596740,103.242594,34.210113,-96.757992
02559,-5.578772,8.152015,-1.696449,-0.207231,-0.048340,0.207822,-0.313164,-0.129757,-0.090900,-0.055740,0.081519,-0.017128,0.999998,-0.001566,-0.000649,-0.000454,0.222216,0.633591,-0.437773,-0.597944,103.019557,34.273440,-96.836366
02560,-5.629376,8.293934,-1.692357,-0.211020,-0.095324,0.350457,-0.415745,-0.153427,-0.093800,-0.056242,0.082930,-0.017139,0.999997,-0.002079,-0.000767,-0.000469,0.222939,0.632829,-0.436441,-0.599454,102.726927,34.340070,-96.931737
02561,-5.559066,8.245633,-1.762768,-0.093779,-0.163381,0.285102,-0.462492,-0.180319,-0.109793,-0.055529,0.082446,-0.017868,0.999997,-0.002312,-0.000902,-0.000549,0.223691,0.631975,-0.434944,-0.601160,102.399939,34.419619,-97.042405
02562,-5.454674,8.074479,-1.918431,0.141704,-0.217581,0.115221,-0.554778,-0.186371,-0.125736,-0.054478,0.080725,-0.019459,0.999996,-0.002774,-0.000932,-0.000629,0.224683,0.631020,-0.433125,-0.603104,102.016791,34.507205,-97.156587
02563,-5.233716,7.500326,-2.078285,0.480381,-0.156420,-0.447299,-0.560943,-0.151986,-0.136485,-0.052270,0.074980,-0.021033,0.999996,-0.002805,-0.000760,-0.000682,0.225724,0.630190,-0.431208,-0.604954,101.645396,34.597221,-97.245611
02564,-5.231812,7.040594,-2.188471,0.753860,0.039656,-0.803736,-0.501256,-0.105192,-0.136794,-0.052258,0.070387,-0.022089,0.999996,-0.002506,-0.000526,-0.000684,0.226685,0.629553,-0.429417,-0.606529,101.324112,34.680559,-97.304443
02565,-5.320760,6.664312,-2.441439,1.137305,0.236106,-1.018662,-0.334692,-0.066421,-0.139523,-0.053153,0.066639,-0.024544,0.999998,-0.001673,-0.000332,-0.000698,0.227185,0.629236,-0.428074,-0.607619,101.114926,34.761955,-97.335895
02566,-5.534490,6.785904,-2.266158,0.973069,0.373208,-0.827790,-0.034734,-0.048177,-0.147165,-0.055289,0.067896,-0.022687,1.000000,-0.000174,-0.000241,-0.000736,0.226766,0.629321,-0.427600,-0.608022,101.083484,34.844529,-97.355070
02567,-5.604162,7.324731,-2.160593,0.732777,0.154105,-0.369926,0.156439,-0.060042,-0.162491,-0.055976,0.073310,-0.021565,0.999999,0.000782,-0.000300,-0.000812,0.225664,0.629628,-0.427669,-0.608066,101.159756,34.938089,-97.379289
02568,-5.633093,7.771792,-2.064896,0.507503,-0.052672,-0.007797,0.316519,-0.066463,-0.173884,-0.056256,0.077799,-0.020545,0.999998,0.001583,-0.000332,-0.000869,0.224019,0.630109,-0.428197,-0.607804,101.324596,35.037780,-97.407124
02569,-5.575146,8.299437,-1.758704,0.038601,-0.323589,0.333723,0.384888,-0.096013,-0.186528,-0.055666,0.083080,-0.017454,0.999998,0.001924,-0.000480,-0.000933,0.222047,0.630612,-0.428922,-0.607495,101.519721,35.149024,-97.452159
02570,-5.588861,8.484870,-1.616614,-0.173622,-0.393908,0.466245,0.293152,-0.105408,-0.195788,-0.055797,0.084927,-0.016071,0.999998,0.001466,-0.000527,-0.000979,0.220324,0.630991,-0.429351,-0.607425,101.657853,35.265614,-97.502983
02571,-5.438046,8.399849,-1.474203,-0.320490,-0.454788,0.286495,0.151932,-0.104760,-0.205828,-0.054286,0.084066,-0.014707,0.999999,0.000760,-0.000524,-0.001029,0.219007,0.631247,-0.429315,-0.607661,101.717755,35.388871,-97.550785
02572,-5.484038,8.338166,-1.621750,-0.163995,-0.441413,0.287212,-0.004098,-0.062253,-0.213724,-0.054746,0.083440,-0.016236,0.999999,-0.000020,-0.000311,-0.001069,0.218259,0.631467,-0.428735,-0.608110,101.704206,35.510568,-97.569186
02573,-5.593147,8.286033,-1.518945,-0.234278,-0.322115,0.291279,-0.088320,-0.044872,-0.215318,-0.055839,0.082914,-0.015239,0.999999,-0.000442,-0.000224,-0.001077,0.217800,0.631661,-0.427872,-0.608682,101.651006,35.632198,-97.574495
02574,-5.554566,8.382612,-1.605132,-0.173947,-0.448816,0.359141,-0.167713,-0.048178,-0.206974,-0.055455,0.083870,-0.016135,0.999999,-0.000839,-0.000241,-0.001035,0.217619,0.631729,-0.426799,-0.609428,101.548557,35.748437,-97.584487
02575,-5.478808,8.468907,-1.777745,-0.022215,-0.621005,0.410515,-0.312470,-0.041977,-0.182479,-0.054707,0.084711,-0.017921,0.999998,-0.001562,-0.000210,-0.000912,0.217973,0.631615,-0.425353,-0.610431,101.365042,35.851279,-97.592993
02576,-5.371687,8.133403,-1.975800,0.275873,-0.593549,0.111149,-0.408355,-0.042924,-0.160406,-0.053647,0.081336,-0.019936,0.999998,-0.002042,-0.000215,-0.000802,0.218704,0.631334,-0.423685,-0.611618,101.122517,35.940686,-97.606697
02577,-5.487560,7.950913,-1.720776,0.124125,-0.357851,-0.007187,-0.393966,-0.018785,-0.149847,-0.054814,0.079516,-0.017370,0.999998,-0.001970,-0.000094,-0.000749,0.219462,0.631127,-0.422064,-0.612680,100.898571,36.022581,-97.604506
02578,-5.638776,7.685683,-1.638857,0.161351,-0.089391,-0.142255,-0.393564,-0.026580,-0.153085,-0.056327,0.076868,-0.016547,0.999998,-0.001968,-0.000133,-0.000765,0.220202,0.630891,-0.420443,-0.613772,100.670093,36.106007,-97.608725
02579,-5.608380,7.544180,-1.483296,0.072431,-0.016124,-0.296220,-0.346636,-0.019645,-0.146395,-0.056027,0.075457,-0.014969,0.999998,-0.001733,-0.000098,-0.000732,0.220818,0.630721,-0.418975,-0.614728,100.472195,36.186059,-97.608357
02580,-5.669236,7.446504,-1.874859,0.501930,-0.021667,-0.280988,-0.271512,-0.012065,-0.143921,-0.056638,0.074480,-0.018853,0.999999,-0.001358,-0.000060,-0.000720,0.221229,0.630640,-0.417739,-0.615503,100.318523,36.262801,-97.604328
02581,-5.836336,7.126935,-2.230682,0.952567,0.190322,-0.384626,-0.026633,-0.028609,-0.158936,-0.058304,0.071313,-0.022325,1.000000,-0.000133,-0.000143,-0.000795,0.220778,0.630820,-0.417225,-0.615830,100.300938,36.350842,-97.609087
02582,-5.598846,7.201456,-1.934749,0.615813,0.014420,-0.508289,0.212018,-0.044968,-0.177213,-0.055920,0.072085,-0.019284,0.999999,0.001060,-0.000225,-0.000886,0.219493,0.631241,-0.417408,-0.615735,100.413195,36.449753,-97.623867
02583,-5.425261,7.692269,-1.387193,-0.072398,-0.281261,-0.302462,0.200257,-0.010187,-0.181000,-0.054182,0.076986,-0.013798,0.999999,0.001001,-0.000051,-0.000905,0.218295,0.631772,-0.417501,-0.615553,100.535156,36.548318,-97.612554
02584,-5.607571,8.185052,-1.017293,-0.546916,-0.336898,0.140311,0.006221,0.004215,-0.176182,-0.056004,0.081900,-0.010169,1.000000,0.000031,0.000021,-0.000881,0.217765,0.632115,-0.416998,-0.615728,100.550194,36.641525,-97.592589
02585,-5.824799,8.291882,-0.919863,-0.640677,-0.217978,0.339737,-0.178224,-0.038872,-0.165826,-0.058177,0.082959,-0.009284,0.999999,-0.000891,-0.000194,-0.000829,0.217750,0.632112,-0.416005,-0.616409,100.442156,36.734532,-97.603327
02586,-5.757587,7.808241,-1.598247,0.146104,-0.180554,0.016800,-0.288984,-0.043125,-0.159633,-0.057510,0.078105,-0.016108,0.999999,-0.001445,-0.000216,-0.000798,0.218105,0.631952,-0.414696,-0.617329,100.266648,36.823324,-97.619166
02587,-5.626921,7.490284,-1.642496,0.273964,-0.133451,-0.306295,-0.237609,0.009195,-0.164207,-0.056208,0.074929,-0.016511,0.999999,-0.001188,0.000046,-0.000821,0.218381,0.632026,-0.413470,-0.617977,100.144392,36.910493,-97.596845
02588,-5.638680,7.484848,-1.626871,0.274610,-0.132612,-0.306302,-0.212608,0.034481,-0.159409,-0.056330,0.074876,-0.016339,0.999999,-0.001063,0.000172,-0.000797,0.218655,0.632185,-0.412311,-0.618491,100.045210,36.991307,-97.558474
02589,-5.756403,7.706992,-1.276304,-0.095472,-0.097627,-0.109895,-0.190152,0.032389,-0.151256,-0.057508,0.077101,-0.012827,0.999999,-0.000951,0.000162,-0.000756,0.218869,0.632355,-0.411246,-0.618951,99.958891,37.068923,-97.521714
02590,-5.773943,8.096012,-0.846625,-0.590779,-0.219430,0.147402,-0.254624,0.019124,-0.142845,-0.057682,0.080990,-0.008564,0.999999,-0.001273,0.000096,-0.000714,0.219294,0.632384,-0.410025,-0.619580,99.827767,37.142009,-97.496537
02591,-5.831835,8.176223,-0.824885,-0.604995,-0.230547,0.243262,-0.333214,-0.000935,-0.128417,-0.058266,0.081786,-0.008385,0.999998,-0.001666,-0.000005,-0.000642,0.219962,0.632244,-0.408625,-0.620411,99.643374,37.210092,-97.486556
02592,-5.793293,7.999108,-1.089312,-0.285910,-0.237009,0.116894,-0.344185,-0.000618,-0.136651,-0.057878,0.080012,-0.011031,0.999998,-0.001721,-0.000003,-0.000683,0.220648,0.632098,-0.407165,-0.621276,99.451707,37.281665,-97.476670
02593,-5.842330,7.524401,-1.312882,0.071148,0.006220,-0.196663,-0.285254,-0.002768,-0.140512,-0.058370,0.075266,-0.013237,0.999999,-0.001426,-0.000014,-0.000703,0.221121,0.632025,-0.405874,-0.622025,99.294566,37.356805,-97.467095
02594,-5.710154,7.263518,-1.315441,0.139149,0.036414,-0.481331,-0.236025,0.002076,-0.142912,-0.057050,0.072660,-0.013240,0.999999,-0.001180,0.000010,-0.000715,0.221450,0.632016,-0.404726,-0.622665,99.166196,37.431714,-97.455060
02595,-5.615771,7.206087,-1.078295,-0.074079,0.035011,-0.613744,-0.193566,0.038294,-0.132736,-0.056112,0.072088,-0.010842,0.999999,-0.000968,0.000191,-0.000664,0.221740,0.632155,-0.403699,-0.623088,99.078627,37.498758,-97.417505
02596,-5.774443,7.424581,-1.118624,-0.061001,0.014199,-0.340836,-0.187966,0.075976,-0.112128,-0.057707,0.074268,-0.011234,0.999999,-0.000940,0.000380,-0.000561,0.222162,0.632365,-0.402714,-0.623361,99.007626,37.549634,-97.356532
02597,-5.880065,7.644672,-1.088488,-0.126365,-0.031825,-0.107844,-0.074864,0.064374,-0.095867,-0.058768,0.076471,-0.010895,1.000000,-0.000374,0.000322,-0.000479,0.222244,0.632642,-0.402143,-0.623420,98.996859,37.593537,-97.304650
02598,-5.961119,7.821785,-1.065230,-0.184166,-0.071723,0.077252,0.021202,0.051524,-0.078288,-0.059583,0.078242,-0.010629,1.000000,0.000106,0.000258,-0.000391,0.222060,0.632939,-0.401945,-0.623312,99.032794,37.627488,-97.264945
02599,-6.037387,7.833501,-0.952375,-0.296582,0.001245,0.118719,0.095737,0.031550,-0.073746,-0.060346,0.078362,-0.009477,1.000000,0.000479,0.000158,-0.000369,0.221605,0.633258,-0.402012,-0.623107,99.104031,37.661793,-97.238925
02600,-6.039602,7.914758,-0.861417,-0.412187,-0.028457,0.171876,0.072107,0.019047,-0.069528,-0.060369,0.079172,-0.008580,1.000000,0.000361,0.000095,-0.000348,0.221222,0.633493,-0.402035,-0.622989,99.154427,37.693676,-97.223322
02601,-6.082402,7.832662,-0.940327,-0.316726,0.029660,0.143678,-0.004577,-0.001037,-0.074248,-0.060795,0.078349,-0.009405,1.000000,-0.000023,-0.000005,-0.000371,0.221018,0.633600,-0.401824,-0.623089,99.154049,37.731203,-97.220457
02602,-5.985854,7.886653,-0.836302,-0.438801,-0.061414,0.113682,-0.045947,0.007063,-0.084521,-0.059825,0.078890,-0.008379,1.000000,-0.000230,0.000035,-0.000423,0.220938,0.633697,-0.401445,-0.623263,99.132623,37.772657,-97.211688
02603,-5.971031,7.979188,-0.659899,-0.630749,-0.095864,0.154714,-0.065425,0.033516,-0.089591,-0.059676,0.079816,-0.006615,1.000000,-0.000327,0.000168,-0.000448,0.220948,0.633875,-0.400958,-0.623392,99.113611,37.815726,-97.182345
02604,-6.159609,8.151240,-0.736704,-0.578800,-0.072895,0.414038,-0.000961,0.041049,-0.097764,-0.061558,0.081542,-0.007355,1.000000,-0.000005,0.000205,-0.000489,0.220753,0.634153,-0.400639,-0.623383,99.133800,37.861582,-97.147735
02605,-6.379059,7.742888,-0.949084,-0.261426,0.281763,0.256956,0.065652,-0.020304,-0.093440,-0.063753,0.077462,-0.009472,1.000000,0.000328,-0.000102,-0.000467,0.220227,0.634316,-0.400607,-0.623424,99.166549,37.911722,-97.156461
02606,-6.074401,7.632745,-0.967928,-0.253167,0.095104,-0.013663,0.111447,-0.061857,-0.097383,-0.060704,0.076362,-0.009656,1.000000,0.000557,-0.000309,-0.000487,0.219470,0.634396,-0.400754,-0.623515,99.205831,37.966750,-97.195597
02607,-5.922460,7.916052,-0.691184,-0.605754,-0.136681,0.078294,0.013944,-0.045049,-0.102445,-0.059182,0.079191,-0.006920,1.000000,0.000070,-0.000225,-0.000512,0.219030,0.634442,-0.400559,-0.623748,99.198680,38.024256,-97.220990
02608,-5.962224,8.288137,-0.384577,-0.977932,-0.265445,0.354042,-0.213775,0.003441,-0.097332,-0.059582,0.082906,-0.003933,0.999999,-0.001069,0.000017,-0.000487,0.219436,0.634369,-0.399619,-0.624282,99.080375,38.073287,-97.213357
02609,-6.052709,8.602819,-0.087054,-1.305824,-0.327396,0.619901,-0.456330,0.054214,-0.094237,-0.060487,0.086054,-0.001050,0.999997,-0.002282,0.000271,-0.000471,0.220711,0.634190,-0.397872,-0.625129,98.847000,38.117202,-97.168635
02610,-6.478891,8.640253,-0.645330,-0.691871,-0.155019,0.982845,-0.588464,0.034865,-0.100597,-0.064747,0.086416,-0.006696,0.999996,-0.002942,0.000174,-0.000503,0.222356,0.633803,-0.395714,-0.626309,98.527839,38.165395,-97.138551
02611,-6.715545,7.946276,-1.062688,-0.062968,0.329914,0.639974,-0.555705,-0.068327,-0.123306,-0.067103,0.079474,-0.010871,0.999996,-0.002779,-0.000342,-0.000617,0.223609,0.633178,-0.393694,-0.627765,98.184504,38.236363,-97.179675
02612,-6.325673,7.498933,-1.114975,0.089681,0.258917,0.057270,-0.467417,-0.105872,-0.161677,-0.063190,0.075014,-0.011359,0.999997,-0.002337,-0.000529,-0.000808,0.224398,0.632595,-0.391872,-0.629210,97.875160,38.330755,-97.245760
02613,-6.084546,7.408547,-0.727016,-0.255381,0.183617,-0.203435,-0.465845,-0.062371,-0.189844,-0.060773,0.074126,-0.007462,0.999997,-0.002329,-0.000312,-0.000949,0.225166,0.632212,-0.389912,-0.630537,97.589273,38.438685,-97.277114
02614,-5.981608,7.580381,-0.626032,-0.362703,-0.001893,-0.143045,-0.562099,-0.008964,-0.205780,-0.059738,0.075847,-0.006476,0.999996,-0.002810,-0.000045,-0.001029,0.226300,0.631905,-0.387537,-0.631901,97.270960,38.550430,-97.270147
02615,-6.170462,7.705218,-0.875424,-0.086894,-0.006171,0.097085,-0.577176,0.006047,-0.209504,-0.061624,0.077091,-0.008975,0.999995,-0.002886,0.000030,-0.001048,0.227488,0.631641,-0.385080,-0.633240,96.952371,38.664411,-97.251529
02616,-6.140302,7.228847,-1.248506,0.406519,0.157477,-0.256113,-0.496550,-0.046382,-0.209178,-0.061324,0.072321,-0.012679,0.999996,-0.002483,-0.000232,-0.001046,0.228329,0.631285,-0.382939,-0.634589,96.653764,38.780694,-97.273124
02617,-5.852329,7.166167,-1.009870,0.190253,-0.002369,-0.507461,-0.437388,-0.038517,-0.193668,-0.058452,0.071696,-0.010267,0.999997,-0.002187,-0.000193,-0.000968,0.229036,0.630999,-0.381020,-0.635773,96.393169,38.888705,-97.289840
02618,-5.827402,7.036210,-0.887001,0.121189,0.061593,-0.634721,-0.413053,-0.002383,-0.170242,-0.058214,0.070393,-0.009016,0.999998,-0.002065,-0.000012,-0.000851,0.229818,0.630797,-0.379211,-0.636771,96.159730,38.979915,-97.283795
02619,-5.916701,7.071509,-0.907595,0.169235,0.087834,-0.549810,-0.382256,-0.000667,-0.155421,-0.059112,0.070744,-0.009211,0.999998,-0.001911,-0.000003,-0.000777,0.230542,0.630616,-0.377541,-0.637681,95.945538,39.063737,-97.276913
02620,-5.972030,7.380997,-0.885708,0.120603,-0.069518,-0.278051,-0.331057,0.001979,-0.143146,-0.059668,0.073838,-0.008979,0.999998,-0.001655,0.000010,-0.000716,0.231159,0.630466,-0.376071,-0.638474,95.759296,39.139297,-97.270564
02621,-6.112660,7.481317,-1.106035,0.351039,-0.078817,-0.095251,-0.223745,-0.014612,-0.134680,-0.061075,0.074842,-0.011149,0.999999,-0.001119,-0.000073,-0.000673,0.231422,0.630380,-0.374986,-0.639102,95.628081,39.212118,-97.276121
02622,-6.110960,7.530653,-0.939435,0.192227,-0.092822,-0.071460,-0.125879,-0.047790,-0.133285,-0.061057,0.075341,-0.009456,1.000000,-0.000629,-0.000239,-0.000666,0.231329,0.630287,-0.374259,-0.639653,95.535511,39.284855,-97.307575
02623,-5.970552,7.635333,-0.791541,0.025157,-0.250822,-0.091126,-0.123541,-0.039278,-0.131396,-0.059654,0.076388,-0.007974,1.000000,-0.000618,-0.000196,-0.000657,0.231240,0.630231,-0.373532,-0.640165,95.449810,39.357140,-97.331891
02624,-5.965972,7.691411,-0.724599,-0.039961,-0.289937,-0.056152,-0.152355,-0.026553,-0.134931,-0.059607,0.076949,-0.007313,0.999999,-0.000762,-0.000133,-0.000675,0.231264,0.630178,-0.372690,-0.640699,95.351814,39.429590,-97.347917
02625,-5.905167,7.613712,-0.713476,-0.030907,-0.300994,-0.155717,-0.203558,-0.007327,-0.140418,-0.058998,0.076171,-0.007214,0.999999,-0.001018,-0.000037,-0.000702,0.231457,0.630147,-0.371641,-0.641269,95.235380,39.505268,-97.348379
02626,-5.866258,7.586306,-0.795741,0.064848,-0.342852,-0.196220,-0.219792,0.009934,-0.129201,-0.058614,0.075892,-0.008038,0.999999,-0.001099,0.000050,-0.000646,0.231780,0.630120,-0.370557,-0.641806,95.115402,39.572503,-97.338203
02627,-5.889275,7.597578,-0.731702,0.014780,-0.332401,-0.177782,-0.174544,0.021777,-0.106993,-0.058853,0.076001,-0.007377,0.999999,-0.000873,0.000109,-0.000535,0.232042,0.630153,-0.369672,-0.642189,95.027690,39.627628,-97.319687
02628,-5.982298,7.457018,-0.760235,0.084810,-0.188628,-0.224665,-0.124613,0.011043,-0.082300,-0.059793,0.074590,-0.007646,1.000000,-0.000623,0.000055,-0.000411,0.232217,0.630152,-0.369039,-0.642491,94.960688,39.668049,-97.311991
02629,-6.002058,7.469719,-0.703898,0.034752,-0.178169,-0.206236,-0.046875,-0.007383,-0.066635,-0.059995,0.074716,-0.007059,1.000000,-0.000234,-0.000037,-0.000333,0.232153,0.630163,-0.368725,-0.642683,94.930594,39.701609,-97.317830
02630,-6.126904,7.627997,-0.789084,0.106039,-0.202074,0.000358,0.019010,-0.033550,-0.059526,-0.061245,0.076299,-0.007894,1.000000,0.000095,-0.000168,-0.000298,0.231866,0.630144,-0.368677,-0.642833,94.923790,39.731225,-97.344735
02631,-6.101736,7.595481,-0.937781,0.254234,-0.233307,-0.030925,0.057209,-0.062705,-0.053303,-0.060994,0.075974,-0.009375,1.000000,0.000286,-0.000314,-0.000267,0.231414,0.630073,-0.368803,-0.642992,94.926507,39.759894,-97.392519
02632,-6.133631,7.930840,-0.691399,-0.043877,-0.377015,0.229903,0.086870,-0.020603,-0.063562,-0.061310,0.079331,-0.006886,1.000000,0.000434,-0.000103,-0.000318,0.230924,0.630181,-0.368947,-0.642981,94.964896,39.791172,-97.409550
02633,-6.403464,7.856979,-0.806332,0.103829,-0.152504,0.353561,0.016198,-0.005099,-0.077546,-0.064004,0.078595,-0.008059,1.000000,0.000081,-0.000025,-0.000388,0.230630,0.630293,-0.368797,-0.643062,94.972472,39.830848,-97.412979
02634,-6.358261,7.850985,-0.757869,0.049573,-0.182875,0.316671,0.040729,0.001888,-0.119499,-0.063536,0.078549,-0.007562,1.000000,0.000204,0.000009,-0.000597,0.230147,0.630523,-0.368590,-0.643129,94.997466,39.892931,-97.409648
02635,-6.214498,7.898863,-0.600496,-0.127943,-0.305287,0.250266,-0.074371,0.006562,-0.139854,-0.062090,0.079030,-0.006032,1.000000,-0.000372,0.000033,-0.000699,0.229960,0.630683,-0.367940,-0.643411,94.961311,39.967592,-97.400353
02636,-6.030096,7.814302,-0.642413,-0.084462,-0.413873,0.069601,-0.141817,0.003040,-0.133888,-0.060249,0.078179,-0.006479,1.000000,-0.000709,0.000015,-0.000669,0.230008,0.630732,-0.367098,-0.643826,94.882816,40.037826,-97.395326
02637,-6.044075,7.794716,-0.484689,-0.224590,-0.375274,0.053014,-0.173092,0.010995,-0.118583,-0.060395,0.077979,-0.004911,0.999999,-0.000865,0.000055,-0.000593,0.230208,0.630753,-0.366191,-0.644251,94.791236,40.100147,-97.384291
02638,-6.012987,7.799999,-0.654594,-0.038795,-0.445263,0.047567,-0.453244,-0.006663,-0.088934,-0.060095,0.078012,-0.006725,0.999997,-0.002266,-0.000033,-0.000445,0.231364,0.630327,-0.364498,-0.645213,94.527608,40.145161,-97.389674
02639,-5.870010,7.206952,-1.087936,0.502722,-0.269351,-0.471627,-0.507318,0.024704,-0.068762,-0.058677,0.072062,-0.011055,0.999997,-0.002537,0.000124,-0.000344,0.232802,0.629910,-0.362652,-0.646142,94.248908,40.178484,-97.371873
02640,-6.164114,7.263669,-0.790657,0.260205,-0.037556,-0.256896,-0.401459,0.070798,-0.065547,-0.061620,0.072641,-0.008031,0.999998,-0.002007,0.000354,-0.000328,0.234009,0.629746,-0.361107,-0.646732,94.051199,40.206877,-97.321112
02641,-6.314316,6.853233,-1.109726,0.672951,0.273013,-0.456329,-0.339317,0.053778,-0.067917,-0.063123,0.068535,-0.011197,0.999998,-0.001697,0.000269,-0.000340,0.234971,0.629611,-0.359769,-0.647259,93.882601,40.238663,-97.281895
02642,-6.246208,7.010842,-1.079558,0.623978,0.122009,-0.382511,-0.081820,0.059190,-0.064757,-0.062443,0.070124,-0.010806,1.000000,-0.000409,0.000296,-0.000324,0.235151,0.629780,-0.359272,-0.647306,93.862374,40.267262,-97.239988
02643,-6.360888,7.457146,-0.743101,0.233821,-0.019674,0.014166,0.072256,0.058255,-0.050574,-0.063592,0.074590,-0.007386,1.000000,0.000361,0.000291,-0.000253,0.234881,0.630111,-0.359316,-0.647057,93.931202,40.288997,-97.198321
02644,-6.379487,7.777866,-0.591619,0.033076,-0.185268,0.262413,0.001912,0.031436,-0.046110,-0.063778,0.077793,-0.005905,1.000000,0.000010,0.000157,-0.000231,0.234808,0.630255,-0.359180,-0.647018,93.944984,40.308003,-97.178084
02645,-6.118911,7.927032,-0.419965,-0.183396,-0.450955,0.198221,-0.048343,0.034214,-0.041169,-0.061174,0.079282,-0.004208,1.000000,-0.000242,0.000171,-0.000206,0.234905,0.630350,-0.358892,-0.647051,93.932789,40.325285,-97.154880
02646,-6.128669,8.214977,-0.136709,-0.497655,-0.582042,0.408794,-0.196387,0.079221,-0.045188,-0.061269,0.082162,-0.001423,0.999999,-0.000982,0.000396,-0.000226,0.235546,0.630413,-0.358062,-0.647216,93.856119,40.341903,-97.098873
02647,-6.295402,8.028986,-0.512588,-0.066887,-0.406949,0.394629,-0.392237,0.102612,-0.051985,-0.062936,0.080296,-0.005251,0.999998,-0.001961,0.000513,-0.000260,0.236814,0.630343,-0.356544,-0.647660,93.680433,40.362845,-97.023877
02648,-6.337499,7.931293,-0.647543,0.108604,-0.341625,0.353928,-0.379867,0.087069,-0.051027,-0.063358,0.079317,-0.006598,0.999998,-0.001899,0.000435,-0.000255,0.238027,0.630221,-0.355091,-0.648132,93.502585,40.382727,-96.961812
02649,-6.411996,7.699527,-0.505585,0.031211,-0.122002,0.219068,-0.368496,0.081013,-0.054366,-0.064101,0.077003,-0.005172,0.999998,-0.001842,0.000405,-0.000272,0.239172,0.630108,-0.353666,-0.648599,93.330020,40.406119,-96.903054
