// General information: 
//  MT Manager version: 2022.0.0 
//  XDA version: 2022.0.0 build 7085 rev 119802 built on 2022-11-08
// Device information: 
//  DeviceId: 00B4737C
//  ProductCode: MTW2-3A7G6
//  Firmware Version: 4.14.0
//  Hardware Version: 2.0.0
// Device settings: 
//  Filter Profile: human(46.1)
//  Option Flags: Orientation Smoother Disabled, Position/Velocity Smoother Disabled, Continuous Zero Rotation Update Disabled, AHS Disabled, ICC Disabled
// Coordinate system: ENU
PacketCounter,Acc_X,Acc_Y,Acc_Z,FreeAcc_E,FreeAcc_N,FreeAcc_U,Gyr_X,Gyr_Y,Gyr_Z,VelInc_X,VelInc_Y,VelInc_Z,OriInc_q0,OriInc_q1,OriInc_q2,OriInc_q3,Quat_q0,Quat_q1,Quat_q2,Quat_q3,Roll,Pitch,Yaw
56806,-4.505813,1.366394,8.689210,0.011793,0.030736,0.070160,0.027485,0.005823,-0.011008,-0.045055,0.013654,0.086895,1.000000,0.000137,0.000029,-0.000055,-0.097213,0.226365,-0.096232,-0.964390,9.151250,27.085410,170.696374
56807,-4.506909,1.381868,8.728737,-0.007148,0.026542,0.107589,0.031101,0.000850,-0.013045,-0.045068,0.013808,0.087290,1.000000,0.000156,0.000004,-0.000065,-0.097275,0.226345,-0.096344,-0.964377,9.163491,27.084701,170.691882
56808,-4.545476,1.445366,8.692130,0.027765,-0.046850,0.101978,0.027860,0.000517,-0.011048,-0.045454,0.014444,0.086923,1.000000,0.000139,0.000003,-0.000055,-0.097325,0.226325,-0.096440,-0.964367,9.174152,27.083715,170.688419
56809,-4.465830,1.441493,8.679980,-0.035917,-0.033058,0.054491,0.018964,0.003165,-0.005702,-0.044657,0.014408,0.086802,1.000000,0.000095,0.000016,-0.000029,-0.097336,0.226318,-0.096502,-0.964362,9.181671,27.083645,170.688829
56810,-4.506907,1.373100,8.687585,0.013175,0.029275,0.070162,0.012657,-0.002367,-0.009634,-0.045069,0.013728,0.086876,1.000000,0.000063,-0.000012,-0.000048,-0.097363,0.226290,-0.096525,-0.964363,9.183897,27.080899,170.685969
56811,-4.526335,1.411237,8.689451,0.021184,-0.009497,0.086066,0.012658,-0.002366,-0.009633,-0.045264,0.014109,0.086895,1.000000,0.000063,-0.000012,-0.000048,-0.097389,0.226262,-0.096550,-0.964365,9.186408,27.078060,170.683313
56812,-4.486039,1.448451,8.692529,-0.023687,-0.038682,0.075718,0.008719,-0.001097,-0.009263,-0.044860,0.014483,0.086926,1.000000,0.000044,-0.000005,-0.000046,-0.097409,0.226242,-0.096555,-0.964367,9.186543,27.075999,170.680819
56813,-4.497482,1.362593,8.706419,0.000750,0.045480,0.080930,0.007515,0.000561,-0.008584,-0.044974,0.013625,0.087065,1.000000,0.000038,0.000003,-0.000043,-0.097423,0.226230,-0.096558,-0.964368,9.186548,27.074719,170.679130
56814,-4.487598,1.383724,8.714310,-0.015922,0.028441,0.086371,0.010251,0.000950,-0.008273,-0.044875,0.013835,0.087144,1.000000,0.000051,0.000005,-0.000041,-0.097439,0.226219,-0.096572,-0.964367,9.187943,27.073726,170.677475
56815,-4.498001,1.363596,8.705993,0.001440,0.044746,0.080933,0.013315,0.003939,-0.010241,-0.044978,0.013632,0.087062,1.000000,0.000067,0.000020,-0.000051,-0.097465,0.226221,-0.096602,-0.964361,9.190950,27.074509,170.675082
56816,-4.469628,1.361060,8.751794,-0.042183,0.062256,0.107913,0.012111,0.005597,-0.009561,-0.044693,0.013607,0.087520,1.000000,0.000061,0.000028,-0.000048,-0.097488,0.226232,-0.096627,-0.964354,9.193254,27.076261,170.673085
56817,-4.519492,1.370132,8.717963,0.013326,0.039515,0.102160,0.022873,0.009812,-0.008294,-0.045190,0.013693,0.087183,1.000000,0.000114,0.000049,-0.000041,-0.097513,0.226257,-0.096708,-0.964337,9.202575,27.080187,170.672532
56818,-4.520047,1.371811,8.717411,0.013661,0.039127,0.102161,0.024636,0.000193,-0.009035,-0.045200,0.013709,0.087176,1.000000,0.000123,0.000001,-0.000045,-0.097549,0.226236,-0.096791,-0.964330,9.211952,27.078834,170.670313
56819,-4.500221,1.368750,8.704037,0.002820,0.043278,0.080939,0.023248,0.004505,-0.008333,-0.045000,0.013679,0.087043,1.000000,0.000116,0.000023,-0.000042,-0.097577,0.226235,-0.096872,-0.964320,9.221229,27.079763,170.669190
56820,-4.479795,1.398321,8.679606,-0.011562,0.013456,0.054384,0.022414,0.000855,-0.007696,-0.044797,0.013975,0.086798,1.000000,0.000112,0.000004,-0.000038,-0.097605,0.226217,-0.096945,-0.964314,9.229749,27.078662,170.667888
56821,-4.459922,1.395223,8.666259,-0.022405,0.017606,0.033163,0.024460,0.002849,-0.009005,-0.044597,0.013944,0.086665,1.000000,0.000122,0.000014,-0.000045,-0.097638,0.226208,-0.097030,-0.964304,9.239448,27.078716,170.666168
56822,-4.460487,1.443295,8.694673,-0.044856,-0.020606,0.065265,0.024275,0.006612,-0.005037,-0.044602,0.014424,0.086950,1.000000,0.000121,0.000033,-0.000025,-0.097652,0.226216,-0.097119,-0.964292,9.250073,27.080625,170.667149
56823,-4.481821,1.416656,8.718180,-0.029783,0.008478,0.091824,0.013329,0.003939,-0.010228,-0.044816,0.014163,0.087184,1.000000,0.000067,0.000020,-0.000051,-0.097678,0.226218,-0.097149,-0.964285,9.253091,27.081409,170.664764
56824,-4.481090,1.436425,8.666662,-0.013681,-0.021945,0.049049,0.012123,0.005597,-0.009551,-0.044808,0.014361,0.086669,1.000000,0.000061,0.000028,-0.000048,-0.097701,0.226229,-0.097174,-0.964278,9.255402,27.083159,170.662775
56825,-4.522345,1.367539,8.674358,0.035368,0.040479,0.064729,0.010266,0.000950,-0.008259,-0.045222,0.013673,0.086744,1.000000,0.000051,0.000005,-0.000041,-0.097716,0.226217,-0.097190,-0.964278,9.257094,27.082071,170.661331
56826,-4.483250,1.418661,8.717120,-0.028747,0.007346,0.091828,0.015373,0.007042,-0.007593,-0.044829,0.014182,0.087174,1.000000,0.000077,0.000035,-0.000038,-0.097731,0.226233,-0.097233,-0.964268,9.261900,27.084458,170.660735
56827,-4.513484,1.435905,8.710521,-0.003692,-0.014760,0.102266,0.006650,0.004814,-0.010175,-0.045132,0.014358,0.087107,1.000000,0.000033,0.000024,-0.000051,-0.097750,0.226242,-0.097232,-0.964264,9.261149,27.085732,170.658475
56828,-4.534808,1.408252,8.734207,0.011353,0.014285,0.128827,0.008876,0.005262,-0.007562,-0.045345,0.014080,0.087344,1.000000,0.000044,0.000026,-0.000038,-0.097759,0.226252,-0.097243,-0.964260,9.262158,27.087108,170.657715
56829,-4.503795,1.443557,8.677875,-0.000710,-0.028258,0.070264,0.004607,0.002821,-0.008863,-0.045036,0.014436,0.086780,1.000000,0.000023,0.000014,-0.000044,-0.097769,0.226253,-0.097232,-0.964260,9.260521,27.087134,170.656082
56830,-4.484486,1.405811,8.675973,-0.008090,0.009781,0.054392,0.000343,-0.000731,-0.014107,-0.044844,0.014061,0.086760,1.000000,0.000002,-0.000004,-0.000071,-0.097803,0.226241,-0.097191,-0.964263,9.254466,27.085725,170.650545
56831,-4.514946,1.389582,8.680787,0.020461,0.021615,0.070170,0.004603,0.003931,-0.004920,-0.045147,0.013895,0.086809,1.000000,0.000023,0.000020,-0.000025,-0.097794,0.226245,-0.097186,-0.964264,9.254020,27.086016,170.651531
56832,-4.486390,1.386742,8.726789,-0.023166,0.039055,0.097183,0.005811,0.002273,-0.005594,-0.044863,0.013866,0.087269,1.000000,0.000029,0.000011,-0.000028,-0.097792,0.226241,-0.097182,-0.964265,9.253701,27.085521,170.651711
56833,-4.446385,1.377056,8.700811,-0.045237,0.047697,0.054755,0.000160,0.001923,-0.014085,-0.044462,0.013774,0.087009,1.000000,0.000001,0.000010,-0.000070,-0.097823,0.226242,-0.097144,-0.964266,9.247963,27.085520,170.646667
56834,-4.507203,1.344948,8.710433,0.011478,0.071678,0.086309,0.008364,0.005321,-0.005260,-0.045069,0.013447,0.087106,1.000000,0.000042,0.000027,-0.000026,-0.097820,0.226251,-0.097155,-0.964263,9.249345,27.086716,170.647375
56835,-4.487499,1.340764,8.697188,0.000617,0.075827,0.065097,0.012318,0.002948,-0.009562,-0.044873,0.013404,0.086973,1.000000,0.000062,0.000015,-0.000048,-0.097843,0.226249,-0.097181,-0.964258,9.251930,27.086878,170.645310
56836,-4.467782,1.383157,8.712885,-0.032997,0.042068,0.075979,0.015752,0.001741,-0.007623,-0.044677,0.013826,0.087130,1.000000,0.000079,0.000009,-0.000038,-0.097862,0.226238,-0.097223,-0.964255,9.256690,27.086267,170.644145
56837,-4.488300,1.389000,8.725447,-0.021422,0.037223,0.097194,0.017798,0.003735,-0.008931,-0.044881,0.013884,0.087257,1.000000,0.000089,0.000019,-0.000045,-0.097887,0.226237,-0.097276,-0.964247,9.262634,27.086816,170.642562
56838,-4.496862,1.467259,8.683777,-0.014531,-0.048276,0.075693,0.014225,-0.000309,-0.008608,-0.044968,0.014668,0.086839,1.000000,0.000071,-0.000002,-0.000043,-0.097910,0.226218,-0.097309,-0.964246,9.266135,27.085135,170.640558
56839,-4.497033,1.468032,8.683558,-0.014167,-0.048624,0.075692,0.010270,0.002065,-0.004307,-0.044969,0.014677,0.086837,1.000000,0.000051,0.000010,-0.000022,-0.097905,0.226209,-0.097330,-0.964246,9.269025,27.084314,170.641739
56840,-4.478333,1.397898,8.692745,-0.018113,0.023344,0.065193,-0.002067,0.002578,-0.012754,-0.044781,0.013983,0.086928,1.000000,-0.000010,0.000013,-0.000064,-0.097928,0.226214,-0.097281,-0.964248,9.262131,27.084648,170.637402
56841,-4.489992,1.357774,8.735771,-0.016569,0.069673,0.102560,0.006845,0.002161,-0.010185,-0.044898,0.013577,0.087359,1.000000,0.000034,0.000011,-0.000051,-0.097948,0.226211,-0.097280,-0.964247,9.261363,27.084423,170.634860
56842,-4.499214,1.402761,8.705272,-0.006195,0.018111,0.086406,0.011809,0.003007,-0.007258,-0.044990,0.014024,0.087054,1.000000,0.000059,0.000015,-0.000036,-0.097960,0.226209,-0.097304,-0.964244,9.264028,27.084491,170.634058
56843,-4.460061,1.407330,8.719159,-0.047526,0.022798,0.081436,0.006660,0.004815,-0.010166,-0.044598,0.014073,0.087193,1.000000,0.000033,0.000024,-0.000051,-0.097978,0.226218,-0.097303,-0.964240,9.263285,27.085765,170.631804
56844,-4.489956,1.377919,8.683798,0.000236,0.038564,0.059760,0.009072,0.002613,-0.007571,-0.044898,0.013777,0.086839,1.000000,0.000045,0.000013,-0.000038,-0.097989,0.226215,-0.097313,-0.964238,9.264271,27.085638,170.630761
56845,-4.470906,1.387281,8.710627,-0.029872,0.038752,0.076002,0.010611,0.003553,-0.010522,-0.044707,0.013871,0.087108,1.000000,0.000053,0.000018,-0.000053,-0.098014,0.226217,-0.097330,-0.964233,9.265629,27.086231,170.628150
56846,-4.462131,1.422410,8.758256,-0.065728,0.017696,0.118893,0.013343,0.005060,-0.006266,-0.044619,0.014220,0.087585,1.000000,0.000067,0.000025,-0.000031,-0.098022,0.226223,-0.097363,-0.964228,9.269554,27.087367,170.628189
56847,-4.501471,1.405178,8.703715,-0.004442,0.016286,0.086410,0.010106,0.002499,-0.012162,-0.045013,0.014050,0.087038,1.000000,0.000051,0.000012,-0.000061,-0.098055,0.226221,-0.097375,-0.964224,9.270098,27.087516,170.624426
56848,-4.511627,1.463494,8.713152,-0.013275,-0.039236,0.107691,0.005463,0.005360,-0.013429,-0.045113,0.014636,0.087133,1.000000,0.000027,0.000027,-0.000067,-0.098088,0.226236,-0.097363,-0.964218,9.267450,27.089480,170.619948
56849,-4.473148,1.434757,8.738248,-0.051160,-0.000636,0.108096,0.001185,0.004024,-0.010793,-0.044729,0.014349,0.087383,1.000000,0.000006,0.000020,-0.000054,-0.098103,0.226244,-0.097334,-0.964217,9.263351,27.090365,170.617213
56850,-4.493139,1.425279,8.710946,-0.020358,-0.001551,0.091851,-0.002765,0.005285,-0.010436,-0.044928,0.014256,0.087110,1.000000,-0.000014,0.000026,-0.000052,-0.098113,0.226262,-0.097286,-0.964217,9.256852,27.092009,170.614628
56851,-4.513649,1.383001,8.694826,0.013903,0.031516,0.080974,-0.001554,0.003629,-0.011107,-0.045134,0.013833,0.086949,1.000000,-0.000008,0.000018,-0.000056,-0.098127,0.226270,-0.097243,-0.964218,9.251074,27.092699,170.611653
56852,-4.513454,1.415073,8.683590,0.010802,-0.002806,0.075604,-0.001883,0.001032,-0.008829,-0.045133,0.014154,0.086836,1.000000,-0.000009,0.000005,-0.000044,-0.098132,0.226265,-0.097198,-0.964223,9.245344,27.091789,170.609649
56853,-4.493990,1.377202,8.681825,0.003361,0.035275,0.059772,-0.000166,0.000431,-0.007858,-0.044939,0.013774,0.086818,1.000000,-0.000001,0.000002,-0.000039,-0.098134,0.226256,-0.097165,-0.964229,9.241151,27.090371,170.608406
56854,-4.454446,1.381457,8.695990,-0.038000,0.039887,0.054820,0.007725,-0.000978,-0.004633,-0.044545,0.013812,0.086960,1.000000,0.000039,-0.000005,-0.000023,-0.098130,0.226235,-0.097170,-0.964233,9.242044,27.087938,170.608859
56855,-4.464724,1.407017,8.716823,-0.043350,0.018330,0.081465,0.000352,0.000373,-0.010154,-0.044646,0.014072,0.087168,1.000000,0.000002,0.000002,-0.000051,-0.098144,0.226226,-0.097137,-0.964238,9.237480,27.086698,170.606153
56856,-4.464195,1.393259,8.676714,-0.023793,0.021928,0.044012,0.005821,0.002278,-0.005584,-0.044641,0.013931,0.086768,1.000000,0.000029,0.000011,-0.000028,-0.098141,0.226222,-0.097133,-0.964239,9.237160,27.086193,170.606338
56857,-4.465244,1.406815,8.716589,-0.042653,0.017585,0.081469,-0.000858,0.002030,-0.009481,-0.044651,0.014071,0.087166,1.000000,-0.000004,0.000010,-0.000047,-0.098149,0.226222,-0.097095,-0.964242,9.232176,27.085828,170.604230
56858,-4.455422,1.381062,8.695552,-0.036617,0.038403,0.054831,0.005645,0.003821,-0.009503,-0.044552,0.013810,0.086957,1.000000,0.000028,0.000019,-0.000048,-0.098164,0.226227,-0.097087,-0.964240,9.230694,27.086553,170.602086
56859,-4.505687,1.402315,8.701995,-0.000257,0.011854,0.086418,0.002906,0.003424,-0.009819,-0.045055,0.014024,0.087021,1.000000,0.000015,0.000017,-0.000049,-0.098177,0.226232,-0.097068,-0.964240,9.227833,27.087007,170.599907
56860,-4.506107,1.401999,8.701828,0.000082,0.011463,0.086418,0.000166,0.003027,-0.010134,-0.045059,0.014022,0.087019,1.000000,0.000001,0.000015,-0.000051,-0.098190,0.226237,-0.097032,-0.964241,9.222992,27.087340,170.597280
56861,-4.476464,1.417513,8.696735,-0.027739,-0.001115,0.070658,-0.002761,0.005285,-0.010432,-0.044762,0.014179,0.086968,1.000000,-0.000014,0.000026,-0.000052,-0.098199,0.226253,-0.096986,-0.964241,9.216794,27.088903,170.594904
56862,-4.487413,1.363204,8.699809,-0.007054,0.049151,0.070602,-0.005312,0.002233,-0.010765,-0.044872,0.013637,0.086998,1.000000,-0.000027,0.000011,-0.000054,-0.098208,0.226257,-0.096923,-0.964245,9.208594,27.088844,170.591794
56863,-4.507734,1.321135,8.683721,0.027165,0.082257,0.059727,0.005647,0.003823,-0.009500,-0.045075,0.013211,0.086838,1.000000,0.000028,0.000019,-0.000048,-0.098223,0.226262,-0.096917,-0.964243,9.207415,27.089494,170.589859
56864,-4.458618,1.346482,8.705638,-0.031135,0.070111,0.060232,0.010104,0.003620,-0.008213,-0.044584,0.013462,0.087058,1.000000,0.000051,0.000018,-0.000041,-0.098237,0.226264,-0.096932,-0.964240,9.208847,27.089984,170.588511
56865,-4.489152,1.331341,8.710212,-0.002604,0.081999,0.075994,0.019018,0.003214,-0.005639,-0.044890,0.013306,0.087104,1.000000,0.000095,0.000016,-0.000028,-0.098248,0.226257,-0.096995,-0.964234,9.216418,27.089936,170.588966
56866,-4.449434,1.369453,8.712878,-0.047376,0.052637,0.065678,0.017836,0.002646,-0.012839,-0.044492,0.013690,0.087131,1.000000,0.000089,0.000013,-0.000064,-0.098294,0.226253,-0.097041,-0.964226,9.220893,27.090299,170.584577
56867,-4.479858,1.433603,8.734999,-0.044843,-0.007365,0.108124,0.021588,0.005156,-0.009237,-0.044796,0.014329,0.087353,1.000000,0.000108,0.000026,-0.000046,-0.098325,0.226256,-0.097114,-0.964214,9.228986,27.091680,170.582947
56868,-4.489952,1.446551,8.715343,-0.030975,-0.024961,0.097297,0.012661,0.006673,-0.007875,-0.044896,0.014462,0.087156,1.000000,0.000063,0.000033,-0.000039,-0.098339,0.226271,-0.097143,-0.964207,9.232121,27.093862,170.582128
56869,-4.520752,1.431134,8.719815,-0.002435,-0.013068,0.113054,0.012157,0.005617,-0.009515,-0.045204,0.014308,0.087200,1.000000,0.000061,0.000028,-0.000048,-0.098360,0.226281,-0.097169,-0.964199,9.234752,27.095529,170.580369
56870,-4.490416,1.433749,8.674551,-0.011074,-0.021674,0.059836,0.004456,0.004364,-0.012761,-0.044901,0.014338,0.086747,1.000000,0.000022,0.000022,-0.000064,-0.098389,0.226292,-0.097152,-0.964196,9.231665,27.096854,170.576209
56871,-4.511162,1.438269,8.687181,0.000543,-0.026513,0.081029,0.001181,0.005136,-0.006848,-0.045109,0.014384,0.086873,1.000000,0.000006,0.000026,-0.000034,-0.098385,0.226304,-0.097128,-0.964196,9.228756,27.098004,170.576094
56872,-4.462229,1.384000,8.691594,-0.031773,0.033207,0.054867,-0.000850,0.002026,-0.009477,-0.044621,0.013842,0.086916,1.000000,-0.000004,0.000010,-0.000047,-0.098394,0.226304,-0.097088,-0.964199,9.223470,27.097705,170.573780
56873,-4.502156,1.379463,8.677234,0.010291,0.027916,0.059791,0.004631,0.002824,-0.008841,-0.045020,0.013795,0.086773,1.000000,0.000023,0.000014,-0.000044,-0.098404,0.226304,-0.097078,-0.964199,9.221852,27.097730,170.572160
56874,-4.493807,1.381206,8.736242,-0.022094,0.040672,0.108090,0.000867,0.001426,-0.008505,-0.044937,0.013814,0.087363,1.000000,0.000004,0.000007,-0.000043,-0.098411,0.226300,-0.097047,-0.964202,9.217802,27.097001,170.570401
56875,-4.493225,1.367402,8.696149,-0.002549,0.044369,0.070627,0.005325,0.001226,-0.007216,-0.044931,0.013673,0.086962,1.000000,0.000027,0.000006,-0.000036,-0.098415,0.226291,-0.097041,-0.964204,9.216977,27.095973,170.569649
56876,-4.513609,1.372318,8.708902,0.009049,0.039486,0.091820,0.007563,0.000570,-0.008539,-0.045135,0.013722,0.087090,1.000000,0.000038,0.000003,-0.000043,-0.098430,0.226280,-0.097042,-0.964205,9.216712,27.094762,170.567779
56877,-4.483177,1.421376,8.692646,-0.022143,-0.007052,0.070670,0.007563,0.000570,-0.008538,-0.044831,0.014212,0.086927,1.000000,0.000038,0.000003,-0.000043,-0.098443,0.226267,-0.097045,-0.964207,9.216756,27.093485,170.566120
56878,-4.483801,1.388869,8.703743,-0.018430,0.026489,0.076070,0.004823,0.000170,-0.008856,-0.044837,0.013889,0.087038,1.000000,0.000024,0.000001,-0.000044,-0.098456,0.226255,-0.097032,-0.964209,9.214810,27.092077,170.564008
56879,-4.483309,1.375116,8.663595,0.001108,0.030199,0.038605,0.003420,0.004480,-0.008169,-0.044831,0.013752,0.086637,1.000000,0.000017,0.000022,-0.000041,-0.098461,0.226264,-0.097017,-0.964208,9.212771,27.092976,170.562986
56880,-4.454252,1.405150,8.698495,-0.045907,0.013485,0.060323,0.008258,-0.001027,-0.006913,-0.044542,0.014049,0.086985,1.000000,0.000041,-0.000005,-0.000035,-0.098470,0.226243,-0.097022,-0.964212,9.213298,27.090712,170.561984
56881,-4.494157,1.400650,8.684131,-0.003837,0.008217,0.065233,-0.002234,0.005220,-0.012722,-0.044938,0.014010,0.086842,1.000000,-0.000011,0.000026,-0.000064,-0.098490,0.226260,-0.096976,-0.964210,9.206737,27.092447,170.558146
56882,-4.505464,1.393123,8.715939,-0.005770,0.020513,0.097264,0.003421,0.004480,-0.008168,-0.045052,0.013932,0.087161,1.000000,0.000017,0.000022,-0.000041,-0.098496,0.226270,-0.096959,-0.964209,9.204388,27.093411,170.556916
56883,-4.474942,1.395218,8.670861,-0.014409,0.011969,0.044047,-0.000325,0.001967,-0.011766,-0.044748,0.013955,0.086709,1.000000,-0.000002,0.000010,-0.000059,-0.098515,0.226270,-0.096921,-0.964211,9.199044,27.093219,170.553349
56884,-4.486037,1.387640,8.702787,-0.016343,0.024261,0.076080,-0.000343,0.003081,-0.007833,-0.044858,0.013878,0.087029,1.000000,-0.000002,0.000015,-0.000039,-0.098516,0.226274,-0.096886,-0.964214,9.194569,27.093360,170.552187
56885,-4.496279,1.366383,8.694731,0.000913,0.040673,0.070643,-0.001367,0.002082,-0.007180,-0.044961,0.013666,0.086948,1.000000,-0.000007,0.000010,-0.000036,-0.098512,0.226272,-0.096848,-0.964218,9.189961,27.092813,170.551547
56886,-4.496983,1.333199,8.705887,0.004603,0.074216,0.076055,-0.001347,0.000968,-0.011112,-0.044969,0.013335,0.087059,1.000000,-0.000007,0.000005,-0.000056,-0.098529,0.226268,-0.096803,-0.964222,9.183862,27.092058,170.548084
56887,-4.457029,1.370067,8.708899,-0.040109,0.044833,0.065748,0.007237,-0.002023,-0.006258,-0.044571,0.013699,0.087089,1.000000,0.000036,-0.000010,-0.000031,-0.098532,0.226243,-0.096806,-0.964227,9.184258,27.089104,170.547607
56888,-4.476753,1.361256,8.681574,-0.009332,0.044032,0.049464,0.006494,0.007480,-0.010123,-0.044764,0.013612,0.086818,1.000000,0.000032,0.000037,-0.000051,-0.098550,0.226266,-0.096803,-0.964220,9.183240,27.091940,170.545440
56889,-4.487642,1.387176,8.702033,-0.014594,0.022428,0.076087,0.012359,0.002974,-0.009518,-0.044874,0.013869,0.087022,1.000000,0.000062,0.000015,-0.000048,-0.098572,0.226263,-0.096829,-0.964216,9.185861,27.092111,170.543406
56890,-4.478702,1.376105,8.720808,-0.027804,0.039201,0.086940,0.012148,0.006742,-0.005568,-0.044784,0.013757,0.087210,1.000000,0.000061,0.000034,-0.000028,-0.098575,0.226278,-0.096858,-0.964210,9.189365,27.094112,170.544056
56891,-4.478897,1.409507,8.709146,-0.030788,0.004916,0.081527,0.011648,0.005686,-0.007207,-0.044786,0.014092,0.087094,1.000000,0.000058,0.000028,-0.000036,-0.098584,0.226287,-0.096885,-0.964204,9.192374,27.095606,170.543769
56892,-4.509154,1.426557,8.702457,-0.005617,-0.017135,0.091856,0.008907,0.005284,-0.007526,-0.045089,0.014263,0.087026,1.000000,0.000045,0.000026,-0.000038,-0.098593,0.226297,-0.096896,-0.964199,9.193386,27.096960,170.543026
56893,-4.510502,1.361608,8.724601,0.001414,0.050388,0.102691,0.007382,0.003228,-0.008513,-0.045103,0.013615,0.087247,1.000000,0.000037,0.000016,-0.000043,-0.098605,0.226298,-0.096899,-0.964198,9.193458,27.097183,170.541656
56894,-4.489375,1.376007,8.660312,0.006294,0.024650,0.038619,0.006881,0.002171,-0.010152,-0.044892,0.013759,0.086604,1.000000,0.000034,0.000011,-0.000051,-0.098626,0.226295,-0.096895,-0.964196,9.192402,27.097017,170.538925
56895,-4.490375,1.390265,8.700130,-0.012505,0.020199,0.076095,0.012726,-0.001218,-0.005613,-0.044904,0.013898,0.087002,1.000000,0.000064,-0.000006,-0.000028,-0.098632,0.226270,-0.096926,-0.964199,9.196167,27.094460,170.538941
56896,-4.450056,1.381510,8.674246,-0.034732,0.028784,0.033737,0.008077,0.001632,-0.006888,-0.044499,0.013813,0.086743,1.000000,0.000040,0.000008,-0.000034,-0.098638,0.226263,-0.096931,-0.964199,9.196715,27.093689,170.538228
56897,-4.490929,1.391335,8.699673,-0.011808,0.019457,0.076097,0.009935,0.006285,-0.008175,-0.044906,0.013911,0.086999,1.000000,0.000050,0.000031,-0.000041,-0.098650,0.226277,-0.096949,-0.964193,9.198491,27.095610,170.537387
56898,-4.500766,1.403626,8.680227,0.002088,0.001906,0.065237,0.008771,0.000035,-0.005263,-0.045007,0.014034,0.086803,1.000000,0.000044,0.000000,-0.000026,-0.098650,0.226260,-0.096959,-0.964196,9.199832,27.093786,170.537542
56899,-4.441590,1.371055,8.692696,-0.047242,0.044847,0.044606,0.006361,0.002229,-0.007858,-0.044414,0.013710,0.086928,1.000000,0.000032,0.000011,-0.000039,-0.098658,0.226256,-0.096958,-0.964196,9.199462,27.093384,170.536485
56900,-4.492205,1.360119,8.710248,-0.007453,0.052255,0.081526,0.013563,0.002438,-0.006245,-0.044921,0.013597,0.087104,1.000000,0.000068,0.000012,-0.000031,-0.098668,0.226250,-0.096991,-0.964193,9.203376,27.093008,170.536264
56901,-4.492583,1.440116,8.727389,-0.032873,-0.020089,0.108153,0.014589,0.003438,-0.006896,-0.044924,0.014396,0.087276,1.000000,0.000073,0.000017,-0.000034,-0.098680,0.226247,-0.097031,-0.964189,9.208055,27.093201,170.535943
56902,-4.492550,1.394581,8.698316,-0.010072,0.017575,0.076102,0.012348,0.004093,-0.005576,-0.044923,0.013942,0.086985,1.000000,0.000062,0.000020,-0.000028,-0.098684,0.226248,-0.097060,-0.964185,9.211544,27.093698,170.536316
56903,-4.492934,1.395220,8.698016,-0.009715,0.017227,0.076103,0.009106,0.002632,-0.007535,-0.044928,0.013950,0.086981,1.000000,0.000046,0.000013,-0.000038,-0.098693,0.226245,-0.097072,-0.964184,9.212859,27.093495,170.535506
56904,-4.504176,1.388311,8.729774,-0.011644,0.029490,0.108147,0.005503,0.005363,-0.013394,-0.045038,0.013884,0.087299,1.000000,0.000028,0.000027,-0.000067,-0.098726,0.226260,-0.097060,-0.964178,9.210223,27.095426,170.531044
56905,-4.453600,1.386321,8.671659,-0.031604,0.025462,0.033757,0.011134,0.005749,-0.004907,-0.044533,0.013859,0.086719,1.000000,0.000056,0.000029,-0.000025,-0.098724,0.226269,-0.097087,-0.964173,9.213606,27.096745,170.532225
56906,-4.494929,1.363722,8.708279,-0.005373,0.050025,0.081539,0.009609,0.003691,-0.005894,-0.044947,0.013634,0.087084,1.000000,0.000048,0.000018,-0.000029,-0.098726,0.226270,-0.097102,-0.964171,9.215413,27.097041,170.532355
56907,-4.485003,1.417970,8.704629,-0.025183,-0.001053,0.081544,0.013569,0.002441,-0.006238,-0.044849,0.014175,0.087048,1.000000,0.000068,0.000012,-0.000031,-0.098734,0.226263,-0.097137,-0.964169,9.219652,27.096611,170.532349
56908,-4.465549,1.381358,8.702749,-0.032839,0.036975,0.065808,0.010135,0.003633,-0.008183,-0.044653,0.013811,0.087029,1.000000,0.000051,0.000018,-0.000041,-0.098749,0.226264,-0.097153,-0.964165,9.221095,27.097084,170.531020
56909,-4.486284,1.386651,8.715239,-0.021186,0.032137,0.086982,0.011661,0.005691,-0.007194,-0.044860,0.013863,0.087154,1.000000,0.000058,0.000028,-0.000036,-0.098758,0.226274,-0.097179,-0.964159,9.224116,27.098579,170.530741
56910,-4.497116,1.413120,8.735610,-0.026407,0.010453,0.113593,0.016841,0.002788,-0.008203,-0.044969,0.014126,0.087358,1.000000,0.000084,0.000014,-0.000041,-0.098780,0.226268,-0.097226,-0.964154,9.229355,27.098575,170.529311
56911,-4.485513,1.439489,8.652024,-0.007941,-0.032330,0.038626,0.003434,0.004478,-0.008158,-0.044853,0.014395,0.086521,1.000000,0.000017,0.000022,-0.000041,-0.098785,0.226277,-0.097212,-0.964153,9.227326,27.099473,170.528295
56912,-4.517207,1.404472,8.708036,0.004724,0.009371,0.097282,0.004844,0.000170,-0.008838,-0.045171,0.014045,0.087081,1.000000,0.000024,0.000001,-0.000044,-0.098798,0.226265,-0.097199,-0.964155,9.225385,27.098045,170.526193
56913,-4.467145,1.415692,8.690170,-0.034378,0.001196,0.060379,0.000217,0.001897,-0.014046,-0.044670,0.014160,0.086902,1.000000,0.000001,0.000009,-0.000070,-0.098829,0.226265,-0.097161,-0.964156,9.219688,27.098024,170.521170
56914,-4.498015,1.366464,8.706256,-0.002594,0.047053,0.081555,0.002935,0.003420,-0.009795,-0.044978,0.013666,0.087064,1.000000,0.000015,0.000017,-0.000049,-0.098843,0.226270,-0.097139,-0.964156,9.216530,27.098521,170.518795
56915,-4.458006,1.357043,8.680345,-0.024848,0.055681,0.039219,0.005679,0.003825,-0.009473,-0.044578,0.013570,0.086805,1.000000,0.000028,0.000019,-0.000047,-0.098858,0.226275,-0.097133,-0.964154,9.215376,27.099170,170.516877
56916,-4.509593,1.359683,8.737829,-0.004167,0.058951,0.113608,0.011359,0.001982,-0.008842,-0.045094,0.013594,0.087380,1.000000,0.000057,0.000010,-0.000044,-0.098877,0.226268,-0.097153,-0.964151,9.217250,27.098765,170.514958
56917,-4.489297,1.388347,8.713418,-0.018394,0.029152,0.086997,0.014103,0.002388,-0.008519,-0.044891,0.013879,0.087136,1.000000,0.000071,0.000012,-0.000043,-0.098897,0.226261,-0.097188,-0.964147,9.221132,27.098514,170.513497
56918,-4.479374,1.363736,8.692287,-0.012512,0.050054,0.060395,0.016655,0.005448,-0.008181,-0.044791,0.013632,0.086925,1.000000,0.000083,0.000027,-0.000041,-0.098918,0.226269,-0.097236,-0.964139,9.226393,27.100008,170.512355
56919,-4.470061,1.385529,8.699768,-0.029005,0.032893,0.065834,0.013414,0.003983,-0.010140,-0.044698,0.013852,0.087000,1.000000,0.000067,0.000020,-0.000051,-0.098944,0.226271,-0.097267,-0.964132,9.229485,27.100808,170.510029
56920,-4.470370,1.386599,8.699439,-0.028664,0.032496,0.065836,0.019262,0.000606,-0.005593,-0.044703,0.013859,0.086996,1.000000,0.000096,0.000003,-0.000028,-0.098957,0.226252,-0.097327,-0.964129,9.236760,27.099325,170.510030
56921,-4.470611,1.387707,8.699139,-0.028308,0.032146,0.065839,0.014636,0.002330,-0.010802,-0.044704,0.013873,0.086993,1.000000,0.000073,0.000012,-0.000054,-0.098989,0.226246,-0.097362,-0.964124,9.240283,27.099251,170.507113
56922,-4.490285,1.379460,8.671706,0.002455,0.031446,0.049516,0.016855,0.002796,-0.008189,-0.044901,0.013789,0.086719,1.000000,0.000084,0.000014,-0.000041,-0.099011,0.226240,-0.097409,-0.964118,9.245529,27.099243,170.505692
56923,-4.491143,1.427213,8.699952,-0.019558,-0.007025,0.081555,0.020820,0.001550,-0.008527,-0.044910,0.014265,0.087001,1.000000,0.000104,0.000008,-0.000043,-0.099039,0.226226,-0.097477,-0.964112,9.253217,27.098519,170.504139
56924,-4.491487,1.428185,8.699614,-0.019213,-0.007423,0.081555,0.010149,0.003636,-0.008170,-0.044913,0.014279,0.086998,1.000000,0.000051,0.000018,-0.000041,-0.099053,0.226227,-0.097492,-0.964108,9.254666,27.098985,170.502817
56925,-4.501789,1.407695,8.691425,-0.002015,0.009049,0.076119,0.008431,0.004230,-0.009144,-0.045015,0.014075,0.086916,1.000000,0.000042,0.000021,-0.000046,-0.099069,0.226233,-0.097500,-0.964105,9.255204,27.099834,170.501150
56926,-4.481899,1.403284,8.678371,-0.012989,0.013140,0.054957,0.008127,0.000516,-0.010793,-0.044818,0.014032,0.086784,1.000000,0.000041,0.000003,-0.000054,-0.099095,0.226221,-0.097501,-0.964105,9.254589,27.098775,170.497839
56927,-4.502448,1.408178,8.691005,-0.001313,0.008305,0.076120,0.007934,0.003170,-0.010780,-0.045022,0.014081,0.086911,1.000000,0.000040,0.000016,-0.000054,-0.099118,0.226223,-0.097504,-0.964102,9.254318,27.099175,170.495023
56928,-4.493086,1.429316,8.698603,-0.017803,-0.008917,0.081556,0.005659,0.004943,-0.005540,-0.044928,0.014292,0.086988,1.000000,0.000028,0.000025,-0.000028,-0.099114,0.226231,-0.097501,-0.964100,9.254018,27.100136,170.495508
56929,-4.473777,1.359508,8.708331,-0.022272,0.063095,0.071315,0.006107,-0.002605,-0.013414,-0.044738,0.013595,0.087083,1.000000,0.000031,-0.000013,-0.000067,-0.099151,0.226207,-0.097490,-0.964103,9.251665,27.097513,170.490420
56930,-4.493930,1.396824,8.709674,-0.013854,0.024273,0.087018,0.006715,0.004824,-0.010115,-0.044936,0.013968,0.087098,1.000000,0.000034,0.000024,-0.000051,-0.099170,0.226217,-0.097487,-0.964099,9.250640,27.098826,170.487986
56931,-4.474152,1.392413,8.696566,-0.024819,0.028410,0.065859,0.009656,0.002579,-0.009802,-0.044740,0.013922,0.086967,1.000000,0.000048,0.000013,-0.000049,-0.099191,0.226214,-0.097500,-0.964097,9.251611,27.098802,170.485730
56932,-4.474545,1.392718,8.696315,-0.024477,0.028012,0.065861,0.007938,0.003171,-0.010776,-0.044743,0.013926,0.086964,1.000000,0.000040,0.000016,-0.000054,-0.099215,0.226216,-0.097501,-0.964094,9.251017,27.099240,170.482705
56933,-4.506032,1.390594,8.740906,-0.015062,0.035794,0.119080,0.009494,0.004113,-0.013712,-0.045058,0.013905,0.087411,1.000000,0.000047,0.000021,-0.000069,-0.099254,0.226222,-0.097509,-0.964087,9.250835,27.100444,170.478123
56934,-4.515142,1.389002,8.681362,0.017962,0.022512,0.070685,0.016673,0.005459,-0.008163,-0.045148,0.013885,0.086816,1.000000,0.000083,0.000027,-0.000041,-0.099275,0.226229,-0.097556,-0.964079,9.256109,27.101934,170.476994
56935,-4.495959,1.431690,8.696728,-0.015326,-0.011508,0.081558,0.011379,0.001988,-0.008823,-0.044958,0.014314,0.086969,1.000000,0.000057,0.000010,-0.000044,-0.099293,0.226222,-0.097578,-0.964076,9.258322,27.101485,170.475299
56936,-4.495651,1.385530,8.667957,0.007334,0.026257,0.049529,0.006915,0.002171,-0.010122,-0.044955,0.013855,0.086681,1.000000,0.000035,0.000011,-0.000051,-0.099314,0.226219,-0.097575,-0.964075,9.257283,27.101296,170.472585
56937,-4.476942,1.362530,8.706232,-0.019497,0.060106,0.071339,0.010354,0.000987,-0.008171,-0.044768,0.013623,0.087063,1.000000,0.000052,0.000005,-0.000041,-0.099329,0.226207,-0.097592,-0.964075,9.259050,27.100222,170.471200
56938,-4.487005,1.342486,8.698103,-0.002339,0.076549,0.065906,0.019122,0.002156,-0.009481,-0.044868,0.013419,0.086983,1.000000,0.000096,0.000011,-0.000047,-0.099360,0.226198,-0.097648,-0.964068,9.265188,27.099964,170.468892
56939,-4.506952,1.413868,8.687746,0.002903,0.003840,0.076122,0.024086,0.003036,-0.006541,-0.045068,0.014130,0.086880,1.000000,0.000120,0.000015,-0.000033,-0.099381,0.226188,-0.097734,-0.964059,9.275392,27.099899,170.468755
56940,-4.487989,1.424849,8.714389,-0.027165,0.003692,0.092466,0.020813,0.002688,-0.004578,-0.044878,0.014240,0.087146,1.000000,0.000104,0.000013,-0.000023,-0.099391,0.226178,-0.097804,-0.964054,9.283941,27.099489,170.469615
56941,-4.487942,1.458638,8.702660,-0.030021,-0.030597,0.086994,0.013105,0.001397,-0.007841,-0.044878,0.014582,0.087028,1.000000,0.000066,0.000007,-0.000039,-0.099407,0.226167,-0.097835,-0.964052,9.287400,27.098617,170.468482
56942,-4.468277,1.421870,8.701022,-0.037794,0.007426,0.071315,0.006390,0.002230,-0.007832,-0.044681,0.014218,0.087011,1.000000,0.000032,0.000011,-0.000039,-0.099416,0.226163,-0.097831,-0.964052,9.286724,27.098248,170.467229
56943,-4.478441,1.401137,8.692956,-0.020625,0.023925,0.065881,0.007948,0.003170,-0.010767,-0.044782,0.014010,0.086931,1.000000,0.000040,0.000016,-0.000054,-0.099439,0.226164,-0.097835,-0.964049,9.286465,27.098649,170.464421
56944,-4.459594,1.410813,8.719758,-0.050691,0.023763,0.082231,0.013476,0.002868,-0.014035,-0.044594,0.014105,0.087199,1.000000,0.000067,0.000014,-0.000070,-0.099486,0.226163,-0.097859,-0.964042,9.288084,27.099213,170.459294
56945,-4.509359,1.385770,8.697331,0.008221,0.035544,0.081600,0.010167,0.003642,-0.008153,-0.045091,0.013855,0.086975,1.000000,0.000051,0.000018,-0.000041,-0.099499,0.226164,-0.097876,-0.964038,9.289875,27.099639,170.458196
56946,-4.490338,1.395615,8.724197,-0.021844,0.035378,0.097952,0.012117,-0.000725,-0.011107,-0.044903,0.013953,0.087243,1.000000,0.000061,-0.000004,-0.000056,-0.099531,0.226145,-0.097895,-0.964038,9.291392,27.097899,170.454556
56947,-4.489179,1.414896,8.672721,-0.005620,0.005346,0.054971,0.014865,-0.000314,-0.010779,-0.044891,0.014145,0.086728,1.000000,0.000074,-0.000002,-0.000054,-0.099564,0.226126,-0.097930,-0.964035,9.294928,27.096332,170.451378
56948,-4.479878,1.404033,8.691749,-0.018880,0.022030,0.065889,0.013643,0.001339,-0.010119,-0.044797,0.014037,0.086919,1.000000,0.000068,0.000007,-0.000051,-0.099593,0.226116,-0.097959,-0.964032,9.297703,27.095667,170.448581
56949,-4.500134,1.441920,8.692877,-0.010377,-0.016743,0.081557,0.011925,0.001930,-0.011094,-0.045000,0.014417,0.086930,1.000000,0.000060,0.000010,-0.000055,-0.099623,0.226109,-0.097981,-0.964028,9.299569,27.095397,170.445436
56950,-4.460242,1.400344,8.678465,-0.029522,0.025767,0.044743,0.006927,0.002169,-0.010112,-0.044601,0.014003,0.086786,1.000000,0.000035,0.000011,-0.000051,-0.099643,0.226106,-0.097977,-0.964027,9.298538,27.095200,170.442730
56951,-4.470493,1.379627,8.670357,-0.012367,0.042278,0.039309,0.010010,0.005174,-0.012060,-0.044702,0.013795,0.086705,1.000000,0.000050,0.000026,-0.000060,-0.099674,0.226117,-0.097990,-0.964020,9.299182,27.096854,170.439310
56952,-4.502031,1.377768,8.714888,-0.002943,0.049988,0.092528,0.010172,0.003645,-0.008148,-0.045018,0.013775,0.087150,1.000000,0.000051,0.000018,-0.000041,-0.099688,0.226118,-0.098006,-0.964016,9.300647,27.097308,170.438004
56953,-4.492757,1.399365,8.722351,-0.019382,0.032774,0.097966,0.011165,0.005771,-0.004877,-0.044925,0.013990,0.087226,1.000000,0.000056,0.000029,-0.000024,-0.099686,0.226127,-0.098033,-0.964012,9.304058,27.098635,170.439208
56954,-4.491811,1.418607,8.670751,-0.003165,0.002713,0.054973,0.011595,-0.000661,-0.008813,-0.044918,0.014183,0.086708,1.000000,0.000058,-0.000003,-0.000044,-0.099707,0.226108,-0.098052,-0.964012,9.305941,27.096715,170.437031
56955,-4.503160,1.379461,8.714037,-0.001888,0.048891,0.092534,0.006734,0.004823,-0.010100,-0.045029,0.013794,0.087142,1.000000,0.000034,0.000024,-0.000050,-0.099725,0.226117,-0.098051,-0.964008,9.305258,27.097990,170.434819
56956,-4.483108,1.407916,8.689455,-0.016073,0.019037,0.065900,0.014644,0.003470,-0.006839,-0.044829,0.014074,0.086896,1.000000,0.000073,0.000017,-0.000034,-0.099738,0.226115,-0.098089,-0.964004,9.309653,27.098222,170.434325
56957,-4.483373,1.408609,8.689206,-0.015716,0.018688,0.065901,0.009878,-0.000072,-0.009787,-0.044833,0.014084,0.086893,1.000000,0.000049,-0.000000,-0.000049,-0.099760,0.226099,-0.098101,-0.964004,9.310630,27.096700,170.431803
56958,-4.513304,1.425314,8.682577,0.009595,-0.003262,0.076118,0.007589,0.001704,-0.004561,-0.045132,0.014251,0.086827,1.000000,0.000038,0.000009,-0.000023,-0.099755,0.226091,-0.098107,-0.964006,9.311558,27.095723,170.432572
56959,-4.474269,1.397719,8.708155,-0.028628,0.035004,0.076833,0.005906,0.001167,-0.009457,-0.044742,0.013977,0.087082,1.000000,0.000030,0.000006,-0.000047,-0.099771,0.226082,-0.098101,-0.964007,9.310413,27.094871,170.430388
56960,-4.474525,1.397896,8.707995,-0.028284,0.034604,0.076836,0.005869,0.002293,-0.005538,-0.044744,0.013978,0.087081,1.000000,0.000029,0.000011,-0.000028,-0.099768,0.226078,-0.098098,-0.964008,9.310102,27.094316,170.430599
56961,-4.484490,1.409566,8.688474,-0.014311,0.017190,0.065906,0.005550,0.005350,-0.013358,-0.044842,0.014096,0.086886,1.000000,0.000028,0.000027,-0.000067,-0.099800,0.226092,-0.098088,-0.964003,9.307823,27.096190,170.426373
56962,-4.505197,1.414215,8.701042,-0.002609,0.012308,0.087049,0.005908,0.001168,-0.009455,-0.045051,0.014142,0.087011,1.000000,0.000030,0.000006,-0.000047,-0.099817,0.226085,-0.098080,-0.964003,9.306346,27.095360,170.423978
56963,-4.475763,1.398111,8.707324,-0.027227,0.033501,0.076843,0.007965,0.003172,-0.010752,-0.044755,0.013980,0.087075,1.000000,0.000040,0.000016,-0.000054,-0.099840,0.226086,-0.098084,-0.964000,9.306101,27.095761,170.421180
56964,-4.486705,1.424116,8.727643,-0.032302,0.011736,0.103421,0.010181,0.003648,-0.008139,-0.044865,0.014239,0.087278,1.000000,0.000051,0.000018,-0.000041,-0.099854,0.226087,-0.098099,-0.963997,9.307571,27.096212,170.419880
56965,-4.506355,1.415032,8.700310,-0.001545,0.011210,0.087050,0.007472,0.002108,-0.012385,-0.045062,0.014150,0.087004,1.000000,0.000037,0.000011,-0.000062,-0.099885,0.226084,-0.098098,-0.963995,9.306520,27.096163,170.415934
56966,-4.456455,1.426875,8.682304,-0.040696,0.002893,0.050207,0.007434,0.003235,-0.008467,-0.044563,0.014267,0.086824,1.000000,0.000037,0.000016,-0.000042,-0.099898,0.226085,-0.098099,-0.963993,9.306302,27.096408,170.414383
56967,-4.507265,1.415440,8.699772,-0.000840,0.010462,0.087051,0.007770,0.005827,-0.010742,-0.045069,0.014153,0.087000,1.000000,0.000039,0.000029,-0.000054,-0.099920,0.226099,-0.098103,-0.963987,9.306074,27.098309,170.411868
56968,-4.488817,1.392259,8.738042,-0.027740,0.044167,0.108932,0.003500,0.003346,-0.012055,-0.044886,0.013924,0.087381,1.000000,0.000017,0.000017,-0.000060,-0.099945,0.226105,-0.098082,-0.963985,9.302569,27.098949,170.408049
56969,-4.487906,1.410841,8.686503,-0.011498,0.014197,0.065915,0.008128,0.001646,-0.006838,-0.044878,0.014106,0.086866,1.000000,0.000041,0.000008,-0.000034,-0.099950,0.226096,-0.098090,-0.963986,9.303477,27.098124,170.407578
56970,-4.497894,1.422770,8.666915,0.002473,-0.003251,0.054973,0.008266,0.006892,-0.009106,-0.044975,0.014226,0.086671,1.000000,0.000041,0.000034,-0.000046,-0.099965,0.226115,-0.098096,-0.963979,9.303724,27.100494,170.406003
56971,-4.519158,1.362686,8.702333,0.020482,0.059797,0.087126,0.009158,0.002649,-0.007485,-0.045190,0.013625,0.087025,1.000000,0.000046,0.000013,-0.000037,-0.099975,0.226111,-0.098109,-0.963978,9.305083,27.100297,170.405225
56972,-4.470214,1.388998,8.724178,-0.037703,0.047141,0.087806,0.010879,0.002062,-0.006507,-0.044701,0.013887,0.087243,1.000000,0.000054,0.000010,-0.000033,-0.099982,0.226104,-0.098129,-0.963977,9.307348,27.099695,170.404797
56973,-4.480296,1.368950,8.716057,-0.020582,0.063684,0.082374,0.017407,0.003896,-0.006494,-0.044801,0.013683,0.087163,1.000000,0.000087,0.000019,-0.000032,-0.099995,0.226102,-0.098183,-0.963970,9.313779,27.100111,170.404778
56974,-4.489957,1.414263,8.684887,-0.009744,0.012300,0.065919,0.016380,0.002894,-0.005845,-0.044898,0.014137,0.086851,1.000000,0.000082,0.000014,-0.000029,-0.100006,0.226095,-0.098230,-0.963966,9.319426,27.099917,170.404856
56975,-4.500753,1.440985,8.705148,-0.014777,-0.009429,0.092489,0.014859,0.000827,-0.006829,-0.045007,0.014405,0.087053,1.000000,0.000074,0.000004,-0.000034,-0.100019,0.226080,-0.098270,-0.963964,9.324154,27.098629,170.404305
56976,-4.490710,1.383604,8.695811,-0.005910,0.045491,0.071435,0.012447,0.003002,-0.009433,-0.044905,0.013833,0.086960,1.000000,0.000062,0.000015,-0.000047,-0.100042,0.226078,-0.098295,-0.963960,9.326515,27.098828,170.402116
56977,-4.481163,1.438121,8.691719,-0.025441,-0.005699,0.071356,0.016877,0.003961,-0.004207,-0.044810,0.014375,0.086919,1.000000,0.000084,0.000020,-0.000021,-0.100044,0.226075,-0.098349,-0.963955,9.333307,27.099068,170.403557
56978,-4.500796,1.429792,8.664252,0.005298,-0.006234,0.054971,0.014664,0.003482,-0.006819,-0.045006,0.014293,0.086644,1.000000,0.000073,0.000017,-0.000034,-0.100056,0.226073,-0.098387,-0.963950,9.337717,27.099295,170.403078
56979,-4.501948,1.477133,8.692300,-0.016479,-0.044872,0.086972,0.008136,0.001646,-0.006831,-0.045018,0.014769,0.086924,1.000000,0.000041,0.000008,-0.000034,-0.100062,0.226064,-0.098396,-0.963951,9.338631,27.098471,170.402611
56980,-4.501408,1.430705,8.663784,0.006006,-0.006980,0.054970,0.004158,0.002881,-0.006508,-0.045012,0.014307,0.086639,1.000000,0.000021,0.000014,-0.000033,-0.100061,0.226064,-0.098383,-0.963952,9.337086,27.098329,170.402269
56981,-4.473210,1.395864,8.721546,-0.034543,0.043770,0.087833,-0.000806,0.001984,-0.009451,-0.044731,0.013961,0.087216,1.000000,-0.000004,0.000010,-0.000047,-0.100069,0.226064,-0.098345,-0.963955,9.332135,27.097939,170.400174
56982,-4.492499,1.418551,8.682872,-0.006923,0.009306,0.065925,0.000915,0.001399,-0.008471,-0.044924,0.014187,0.086829,1.000000,0.000005,0.000007,-0.000042,-0.100075,0.226059,-0.098314,-0.963959,9.328093,27.097140,170.398430
56983,-4.483132,1.406845,8.702125,-0.020203,0.025987,0.076882,0.003865,-0.000838,-0.008146,-0.044831,0.014069,0.087021,1.000000,0.000019,-0.000004,-0.000041,-0.100083,0.226041,-0.098299,-0.963964,9.326062,27.095033,170.396869
56984,-4.483472,1.406760,8.701964,-0.019856,0.025586,0.076884,0.002238,0.006122,-0.007480,-0.044832,0.014068,0.087021,1.000000,0.000011,0.000031,-0.000037,-0.100084,0.226058,-0.098278,-0.963962,9.323290,27.096812,170.396248
56985,-4.474550,1.394897,8.721014,-0.033139,0.042262,0.087844,-0.001004,0.004638,-0.009444,-0.044743,0.013952,0.087211,1.000000,-0.000005,0.000023,-0.000047,-0.100090,0.226070,-0.098241,-0.963962,9.318354,27.097921,170.394433
56986,-4.484410,1.406167,8.701576,-0.019152,0.024835,0.076887,0.005432,0.000103,-0.011074,-0.044843,0.014062,0.087016,1.000000,0.000027,0.000001,-0.000055,-0.100115,0.226059,-0.098228,-0.963964,9.316084,27.096628,170.390902
56987,-4.484609,1.406201,8.701468,-0.018795,0.024484,0.076889,0.005925,0.001169,-0.009440,-0.044845,0.014062,0.087015,1.000000,0.000030,0.000006,-0.000047,-0.100130,0.226050,-0.098222,-0.963964,9.314955,27.095775,170.388729
56988,-4.484962,1.406089,8.701304,-0.018448,0.024084,0.076890,0.000718,0.004053,-0.008464,-0.044847,0.014062,0.087014,1.000000,0.000004,0.000020,-0.000042,-0.100135,0.226059,-0.098192,-0.963965,9.310927,27.096472,170.387267
56989,-4.474561,1.412642,8.669096,-0.015834,0.011193,0.044802,0.001455,0.001336,-0.010750,-0.044744,0.014128,0.086691,1.000000,0.000007,0.000007,-0.000054,-0.100152,0.226054,-0.098163,-0.963967,9.306866,27.095835,170.384279
56990,-4.495369,1.384500,8.693261,-0.001004,0.040253,0.071459,0.002440,0.003468,-0.007484,-0.044952,0.013846,0.086934,1.000000,0.000012,0.000017,-0.000037,-0.100154,0.226058,-0.098142,-0.963968,9.304080,27.096110,170.383379
56991,-4.476592,1.393960,8.720115,-0.031032,0.040000,0.087861,0.005727,0.003824,-0.009432,-0.044764,0.013939,0.087202,1.000000,0.000029,0.000019,-0.000047,-0.100168,0.226063,-0.098136,-0.963966,9.302965,27.096757,170.381487
56992,-4.486589,1.373000,8.712182,-0.013949,0.056521,0.082429,0.004899,0.000167,-0.008790,-0.044865,0.013730,0.087122,1.000000,0.000024,0.000001,-0.000044,-0.100181,0.226050,-0.098123,-0.963969,9.301053,27.095284,170.379414
56993,-4.515909,1.342692,8.677091,0.033522,0.073007,0.060595,0.007741,0.006960,-0.006814,-0.045156,0.013425,0.086773,1.000000,0.000039,0.000035,-0.000034,-0.100183,0.226068,-0.098132,-0.963964,9.301998,27.097462,170.379511
56994,-4.477879,1.395017,8.719286,-0.029983,0.038843,0.087869,0.017423,0.003911,-0.006476,-0.044777,0.013944,0.087195,1.000000,0.000087,0.000020,-0.000032,-0.100197,0.226066,-0.098184,-0.963958,9.308106,27.097892,170.379294
56995,-4.508062,1.412218,8.712377,-0.004584,0.016999,0.098023,0.014182,0.002426,-0.008439,-0.045079,0.014118,0.087125,1.000000,0.000071,0.000012,-0.000042,-0.100217,0.226060,-0.098220,-0.963954,9.312056,27.097657,170.377888
56996,-4.508446,1.413062,8.712041,-0.004235,0.016597,0.098024,0.012416,0.004140,-0.005505,-0.045082,0.014126,0.087122,1.000000,0.000062,0.000021,-0.000028,-0.100221,0.226061,-0.098249,-0.963950,9.315586,27.098126,170.378312
56997,-4.478921,1.430252,8.706675,-0.032001,0.003796,0.082337,0.012955,0.004077,-0.007784,-0.044787,0.014299,0.087069,1.000000,0.000065,0.000020,-0.000039,-0.100235,0.226062,-0.098281,-0.963945,9.319100,27.098764,170.377493
56998,-4.479388,1.431032,8.706307,-0.031651,0.003393,0.082339,0.012956,0.004078,-0.007783,-0.044792,0.014306,0.087065,1.000000,0.000065,0.000020,-0.000039,-0.100250,0.226064,-0.098310,-0.963940,9.322278,27.099408,170.376464
56999,-4.478980,1.384951,8.677672,-0.009239,0.041390,0.050352,0.008976,0.005309,-0.007463,-0.044787,0.013847,0.086779,1.000000,0.000045,0.000027,-0.000037,-0.100257,0.226074,-0.098323,-0.963936,9.323665,27.100713,170.375978
57000,-4.480342,1.432325,8.705603,-0.030942,0.002638,0.082341,0.013650,0.002491,-0.006154,-0.044802,0.014319,0.087058,1.000000,0.000068,0.000012,-0.000031,-0.100266,0.226067,-0.098357,-0.963933,9.327636,27.100306,170.375819
57001,-4.499727,1.423715,8.678283,-0.000206,0.002222,0.065931,0.013851,-0.000162,-0.006157,-0.044997,0.014233,0.086784,1.000000,0.000069,-0.000001,-0.000031,-0.100276,0.226046,-0.098392,-0.963933,9.331933,27.098397,170.375591
57002,-4.500047,1.392200,8.689611,0.003209,0.035762,0.071476,0.015373,0.001909,-0.005171,-0.044999,0.013916,0.086898,1.000000,0.000077,0.000010,-0.000026,-0.100282,0.226035,-0.098435,-0.963931,9.337149,27.097569,170.375996
57003,-4.470246,1.409734,8.684330,-0.024557,0.022952,0.055793,0.016605,0.000258,-0.005822,-0.044702,0.014091,0.086845,1.000000,0.000083,0.000001,-0.000029,-0.100293,0.226016,-0.098485,-0.963929,9.343142,27.095866,170.376025
57004,-4.481020,1.436428,8.704579,-0.029523,0.001129,0.082346,0.012624,0.001489,-0.005503,-0.044809,0.014360,0.087047,1.000000,0.000063,0.000007,-0.000028,-0.100298,0.226004,-0.098513,-0.963928,9.346666,27.094831,170.376175
57005,-4.481258,1.437029,8.704356,-0.029164,0.000777,0.082347,0.008690,0.001588,-0.009096,-0.044811,0.014369,0.087045,1.000000,0.000043,0.000008,-0.000045,-0.100315,0.225996,-0.098522,-0.963927,9.347240,27.094184,170.374263
57006,-4.492354,1.430565,8.736210,-0.031067,0.012891,0.114447,0.009721,0.002591,-0.009742,-0.044922,0.014304,0.087363,1.000000,0.000049,0.000013,-0.000049,-0.100337,0.225994,-0.098532,-0.963925,9.347928,27.094165,170.371838
57007,-4.501185,1.428402,8.676757,0.001920,-0.000024,0.065931,0.010164,0.004791,-0.004199,-0.045009,0.014281,0.086769,1.000000,0.000051,0.000024,-0.000021,-0.100330,0.225998,-0.098555,-0.963922,9.350915,27.094873,170.373370
57008,-4.463235,1.447879,8.730610,-0.058476,-0.000336,0.098768,0.004709,0.002818,-0.008777,-0.044630,0.014479,0.087307,1.000000,0.000024,0.000014,-0.000044,-0.100341,0.225998,-0.098542,-0.963922,9.349022,27.094892,170.371582
57009,-4.492479,1.417222,8.695618,-0.011033,0.016218,0.076917,0.002447,0.003465,-0.007479,-0.044923,0.014173,0.086957,1.000000,0.000012,0.000017,-0.000037,-0.100343,0.226002,-0.098523,-0.963923,9.346576,27.095156,170.370893
57010,-4.492870,1.416971,8.695457,-0.010683,0.015817,0.076918,-0.000304,0.003044,-0.007813,-0.044927,0.014172,0.086955,1.000000,-0.000002,0.000015,-0.000039,-0.100343,0.226006,-0.098488,-0.963926,9.342101,27.095210,170.369741
57011,-4.473056,1.379380,8.694203,-0.018693,0.053887,0.061361,-0.000795,0.001976,-0.009444,-0.044729,0.013796,0.086942,1.000000,-0.000004,0.000010,-0.000047,-0.100351,0.226005,-0.098450,-0.963929,9.337158,27.094815,170.367649
57012,-4.444710,1.377167,8.740470,-0.062383,0.070504,0.088777,0.002448,0.003465,-0.007478,-0.044445,0.013772,0.087406,1.000000,0.000012,0.000017,-0.000037,-0.100353,0.226009,-0.098429,-0.963930,9.334377,27.095075,170.366754
57013,-4.473703,1.411570,8.682251,-0.021030,0.019195,0.055809,0.005741,0.003822,-0.009422,-0.044735,0.014115,0.086824,1.000000,0.000029,0.000019,-0.000047,-0.100367,0.226013,-0.098423,-0.963928,9.333273,27.095721,170.364868
57014,-4.504398,1.362987,8.698499,0.010471,0.065213,0.077048,0.010504,0.007384,-0.006471,-0.045040,0.013627,0.086987,1.000000,0.000053,0.000037,-0.000032,-0.100372,0.226032,-0.098444,-0.963921,9.335584,27.098101,170.365022
57015,-4.485483,1.438145,8.701996,-0.025610,-0.002994,0.082356,0.009186,0.002658,-0.007458,-0.044853,0.014379,0.087021,1.000000,0.000046,0.000013,-0.000037,-0.100381,0.226028,-0.098457,-0.963920,9.336966,27.097907,170.364262
57016,-4.485848,1.470838,8.690102,-0.028288,-0.037338,0.076796,0.005592,0.005344,-0.013326,-0.044855,0.014709,0.086903,1.000000,0.000028,0.000027,-0.000067,-0.100414,0.226042,-0.098445,-0.963914,9.334382,27.099770,170.359848
57017,-4.516389,1.454485,8.694799,0.000190,-0.025206,0.092472,0.005693,0.004955,-0.005510,-0.045161,0.014544,0.086950,1.000000,0.000028,0.000025,-0.000028,-0.100408,0.226051,-0.098444,-0.963913,9.334435,27.100694,170.360565
57018,-4.466783,1.401150,8.700081,-0.032939,0.034268,0.066813,-0.001332,0.002039,-0.007165,-0.044666,0.014014,0.087001,1.000000,-0.000007,0.000010,-0.000036,-0.100405,0.226049,-0.098404,-0.963918,9.329512,27.100115,170.359722
57019,-4.497079,1.384447,8.704959,-0.004468,0.046404,0.082491,0.002451,0.003465,-0.007476,-0.044969,0.013845,0.087051,1.000000,0.000012,0.000017,-0.000037,-0.100406,0.226053,-0.098385,-0.963918,9.327069,27.100378,170.359035
57020,-4.477001,1.412379,8.680419,-0.018561,0.016540,0.055819,0.006437,0.002238,-0.007790,-0.044768,0.014123,0.086805,1.000000,0.000032,0.000011,-0.000039,-0.100415,0.226049,-0.098382,-0.963919,9.326423,27.099968,170.357814
57021,-4.478507,1.394139,8.731707,-0.034129,0.045658,0.098927,0.002654,0.000811,-0.007478,-0.044784,0.013942,0.087317,1.000000,0.000013,0.000004,-0.000037,-0.100418,0.226040,-0.098363,-0.963923,9.323969,27.098732,170.356849
57022,-4.477548,1.412796,8.680069,-0.017854,0.015788,0.055821,0.012432,0.004152,-0.005488,-0.044773,0.014124,0.086803,1.000000,0.000062,0.000021,-0.000027,-0.100421,0.226041,-0.098392,-0.963919,9.327516,27.099189,170.357290
57023,-4.458912,1.390466,8.718453,-0.044848,0.049378,0.077827,0.006927,0.003307,-0.006158,-0.044587,0.013903,0.087186,1.000000,0.000035,0.000017,-0.000031,-0.100421,0.226041,-0.098396,-0.963919,9.328011,27.099240,170.357424
57024,-4.488966,1.407176,8.711628,-0.019398,0.027528,0.087933,0.013869,-0.000151,-0.006138,-0.044889,0.014067,0.087117,1.000000,0.000069,-0.000001,-0.000031,-0.100432,0.226021,-0.098429,-0.963919,9.331987,27.097323,170.357002
57025,-4.478431,1.414729,8.679299,-0.016789,0.014687,0.055825,0.010223,0.003665,-0.008098,-0.044782,0.014145,0.086795,1.000000,0.000051,0.000018,-0.000040,-0.100444,0.226023,-0.098447,-0.963915,9.333826,27.097757,170.355941
57026,-4.499212,1.420092,8.691668,-0.005011,0.009809,0.076931,0.012924,0.005222,-0.003854,-0.044990,0.014196,0.086919,1.000000,0.000065,0.000026,-0.000019,-0.100440,0.226028,-0.098481,-0.963911,9.338177,27.098665,170.357532
57027,-4.460441,1.360808,8.728908,-0.040437,0.081805,0.083415,0.010225,0.003665,-0.008097,-0.044602,0.013605,0.087291,1.000000,0.000051,0.000018,-0.000040,-0.100453,0.226029,-0.098499,-0.963908,9.340017,27.099099,170.356471
57028,-4.490566,1.410165,8.710320,-0.017981,0.026020,0.087940,0.014159,0.003573,-0.004501,-0.044904,0.014096,0.087105,1.000000,0.000071,0.000018,-0.000023,-0.100454,0.226026,-0.098537,-0.963904,9.344809,27.099132,170.357479
57029,-4.500437,1.390207,8.702305,-0.000944,0.042649,0.082509,0.016627,0.000274,-0.005796,-0.045004,0.013896,0.087024,1.000000,0.000083,0.000001,-0.000029,-0.100465,0.226006,-0.098586,-0.963903,9.350822,27.097436,170.357525
57030,-4.471875,1.422089,8.736775,-0.047632,0.025243,0.104386,0.016426,0.002929,-0.005793,-0.044717,0.014215,0.087370,1.000000,0.000082,0.000015,-0.000029,-0.100475,0.226000,-0.098634,-0.963899,9.356507,27.097224,170.357643
57031,-4.501002,1.424694,8.689988,-0.003231,0.007957,0.076933,0.008994,0.005315,-0.007446,-0.045007,0.014245,0.086902,1.000000,0.000045,0.000027,-0.000037,-0.100482,0.226009,-0.098647,-0.963894,9.357910,27.098531,170.357169
57032,-4.512095,1.450819,8.710138,-0.008118,-0.013906,0.103467,0.008167,0.001657,-0.006801,-0.045120,0.014506,0.087102,1.000000,0.000041,0.000008,-0.000034,-0.100488,0.226001,-0.098653,-0.963895,9.358511,27.097693,170.356515
57033,-4.471803,1.442028,8.684437,-0.030628,-0.005304,0.061266,0.010230,0.003666,-0.008092,-0.044716,0.014418,0.086846,1.000000,0.000051,0.000018,-0.000040,-0.100501,0.226002,-0.098671,-0.963891,9.360356,27.098127,170.355458
57034,-4.472306,1.409802,8.695845,-0.027288,0.028234,0.066849,0.004722,0.002817,-0.008766,-0.044721,0.014098,0.086959,1.000000,0.000024,0.000014,-0.000044,-0.100512,0.226002,-0.098659,-0.963891,9.358473,27.098127,170.353679
57035,-4.483420,1.435553,8.716045,-0.032164,0.006417,0.093383,0.005754,0.003822,-0.009411,-0.044832,0.014355,0.087162,1.000000,0.000029,0.000019,-0.000047,-0.100526,0.226007,-0.098654,-0.963889,9.357379,27.098773,170.351801
57036,-4.463486,1.430920,8.703127,-0.043249,0.010489,0.072285,0.004235,0.001747,-0.010395,-0.044633,0.014310,0.087032,1.000000,0.000021,0.000009,-0.000052,-0.100545,0.226003,-0.098637,-0.963890,9.354695,27.098318,170.348876
57037,-4.493889,1.414194,8.707952,-0.014783,0.022653,0.087953,0.000044,0.005626,-0.010083,-0.044936,0.014144,0.087081,1.000000,0.000000,0.000028,-0.000050,-0.100555,0.226020,-0.098604,-0.963889,9.350221,27.100046,170.346760
57038,-4.485013,1.402455,8.727035,-0.028120,0.039198,0.098974,0.002799,0.006052,-0.009745,-0.044847,0.014026,0.087272,1.000000,0.000014,0.000030,-0.000049,-0.100567,0.226037,-0.098583,-0.963885,9.347107,27.101962,170.344698
57039,-4.485505,1.434515,8.715142,-0.030737,0.004904,0.093388,-0.000930,0.003487,-0.013342,-0.044853,0.014349,0.087152,1.000000,-0.000005,0.000017,-0.000067,-0.100593,0.226045,-0.098541,-0.963885,9.341030,27.102783,170.340288
57040,-4.475109,1.440728,8.682950,-0.028134,-0.007969,0.061271,-0.000782,0.001968,-0.009437,-0.044750,0.014410,0.086830,1.000000,-0.000004,0.000010,-0.000047,-0.100602,0.226044,-0.098501,-0.963888,9.335758,27.102360,170.337996
57041,-4.484976,1.419279,8.675175,-0.011114,0.008678,0.055840,0.000397,0.001454,-0.006179,-0.044849,0.014194,0.086752,1.000000,0.000002,0.000007,-0.000031,-0.100595,0.226039,-0.098472,-0.963893,9.332418,27.101366,170.337922
57042,-4.485326,1.386388,8.686764,-0.007795,0.042219,0.061432,-0.000237,0.001903,-0.011712,-0.044852,0.013867,0.086868,1.000000,-0.000001,0.000010,-0.000059,-0.100615,0.226038,-0.098432,-0.963895,9.326799,27.101115,170.334180
57043,-4.476052,1.406927,8.694383,-0.024098,0.024868,0.066866,-0.000237,0.001903,-0.011711,-0.044759,0.014072,0.086944,1.000000,-0.000001,0.000010,-0.000059,-0.100635,0.226038,-0.098395,-0.963897,9.321515,27.100889,170.330640
57044,-4.476504,1.374071,8.705910,-0.020784,0.058407,0.072462,0.003005,0.003399,-0.009743,-0.044763,0.013742,0.087060,1.000000,0.000015,0.000017,-0.000049,-0.100648,0.226042,-0.098373,-0.963897,9.318394,27.101300,170.328303
57045,-4.485246,1.371244,8.646540,0.012168,0.045662,0.023885,0.007482,0.003246,-0.008423,-0.044850,0.013711,0.086467,1.000000,0.000037,0.000016,-0.000042,-0.100660,0.226043,-0.098377,-0.963895,9.318548,27.101528,170.326991
57046,-4.467639,1.460854,8.689712,-0.042646,-0.027236,0.066707,0.015744,0.004525,-0.007409,-0.044674,0.014603,0.086899,1.000000,0.000079,0.000023,-0.000037,-0.100676,0.226045,-0.098421,-0.963889,9.323453,27.102359,170.326255
57047,-4.469304,1.508061,8.717478,-0.064138,-0.066079,0.098664,0.001226,0.005113,-0.006821,-0.044690,0.015082,0.087176,1.000000,0.000006,0.000026,-0.000034,-0.100672,0.226057,-0.098397,-0.963889,9.320575,27.103493,170.326155
57048,-4.459364,1.514225,8.685065,-0.061530,-0.078943,0.066541,-0.007103,0.011731,-0.010104,-0.044588,0.015148,0.086853,1.000000,-0.000036,0.000059,-0.000051,-0.100672,0.226107,-0.098331,-0.963884,9.311956,27.108645,170.324459
57049,-4.510732,1.468080,8.714212,-0.018661,-0.037294,0.108891,-0.021357,0.008528,-0.013422,-0.045103,0.014693,0.087142,1.000000,-0.000107,0.000043,-0.000067,-0.100672,0.226150,-0.098193,-0.963888,9.294390,27.112322,170.320521
57050,-4.520015,1.365131,8.690058,0.023131,0.051756,0.077106,-0.023903,0.005448,-0.013758,-0.045197,0.013665,0.086900,1.000000,-0.000120,0.000027,-0.000069,-0.100674,0.226179,-0.098038,-0.963896,9.274793,27.114257,170.315852
57051,-4.490893,1.282035,8.720025,0.004216,0.140695,0.078255,-0.012742,0.005636,-0.008504,-0.044906,0.012828,0.087201,1.000000,-0.000064,0.000028,-0.000043,-0.100661,0.226202,-0.097946,-0.963902,9.263449,27.115843,170.314736
57052,-4.510560,1.304237,8.681067,0.031965,0.106442,0.056191,0.007280,0.005905,-0.008416,-0.045102,0.013041,0.086812,1.000000,0.000036,0.000030,-0.000042,-0.100672,0.226215,-0.097948,-0.963897,9.263281,27.117543,170.313505
57053,-4.483620,1.382230,8.743631,-0.036502,0.050480,0.110045,0.010724,0.004748,-0.006450,-0.044834,0.013819,0.087438,1.000000,0.000054,0.000024,-0.000032,-0.100677,0.226220,-0.097971,-0.963893,9.265935,27.118436,170.313602
57054,-4.482958,1.368915,8.703401,-0.017263,0.054644,0.072491,0.016717,0.006673,-0.004143,-0.044826,0.013683,0.087037,1.000000,0.000084,0.000033,-0.000021,-0.100678,0.226231,-0.098023,-0.963885,9.272445,27.120175,170.315162
57055,-4.463139,1.365449,8.690255,-0.028369,0.058768,0.051405,0.014716,0.003527,-0.006757,-0.044629,0.013650,0.086904,1.000000,0.000074,0.000018,-0.000034,-0.100689,0.226228,-0.098064,-0.963881,9.277239,27.120407,170.314938
57056,-4.494873,1.364867,8.734475,-0.018804,0.066337,0.104623,0.027736,0.008384,-0.002786,-0.044945,0.013637,0.087349,1.000000,0.000139,0.000042,-0.000014,-0.100695,0.226240,-0.098172,-0.963866,9.290535,27.122985,170.317537
57057,-4.506366,1.457714,8.730747,-0.029482,-0.023395,0.119925,0.026564,0.008898,-0.006039,-0.045059,0.014567,0.087311,1.000000,0.000133,0.000044,-0.000030,-0.100714,0.226258,-0.098274,-0.963850,9.302580,27.126187,170.318327
57058,-4.566881,1.491437,8.716670,0.021221,-0.066583,0.140013,0.020026,0.007038,-0.006071,-0.045665,0.014907,0.087170,1.000000,0.000100,0.000035,-0.000030,-0.100727,0.226269,-0.098340,-0.963839,9.310444,27.128307,170.318702
57059,-4.525477,1.501369,8.639356,0.014612,-0.087343,0.054667,0.007431,0.004386,-0.004510,-0.045253,0.015011,0.086395,1.000000,0.000037,0.000022,-0.000023,-0.100719,0.226273,-0.098349,-0.963838,9.311755,27.128816,170.319994
57060,-4.506899,1.413917,8.701271,-0.006604,0.013971,0.087978,0.003644,0.002952,-0.004205,-0.045067,0.014139,0.087014,1.000000,0.000018,0.000015,-0.000021,-0.100707,0.226272,-0.098337,-0.963841,9.310584,27.128453,170.321132
57061,-4.496394,1.355771,8.692459,0.001837,0.069066,0.067077,0.002126,0.000875,-0.005190,-0.044963,0.013558,0.086925,1.000000,0.000011,0.000004,-0.000026,-0.100698,0.226262,-0.098317,-0.963846,9.308493,27.127040,170.321627
57062,-4.497746,1.370211,8.732159,-0.016686,0.064073,0.104642,0.006118,-0.000345,-0.005496,-0.044977,0.013701,0.087322,1.000000,0.000031,-0.000002,-0.000027,-0.100697,0.226245,-0.098314,-0.963851,9.308208,27.124934,170.321599
57063,-4.477464,1.366383,8.719316,-0.027800,0.068195,0.083561,0.016105,0.000363,-0.003492,-0.044774,0.013658,0.087194,1.000000,0.000081,0.000002,-0.000017,-0.100696,0.226225,-0.098364,-0.963850,9.314594,27.123074,170.323120
57064,-4.467932,1.356369,8.738497,-0.041164,0.084700,0.094614,0.019613,-0.001928,-0.005424,-0.044680,0.013556,0.087386,1.000000,0.000098,-0.000010,-0.000027,-0.100710,0.226193,-0.098424,-0.963850,9.321984,27.120064,170.322974
57065,-4.496403,1.392323,8.680085,0.000334,0.033626,0.061469,0.026301,-0.001581,-0.001484,-0.044965,0.013912,0.086802,1.000000,0.000132,-0.000008,-0.000007,-0.100712,0.226157,-0.098525,-0.963848,9.334700,27.116918,170.325566
57066,-4.467705,1.457897,8.702752,-0.049181,-0.017885,0.077763,0.025552,0.001140,0.000792,-0.044677,0.014568,0.087030,1.000000,0.000128,0.000006,0.000004,-0.100701,0.226134,-0.098622,-0.963845,9.347435,27.115063,170.329685
57067,-4.428490,1.497451,8.704949,-0.093536,-0.047841,0.067545,0.019148,0.004519,-0.001516,-0.044283,0.014967,0.087052,1.000000,0.000096,0.000023,-0.000008,-0.100692,0.226132,-0.098691,-0.963839,9.356334,27.115367,170.332893
57068,-4.498449,1.444697,8.706785,-0.020368,-0.006076,0.093414,0.012133,0.009103,0.002348,-0.044981,0.014441,0.087071,1.000000,0.000061,0.000046,0.000012,-0.100655,0.226153,-0.098730,-0.963834,9.362215,27.117864,170.338836
57069,-4.488392,1.387703,8.697623,-0.011966,0.049028,0.072528,0.013372,0.007454,0.001706,-0.044881,0.013871,0.086979,1.000000,0.000067,0.000037,0.000009,-0.100622,0.226166,-0.098776,-0.963830,9.368877,27.119527,170.344398
57070,-4.518728,1.372216,8.702257,0.016481,0.061196,0.088179,0.013217,0.001450,-0.007724,-0.045186,0.013718,0.087024,1.000000,0.000066,0.000007,-0.000039,-0.100638,0.226154,-0.098805,-0.963828,9.372098,27.118635,170.343142
57071,-4.469938,1.497166,8.688694,-0.050275,-0.053697,0.072142,0.021425,0.003878,-0.002797,-0.044697,0.014963,0.086889,1.000000,0.000107,0.000019,-0.000014,-0.100638,0.226148,-0.098883,-0.963821,9.381900,27.118696,170.345470
57072,-4.440558,1.514097,8.683330,-0.078006,-0.066675,0.056494,-0.004420,0.005763,-0.011404,-0.044402,0.015145,0.086834,1.000000,-0.000022,0.000029,-0.000057,-0.100650,0.226168,-0.098825,-0.963821,9.374158,27.120586,170.342329
57073,-4.500945,1.447707,8.704995,-0.018569,-0.007938,0.093416,-0.007583,0.003886,-0.005571,-0.045007,0.014482,0.087050,1.000000,-0.000038,0.000019,-0.000028,-0.100631,0.226178,-0.098760,-0.963827,9.366536,27.120910,170.342896
57074,-4.479746,1.395256,8.664282,-0.007951,0.034701,0.040402,-0.007519,0.002747,-0.009472,-0.044796,0.013958,0.086643,1.000000,-0.000038,0.000014,-0.000047,-0.100631,0.226184,-0.098688,-0.963833,9.357437,27.120911,170.340676
57075,-4.501795,1.413194,8.716656,-0.014964,0.025250,0.099048,-0.006485,0.003753,-0.010115,-0.045016,0.014137,0.087167,1.000000,-0.000032,0.000019,-0.000051,-0.100635,0.226195,-0.098623,-0.963837,9.349122,27.121584,170.338343
57076,-4.441249,1.366032,8.690266,-0.046175,0.072206,0.041455,-0.003728,0.004183,-0.009772,-0.044410,0.013664,0.086903,1.000000,-0.000019,0.000021,-0.000049,-0.100641,0.226206,-0.098570,-0.963839,9.342176,27.122423,170.336075
57077,-4.492127,1.353663,8.707701,-0.006249,0.079964,0.078178,0.003851,0.007055,-0.010375,-0.044917,0.013537,0.087079,1.000000,0.000019,0.000035,-0.000052,-0.100656,0.226228,-0.098556,-0.963834,9.339865,27.124985,170.333921
57078,-4.492692,1.418418,8.683927,-0.011651,0.011678,0.066913,0.003573,0.003328,-0.012003,-0.044925,0.014185,0.086840,1.000000,0.000018,0.000017,-0.000060,-0.100681,0.226233,-0.098535,-0.963833,9.336413,27.125547,170.330144
57079,-4.493222,1.386062,8.695390,-0.008418,0.045270,0.072549,0.009021,0.005328,-0.007418,-0.044929,0.013858,0.086956,1.000000,0.000045,0.000027,-0.000037,-0.100688,0.226242,-0.098548,-0.963828,9.337839,27.126859,170.329688
57080,-4.513966,1.423553,8.696035,0.000552,0.006455,0.087988,0.008194,0.001668,-0.006774,-0.045138,0.014233,0.086961,1.000000,0.000041,0.000008,-0.000034,-0.100694,0.226234,-0.098554,-0.963829,9.338468,27.125995,170.329062
57081,-4.473769,1.414629,8.670383,-0.022067,0.015048,0.045843,0.006610,0.007486,-0.010031,-0.044734,0.014146,0.086706,1.000000,0.000033,0.000037,-0.000050,-0.100710,0.226256,-0.098554,-0.963822,9.337858,27.128769,170.327172
57082,-4.485158,1.440297,8.690430,-0.026819,-0.006886,0.072347,0.001993,0.002388,-0.009086,-0.044850,0.014404,0.086905,1.000000,0.000010,0.000012,-0.000045,-0.100720,0.226255,-0.098528,-0.963824,9.334300,27.128527,170.325158
57083,-4.466392,1.449831,8.717397,-0.056787,-0.007419,0.088848,0.000960,0.001382,-0.008442,-0.044663,0.014500,0.087174,1.000000,0.000005,0.000007,-0.000042,-0.100725,0.226250,-0.098500,-0.963827,9.330621,27.127703,170.323639
57084,-4.435622,1.450940,8.672605,-0.065680,-0.015761,0.035636,-0.014955,0.005111,-0.011140,-0.044353,0.014518,0.086726,1.000000,-0.000075,0.000026,-0.000056,-0.100725,0.226272,-0.098391,-0.963833,9.316890,27.129188,170.320597
57085,-4.455573,1.374696,8.668819,-0.029275,0.051959,0.030421,-0.012741,0.013129,-0.002998,-0.044550,0.013753,0.086690,1.000000,-0.000064,0.000066,-0.000015,-0.100682,0.226328,-0.098309,-0.963833,9.307497,27.134500,170.323761
57086,-4.468841,1.478188,8.705081,-0.058565,-0.042527,0.083209,-0.015362,0.010422,-0.011138,-0.044683,0.014791,0.087052,1.000000,-0.000077,0.000052,-0.000056,-0.100678,0.226376,-0.098201,-0.963833,9.293786,27.138984,170.321269
57087,-4.451191,1.551067,8.708290,-0.094237,-0.110959,0.088425,-0.019899,0.019224,-0.003034,-0.044503,0.015520,0.087086,1.000000,-0.000099,0.000096,-0.000015,-0.100625,0.226465,-0.098087,-0.963829,9.280571,27.147748,170.325041
57088,-4.511770,1.403232,8.713107,-0.010313,0.020327,0.099065,-0.040622,0.027271,-0.010949,-0.045105,0.014052,0.087134,1.000000,-0.000203,0.000136,-0.000055,-0.100583,0.226606,-0.097866,-0.963823,9.253242,27.161738,170.324423
57089,-4.570908,1.240757,8.678134,0.092417,0.156347,0.072134,-0.026433,0.017358,-0.003067,-0.045701,0.012420,0.086784,1.000000,-0.000132,0.000087,-0.000015,-0.100524,0.226689,-0.097720,-0.963825,9.236184,27.169451,170.327975
57090,-4.493630,1.282031,8.694757,0.006270,0.130547,0.057370,-0.006874,0.016584,-0.004568,-0.044929,0.012824,0.086951,1.000000,-0.000034,0.000083,-0.000023,-0.100495,0.226759,-0.097663,-0.963817,9.229531,27.176813,170.330297
57091,-4.615871,1.359680,8.706835,0.088752,0.040170,0.134900,-0.001092,0.014410,0.003914,-0.046153,0.013596,0.087072,1.000000,-0.000005,0.000072,0.000020,-0.100431,0.226812,-0.097646,-0.963813,9.228880,27.182218,170.337979
57092,-4.386225,1.294456,8.677650,-0.085945,0.130397,-0.004945,-0.002948,0.017259,0.010730,-0.043855,0.012943,0.086780,1.000000,-0.000015,0.000086,0.000054,-0.100333,0.226876,-0.097626,-0.963810,9.228945,27.188557,170.350101
57093,-4.538730,1.259313,8.729425,0.033157,0.154457,0.105167,0.014345,0.023889,0.004356,-0.045377,0.012586,0.087301,1.000000,0.000072,0.000119,0.000022,-0.100280,0.226966,-0.097688,-0.963788,9.237716,27.199282,170.359047
57094,-4.472345,1.427308,8.730735,-0.066570,0.005248,0.099949,0.028524,0.013216,0.000537,-0.044718,0.014261,0.087312,1.000000,0.000143,0.000066,0.000003,-0.100269,0.227000,-0.097806,-0.963769,9.252657,27.204266,170.364270
57095,-4.522749,1.468045,8.683963,-0.013478,-0.050162,0.087764,0.018896,0.022609,0.001790,-0.045218,0.014672,0.086846,1.000000,0.000094,0.000113,0.000009,-0.100234,0.227083,-0.097886,-0.963745,9.263235,27.214501,170.371457
57096,-4.643821,1.370953,8.714402,0.102046,0.033827,0.155955,0.014133,0.012265,0.004992,-0.046433,0.013702,0.087148,1.000000,0.000071,0.000061,0.000025,-0.100185,0.227117,-0.097939,-0.963737,9.271187,27.218536,170.379422
57097,-4.633366,1.314744,8.705300,0.110303,0.088981,0.135116,0.027481,-0.002071,0.001818,-0.046335,0.013135,0.087054,1.000000,0.000137,-0.000010,0.000009,-0.100173,0.227077,-0.098049,-0.963737,9.285522,27.214809,170.384068
57098,-4.513257,1.383891,8.685355,-0.001668,0.038125,0.072583,0.038636,-0.009383,0.001568,-0.045137,0.013822,0.086854,1.000000,0.000193,-0.000047,0.000008,-0.100179,0.226996,-0.098205,-0.963739,9.305486,27.206922,170.387590
57099,-4.513953,1.433958,8.713164,-0.022946,-0.000865,0.104505,0.031619,-0.004801,0.005427,-0.045142,0.014325,0.087133,1.000000,0.000158,-0.000024,0.000027,-0.100155,0.226939,-0.098337,-0.963742,9.323108,27.201315,170.394243
57100,-4.482206,1.341685,8.703577,-0.023391,0.092643,0.068275,0.030588,-0.005806,0.006072,-0.044825,0.013402,0.087037,1.000000,0.000153,-0.000029,0.000030,-0.100128,0.226877,-0.098462,-0.963746,9.339936,27.195027,170.401003
57101,-4.521130,1.307357,8.700618,0.021609,0.122004,0.078481,0.039901,-0.003503,0.006475,-0.045213,0.013055,0.087008,1.000000,0.000200,-0.000018,0.000032,-0.100108,0.226821,-0.098636,-0.963744,9.362667,27.190053,170.408453
57102,-4.481149,1.413902,8.679370,-0.028322,0.024006,0.056958,0.045145,-0.006366,0.005546,-0.044815,0.014118,0.086795,1.000000,0.000226,-0.000032,0.000028,-0.100100,0.226750,-0.098830,-0.963741,9.387647,27.183492,170.414809
57103,-4.482001,1.464849,8.706869,-0.049582,-0.014998,0.088878,0.039849,-0.002356,0.010389,-0.044822,0.014629,0.087071,1.000000,0.000199,-0.000012,0.000052,-0.100060,0.226698,-0.099008,-0.963739,9.411535,27.178794,170.424861
57104,-4.473505,1.503867,8.753817,-0.084584,-0.037213,0.131891,0.030960,-0.003213,0.003824,-0.044737,0.015024,0.087540,1.000000,0.000155,-0.000016,0.000019,-0.100044,0.226649,-0.099133,-0.963740,9.428040,27.174173,170.430439
57105,-4.472014,1.491920,8.713737,-0.065420,-0.032852,0.094310,0.022763,0.001877,0.004410,-0.044720,0.014908,0.087139,1.000000,0.000114,0.000009,0.000022,-0.100011,0.226629,-0.099225,-0.963738,9.440605,27.172424,170.437135
57106,-4.511908,1.455842,8.710594,-0.020416,-0.003534,0.104510,0.013809,0.008912,-0.004437,-0.045115,0.014553,0.087109,1.000000,0.000069,0.000045,-0.000022,-0.100009,0.226652,-0.099264,-0.963729,9.445474,27.175423,170.438736
57107,-4.541113,1.425961,8.675347,0.026818,0.013468,0.082555,0.015184,0.005753,-0.001174,-0.045409,0.014253,0.086756,1.000000,0.000076,0.000029,-0.000006,-0.099993,0.226657,-0.099315,-0.963724,9.452263,27.176388,170.442294
57108,-4.563242,1.446108,8.727302,0.019904,0.003874,0.141196,0.009869,0.002234,-0.001867,-0.045631,0.014457,0.087274,1.000000,0.000049,0.000011,-0.000009,-0.099977,0.226648,-0.099335,-0.963726,9.455297,27.175377,170.444858
57109,-4.551013,1.406702,8.667220,0.044095,0.029824,0.077125,0.010207,-0.001931,0.002037,-0.045511,0.014062,0.086672,1.000000,0.000051,-0.000010,0.000010,-0.099944,0.226617,-0.099361,-0.963734,9.459795,27.171696,170.449643
57110,-4.572284,1.394701,8.731448,0.039983,0.054168,0.141438,0.015786,-0.008961,0.005012,-0.045727,0.013939,0.087314,1.000000,0.000079,-0.000045,0.000025,-0.099907,0.226548,-0.099412,-0.963749,9.467672,27.163706,170.455377
57111,-4.480035,1.431474,8.677064,-0.025096,0.020646,0.056974,0.019711,-0.016562,0.003101,-0.044808,0.014305,0.086768,1.000000,0.000099,-0.000083,0.000016,-0.099886,0.226441,-0.099478,-0.963769,9.477214,27.151656,170.459286
57112,-4.439394,1.438706,8.691832,-0.066571,0.024442,0.052454,0.021515,-0.010749,0.005716,-0.044399,0.014376,0.086917,1.000000,0.000108,-0.000054,0.000029,-0.099854,0.226360,-0.099556,-0.963784,9.488490,27.142589,170.465253
57113,-4.449507,1.433809,8.724030,-0.068447,0.036455,0.084616,0.014416,-0.005801,0.001753,-0.044498,0.014331,0.087240,1.000000,0.000072,-0.000029,0.000009,-0.099829,0.226309,-0.099601,-0.963794,9.495126,27.136746,170.469443
57114,-4.408285,1.458338,8.686906,-0.093928,0.011041,0.036836,0.016490,-0.003790,0.000471,-0.044085,0.014576,0.086869,1.000000,0.000082,-0.000019,0.000002,-0.099812,0.226266,-0.099652,-0.963800,9.502335,27.132109,170.472854
57115,-4.408394,1.427152,8.698540,-0.090783,0.044628,0.042518,0.012430,0.005321,-0.001522,-0.044082,0.014266,0.086987,1.000000,0.000062,0.000027,-0.000008,-0.099794,0.226271,-0.099689,-0.963797,9.507422,27.132859,170.476145
57116,-4.470426,1.377447,8.759546,-0.050274,0.098702,0.117038,0.016859,0.013075,-0.002465,-0.044698,0.013768,0.087600,1.000000,0.000084,0.000065,-0.000012,-0.099784,0.226311,-0.099747,-0.963783,9.514809,27.138016,170.479473
57117,-4.570913,1.405869,8.730374,0.042503,0.051572,0.141441,0.027706,0.017462,-0.001070,-0.045701,0.014047,0.087310,1.000000,0.000139,0.000087,-0.000005,-0.099776,0.226366,-0.099864,-0.963758,9.529371,27.145584,170.484345
57118,-4.614631,1.432330,8.794021,0.047151,0.037479,0.221133,0.030406,0.019045,0.003183,-0.046138,0.014309,0.087947,1.000000,0.000152,0.000095,0.000016,-0.099750,0.226426,-0.099997,-0.963733,9.546446,27.153573,170.491881
57119,-4.634102,1.249615,8.785375,0.110473,0.211891,0.195417,0.042568,0.022220,0.023451,-0.046333,0.012472,0.087862,1.000000,0.000213,0.000111,0.000117,-0.099638,0.226484,-0.100215,-0.963708,9.576866,27.161492,170.512839
57120,-4.726073,1.318994,8.802785,0.167947,0.142856,0.262823,0.084972,0.009857,0.038850,-0.047259,0.013143,0.088036,1.000000,0.000425,0.000049,0.000194,-0.099507,0.226454,-0.100647,-0.963684,9.635097,27.160885,170.542042
57121,-4.515233,1.461595,8.714408,-0.012194,0.024767,0.110202,0.088870,0.003416,0.040889,-0.045154,0.014568,0.087151,1.000000,0.000444,0.000017,0.000204,-0.099373,0.226390,-0.101099,-0.963666,9.696180,27.156472,170.572053
57122,-4.375240,1.532770,8.679851,-0.135649,-0.021790,0.026675,0.095993,0.013923,0.048140,-0.043750,0.015276,0.086809,1.000000,0.000480,0.000070,0.000241,-0.099208,0.226369,-0.101596,-0.963635,9.763606,27.157203,170.607595
57123,-4.298721,1.599522,8.734265,-0.240497,-0.052532,0.049577,0.069442,0.024890,0.043311,-0.042980,0.015956,0.087354,1.000000,0.000347,0.000124,0.000217,-0.099029,0.226417,-0.101968,-0.963603,9.815328,27.164621,170.641485
57124,-4.319329,1.452719,8.713179,-0.180004,0.087895,0.018200,0.057644,0.048070,0.041194,-0.043175,0.014493,0.087146,1.000000,0.000288,0.000240,0.000206,-0.098837,0.226583,-0.102290,-0.963550,9.860506,27.185239,170.676383
57125,-4.487335,1.401312,8.846304,-0.079059,0.153628,0.203654,0.075255,0.067460,0.038133,-0.044846,0.013971,0.088483,1.000000,0.000376,0.000337,0.000191,-0.098668,0.226836,-0.102705,-0.963463,9.916242,27.217142,170.711722
57126,-4.910039,1.518653,9.073015,0.165864,0.047066,0.613465,0.114573,0.067891,0.051054,-0.049073,0.015122,0.090755,1.000000,0.000573,0.000339,0.000255,-0.098482,0.227064,-0.103321,-0.963363,9.997977,27.247903,170.755127
57127,-5.281244,1.732473,9.297214,0.346950,-0.140294,1.012796,0.154031,0.022506,0.073962,-0.052808,0.017234,0.092991,1.000000,0.000770,0.000113,0.000370,-0.098253,0.227043,-0.104134,-0.963304,10.107023,27.250771,170.808263
57128,-5.562756,1.919201,9.433616,0.500690,-0.305067,1.290325,0.207558,-0.058942,0.114290,-0.055666,0.019062,0.094340,0.999999,0.001038,-0.000295,0.000571,-0.097934,0.226582,-0.105208,-0.963328,10.253821,27.203457,170.877496
57129,-5.085347,2.101660,9.512703,0.023301,-0.369527,1.170575,0.230074,-0.146379,0.121907,-0.050936,0.020876,0.095114,0.999999,0.001150,-0.000732,0.000610,-0.097649,0.225684,-0.106358,-0.963441,10.411306,27.105972,170.941470
57130,-4.193002,2.393808,9.548296,-0.822265,-0.492490,0.843897,0.218937,-0.147324,0.142663,-0.042017,0.023804,0.095478,0.999999,0.001095,-0.000737,0.000713,-0.097252,0.224775,-0.107475,-0.963570,10.567741,27.005594,171.017899
57131,-3.462540,2.289592,9.619715,-1.451499,-0.253903,0.560306,0.137890,-0.079709,0.150275,-0.034681,0.022804,0.096199,0.999999,0.000689,-0.000399,0.000751,-0.096690,0.224227,-0.108246,-0.963668,10.683643,26.942367,171.107038
57132,-2.856252,1.783936,10.036607,-2.024366,0.440174,0.569134,0.234776,-0.049223,0.178837,-0.028603,0.017696,0.100380,0.999999,0.001174,-0.000246,0.000894,-0.096083,0.223763,-0.109527,-0.963692,10.864410,26.892929,171.217412
57133,-2.819233,2.366618,10.563340,-2.390509,0.061512,1.115006,0.475201,-0.100182,0.253664,-0.028275,0.023379,0.105675,0.999996,0.002376,-0.000501,0.001268,-0.095411,0.222896,-0.112028,-0.963672,11.201427,26.806289,171.368598
57134,-2.477109,3.178168,10.660706,-2.889342,-0.579796,1.196509,0.647734,-0.187367,0.365765,-0.024929,0.031391,0.106686,0.999993,0.003239,-0.000937,0.001829,-0.094440,0.221460,-0.115440,-0.963696,11.663091,26.656794,171.578166
57135,-2.074835,4.041913,10.988951,-3.534714,-1.190292,1.478341,0.646556,-0.221299,0.474239,-0.020965,0.040014,0.109996,0.999991,0.003233,-0.001106,0.002371,-0.092963,0.219797,-0.118951,-0.963793,12.151454,26.474129,171.849729
57136,-1.946572,4.336839,11.048414,-3.687694,-1.366902,1.553778,0.568988,-0.257812,0.557166,-0.019728,0.042999,0.110581,0.999991,0.002845,-0.001289,0.002786,-0.091021,0.217937,-0.122159,-0.964000,12.614170,26.258416,172.165768
57137,-2.287980,4.464213,11.367855,-3.483147,-1.377041,2.034801,0.481476,-0.255047,0.579104,-0.023153,0.044302,0.113756,0.999992,0.002407,-0.001275,0.002896,-0.088874,0.216117,-0.124969,-0.964250,13.030959,26.039705,172.493553
57138,-2.888884,4.568394,12.082516,-3.189542,-1.294815,2.968266,0.299096,-0.326363,0.562399,-0.029214,0.045421,0.120846,0.999994,0.001495,-0.001632,0.002812,-0.086652,0.214036,-0.126848,-0.964671,13.331920,25.780978,172.798453
57139,-2.863325,3.669264,11.751544,-2.803785,-0.493001,2.502176,0.221715,-0.561258,0.585359,-0.029070,0.036478,0.117475,0.999991,0.001109,-0.002806,0.002927,-0.084386,0.210843,-0.128275,-0.965386,13.577255,25.387569,173.080586
57140,-2.331942,3.542913,11.400719,-3.019852,-0.385829,1.964289,0.266982,-0.709207,0.588442,-0.023827,0.035207,0.113970,0.999988,0.001335,-0.003546,0.002942,-0.082245,0.206904,-0.129858,-0.966211,13.836694,24.909538,173.339594
57141,-2.172570,3.433854,11.058744,-2.904140,-0.334533,1.600470,0.281668,-0.790028,0.574211,-0.022261,0.034119,0.110548,0.999987,0.001408,-0.003950,0.002871,-0.080239,0.202579,-0.131462,-0.967079,14.092343,24.388220,173.574090
57142,-2.108464,3.448621,10.649241,-2.703915,-0.431666,1.243819,0.299276,-0.827600,0.556630,-0.021621,0.034267,0.106455,0.999986,0.001496,-0.004138,0.002783,-0.078357,0.198064,-0.133114,-0.967942,14.347929,23.846671,173.788709
57143,-2.356698,3.414712,10.488478,-2.303098,-0.442779,1.220038,0.288173,-0.841707,0.546992,-0.024101,0.033931,0.104833,0.999986,0.001441,-0.004209,0.002735,-0.076519,0.193494,-0.134694,-0.968794,14.590676,23.298722,173.991674
57144,-2.634188,3.399966,10.327879,-1.876733,-0.475107,1.206149,0.283848,-0.887127,0.561269,-0.026895,0.033778,0.103208,0.999985,0.001419,-0.004436,0.002806,-0.074634,0.188681,-0.136246,-0.969673,14.828405,22.721723,174.192892
57145,-2.633667,3.311206,10.206813,-1.700638,-0.401131,1.097170,0.246258,-0.930191,0.589240,-0.026908,0.032908,0.101984,0.999984,0.001231,-0.004651,0.002946,-0.072608,0.183658,-0.137621,-0.970597,15.045128,22.117050,174.400453
57146,-2.781786,2.874822,9.976890,-1.283499,-0.043698,0.859274,0.242383,-0.952339,0.636023,-0.028384,0.028538,0.099669,0.999983,0.001212,-0.004762,0.003180,-0.070360,0.178480,-0.139008,-0.971530,15.265407,21.491274,174.629138
57147,-3.143062,3.172585,10.078180,-0.913827,-0.301382,1.168501,0.283427,-0.967674,0.694914,-0.032028,0.031473,0.100673,0.999981,0.001417,-0.004838,0.003475,-0.067875,0.173176,-0.140636,-0.972432,15.517112,20.848322,174.886233
57148,-3.691496,3.528861,10.323564,-0.411679,-0.586546,1.682564,0.169092,-1.008958,0.741152,-0.037565,0.035063,0.103077,0.999980,0.000845,-0.005045,0.003706,-0.065089,0.167661,-0.141730,-0.973430,15.706470,20.173365,175.160238
57149,-4.557724,2.993659,10.299070,0.643753,-0.132732,1.822251,0.088254,-1.076175,0.806276,-0.046251,0.029706,0.102756,0.999977,0.000441,-0.005381,0.004031,-0.061966,0.161801,-0.142456,-0.974519,15.854330,19.451623,175.457714
57150,-4.972752,3.053178,10.135171,1.232197,-0.248919,1.814399,0.098807,-1.238965,0.864540,-0.050485,0.030265,0.101056,0.999971,0.000494,-0.006195,0.004323,-0.058677,0.155085,-0.143223,-0.975701,16.005679,18.629137,175.758894
57151,-4.294349,3.174728,9.569404,0.902641,-0.471200,1.098529,-0.005074,-1.328835,0.867582,-0.043715,0.031561,0.095404,0.999969,-0.000025,-0.006644,0.004338,-0.055357,0.147959,-0.143451,-0.976968,16.088056,17.757268,176.043363
57152,-3.990721,2.709213,8.872450,1.034957,-0.212833,0.230604,-0.118345,-1.312015,0.841066,-0.040602,0.026975,0.088444,0.999969,-0.000592,-0.006560,0.004205,-0.052064,0.140948,-0.143101,-0.978236,16.097184,16.897557,176.313459
57153,-3.792805,2.024423,8.277914,1.239254,0.274670,-0.571751,-0.106971,-1.245993,0.804026,-0.038524,0.020134,0.082530,0.999972,-0.000535,-0.006230,0.004020,-0.048913,0.134284,-0.142790,-0.979381,16.105650,16.081135,176.571674
57154,-3.734693,1.959999,7.919534,1.404966,0.237879,-0.953969,-0.010501,-1.148002,0.773277,-0.037876,0.019458,0.078978,0.999976,-0.000053,-0.005740,0.003866,-0.045902,0.128082,-0.142947,-0.980334,16.165271,15.322364,176.827195
57155,-3.818368,2.115147,7.957664,1.569155,0.105652,-0.873796,0.011848,-1.044104,0.729054,-0.038675,0.021006,0.079377,0.999980,0.000059,-0.005220,0.003645,-0.043048,0.122419,-0.143202,-0.981149,16.231981,14.628587,177.072764
57156,-3.742569,2.017734,7.929552,1.617384,0.204580,-0.964114,0.008459,-0.958822,0.683871,-0.037874,0.020045,0.079116,0.999983,0.000042,-0.004794,0.003419,-0.040349,0.117195,-0.143427,-0.981869,16.290806,13.987766,177.305455
57157,-3.629469,2.034133,8.071408,1.569282,0.245221,-0.872056,0.005837,-0.868111,0.641863,-0.036710,0.020222,0.080556,0.999985,0.000029,-0.004341,0.003209,-0.037791,0.112451,-0.143627,-0.982496,16.343299,13.404311,177.527963
57158,-3.635725,2.109900,8.320590,1.602394,0.254574,-0.632856,0.002906,-0.781378,0.605725,-0.036746,0.020987,0.083063,0.999988,0.000015,-0.003907,0.003029,-0.035343,0.108150,-0.143805,-0.983044,16.390429,12.873334,177.743567
57159,-3.848061,2.202668,8.613325,1.823785,0.251030,-0.301699,-0.031363,-0.733919,0.574777,-0.038859,0.021929,0.085988,0.999989,-0.000157,-0.003670,0.002874,-0.032996,0.104114,-0.143803,-0.983561,16.413751,12.374170,177.948678
57160,-3.930213,2.133772,8.755983,1.965124,0.360448,-0.185923,-0.061090,-0.745923,0.531704,-0.039685,0.021259,0.087406,0.999989,-0.000305,-0.003730,0.002659,-0.030851,0.100047,-0.143627,-0.984078,16.412689,11.874593,178.127226
57161,-3.663637,2.011131,8.571017,1.831404,0.435343,-0.464687,-0.052867,-0.755587,0.487528,-0.037009,0.020044,0.085566,0.999990,-0.000264,-0.003778,0.002438,-0.028936,0.095967,-0.143465,-0.984566,16.409439,11.377613,178.278952
57162,-3.320061,1.843103,8.266039,1.642019,0.520289,-0.880733,-0.026125,-0.765445,0.434356,-0.033557,0.018369,0.082530,0.999990,-0.000131,-0.003827,0.002172,-0.027301,0.091865,-0.143405,-0.985013,16.414081,10.883179,178.399098
57163,-2.753560,1.689743,7.909957,1.231125,0.583733,-1.377763,0.037380,-0.718623,0.369246,-0.027851,0.016831,0.079003,0.999992,0.000187,-0.003593,0.001846,-0.025982,0.088036,-0.143631,-0.985365,16.448786,10.425631,178.490092
57164,-2.510906,1.766140,7.810165,1.065395,0.494792,-1.503511,0.088472,-0.628394,0.310443,-0.025382,0.017588,0.078030,0.999994,0.000442,-0.003142,0.001552,-0.024910,0.084681,-0.144092,-0.985620,16.508758,10.026581,178.562724
57165,-2.559158,1.766342,7.812960,1.165950,0.503516,-1.500142,0.118134,-0.541099,0.262937,-0.025826,0.017583,0.078070,0.999995,0.000591,-0.002705,0.001315,-0.024022,0.081790,-0.144690,-0.985798,16.583173,9.683703,178.622698
57166,-2.387293,2.006920,7.954724,1.003994,0.329735,-1.334030,0.143162,-0.456594,0.225692,-0.024077,0.019985,0.079507,0.999997,0.000716,-0.002283,0.001128,-0.023266,0.079335,-0.145403,-0.985912,16.670307,9.392747,178.675494
57167,-2.369565,2.340769,8.261103,0.957952,0.111225,-0.957762,0.118795,-0.380693,0.185551,-0.023875,0.023337,0.082580,0.999998,0.000594,-0.001903,0.000928,-0.022644,0.077290,-0.145990,-0.986002,16.741706,9.150478,178.718134
57168,-2.544833,2.490264,8.712219,1.091094,0.104706,-0.465024,0.077145,-0.328898,0.156084,-0.025611,0.024849,0.087090,0.999998,0.000386,-0.001644,0.000780,-0.022112,0.075523,-0.146363,-0.986096,16.787711,8.941014,178.752836
57169,-2.706844,2.455869,9.065929,1.239628,0.244874,-0.119773,0.083963,-0.368651,0.155744,-0.027255,0.024499,0.090619,0.999998,0.000420,-0.001843,0.000779,-0.021614,0.073562,-0.146767,-0.986195,16.836519,8.710210,178.780445
57170,-2.397375,2.450429,9.282249,0.947688,0.329548,0.031359,0.127988,-0.449436,0.169779,-0.024203,0.024424,0.092784,0.999997,0.000640,-0.002247,0.000849,-0.021122,0.071184,-0.147382,-0.986289,16.909404,8.432382,178.802011
57171,-1.996250,2.523120,9.385426,0.584841,0.313068,0.086657,0.188921,-0.532081,0.187905,-0.020236,0.025124,0.093824,0.999996,0.000945,-0.002660,0.000940,-0.020623,0.068382,-0.148295,-0.986361,17.016580,8.106567,178.819169
57172,-1.150631,2.729209,9.397470,-0.207688,0.154812,0.037061,0.202998,-0.569833,0.203624,-0.011802,0.027185,0.093969,0.999995,0.001015,-0.002849,0.001018,-0.020079,0.065377,-0.149276,-0.986428,17.131807,7.757074,178.837971
57173,-0.725520,2.601027,9.512186,-0.575568,0.338515,0.052768,0.207066,-0.551374,0.219172,-0.007546,0.025904,0.095128,0.999995,0.001035,-0.002757,0.001096,-0.019446,0.062453,-0.150285,-0.986477,17.250844,7.415339,178.867759
57174,-0.672826,2.643417,9.667221,-0.588699,0.365321,0.208048,0.220257,-0.545172,0.244887,-0.007024,0.026319,0.096682,0.999995,0.001101,-0.002726,0.001224,-0.018685,0.059535,-0.151364,-0.986507,17.378936,7.072203,178.912045
57175,-0.790530,2.638081,9.811843,-0.426907,0.431659,0.360205,0.198986,-0.547553,0.256729,-0.008208,0.026273,0.098122,0.999995,0.000995,-0.002738,0.001284,-0.017861,0.056601,-0.152341,-0.986544,17.495370,6.725985,178.961651
57176,-1.065809,2.709236,9.853438,-0.098492,0.389477,0.453977,0.172801,-0.567950,0.279790,-0.010976,0.026992,0.098527,0.999995,0.000864,-0.002840,0.001399,-0.016931,0.053548,-0.153190,-0.986600,17.597283,6.364175,179.019711
57177,-1.131502,2.599170,9.619558,0.060598,0.436154,0.206175,0.118769,-0.586437,0.282285,-0.011634,0.025918,0.096177,0.999995,0.000594,-0.002932,0.001411,-0.015989,0.050408,-0.153772,-0.986690,17.667780,5.992123,179.075306
57178,-1.224263,2.511036,9.319824,0.249523,0.437100,-0.096228,0.095570,-0.591880,0.281470,-0.012554,0.025048,0.093173,0.999995,0.000478,-0.002959,0.001407,-0.015049,0.047240,-0.154236,-0.986789,17.724240,5.616809,179.129065
57179,-1.214064,2.711614,9.039687,0.317166,0.168079,-0.304081,0.069069,-0.574796,0.271678,-0.012437,0.027068,0.090371,0.999995,0.000345,-0.002874,0.001358,-0.014137,0.044169,-0.154567,-0.986893,17.765110,5.252855,179.180083
57180,-1.005186,2.638073,8.801439,0.189490,0.170565,-0.573103,-0.008078,-0.530415,0.269925,-0.010321,0.026370,0.087986,0.999996,-0.000040,-0.002652,0.001350,-0.013183,0.041321,-0.154518,-0.987038,17.761843,4.913052,179.237792
57181,-1.094283,2.481253,8.623979,0.348939,0.263593,-0.782977,-0.006072,-0.461542,0.265391,-0.011175,0.024800,0.086213,0.999996,-0.000030,-0.002308,0.001327,-0.012198,0.038818,-0.154482,-0.987157,17.760415,4.611978,179.305073
57182,-1.147722,2.664380,8.585882,0.443166,0.076397,-0.761103,-0.012596,-0.402810,0.264632,-0.011685,0.026634,0.085834,0.999997,-0.000063,-0.002014,0.001323,-0.011170,0.036603,-0.154415,-0.987265,17.755458,4.342751,179.382231
57183,-1.045873,2.586802,8.448410,0.392545,0.107722,-0.924761,-0.036982,-0.331601,0.261124,-0.010633,0.025870,0.084462,0.999998,-0.000185,-0.001658,0.001306,-0.010100,0.034746,-0.154232,-0.987372,17.737201,4.113348,179.469960
57184,-1.270536,2.421317,8.426521,0.655034,0.254530,-0.981528,-0.030444,-0.257215,0.248479,-0.012844,0.024210,0.084245,0.999998,-0.000152,-0.001286,0.001242,-0.009036,0.033263,-0.154080,-0.987457,17.722570,3.926460,179.563830
57185,-1.509812,2.447930,8.622283,0.907358,0.286814,-0.773326,-0.012592,-0.211147,0.252512,-0.015220,0.024466,0.086205,0.999999,-0.000063,-0.001056,0.001263,-0.007920,0.032006,-0.154021,-0.987517,17.718804,3.764339,179.667964
57186,-1.911335,2.430278,8.695520,1.329623,0.326439,-0.685968,0.024032,-0.221454,0.250098,-0.019240,0.024268,0.086937,0.999999,0.000120,-0.001107,0.001250,-0.006829,0.030696,-0.154139,-0.987549,17.735271,3.596736,179.768933
57187,-1.763135,2.531970,8.565371,1.214711,0.194940,-0.792072,0.021693,-0.262423,0.241021,-0.017774,0.025289,0.085633,0.999998,0.000108,-0.001312,0.001205,-0.005815,0.029194,-0.154244,-0.987584,17.749588,3.408600,179.857713
57188,-1.424075,2.314281,8.191491,0.929226,0.292551,-1.237415,0.020950,-0.248647,0.209393,-0.014367,0.023119,0.081900,0.999999,0.000105,-0.001243,0.001047,-0.004946,0.027782,-0.154339,-0.987615,17.762071,3.233295,179.931537
57189,-1.335820,2.172580,7.995048,0.876523,0.371841,-1.474899,0.053868,-0.184034,0.163304,-0.013449,0.021693,0.079944,0.999999,0.000269,-0.000920,0.000817,-0.004259,0.026725,-0.154593,-0.987608,17.792710,3.101469,179.991439
57190,-1.231990,2.363186,7.951833,0.786846,0.183475,-1.465156,0.083341,-0.100652,0.109495,-0.012373,0.023592,0.079522,1.000000,0.000417,-0.000503,0.000547,-0.003777,0.026120,-0.154985,-0.987564,17.839051,3.024379,-179.963540
57191,-1.269624,2.341200,8.036109,0.827392,0.237445,-1.390619,0.079879,-0.007960,0.068593,-0.012707,0.023376,0.080370,1.000000,0.000399,-0.000040,0.000343,-0.003426,0.026005,-0.155358,-0.987510,17.883332,3.005131,-179.924577
57192,-1.268660,2.471986,8.195152,0.815846,0.170126,-1.199548,0.110817,0.063814,0.035317,-0.012665,0.024672,0.081969,1.000000,0.000554,0.000319,0.000177,-0.003187,0.026270,-0.155879,-0.987422,17.944759,3.030747,-179.891171
57193,-1.484358,2.717215,8.568272,1.002175,0.062238,-0.757654,0.110397,0.121056,0.034989,-0.014796,0.027122,0.085707,1.000000,0.000552,0.000605,0.000175,-0.002904,0.026818,-0.156401,-0.987325,18.006794,3.087675,-179.847740
57194,-2.494799,2.940612,9.121299,1.971706,0.033825,-0.108021,0.097123,0.084553,0.048317,-0.024917,0.029356,0.091238,1.000000,0.000486,0.000423,0.000242,-0.002583,0.027175,-0.156856,-0.987244,18.061006,3.122267,-179.803511
57195,-2.432507,2.992442,9.069365,1.913436,-0.026042,-0.145048,0.008608,-0.085285,0.045950,-0.024371,0.029915,0.090685,1.000000,0.000043,-0.000426,0.000230,-0.002395,0.026697,-0.156874,-0.987255,18.063093,3.064784,-179.790721
57196,-1.621074,2.502946,8.400165,1.155904,0.226937,-0.977091,-0.044939,-0.148476,0.013380,-0.016275,0.025047,0.083984,1.000000,-0.000225,-0.000742,0.000067,-0.002410,0.025934,-0.156620,-0.987316,18.032659,2.978730,-179.806987
57197,-0.898673,2.470120,7.994457,0.465764,0.125678,-1.411038,-0.036177,-0.101723,-0.047759,-0.009021,0.024718,0.079936,1.000000,-0.000181,-0.000509,-0.000239,-0.002691,0.025449,-0.156404,-0.987362,18.006272,2.928910,-179.848200
57198,-0.551001,2.428545,7.798592,0.130393,0.100338,-1.627799,-0.021341,0.031229,-0.087090,-0.005487,0.024296,0.077984,1.000000,-0.000107,0.000156,-0.000435,-0.003065,0.025652,-0.156255,-0.987379,17.988196,2.958599,-179.887364
57199,-0.759658,3.013119,8.208755,0.300480,-0.328823,-1.046777,0.034830,0.157201,-0.087971,-0.007519,0.030120,0.082099,1.000000,0.000174,0.000786,-0.000440,-0.003352,0.026476,-0.156389,-0.987335,18.003712,3.056974,-179.904604
57200,-0.961402,3.356016,8.571751,0.460568,-0.543726,-0.584781,-0.046626,0.215932,-0.059812,-0.009511,0.033583,0.085720,0.999999,-0.000233,0.001080,-0.000299,-0.003443,0.027570,-0.156122,-0.987347,17.973628,3.182496,-179.896162
57201,-0.972535,3.138028,8.803135,0.442612,-0.270586,-0.430840,-0.069688,0.228927,-0.011029,-0.009623,0.031411,0.088031,0.999999,-0.000348,0.001145,-0.000055,-0.003279,0.028689,-0.155751,-0.987374,17.932279,3.306365,-179.858787
57202,-0.597553,2.975607,8.879071,0.046392,-0.100255,-0.429886,-0.071358,0.238694,0.019410,-0.005872,0.029787,0.088787,0.999999,-0.000357,0.001193,0.000097,-0.002959,0.029834,-0.155373,-0.987401,17.890854,3.430373,-179.803230
57203,-0.457169,2.631756,8.896080,-0.111300,0.226738,-0.527670,-0.033153,0.273921,0.020240,-0.004453,0.026332,0.088963,0.999999,-0.000166,0.001370,0.000101,-0.002611,0.031150,-0.155187,-0.987390,17.872125,3.573321,-179.740987
57204,-0.453602,2.751806,9.212338,-0.161593,0.207478,-0.191038,-0.002907,0.307534,-0.005427,-0.004394,0.027520,0.092130,0.999999,-0.000015,0.001538,-0.000027,-0.002370,0.032654,-0.155143,-0.987349,17.870100,3.739273,-179.686944
57205,-0.816414,2.674065,9.482691,0.154913,0.366967,0.065564,0.020385,0.322443,-0.023911,-0.008008,0.026732,0.094843,0.999999,0.000102,0.001612,-0.000120,-0.002211,0.034243,-0.155214,-0.987285,17.881359,3.916452,-179.640270
57206,-1.224481,2.957677,9.906249,0.502203,0.233350,0.583189,0.059900,0.232090,-0.028322,-0.012126,0.029549,0.099085,0.999999,0.000299,0.001160,-0.000142,-0.002152,0.035391,-0.155476,-0.987203,17.913824,4.045275,-179.611964
57207,-0.783974,3.016386,9.839230,0.048034,0.157800,0.507023,0.022556,0.133166,-0.029312,-0.007770,0.030154,0.098401,1.000000,0.000113,0.000666,-0.000147,-0.002167,0.036050,-0.155554,-0.987167,17.923954,4.120184,-179.601544
57208,-0.560512,2.823241,9.622651,-0.167652,0.274668,0.226073,0.013647,0.085746,-0.027996,-0.005560,0.028227,0.096231,1.000000,0.000068,0.000429,-0.000140,-0.002212,0.036475,-0.155585,-0.987146,17.928137,4.169172,-179.598871
57209,-0.461379,2.490152,9.260642,-0.243361,0.480708,-0.227130,0.020898,0.075400,-0.028661,-0.004575,0.024893,0.092611,1.000000,0.000104,0.000377,-0.000143,-0.002269,0.036849,-0.155655,-0.987121,17.936617,4.212474,-179.598294
57210,-0.671884,2.325801,9.041555,-0.023915,0.575352,-0.470371,0.082907,0.109459,-0.042601,-0.006664,0.023222,0.090429,1.000000,0.000415,0.000547,-0.000213,-0.002380,0.037402,-0.156025,-0.987042,17.980189,4.276953,-179.599377
57211,-0.930099,2.555526,8.925434,0.226028,0.330846,-0.490746,0.105113,0.143179,-0.062757,-0.009229,0.025511,0.089274,1.000000,0.000526,0.000716,-0.000314,-0.002568,0.038136,-0.156504,-0.986937,18.036430,4.363226,-179.605334
57212,-1.027695,3.018498,8.993786,0.293676,-0.080810,-0.275242,0.060173,0.188437,-0.088256,-0.010179,0.030162,0.089957,0.999999,0.000301,0.000942,-0.000441,-0.002838,0.039115,-0.156755,-0.986859,18.066119,4.478841,-179.617201
57213,-0.637129,3.329467,9.149833,-0.135540,-0.331117,-0.061653,-0.047138,0.244904,-0.107236,-0.006241,0.033320,0.091498,0.999999,-0.000236,0.001225,-0.000536,-0.003136,0.040387,-0.156475,-0.986851,18.034616,4.628430,-179.629287
57214,-0.377844,3.253094,9.342390,-0.436439,-0.209273,0.075248,-0.110468,0.316285,-0.092532,-0.003616,0.032584,0.093412,0.999998,-0.000552,0.001581,-0.000463,-0.003294,0.042002,-0.155884,-0.986876,17.968154,4.814462,-179.620883
57215,-0.727956,3.262323,9.805508,-0.159157,-0.083521,0.545316,-0.083640,0.343155,-0.057159,-0.007102,0.032666,0.098054,0.999998,-0.000418,0.001716,-0.000286,-0.003261,0.043721,-0.155436,-0.986873,17.919473,5.008744,-179.588450
57216,-0.820580,3.283271,10.151284,-0.129285,-0.004706,0.887078,-0.062067,0.289824,-0.029985,-0.008054,0.032865,0.101514,0.999999,-0.000310,0.001449,-0.000150,-0.003141,0.045156,-0.155095,-0.986862,17.883400,5.169331,-179.550805
57217,-0.671626,3.214164,10.290230,-0.313980,0.097583,0.983730,-0.022473,0.207517,-0.007960,-0.006608,0.032153,0.102906,0.999999,-0.000112,0.001038,-0.000040,-0.002984,0.046166,-0.154957,-0.986837,17.870195,5.281035,-179.515600
57218,-0.399424,3.127303,10.224049,-0.595010,0.155752,0.868718,-0.003617,0.144968,-0.000908,-0.003920,0.031275,0.102243,1.000000,-0.000018,0.000725,-0.000005,-0.002846,0.046862,-0.154909,-0.986813,17.866859,5.357526,-179.487685
57219,-0.485261,2.758409,9.943703,-0.488796,0.421783,0.497730,0.012790,0.107928,-0.006853,-0.004798,0.027578,0.099441,1.000000,0.000064,0.000540,-0.000034,-0.002769,0.047379,-0.154943,-0.986783,17.872362,5.414732,-179.469465
57220,-0.743892,2.453784,9.591183,-0.201738,0.609307,0.094546,0.060666,0.085594,-0.007654,-0.007397,0.024509,0.095922,1.000000,0.000303,0.000428,-0.000038,-0.002725,0.047787,-0.155210,-0.986721,17.904558,5.459995,-179.455708
57221,-1.051475,2.199698,9.169559,0.140549,0.730263,-0.353722,0.062901,0.097658,-0.014447,-0.010468,0.021969,0.091708,1.000000,0.000315,0.000488,-0.000072,-0.002705,0.048259,-0.155489,-0.986654,17.938237,5.512925,-179.443412
57222,-1.446910,1.768844,8.649416,0.581124,0.990618,-0.940500,0.084873,0.146967,-0.022556,-0.014404,0.017653,0.086512,1.000000,0.000424,0.000735,-0.000113,-0.002693,0.048980,-0.155872,-0.986558,17.984565,5.594252,-179.426868
57223,-2.288564,1.934558,8.313197,1.431292,0.746470,-1.124568,0.113915,0.229135,-0.026721,-0.022788,0.019301,0.083169,0.999999,0.000570,0.001146,-0.000134,-0.002644,0.050109,-0.156402,-0.986418,18.049165,5.720973,-179.397786
57224,-3.223019,2.967128,8.131010,2.335496,-0.278229,-0.881113,-0.040024,0.279361,-0.031910,-0.032112,0.029693,0.081349,0.999999,-0.000200,0.001397,-0.000160,-0.002544,0.051493,-0.156167,-0.986384,18.025835,5.876124,-179.362663
57225,-2.695885,3.586711,7.904348,1.795658,-0.962674,-0.954938,-0.439208,0.332266,-0.025440,-0.026823,0.036044,0.079009,0.999996,-0.002196,0.001661,-0.000127,-0.002266,0.053136,-0.153969,-0.986643,17.775621,6.058907,-179.314860
57226,-1.762119,2.494136,7.380341,0.914359,-0.139302,-1.879252,-0.758206,0.467079,0.004575,-0.017449,0.025221,0.073749,0.999990,-0.003791,0.002335,0.000023,-0.001653,0.055427,-0.150202,-0.987099,17.346616,6.310695,-179.228336
57227,-1.740576,1.799719,7.438188,0.860340,0.487256,-2.026980,-0.686032,0.634558,0.043810,-0.017174,0.018249,0.074374,0.999989,-0.003430,0.003173,0.000219,-0.000740,0.058510,-0.146803,-0.987433,16.965249,6.647871,-179.093308
57228,-1.499515,1.879128,7.531373,0.557663,0.388705,-1.936219,-0.572995,0.744344,0.036662,-0.014718,0.019004,0.075315,0.999989,-0.002865,0.003722,0.000183,0.000184,0.062142,-0.143954,-0.987631,16.650596,7.047580,-178.946029
57229,-1.505200,1.902852,7.675805,0.483879,0.367891,-1.785579,-0.482614,0.866353,-0.022231,-0.014717,0.019215,0.076776,0.999988,-0.002413,0.004332,-0.000111,0.000879,0.066415,-0.141533,-0.987703,16.387404,7.524313,-178.813062
57230,-1.871378,1.580314,7.834465,0.759088,0.695410,-1.669109,-0.406974,0.956078,-0.102143,-0.018331,0.015972,0.078400,0.999986,-0.002035,0.004780,-0.000511,0.001216,0.071188,-0.139451,-0.987666,16.164009,8.064137,-178.711974
57231,-2.430757,1.206812,7.892079,1.229833,1.056048,-1.626022,-0.281687,1.021854,-0.179645,-0.023893,0.012201,0.079026,0.999986,-0.001408,0.005109,-0.000898,0.001173,0.076337,-0.137960,-0.987491,16.008820,8.652450,-178.644945
57232,-3.727966,0.863777,8.059416,2.404460,1.444991,-1.343460,-0.146114,1.054898,-0.232157,-0.036844,0.008740,0.080783,0.999985,-0.000731,0.005274,-0.001161,0.000839,0.081687,-0.137109,-0.987182,15.927633,9.267790,-178.603251
57233,-5.159888,0.754970,7.909912,3.755840,1.537545,-1.251727,0.007080,0.946678,-0.246481,-0.051214,0.007610,0.079342,0.999988,0.000035,0.004733,-0.001232,0.000301,0.086507,-0.137010,-0.986785,15.930854,9.825374,-178.586967
57234,-5.547859,1.532357,7.652678,4.086408,0.727477,-1.183558,0.029674,0.786675,-0.283166,-0.055155,0.015390,0.076746,0.999991,0.000148,0.003933,-0.001416,-0.000541,0.090567,-0.136999,-0.986422,15.938586,10.301163,-178.616961
57235,-4.132919,2.583549,7.620718,2.604331,-0.342657,-1.156437,-0.255293,0.696508,-0.381877,-0.041014,0.026011,0.076317,0.999991,-0.001276,0.003483,-0.001909,-0.001800,0.094243,-0.135541,-0.986278,15.770491,10.742076,-178.717096
57236,-3.016807,1.252836,7.019686,1.592448,0.716721,-2.269704,-0.492192,0.792028,-0.481322,-0.029859,0.012773,0.070284,0.999986,-0.002461,0.003960,-0.002407,-0.003376,0.098465,-0.132860,-0.986226,15.457106,11.251393,-178.860485
57237,-2.899784,1.005442,7.108283,1.398649,0.939469,-2.255707,-0.279655,0.920189,-0.540438,-0.028643,0.010232,0.071201,0.999985,-0.001398,0.004601,-0.002702,-0.005260,0.103345,-0.131201,-0.985940,15.261487,11.839085,-179.019621
57238,-2.955600,1.669209,7.328645,1.301152,0.331257,-1.848555,-0.137327,1.026323,-0.601558,-0.029129,0.016831,0.073425,0.999982,-0.000687,0.005132,-0.003008,-0.007452,0.108788,-0.130205,-0.985473,15.140852,12.495064,-179.199394
57239,-3.066851,2.401360,7.810407,1.176964,-0.269448,-1.168863,-0.065564,1.112358,-0.656754,-0.030154,0.024139,0.078265,0.999979,-0.000328,0.005562,-0.003284,-0.009896,0.114677,-0.129537,-0.984871,15.055434,13.205704,-179.398642
57240,-2.763047,3.207298,8.511110,0.568900,-0.890476,-0.365875,-0.104005,1.145237,-0.701117,-0.027030,0.032213,0.085250,0.999977,-0.000520,0.005726,-0.003506,-0.012518,0.120761,-0.128644,-0.984231,14.939743,13.941693,-179.620390
57241,-2.099851,2.879782,8.906051,-0.275147,-0.498425,-0.236952,-0.134543,1.184505,-0.704874,-0.020369,0.028930,0.089163,0.999976,-0.000673,0.005922,-0.003524,-0.015110,0.127030,-0.127601,-0.983541,14.804719,14.698590,-179.840319
57242,-2.056371,2.951679,9.629797,-0.632535,-0.396314,0.439889,0.036567,1.203953,-0.653708,-0.019887,0.029565,0.096424,0.999977,0.000183,0.006020,-0.003269,-0.017550,0.133350,-0.127423,-0.982687,14.772248,15.459383,179.969757
57243,-2.283338,3.535742,10.372238,-0.784478,-0.767753,1.326965,0.161204,1.151413,-0.562245,-0.022136,0.035337,0.103880,0.999979,0.000806,0.005757,-0.002811,-0.019653,0.139330,-0.127912,-0.981753,14.821433,16.176796,179.824326
57244,-2.917382,4.074965,11.125378,-0.558609,-1.082160,2.328388,0.206484,1.052227,-0.460154,-0.028494,0.040701,0.111447,0.999983,0.001032,0.005261,-0.002301,-0.021352,0.144754,-0.128675,-0.980833,14.906884,16.825310,179.722653
57245,-2.843127,4.610125,11.935763,-1.026552,-1.371581,3.182036,0.159976,0.823474,-0.381952,-0.027851,0.046059,0.119510,0.999989,0.000800,0.004117,-0.001910,-0.022778,0.149001,-0.129244,-0.980090,14.968342,17.334891,179.631863
57246,-1.632839,4.056998,11.970562,-2.249207,-0.811455,2.705367,0.048069,0.634210,-0.338923,-0.015880,0.040568,0.119766,0.999994,0.000240,0.003171,-0.001695,-0.024034,0.152309,-0.129269,-0.979548,14.963204,17.734208,179.536374
57247,-1.100405,3.161053,11.877990,-2.732266,0.046019,2.221509,0.191906,0.545848,-0.319294,-0.010629,0.031514,0.118840,0.999995,0.000960,0.002729,-0.001596,-0.025357,0.155146,-0.130005,-0.978972,15.039662,18.080945,179.438939
57248,-0.652652,3.246795,12.009963,-3.272014,0.035234,2.208087,0.369307,0.456245,-0.305859,-0.006203,0.032256,0.120174,0.999995,0.001847,0.002281,-0.001529,-0.026813,0.157517,-0.131603,-0.978340,15.215018,18.376991,179.335529
57249,-0.788438,3.505528,12.069192,-3.246259,-0.150751,2.353423,0.437355,0.437235,-0.303638,-0.007567,0.034803,0.120785,0.999994,0.002187,0.002186,-0.001518,-0.028321,0.159777,-0.133536,-0.977669,15.429051,18.661854,179.231580
57250,-1.190492,3.848309,12.281749,-3.021912,-0.377575,2.748886,0.392458,0.376476,-0.299738,-0.011616,0.038260,0.122915,0.999995,0.001962,0.001882,-0.001499,-0.029817,0.161746,-0.135238,-0.977067,15.614296,18.913400,179.120664
57251,-1.518396,3.699463,12.195847,-2.720270,-0.221485,2.728486,0.290656,0.295739,-0.279645,-0.014952,0.036838,0.122034,0.999997,0.001453,0.001479,-0.001398,-0.031184,0.163317,-0.136450,-0.976594,15.740947,19.117099,179.009109
57252,-1.930261,3.595612,12.040216,-2.309780,-0.140329,2.687961,0.253968,0.193931,-0.241428,-0.019143,0.035826,0.120466,0.999998,0.001270,0.000970,-0.001207,-0.032406,0.164373,-0.137494,-0.976231,15.847741,19.259237,178.903125
57253,-1.914793,3.752518,11.873199,-2.312881,-0.313057,2.567668,0.190593,0.082438,-0.198163,-0.019062,0.037431,0.118776,0.999999,0.000953,0.000412,-0.000991,-0.033440,0.164861,-0.138250,-0.976007,15.920748,19.332991,178.804295
57254,-1.850771,3.479278,11.502464,-2.238758,-0.138972,2.137461,0.104988,0.021722,-0.150309,-0.018469,0.034746,0.115045,1.000000,0.000525,0.000109,-0.000752,-0.034212,0.165036,-0.138613,-0.975899,15.950123,19.366030,178.723101
57255,-2.305118,3.294860,11.206608,-1.700695,-0.045203,1.971341,0.114601,-0.022692,-0.115655,-0.023045,0.032898,0.112082,1.000000,0.000573,-0.000113,-0.000578,-0.034853,0.164967,-0.139047,-0.975826,15.989649,19.369007,178.654954
57256,-2.514294,3.539613,10.832997,-1.411693,-0.382924,1.765950,0.071639,-0.082130,-0.091073,-0.025171,0.035369,0.108332,1.000000,0.000358,-0.000411,-0.000455,-0.035381,0.164599,-0.139279,-0.975836,16.005634,19.335462,178.591019
57257,-2.378921,3.511118,10.381589,-1.387981,-0.480661,1.305185,-0.017899,-0.103142,-0.074560,-0.023830,0.035129,0.103800,1.000000,-0.000089,-0.000516,-0.000373,-0.035768,0.164132,-0.139086,-0.975928,15.972796,19.287664,178.533426
57258,-2.386923,3.078467,9.985789,-1.199525,-0.185243,0.837062,-0.060458,-0.086870,-0.057326,-0.023904,0.030822,0.099838,1.000000,-0.000302,-0.000434,-0.000287,-0.036026,0.163739,-0.138700,-0.976040,15.919475,19.246061,178.488490
57259,-2.440669,2.856216,9.704159,-1.029798,-0.059046,0.542098,-0.012019,-0.054302,-0.037523,-0.024428,0.028573,0.097033,1.000000,-0.000060,-0.000272,-0.000188,-0.036203,0.163484,-0.138576,-0.976094,15.899908,19.219281,178.460733
57260,-2.701573,2.969104,9.595940,-0.759859,-0.205520,0.559223,0.023210,-0.019673,-0.019914,-0.027022,0.029683,0.095960,1.000000,0.000116,-0.000098,-0.000100,-0.036299,0.163378,-0.138641,-0.976099,15.905452,19.208736,178.448863
57261,-3.048657,3.187763,9.528869,-0.436358,-0.442327,0.669174,0.007621,0.011190,-0.005411,-0.030480,0.031875,0.095292,1.000000,0.000038,0.000056,-0.000027,-0.036291,0.163416,-0.138650,-0.976091,15.906900,19.213000,178.450740
57262,-3.397432,3.192327,9.586375,-0.125442,-0.442383,0.837226,-0.060915,0.001957,0.013051,-0.033975,0.031950,0.095854,1.000000,-0.000305,0.000010,0.000065,-0.036142,0.163408,-0.138336,-0.976143,15.871780,19.209168,178.461719
57263,-3.520996,2.763892,9.341062,0.119606,-0.111085,0.544208,-0.089297,-0.039684,0.034406,-0.035233,0.027675,0.093391,1.000000,-0.000446,-0.000198,0.000172,-0.035895,0.163187,-0.137895,-0.976251,15.822564,19.179163,178.478401
57264,-3.592911,2.400782,9.078103,0.317692,0.156193,0.235167,-0.030739,-0.073838,0.059049,-0.035970,0.024011,0.090764,1.000000,-0.000154,-0.000369,0.000295,-0.035599,0.162772,-0.137752,-0.976352,15.809438,19.126379,178.503703
57265,-3.619610,2.449319,8.755439,0.446641,0.018163,-0.037278,0.003846,-0.085254,0.081098,-0.036243,0.024477,0.087539,1.000000,0.000019,-0.000426,0.000405,-0.035232,0.162280,-0.137796,-0.976441,15.820012,19.063971,178.540101
57266,-3.619346,2.929355,8.674784,0.426720,-0.463876,0.012555,-0.005123,-0.070689,0.074226,-0.036235,0.029282,0.086734,1.000000,-0.000026,-0.000353,0.000371,-0.034881,0.161865,-0.137791,-0.976523,15.824558,19.010572,178.574746
57267,-3.311253,3.602624,8.870132,0.006979,-1.056792,0.262314,-0.202382,-0.027615,0.045898,-0.033133,0.036108,0.088660,0.999999,-0.001012,-0.000138,0.000229,-0.034478,0.161715,-0.136809,-0.976700,15.713332,18.985453,178.600140
57268,-3.134676,2.193440,8.576102,0.090726,0.198633,-0.424441,-0.254853,-0.001087,0.063893,-0.031354,0.022034,0.085733,0.999999,-0.001274,-0.000005,0.000319,-0.033927,0.161690,-0.135588,-0.976894,15.576598,18.972168,178.640309
57269,-3.094987,2.407538,8.663302,0.004863,0.007716,-0.303328,-0.019055,0.003801,0.097885,-0.030960,0.024068,0.086631,1.000000,-0.000095,0.000019,0.000489,-0.033397,0.161627,-0.135549,-0.976928,15.581944,18.956469,178.701237
57270,-3.148286,3.124099,8.842488,-0.074507,-0.630088,0.059431,0.016816,0.000407,0.111143,-0.031500,0.031216,0.088428,1.000000,0.000084,0.000002,0.000556,-0.032834,0.161531,-0.135694,-0.976943,15.609870,18.936767,178.769221
57271,-3.299674,3.025554,8.706221,0.125905,-0.574977,-0.040602,-0.059578,-0.012574,0.119251,-0.033020,0.030262,0.087051,1.000000,-0.000298,-0.000063,0.000596,-0.032178,0.161380,-0.135471,-0.977020,15.595126,18.908715,178.839924
57272,-3.105707,2.465230,8.398174,0.102384,-0.119686,-0.526823,-0.063591,-0.021832,0.136917,-0.031083,0.024658,0.083971,1.000000,-0.000318,-0.000109,0.000685,-0.031440,0.161171,-0.135240,-0.977111,15.580646,18.872783,178.919319
57273,-3.027736,2.210473,8.267697,0.100215,0.092367,-0.735815,0.011517,0.005939,0.158439,-0.030292,0.022076,0.082679,1.000000,0.000058,0.000030,0.000792,-0.030637,0.161072,-0.135399,-0.977131,15.614919,18.848916,179.015866
57274,-3.258629,2.180972,8.205215,0.342848,0.107629,-0.725789,0.058765,0.051297,0.171703,-0.032584,0.021758,0.082067,1.000000,0.000294,0.000256,0.000859,-0.029777,0.161178,-0.135805,-0.977083,15.680880,18.847883,179.127423
57275,-3.717968,2.386840,8.303488,0.725955,-0.059388,-0.435179,0.037766,0.071760,0.191649,-0.037173,0.023817,0.083053,0.999999,0.000189,0.000359,0.000958,-0.028789,0.161374,-0.136129,-0.977036,15.739900,18.854988,179.254059
57276,-4.043372,2.145152,8.250972,1.073998,0.161660,-0.439883,-0.059491,0.059002,0.223367,-0.040433,0.021431,0.082515,0.999999,-0.000297,0.000295,0.001117,-0.027576,0.161499,-0.136000,-0.977068,15.748249,18.850026,179.396983
57277,-4.235087,1.961727,8.078287,1.327850,0.290813,-0.582558,-0.121855,0.042381,0.252377,-0.042358,0.019613,0.080780,0.999999,-0.000609,0.000212,0.001262,-0.026182,0.161532,-0.135588,-0.977158,15.725659,18.831437,179.554178
57278,-4.059523,1.632319,7.824750,1.273548,0.535330,-0.954787,-0.236031,0.025878,0.255740,-0.040606,0.016364,0.078233,0.999998,-0.001180,0.000129,0.001279,-0.024691,0.161497,-0.134617,-0.977337,15.637092,18.803409,179.710507
57279,-4.046221,1.007156,7.252279,1.495141,0.972679,-1.639545,-0.259607,0.063319,0.224403,-0.040451,0.010120,0.072522,0.999998,-0.001298,0.000317,0.001122,-0.023309,0.161668,-0.133512,-0.977494,15.531321,18.801077,179.854812
57280,-4.234094,1.039749,6.994783,1.743277,0.859971,-1.802880,-0.275908,0.143041,0.104261,-0.042296,0.010472,0.069964,0.999999,-0.001380,0.000715,0.000521,-0.022448,0.162312,-0.132237,-0.977581,15.397514,18.861531,179.941764
57281,-4.697130,0.671889,6.715120,2.283417,1.117409,-1.993188,-0.433499,0.270554,-0.119852,-0.046876,0.006893,0.067200,0.999997,-0.002167,0.001353,-0.000599,-0.022469,0.163742,-0.130025,-0.977639,15.137912,19.026440,179.918082
57282,-5.120009,0.003919,6.442947,2.798335,1.652273,-2.251927,-0.494021,0.368588,-0.384916,-0.051081,0.000297,0.064523,0.999993,-0.002470,0.001843,-0.001925,-0.023674,0.165831,-0.127307,-0.977616,14.796951,19.284953,179.753291
57283,-5.035679,0.166874,6.350248,2.697513,1.422247,-2.301910,-0.456354,0.446201,-0.632108,-0.050209,0.001973,0.063610,0.999990,-0.002282,0.002231,-0.003161,-0.026067,0.168448,-0.124579,-0.977459,14.432025,19.621033,179.453274
57284,-4.445042,1.185473,6.676747,1.893848,0.468548,-1.942749,-0.436196,0.532171,-0.815541,-0.044223,0.012181,0.066859,0.999986,-0.002181,0.002661,-0.004078,-0.029321,0.171596,-0.121799,-0.977169,14.042960,20.029227,179.054526
57285,-4.081258,1.440244,6.971439,1.368665,0.239935,-1.725637,-0.507176,0.661958,-0.869118,-0.040518,0.014756,0.069812,0.999982,-0.002536,0.003310,-0.004346,-0.032694,0.175412,-0.118645,-0.976773,13.604848,20.513859,178.638962
57286,-3.867286,1.486555,7.166926,1.025003,0.189840,-1.600308,-0.411643,0.771874,-0.813430,-0.038335,0.015170,0.071787,0.999982,-0.002058,0.003859,-0.004067,-0.035815,0.179714,-0.116016,-0.976197,13.233047,21.050052,178.266866
57287,-3.593986,2.064959,7.563820,0.486194,-0.314825,-1.207116,-0.324408,0.879300,-0.700431,-0.035534,0.020897,0.075761,0.999983,-0.001622,0.004396,-0.003502,-0.038397,0.184449,-0.113934,-0.975460,12.936702,21.629029,177.973010
57288,-3.423362,2.064650,7.818174,0.145383,-0.285154,-1.037568,-0.291384,0.977747,-0.588253,-0.033790,0.020860,0.078317,0.999983,-0.001457,0.004889,-0.002941,-0.040408,0.189592,-0.112127,-0.974602,12.684634,22.247949,177.755663
57289,-3.433359,1.718867,8.020931,0.024007,0.071762,-0.920491,-0.183502,1.065402,-0.491228,-0.033863,0.017346,0.080375,0.999982,-0.000918,0.005327,-0.002456,-0.041994,0.195075,-0.110956,-0.973587,12.518439,22.902505,177.605838
57290,-3.720637,1.473357,8.273550,0.119808,0.347260,-0.629572,-0.004831,1.132536,-0.404520,-0.036707,0.014810,0.082944,0.999982,-0.000024,0.005663,-0.002023,-0.043297,0.200797,-0.110746,-0.972390,12.476112,23.584122,177.515479
57291,-4.195779,1.744627,8.663481,0.258258,0.162236,-0.034651,0.151167,1.167771,-0.336013,-0.041422,0.017451,0.086891,0.999981,0.000756,0.005839,-0.001680,-0.044400,0.206606,-0.111370,-0.971051,12.541490,24.276451,177.471848
57292,-4.994833,2.227752,9.150343,0.609679,-0.208241,0.827969,0.155870,1.158499,-0.289922,-0.049385,0.022278,0.091808,0.999982,0.000779,0.005792,-0.001450,-0.045290,0.212341,-0.112054,-0.969693,12.620148,24.958412,177.455649
57293,-5.795434,2.113449,9.532701,1.073119,-0.024479,1.490970,0.076244,1.046365,-0.267164,-0.057426,0.021175,0.095636,0.999985,0.000381,0.005232,-0.001336,-0.046044,0.217526,-0.112352,-0.968473,12.653187,25.574324,177.438996
57294,-6.016092,1.880764,9.878664,1.050748,0.281802,1.854973,0.031200,0.837206,-0.250501,-0.059723,0.018867,0.099040,0.999990,0.000156,0.004186,-0.001253,-0.046787,0.221698,-0.112395,-0.967486,12.651609,26.071784,177.403257
57295,-5.605350,1.647498,9.924191,0.608396,0.538219,1.674849,0.033377,0.617326,-0.232868,-0.055728,0.016523,0.099417,0.999995,0.000167,0.003087,-0.001164,-0.047568,0.224789,-0.112418,-0.966731,12.642728,26.443539,177.347954
57296,-5.093773,1.467639,9.651605,0.228854,0.670288,1.176037,0.065177,0.446786,-0.234401,-0.050705,0.014704,0.096634,0.999997,0.000326,0.002234,-0.001172,-0.048490,0.227051,-0.112549,-0.966141,12.640023,26.720746,177.267171
57297,-4.646901,1.520399,9.376837,-0.106419,0.576308,0.746043,0.126805,0.359310,-0.247391,-0.046282,0.015202,0.093861,0.999997,0.000634,0.001797,-0.001237,-0.049590,0.228878,-0.112944,-0.965608,12.663575,26.950085,177.166236
57298,-4.430480,1.596864,9.094223,-0.227109,0.449240,0.416218,0.132814,0.315599,-0.267738,-0.044140,0.015967,0.091023,0.999998,0.000664,0.001578,-0.001339,-0.050824,0.230507,-0.113329,-0.965111,12.680974,27.158184,177.045817
57299,-4.224374,1.406366,8.841241,-0.307782,0.586905,0.064126,0.129063,0.328357,-0.282814,-0.042079,0.014066,0.088491,0.999997,0.000645,0.001642,-0.001414,-0.052115,0.232201,-0.113686,-0.964594,12.692825,27.374735,176.917995
57300,-4.422009,1.317844,8.596249,-0.049943,0.610224,-0.075575,0.184645,0.377231,-0.290888,-0.044039,0.013163,0.086058,0.999997,0.000923,0.001886,-0.001454,-0.053485,0.234124,-0.114309,-0.963981,12.736229,27.620256,176.791423
57301,-4.701799,1.691151,8.557670,0.113822,0.234641,0.093494,0.192840,0.409980,-0.306036,-0.046817,0.016901,0.085689,0.999996,0.000964,0.002050,-0.001530,-0.054915,0.236205,-0.114966,-0.963314,12.782147,27.885500,176.660351
57302,-4.915562,1.749083,8.456976,0.288740,0.147026,0.118942,0.111763,0.469756,-0.376736,-0.048924,0.017536,0.084695,0.999995,0.000559,0.002349,-0.001884,-0.056559,0.238640,-0.115160,-0.962596,12.763235,28.193706,176.492339
57303,-5.378855,4.382661,11.018861,-0.952156,-1.791793,3.049553,0.053815,0.578792,-0.506412,-0.053358,0.043932,0.110355,0.999993,0.000269,0.002894,-0.002532,-0.058691,0.241683,-0.114955,-0.961733,12.678746,28.578502,176.257206
57304,-6.125721,4.073824,12.418721,-0.948268,-1.228727,4.537765,-0.446146,0.216875,-0.386614,-0.061043,0.041133,0.124162,0.999995,-0.002231,0.001084,-0.001933,-0.059853,0.243065,-0.112378,-0.961617,12.317187,28.745740,176.044527
57305,-5.762468,3.818465,13.257219,-1.614281,-0.828858,5.028039,-0.417160,-0.251926,-0.194716,-0.057754,0.038517,0.132419,0.999997,-0.002086,-0.001260,-0.000974,-0.060387,0.242070,-0.110037,-0.962106,12.000060,28.625583,175.889166
57306,-4.608350,3.024620,12.388519,-2.034326,-0.265393,3.590691,-0.378694,-0.784911,0.011177,-0.046571,0.030478,0.123645,0.999991,-0.001893,-0.003925,0.000056,-0.060272,0.238387,-0.107965,-0.963267,11.734111,28.182104,175.794375
57307,-2.476560,2.120597,10.537947,-2.826130,0.273640,0.846376,-0.008287,-1.021201,0.152458,-0.025319,0.021191,0.105250,0.999987,-0.000041,-0.005106,0.000762,-0.060043,0.233369,-0.107774,-0.964530,11.709870,27.588929,175.760261
57308,-1.183894,2.851457,9.618291,-3.588999,-0.562628,-0.386888,0.275413,-0.908863,0.172511,-0.012300,0.028372,0.096167,0.999988,0.001377,-0.004544,0.000863,-0.059987,0.228793,-0.109003,-0.965491,11.860307,27.056787,175.752690
57309,-0.684139,3.381017,9.226026,-3.878363,-1.115185,-0.827525,0.273615,-0.647849,0.131692,-0.007163,0.033679,0.092284,0.999994,0.001368,-0.003239,0.000658,-0.059981,0.225494,-0.110256,-0.966126,12.013655,26.675479,175.752944
57310,-0.769014,3.451765,9.607966,-3.928731,-1.078594,-0.420103,0.192104,-0.344088,0.093013,-0.007871,0.034422,0.096099,0.999998,0.000961,-0.001720,0.000465,-0.059904,0.223706,-0.111158,-0.966442,12.126782,26.469126,175.768398
57311,-2.050157,4.323395,10.229547,-3.168424,-1.834852,0.870610,0.253103,-0.056200,0.061003,-0.020543,0.043098,0.102344,0.999999,0.001266,-0.000281,0.000305,-0.059887,0.223307,-0.112409,-0.966391,12.283446,26.427711,175.802489
57312,-3.149079,4.089545,9.861127,-1.993703,-1.764531,0.994462,-0.138094,0.065110,-0.042288,-0.031450,0.040970,0.098593,1.000000,-0.000690,0.000326,-0.000211,-0.059866,0.223669,-0.111688,-0.966392,12.194194,26.466678,175.788240
57313,-3.105578,2.416670,8.873490,-1.357760,-0.402650,-0.209668,-0.257938,0.216056,-0.152348,-0.030941,0.024305,0.088737,0.999998,-0.001290,0.001080,-0.000762,-0.060157,0.224858,-0.110312,-0.966256,12.014797,26.603474,175.725403
57314,-4.134606,1.792425,8.940799,-0.397487,0.126332,0.190888,-0.192472,0.353172,-0.215207,-0.041169,0.018055,0.089463,0.999997,-0.000962,0.001766,-0.001076,-0.060750,0.226722,-0.109220,-0.965908,11.862693,26.824255,175.640659
57315,-4.954283,1.265121,9.055099,0.332031,0.588626,0.564373,-0.149843,0.319962,-0.246111,-0.049382,0.012780,0.090621,0.999998,-0.000749,0.001600,-0.001231,-0.061558,0.228430,-0.108291,-0.965559,11.723840,27.030000,175.531437
57316,-5.533158,1.114900,8.924295,0.894343,0.649803,0.688728,0.030306,0.228500,-0.252087,-0.055215,0.011205,0.089308,0.999999,0.000152,0.001142,-0.001260,-0.062650,0.229641,-0.108194,-0.965212,11.680228,27.184802,175.405838
57317,-5.356995,1.321298,8.687763,0.783503,0.402273,0.441323,0.115992,0.104785,-0.260048,-0.053507,0.013232,0.086913,0.999999,0.000580,0.000524,-0.001300,-0.063946,0.230234,-0.108465,-0.964955,11.675965,27.271232,175.258999
57318,-5.107445,1.518381,8.327630,0.671690,0.145057,0.049801,0.181295,0.053597,-0.247264,-0.051033,0.015171,0.083304,0.999999,0.000906,0.000268,-0.001236,-0.065283,0.230551,-0.109046,-0.964725,11.709255,27.327368,175.113316
57319,-4.872383,2.071555,8.208973,0.408119,-0.397017,-0.061046,0.167046,0.046578,-0.236258,-0.048680,0.020704,0.082118,0.999999,0.000835,0.000233,-0.001181,-0.066553,0.230833,-0.109571,-0.964511,11.737318,27.378477,174.973785
57320,-4.767719,2.265255,8.299110,0.232082,-0.554706,0.004450,0.050618,0.055090,-0.214036,-0.047630,0.022683,0.083010,0.999999,0.000253,0.000275,-0.001070,-0.067579,0.231181,-0.109560,-0.964357,11.705209,27.431678,174.849187
57321,-4.714369,1.991311,8.386488,0.186019,-0.270964,0.006464,-0.018824,0.069840,-0.182586,-0.047096,0.019964,0.083879,1.000000,-0.000094,0.000349,-0.000913,-0.068363,0.231608,-0.109259,-0.964234,11.643511,27.489511,174.746450
57322,-4.652375,1.861315,8.614670,0.045506,-0.094016,0.152788,-0.046353,0.075646,-0.146644,-0.046477,0.018667,0.086160,1.000000,-0.000232,0.000378,-0.000733,-0.068939,0.232051,-0.108866,-0.964131,11.576477,27.546278,174.666941
57323,-4.740136,1.579335,8.759844,0.102615,0.197395,0.269403,-0.044913,0.050936,-0.122602,-0.047369,0.015842,0.087607,1.000000,-0.000225,0.000255,-0.000613,-0.069415,0.232362,-0.108501,-0.964063,11.515996,27.586416,174.599499
57324,-4.696920,1.424668,8.863362,0.042785,0.369406,0.312116,0.012534,0.014173,-0.099951,-0.046956,0.014265,0.088638,1.000000,0.000063,0.000071,-0.000500,-0.069868,0.232463,-0.108425,-0.964014,11.492556,27.603207,174.541468
57325,-4.840805,1.484301,9.136701,0.040799,0.366373,0.626659,0.097217,-0.039797,-0.066230,-0.048421,0.014815,0.091365,1.000000,0.000486,-0.000199,-0.000331,-0.070286,0.232256,-0.108779,-0.963994,11.524579,27.585920,174.497987
57326,-5.151584,1.482572,9.297004,0.257424,0.388892,0.908953,0.172130,-0.160823,-0.007240,-0.051590,0.014748,0.092941,0.999999,0.000861,-0.000804,-0.000036,-0.070573,0.231407,-0.109518,-0.964093,11.609284,27.493887,174.476011
57327,-4.767985,1.646421,9.204414,-0.044094,0.256736,0.680054,0.264276,-0.322435,0.041832,-0.047832,0.016333,0.091989,0.999998,0.001321,-0.001612,0.000209,-0.070817,0.229719,-0.110703,-0.964344,11.751599,27.305595,174.463915
57328,-4.106879,1.818111,8.820555,-0.455441,0.075689,0.074718,0.320248,-0.419382,0.115203,-0.041264,0.018016,0.088148,0.999996,0.001601,-0.002097,0.000576,-0.070826,0.227502,-0.112204,-0.964695,11.940714,27.054273,174.484492
57329,-3.491272,2.222018,8.581401,-0.930452,-0.293546,-0.335629,0.344042,-0.409144,0.180369,-0.035108,0.022041,0.085780,0.999996,0.001720,-0.002046,0.000902,-0.070541,0.225288,-0.113900,-0.965037,12.162385,26.800896,174.546511
57330,-3.600164,2.597250,8.810692,-0.957690,-0.578020,-0.010458,0.288060,-0.327987,0.247794,-0.036178,0.025801,0.088085,0.999997,0.001440,-0.001640,0.001239,-0.069821,0.223444,-0.115427,-0.965336,12.374862,26.584432,174.660485
57331,-4.240495,2.299272,9.132702,-0.422853,-0.232090,0.504374,0.266404,-0.337117,0.347763,-0.042599,0.022797,0.091286,0.999996,0.001332,-0.001686,0.001739,-0.068599,0.221506,-0.116959,-0.965686,12.601594,26.350194,174.834668
57332,-4.566470,2.707109,9.656889,-0.368129,-0.480696,1.190473,0.308408,-0.446509,0.447448,-0.045940,0.026820,0.096508,0.999994,0.001542,-0.002233,0.002237,-0.067005,0.218963,-0.118764,-0.966158,12.871316,26.041411,175.053870
57333,-4.326708,2.965452,9.801501,-0.615987,-0.635948,1.268793,0.249195,-0.582872,0.516492,-0.043629,0.029420,0.097925,0.999992,0.001246,-0.002914,0.002582,-0.065093,0.215738,-0.120313,-0.966822,13.115374,25.646868,175.294314
57334,-3.820565,2.752441,9.639276,-0.884061,-0.406868,0.870969,0.163150,-0.663477,0.540303,-0.038599,0.027342,0.096288,0.999991,0.000816,-0.003317,0.002702,-0.063021,0.212132,-0.121442,-0.967616,13.308536,25.203257,175.535167
57335,-3.390432,2.433263,9.362342,-1.024928,-0.118317,0.385558,0.183724,-0.636784,0.519817,-0.034265,0.024158,0.093537,0.999991,0.000919,-0.003184,0.002599,-0.061051,0.208658,-0.122656,-0.968344,13.507319,24.776670,175.764901
